distractor,target,set,ans1,ans2,rep_loop4.thisRepN,rep_loop4.thisTrialN,rep_loop4.thisN,rep_loop4.thisIndex,st2_prac_loop.thisRepN,st2_prac_loop.thisTrialN,st2_prac_loop.thisN,st2_prac_loop.thisIndex,st2_main_loop.thisRepN,st2_main_loop.thisTrialN,st2_main_loop.thisN,st2_main_loop.thisIndex,image_4.started,image_4.stopped,sound_2.started,sound_2.stopped,key_resp_3.keys,key_resp_3.rt,image_5.started,image_5.stopped,st_prac_back.started,st_prac_back.stopped,st_prac_text.started,st_prac_text.stopped,st_fix_back.started,st_fix_back.stopped,st_fix_2.started,st_fix_2.stopped,main_prac,st_ans,st_res,st_corr,st_rt,st_back.started,st_back.stopped,st2_resp.keys,st2_resp.corr,st_main_back.started,st_main_back.stopped,st_main_text.started,st_main_text.stopped,mouse_4.x,mouse_4.y,mouse_4.leftButton,mouse_4.midButton,mouse_4.rightButton,mouse_4.started,mouse_4.stopped,text_2.started,text_2.stopped,id*,date,expName,psychopyVersion,frameRate,
negative,yellow,1,k,None,,,,,0,0,0,0,,,,,29.626118599997426,None,34.13903808000032,None,space,51.430470699997386,85.58777579999878,None,88.03530989999854,None,88.03530989999854,None,90.03777119999722,None,90.03777119999722,None,prac,None,None,1,1.497023399999307,92.05186289999983,None,None,1,,,,,,,,,,,,,,101,2023-04-17_15h26.31.475,Main,2022.1.1,60.68211552231411,
positive,red,2,None,None,,,,,0,1,1,1,,,,,,,,,,,,,,,,,,,,,prac,None,None,1,1.4988531000053626,94.55436889999692,None,None,1,,,,,,,,,,,,,,101,2023-04-17_15h26.31.475,Main,2022.1.1,60.68211552231411,
negative,blue,2,None,k,,,,,0,2,2,2,,,,,,,,,,,,,,,,,,,,,prac,k,k,1,1.0967995999963023,97.05435369999759,None,None,0,,,,,,,,,,,,,,101,2023-04-17_15h26.31.475,Main,2022.1.1,60.68211552231411,
positive,yellow,1,None,k,,,,,0,3,3,3,,,,,,,,,,,,,,,,,,,,,prac,k,k,1,0.6516816000003018,99.15169600000081,None,None,0,,,,,,,,,,,,,,101,2023-04-17_15h26.31.475,Main,2022.1.1,60.68211552231411,
negative,blue,2,None,k,,,,,0,4,4,4,,,,,,,,,,,,,,,,,,,,,prac,k,k,1,1.6325832000002265,100.80425109999487,None,None,0,,,,,,,,,,,,,,101,2023-04-17_15h26.31.475,Main,2022.1.1,60.68211552231411,
negative,blue,1,None,k,,,,,0,5,5,5,,,,,,,,,,,,,,,,,,,,,prac,k,k,1,0.8349323000002187,104.43479269999807,None,None,0,,,,,,,,,,,,,,101,2023-04-17_15h26.31.475,Main,2022.1.1,60.68211552231411,
negative,yellow,2,k,None,,,,,0,6,6,6,,,,,,,,,,,,,,,,,,,,,prac,None,k,0,0.967987500000163,106.268141499997,None,None,1,,,,,,,,,,,,,,101,2023-04-17_15h26.31.475,Main,2022.1.1,60.68211552231411,
negative,red,1,None,None,,,,,0,7,7,7,,,,,,,,,,,,,,,,,,,,,prac,None,k,0,1.1491265000004205,109.23735459999443,None,None,1,,,,,,,,,,,,,,101,2023-04-17_15h26.31.475,Main,2022.1.1,60.68211552231411,
positive,yellow,2,None,k,,,,,0,8,8,8,,,,,,,,,,,,,,,,,,,,,prac,k,k,1,1.1155343999998877,112.38718919999519,None,None,0,,,,,,,,,,,,,,101,2023-04-17_15h26.31.475,Main,2022.1.1,60.68211552231411,
negative,yellow,1,k,None,,,,,0,9,9,9,,,,,,,,,,,,,,,,,,,,,prac,None,None,1,1.5011987999969278,114.50127039999643,None,None,1,,,,,,,,,,,,,,101,2023-04-17_15h26.31.475,Main,2022.1.1,60.68211552231411,
positive,yellow,2,None,k,,,,,0,10,10,10,,,,,,,,,,,,,,,,,,,,,prac,k,k,1,0.649301600002218,117.00393319999421,None,None,0,,,,,,,,,,,,,,101,2023-04-17_15h26.31.475,Main,2022.1.1,60.68211552231411,
negative,yellow,2,k,None,,,,,0,11,11,11,,,,,,,,,,,,,,,,,,,,,prac,None,None,1,1.4965144999951008,118.65381479999633,None,None,1,,,,,,,,,,,,,,101,2023-04-17_15h26.31.475,Main,2022.1.1,60.68211552231411,
negative,red,2,None,None,,,,,0,12,12,12,,,,,,,,,,,,,,,,,,,,,prac,None,None,1,1.4985880999956862,121.15143969999917,None,None,1,,,,,,,,,,,,,,101,2023-04-17_15h26.31.475,Main,2022.1.1,60.68211552231411,
positive,red,1,None,None,,,,,0,13,13,13,,,,,,,,,,,,,,,,,,,,,prac,None,None,1,1.5017963999998756,123.65107390000048,None,None,1,,,,,,,,,,,,,,101,2023-04-17_15h26.31.475,Main,2022.1.1,60.68211552231411,
positive,blue,2,k,None,,,,,0,14,14,14,,,,,,,,,,,,,,,,,,,,,prac,None,None,1,1.4990430000034394,126.15374529999826,None,None,1,,,,,,,,,,,,,,101,2023-04-17_15h26.31.475,Main,2022.1.1,60.68211552231411,
positive,blue,1,k,None,,,,,0,15,15,15,,,,,,,,,,,,,,,,,,,,,prac,None,None,1,1.4990441999980249,128.65129969999543,None,None,1,,,,,,,,,,,,,,101,2023-04-17_15h26.31.475,Main,2022.1.1,60.68211552231411,
negative,blue,1,None,k,,,,,0,16,16,16,,,,,,,,,,,,,,,,,,,,,prac,k,k,1,0.6324864000052912,131.15113749999728,None,None,0,,,,,,,,,,,,,,101,2023-04-17_15h26.31.475,Main,2022.1.1,60.68211552231411,
positive,blue,2,k,None,,,,,0,17,17,17,,,,,,,,,,,,,,,,,,,,,prac,None,None,1,1.4989238000052865,132.78451589999895,None,None,1,,,,,,,,,,,,,,101,2023-04-17_15h26.31.475,Main,2022.1.1,60.68211552231411,
positive,blue,1,k,None,,,,,0,18,18,18,,,,,,,,,,,,,,,,,,,,,prac,None,None,1,1.4968689999950584,135.28448709999793,None,None,1,,,,,,,,,,,,,,101,2023-04-17_15h26.31.475,Main,2022.1.1,60.68211552231411,
positive,yellow,1,None,k,,,,,0,19,19,19,,,,,,,,,,,,,,,,,,,,,prac,k,k,1,0.833703999996942,137.78437609999673,None,None,0,,,,,,,,,,,,,,101,2023-04-17_15h26.31.475,Main,2022.1.1,60.68211552231411,
negative,yellow,1,k,None,,,,,1,0,20,0,,,,,,,,,,,,,,,,,,,,,prac,None,None,1,1.5001913999949466,139.61768969999684,None,None,1,,,,,,,,,,,,,,101,2023-04-17_15h26.31.475,Main,2022.1.1,60.68211552231411,
positive,red,2,None,None,,,,,1,1,21,1,,,,,,,,,,,,,,,,,,,,,prac,None,None,1,1.4970182000033674,142.1176634000003,None,None,1,,,,,,,,,,,,,,101,2023-04-17_15h26.31.475,Main,2022.1.1,60.68211552231411,
negative,blue,2,None,k,,,,,1,2,22,2,,,,,,,,,,,,,,,,,,,,,prac,k,k,1,1.4157090000007884,144.61983739999414,None,None,0,,,,,,,,,,,,,,101,2023-04-17_15h26.31.475,Main,2022.1.1,60.68211552231411,
positive,yellow,1,None,k,,,,,1,3,23,3,,,,,,,,,,,,,,,,,,,,,prac,k,k,1,0.7824439999967581,147.0342438000007,None,None,0,,,,,,,,,,,,,,101,2023-04-17_15h26.31.475,Main,2022.1.1,60.68211552231411,
negative,blue,2,None,k,,,,,1,4,24,4,,,,,,,,,,,,,,,,,,,,,prac,k,k,1,0.9154030999998213,148.8175465999957,None,None,0,,,,,,,,,,,,,,101,2023-04-17_15h26.31.475,Main,2022.1.1,60.68211552231411,
negative,blue,1,None,k,,,,,1,5,25,5,,,,,,,,,,,,,,,,,,,,,prac,k,k,1,0.7326441999975941,150.73386789999495,None,None,0,,,,,,,,,,,,,,101,2023-04-17_15h26.31.475,Main,2022.1.1,60.68211552231411,
negative,yellow,2,k,None,,,,,1,6,26,6,,,,,,,,,,,,,,,,,,,,,prac,None,None,1,1.5014813000016147,152.46722600000066,None,None,1,,,,,,,,,,,,,,101,2023-04-17_15h26.31.475,Main,2022.1.1,60.68211552231411,
negative,red,1,None,None,,,,,1,7,27,7,,,,,,,,,,,,,,,,,,,,,prac,None,None,1,1.4969285999977728,154.96979649999412,None,None,1,,,,,,,,,,,,,,101,2023-04-17_15h26.31.475,Main,2022.1.1,60.68211552231411,
positive,yellow,2,None,k,,,,,1,8,28,8,,,,,,,,,,,,,,,,,,,,,prac,k,k,1,0.7486931999956141,157.46955799999705,None,None,0,,,,,,,,,,,,,,101,2023-04-17_15h26.31.475,Main,2022.1.1,60.68211552231411,
negative,yellow,1,k,None,,,,,1,9,29,9,,,,,,,,,,,,,,,,,,,,,prac,None,None,1,1.5004587000003085,159.21701549999852,None,None,1,,,,,,,,,,,,,,101,2023-04-17_15h26.31.475,Main,2022.1.1,60.68211552231411,
positive,yellow,2,None,k,,,,,1,10,30,10,,,,,,,,,,,,,,,,,,,,,prac,k,k,1,0.7506647000045632,161.71707419999439,None,None,0,,,,,,,,,,,,,,101,2023-04-17_15h26.31.475,Main,2022.1.1,60.68211552231411,
negative,yellow,2,k,None,,,,,1,11,31,11,,,,,,,,,,,,,,,,,,,,,prac,None,None,1,1.498347400003695,163.46736309999687,None,None,1,,,,,,,,,,,,,,101,2023-04-17_15h26.31.475,Main,2022.1.1,60.68211552231411,
negative,red,2,None,None,,,,,1,12,32,12,,,,,,,,,,,,,,,,,,,,,prac,None,None,1,1.4992473000020254,165.9694276999944,None,None,1,,,,,,,,,,,,,,101,2023-04-17_15h26.31.475,Main,2022.1.1,60.68211552231411,
positive,red,1,None,None,,,,,1,13,33,13,,,,,,,,,,,,,,,,,,,,,prac,None,None,1,1.4990878000025987,168.46704879999743,None,None,1,,,,,,,,,,,,,,101,2023-04-17_15h26.31.475,Main,2022.1.1,60.68211552231411,
positive,blue,2,k,None,,,,,1,14,34,14,,,,,,,,,,,,,,,,,,,,,prac,None,None,1,1.4994477000000188,170.96705179999844,None,None,1,,,,,,,,,,,,,,101,2023-04-17_15h26.31.475,Main,2022.1.1,60.68211552231411,
positive,blue,1,k,None,,,,,1,15,35,15,,,,,,,,,,,,,,,,,,,,,prac,None,None,1,1.4963755999997375,173.46923809999862,None,None,1,,,,,,,,,,,,,,101,2023-04-17_15h26.31.475,Main,2022.1.1,60.68211552231411,
negative,blue,1,None,k,,,,,1,16,36,16,,,,,,,,,,,,,,,,,,,,,prac,k,k,1,0.7186547000019345,175.96667899999738,None,None,0,,,,,,,,,,,,,,101,2023-04-17_15h26.31.475,Main,2022.1.1,60.68211552231411,
positive,blue,2,k,None,,,,,1,17,37,17,,,,,,,,,,,,,,,,,,,,,prac,None,None,1,1.499434299999848,177.6859850999972,None,None,1,,,,,,,,,,,,,,101,2023-04-17_15h26.31.475,Main,2022.1.1,60.68211552231411,
positive,blue,1,k,None,,,,,1,18,38,18,,,,,,,,,,,,,,,,,,,,,prac,None,None,1,1.496119399998861,180.1858929000009,None,None,1,,,,,,,,,,,,,,101,2023-04-17_15h26.31.475,Main,2022.1.1,60.68211552231411,
positive,yellow,1,None,k,,,,,1,19,39,19,,,,,,,,,,,,,,,,,,,,,prac,k,k,1,0.6685989999969024,182.6832615999956,None,None,0,,,,,,,,,,,,,,101,2023-04-17_15h26.31.475,Main,2022.1.1,60.68211552231411,
,,,,,,,,,,,,,,,,,,,,,,,,,,,,,,,,,,,,,,,,,,184.35033219999605,None,184.35033219999605,None,-0.0046296297,-0.06666667,0,0,0,0.014009580001584254,None,,,101,2023-04-17_15h26.31.475,Main,2022.1.1,60.68211552231411,
negative,yellow,2,k,None,,,,,,,,,0,0,0,0,,,,,,,,,,,,,185.58928549999837,None,185.58928549999837,None,main,None,None,1,1.5088534000024083,187.61581640000077,None,None,1,,,,,,,,,,,,,,101,2023-04-17_15h26.31.475,Main,2022.1.1,60.68211552231411,
positive,red,1,None,None,,,,,,,,,0,1,1,1,,,,,,,,,,,,,,,,,main,None,None,1,1.501737900005537,190.13572379999823,None,None,1,,,,,,,,,,,,,,101,2023-04-17_15h26.31.475,Main,2022.1.1,60.68211552231411,
positive,blue,2,k,None,,,,,,,,,0,2,2,2,,,,,,,,,,,,,,,,,main,None,None,1,1.4935437999956775,192.63683859999583,None,None,1,,,,,,,,,,,,,,101,2023-04-17_15h26.31.475,Main,2022.1.1,60.68211552231411,
positive,blue,1,k,None,,,,,,,,,0,3,3,3,,,,,,,,,,,,,,,,,main,None,None,1,1.5017753000065568,195.13301610000053,None,None,1,,,,,,,,,,,,,,101,2023-04-17_15h26.31.475,Main,2022.1.1,60.68211552231411,
negative,yellow,2,k,None,,,,,,,,,0,4,4,4,,,,,,,,,,,,,,,,,main,None,None,1,1.4963211000067531,197.63559779999923,None,None,1,,,,,,,,,,,,,,101,2023-04-17_15h26.31.475,Main,2022.1.1,60.68211552231411,
positive,yellow,2,None,k,,,,,,,,,0,5,5,5,,,,,,,,,,,,,,,,,main,k,k,1,0.5857115000035265,200.1328450000001,None,None,0,,,,,,,,,,,,,,101,2023-04-17_15h26.31.475,Main,2022.1.1,60.68211552231411,
negative,blue,2,None,k,,,,,,,,,0,6,6,6,,,,,,,,,,,,,,,,,main,k,k,1,0.8144041000050493,201.71879179999814,None,None,0,,,,,,,,,,,,,,101,2023-04-17_15h26.31.475,Main,2022.1.1,60.68211552231411,
positive,red,2,None,None,,,,,,,,,0,7,7,7,,,,,,,,,,,,,,,,,main,None,None,1,1.5000501000031363,203.53322809999372,None,None,1,,,,,,,,,,,,,,101,2023-04-17_15h26.31.475,Main,2022.1.1,60.68211552231411,
positive,yellow,1,None,k,,,,,,,,,0,8,8,8,,,,,,,,,,,,,,,,,main,k,k,1,1.2467689000040991,206.03300289999606,None,None,0,,,,,,,,,,,,,,101,2023-04-17_15h26.31.475,Main,2022.1.1,60.68211552231411,
negative,red,1,None,None,,,,,,,,,0,9,9,9,,,,,,,,,,,,,,,,,main,None,None,1,1.5011427999997977,208.28518559999793,None,None,1,,,,,,,,,,,,,,101,2023-04-17_15h26.31.475,Main,2022.1.1,60.68211552231411,
positive,yellow,1,None,k,,,,,,,,,0,10,10,10,,,,,,,,,,,,,,,,,main,k,k,1,0.5637379999971017,210.78513569999632,None,None,0,,,,,,,,,,,,,,101,2023-04-17_15h26.31.475,Main,2022.1.1,60.68211552231411,
negative,yellow,1,k,None,,,,,,,,,0,11,11,11,,,,,,,,,,,,,,,,,main,None,None,1,1.4987212999985786,212.34958349999943,None,None,1,,,,,,,,,,,,,,101,2023-04-17_15h26.31.475,Main,2022.1.1,60.68211552231411,
negative,yellow,1,k,None,,,,,,,,,0,12,12,12,,,,,,,,,,,,,,,,,main,None,None,1,1.5016823999976623,214.84949019999476,None,None,1,,,,,,,,,,,,,,101,2023-04-17_15h26.31.475,Main,2022.1.1,60.68211552231411,
negative,red,2,None,None,,,,,,,,,0,13,13,13,,,,,,,,,,,,,,,,,main,None,None,1,1.499321700001019,217.3519171999942,None,None,1,,,,,,,,,,,,,,101,2023-04-17_15h26.31.475,Main,2022.1.1,60.68211552231411,
positive,yellow,2,None,k,,,,,,,,,0,14,14,14,,,,,,,,,,,,,,,,,main,k,k,1,0.6800616000036825,219.85194369999954,None,None,0,,,,,,,,,,,,,,101,2023-04-17_15h26.31.475,Main,2022.1.1,60.68211552231411,
positive,blue,1,k,None,,,,,,,,,0,15,15,15,,,,,,,,,,,,,,,,,main,None,None,1,1.5012101999964216,221.5327382999967,None,None,1,,,,,,,,,,,,,,101,2023-04-17_15h26.31.475,Main,2022.1.1,60.68211552231411,
negative,blue,1,None,k,,,,,,,,,0,16,16,16,,,,,,,,,,,,,,,,,main,k,k,1,0.6637448999972548,224.03260239999508,None,None,0,,,,,,,,,,,,,,101,2023-04-17_15h26.31.475,Main,2022.1.1,60.68211552231411,
positive,blue,2,k,None,,,,,,,,,0,17,17,17,,,,,,,,,,,,,,,,,main,None,None,1,1.5011636999988696,225.69931289999658,None,None,1,,,,,,,,,,,,,,101,2023-04-17_15h26.31.475,Main,2022.1.1,60.68211552231411,
negative,blue,2,None,k,,,,,,,,,0,18,18,18,,,,,,,,,,,,,,,,,main,k,k,1,0.663409100001445,228.20143679999455,None,None,0,,,,,,,,,,,,,,101,2023-04-17_15h26.31.475,Main,2022.1.1,60.68211552231411,
negative,blue,1,None,k,,,,,,,,,0,19,19,19,,,,,,,,,,,,,,,,,main,k,k,1,0.6489043000037782,229.87121569999726,None,None,0,,,,,,,,,,,,,,101,2023-04-17_15h26.31.475,Main,2022.1.1,60.68211552231411,
negative,blue,1,None,k,,,,,,,,,0,20,20,20,,,,,,,,,,,,,,,,,main,k,k,1,0.5662091999984113,231.51555720000033,None,None,0,,,,,,,,,,,,,,101,2023-04-17_15h26.31.475,Main,2022.1.1,60.68211552231411,
negative,blue,2,None,k,,,,,,,,,0,21,21,21,,,,,,,,,,,,,,,,,main,k,k,1,0.5513308999943547,233.08496879999439,None,None,0,,,,,,,,,,,,,,101,2023-04-17_15h26.31.475,Main,2022.1.1,60.68211552231411,
negative,red,1,None,None,,,,,,,,,0,22,22,22,,,,,,,,,,,,,,,,,main,None,None,1,1.4986304999983986,234.63487039999745,None,None,1,,,,,,,,,,,,,,101,2023-04-17_15h26.31.475,Main,2022.1.1,60.68211552231411,
positive,red,2,None,None,,,,,,,,,0,23,23,23,,,,,,,,,,,,,,,,,main,None,None,1,1.4967395000057877,237.13461459999962,None,None,1,,,,,,,,,,,,,,101,2023-04-17_15h26.31.475,Main,2022.1.1,60.68211552231411,
negative,red,2,None,None,,,,,,,,,0,24,24,24,,,,,,,,,,,,,,,,,main,None,None,1,1.5018941999951494,239.63205649999873,None,None,1,,,,,,,,,,,,,,101,2023-04-17_15h26.31.475,Main,2022.1.1,60.68211552231411,
positive,blue,2,k,None,,,,,,,,,0,25,25,25,,,,,,,,,,,,,,,,,main,None,None,1,1.4989290999947116,242.13472499999625,None,None,1,,,,,,,,,,,,,,101,2023-04-17_15h26.31.475,Main,2022.1.1,60.68211552231411,
negative,yellow,1,k,None,,,,,,,,,0,26,26,26,,,,,,,,,,,,,,,,,main,None,None,1,1.499151100004383,244.63464739999472,None,None,1,,,,,,,,,,,,,,101,2023-04-17_15h26.31.475,Main,2022.1.1,60.68211552231411,
positive,blue,2,k,None,,,,,,,,,0,27,27,27,,,,,,,,,,,,,,,,,main,None,None,1,1.496732300001895,247.1344972999941,None,None,1,,,,,,,,,,,,,,101,2023-04-17_15h26.31.475,Main,2022.1.1,60.68211552231411,
negative,blue,2,None,k,,,,,,,,,0,28,28,28,,,,,,,,,,,,,,,,,main,k,k,1,0.8160268999999971,249.6320781999966,None,None,0,,,,,,,,,,,,,,101,2023-04-17_15h26.31.475,Main,2022.1.1,60.68211552231411,
positive,red,1,None,None,,,,,,,,,0,29,29,29,,,,,,,,,,,,,,,,,main,None,None,1,1.5009893999958877,251.4509398999944,None,None,1,,,,,,,,,,,,,,101,2023-04-17_15h26.31.475,Main,2022.1.1,60.68211552231411,
positive,blue,1,k,None,,,,,,,,,0,30,30,30,,,,,,,,,,,,,,,,,main,None,None,1,1.49808249999478,253.948719299995,None,None,1,,,,,,,,,,,,,,101,2023-04-17_15h26.31.475,Main,2022.1.1,60.68211552231411,
positive,yellow,1,None,k,,,,,,,,,0,31,31,31,,,,,,,,,,,,,,,,,main,k,k,1,0.7004952999996021,256.44837829999597,None,None,0,,,,,,,,,,,,,,101,2023-04-17_15h26.31.475,Main,2022.1.1,60.68211552231411,
negative,yellow,2,k,None,,,,,,,,,0,32,32,32,,,,,,,,,,,,,,,,,main,None,None,1,1.4989271000013105,258.1510242999939,None,None,1,,,,,,,,,,,,,,101,2023-04-17_15h26.31.475,Main,2022.1.1,60.68211552231411,
negative,blue,1,None,k,,,,,,,,,0,33,33,33,,,,,,,,,,,,,,,,,main,k,k,1,0.6967349999977159,260.6509384999954,None,None,0,,,,,,,,,,,,,,101,2023-04-17_15h26.31.475,Main,2022.1.1,60.68211552231411,
positive,blue,1,k,None,,,,,,,,,0,34,34,34,,,,,,,,,,,,,,,,,main,None,None,1,1.5015138000017032,262.34826749999775,None,None,1,,,,,,,,,,,,,,101,2023-04-17_15h26.31.475,Main,2022.1.1,60.68211552231411,
negative,yellow,1,k,None,,,,,,,,,0,35,35,35,,,,,,,,,,,,,,,,,main,None,None,1,1.4991642000022694,264.8510135999968,None,None,1,,,,,,,,,,,,,,101,2023-04-17_15h26.31.475,Main,2022.1.1,60.68211552231411,
positive,yellow,2,None,k,,,,,,,,,0,36,36,36,,,,,,,,,,,,,,,,,main,k,k,1,0.5895557999974699,267.3484402999966,None,None,0,,,,,,,,,,,,,,101,2023-04-17_15h26.31.475,Main,2022.1.1,60.68211552231411,
positive,yellow,2,None,k,,,,,,,,,0,37,37,37,,,,,,,,,,,,,,,,,main,k,k,1,0.6228444000007585,268.94569899999624,None,None,0,,,,,,,,,,,,,,101,2023-04-17_15h26.31.475,Main,2022.1.1,60.68211552231411,
negative,yellow,2,k,None,,,,,,,,,0,38,38,38,,,,,,,,,,,,,,,,,main,None,k,0,0.45203400000173133,270.5647577999989,None,None,1,,,,,,,,,,,,,,101,2023-04-17_15h26.31.475,Main,2022.1.1,60.68211552231411,
positive,yellow,1,None,k,,,,,,,,,0,39,39,39,,,,,,,,,,,,,,,,,main,k,k,1,0.7516248000029009,273.0174094999966,None,None,0,,,,,,,,,,,,,,101,2023-04-17_15h26.31.475,Main,2022.1.1,60.68211552231411,
negative,yellow,2,k,None,,,,,,,,,0,40,40,40,,,,,,,,,,,,,,,,,main,None,None,1,1.4955411999981152,274.76746289999573,None,None,1,,,,,,,,,,,,,,101,2023-04-17_15h26.31.475,Main,2022.1.1,60.68211552231411,
positive,blue,2,k,None,,,,,,,,,0,41,41,41,,,,,,,,,,,,,,,,,main,None,None,1,1.5021734999972978,277.2647918999937,None,None,1,,,,,,,,,,,,,,101,2023-04-17_15h26.31.475,Main,2022.1.1,60.68211552231411,
positive,blue,2,k,None,,,,,,,,,0,42,42,42,,,,,,,,,,,,,,,,,main,None,None,1,1.496361600002274,279.767239599998,None,None,1,,,,,,,,,,,,,,101,2023-04-17_15h26.31.475,Main,2022.1.1,60.68211552231411,
negative,blue,2,None,k,,,,,,,,,0,43,43,43,,,,,,,,,,,,,,,,,main,k,k,1,0.6326575999992201,282.26700490000076,None,None,0,,,,,,,,,,,,,,101,2023-04-17_15h26.31.475,Main,2022.1.1,60.68211552231411,
negative,red,1,None,None,,,,,,,,,0,44,44,44,,,,,,,,,,,,,,,,,main,None,None,1,1.4987866999945254,283.89811539999937,None,None,1,,,,,,,,,,,,,,101,2023-04-17_15h26.31.475,Main,2022.1.1,60.68211552231411,
negative,yellow,1,k,None,,,,,,,,,0,45,45,45,,,,,,,,,,,,,,,,,main,None,k,0,0.783266200000071,286.39777279999544,None,None,1,,,,,,,,,,,,,,101,2023-04-17_15h26.31.475,Main,2022.1.1,60.68211552231411,
negative,yellow,1,k,None,,,,,,,,,0,46,46,46,,,,,,,,,,,,,,,,,main,None,None,1,1.487445699996897,289.1837106999956,None,None,1,,,,,,,,,,,,,,101,2023-04-17_15h26.31.475,Main,2022.1.1,60.68211552231411,
positive,red,1,None,None,,,,,,,,,0,47,47,47,,,,,,,,,,,,,,,,,main,None,None,1,1.4991841000010027,291.6685010000001,None,None,1,,,,,,,,,,,,,,101,2023-04-17_15h26.31.475,Main,2022.1.1,60.68211552231411,
positive,yellow,1,None,k,,,,,,,,,0,48,48,48,,,,,,,,,,,,,,,,,main,k,k,1,0.7102565000022878,294.16849559999537,None,None,0,,,,,,,,,,,,,,101,2023-04-17_15h26.31.475,Main,2022.1.1,60.68211552231411,
negative,blue,1,None,k,,,,,,,,,0,49,49,49,,,,,,,,,,,,,,,,,main,k,k,1,0.8347520000024815,295.88115259999904,None,None,0,,,,,,,,,,,,,,101,2023-04-17_15h26.31.475,Main,2022.1.1,60.68211552231411,
positive,yellow,2,None,k,,,,,,,,,0,50,50,50,,,,,,,,,,,,,,,,,main,k,k,1,0.9659484000003431,297.7145081999988,None,None,0,,,,,,,,,,,,,,101,2023-04-17_15h26.31.475,Main,2022.1.1,60.68211552231411,
negative,blue,1,None,k,,,,,,,,,0,51,51,51,,,,,,,,,,,,,,,,,main,k,k,1,0.8300787999978638,299.68116409999493,None,None,0,,,,,,,,,,,,,,101,2023-04-17_15h26.31.475,Main,2022.1.1,60.68211552231411,
positive,red,2,None,None,,,,,,,,,0,52,52,52,,,,,,,,,,,,,,,,,main,None,None,1,1.499002999997174,301.51659199999995,None,None,1,,,,,,,,,,,,,,101,2023-04-17_15h26.31.475,Main,2022.1.1,60.68211552231411,
positive,yellow,2,None,k,,,,,,,,,0,53,53,53,,,,,,,,,,,,,,,,,main,k,k,1,0.8158538999996381,304.0165976999997,None,None,0,,,,,,,,,,,,,,101,2023-04-17_15h26.31.475,Main,2022.1.1,60.68211552231411,
negative,red,2,None,None,,,,,,,,,0,54,54,54,,,,,,,,,,,,,,,,,main,None,None,1,1.4986687999989954,305.83103760000085,None,None,1,,,,,,,,,,,,,,101,2023-04-17_15h26.31.475,Main,2022.1.1,60.68211552231411,
positive,yellow,1,None,k,,,,,,,,,0,55,55,55,,,,,,,,,,,,,,,,,main,k,k,1,0.5995269999984885,308.3306678999943,None,None,0,,,,,,,,,,,,,,101,2023-04-17_15h26.31.475,Main,2022.1.1,60.68211552231411,
negative,blue,2,None,k,,,,,,,,,0,56,56,56,,,,,,,,,,,,,,,,,main,k,k,1,0.7517456999994465,309.93069499999547,None,None,0,,,,,,,,,,,,,,101,2023-04-17_15h26.31.475,Main,2022.1.1,60.68211552231411,
positive,blue,1,k,None,,,,,,,,,0,57,57,57,,,,,,,,,,,,,,,,,main,None,None,1,1.496280100000149,311.6810123999967,None,None,1,,,,,,,,,,,,,,101,2023-04-17_15h26.31.475,Main,2022.1.1,60.68211552231411,
positive,blue,1,k,None,,,,,,,,,0,58,58,58,,,,,,,,,,,,,,,,,main,None,None,1,1.501743400003761,314.18053549999604,None,None,1,,,,,,,,,,,,,,101,2023-04-17_15h26.31.475,Main,2022.1.1,60.68211552231411,
negative,yellow,2,k,None,,,,,,,,,0,59,59,59,,,,,,,,,,,,,,,,,main,None,None,1,1.4989062999957241,316.6832291999963,None,None,1,,,,,,,,,,,,,,101,2023-04-17_15h26.31.475,Main,2022.1.1,60.68211552231411,
positive,red,2,None,None,,,,,,,,,0,60,60,60,,,,,,,,,,,,,,,,,main,None,None,1,1.4966887000045972,319.1831152999948,None,None,1,,,,,,,,,,,,,,101,2023-04-17_15h26.31.475,Main,2022.1.1,60.68211552231411,
negative,yellow,1,k,None,,,,,,,,,0,61,61,61,,,,,,,,,,,,,,,,,main,None,None,1,1.5015213000006042,321.6804458999977,None,None,1,,,,,,,,,,,,,,101,2023-04-17_15h26.31.475,Main,2022.1.1,60.68211552231411,
negative,red,1,None,None,,,,,,,,,0,62,62,62,,,,,,,,,,,,,,,,,main,None,None,1,1.496403899996949,324.18299999999726,None,None,1,,,,,,,,,,,,,,101,2023-04-17_15h26.31.475,Main,2022.1.1,60.68211552231411,
negative,blue,1,None,k,,,,,,,,,0,63,63,63,,,,,,,,,,,,,,,,,main,k,k,1,0.8854869999995572,326.6802924999938,None,None,0,,,,,,,,,,,,,,101,2023-04-17_15h26.31.475,Main,2022.1.1,60.68211552231411,
positive,blue,2,k,None,,,,,,,,,0,64,64,64,,,,,,,,,,,,,,,,,main,None,None,1,1.4987528000056045,328.566256399994,None,None,1,,,,,,,,,,,,,,101,2023-04-17_15h26.31.475,Main,2022.1.1,60.68211552231411,
negative,yellow,2,k,None,,,,,,,,,0,65,65,65,,,,,,,,,,,,,,,,,main,None,None,1,1.497239800002717,331.06631399999605,None,None,1,,,,,,,,,,,,,,101,2023-04-17_15h26.31.475,Main,2022.1.1,60.68211552231411,
positive,yellow,2,None,k,,,,,,,,,0,66,66,66,,,,,,,,,,,,,,,,,main,k,k,1,0.6840750999981537,333.56353219999437,None,None,0,,,,,,,,,,,,,,101,2023-04-17_15h26.31.475,Main,2022.1.1,60.68211552231411,
positive,yellow,2,None,k,,,,,,,,,0,67,67,67,,,,,,,,,,,,,,,,,main,k,k,1,0.6990720000030706,335.24950149999495,None,None,0,,,,,,,,,,,,,,101,2023-04-17_15h26.31.475,Main,2022.1.1,60.68211552231411,
positive,red,1,None,None,,,,,,,,,0,68,68,68,,,,,,,,,,,,,,,,,main,None,None,1,1.4957647999981418,336.9471829999966,None,None,1,,,,,,,,,,,,,,101,2023-04-17_15h26.31.475,Main,2022.1.1,60.68211552231411,
positive,yellow,1,None,k,,,,,,,,,0,69,69,69,,,,,,,,,,,,,,,,,main,k,k,1,0.6665952999974252,339.4466973999952,None,None,0,,,,,,,,,,,,,,101,2023-04-17_15h26.31.475,Main,2022.1.1,60.68211552231411,
negative,yellow,2,k,None,,,,,,,,,0,70,70,70,,,,,,,,,,,,,,,,,main,None,None,1,1.4993577999994159,341.1161437999981,None,None,1,,,,,,,,,,,,,,101,2023-04-17_15h26.31.475,Main,2022.1.1,60.68211552231411,
positive,yellow,1,None,k,,,,,,,,,0,71,71,71,,,,,,,,,,,,,,,,,main,k,k,1,0.7317694000012125,343.61904919999506,None,None,0,,,,,,,,,,,,,,101,2023-04-17_15h26.31.475,Main,2022.1.1,60.68211552231411,
negative,blue,1,None,k,,,,,,,,,0,72,72,72,,,,,,,,,,,,,,,,,main,k,k,1,0.7829602999991039,345.3465849999993,None,None,0,,,,,,,,,,,,,,101,2023-04-17_15h26.31.475,Main,2022.1.1,60.68211552231411,
negative,red,2,None,None,,,,,,,,,0,73,73,73,,,,,,,,,,,,,,,,,main,None,None,1,1.4986863000012818,347.1325269999943,None,None,1,,,,,,,,,,,,,,101,2023-04-17_15h26.31.475,Main,2022.1.1,60.68211552231411,
positive,blue,2,k,None,,,,,,,,,0,74,74,74,,,,,,,,,,,,,,,,,main,None,None,1,1.5023482000033255,349.63582060000044,None,None,1,,,,,,,,,,,,,,101,2023-04-17_15h26.31.475,Main,2022.1.1,60.68211552231411,
negative,blue,2,None,k,,,,,,,,,0,75,75,75,,,,,,,,,,,,,,,,,main,k,k,1,0.6954554999974789,352.1323135999992,None,None,0,,,,,,,,,,,,,,101,2023-04-17_15h26.31.475,Main,2022.1.1,60.68211552231411,
negative,blue,2,None,k,,,,,,,,,0,76,76,76,,,,,,,,,,,,,,,,,main,k,k,1,0.5852113000000827,353.82976219999546,None,None,0,,,,,,,,,,,,,,101,2023-04-17_15h26.31.475,Main,2022.1.1,60.68211552231411,
negative,yellow,1,k,None,,,,,,,,,0,77,77,77,,,,,,,,,,,,,,,,,main,None,None,1,1.498789899997064,355.41568339999503,None,None,1,,,,,,,,,,,,,,101,2023-04-17_15h26.31.475,Main,2022.1.1,60.68211552231411,
positive,blue,1,k,None,,,,,,,,,0,78,78,78,,,,,,,,,,,,,,,,,main,None,None,1,1.4964287999973749,357.9156293999986,None,None,1,,,,,,,,,,,,,,101,2023-04-17_15h26.31.475,Main,2022.1.1,60.68211552231411,
positive,blue,1,k,None,,,,,,,,,0,79,79,79,,,,,,,,,,,,,,,,,main,None,None,1,1.5017060000027413,360.41293849999784,None,None,1,,,,,,,,,,,,,,101,2023-04-17_15h26.31.475,Main,2022.1.1,60.68211552231411,
positive,red,2,None,None,,,,,,,,,0,80,80,80,,,,,,,,,,,,,,,,,main,None,None,1,1.4987327999988338,362.91555040000094,None,None,1,,,,,,,,,,,,,,101,2023-04-17_15h26.31.475,Main,2022.1.1,60.68211552231411,
positive,yellow,2,None,k,,,,,,,,,0,81,81,81,,,,,,,,,,,,,,,,,main,k,k,1,0.7967972000042209,365.41314209999837,None,None,0,,,,,,,,,,,,,,101,2023-04-17_15h26.31.475,Main,2022.1.1,60.68211552231411,
positive,blue,1,k,None,,,,,,,,,0,82,82,82,,,,,,,,,,,,,,,,,main,None,None,1,1.501598800001375,367.2128034999987,None,None,1,,,,,,,,,,,,,,101,2023-04-17_15h26.31.475,Main,2022.1.1,60.68211552231411,
negative,yellow,2,k,None,,,,,,,,,0,83,83,83,,,,,,,,,,,,,,,,,main,None,None,1,1.4989956999997958,369.7154210999943,None,None,1,,,,,,,,,,,,,,101,2023-04-17_15h26.31.475,Main,2022.1.1,60.68211552231411,
positive,blue,2,k,None,,,,,,,,,0,84,84,84,,,,,,,,,,,,,,,,,main,None,None,1,1.4986134999999194,372.2153448999961,None,None,1,,,,,,,,,,,,,,101,2023-04-17_15h26.31.475,Main,2022.1.1,60.68211552231411,
positive,yellow,1,None,k,,,,,,,,,0,85,85,85,,,,,,,,,,,,,,,,,main,k,k,1,0.8635108999951626,374.7129583999995,None,None,0,,,,,,,,,,,,,,101,2023-04-17_15h26.31.475,Main,2022.1.1,60.68211552231411,
positive,blue,2,k,None,,,,,,,,,0,86,86,86,,,,,,,,,,,,,,,,,main,None,None,1,1.5017395999966539,376.5792786999955,None,None,1,,,,,,,,,,,,,,101,2023-04-17_15h26.31.475,Main,2022.1.1,60.68211552231411,
positive,blue,1,k,None,,,,,,,,,0,87,87,87,,,,,,,,,,,,,,,,,main,None,None,1,1.4990008999957354,379.08198289999564,None,None,1,,,,,,,,,,,,,,101,2023-04-17_15h26.31.475,Main,2022.1.1,60.68211552231411,
negative,yellow,2,k,None,,,,,,,,,0,88,88,88,,,,,,,,,,,,,,,,,main,None,None,1,1.4961330000005546,381.5818749999962,None,None,1,,,,,,,,,,,,,,101,2023-04-17_15h26.31.475,Main,2022.1.1,60.68211552231411,
negative,blue,2,None,k,,,,,,,,,0,89,89,89,,,,,,,,,,,,,,,,,main,k,k,1,0.7828904999987572,384.0791148999997,None,None,0,,,,,,,,,,,,,,101,2023-04-17_15h26.31.475,Main,2022.1.1,60.68211552231411,
positive,yellow,2,None,k,,,,,,,,,0,90,90,90,,,,,,,,,,,,,,,,,main,k,k,1,0.6852045999985421,385.86248689999775,None,None,0,,,,,,,,,,,,,,101,2023-04-17_15h26.31.475,Main,2022.1.1,60.68211552231411,
negative,yellow,1,k,None,,,,,,,,,0,91,91,91,,,,,,,,,,,,,,,,,main,None,None,1,1.4988626999984263,387.5484013999958,None,None,1,,,,,,,,,,,,,,101,2023-04-17_15h26.31.475,Main,2022.1.1,60.68211552231411,
negative,red,2,None,None,,,,,,,,,0,92,92,92,,,,,,,,,,,,,,,,,main,None,None,1,1.4964060000056634,390.04840669999976,None,None,1,,,,,,,,,,,,,,101,2023-04-17_15h26.31.475,Main,2022.1.1,60.68211552231411,
negative,blue,2,None,k,,,,,,,,,0,93,93,93,,,,,,,,,,,,,,,,,main,k,k,1,1.4352787000025273,392.5456615000003,None,None,0,,,,,,,,,,,,,,101,2023-04-17_15h26.31.475,Main,2022.1.1,60.68211552231411,
negative,blue,1,None,k,,,,,,,,,0,94,94,94,,,,,,,,,,,,,,,,,main,k,k,1,0.7302568000013707,394.98159139999916,None,None,0,,,,,,,,,,,,,,101,2023-04-17_15h26.31.475,Main,2022.1.1,60.68211552231411,
negative,blue,1,None,k,,,,,,,,,0,95,95,95,,,,,,,,,,,,,,,,,main,k,k,1,0.6326287999982014,396.71249669999816,None,None,0,,,,,,,,,,,,,,101,2023-04-17_15h26.31.475,Main,2022.1.1,60.68211552231411,
negative,red,1,None,None,,,,,,,,,0,96,96,96,,,,,,,,,,,,,,,,,main,None,None,1,1.4983659000063199,398.34831129999657,None,None,1,,,,,,,,,,,,,,101,2023-04-17_15h26.31.475,Main,2022.1.1,60.68211552231411,
positive,yellow,1,None,k,,,,,,,,,0,97,97,97,,,,,,,,,,,,,,,,,main,k,k,1,0.8852466999960598,400.8454982999974,None,None,0,,,,,,,,,,,,,,101,2023-04-17_15h26.31.475,Main,2022.1.1,60.68211552231411,
negative,yellow,1,k,None,,,,,,,,,0,98,98,98,,,,,,,,,,,,,,,,,main,None,None,1,1.4988700000030803,402.731440699994,None,None,1,,,,,,,,,,,,,,101,2023-04-17_15h26.31.475,Main,2022.1.1,60.68211552231411,
positive,red,1,None,None,,,,,,,,,0,99,99,99,,,,,,,,,,,,,,,,,main,None,None,1,1.4965216999989934,405.23120509999717,None,None,1,,,,,,,,,,,,,,101,2023-04-17_15h26.31.475,Main,2022.1.1,60.68211552231411,
positive,blue,1,k,None,,,,,,,,,0,100,100,100,,,,,,,,,,,,,,,,,main,None,None,1,1.5017356999960612,407.7286601999949,None,None,1,,,,,,,,,,,,,,101,2023-04-17_15h26.31.475,Main,2022.1.1,60.68211552231411,
negative,yellow,1,k,None,,,,,,,,,0,101,101,101,,,,,,,,,,,,,,,,,main,None,None,1,1.4993140000005951,410.23129179999523,None,None,1,,,,,,,,,,,,,,101,2023-04-17_15h26.31.475,Main,2022.1.1,60.68211552231411,
negative,blue,2,None,k,,,,,,,,,0,102,102,102,,,,,,,,,,,,,,,,,main,k,k,1,0.8466733999957796,412.7312829000002,None,None,0,,,,,,,,,,,,,,101,2023-04-17_15h26.31.475,Main,2022.1.1,60.68211552231411,
negative,yellow,2,k,None,,,,,,,,,0,103,103,103,,,,,,,,,,,,,,,,,main,None,None,1,1.5014537000024575,414.5784956999996,None,None,1,,,,,,,,,,,,,,101,2023-04-17_15h26.31.475,Main,2022.1.1,60.68211552231411,
positive,yellow,2,None,k,,,,,,,,,0,104,104,104,,,,,,,,,,,,,,,,,main,k,k,1,0.780380400006834,417.0811188999942,None,None,0,,,,,,,,,,,,,,101,2023-04-17_15h26.31.475,Main,2022.1.1,60.68211552231411,
positive,blue,1,k,None,,,,,,,,,0,105,105,105,,,,,,,,,,,,,,,,,main,None,None,1,1.4984876000016811,418.8619583999971,None,None,1,,,,,,,,,,,,,,101,2023-04-17_15h26.31.475,Main,2022.1.1,60.68211552231411,
positive,blue,2,k,None,,,,,,,,,0,106,106,106,,,,,,,,,,,,,,,,,main,None,None,1,1.501785699998436,421.3617623999962,None,None,1,,,,,,,,,,,,,,101,2023-04-17_15h26.31.475,Main,2022.1.1,60.68211552231411,
negative,blue,1,None,k,,,,,,,,,0,107,107,107,,,,,,,,,,,,,,,,,main,k,k,1,0.7299435999957495,423.86436339999636,None,None,0,,,,,,,,,,,,,,101,2023-04-17_15h26.31.475,Main,2022.1.1,60.68211552231411,
positive,yellow,2,None,k,,,,,,,,,0,108,108,108,,,,,,,,,,,,,,,,,main,k,k,1,0.8325905000019702,425.5949546999982,None,None,0,,,,,,,,,,,,,,101,2023-04-17_15h26.31.475,Main,2022.1.1,60.68211552231411,
negative,yellow,1,k,None,,,,,,,,,0,109,109,109,,,,,,,,,,,,,,,,,main,None,None,1,1.501781500002835,427.4283135000005,None,None,1,,,,,,,,,,,,,,101,2023-04-17_15h26.31.475,Main,2022.1.1,60.68211552231411,
negative,blue,2,None,k,,,,,,,,,0,110,110,110,,,,,,,,,,,,,,,,,main,k,k,1,0.8492572000031942,429.930852999998,None,None,0,,,,,,,,,,,,,,101,2023-04-17_15h26.31.475,Main,2022.1.1,60.68211552231411,
positive,blue,2,k,None,,,,,,,,,0,111,111,111,,,,,,,,,,,,,,,,,main,None,None,1,1.4964289999988978,431.77845449999586,None,None,1,,,,,,,,,,,,,,101,2023-04-17_15h26.31.475,Main,2022.1.1,60.68211552231411,
negative,blue,1,None,k,,,,,,,,,0,112,112,112,,,,,,,,,,,,,,,,,main,k,k,1,0.8656991999960155,434.27813790000073,None,None,0,,,,,,,,,,,,,,101,2023-04-17_15h26.31.475,Main,2022.1.1,60.68211552231411,
positive,yellow,1,None,k,,,,,,,,,0,113,113,113,,,,,,,,,,,,,,,,,main,k,k,1,0.7367032000038307,436.1447946999979,None,None,0,,,,,,,,,,,,,,101,2023-04-17_15h26.31.475,Main,2022.1.1,60.68211552231411,
negative,red,1,None,None,,,,,,,,,0,114,114,114,,,,,,,,,,,,,,,,,main,None,None,1,1.5004967999993823,437.87842660000024,None,None,1,,,,,,,,,,,,,,101,2023-04-17_15h26.31.475,Main,2022.1.1,60.68211552231411,
positive,red,1,None,None,,,,,,,,,0,115,115,115,,,,,,,,,,,,,,,,,main,None,None,1,1.4932169999956386,440.38279829999374,None,None,1,,,,,,,,,,,,,,101,2023-04-17_15h26.31.475,Main,2022.1.1,60.68211552231411,
negative,red,2,None,None,,,,,,,,,0,116,116,116,,,,,,,,,,,,,,,,,main,None,None,1,1.5020341999988887,442.8779233999958,None,None,1,,,,,,,,,,,,,,101,2023-04-17_15h26.31.475,Main,2022.1.1,60.68211552231411,
negative,yellow,2,k,None,,,,,,,,,0,117,117,117,,,,,,,,,,,,,,,,,main,None,None,1,1.499075299994729,445.38055379999423,None,None,1,,,,,,,,,,,,,,101,2023-04-17_15h26.31.475,Main,2022.1.1,60.68211552231411,
positive,yellow,1,None,k,,,,,,,,,0,118,118,118,,,,,,,,,,,,,,,,,main,k,k,1,0.6798004000011133,447.8805183000004,None,None,0,,,,,,,,,,,,,,101,2023-04-17_15h26.31.475,Main,2022.1.1,60.68211552231411,
positive,red,2,None,None,,,,,,,,,0,119,119,119,,,,,,,,,,,,,,,,,main,None,None,1,1.4991045000060694,449.5611508000002,None,None,1,,,,,,,,,,,,,,101,2023-04-17_15h26.31.475,Main,2022.1.1,60.68211552231411,
positive,blue,2,k,None,,,,,,,,,0,120,120,120,,,,,,,,,,,,,,,,,main,None,None,1,1.5018187000023318,452.061134699994,None,None,1,,,,,,,,,,,,,,101,2023-04-17_15h26.31.475,Main,2022.1.1,60.68211552231411,
negative,red,1,None,None,,,,,,,,,0,121,121,121,,,,,,,,,,,,,,,,,main,None,None,1,1.4986987999945995,454.5637445999964,None,None,1,,,,,,,,,,,,,,101,2023-04-17_15h26.31.475,Main,2022.1.1,60.68211552231411,
positive,yellow,2,None,k,,,,,,,,,0,122,122,122,,,,,,,,,,,,,,,,,main,k,k,1,0.7134984000003897,457.0612897999963,None,None,0,,,,,,,,,,,,,,101,2023-04-17_15h26.31.475,Main,2022.1.1,60.68211552231411,
negative,red,2,None,None,,,,,,,,,0,123,123,123,,,,,,,,,,,,,,,,,main,None,None,1,1.5016427999944426,458.7776152000006,None,None,1,,,,,,,,,,,,,,101,2023-04-17_15h26.31.475,Main,2022.1.1,60.68211552231411,
negative,yellow,2,k,None,,,,,,,,,0,124,124,124,,,,,,,,,,,,,,,,,main,None,None,1,1.499054800005979,461.2802905999997,None,None,1,,,,,,,,,,,,,,101,2023-04-17_15h26.31.475,Main,2022.1.1,60.68211552231411,
positive,red,1,None,None,,,,,,,,,0,125,125,125,,,,,,,,,,,,,,,,,main,None,None,1,1.4963042000017595,463.7801588999937,None,None,1,,,,,,,,,,,,,,101,2023-04-17_15h26.31.475,Main,2022.1.1,60.68211552231411,
negative,blue,2,None,k,,,,,,,,,0,126,126,126,,,,,,,,,,,,,,,,,main,k,k,1,0.8498566999987816,466.2774635999958,None,None,0,,,,,,,,,,,,,,101,2023-04-17_15h26.31.475,Main,2022.1.1,60.68211552231411,
negative,blue,1,None,k,,,,,,,,,0,127,127,127,,,,,,,,,,,,,,,,,main,k,k,1,0.6826304999995045,468.13023339999927,None,None,0,,,,,,,,,,,,,,101,2023-04-17_15h26.31.475,Main,2022.1.1,60.68211552231411,
negative,yellow,1,k,None,,,,,,,,,0,128,128,128,,,,,,,,,,,,,,,,,main,None,None,1,1.498330199996417,469.81115449999925,None,None,1,,,,,,,,,,,,,,101,2023-04-17_15h26.31.475,Main,2022.1.1,60.68211552231411,
negative,yellow,1,k,None,,,,,,,,,0,129,129,129,,,,,,,,,,,,,,,,,main,None,None,1,1.5019939999983762,472.31065300000046,None,None,1,,,,,,,,,,,,,,101,2023-04-17_15h26.31.475,Main,2022.1.1,60.68211552231411,
positive,blue,1,k,None,,,,,,,,,0,130,130,130,,,,,,,,,,,,,,,,,main,None,None,1,1.4989168999964022,474.8134224999958,None,None,1,,,,,,,,,,,,,,101,2023-04-17_15h26.31.475,Main,2022.1.1,60.68211552231411,
negative,blue,1,None,k,,,,,,,,,0,131,131,131,,,,,,,,,,,,,,,,,main,k,k,1,0.7132345999998506,477.31318810000084,None,None,0,,,,,,,,,,,,,,101,2023-04-17_15h26.31.475,Main,2022.1.1,60.68211552231411,
negative,blue,2,None,k,,,,,,,,,0,132,132,132,,,,,,,,,,,,,,,,,main,k,k,1,0.5992485000024317,479.02721960000054,None,None,0,,,,,,,,,,,,,,101,2023-04-17_15h26.31.475,Main,2022.1.1,60.68211552231411,
positive,blue,2,k,None,,,,,,,,,0,133,133,133,,,,,,,,,,,,,,,,,main,None,None,1,1.5015262000015355,480.6272261999984,None,None,1,,,,,,,,,,,,,,101,2023-04-17_15h26.31.475,Main,2022.1.1,60.68211552231411,
positive,red,2,None,None,,,,,,,,,0,134,134,134,,,,,,,,,,,,,,,,,main,None,None,1,1.4991749999971944,483.1297949,None,None,1,,,,,,,,,,,,,,101,2023-04-17_15h26.31.475,Main,2022.1.1,60.68211552231411,
negative,yellow,2,k,None,,,,,,,,,0,135,135,135,,,,,,,,,,,,,,,,,main,None,None,1,1.496773699996993,485.6296243999968,None,None,1,,,,,,,,,,,,,,101,2023-04-17_15h26.31.475,Main,2022.1.1,60.68211552231411,
positive,yellow,2,None,k,,,,,,,,,0,136,136,136,,,,,,,,,,,,,,,,,main,k,k,1,0.6182167000006302,488.12944279999647,None,None,0,,,,,,,,,,,,,,101,2023-04-17_15h26.31.475,Main,2022.1.1,60.68211552231411,
positive,blue,1,k,None,,,,,,,,,0,137,137,137,,,,,,,,,,,,,,,,,main,None,None,1,1.4988708999953815,489.7439252999975,None,None,1,,,,,,,,,,,,,,101,2023-04-17_15h26.31.475,Main,2022.1.1,60.68211552231411,
positive,yellow,1,None,k,,,,,,,,,0,138,138,138,,,,,,,,,,,,,,,,,main,k,k,1,0.8471152000056463,492.24610279999615,None,None,0,,,,,,,,,,,,,,101,2023-04-17_15h26.31.475,Main,2022.1.1,60.68211552231411,
positive,yellow,1,None,k,,,,,,,,,0,139,139,139,,,,,,,,,,,,,,,,,main,k,k,1,0.5323569000029238,494.0937877999968,None,None,0,,,,,,,,,,,,,,101,2023-04-17_15h26.31.475,Main,2022.1.1,60.68211552231411,
positive,yellow,1,None,k,,,,,,,,,0,140,140,140,,,,,,,,,,,,,,,,,main,k,k,1,0.534873399999924,495.62711729999864,None,None,0,,,,,,,,,,,,,,101,2023-04-17_15h26.31.475,Main,2022.1.1,60.68211552231411,
positive,blue,1,k,None,,,,,,,,,0,141,141,141,,,,,,,,,,,,,,,,,main,None,None,1,1.4988129999983357,497.1626755999969,None,None,1,,,,,,,,,,,,,,101,2023-04-17_15h26.31.475,Main,2022.1.1,60.68211552231411,
positive,blue,2,k,None,,,,,,,,,0,142,142,142,,,,,,,,,,,,,,,,,main,None,None,1,1.50030390000029,499.66042679999373,None,None,1,,,,,,,,,,,,,,101,2023-04-17_15h26.31.475,Main,2022.1.1,60.68211552231411,
positive,yellow,2,None,k,,,,,,,,,0,143,143,143,,,,,,,,,,,,,,,,,main,k,k,1,1.4291290999972261,502.1625555999999,None,None,0,,,,,,,,,,,,,,101,2023-04-17_15h26.31.475,Main,2022.1.1,60.68211552231411,
negative,yellow,2,k,None,,,,,,,,,0,144,144,144,,,,,,,,,,,,,,,,,main,None,None,1,1.4986437000043225,504.5958762999944,None,None,1,,,,,,,,,,,,,,101,2023-04-17_15h26.31.475,Main,2022.1.1,60.68211552231411,
negative,blue,2,None,k,,,,,,,,,0,145,145,145,,,,,,,,,,,,,,,,,main,k,k,1,0.8493239000017638,507.09329810000054,None,None,0,,,,,,,,,,,,,,101,2023-04-17_15h26.31.475,Main,2022.1.1,60.68211552231411,
negative,red,1,None,None,,,,,,,,,0,146,146,146,,,,,,,,,,,,,,,,,main,None,None,1,1.5015716000052635,508.9433166999952,None,None,1,,,,,,,,,,,,,,101,2023-04-17_15h26.31.475,Main,2022.1.1,60.68211552231411,
positive,blue,1,k,None,,,,,,,,,0,147,147,147,,,,,,,,,,,,,,,,,main,None,k,0,0.763713899999857,511.4458955000009,None,None,1,,,,,,,,,,,,,,101,2023-04-17_15h26.31.475,Main,2022.1.1,60.68211552231411,
positive,yellow,1,None,k,,,,,,,,,0,148,148,148,,,,,,,,,,,,,,,,,main,k,k,1,0.8490048000021488,514.2101210999972,None,None,0,,,,,,,,,,,,,,101,2023-04-17_15h26.31.475,Main,2022.1.1,60.68211552231411,
negative,red,2,None,None,,,,,,,,,0,149,149,149,,,,,,,,,,,,,,,,,main,None,None,1,1.501211400005559,516.0597793999987,None,None,1,,,,,,,,,,,,,,101,2023-04-17_15h26.31.475,Main,2022.1.1,60.68211552231411,
negative,blue,1,None,k,,,,,,,,,0,150,150,150,,,,,,,,,,,,,,,,,main,k,k,1,0.8830056000006152,518.5624660999965,None,None,0,,,,,,,,,,,,,,101,2023-04-17_15h26.31.475,Main,2022.1.1,60.68211552231411,
negative,yellow,2,k,None,,,,,,,,,0,151,151,151,,,,,,,,,,,,,,,,,main,None,None,1,1.4957404999950086,520.4458615999974,None,None,1,,,,,,,,,,,,,,101,2023-04-17_15h26.31.475,Main,2022.1.1,60.68211552231411,
negative,blue,2,None,k,,,,,,,,,0,152,152,152,,,,,,,,,,,,,,,,,main,k,k,1,1.5523279000044568,522.9429668999946,None,None,0,,,,,,,,,,,,,,101,2023-04-17_15h26.31.475,Main,2022.1.1,60.68211552231411,
negative,yellow,1,k,None,,,,,,,,,0,153,153,153,,,,,,,,,,,,,,,,,main,None,k,0,-0.6175590999991982,526.4957982999986,None,None,1,,,,,,,,,,,,,,101,2023-04-17_15h26.31.475,Main,2022.1.1,60.68211552231411,
negative,blue,1,None,k,,,,,,,,,0,154,154,154,,,,,,,,,,,,,,,,,main,k,k,1,0.8181008000028669,529.8761947999956,None,None,0,,,,,,,,,,,,,,101,2023-04-17_15h26.31.475,Main,2022.1.1,60.68211552231411,
positive,yellow,2,None,k,,,,,,,,,0,155,155,155,,,,,,,,,,,,,,,,,main,k,k,1,0.7184482000011485,531.6932226999998,None,None,0,,,,,,,,,,,,,,101,2023-04-17_15h26.31.475,Main,2022.1.1,60.68211552231411,
positive,red,2,None,None,,,,,,,,,0,156,156,156,,,,,,,,,,,,,,,,,main,None,None,1,1.4964039999977103,533.4122438999984,None,None,1,,,,,,,,,,,,,,101,2023-04-17_15h26.31.475,Main,2022.1.1,60.68211552231411,
positive,red,1,None,None,,,,,,,,,0,157,157,157,,,,,,,,,,,,,,,,,main,None,None,1,1.5010917000035988,535.9096662999946,None,None,1,,,,,,,,,,,,,,101,2023-04-17_15h26.31.475,Main,2022.1.1,60.68211552231411,
positive,blue,2,k,None,,,,,,,,,0,158,158,158,,,,,,,,,,,,,,,,,main,None,None,1,1.4991578999979538,538.4096281999955,None,None,1,,,,,,,,,,,,,,101,2023-04-17_15h26.31.475,Main,2022.1.1,60.68211552231411,
negative,yellow,1,k,None,,,,,,,,,0,159,159,159,,,,,,,,,,,,,,,,,main,None,None,1,1.4969523000036133,540.9095381999941,None,None,1,,,,,,,,,,,,,,101,2023-04-17_15h26.31.475,Main,2022.1.1,60.68211552231411,
negative,red,2,None,None,,,,,,,,,0,160,160,160,,,,,,,,,,,,,,,,,main,None,None,1,1.5011178999993717,543.4117388999948,None,None,1,,,,,,,,,,,,,,101,2023-04-17_15h26.31.475,Main,2022.1.1,60.68211552231411,
negative,blue,1,None,k,,,,,,,,,0,161,161,161,,,,,,,,,,,,,,,,,main,k,k,1,0.8970744000034756,545.9094052,None,None,0,,,,,,,,,,,,,,101,2023-04-17_15h26.31.475,Main,2022.1.1,60.68211552231411,
negative,blue,1,None,k,,,,,,,,,0,162,162,162,,,,,,,,,,,,,,,,,main,k,k,1,0.6825625999990734,547.8094027999978,None,None,0,,,,,,,,,,,,,,101,2023-04-17_15h26.31.475,Main,2022.1.1,60.68211552231411,
negative,yellow,1,k,None,,,,,,,,,0,163,163,163,,,,,,,,,,,,,,,,,main,None,None,1,1.4984673999933875,549.4927137999985,None,None,1,,,,,,,,,,,,,,101,2023-04-17_15h26.31.475,Main,2022.1.1,60.68211552231411,
negative,yellow,1,k,None,,,,,,,,,0,164,164,164,,,,,,,,,,,,,,,,,main,None,None,1,1.5018404999937047,551.9923827999955,None,None,1,,,,,,,,,,,,,,101,2023-04-17_15h26.31.475,Main,2022.1.1,60.68211552231411,
positive,yellow,1,None,k,,,,,,,,,0,165,165,165,,,,,,,,,,,,,,,,,main,k,k,1,0.6994760000015958,554.4927437000006,None,None,0,,,,,,,,,,,,,,101,2023-04-17_15h26.31.475,Main,2022.1.1,60.68211552231411,
negative,red,1,None,None,,,,,,,,,0,166,166,166,,,,,,,,,,,,,,,,,main,None,None,1,1.4961429000031785,556.1951869999975,None,None,1,,,,,,,,,,,,,,101,2023-04-17_15h26.31.475,Main,2022.1.1,60.68211552231411,
negative,yellow,2,k,None,,,,,,,,,0,167,167,167,,,,,,,,,,,,,,,,,main,None,None,1,1.5018530000015744,558.6922596999939,None,None,1,,,,,,,,,,,,,,101,2023-04-17_15h26.31.475,Main,2022.1.1,60.68211552231411,
positive,blue,2,k,None,,,,,,,,,0,168,168,168,,,,,,,,,,,,,,,,,main,None,k,0,0.7671929999996792,561.1948669999983,None,None,1,,,,,,,,,,,,,,101,2023-04-17_15h26.31.475,Main,2022.1.1,60.68211552231411,
positive,red,2,None,None,,,,,,,,,0,169,169,169,,,,,,,,,,,,,,,,,main,None,None,1,1.4985057000012603,563.9614551999985,None,None,1,,,,,,,,,,,,,,101,2023-04-17_15h26.31.475,Main,2022.1.1,60.68211552231411,
positive,red,1,None,None,,,,,,,,,0,170,170,170,,,,,,,,,,,,,,,,,main,None,None,1,1.5015253999954439,566.4588111999983,None,None,1,,,,,,,,,,,,,,101,2023-04-17_15h26.31.475,Main,2022.1.1,60.68211552231411,
negative,blue,2,None,k,,,,,,,,,0,171,171,171,,,,,,,,,,,,,,,,,main,k,k,1,0.900874399994791,568.9613686999946,None,None,0,,,,,,,,,,,,,,101,2023-04-17_15h26.31.475,Main,2022.1.1,60.68211552231411,
positive,blue,2,k,None,,,,,,,,,0,172,172,172,,,,,,,,,,,,,,,,,main,None,None,1,1.4943142999982229,570.8589903999964,None,None,1,,,,,,,,,,,,,,101,2023-04-17_15h26.31.475,Main,2022.1.1,60.68211552231411,
negative,yellow,2,k,None,,,,,,,,,0,173,173,173,,,,,,,,,,,,,,,,,main,None,None,1,1.5019367999993847,573.3585982999939,None,None,1,,,,,,,,,,,,,,101,2023-04-17_15h26.31.475,Main,2022.1.1,60.68211552231411,
positive,yellow,2,None,k,,,,,,,,,0,174,174,174,,,,,,,,,,,,,,,,,main,k,k,1,0.8510237000009511,575.8612540999966,None,None,0,,,,,,,,,,,,,,101,2023-04-17_15h26.31.475,Main,2022.1.1,60.68211552231411,
negative,blue,2,None,k,,,,,,,,,0,175,175,175,,,,,,,,,,,,,,,,,main,k,k,1,0.8780115999979898,577.7090156999984,None,None,0,,,,,,,,,,,,,,101,2023-04-17_15h26.31.475,Main,2022.1.1,60.68211552231411,
positive,blue,1,k,None,,,,,,,,,0,176,176,176,,,,,,,,,,,,,,,,,main,None,None,1,1.5017657999997027,579.5918521999993,None,None,1,,,,,,,,,,,,,,101,2023-04-17_15h26.31.475,Main,2022.1.1,60.68211552231411,
positive,yellow,1,None,k,,,,,,,,,0,177,177,177,,,,,,,,,,,,,,,,,main,k,k,1,0.9161512999999104,582.0944374999963,None,None,0,,,,,,,,,,,,,,101,2023-04-17_15h26.31.475,Main,2022.1.1,60.68211552231411,
positive,blue,1,k,None,,,,,,,,,0,178,178,178,,,,,,,,,,,,,,,,,main,None,None,1,1.4985966000022017,584.0111338999995,None,None,1,,,,,,,,,,,,,,101,2023-04-17_15h26.31.475,Main,2022.1.1,60.68211552231411,
positive,yellow,2,None,k,,,,,,,,,0,179,179,179,,,,,,,,,,,,,,,,,main,k,k,1,0.8968714000002365,586.5086502999984,None,None,0,,,,,,,,,,,,,,101,2023-04-17_15h26.31.475,Main,2022.1.1,60.68211552231411,
positive,blue,1,k,None,,,,,,,,,0,180,180,180,,,,,,,,,,,,,,,,,main,None,None,1,1.5016222999984166,588.4083121000003,None,None,1,,,,,,,,,,,,,,101,2023-04-17_15h26.31.475,Main,2022.1.1,60.68211552231411,
negative,red,1,None,None,,,,,,,,,0,181,181,181,,,,,,,,,,,,,,,,,main,None,None,1,1.4990095999964979,590.9109848999942,None,None,1,,,,,,,,,,,,,,101,2023-04-17_15h26.31.475,Main,2022.1.1,60.68211552231411,
negative,blue,1,None,k,,,,,,,,,0,182,182,182,,,,,,,,,,,,,,,,,main,k,k,1,0.9467395999963628,593.4108482999945,None,None,0,,,,,,,,,,,,,,101,2023-04-17_15h26.31.475,Main,2022.1.1,60.68211552231411,
negative,yellow,2,k,None,,,,,,,,,0,183,183,183,,,,,,,,,,,,,,,,,main,None,None,1,1.5014869000006001,595.3581855999946,None,None,1,,,,,,,,,,,,,,101,2023-04-17_15h26.31.475,Main,2022.1.1,60.68211552231411,
positive,yellow,2,None,k,,,,,,,,,0,184,184,184,,,,,,,,,,,,,,,,,main,k,k,1,0.8826422000056482,597.8607192999989,None,None,0,,,,,,,,,,,,,,101,2023-04-17_15h26.31.475,Main,2022.1.1,60.68211552231411,
positive,yellow,1,None,k,,,,,,,,,0,185,185,185,,,,,,,,,,,,,,,,,main,k,k,1,0.863602000004903,599.7418340000004,None,None,0,,,,,,,,,,,,,,101,2023-04-17_15h26.31.475,Main,2022.1.1,60.68211552231411,
positive,red,2,None,None,,,,,,,,,0,186,186,186,,,,,,,,,,,,,,,,,main,None,None,1,1.498547300005157,601.6105290999985,None,None,1,,,,,,,,,,,,,,101,2023-04-17_15h26.31.475,Main,2022.1.1,60.68211552231411,
positive,blue,1,k,None,,,,,,,,,0,187,187,187,,,,,,,,,,,,,,,,,main,None,None,1,1.5018177000019932,604.1079888999957,None,None,1,,,,,,,,,,,,,,101,2023-04-17_15h26.31.475,Main,2022.1.1,60.68211552231411,
negative,yellow,1,k,None,,,,,,,,,0,188,188,188,,,,,,,,,,,,,,,,,main,None,None,1,1.4992977000001702,606.6106155999951,None,None,1,,,,,,,,,,,,,,101,2023-04-17_15h26.31.475,Main,2022.1.1,60.68211552231411,
positive,yellow,2,None,k,,,,,,,,,0,189,189,189,,,,,,,,,,,,,,,,,main,k,k,1,0.7797920999946655,609.1105753999946,None,None,0,,,,,,,,,,,,,,101,2023-04-17_15h26.31.475,Main,2022.1.1,60.68211552231411,
negative,yellow,2,k,None,,,,,,,,,0,190,190,190,,,,,,,,,,,,,,,,,main,None,None,1,1.501630999999179,610.891171999996,None,None,1,,,,,,,,,,,,,,101,2023-04-17_15h26.31.475,Main,2022.1.1,60.68211552231411,
negative,yellow,1,k,None,,,,,,,,,0,191,191,191,,,,,,,,,,,,,,,,,main,None,None,1,1.4989437000040198,613.3938865999953,None,None,1,,,,,,,,,,,,,,101,2023-04-17_15h26.31.475,Main,2022.1.1,60.68211552231411,
positive,blue,2,k,None,,,,,,,,,0,192,192,192,,,,,,,,,,,,,,,,,main,None,None,1,1.4965039000016986,615.8935943999968,None,None,1,,,,,,,,,,,,,,101,2023-04-17_15h26.31.475,Main,2022.1.1,60.68211552231411,
positive,yellow,1,None,k,,,,,,,,,0,193,193,193,,,,,,,,,,,,,,,,,main,k,k,1,0.7827930999992532,618.3910557999989,None,None,0,,,,,,,,,,,,,,101,2023-04-17_15h26.31.475,Main,2022.1.1,60.68211552231411,
negative,red,2,None,None,,,,,,,,,0,194,194,194,,,,,,,,,,,,,,,,,main,None,None,1,1.501567100000102,620.1743958999941,None,None,1,,,,,,,,,,,,,,101,2023-04-17_15h26.31.475,Main,2022.1.1,60.68211552231411,
positive,red,1,None,None,,,,,,,,,0,195,195,195,,,,,,,,,,,,,,,,,main,None,None,1,1.4991415999975288,622.6769989999957,None,None,1,,,,,,,,,,,,,,101,2023-04-17_15h26.31.475,Main,2022.1.1,60.68211552231411,
negative,blue,1,None,k,,,,,,,,,0,196,196,196,,,,,,,,,,,,,,,,,main,k,k,1,0.9632444000017131,625.1767627000008,None,None,0,,,,,,,,,,,,,,101,2023-04-17_15h26.31.475,Main,2022.1.1,60.68211552231411,
positive,blue,2,k,None,,,,,,,,,0,197,197,197,,,,,,,,,,,,,,,,,main,None,None,1,1.5017010000010487,627.1408602999945,None,None,1,,,,,,,,,,,,,,101,2023-04-17_15h26.31.475,Main,2022.1.1,60.68211552231411,
negative,blue,2,None,k,,,,,,,,,0,198,198,198,,,,,,,,,,,,,,,,,main,k,k,1,0.9971769000039785,629.6435406999954,None,None,0,,,,,,,,,,,,,,101,2023-04-17_15h26.31.475,Main,2022.1.1,60.68211552231411,
negative,blue,2,None,k,,,,,,,,,0,199,199,199,,,,,,,,,,,,,,,,,main,k,k,1,0.698058800000581,631.6436466999949,None,None,0,,,,,,,,,,,,,,101,2023-04-17_15h26.31.475,Main,2022.1.1,60.68211552231411,
positive,blue,2,k,None,,,,,,,,,0,200,200,200,,,,,,,,,,,,,,,,,main,None,None,1,1.4991047999938019,633.3407517999949,None,None,1,,,,,,,,,,,,,,101,2023-04-17_15h26.31.475,Main,2022.1.1,60.68211552231411,
positive,blue,2,k,None,,,,,,,,,0,201,201,201,,,,,,,,,,,,,,,,,main,None,None,1,1.5017514999999548,635.8407084999999,None,None,1,,,,,,,,,,,,,,101,2023-04-17_15h26.31.475,Main,2022.1.1,60.68211552231411,
negative,yellow,2,k,None,,,,,,,,,0,202,202,202,,,,,,,,,,,,,,,,,main,None,k,0,0.6469896000053268,638.3433453999969,None,None,1,,,,,,,,,,,,,,101,2023-04-17_15h26.31.475,Main,2022.1.1,60.68211552231411,
positive,red,1,None,None,,,,,,,,,0,203,203,203,,,,,,,,,,,,,,,,,main,None,None,1,1.4882577000025776,641.0072354000004,None,None,1,,,,,,,,,,,,,,101,2023-04-17_15h26.31.475,Main,2022.1.1,60.68211552231411,
negative,blue,2,None,k,,,,,,,,,0,204,204,204,,,,,,,,,,,,,,,,,main,k,k,1,0.8479851000010967,643.4931823999941,None,None,0,,,,,,,,,,,,,,101,2023-04-17_15h26.31.475,Main,2022.1.1,60.68211552231411,
negative,red,1,None,None,,,,,,,,,0,205,205,205,,,,,,,,,,,,,,,,,main,None,None,1,1.4979193999970448,645.3409061999992,None,None,1,,,,,,,,,,,,,,101,2023-04-17_15h26.31.475,Main,2022.1.1,60.68211552231411,
negative,blue,2,None,k,,,,,,,,,0,206,206,206,,,,,,,,,,,,,,,,,main,k,k,1,0.8301136999943992,647.8429733999947,None,None,0,,,,,,,,,,,,,,101,2023-04-17_15h26.31.475,Main,2022.1.1,60.68211552231411,
negative,yellow,2,k,None,,,,,,,,,0,207,207,207,,,,,,,,,,,,,,,,,main,None,None,1,1.498638100005337,649.6740510999953,None,None,1,,,,,,,,,,,,,,101,2023-04-17_15h26.31.475,Main,2022.1.1,60.68211552231411,
positive,yellow,2,None,k,,,,,,,,,0,208,208,208,,,,,,,,,,,,,,,,,main,k,k,1,0.6522375999993528,652.1737345000001,None,None,0,,,,,,,,,,,,,,101,2023-04-17_15h26.31.475,Main,2022.1.1,60.68211552231411,
negative,yellow,1,k,None,,,,,,,,,0,209,209,209,,,,,,,,,,,,,,,,,main,None,None,1,1.4987550000005285,653.8263139999981,None,None,1,,,,,,,,,,,,,,101,2023-04-17_15h26.31.475,Main,2022.1.1,60.68211552231411,
negative,red,2,None,None,,,,,,,,,0,210,210,210,,,,,,,,,,,,,,,,,main,None,None,1,1.496520500004408,656.3263657999996,None,None,1,,,,,,,,,,,,,,101,2023-04-17_15h26.31.475,Main,2022.1.1,60.68211552231411,
negative,blue,1,None,k,,,,,,,,,0,211,211,211,,,,,,,,,,,,,,,,,main,k,k,1,0.868500699994911,658.8236094999957,None,None,0,,,,,,,,,,,,,,101,2023-04-17_15h26.31.475,Main,2022.1.1,60.68211552231411,
negative,yellow,1,k,None,,,,,,,,,0,212,212,212,,,,,,,,,,,,,,,,,main,None,None,1,1.4963626000026125,660.690582999996,None,None,1,,,,,,,,,,,,,,101,2023-04-17_15h26.31.475,Main,2022.1.1,60.68211552231411,
positive,blue,1,k,None,,,,,,,,,0,213,213,213,,,,,,,,,,,,,,,,,main,None,None,1,1.5016850999963935,663.1903949999978,None,None,1,,,,,,,,,,,,,,101,2023-04-17_15h26.31.475,Main,2022.1.1,60.68211552231411,
positive,blue,1,k,None,,,,,,,,,0,214,214,214,,,,,,,,,,,,,,,,,main,None,None,1,1.4986444000023766,665.6903125999961,None,None,1,,,,,,,,,,,,,,101,2023-04-17_15h26.31.475,Main,2022.1.1,60.68211552231411,
positive,yellow,1,None,k,,,,,,,,,0,215,215,215,,,,,,,,,,,,,,,,,main,k,k,1,0.747149900002114,668.1903238999948,None,None,0,,,,,,,,,,,,,,101,2023-04-17_15h26.31.475,Main,2022.1.1,60.68211552231411,
positive,yellow,1,None,k,,,,,,,,,0,216,216,216,,,,,,,,,,,,,,,,,main,k,k,1,0.7759774000005564,669.9402756999989,None,None,0,,,,,,,,,,,,,,101,2023-04-17_15h26.31.475,Main,2022.1.1,60.68211552231411,
positive,yellow,2,None,k,,,,,,,,,0,217,217,217,,,,,,,,,,,,,,,,,main,k,k,1,0.8721526000008453,671.7209713999982,None,None,0,,,,,,,,,,,,,,101,2023-04-17_15h26.31.475,Main,2022.1.1,60.68211552231411,
negative,blue,1,None,k,,,,,,,,,0,218,218,218,,,,,,,,,,,,,,,,,main,k,k,1,0.8848967000012635,673.5903280999992,None,None,0,,,,,,,,,,,,,,101,2023-04-17_15h26.31.475,Main,2022.1.1,60.68211552231411,
positive,red,2,None,None,,,,,,,,,0,219,219,219,,,,,,,,,,,,,,,,,main,None,None,1,1.4993601000023773,675.4759749999939,None,None,1,,,,,,,,,,,,,,101,2023-04-17_15h26.31.475,Main,2022.1.1,60.68211552231411,
positive,yellow,1,None,k,,,,,,,,,0,220,220,220,,,,,,,,,,,,,,,,,main,k,k,1,0.9128681000001961,677.9758708999943,None,None,0,,,,,,,,,,,,,,101,2023-04-17_15h26.31.475,Main,2022.1.1,60.68211552231411,
positive,blue,1,k,None,,,,,,,,,0,221,221,221,,,,,,,,,,,,,,,,,main,None,None,1,1.501477600002545,679.8897794999939,None,None,1,,,,,,,,,,,,,,101,2023-04-17_15h26.31.475,Main,2022.1.1,60.68211552231411,
positive,yellow,2,None,k,,,,,,,,,0,222,222,222,,,,,,,,,,,,,,,,,main,k,k,1,0.7804109999997308,682.3923966000002,None,None,0,,,,,,,,,,,,,,101,2023-04-17_15h26.31.475,Main,2022.1.1,60.68211552231411,
negative,yellow,1,k,None,,,,,,,,,0,223,223,223,,,,,,,,,,,,,,,,,main,None,None,1,1.500623899999482,684.1734543999992,None,None,1,,,,,,,,,,,,,,101,2023-04-17_15h26.31.475,Main,2022.1.1,60.68211552231411,
positive,yellow,2,None,k,,,,,,,,,0,224,224,224,,,,,,,,,,,,,,,,,main,k,k,1,0.6973954999994021,686.6754885999981,None,None,0,,,,,,,,,,,,,,101,2023-04-17_15h26.31.475,Main,2022.1.1,60.68211552231411,
negative,yellow,2,k,None,,,,,,,,,0,225,225,225,,,,,,,,,,,,,,,,,main,None,None,1,1.4986387999961153,688.3755294999937,None,None,1,,,,,,,,,,,,,,101,2023-04-17_15h26.31.475,Main,2022.1.1,60.68211552231411,
negative,blue,2,None,k,,,,,,,,,0,226,226,226,,,,,,,,,,,,,,,,,main,k,k,1,0.9017457000009017,690.8729424999983,None,None,0,,,,,,,,,,,,,,101,2023-04-17_15h26.31.475,Main,2022.1.1,60.68211552231411,
positive,red,2,None,None,,,,,,,,,0,227,227,227,,,,,,,,,,,,,,,,,main,None,None,1,1.498859999999695,692.7755305999963,None,None,1,,,,,,,,,,,,,,101,2023-04-17_15h26.31.475,Main,2022.1.1,60.68211552231411,
positive,blue,2,k,None,,,,,,,,,0,228,228,228,,,,,,,,,,,,,,,,,main,None,None,1,1.496679399999266,695.2753347999969,None,None,1,,,,,,,,,,,,,,101,2023-04-17_15h26.31.475,Main,2022.1.1,60.68211552231411,
negative,blue,1,None,k,,,,,,,,,0,229,229,229,,,,,,,,,,,,,,,,,main,k,k,1,0.8163472000014735,697.7727318999969,None,None,0,,,,,,,,,,,,,,101,2023-04-17_15h26.31.475,Main,2022.1.1,60.68211552231411,
positive,yellow,1,None,k,,,,,,,,,0,230,230,230,,,,,,,,,,,,,,,,,main,k,k,1,0.718295799997577,699.5894320000007,None,None,0,,,,,,,,,,,,,,101,2023-04-17_15h26.31.475,Main,2022.1.1,60.68211552231411,
negative,blue,2,None,k,,,,,,,,,0,231,231,231,,,,,,,,,,,,,,,,,main,k,k,1,0.9301020999992033,701.3086754999968,None,None,0,,,,,,,,,,,,,,101,2023-04-17_15h26.31.475,Main,2022.1.1,60.68211552231411,
negative,red,1,None,None,,,,,,,,,0,232,232,232,,,,,,,,,,,,,,,,,main,None,None,1,1.4985825999974622,703.241878599998,None,None,1,,,,,,,,,,,,,,101,2023-04-17_15h26.31.475,Main,2022.1.1,60.68211552231411,
positive,blue,2,k,None,,,,,,,,,0,233,233,233,,,,,,,,,,,,,,,,,main,None,None,1,1.5019792999955826,705.7392448999963,None,None,1,,,,,,,,,,,,,,101,2023-04-17_15h26.31.475,Main,2022.1.1,60.68211552231411,
negative,yellow,1,k,None,,,,,,,,,0,234,234,234,,,,,,,,,,,,,,,,,main,None,None,1,1.4963217000040459,708.2418270999988,None,None,1,,,,,,,,,,,,,,101,2023-04-17_15h26.31.475,Main,2022.1.1,60.68211552231411,
negative,yellow,2,k,None,,,,,,,,,0,235,235,235,,,,,,,,,,,,,,,,,main,None,None,1,1.4990121000009822,710.7448890999949,None,None,1,,,,,,,,,,,,,,101,2023-04-17_15h26.31.475,Main,2022.1.1,60.68211552231411,
positive,red,1,None,None,,,,,,,,,0,236,236,236,,,,,,,,,,,,,,,,,main,None,None,1,1.5015897000048426,713.2391595000008,None,None,1,,,,,,,,,,,,,,101,2023-04-17_15h26.31.475,Main,2022.1.1,60.68211552231411,
negative,red,2,None,None,,,,,,,,,0,237,237,237,,,,,,,,,,,,,,,,,main,None,None,1,1.4990290999994613,715.7417209999985,None,None,1,,,,,,,,,,,,,,101,2023-04-17_15h26.31.475,Main,2022.1.1,60.68211552231411,
negative,blue,1,None,k,,,,,,,,,0,238,238,238,,,,,,,,,,,,,,,,,main,k,k,1,1.047207100004016,718.2392802999966,None,None,0,,,,,,,,,,,,,,101,2023-04-17_15h26.31.475,Main,2022.1.1,60.68211552231411,
positive,blue,1,k,None,,,,,,,,,0,239,239,239,,,,,,,,,,,,,,,,,main,None,None,1,1.501572799999849,720.2889613999942,None,None,1,,,,,,,,,,,,,,101,2023-04-17_15h26.31.475,Main,2022.1.1,60.68211552231411,
,,,,,,,,,,,,,,,,,,,,,,,,,,,,,,,,,,,,,,,,,,,,,,,,,,,,,722.791618999996,None,,,,,,
