distractor,target,set,ans1,ans2,rep_loop4.thisRepN,rep_loop4.thisTrialN,rep_loop4.thisN,rep_loop4.thisIndex,st2_prac_loop.thisRepN,st2_prac_loop.thisTrialN,st2_prac_loop.thisN,st2_prac_loop.thisIndex,st2_main_loop.thisRepN,st2_main_loop.thisTrialN,st2_main_loop.thisN,st2_main_loop.thisIndex,image_4.started,image_4.stopped,sound_2.started,sound_2.stopped,key_resp_3.keys,key_resp_3.rt,image_5.started,image_5.stopped,st_prac_back.started,st_prac_back.stopped,st_prac_text.started,st_prac_text.stopped,st_fix_back.started,st_fix_back.stopped,st_fix_2.started,st_fix_2.stopped,main_prac,st_ans,st_res,st_corr,st_rt,st_back.started,st_back.stopped,st2_resp.keys,st2_resp.corr,st_main_back.started,st_main_back.stopped,st_main_text.started,st_main_text.stopped,mouse_4.x,mouse_4.y,mouse_4.leftButton,mouse_4.midButton,mouse_4.rightButton,mouse_4.started,mouse_4.stopped,text_2.started,text_2.stopped,id*,date,expName,psychopyVersion,frameRate,
negative,yellow,1,k,None,,,,,0,0,0,0,,,,,148.31912459997693,None,150.67241047996214,None,space,52.986965299991425,203.69033569999738,None,214.95696959999623,None,214.95696959999623,None,216.95700990001205,None,216.95700990001205,None,prac,k,k,1,1.3198905999888666,218.97686059999978,None,None,0,,,,,,,,,,,,,,102,2023-04-21_17h26.35.281,Main,2022.1.1,60.02548683409395,
positive,red,2,None,None,,,,,0,1,1,1,,,,,,,,,,,,,,,,,,,,,prac,None,None,1,1.4990583999897353,221.30681609996827,None,None,1,,,,,,,,,,,,,,102,2023-04-21_17h26.35.281,Main,2022.1.1,60.02548683409395,
negative,blue,2,None,k,,,,,0,2,2,2,,,,,,,,,,,,,,,,,,,,,prac,None,None,1,1.4958998000365682,223.80666549998568,None,None,1,,,,,,,,,,,,,,102,2023-04-21_17h26.35.281,Main,2022.1.1,60.02548683409395,
positive,yellow,1,None,k,,,,,0,3,3,3,,,,,,,,,,,,,,,,,,,,,prac,None,None,1,1.5017820000066422,226.30418450001162,None,None,1,,,,,,,,,,,,,,102,2023-04-21_17h26.35.281,Main,2022.1.1,60.02548683409395,
negative,blue,2,None,k,,,,,0,4,4,4,,,,,,,,,,,,,,,,,,,,,prac,None,None,1,1.4991806999896653,228.8065925000119,None,None,1,,,,,,,,,,,,,,102,2023-04-21_17h26.35.281,Main,2022.1.1,60.02548683409395,
negative,blue,1,None,k,,,,,0,5,5,5,,,,,,,,,,,,,,,,,,,,,prac,None,None,1,1.499039999966044,231.3066237999592,None,None,1,,,,,,,,,,,,,,102,2023-04-21_17h26.35.281,Main,2022.1.1,60.02548683409395,
negative,yellow,2,k,None,,,,,0,6,6,6,,,,,,,,,,,,,,,,,,,,,prac,k,k,1,0.7797006000182591,233.8067238999647,None,None,0,,,,,,,,,,,,,,102,2023-04-21_17h26.35.281,Main,2022.1.1,60.02548683409395,
negative,red,1,None,None,,,,,0,7,7,7,,,,,,,,,,,,,,,,,,,,,prac,None,None,1,1.5017206000047736,235.5871358999866,None,None,1,,,,,,,,,,,,,,102,2023-04-21_17h26.35.281,Main,2022.1.1,60.02548683409395,
positive,yellow,2,None,k,,,,,0,8,8,8,,,,,,,,,,,,,,,,,,,,,prac,None,None,1,1.4985724000143819,238.0897396999644,None,None,1,,,,,,,,,,,,,,102,2023-04-21_17h26.35.281,Main,2022.1.1,60.02548683409395,
negative,yellow,1,k,None,,,,,0,9,9,9,,,,,,,,,,,,,,,,,,,,,prac,k,k,1,1.0133225000463426,240.58974059997126,None,None,0,,,,,,,,,,,,,,102,2023-04-21_17h26.35.281,Main,2022.1.1,60.02548683409395,
positive,yellow,2,None,k,,,,,0,10,10,10,,,,,,,,,,,,,,,,,,,,,prac,None,None,1,1.5018910999642685,242.60364919999847,None,None,1,,,,,,,,,,,,,,102,2023-04-21_17h26.35.281,Main,2022.1.1,60.02548683409395,
negative,yellow,2,k,None,,,,,0,11,11,11,,,,,,,,,,,,,,,,,,,,,prac,k,k,1,0.9796868999837898,245.1063087999937,None,None,0,,,,,,,,,,,,,,102,2023-04-21_17h26.35.281,Main,2022.1.1,60.02548683409395,
negative,red,2,None,None,,,,,0,12,12,12,,,,,,,,,,,,,,,,,,,,,prac,None,None,1,1.5016558999777772,247.08769259997644,None,None,1,,,,,,,,,,,,,,102,2023-04-21_17h26.35.281,Main,2022.1.1,60.02548683409395,
positive,red,1,None,None,,,,,0,13,13,13,,,,,,,,,,,,,,,,,,,,,prac,None,None,1,1.4992755000130273,249.5895026999642,None,None,1,,,,,,,,,,,,,,102,2023-04-21_17h26.35.281,Main,2022.1.1,60.02548683409395,
positive,blue,2,k,None,,,,,0,14,14,14,,,,,,,,,,,,,,,,,,,,,prac,k,k,1,0.9798865999910049,252.0895165000111,None,None,0,,,,,,,,,,,,,,102,2023-04-21_17h26.35.281,Main,2022.1.1,60.02548683409395,
positive,blue,1,k,None,,,,,0,15,15,15,,,,,,,,,,,,,,,,,,,,,prac,k,k,1,0.8185272000264376,254.07009519997519,None,None,0,,,,,,,,,,,,,,102,2023-04-21_17h26.35.281,Main,2022.1.1,60.02548683409395,
negative,blue,1,None,k,,,,,0,16,16,16,,,,,,,,,,,,,,,,,,,,,prac,None,None,1,1.4985755000379868,255.88937359995907,None,None,1,,,,,,,,,,,,,,102,2023-04-21_17h26.35.281,Main,2022.1.1,60.02548683409395,
positive,blue,2,k,None,,,,,0,17,17,17,,,,,,,,,,,,,,,,,,,,,prac,k,k,1,0.8645315999747254,258.3893165999907,None,None,0,,,,,,,,,,,,,,102,2023-04-21_17h26.35.281,Main,2022.1.1,60.02548683409395,
positive,blue,1,k,None,,,,,0,18,18,18,,,,,,,,,,,,,,,,,,,,,prac,k,k,1,0.8344095000065863,260.2532860999927,None,None,0,,,,,,,,,,,,,,102,2023-04-21_17h26.35.281,Main,2022.1.1,60.02548683409395,
positive,yellow,1,None,k,,,,,0,19,19,19,,,,,,,,,,,,,,,,,,,,,prac,None,None,1,1.4987937999540009,262.08926099998644,None,None,1,,,,,,,,,,,,,,102,2023-04-21_17h26.35.281,Main,2022.1.1,60.02548683409395,
negative,yellow,1,k,None,,,,,1,0,20,0,,,,,,,,,,,,,,,,,,,,,prac,k,k,1,0.7630895000183955,264.5892493999563,None,None,0,,,,,,,,,,,,,,102,2023-04-21_17h26.35.281,Main,2022.1.1,60.02548683409395,
positive,red,2,None,None,,,,,1,1,21,1,,,,,,,,,,,,,,,,,,,,,prac,None,None,1,1.501702599984128,266.35315579996677,None,None,1,,,,,,,,,,,,,,102,2023-04-21_17h26.35.281,Main,2022.1.1,60.02548683409395,
negative,blue,2,None,k,,,,,1,2,22,2,,,,,,,,,,,,,,,,,,,,,prac,None,None,1,1.498712400032673,268.8557630999712,None,None,1,,,,,,,,,,,,,,102,2023-04-21_17h26.35.281,Main,2022.1.1,60.02548683409395,
positive,yellow,1,None,k,,,,,1,3,23,3,,,,,,,,,,,,,,,,,,,,,prac,None,None,1,1.4988594999886118,271.3555493999738,None,None,1,,,,,,,,,,,,,,102,2023-04-21_17h26.35.281,Main,2022.1.1,60.02548683409395,
negative,blue,2,None,k,,,,,1,4,24,4,,,,,,,,,,,,,,,,,,,,,prac,None,None,1,1.4966810999903828,273.8555388000095,None,None,1,,,,,,,,,,,,,,102,2023-04-21_17h26.35.281,Main,2022.1.1,60.02548683409395,
negative,blue,1,None,k,,,,,1,5,25,5,,,,,,,,,,,,,,,,,,,,,prac,None,None,1,1.5019862000481226,276.35293439996894,None,None,1,,,,,,,,,,,,,,102,2023-04-21_17h26.35.281,Main,2022.1.1,60.02548683409395,
negative,yellow,2,k,None,,,,,1,6,26,6,,,,,,,,,,,,,,,,,,,,,prac,k,k,1,0.7802569000050426,278.85560079995776,None,None,0,,,,,,,,,,,,,,102,2023-04-21_17h26.35.281,Main,2022.1.1,60.02548683409395,
negative,red,1,None,None,,,,,1,7,27,7,,,,,,,,,,,,,,,,,,,,,prac,None,None,1,1.4981319000362419,280.6303532999591,None,None,1,,,,,,,,,,,,,,102,2023-04-21_17h26.35.281,Main,2022.1.1,60.02548683409395,
positive,yellow,2,None,k,,,,,1,8,28,8,,,,,,,,,,,,,,,,,,,,,prac,None,None,1,1.5015438999980688,283.13619130000006,None,None,1,,,,,,,,,,,,,,102,2023-04-21_17h26.35.281,Main,2022.1.1,60.02548683409395,
negative,yellow,1,k,None,,,,,1,9,29,9,,,,,,,,,,,,,,,,,,,,,prac,k,k,1,0.8801333000301383,285.63874570000917,None,None,0,,,,,,,,,,,,,,102,2023-04-21_17h26.35.281,Main,2022.1.1,60.02548683409395,
positive,yellow,2,None,k,,,,,1,10,30,10,,,,,,,,,,,,,,,,,,,,,prac,None,None,1,1.5013693000073545,287.5194999999949,None,None,1,,,,,,,,,,,,,,102,2023-04-21_17h26.35.281,Main,2022.1.1,60.02548683409395,
negative,yellow,2,k,None,,,,,1,11,31,11,,,,,,,,,,,,,,,,,,,,,prac,k,k,1,1.0807616999954917,290.02194239996606,None,None,0,,,,,,,,,,,,,,102,2023-04-21_17h26.35.281,Main,2022.1.1,60.02548683409395,
negative,red,2,None,None,,,,,1,12,32,12,,,,,,,,,,,,,,,,,,,,,prac,None,None,1,1.4984164999914356,292.10534030001145,None,None,1,,,,,,,,,,,,,,102,2023-04-21_17h26.35.281,Main,2022.1.1,60.02548683409395,
positive,red,1,None,None,,,,,1,13,33,13,,,,,,,,,,,,,,,,,,,,,prac,None,None,1,1.5018258000491187,294.60257009998895,None,None,1,,,,,,,,,,,,,,102,2023-04-21_17h26.35.281,Main,2022.1.1,60.02548683409395,
positive,blue,2,k,None,,,,,1,14,34,14,,,,,,,,,,,,,,,,,,,,,prac,k,k,1,0.6856004999717698,297.10521820001304,None,None,0,,,,,,,,,,,,,,102,2023-04-21_17h26.35.281,Main,2022.1.1,60.02548683409395,
positive,blue,1,k,None,,,,,1,15,35,15,,,,,,,,,,,,,,,,,,,,,prac,k,k,1,0.7105485000065528,298.7898029999924,None,None,0,,,,,,,,,,,,,,102,2023-04-21_17h26.35.281,Main,2022.1.1,60.02548683409395,
negative,blue,1,None,k,,,,,1,16,36,16,,,,,,,,,,,,,,,,,,,,,prac,None,None,1,1.5011029000161216,300.50244409998413,None,None,1,,,,,,,,,,,,,,102,2023-04-21_17h26.35.281,Main,2022.1.1,60.02548683409395,
positive,blue,2,k,None,,,,,1,17,37,17,,,,,,,,,,,,,,,,,,,,,prac,k,k,1,0.9183503999956883,303.00512369995704,None,None,0,,,,,,,,,,,,,,102,2023-04-21_17h26.35.281,Main,2022.1.1,60.02548683409395,
positive,blue,1,k,None,,,,,1,18,38,18,,,,,,,,,,,,,,,,,,,,,prac,k,k,1,0.8795415000058711,304.92773529997794,None,None,0,,,,,,,,,,,,,,102,2023-04-21_17h26.35.281,Main,2022.1.1,60.02548683409395,
positive,yellow,1,None,k,,,,,1,19,39,19,,,,,,,,,,,,,,,,,,,,,prac,None,None,1,1.4955914999591187,306.8023580999579,None,None,1,,,,,,,,,,,,,,102,2023-04-21_17h26.35.281,Main,2022.1.1,60.02548683409395,
,,,,,,,,,,,,,,,,,,,,,,,,,,,,,,,,,,,,,,,,,,309.30224270001054,None,309.30224270001054,None,0.0074074073,-0.031481482,0,0,0,0.014554480032529682,None,,,102,2023-04-21_17h26.35.281,Main,2022.1.1,60.02548683409395,
negative,yellow,2,k,None,,,,,,,,,0,0,0,0,,,,,,,,,,,,,310.6356133999652,None,310.6356133999652,None,main,k,k,1,1.463545999955386,312.6653685999918,None,None,0,,,,,,,,,,,,,,102,2023-04-21_17h26.35.281,Main,2022.1.1,60.02548683409395,
positive,red,1,None,None,,,,,,,,,0,1,1,1,,,,,,,,,,,,,,,,,main,None,None,1,1.498486900003627,315.13565549999475,None,None,1,,,,,,,,,,,,,,102,2023-04-21_17h26.35.281,Main,2022.1.1,60.02548683409395,
positive,blue,2,k,None,,,,,,,,,0,2,2,2,,,,,,,,,,,,,,,,,main,k,k,1,1.0520854000351392,317.63546739995945,None,None,0,,,,,,,,,,,,,,102,2023-04-21_17h26.35.281,Main,2022.1.1,60.02548683409395,
positive,blue,1,k,None,,,,,,,,,0,3,3,3,,,,,,,,,,,,,,,,,main,k,k,1,0.682635199977085,319.6880324999802,None,None,0,,,,,,,,,,,,,,102,2023-04-21_17h26.35.281,Main,2022.1.1,60.02548683409395,
negative,yellow,2,k,None,,,,,,,,,0,4,4,4,,,,,,,,,,,,,,,,,main,k,k,1,0.729523700021673,321.3712750999839,None,None,0,,,,,,,,,,,,,,102,2023-04-21_17h26.35.281,Main,2022.1.1,60.02548683409395,
positive,yellow,2,None,k,,,,,,,,,0,5,5,5,,,,,,,,,,,,,,,,,main,None,None,1,1.5018179999897256,323.1019534000079,None,None,1,,,,,,,,,,,,,,102,2023-04-21_17h26.35.281,Main,2022.1.1,60.02548683409395,
negative,blue,2,None,k,,,,,,,,,0,6,6,6,,,,,,,,,,,,,,,,,main,None,k,0,0.7328078999998979,325.6046296999557,None,None,1,,,,,,,,,,,,,,102,2023-04-21_17h26.35.281,Main,2022.1.1,60.02548683409395,
positive,red,2,None,None,,,,,,,,,0,7,7,7,,,,,,,,,,,,,,,,,main,None,None,1,1.5007968000136316,328.3378429999575,None,None,1,,,,,,,,,,,,,,102,2023-04-21_17h26.35.281,Main,2022.1.1,60.02548683409395,
positive,yellow,1,None,k,,,,,,,,,0,8,8,8,,,,,,,,,,,,,,,,,main,None,None,1,1.4965303000062704,330.837670399982,None,None,1,,,,,,,,,,,,,,102,2023-04-21_17h26.35.281,Main,2022.1.1,60.02548683409395,
negative,red,1,None,None,,,,,,,,,0,9,9,9,,,,,,,,,,,,,,,,,main,None,None,1,1.50192920002155,333.3350859999773,None,None,1,,,,,,,,,,,,,,102,2023-04-21_17h26.35.281,Main,2022.1.1,60.02548683409395,
positive,yellow,1,None,k,,,,,,,,,0,10,10,10,,,,,,,,,,,,,,,,,main,None,None,1,1.4994603000232019,335.8377593999612,None,None,1,,,,,,,,,,,,,,102,2023-04-21_17h26.35.281,Main,2022.1.1,60.02548683409395,
negative,yellow,1,k,None,,,,,,,,,0,11,11,11,,,,,,,,,,,,,,,,,main,k,k,1,1.4293209000024945,338.3375832999591,None,None,0,,,,,,,,,,,,,,102,2023-04-21_17h26.35.281,Main,2022.1.1,60.02548683409395,
negative,yellow,1,k,None,,,,,,,,,0,12,12,12,,,,,,,,,,,,,,,,,main,k,k,1,0.6660235999734141,340.76824090001173,None,None,0,,,,,,,,,,,,,,102,2023-04-21_17h26.35.281,Main,2022.1.1,60.02548683409395,
negative,red,2,None,None,,,,,,,,,0,13,13,13,,,,,,,,,,,,,,,,,main,None,None,1,1.501154300000053,342.4351250999607,None,None,1,,,,,,,,,,,,,,102,2023-04-21_17h26.35.281,Main,2022.1.1,60.02548683409395,
positive,yellow,2,None,k,,,,,,,,,0,14,14,14,,,,,,,,,,,,,,,,,main,None,None,1,1.4969328999868594,344.937522799999,None,None,1,,,,,,,,,,,,,,102,2023-04-21_17h26.35.281,Main,2022.1.1,60.02548683409395,
positive,blue,1,k,None,,,,,,,,,0,15,15,15,,,,,,,,,,,,,,,,,main,k,k,1,1.051900000020396,347.4349820999778,None,None,0,,,,,,,,,,,,,,102,2023-04-21_17h26.35.281,Main,2022.1.1,60.02548683409395,
negative,blue,1,None,k,,,,,,,,,0,16,16,16,,,,,,,,,,,,,,,,,main,None,None,1,1.4988954000291415,349.4874581999611,None,None,1,,,,,,,,,,,,,,102,2023-04-21_17h26.35.281,Main,2022.1.1,60.02548683409395,
positive,blue,2,k,None,,,,,,,,,0,17,17,17,,,,,,,,,,,,,,,,,main,k,k,1,0.7301770999911241,351.987326500006,None,None,0,,,,,,,,,,,,,,102,2023-04-21_17h26.35.281,Main,2022.1.1,60.02548683409395,
negative,blue,2,None,k,,,,,,,,,0,18,18,18,,,,,,,,,,,,,,,,,main,None,None,1,1.5004826000076719,353.7179877999588,None,None,1,,,,,,,,,,,,,,102,2023-04-21_17h26.35.281,Main,2022.1.1,60.02548683409395,
negative,blue,1,None,k,,,,,,,,,0,19,19,19,,,,,,,,,,,,,,,,,main,None,None,1,1.5020455000340007,356.2206520999898,None,None,1,,,,,,,,,,,,,,102,2023-04-21_17h26.35.281,Main,2022.1.1,60.02548683409395,
negative,blue,1,None,k,,,,,,,,,0,20,20,20,,,,,,,,,,,,,,,,,main,None,None,1,1.4929636999731883,358.72232619998977,None,None,1,,,,,,,,,,,,,,102,2023-04-21_17h26.35.281,Main,2022.1.1,60.02548683409395,
negative,blue,2,None,k,,,,,,,,,0,21,21,21,,,,,,,,,,,,,,,,,main,None,None,1,1.501765199995134,361.21788179996656,None,None,1,,,,,,,,,,,,,,102,2023-04-21_17h26.35.281,Main,2022.1.1,60.02548683409395,
negative,red,1,None,None,,,,,,,,,0,22,22,22,,,,,,,,,,,,,,,,,main,None,None,1,1.4947806000127457,363.7204880999634,None,None,1,,,,,,,,,,,,,,102,2023-04-21_17h26.35.281,Main,2022.1.1,60.02548683409395,
positive,red,2,None,None,,,,,,,,,0,23,23,23,,,,,,,,,,,,,,,,,main,None,None,1,1.5011049000313506,366.2177095999941,None,None,1,,,,,,,,,,,,,,102,2023-04-21_17h26.35.281,Main,2022.1.1,60.02548683409395,
negative,red,2,None,None,,,,,,,,,0,24,24,24,,,,,,,,,,,,,,,,,main,None,None,1,1.4954534999560565,368.71822719997726,None,None,1,,,,,,,,,,,,,,102,2023-04-21_17h26.35.281,Main,2022.1.1,60.02548683409395,
positive,blue,2,k,None,,,,,,,,,0,25,25,25,,,,,,,,,,,,,,,,,main,k,k,1,0.666442499961704,371.21761769999284,None,None,0,,,,,,,,,,,,,,102,2023-04-21_17h26.35.281,Main,2022.1.1,60.02548683409395,
negative,yellow,1,k,None,,,,,,,,,0,26,26,26,,,,,,,,,,,,,,,,,main,k,k,1,0.8824121999787167,372.8846423999639,None,None,0,,,,,,,,,,,,,,102,2023-04-21_17h26.35.281,Main,2022.1.1,60.02548683409395,
positive,blue,2,k,None,,,,,,,,,0,27,27,27,,,,,,,,,,,,,,,,,main,k,k,1,0.7343766000121832,374.77031789999455,None,None,0,,,,,,,,,,,,,,102,2023-04-21_17h26.35.281,Main,2022.1.1,60.02548683409395,
negative,blue,2,None,k,,,,,,,,,0,28,28,28,,,,,,,,,,,,,,,,,main,None,None,1,1.496802099980414,376.50343499996234,None,None,1,,,,,,,,,,,,,,102,2023-04-21_17h26.35.281,Main,2022.1.1,60.02548683409395,
positive,red,1,None,None,,,,,,,,,0,29,29,29,,,,,,,,,,,,,,,,,main,None,None,1,1.5014996000099927,379.00090439995984,None,None,1,,,,,,,,,,,,,,102,2023-04-21_17h26.35.281,Main,2022.1.1,60.02548683409395,
positive,blue,1,k,None,,,,,,,,,0,30,30,30,,,,,,,,,,,,,,,,,main,k,k,1,1.0964532000361942,381.5033587999642,None,None,0,,,,,,,,,,,,,,102,2023-04-21_17h26.35.281,Main,2022.1.1,60.02548683409395,
positive,yellow,1,None,k,,,,,,,,,0,31,31,31,,,,,,,,,,,,,,,,,main,None,None,1,1.5018664000090212,383.60068709996995,None,None,1,,,,,,,,,,,,,,102,2023-04-21_17h26.35.281,Main,2022.1.1,60.02548683409395,
negative,yellow,2,k,None,,,,,,,,,0,32,32,32,,,,,,,,,,,,,,,,,main,k,k,1,1.0159890999784693,386.10333819995867,None,None,0,,,,,,,,,,,,,,102,2023-04-21_17h26.35.281,Main,2022.1.1,60.02548683409395,
negative,blue,1,None,k,,,,,,,,,0,33,33,33,,,,,,,,,,,,,,,,,main,None,None,1,1.4984426000155509,388.1199433999718,None,None,1,,,,,,,,,,,,,,102,2023-04-21_17h26.35.281,Main,2022.1.1,60.02548683409395,
positive,blue,1,k,None,,,,,,,,,0,34,34,34,,,,,,,,,,,,,,,,,main,k,k,1,0.6139711999567226,390.61972209997475,None,None,0,,,,,,,,,,,,,,102,2023-04-21_17h26.35.281,Main,2022.1.1,60.02548683409395,
negative,yellow,1,k,None,,,,,,,,,0,35,35,35,,,,,,,,,,,,,,,,,main,k,k,1,0.9659297000034712,392.23400569998194,None,None,0,,,,,,,,,,,,,,102,2023-04-21_17h26.35.281,Main,2022.1.1,60.02548683409395,
positive,yellow,2,None,k,,,,,,,,,0,36,36,36,,,,,,,,,,,,,,,,,main,None,None,1,1.5015098999720067,394.2005441999645,None,None,1,,,,,,,,,,,,,,102,2023-04-21_17h26.35.281,Main,2022.1.1,60.02548683409395,
positive,yellow,2,None,k,,,,,,,,,0,37,37,37,,,,,,,,,,,,,,,,,main,None,None,1,1.4959316999884322,396.70311740000034,None,None,1,,,,,,,,,,,,,,102,2023-04-21_17h26.35.281,Main,2022.1.1,60.02548683409395,
negative,yellow,2,k,None,,,,,,,,,0,38,38,38,,,,,,,,,,,,,,,,,main,k,k,1,0.7327638999558985,399.20033989998046,None,None,0,,,,,,,,,,,,,,102,2023-04-21_17h26.35.281,Main,2022.1.1,60.02548683409395,
positive,yellow,1,None,k,,,,,,,,,0,39,39,39,,,,,,,,,,,,,,,,,main,None,None,1,1.501734799996484,400.93363970000064,None,None,1,,,,,,,,,,,,,,102,2023-04-21_17h26.35.281,Main,2022.1.1,60.02548683409395,
negative,yellow,2,k,None,,,,,,,,,0,40,40,40,,,,,,,,,,,,,,,,,main,k,k,1,0.8825361999915913,403.43623110000044,None,None,0,,,,,,,,,,,,,,102,2023-04-21_17h26.35.281,Main,2022.1.1,60.02548683409395,
positive,blue,2,k,None,,,,,,,,,0,41,41,41,,,,,,,,,,,,,,,,,main,k,k,1,0.7992926000151783,405.319572999957,None,None,0,,,,,,,,,,,,,,102,2023-04-21_17h26.35.281,Main,2022.1.1,60.02548683409395,
positive,blue,2,k,None,,,,,,,,,0,42,42,42,,,,,,,,,,,,,,,,,main,k,k,1,0.6325484000262804,407.11944969999604,None,None,0,,,,,,,,,,,,,,102,2023-04-21_17h26.35.281,Main,2022.1.1,60.02548683409395,
negative,blue,2,None,k,,,,,,,,,0,43,43,43,,,,,,,,,,,,,,,,,main,None,None,1,1.4963274000328965,408.7527551999665,None,None,1,,,,,,,,,,,,,,102,2023-04-21_17h26.35.281,Main,2022.1.1,60.02548683409395,
negative,red,1,None,None,,,,,,,,,0,44,44,44,,,,,,,,,,,,,,,,,main,None,None,1,1.5016402999754064,411.2501251999638,None,None,1,,,,,,,,,,,,,,102,2023-04-21_17h26.35.281,Main,2022.1.1,60.02548683409395,
negative,yellow,1,k,None,,,,,,,,,0,45,45,45,,,,,,,,,,,,,,,,,main,k,k,1,0.982680800021626,413.75274909997825,None,None,0,,,,,,,,,,,,,,102,2023-04-21_17h26.35.281,Main,2022.1.1,60.02548683409395,
negative,yellow,1,k,None,,,,,,,,,0,46,46,46,,,,,,,,,,,,,,,,,main,k,k,1,0.646152000001166,415.73594250000315,None,None,0,,,,,,,,,,,,,,102,2023-04-21_17h26.35.281,Main,2022.1.1,60.02548683409395,
positive,red,1,None,None,,,,,,,,,0,47,47,47,,,,,,,,,,,,,,,,,main,None,None,1,1.5019656000076793,417.3832933999947,None,None,1,,,,,,,,,,,,,,102,2023-04-21_17h26.35.281,Main,2022.1.1,60.02548683409395,
positive,yellow,1,None,k,,,,,,,,,0,48,48,48,,,,,,,,,,,,,,,,,main,None,None,1,1.4986561000114307,419.8859812999726,None,None,1,,,,,,,,,,,,,,102,2023-04-21_17h26.35.281,Main,2022.1.1,60.02548683409395,
negative,blue,1,None,k,,,,,,,,,0,49,49,49,,,,,,,,,,,,,,,,,main,None,k,0,1.3328733999514952,422.3857960999594,None,None,1,,,,,,,,,,,,,,102,2023-04-21_17h26.35.281,Main,2022.1.1,60.02548683409395,
positive,yellow,2,None,k,,,,,,,,,0,50,50,50,,,,,,,,,,,,,,,,,main,None,None,1,1.4872905999654904,425.7331094999681,None,None,1,,,,,,,,,,,,,,102,2023-04-21_17h26.35.281,Main,2022.1.1,60.02548683409395,
negative,blue,1,None,k,,,,,,,,,0,51,51,51,,,,,,,,,,,,,,,,,main,None,None,1,1.4986586999730207,428.2191199999652,None,None,1,,,,,,,,,,,,,,102,2023-04-21_17h26.35.281,Main,2022.1.1,60.02548683409395,
positive,red,2,None,None,,,,,,,,,0,52,52,52,,,,,,,,,,,,,,,,,main,None,None,1,1.4965217999997549,430.7189752999693,None,None,1,,,,,,,,,,,,,,102,2023-04-21_17h26.35.281,Main,2022.1.1,60.02548683409395,
positive,yellow,2,None,k,,,,,,,,,0,53,53,53,,,,,,,,,,,,,,,,,main,None,None,1,1.501714899961371,433.21634839999024,None,None,1,,,,,,,,,,,,,,102,2023-04-21_17h26.35.281,Main,2022.1.1,60.02548683409395,
negative,red,2,None,None,,,,,,,,,0,54,54,54,,,,,,,,,,,,,,,,,main,None,None,1,1.4969351000036113,435.7189340000041,None,None,1,,,,,,,,,,,,,,102,2023-04-21_17h26.35.281,Main,2022.1.1,60.02548683409395,
positive,yellow,1,None,k,,,,,,,,,0,55,55,55,,,,,,,,,,,,,,,,,main,None,None,1,1.501326900033746,438.2164335999987,None,None,1,,,,,,,,,,,,,,102,2023-04-21_17h26.35.281,Main,2022.1.1,60.02548683409395,
negative,blue,2,None,k,,,,,,,,,0,56,56,56,,,,,,,,,,,,,,,,,main,None,None,1,1.5021362000261433,440.71878659998765,None,None,1,,,,,,,,,,,,,,102,2023-04-21_17h26.35.281,Main,2022.1.1,60.02548683409395,
positive,blue,1,k,None,,,,,,,,,0,57,57,57,,,,,,,,,,,,,,,,,main,k,k,1,0.6608190999832004,443.2193260999629,None,None,0,,,,,,,,,,,,,,102,2023-04-21_17h26.35.281,Main,2022.1.1,60.02548683409395,
positive,blue,1,k,None,,,,,,,,,0,58,58,58,,,,,,,,,,,,,,,,,main,k,k,1,0.718237399996724,444.8827342999866,None,None,0,,,,,,,,,,,,,,102,2023-04-21_17h26.35.281,Main,2022.1.1,60.02548683409395,
negative,yellow,2,k,None,,,,,,,,,0,59,59,59,,,,,,,,,,,,,,,,,main,k,k,1,0.9826719000120647,446.6019825999974,None,None,0,,,,,,,,,,,,,,102,2023-04-21_17h26.35.281,Main,2022.1.1,60.02548683409395,
positive,red,2,None,None,,,,,,,,,0,60,60,60,,,,,,,,,,,,,,,,,main,None,None,1,1.4963032999658026,448.5852926999796,None,None,1,,,,,,,,,,,,,,102,2023-04-21_17h26.35.281,Main,2022.1.1,60.02548683409395,
negative,yellow,1,k,None,,,,,,,,,0,61,61,61,,,,,,,,,,,,,,,,,main,k,k,1,1.518605799996294,451.0826459999662,None,None,0,,,,,,,,,,,,,,102,2023-04-21_17h26.35.281,Main,2022.1.1,60.02548683409395,
negative,red,1,None,None,,,,,,,,,0,62,62,62,,,,,,,,,,,,,,,,,main,None,None,1,1.4984772999887355,454.6017963999766,None,None,1,,,,,,,,,,,,,,102,2023-04-21_17h26.35.281,Main,2022.1.1,60.02548683409395,
negative,blue,1,None,k,,,,,,,,,0,63,63,63,,,,,,,,,,,,,,,,,main,None,None,1,1.501240899960976,457.09912959998474,None,None,1,,,,,,,,,,,,,,102,2023-04-21_17h26.35.281,Main,2022.1.1,60.02548683409395,
positive,blue,2,k,None,,,,,,,,,0,64,64,64,,,,,,,,,,,,,,,,,main,k,k,1,0.5849589999997988,459.6017332999618,None,None,0,,,,,,,,,,,,,,102,2023-04-21_17h26.35.281,Main,2022.1.1,60.02548683409395,
negative,yellow,2,k,None,,,,,,,,,0,65,65,65,,,,,,,,,,,,,,,,,main,k,k,1,0.9945351000060327,461.1894726000028,None,None,0,,,,,,,,,,,,,,102,2023-04-21_17h26.35.281,Main,2022.1.1,60.02548683409395,
positive,yellow,2,None,k,,,,,,,,,0,66,66,66,,,,,,,,,,,,,,,,,main,None,None,1,1.5016050999984145,463.1823818999692,None,None,1,,,,,,,,,,,,,,102,2023-04-21_17h26.35.281,Main,2022.1.1,60.02548683409395,
positive,yellow,2,None,k,,,,,,,,,0,67,67,67,,,,,,,,,,,,,,,,,main,None,None,1,1.499439999985043,465.68488979997346,None,None,1,,,,,,,,,,,,,,102,2023-04-21_17h26.35.281,Main,2022.1.1,60.02548683409395,
positive,red,1,None,None,,,,,,,,,0,68,68,68,,,,,,,,,,,,,,,,,main,None,None,1,1.4959231999819167,468.18480270000873,None,None,1,,,,,,,,,,,,,,102,2023-04-21_17h26.35.281,Main,2022.1.1,60.02548683409395,
positive,yellow,1,None,k,,,,,,,,,0,69,69,69,,,,,,,,,,,,,,,,,main,None,None,1,1.5019286999595352,470.68219929997576,None,None,1,,,,,,,,,,,,,,102,2023-04-21_17h26.35.281,Main,2022.1.1,60.02548683409395,
negative,yellow,2,k,None,,,,,,,,,0,70,70,70,,,,,,,,,,,,,,,,,main,k,k,1,1.1825864000129513,473.18476879998343,None,None,0,,,,,,,,,,,,,,102,2023-04-21_17h26.35.281,Main,2022.1.1,60.02548683409395,
positive,yellow,1,None,k,,,,,,,,,0,71,71,71,,,,,,,,,,,,,,,,,main,None,None,1,1.4987250000122003,475.36809209996136,None,None,1,,,,,,,,,,,,,,102,2023-04-21_17h26.35.281,Main,2022.1.1,60.02548683409395,
negative,blue,1,None,k,,,,,,,,,0,72,72,72,,,,,,,,,,,,,,,,,main,None,None,1,1.4963419000268914,477.86792759998934,None,None,1,,,,,,,,,,,,,,102,2023-04-21_17h26.35.281,Main,2022.1.1,60.02548683409395,
negative,red,2,None,None,,,,,,,,,0,73,73,73,,,,,,,,,,,,,,,,,main,None,None,1,1.5018247999832965,480.365289999987,None,None,1,,,,,,,,,,,,,,102,2023-04-21_17h26.35.281,Main,2022.1.1,60.02548683409395,
positive,blue,2,k,None,,,,,,,,,0,74,74,74,,,,,,,,,,,,,,,,,main,k,k,1,1.1663173999986611,482.86793770000804,None,None,0,,,,,,,,,,,,,,102,2023-04-21_17h26.35.281,Main,2022.1.1,60.02548683409395,
negative,blue,2,None,k,,,,,,,,,0,75,75,75,,,,,,,,,,,,,,,,,main,None,None,1,1.4962201999733225,485.0345046999864,None,None,1,,,,,,,,,,,,,,102,2023-04-21_17h26.35.281,Main,2022.1.1,60.02548683409395,
negative,blue,2,None,k,,,,,,,,,0,76,76,76,,,,,,,,,,,,,,,,,main,None,None,1,1.5016520000062883,487.531880799972,None,None,1,,,,,,,,,,,,,,102,2023-04-21_17h26.35.281,Main,2022.1.1,60.02548683409395,
negative,yellow,1,k,None,,,,,,,,,0,77,77,77,,,,,,,,,,,,,,,,,main,k,k,1,1.0657704999903217,490.0343750999891,None,None,0,,,,,,,,,,,,,,102,2023-04-21_17h26.35.281,Main,2022.1.1,60.02548683409395,
positive,blue,1,k,None,,,,,,,,,0,78,78,78,,,,,,,,,,,,,,,,,main,k,k,1,0.8657365000108257,492.1008970999974,None,None,0,,,,,,,,,,,,,,102,2023-04-21_17h26.35.281,Main,2022.1.1,60.02548683409395,
positive,blue,1,k,None,,,,,,,,,0,79,79,79,,,,,,,,,,,,,,,,,main,k,k,1,0.699312100012321,493.9676210999605,None,None,0,,,,,,,,,,,,,,102,2023-04-21_17h26.35.281,Main,2022.1.1,60.02548683409395,
positive,red,2,None,None,,,,,,,,,0,80,80,80,,,,,,,,,,,,,,,,,main,None,None,1,1.4982619000365958,495.6652402000036,None,None,1,,,,,,,,,,,,,,102,2023-04-21_17h26.35.281,Main,2022.1.1,60.02548683409395,
positive,yellow,2,None,k,,,,,,,,,0,81,81,81,,,,,,,,,,,,,,,,,main,None,None,1,1.4996830999734811,498.1651881999569,None,None,1,,,,,,,,,,,,,,102,2023-04-21_17h26.35.281,Main,2022.1.1,60.02548683409395,
positive,blue,1,k,None,,,,,,,,,0,82,82,82,,,,,,,,,,,,,,,,,main,k,k,1,0.9296099000493996,500.667449200002,None,None,0,,,,,,,,,,,,,,102,2023-04-21_17h26.35.281,Main,2022.1.1,60.02548683409395,
negative,yellow,2,k,None,,,,,,,,,0,83,83,83,,,,,,,,,,,,,,,,,main,k,k,1,0.8823230999987572,502.5988706999924,None,None,0,,,,,,,,,,,,,,102,2023-04-21_17h26.35.281,Main,2022.1.1,60.02548683409395,
positive,blue,2,k,None,,,,,,,,,0,84,84,84,,,,,,,,,,,,,,,,,main,k,k,1,0.7351150999893434,504.481508900004,None,None,0,,,,,,,,,,,,,,102,2023-04-21_17h26.35.281,Main,2022.1.1,60.02548683409395,
positive,yellow,1,None,k,,,,,,,,,0,85,85,85,,,,,,,,,,,,,,,,,main,None,None,1,1.4961433000280522,506.21739599999273,None,None,1,,,,,,,,,,,,,,102,2023-04-21_17h26.35.281,Main,2022.1.1,60.02548683409395,
positive,blue,2,k,None,,,,,,,,,0,86,86,86,,,,,,,,,,,,,,,,,main,k,k,1,1.8687036999617703,508.71469120000256,None,None,0,,,,,,,,,,,,,,102,2023-04-21_17h26.35.281,Main,2022.1.1,60.02548683409395,
positive,blue,1,k,None,,,,,,,,,0,87,87,87,,,,,,,,,,,,,,,,,main,k,k,1,0.7380076000117697,512.5839185999939,None,None,0,,,,,,,,,,,,,,102,2023-04-21_17h26.35.281,Main,2022.1.1,60.02548683409395,
negative,yellow,2,k,None,,,,,,,,,0,88,88,88,,,,,,,,,,,,,,,,,main,k,k,1,0.8262258000322618,514.3244883999578,None,None,0,,,,,,,,,,,,,,102,2023-04-21_17h26.35.281,Main,2022.1.1,60.02548683409395,
negative,blue,2,None,k,,,,,,,,,0,89,89,89,,,,,,,,,,,,,,,,,main,None,None,1,1.5017701999749988,516.1478759999736,None,None,1,,,,,,,,,,,,,,102,2023-04-21_17h26.35.281,Main,2022.1.1,60.02548683409395,
positive,yellow,2,None,k,,,,,,,,,0,90,90,90,,,,,,,,,,,,,,,,,main,None,None,1,1.4960728999576531,518.6504941000021,None,None,1,,,,,,,,,,,,,,102,2023-04-21_17h26.35.281,Main,2022.1.1,60.02548683409395,
negative,yellow,1,k,None,,,,,,,,,0,91,91,91,,,,,,,,,,,,,,,,,main,k,k,1,0.8162099000182934,521.147756499995,None,None,0,,,,,,,,,,,,,,102,2023-04-21_17h26.35.281,Main,2022.1.1,60.02548683409395,
negative,red,2,None,None,,,,,,,,,0,92,92,92,,,,,,,,,,,,,,,,,main,None,None,1,1.5016659999964759,522.9644537999993,None,None,1,,,,,,,,,,,,,,102,2023-04-21_17h26.35.281,Main,2022.1.1,60.02548683409395,
negative,blue,2,None,k,,,,,,,,,0,93,93,93,,,,,,,,,,,,,,,,,main,None,None,1,1.4961885000229813,525.4670201999834,None,None,1,,,,,,,,,,,,,,102,2023-04-21_17h26.35.281,Main,2022.1.1,60.02548683409395,
negative,blue,1,None,k,,,,,,,,,0,94,94,94,,,,,,,,,,,,,,,,,main,None,None,1,1.5021194000146352,527.9642897999729,None,None,1,,,,,,,,,,,,,,102,2023-04-21_17h26.35.281,Main,2022.1.1,60.02548683409395,
negative,blue,1,None,k,,,,,,,,,0,95,95,95,,,,,,,,,,,,,,,,,main,None,None,1,1.4991343000438064,530.4669009000063,None,None,1,,,,,,,,,,,,,,102,2023-04-21_17h26.35.281,Main,2022.1.1,60.02548683409395,
negative,red,1,None,None,,,,,,,,,0,96,96,96,,,,,,,,,,,,,,,,,main,None,None,1,1.4961611999897286,532.9668009000015,None,None,1,,,,,,,,,,,,,,102,2023-04-21_17h26.35.281,Main,2022.1.1,60.02548683409395,
positive,yellow,1,None,k,,,,,,,,,0,97,97,97,,,,,,,,,,,,,,,,,main,None,None,1,1.501954800041858,535.4641220999765,None,None,1,,,,,,,,,,,,,,102,2023-04-21_17h26.35.281,Main,2022.1.1,60.02548683409395,
negative,yellow,1,k,None,,,,,,,,,0,98,98,98,,,,,,,,,,,,,,,,,main,k,k,1,0.8325429999968037,537.9667186999577,None,None,0,,,,,,,,,,,,,,102,2023-04-21_17h26.35.281,Main,2022.1.1,60.02548683409395,
positive,red,1,None,None,,,,,,,,,0,99,99,99,,,,,,,,,,,,,,,,,main,None,None,1,1.496306299988646,539.8000628000009,None,None,1,,,,,,,,,,,,,,102,2023-04-21_17h26.35.281,Main,2022.1.1,60.02548683409395,
positive,blue,1,k,None,,,,,,,,,0,100,100,100,,,,,,,,,,,,,,,,,main,k,k,1,0.7997174999909475,542.2972986999666,None,None,0,,,,,,,,,,,,,,102,2023-04-21_17h26.35.281,Main,2022.1.1,60.02548683409395,
negative,yellow,1,k,None,,,,,,,,,0,101,101,101,,,,,,,,,,,,,,,,,main,k,k,1,0.9514237999683246,544.0973376999609,None,None,0,,,,,,,,,,,,,,102,2023-04-21_17h26.35.281,Main,2022.1.1,60.02548683409395,
negative,blue,2,None,k,,,,,,,,,0,102,102,102,,,,,,,,,,,,,,,,,main,None,None,1,1.4963523999904282,546.049905199965,None,None,1,,,,,,,,,,,,,,102,2023-04-21_17h26.35.281,Main,2022.1.1,60.02548683409395,
negative,yellow,2,k,None,,,,,,,,,0,103,103,103,,,,,,,,,,,,,,,,,main,k,k,1,0.8853601000155322,548.5473525999696,None,None,0,,,,,,,,,,,,,,102,2023-04-21_17h26.35.281,Main,2022.1.1,60.02548683409395,
positive,yellow,2,None,k,,,,,,,,,0,104,104,104,,,,,,,,,,,,,,,,,main,None,None,1,1.4991462000180036,550.4331400999799,None,None,1,,,,,,,,,,,,,,102,2023-04-21_17h26.35.281,Main,2022.1.1,60.02548683409395,
positive,blue,1,k,None,,,,,,,,,0,105,105,105,,,,,,,,,,,,,,,,,main,k,k,1,1.1798147999797948,552.9331130000064,None,None,0,,,,,,,,,,,,,,102,2023-04-21_17h26.35.281,Main,2022.1.1,60.02548683409395,
positive,blue,2,k,None,,,,,,,,,0,106,106,106,,,,,,,,,,,,,,,,,main,k,k,1,1.3521265999879688,555.1137221999816,None,None,0,,,,,,,,,,,,,,102,2023-04-21_17h26.35.281,Main,2022.1.1,60.02548683409395,
negative,blue,1,None,k,,,,,,,,,0,107,107,107,,,,,,,,,,,,,,,,,main,None,None,1,1.4959784999955446,557.4663508000085,None,None,1,,,,,,,,,,,,,,102,2023-04-21_17h26.35.281,Main,2022.1.1,60.02548683409395,
positive,yellow,2,None,k,,,,,,,,,0,108,108,108,,,,,,,,,,,,,,,,,main,None,None,1,1.5019432999542914,559.9636066000094,None,None,1,,,,,,,,,,,,,,102,2023-04-21_17h26.35.281,Main,2022.1.1,60.02548683409395,
negative,yellow,1,k,None,,,,,,,,,0,109,109,109,,,,,,,,,,,,,,,,,main,k,k,1,1.4304270000429824,562.4661890999996,None,None,0,,,,,,,,,,,,,,102,2023-04-21_17h26.35.281,Main,2022.1.1,60.02548683409395,
negative,blue,2,None,k,,,,,,,,,0,110,110,110,,,,,,,,,,,,,,,,,main,None,k,0,-0.7007891000248492,564.8972581999842,None,None,1,,,,,,,,,,,,,,102,2023-04-21_17h26.35.281,Main,2022.1.1,60.02548683409395,
positive,blue,2,k,None,,,,,,,,,0,111,111,111,,,,,,,,,,,,,,,,,main,k,k,1,0.7538318000151776,568.2134902999969,None,None,0,,,,,,,,,,,,,,102,2023-04-21_17h26.35.281,Main,2022.1.1,60.02548683409395,
negative,blue,1,None,k,,,,,,,,,0,112,112,112,,,,,,,,,,,,,,,,,main,None,None,1,1.4986416999599896,569.9660888999933,None,None,1,,,,,,,,,,,,,,102,2023-04-21_17h26.35.281,Main,2022.1.1,60.02548683409395,
positive,yellow,1,None,k,,,,,,,,,0,113,113,113,,,,,,,,,,,,,,,,,main,None,None,1,1.4959999999846332,572.4658332999679,None,None,1,,,,,,,,,,,,,,102,2023-04-21_17h26.35.281,Main,2022.1.1,60.02548683409395,
negative,red,1,None,None,,,,,,,,,0,114,114,114,,,,,,,,,,,,,,,,,main,None,None,1,1.5018124000052921,574.9632831999916,None,None,1,,,,,,,,,,,,,,102,2023-04-21_17h26.35.281,Main,2022.1.1,60.02548683409395,
positive,red,1,None,None,,,,,,,,,0,115,115,115,,,,,,,,,,,,,,,,,main,None,None,1,1.4992744000046514,577.4658420999767,None,None,1,,,,,,,,,,,,,,102,2023-04-21_17h26.35.281,Main,2022.1.1,60.02548683409395,
negative,red,2,None,None,,,,,,,,,0,116,116,116,,,,,,,,,,,,,,,,,main,None,None,1,1.496786699979566,579.9658551999601,None,None,1,,,,,,,,,,,,,,102,2023-04-21_17h26.35.281,Main,2022.1.1,60.02548683409395,
negative,yellow,2,k,None,,,,,,,,,0,117,117,117,,,,,,,,,,,,,,,,,main,k,k,1,1.0517645999789238,582.4631255000131,None,None,0,,,,,,,,,,,,,,102,2023-04-21_17h26.35.281,Main,2022.1.1,60.02548683409395,
positive,yellow,1,None,k,,,,,,,,,0,118,118,118,,,,,,,,,,,,,,,,,main,None,None,1,1.4990116999833845,584.5158146999893,None,None,1,,,,,,,,,,,,,,102,2023-04-21_17h26.35.281,Main,2022.1.1,60.02548683409395,
positive,red,2,None,None,,,,,,,,,0,119,119,119,,,,,,,,,,,,,,,,,main,None,None,1,1.4965911000035703,587.0156246999977,None,None,1,,,,,,,,,,,,,,102,2023-04-21_17h26.35.281,Main,2022.1.1,60.02548683409395,
positive,blue,2,k,None,,,,,,,,,0,120,120,120,,,,,,,,,,,,,,,,,main,k,k,1,0.8349142999504693,589.5132117999601,None,None,0,,,,,,,,,,,,,,102,2023-04-21_17h26.35.281,Main,2022.1.1,60.02548683409395,
negative,red,1,None,None,,,,,,,,,0,121,121,121,,,,,,,,,,,,,,,,,main,None,None,1,1.4989102000254206,591.3488114000065,None,None,1,,,,,,,,,,,,,,102,2023-04-21_17h26.35.281,Main,2022.1.1,60.02548683409395,
positive,yellow,2,None,k,,,,,,,,,0,122,122,122,,,,,,,,,,,,,,,,,main,None,None,1,1.4966707000276074,593.84878629999,None,None,1,,,,,,,,,,,,,,102,2023-04-21_17h26.35.281,Main,2022.1.1,60.02548683409395,
negative,red,2,None,None,,,,,,,,,0,123,123,123,,,,,,,,,,,,,,,,,main,None,None,1,1.5020534999785013,596.3461654999992,None,None,1,,,,,,,,,,,,,,102,2023-04-21_17h26.35.281,Main,2022.1.1,60.02548683409395,
negative,yellow,2,k,None,,,,,,,,,0,124,124,124,,,,,,,,,,,,,,,,,main,k,k,1,0.932456300011836,598.8488622999866,None,None,0,,,,,,,,,,,,,,102,2023-04-21_17h26.35.281,Main,2022.1.1,60.02548683409395,
positive,red,1,None,None,,,,,,,,,0,125,125,125,,,,,,,,,,,,,,,,,main,None,None,1,1.4964678999967873,600.7821062000003,None,None,1,,,,,,,,,,,,,,102,2023-04-21_17h26.35.281,Main,2022.1.1,60.02548683409395,
negative,blue,2,None,k,,,,,,,,,0,126,126,126,,,,,,,,,,,,,,,,,main,None,None,1,1.5018595000146888,603.2793515999801,None,None,1,,,,,,,,,,,,,,102,2023-04-21_17h26.35.281,Main,2022.1.1,60.02548683409395,
negative,blue,1,None,k,,,,,,,,,0,127,127,127,,,,,,,,,,,,,,,,,main,None,None,1,1.4990681000053883,605.7820776999579,None,None,1,,,,,,,,,,,,,,102,2023-04-21_17h26.35.281,Main,2022.1.1,60.02548683409395,
negative,yellow,1,k,None,,,,,,,,,0,128,128,128,,,,,,,,,,,,,,,,,main,k,k,1,1.0323941000388004,608.2819929000107,None,None,0,,,,,,,,,,,,,,102,2023-04-21_17h26.35.281,Main,2022.1.1,60.02548683409395,
negative,yellow,1,k,None,,,,,,,,,0,129,129,129,,,,,,,,,,,,,,,,,main,k,k,1,0.6823306999867782,610.3150538000045,None,None,0,,,,,,,,,,,,,,102,2023-04-21_17h26.35.281,Main,2022.1.1,60.02548683409395,
positive,blue,1,k,None,,,,,,,,,0,130,130,130,,,,,,,,,,,,,,,,,main,k,k,1,1.1804361999966204,611.9983825999661,None,None,0,,,,,,,,,,,,,,102,2023-04-21_17h26.35.281,Main,2022.1.1,60.02548683409395,
negative,blue,1,None,k,,,,,,,,,0,131,131,131,,,,,,,,,,,,,,,,,main,None,None,1,1.5008306999807246,614.1791482999688,None,None,1,,,,,,,,,,,,,,102,2023-04-21_17h26.35.281,Main,2022.1.1,60.02548683409395,
negative,blue,2,None,k,,,,,,,,,0,132,132,132,,,,,,,,,,,,,,,,,main,None,None,1,1.4993994000251405,616.6817877999856,None,None,1,,,,,,,,,,,,,,102,2023-04-21_17h26.35.281,Main,2022.1.1,60.02548683409395,
positive,blue,2,k,None,,,,,,,,,0,133,133,133,,,,,,,,,,,,,,,,,main,k,k,1,1.046403200016357,619.181785099965,None,None,0,,,,,,,,,,,,,,102,2023-04-21_17h26.35.281,Main,2022.1.1,60.02548683409395,
positive,red,2,None,None,,,,,,,,,0,134,134,134,,,,,,,,,,,,,,,,,main,None,None,1,1.5014640999725088,621.228982599976,None,None,1,,,,,,,,,,,,,,102,2023-04-21_17h26.35.281,Main,2022.1.1,60.02548683409395,
negative,yellow,2,k,None,,,,,,,,,0,135,135,135,,,,,,,,,,,,,,,,,main,k,k,1,1.132729599950835,623.7316546000075,None,None,0,,,,,,,,,,,,,,102,2023-04-21_17h26.35.281,Main,2022.1.1,60.02548683409395,
positive,yellow,2,None,k,,,,,,,,,0,136,136,136,,,,,,,,,,,,,,,,,main,None,None,1,1.4984811000176705,625.8649834999815,None,None,1,,,,,,,,,,,,,,102,2023-04-21_17h26.35.281,Main,2022.1.1,60.02548683409395,
positive,blue,1,k,None,,,,,,,,,0,137,137,137,,,,,,,,,,,,,,,,,main,k,k,1,0.7993829000042751,628.36474369996,None,None,0,,,,,,,,,,,,,,102,2023-04-21_17h26.35.281,Main,2022.1.1,60.02548683409395,
positive,yellow,1,None,k,,,,,,,,,0,138,138,138,,,,,,,,,,,,,,,,,main,None,None,1,1.4963165000081062,630.16468539997,None,None,1,,,,,,,,,,,,,,102,2023-04-21_17h26.35.281,Main,2022.1.1,60.02548683409395,
positive,yellow,1,None,k,,,,,,,,,0,139,139,139,,,,,,,,,,,,,,,,,main,None,None,1,1.5017927999724634,632.6621370000066,None,None,1,,,,,,,,,,,,,,102,2023-04-21_17h26.35.281,Main,2022.1.1,60.02548683409395,
positive,yellow,1,None,k,,,,,,,,,0,140,140,140,,,,,,,,,,,,,,,,,main,None,None,1,1.4988347999751568,635.1647588000051,None,None,1,,,,,,,,,,,,,,102,2023-04-21_17h26.35.281,Main,2022.1.1,60.02548683409395,
positive,blue,1,k,None,,,,,,,,,0,141,141,141,,,,,,,,,,,,,,,,,main,k,k,1,0.8971835999982432,637.6646126999985,None,None,0,,,,,,,,,,,,,,102,2023-04-21_17h26.35.281,Main,2022.1.1,60.02548683409395,
positive,blue,2,k,None,,,,,,,,,0,142,142,142,,,,,,,,,,,,,,,,,main,k,k,1,0.6986724000307731,639.5645244999905,None,None,0,,,,,,,,,,,,,,102,2023-04-21_17h26.35.281,Main,2022.1.1,60.02548683409395,
positive,yellow,2,None,k,,,,,,,,,0,143,143,143,,,,,,,,,,,,,,,,,main,None,None,1,1.4985392999951728,641.2619080999866,None,None,1,,,,,,,,,,,,,,102,2023-04-21_17h26.35.281,Main,2022.1.1,60.02548683409395,
negative,yellow,2,k,None,,,,,,,,,0,144,144,144,,,,,,,,,,,,,,,,,main,k,k,1,0.7021288999821991,643.7618824999663,None,None,0,,,,,,,,,,,,,,102,2023-04-21_17h26.35.281,Main,2022.1.1,60.02548683409395,
negative,blue,2,None,k,,,,,,,,,0,145,145,145,,,,,,,,,,,,,,,,,main,None,None,1,1.4991062000044622,645.4645522999926,None,None,1,,,,,,,,,,,,,,102,2023-04-21_17h26.35.281,Main,2022.1.1,60.02548683409395,
negative,red,1,None,None,,,,,,,,,0,146,146,146,,,,,,,,,,,,,,,,,main,None,None,1,1.4961590999737382,647.9643787000095,None,None,1,,,,,,,,,,,,,,102,2023-04-21_17h26.35.281,Main,2022.1.1,60.02548683409395,
positive,blue,1,k,None,,,,,,,,,0,147,147,147,,,,,,,,,,,,,,,,,main,k,k,1,0.7018373999744654,650.4617476999993,None,None,0,,,,,,,,,,,,,,102,2023-04-21_17h26.35.281,Main,2022.1.1,60.02548683409395,
positive,yellow,1,None,k,,,,,,,,,0,148,148,148,,,,,,,,,,,,,,,,,main,None,None,1,1.49878250004258,652.1642502999748,None,None,1,,,,,,,,,,,,,,102,2023-04-21_17h26.35.281,Main,2022.1.1,60.02548683409395,
negative,red,2,None,None,,,,,,,,,0,149,149,149,,,,,,,,,,,,,,,,,main,None,None,1,1.496295100019779,654.6641752999858,None,None,1,,,,,,,,,,,,,,102,2023-04-21_17h26.35.281,Main,2022.1.1,60.02548683409395,
negative,blue,1,None,k,,,,,,,,,0,150,150,150,,,,,,,,,,,,,,,,,main,None,None,1,1.5021942000021227,657.1615370999789,None,None,1,,,,,,,,,,,,,,102,2023-04-21_17h26.35.281,Main,2022.1.1,60.02548683409395,
negative,yellow,2,k,None,,,,,,,,,0,151,151,151,,,,,,,,,,,,,,,,,main,k,k,1,0.7824802999966778,659.6641713000135,None,None,0,,,,,,,,,,,,,,102,2023-04-21_17h26.35.281,Main,2022.1.1,60.02548683409395,
negative,blue,2,None,k,,,,,,,,,0,152,152,152,,,,,,,,,,,,,,,,,main,None,None,1,1.496402999968268,661.4475160999573,None,None,1,,,,,,,,,,,,,,102,2023-04-21_17h26.35.281,Main,2022.1.1,60.02548683409395,
negative,yellow,1,k,None,,,,,,,,,0,153,153,153,,,,,,,,,,,,,,,,,main,k,k,1,1.1185529999784194,663.9447467999998,None,None,0,,,,,,,,,,,,,,102,2023-04-21_17h26.35.281,Main,2022.1.1,60.02548683409395,
negative,blue,1,None,k,,,,,,,,,0,154,154,154,,,,,,,,,,,,,,,,,main,None,None,1,1.498789899982512,666.0640613999567,None,None,1,,,,,,,,,,,,,,102,2023-04-21_17h26.35.281,Main,2022.1.1,60.02548683409395,
positive,yellow,2,None,k,,,,,,,,,0,155,155,155,,,,,,,,,,,,,,,,,main,None,None,1,1.496935500006657,668.5639657999855,None,None,1,,,,,,,,,,,,,,102,2023-04-21_17h26.35.281,Main,2022.1.1,60.02548683409395,
positive,red,2,None,None,,,,,,,,,0,156,156,156,,,,,,,,,,,,,,,,,main,None,None,1,1.501223500003107,671.0612489999621,None,None,1,,,,,,,,,,,,,,102,2023-04-21_17h26.35.281,Main,2022.1.1,60.02548683409395,
positive,red,1,None,None,,,,,,,,,0,157,157,157,,,,,,,,,,,,,,,,,main,None,None,1,1.4987693000002764,673.5638516999898,None,None,1,,,,,,,,,,,,,,102,2023-04-21_17h26.35.281,Main,2022.1.1,60.02548683409395,
positive,blue,2,k,None,,,,,,,,,0,158,158,158,,,,,,,,,,,,,,,,,main,k,k,1,0.8138367999927141,676.0637378999963,None,None,0,,,,,,,,,,,,,,102,2023-04-21_17h26.35.281,Main,2022.1.1,60.02548683409395,
negative,yellow,1,k,None,,,,,,,,,0,159,159,159,,,,,,,,,,,,,,,,,main,k,k,1,1.0487104000058025,677.8809395999997,None,None,0,,,,,,,,,,,,,,102,2023-04-21_17h26.35.281,Main,2022.1.1,60.02548683409395,
negative,red,2,None,None,,,,,,,,,0,160,160,160,,,,,,,,,,,,,,,,,main,None,None,1,1.5016610999591649,679.9277340999688,None,None,1,,,,,,,,,,,,,,102,2023-04-21_17h26.35.281,Main,2022.1.1,60.02548683409395,
negative,blue,1,None,k,,,,,,,,,0,161,161,161,,,,,,,,,,,,,,,,,main,None,None,1,1.4962748000398278,682.4304190999828,None,None,1,,,,,,,,,,,,,,102,2023-04-21_17h26.35.281,Main,2022.1.1,60.02548683409395,
negative,blue,1,None,k,,,,,,,,,0,162,162,162,,,,,,,,,,,,,,,,,main,None,None,1,1.5019845999777317,684.9276210999815,None,None,1,,,,,,,,,,,,,,102,2023-04-21_17h26.35.281,Main,2022.1.1,60.02548683409395,
negative,yellow,1,k,None,,,,,,,,,0,163,163,163,,,,,,,,,,,,,,,,,main,k,k,1,1.0326405999949202,687.4309230999788,None,None,0,,,,,,,,,,,,,,102,2023-04-21_17h26.35.281,Main,2022.1.1,60.02548683409395,
negative,yellow,1,k,None,,,,,,,,,0,164,164,164,,,,,,,,,,,,,,,,,main,k,k,1,0.7470902999630198,689.4635991000105,None,None,0,,,,,,,,,,,,,,102,2023-04-21_17h26.35.281,Main,2022.1.1,60.02548683409395,
positive,yellow,1,None,k,,,,,,,,,0,165,165,165,,,,,,,,,,,,,,,,,main,None,None,1,1.4982421000022441,691.2134688000078,None,None,1,,,,,,,,,,,,,,102,2023-04-21_17h26.35.281,Main,2022.1.1,60.02548683409395,
negative,red,1,None,None,,,,,,,,,0,166,166,166,,,,,,,,,,,,,,,,,main,None,None,1,1.499215700023342,693.7107592999819,None,None,1,,,,,,,,,,,,,,102,2023-04-21_17h26.35.281,Main,2022.1.1,60.02548683409395,
negative,yellow,2,k,None,,,,,,,,,0,167,167,167,,,,,,,,,,,,,,,,,main,k,k,1,0.8022206000168808,696.2107721999637,None,None,0,,,,,,,,,,,,,,102,2023-04-21_17h26.35.281,Main,2022.1.1,60.02548683409395,
positive,blue,2,k,None,,,,,,,,,0,168,168,168,,,,,,,,,,,,,,,,,main,k,k,1,0.7851862999959849,698.0133797999588,None,None,0,,,,,,,,,,,,,,102,2023-04-21_17h26.35.281,Main,2022.1.1,60.02548683409395,
positive,red,2,None,None,,,,,,,,,0,169,169,169,,,,,,,,,,,,,,,,,main,None,None,1,1.4960852000513114,699.8034242999856,None,None,1,,,,,,,,,,,,,,102,2023-04-21_17h26.35.281,Main,2022.1.1,60.02548683409395,
positive,red,1,None,None,,,,,,,,,0,170,170,170,,,,,,,,,,,,,,,,,main,None,None,1,1.4961912999860942,702.2964256000123,None,None,1,,,,,,,,,,,,,,102,2023-04-21_17h26.35.281,Main,2022.1.1,60.02548683409395,
negative,blue,2,None,k,,,,,,,,,0,171,171,171,,,,,,,,,,,,,,,,,main,None,None,1,1.5020636999979615,704.7938641000073,None,None,1,,,,,,,,,,,,,,102,2023-04-21_17h26.35.281,Main,2022.1.1,60.02548683409395,
positive,blue,2,k,None,,,,,,,,,0,172,172,172,,,,,,,,,,,,,,,,,main,k,k,1,0.8660218000295572,707.2965339999646,None,None,0,,,,,,,,,,,,,,102,2023-04-21_17h26.35.281,Main,2022.1.1,60.02548683409395,
negative,yellow,2,k,None,,,,,,,,,0,173,173,173,,,,,,,,,,,,,,,,,main,k,k,1,0.9298000000417233,709.1631427999819,None,None,0,,,,,,,,,,,,,,102,2023-04-21_17h26.35.281,Main,2022.1.1,60.02548683409395,
positive,yellow,2,None,k,,,,,,,,,0,174,174,174,,,,,,,,,,,,,,,,,main,None,None,1,1.4992044999962673,711.0937140999595,None,None,1,,,,,,,,,,,,,,102,2023-04-21_17h26.35.281,Main,2022.1.1,60.02548683409395,
negative,blue,2,None,k,,,,,,,,,0,175,175,175,,,,,,,,,,,,,,,,,main,None,None,1,1.5014112999779172,713.5937450999627,None,None,1,,,,,,,,,,,,,,102,2023-04-21_17h26.35.281,Main,2022.1.1,60.02548683409395,
positive,blue,1,k,None,,,,,,,,,0,176,176,176,,,,,,,,,,,,,,,,,main,k,k,1,0.830218099988997,716.0962423000019,None,None,0,,,,,,,,,,,,,,102,2023-04-21_17h26.35.281,Main,2022.1.1,60.02548683409395,
positive,yellow,1,None,k,,,,,,,,,0,177,177,177,,,,,,,,,,,,,,,,,main,None,None,1,1.5018742000102066,717.9269219000125,None,None,1,,,,,,,,,,,,,,102,2023-04-21_17h26.35.281,Main,2022.1.1,60.02548683409395,
positive,blue,1,k,None,,,,,,,,,0,178,178,178,,,,,,,,,,,,,,,,,main,k,k,1,1.3991079999832436,720.4295052000089,None,None,0,,,,,,,,,,,,,,102,2023-04-21_17h26.35.281,Main,2022.1.1,60.02548683409395,
positive,yellow,2,None,k,,,,,,,,,0,179,179,179,,,,,,,,,,,,,,,,,main,None,None,1,1.4961703000008129,722.8295487999567,None,None,1,,,,,,,,,,,,,,102,2023-04-21_17h26.35.281,Main,2022.1.1,60.02548683409395,
positive,blue,1,k,None,,,,,,,,,0,180,180,180,,,,,,,,,,,,,,,,,main,k,k,1,1.352234399993904,725.3267486999976,None,None,0,,,,,,,,,,,,,,102,2023-04-21_17h26.35.281,Main,2022.1.1,60.02548683409395,
negative,red,1,None,None,,,,,,,,,0,181,181,181,,,,,,,,,,,,,,,,,main,None,None,1,1.4964455000008456,727.679454099969,None,None,1,,,,,,,,,,,,,,102,2023-04-21_17h26.35.281,Main,2022.1.1,60.02548683409395,
negative,blue,1,None,k,,,,,,,,,0,182,182,182,,,,,,,,,,,,,,,,,main,None,None,1,1.5013396000140347,730.1772042000084,None,None,1,,,,,,,,,,,,,,102,2023-04-21_17h26.35.281,Main,2022.1.1,60.02548683409395,
negative,yellow,2,k,None,,,,,,,,,0,183,183,183,,,,,,,,,,,,,,,,,main,k,k,1,1.182961200014688,732.6793342999881,None,None,0,,,,,,,,,,,,,,102,2023-04-21_17h26.35.281,Main,2022.1.1,60.02548683409395,
positive,yellow,2,None,k,,,,,,,,,0,184,184,184,,,,,,,,,,,,,,,,,main,None,None,1,1.4963822000427172,734.862521699979,None,None,1,,,,,,,,,,,,,,102,2023-04-21_17h26.35.281,Main,2022.1.1,60.02548683409395,
positive,yellow,1,None,k,,,,,,,,,0,185,185,185,,,,,,,,,,,,,,,,,main,None,None,1,1.5016130000003614,737.3600960999611,None,None,1,,,,,,,,,,,,,,102,2023-04-21_17h26.35.281,Main,2022.1.1,60.02548683409395,
positive,red,2,None,None,,,,,,,,,0,186,186,186,,,,,,,,,,,,,,,,,main,None,None,1,1.4965125999879092,739.8624717000057,None,None,1,,,,,,,,,,,,,,102,2023-04-21_17h26.35.281,Main,2022.1.1,60.02548683409395,
positive,blue,1,k,None,,,,,,,,,0,187,187,187,,,,,,,,,,,,,,,,,main,k,k,1,0.766351800004486,742.3597170999856,None,None,0,,,,,,,,,,,,,,102,2023-04-21_17h26.35.281,Main,2022.1.1,60.02548683409395,
negative,yellow,1,k,None,,,,,,,,,0,188,188,188,,,,,,,,,,,,,,,,,main,k,k,1,1.1028824000386521,744.1264252999681,None,None,0,,,,,,,,,,,,,,102,2023-04-21_17h26.35.281,Main,2022.1.1,60.02548683409395,
positive,yellow,2,None,k,,,,,,,,,0,189,189,189,,,,,,,,,,,,,,,,,main,None,None,1,1.5009887000196613,746.2289482000051,None,None,1,,,,,,,,,,,,,,102,2023-04-21_17h26.35.281,Main,2022.1.1,60.02548683409395,
negative,yellow,2,k,None,,,,,,,,,0,190,190,190,,,,,,,,,,,,,,,,,main,k,k,1,1.0626025999663398,748.7294170999667,None,None,0,,,,,,,,,,,,,,102,2023-04-21_17h26.35.281,Main,2022.1.1,60.02548683409395,
negative,yellow,1,k,None,,,,,,,,,0,191,191,191,,,,,,,,,,,,,,,,,main,k,k,1,1.4797973000095226,750.7954197999788,None,None,0,,,,,,,,,,,,,,102,2023-04-21_17h26.35.281,Main,2022.1.1,60.02548683409395,
positive,blue,2,k,None,,,,,,,,,0,192,192,192,,,,,,,,,,,,,,,,,main,k,k,1,0.8016855000169016,753.2761794999824,None,None,0,,,,,,,,,,,,,,102,2023-04-21_17h26.35.281,Main,2022.1.1,60.02548683409395,
positive,yellow,1,None,k,,,,,,,,,0,193,193,193,,,,,,,,,,,,,,,,,main,None,None,1,1.5020054000196978,755.0787328999722,None,None,1,,,,,,,,,,,,,,102,2023-04-21_17h26.35.281,Main,2022.1.1,60.02548683409395,
negative,red,2,None,None,,,,,,,,,0,194,194,194,,,,,,,,,,,,,,,,,main,None,None,1,1.4938736999756657,757.5793399999966,None,None,1,,,,,,,,,,,,,,102,2023-04-21_17h26.35.281,Main,2022.1.1,60.02548683409395,
positive,red,1,None,None,,,,,,,,,0,195,195,195,,,,,,,,,,,,,,,,,main,None,None,1,1.5014663000474684,760.0760876999702,None,None,1,,,,,,,,,,,,,,102,2023-04-21_17h26.35.281,Main,2022.1.1,60.02548683409395,
negative,blue,1,None,k,,,,,,,,,0,196,196,196,,,,,,,,,,,,,,,,,main,None,None,1,1.4991806000471115,762.5785944999661,None,None,1,,,,,,,,,,,,,,102,2023-04-21_17h26.35.281,Main,2022.1.1,60.02548683409395,
positive,blue,2,k,None,,,,,,,,,0,197,197,197,,,,,,,,,,,,,,,,,main,k,k,1,0.6970461999881081,765.0785255999654,None,None,0,,,,,,,,,,,,,,102,2023-04-21_17h26.35.281,Main,2022.1.1,60.02548683409395,
negative,blue,2,None,k,,,,,,,,,0,198,198,198,,,,,,,,,,,,,,,,,main,None,None,1,1.5016578999930061,766.7758811999811,None,None,1,,,,,,,,,,,,,,102,2023-04-21_17h26.35.281,Main,2022.1.1,60.02548683409395,
negative,blue,2,None,k,,,,,,,,,0,199,199,199,,,,,,,,,,,,,,,,,main,None,None,1,1.4990038000396453,769.2764768999768,None,None,1,,,,,,,,,,,,,,102,2023-04-21_17h26.35.281,Main,2022.1.1,60.02548683409395,
positive,blue,2,k,None,,,,,,,,,0,200,200,200,,,,,,,,,,,,,,,,,main,k,k,1,0.9992673000087962,771.7784408999723,None,None,0,,,,,,,,,,,,,,102,2023-04-21_17h26.35.281,Main,2022.1.1,60.02548683409395,
positive,blue,2,k,None,,,,,,,,,0,201,201,201,,,,,,,,,,,,,,,,,main,k,k,1,0.8489137999713421,773.7762855999754,None,None,0,,,,,,,,,,,,,,102,2023-04-21_17h26.35.281,Main,2022.1.1,60.02548683409395,
negative,yellow,2,k,None,,,,,,,,,0,202,202,202,,,,,,,,,,,,,,,,,main,k,k,1,0.9970350000075996,775.626174999983,None,None,0,,,,,,,,,,,,,,102,2023-04-21_17h26.35.281,Main,2022.1.1,60.02548683409395,
positive,red,1,None,None,,,,,,,,,0,203,203,203,,,,,,,,,,,,,,,,,main,None,None,1,1.4994755000225268,777.6282008999842,None,None,1,,,,,,,,,,,,,,102,2023-04-21_17h26.35.281,Main,2022.1.1,60.02548683409395,
negative,blue,2,None,k,,,,,,,,,0,204,204,204,,,,,,,,,,,,,,,,,main,None,None,1,1.49792689998867,780.1281403999892,None,None,1,,,,,,,,,,,,,,102,2023-04-21_17h26.35.281,Main,2022.1.1,60.02548683409395,
negative,red,1,None,None,,,,,,,,,0,205,205,205,,,,,,,,,,,,,,,,,main,None,None,1,1.502621999999974,782.625558300002,None,None,1,,,,,,,,,,,,,,102,2023-04-21_17h26.35.281,Main,2022.1.1,60.02548683409395,
negative,blue,2,None,k,,,,,,,,,0,206,206,206,,,,,,,,,,,,,,,,,main,None,None,1,1.4990188999800012,785.1282244999893,None,None,1,,,,,,,,,,,,,,102,2023-04-21_17h26.35.281,Main,2022.1.1,60.02548683409395,
negative,yellow,2,k,None,,,,,,,,,0,207,207,207,,,,,,,,,,,,,,,,,main,k,k,1,0.7453856999636628,787.628097000008,None,None,0,,,,,,,,,,,,,,102,2023-04-21_17h26.35.281,Main,2022.1.1,60.02548683409395,
positive,yellow,2,None,k,,,,,,,,,0,208,208,208,,,,,,,,,,,,,,,,,main,None,None,1,1.5016445000073873,789.3753948999802,None,None,1,,,,,,,,,,,,,,102,2023-04-21_17h26.35.281,Main,2022.1.1,60.02548683409395,
negative,yellow,1,k,None,,,,,,,,,0,209,209,209,,,,,,,,,,,,,,,,,main,k,k,1,1.018533699971158,791.8781025999924,None,None,0,,,,,,,,,,,,,,102,2023-04-21_17h26.35.281,Main,2022.1.1,60.02548683409395,
negative,red,2,None,None,,,,,,,,,0,210,210,210,,,,,,,,,,,,,,,,,main,None,None,1,1.4938918999978341,793.8993531999877,None,None,1,,,,,,,,,,,,,,102,2023-04-21_17h26.35.281,Main,2022.1.1,60.02548683409395,
negative,blue,1,None,k,,,,,,,,,0,211,211,211,,,,,,,,,,,,,,,,,main,None,k,0,0.9020448999945074,796.3919895999716,None,None,1,,,,,,,,,,,,,,102,2023-04-21_17h26.35.281,Main,2022.1.1,60.02548683409395,
negative,yellow,1,k,None,,,,,,,,,0,212,212,212,,,,,,,,,,,,,,,,,main,k,k,1,0.7986642000032589,799.2945391999674,None,None,0,,,,,,,,,,,,,,102,2023-04-21_17h26.35.281,Main,2022.1.1,60.02548683409395,
positive,blue,1,k,None,,,,,,,,,0,213,213,213,,,,,,,,,,,,,,,,,main,k,k,1,0.8683772999793291,801.0918074999936,None,None,0,,,,,,,,,,,,,,102,2023-04-21_17h26.35.281,Main,2022.1.1,60.02548683409395,
positive,blue,1,k,None,,,,,,,,,0,214,214,214,,,,,,,,,,,,,,,,,main,k,k,1,1.2490792000317015,802.9610596999992,None,None,0,,,,,,,,,,,,,,102,2023-04-21_17h26.35.281,Main,2022.1.1,60.02548683409395,
positive,yellow,1,None,k,,,,,,,,,0,215,215,215,,,,,,,,,,,,,,,,,main,None,None,1,1.4961972000310197,805.2110234999564,None,None,1,,,,,,,,,,,,,,102,2023-04-21_17h26.35.281,Main,2022.1.1,60.02548683409395,
positive,yellow,1,None,k,,,,,,,,,0,216,216,216,,,,,,,,,,,,,,,,,main,None,None,1,1.5017254000413232,807.708562899963,None,None,1,,,,,,,,,,,,,,102,2023-04-21_17h26.35.281,Main,2022.1.1,60.02548683409395,
positive,yellow,2,None,k,,,,,,,,,0,217,217,217,,,,,,,,,,,,,,,,,main,None,None,1,1.499307600024622,810.2109949999722,None,None,1,,,,,,,,,,,,,,102,2023-04-21_17h26.35.281,Main,2022.1.1,60.02548683409395,
negative,blue,1,None,k,,,,,,,,,0,218,218,218,,,,,,,,,,,,,,,,,main,None,k,0,1.1071849999716505,812.7107849000022,None,None,1,,,,,,,,,,,,,,102,2023-04-21_17h26.35.281,Main,2022.1.1,60.02548683409395,
positive,red,2,None,None,,,,,,,,,0,219,219,219,,,,,,,,,,,,,,,,,main,None,None,1,1.4864471000037156,815.8248689000029,None,None,1,,,,,,,,,,,,,,102,2023-04-21_17h26.35.281,Main,2022.1.1,60.02548683409395,
positive,yellow,1,None,k,,,,,,,,,0,220,220,220,,,,,,,,,,,,,,,,,main,None,None,1,1.498840200016275,818.3107705999864,None,None,1,,,,,,,,,,,,,,102,2023-04-21_17h26.35.281,Main,2022.1.1,60.02548683409395,
positive,blue,1,k,None,,,,,,,,,0,221,221,221,,,,,,,,,,,,,,,,,main,k,k,1,0.9465472000301816,820.8107642999967,None,None,0,,,,,,,,,,,,,,102,2023-04-21_17h26.35.281,Main,2022.1.1,60.02548683409395,
positive,yellow,2,None,k,,,,,,,,,0,222,222,222,,,,,,,,,,,,,,,,,main,None,None,1,1.5016185999847949,822.7580543999793,None,None,1,,,,,,,,,,,,,,102,2023-04-21_17h26.35.281,Main,2022.1.1,60.02548683409395,
negative,yellow,1,k,None,,,,,,,,,0,223,223,223,,,,,,,,,,,,,,,,,main,k,k,1,1.1298537000548095,825.260742799961,None,None,0,,,,,,,,,,,,,,102,2023-04-21_17h26.35.281,Main,2022.1.1,60.02548683409395,
positive,yellow,2,None,k,,,,,,,,,0,224,224,224,,,,,,,,,,,,,,,,,main,None,None,1,1.5019082999788225,827.3912725999835,None,None,1,,,,,,,,,,,,,,102,2023-04-21_17h26.35.281,Main,2022.1.1,60.02548683409395,
negative,yellow,2,k,None,,,,,,,,,0,225,225,225,,,,,,,,,,,,,,,,,main,k,k,1,1.0659488000092097,829.8939138999558,None,None,0,,,,,,,,,,,,,,102,2023-04-21_17h26.35.281,Main,2022.1.1,60.02548683409395,
negative,blue,2,None,k,,,,,,,,,0,226,226,226,,,,,,,,,,,,,,,,,main,None,None,1,1.4996081999852322,831.9605133999721,None,None,1,,,,,,,,,,,,,,102,2023-04-21_17h26.35.281,Main,2022.1.1,60.02548683409395,
positive,red,2,None,None,,,,,,,,,0,227,227,227,,,,,,,,,,,,,,,,,main,None,None,1,1.49639380001463,834.4602939999895,None,None,1,,,,,,,,,,,,,,102,2023-04-21_17h26.35.281,Main,2022.1.1,60.02548683409395,
positive,blue,2,k,None,,,,,,,,,0,228,228,228,,,,,,,,,,,,,,,,,main,k,k,1,1.5195755999884568,836.9577437000116,None,None,0,,,,,,,,,,,,,,102,2023-04-21_17h26.35.281,Main,2022.1.1,60.02548683409395,
negative,blue,1,None,k,,,,,,,,,0,229,229,229,,,,,,,,,,,,,,,,,main,None,None,1,1.5002762000076473,840.4769999000127,None,None,1,,,,,,,,,,,,,,102,2023-04-21_17h26.35.281,Main,2022.1.1,60.02548683409395,
positive,yellow,1,None,k,,,,,,,,,0,230,230,230,,,,,,,,,,,,,,,,,main,None,None,1,1.4985706000006758,842.9768701999565,None,None,1,,,,,,,,,,,,,,102,2023-04-21_17h26.35.281,Main,2022.1.1,60.02548683409395,
negative,blue,2,None,k,,,,,,,,,0,231,231,231,,,,,,,,,,,,,,,,,main,None,None,1,1.4969281999510713,845.4767998000025,None,None,1,,,,,,,,,,,,,,102,2023-04-21_17h26.35.281,Main,2022.1.1,60.02548683409395,
negative,red,1,None,None,,,,,,,,,0,232,232,232,,,,,,,,,,,,,,,,,main,None,None,1,1.5016945999814197,847.9742213999853,None,None,1,,,,,,,,,,,,,,102,2023-04-21_17h26.35.281,Main,2022.1.1,60.02548683409395,
positive,blue,2,k,None,,,,,,,,,0,233,233,233,,,,,,,,,,,,,,,,,main,k,k,1,0.9834140999591909,850.4768397999578,None,None,0,,,,,,,,,,,,,,102,2023-04-21_17h26.35.281,Main,2022.1.1,60.02548683409395,
negative,yellow,1,k,None,,,,,,,,,0,234,234,234,,,,,,,,,,,,,,,,,main,k,k,1,1.5625093000126071,852.4602288999595,None,None,0,,,,,,,,,,,,,,102,2023-04-21_17h26.35.281,Main,2022.1.1,60.02548683409395,
negative,yellow,2,k,None,,,,,,,,,0,235,235,235,,,,,,,,,,,,,,,,,main,k,k,1,1.220434499962721,856.0240694999811,None,None,0,,,,,,,,,,,,,,102,2023-04-21_17h26.35.281,Main,2022.1.1,60.02548683409395,
positive,red,1,None,None,,,,,,,,,0,236,236,236,,,,,,,,,,,,,,,,,main,None,None,1,1.4960968000232242,858.2432662000065,None,None,1,,,,,,,,,,,,,,102,2023-04-21_17h26.35.281,Main,2022.1.1,60.02548683409395,
negative,red,2,None,None,,,,,,,,,0,237,237,237,,,,,,,,,,,,,,,,,main,None,None,1,1.5021542999893427,860.7405997999595,None,None,1,,,,,,,,,,,,,,102,2023-04-21_17h26.35.281,Main,2022.1.1,60.02548683409395,
negative,blue,1,None,k,,,,,,,,,0,238,238,238,,,,,,,,,,,,,,,,,main,None,None,1,1.499032800027635,863.243162299972,None,None,1,,,,,,,,,,,,,,102,2023-04-21_17h26.35.281,Main,2022.1.1,60.02548683409395,
positive,blue,1,k,None,,,,,,,,,0,239,239,239,,,,,,,,,,,,,,,,,main,k,k,1,0.6828228000085801,865.7432218999602,None,None,0,,,,,,,,,,,,,,102,2023-04-21_17h26.35.281,Main,2022.1.1,60.02548683409395,
,,,,,,,,,,,,,,,,,,,,,,,,,,,,,,,,,,,,,,,,,,,,,,,,,,,,,867.4262871000101,None,,,,,,
