distractor,target,set,ans1,ans2,rep_loop4.thisRepN,rep_loop4.thisTrialN,rep_loop4.thisN,rep_loop4.thisIndex,st2_prac_loop.thisRepN,st2_prac_loop.thisTrialN,st2_prac_loop.thisN,st2_prac_loop.thisIndex,st2_main_loop.thisRepN,st2_main_loop.thisTrialN,st2_main_loop.thisN,st2_main_loop.thisIndex,image_4.started,image_4.stopped,sound_2.started,sound_2.stopped,key_resp_3.keys,key_resp_3.rt,image_5.started,image_5.stopped,st_prac_back.started,st_prac_back.stopped,st_prac_text.started,st_prac_text.stopped,st_fix_back.started,st_fix_back.stopped,st_fix_2.started,st_fix_2.stopped,main_prac,st_ans,st_res,st_corr,st_rt,st_back.started,st_back.stopped,st2_resp.keys,st2_resp.corr,st_main_back.started,st_main_back.stopped,st_main_text.started,st_main_text.stopped,mouse_4.x,mouse_4.y,mouse_4.leftButton,mouse_4.midButton,mouse_4.rightButton,mouse_4.started,mouse_4.stopped,text_2.started,text_2.stopped,id*,date,expName,psychopyVersion,frameRate,
negative,yellow,1,k,None,,,,,0,0,0,0,,,,,30.030103600001894,None,33.92677205000655,None,space,17.65457209997112,51.60718429996632,None,54.409633599978406,None,54.409633599978406,None,56.409599100006744,None,56.409599100006744,None,prac,None,None,1,1.5050049999845214,58.4272758999723,None,None,1,,,,,,,,,,,,,,103,2023-04-20_14h38.40.909,Main,2022.1.1,60.92352758777683,
positive,red,2,None,None,,,,,0,1,1,1,,,,,,,,,,,,,,,,,,,,,prac,None,None,1,1.498790200043004,60.942930799967144,None,None,1,,,,,,,,,,,,,,103,2023-04-20_14h38.40.909,Main,2022.1.1,60.92352758777683,
negative,blue,2,None,k,,,,,0,2,2,2,,,,,,,,,,,,,,,,,,,,,prac,k,k,1,1.1967025000485592,63.44269269995857,None,None,0,,,,,,,,,,,,,,103,2023-04-20_14h38.40.909,Main,2022.1.1,60.92352758777683,
positive,yellow,1,None,k,,,,,0,3,3,3,,,,,,,,,,,,,,,,,,,,,prac,k,k,1,0.7825361000141129,65.6400994999567,None,None,0,,,,,,,,,,,,,,103,2023-04-20_14h38.40.909,Main,2022.1.1,60.92352758777683,
negative,blue,2,None,k,,,,,0,4,4,4,,,,,,,,,,,,,,,,,,,,,prac,k,k,1,0.8328857000451535,67.42344549996778,None,None,0,,,,,,,,,,,,,,103,2023-04-20_14h38.40.909,Main,2022.1.1,60.92352758777683,
negative,blue,1,None,k,,,,,0,5,5,5,,,,,,,,,,,,,,,,,,,,,prac,k,k,1,0.95139860000927,69.25936520000687,None,None,0,,,,,,,,,,,,,,103,2023-04-20_14h38.40.909,Main,2022.1.1,60.92352758777683,
negative,yellow,2,k,None,,,,,0,6,6,6,,,,,,,,,,,,,,,,,,,,,prac,None,None,1,1.4960225999820977,71.20933019998483,None,None,1,,,,,,,,,,,,,,103,2023-04-20_14h38.40.909,Main,2022.1.1,60.92352758777683,
negative,red,1,None,None,,,,,0,7,7,7,,,,,,,,,,,,,,,,,,,,,prac,None,None,1,1.5018354000058025,73.70666399999755,None,None,1,,,,,,,,,,,,,,103,2023-04-20_14h38.40.909,Main,2022.1.1,60.92352758777683,
positive,yellow,2,None,k,,,,,0,8,8,8,,,,,,,,,,,,,,,,,,,,,prac,k,k,1,0.599421999999322,76.20927950000623,None,None,0,,,,,,,,,,,,,,103,2023-04-20_14h38.40.909,Main,2022.1.1,60.92352758777683,
negative,yellow,1,k,None,,,,,0,9,9,9,,,,,,,,,,,,,,,,,,,,,prac,None,None,1,1.4988245999556966,77.809188299987,None,None,1,,,,,,,,,,,,,,103,2023-04-20_14h38.40.909,Main,2022.1.1,60.92352758777683,
positive,yellow,2,None,k,,,,,0,10,10,10,,,,,,,,,,,,,,,,,,,,,prac,k,k,1,0.7133831000537612,80.30911649996415,None,None,0,,,,,,,,,,,,,,103,2023-04-20_14h38.40.909,Main,2022.1.1,60.92352758777683,
negative,yellow,2,k,None,,,,,0,11,11,11,,,,,,,,,,,,,,,,,,,,,prac,None,None,1,1.4994633999885991,82.02308479999192,None,None,1,,,,,,,,,,,,,,103,2023-04-20_14h38.40.909,Main,2022.1.1,60.92352758777683,
negative,red,2,None,None,,,,,0,12,12,12,,,,,,,,,,,,,,,,,,,,,prac,None,None,1,1.4986702000023797,84.52312399999937,None,None,1,,,,,,,,,,,,,,103,2023-04-20_14h38.40.909,Main,2022.1.1,60.92352758777683,
positive,red,1,None,None,,,,,0,13,13,13,,,,,,,,,,,,,,,,,,,,,prac,None,None,1,1.5010928999981843,87.02579549996881,None,None,1,,,,,,,,,,,,,,103,2023-04-20_14h38.40.909,Main,2022.1.1,60.92352758777683,
positive,blue,2,k,None,,,,,0,14,14,14,,,,,,,,,,,,,,,,,,,,,prac,None,None,1,1.499285299971234,89.52325669996208,None,None,1,,,,,,,,,,,,,,103,2023-04-20_14h38.40.909,Main,2022.1.1,60.92352758777683,
positive,blue,1,k,None,,,,,0,15,15,15,,,,,,,,,,,,,,,,,,,,,prac,None,None,1,1.4991182999801822,92.0229185000062,None,None,1,,,,,,,,,,,,,,103,2023-04-20_14h38.40.909,Main,2022.1.1,60.92352758777683,
negative,blue,1,None,k,,,,,0,16,16,16,,,,,,,,,,,,,,,,,,,,,prac,k,k,1,0.5325780999846756,94.52557649998926,None,None,0,,,,,,,,,,,,,,103,2023-04-20_14h38.40.909,Main,2022.1.1,60.92352758777683,
positive,blue,2,k,None,,,,,0,17,17,17,,,,,,,,,,,,,,,,,,,,,prac,None,None,1,1.4960963999619707,96.0589494999731,None,None,1,,,,,,,,,,,,,,103,2023-04-20_14h38.40.909,Main,2022.1.1,60.92352758777683,
positive,blue,1,k,None,,,,,0,18,18,18,,,,,,,,,,,,,,,,,,,,,prac,None,None,1,1.4994162999792024,98.5561272999621,None,None,1,,,,,,,,,,,,,,103,2023-04-20_14h38.40.909,Main,2022.1.1,60.92352758777683,
positive,yellow,1,None,k,,,,,0,19,19,19,,,,,,,,,,,,,,,,,,,,,prac,k,k,1,0.7351662999717519,101.0561153999879,None,None,0,,,,,,,,,,,,,,103,2023-04-20_14h38.40.909,Main,2022.1.1,60.92352758777683,
negative,yellow,1,k,None,,,,,1,0,20,0,,,,,,,,,,,,,,,,,,,,,prac,None,None,1,1.4992908000131138,102.79200700001093,None,None,1,,,,,,,,,,,,,,103,2023-04-20_14h38.40.909,Main,2022.1.1,60.92352758777683,
positive,red,2,None,None,,,,,1,1,21,1,,,,,,,,,,,,,,,,,,,,,prac,None,None,1,1.4961960000218824,105.28974079998443,None,None,1,,,,,,,,,,,,,,103,2023-04-20_14h38.40.909,Main,2022.1.1,60.92352758777683,
negative,blue,2,None,k,,,,,1,2,22,2,,,,,,,,,,,,,,,,,,,,,prac,k,k,1,0.5853935000486672,107.78926970000612,None,None,0,,,,,,,,,,,,,,103,2023-04-20_14h38.40.909,Main,2022.1.1,60.92352758777683,
positive,yellow,1,None,k,,,,,1,3,23,3,,,,,,,,,,,,,,,,,,,,,prac,k,k,1,0.7490309000131674,109.3729677000083,None,None,0,,,,,,,,,,,,,,103,2023-04-20_14h38.40.909,Main,2022.1.1,60.92352758777683,
negative,blue,2,None,k,,,,,1,4,24,4,,,,,,,,,,,,,,,,,,,,,prac,k,k,1,0.5961478999815881,111.12515539996093,None,None,0,,,,,,,,,,,,,,103,2023-04-20_14h38.40.909,Main,2022.1.1,60.92352758777683,
negative,blue,1,None,k,,,,,1,5,25,5,,,,,,,,,,,,,,,,,,,,,prac,k,k,1,0.6326232000137679,112.72252049995586,None,None,0,,,,,,,,,,,,,,103,2023-04-20_14h38.40.909,Main,2022.1.1,60.92352758777683,
negative,yellow,2,k,None,,,,,1,6,26,6,,,,,,,,,,,,,,,,,,,,,prac,None,None,1,1.5019287999602966,114.35584440000821,None,None,1,,,,,,,,,,,,,,103,2023-04-20_14h38.40.909,Main,2022.1.1,60.92352758777683,
negative,red,1,None,None,,,,,1,7,27,7,,,,,,,,,,,,,,,,,,,,,prac,None,None,1,1.497545899997931,116.85842689999845,None,None,1,,,,,,,,,,,,,,103,2023-04-20_14h38.40.909,Main,2022.1.1,60.92352758777683,
positive,yellow,2,None,k,,,,,1,8,28,8,,,,,,,,,,,,,,,,,,,,,prac,k,k,1,0.7164047000114806,119.3556945999735,None,None,0,,,,,,,,,,,,,,103,2023-04-20_14h38.40.909,Main,2022.1.1,60.92352758777683,
negative,yellow,1,k,None,,,,,1,9,29,9,,,,,,,,,,,,,,,,,,,,,prac,None,None,1,1.4992365000071004,121.07504889997654,None,None,1,,,,,,,,,,,,,,103,2023-04-20_14h38.40.909,Main,2022.1.1,60.92352758777683,
positive,yellow,2,None,k,,,,,1,10,30,10,,,,,,,,,,,,,,,,,,,,,prac,k,k,1,0.5962448000209406,123.57267739996314,None,None,0,,,,,,,,,,,,,,103,2023-04-20_14h38.40.909,Main,2022.1.1,60.92352758777683,
negative,yellow,2,k,None,,,,,1,11,31,11,,,,,,,,,,,,,,,,,,,,,prac,None,None,1,1.4997713000047952,125.17223859997466,None,None,1,,,,,,,,,,,,,,103,2023-04-20_14h38.40.909,Main,2022.1.1,60.92352758777683,
negative,red,2,None,None,,,,,1,12,32,12,,,,,,,,,,,,,,,,,,,,,prac,None,None,1,1.4984042000141926,127.67502049996983,None,None,1,,,,,,,,,,,,,,103,2023-04-20_14h38.40.909,Main,2022.1.1,60.92352758777683,
positive,red,1,None,None,,,,,1,13,33,13,,,,,,,,,,,,,,,,,,,,,prac,None,None,1,1.4988908999948762,130.16946589999134,None,None,1,,,,,,,,,,,,,,103,2023-04-20_14h38.40.909,Main,2022.1.1,60.92352758777683,
positive,blue,2,k,None,,,,,1,14,34,14,,,,,,,,,,,,,,,,,,,,,prac,None,None,1,1.502345199987758,132.6721288000117,None,None,1,,,,,,,,,,,,,,103,2023-04-20_14h38.40.909,Main,2022.1.1,60.92352758777683,
positive,blue,1,k,None,,,,,1,15,35,15,,,,,,,,,,,,,,,,,,,,,prac,None,None,1,1.495892399980221,135.17252689995803,None,None,1,,,,,,,,,,,,,,103,2023-04-20_14h38.40.909,Main,2022.1.1,60.92352758777683,
negative,blue,1,None,k,,,,,1,16,36,16,,,,,,,,,,,,,,,,,,,,,prac,k,k,1,0.6019703000201844,137.67198929999722,None,None,0,,,,,,,,,,,,,,103,2023-04-20_14h38.40.909,Main,2022.1.1,60.92352758777683,
positive,blue,2,k,None,,,,,1,17,37,17,,,,,,,,,,,,,,,,,,,,,prac,None,None,1,1.4990691000130028,139.27465410000877,None,None,1,,,,,,,,,,,,,,103,2023-04-20_14h38.40.909,Main,2022.1.1,60.92352758777683,
positive,blue,1,k,None,,,,,1,18,38,18,,,,,,,,,,,,,,,,,,,,,prac,None,None,1,1.4965469000162557,141.77233060001163,None,None,1,,,,,,,,,,,,,,103,2023-04-20_14h38.40.909,Main,2022.1.1,60.92352758777683,
positive,yellow,1,None,k,,,,,1,19,39,19,,,,,,,,,,,,,,,,,,,,,prac,k,k,1,0.6693489000317641,144.27190359996166,None,None,0,,,,,,,,,,,,,,103,2023-04-20_14h38.40.909,Main,2022.1.1,60.92352758777683,
,,,,,,,,,,,,,,,,,,,,,,,,,,,,,,,,,,,,,,,,,,145.9413227000041,None,145.9413227000041,None,0.12407407,0.17870371,0,0,0,0.013213849975727499,None,,,103,2023-04-20_14h38.40.909,Main,2022.1.1,60.92352758777683,
negative,yellow,2,k,None,,,,,,,,,0,0,0,0,,,,,,,,,,,,,146.14130869996734,None,146.14130869996734,None,main,None,None,1,1.4971396999899298,148.1748043000116,None,None,1,,,,,,,,,,,,,,103,2023-04-20_14h38.40.909,Main,2022.1.1,60.92352758777683,
positive,red,1,None,None,,,,,,,,,0,1,1,1,,,,,,,,,,,,,,,,,main,None,None,1,1.4988585999817587,150.67195230000652,None,None,1,,,,,,,,,,,,,,103,2023-04-20_14h38.40.909,Main,2022.1.1,60.92352758777683,
positive,blue,2,k,None,,,,,,,,,0,2,2,2,,,,,,,,,,,,,,,,,main,None,None,1,1.4993406999856234,153.17194659996312,None,None,1,,,,,,,,,,,,,,103,2023-04-20_14h38.40.909,Main,2022.1.1,60.92352758777683,
positive,blue,1,k,None,,,,,,,,,0,3,3,3,,,,,,,,,,,,,,,,,main,None,None,1,1.4963175999582745,155.67416669998784,None,None,1,,,,,,,,,,,,,,103,2023-04-20_14h38.40.909,Main,2022.1.1,60.92352758777683,
negative,yellow,2,k,None,,,,,,,,,0,4,4,4,,,,,,,,,,,,,,,,,main,None,None,1,1.501979399996344,158.1715867999592,None,None,1,,,,,,,,,,,,,,103,2023-04-20_14h38.40.909,Main,2022.1.1,60.92352758777683,
positive,yellow,2,None,k,,,,,,,,,0,5,5,5,,,,,,,,,,,,,,,,,main,k,k,1,0.5993938000174239,160.67416080000112,None,None,0,,,,,,,,,,,,,,103,2023-04-20_14h38.40.909,Main,2022.1.1,60.92352758777683,
negative,blue,2,None,k,,,,,,,,,0,6,6,6,,,,,,,,,,,,,,,,,main,k,k,1,0.5796134000411257,162.2741779999924,None,None,0,,,,,,,,,,,,,,103,2023-04-20_14h38.40.909,Main,2022.1.1,60.92352758777683,
positive,red,2,None,None,,,,,,,,,0,7,7,7,,,,,,,,,,,,,,,,,main,None,None,1,1.4987608999945223,163.85481119999895,None,None,1,,,,,,,,,,,,,,103,2023-04-20_14h38.40.909,Main,2022.1.1,60.92352758777683,
positive,yellow,1,None,k,,,,,,,,,0,8,8,8,,,,,,,,,,,,,,,,,main,k,k,1,0.6179438999970444,166.35749109997414,None,None,0,,,,,,,,,,,,,,103,2023-04-20_14h38.40.909,Main,2022.1.1,60.92352758777683,
negative,red,1,None,None,,,,,,,,,0,9,9,9,,,,,,,,,,,,,,,,,main,None,None,1,1.496254300000146,167.97179719997803,None,None,1,,,,,,,,,,,,,,103,2023-04-20_14h38.40.909,Main,2022.1.1,60.92352758777683,
positive,yellow,1,None,k,,,,,,,,,0,10,10,10,,,,,,,,,,,,,,,,,main,k,k,1,0.635614299972076,170.47129969997332,None,None,0,,,,,,,,,,,,,,103,2023-04-20_14h38.40.909,Main,2022.1.1,60.92352758777683,
negative,yellow,1,k,None,,,,,,,,,0,11,11,11,,,,,,,,,,,,,,,,,main,None,None,1,1.4987873999634758,172.10742149996804,None,None,1,,,,,,,,,,,,,,103,2023-04-20_14h38.40.909,Main,2022.1.1,60.92352758777683,
negative,yellow,1,k,None,,,,,,,,,0,12,12,12,,,,,,,,,,,,,,,,,main,None,None,1,1.4966372000053525,174.60498020000523,None,None,1,,,,,,,,,,,,,,103,2023-04-20_14h38.40.909,Main,2022.1.1,60.92352758777683,
negative,red,2,None,None,,,,,,,,,0,13,13,13,,,,,,,,,,,,,,,,,main,None,None,1,1.5019527000258677,177.1046089999727,None,None,1,,,,,,,,,,,,,,103,2023-04-20_14h38.40.909,Main,2022.1.1,60.92352758777683,
positive,yellow,2,None,k,,,,,,,,,0,14,14,14,,,,,,,,,,,,,,,,,main,k,k,1,0.5656301000271924,179.60491409996757,None,None,0,,,,,,,,,,,,,,103,2023-04-20_14h38.40.909,Main,2022.1.1,60.92352758777683,
positive,blue,1,k,None,,,,,,,,,0,15,15,15,,,,,,,,,,,,,,,,,main,None,None,1,1.496266599977389,181.17377839999972,None,None,1,,,,,,,,,,,,,,103,2023-04-20_14h38.40.909,Main,2022.1.1,60.92352758777683,
negative,blue,1,None,k,,,,,,,,,0,16,16,16,,,,,,,,,,,,,,,,,main,k,k,1,0.5184454999980517,183.67111160000786,None,None,0,,,,,,,,,,,,,,103,2023-04-20_14h38.40.909,Main,2022.1.1,60.92352758777683,
positive,blue,2,k,None,,,,,,,,,0,17,17,17,,,,,,,,,,,,,,,,,main,None,None,1,1.496310300019104,185.19032080000034,None,None,1,,,,,,,,,,,,,,103,2023-04-20_14h38.40.909,Main,2022.1.1,60.92352758777683,
negative,blue,2,None,k,,,,,,,,,0,18,18,18,,,,,,,,,,,,,,,,,main,k,k,1,0.5670840000384487,187.68765380000696,None,None,0,,,,,,,,,,,,,,103,2023-04-20_14h38.40.909,Main,2022.1.1,60.92352758777683,
negative,blue,1,None,k,,,,,,,,,0,19,19,19,,,,,,,,,,,,,,,,,main,k,k,1,0.7674104999750853,189.25428160000592,None,None,0,,,,,,,,,,,,,,103,2023-04-20_14h38.40.909,Main,2022.1.1,60.92352758777683,
negative,blue,1,None,k,,,,,,,,,0,20,20,20,,,,,,,,,,,,,,,,,main,k,k,1,0.48272530001122504,191.02361380000366,None,None,0,,,,,,,,,,,,,,103,2023-04-20_14h38.40.909,Main,2022.1.1,60.92352758777683,
negative,blue,2,None,k,,,,,,,,,0,21,21,21,,,,,,,,,,,,,,,,,main,k,k,1,0.5461937999934889,192.50461609999184,None,None,0,,,,,,,,,,,,,,103,2023-04-20_14h38.40.909,Main,2022.1.1,60.92352758777683,
negative,red,1,None,None,,,,,,,,,0,22,22,22,,,,,,,,,,,,,,,,,main,None,None,1,1.5028685999568552,194.0541685000062,None,None,1,,,,,,,,,,,,,,103,2023-04-20_14h38.40.909,Main,2022.1.1,60.92352758777683,
positive,red,2,None,None,,,,,,,,,0,23,23,23,,,,,,,,,,,,,,,,,main,None,None,1,1.4981043000007048,196.5545276000048,None,None,1,,,,,,,,,,,,,,103,2023-04-20_14h38.40.909,Main,2022.1.1,60.92352758777683,
negative,red,2,None,None,,,,,,,,,0,24,24,24,,,,,,,,,,,,,,,,,main,None,None,1,1.4961751999799162,199.0568791999831,None,None,1,,,,,,,,,,,,,,103,2023-04-20_14h38.40.909,Main,2022.1.1,60.92352758777683,
positive,blue,2,k,None,,,,,,,,,0,25,25,25,,,,,,,,,,,,,,,,,main,None,None,1,1.5019951000576839,201.55407889996422,None,None,1,,,,,,,,,,,,,,103,2023-04-20_14h38.40.909,Main,2022.1.1,60.92352758777683,
negative,yellow,1,k,None,,,,,,,,,0,26,26,26,,,,,,,,,,,,,,,,,main,None,None,1,1.4962970000342466,204.05682800000068,None,None,1,,,,,,,,,,,,,,103,2023-04-20_14h38.40.909,Main,2022.1.1,60.92352758777683,
positive,blue,2,k,None,,,,,,,,,0,27,27,27,,,,,,,,,,,,,,,,,main,None,None,1,1.5019669000175782,206.55391039996175,None,None,1,,,,,,,,,,,,,,103,2023-04-20_14h38.40.909,Main,2022.1.1,60.92352758777683,
negative,blue,2,None,k,,,,,,,,,0,28,28,28,,,,,,,,,,,,,,,,,main,k,k,1,0.4978510000510141,209.0542817999958,None,None,0,,,,,,,,,,,,,,103,2023-04-20_14h38.40.909,Main,2022.1.1,60.92352758777683,
positive,red,1,None,None,,,,,,,,,0,29,29,29,,,,,,,,,,,,,,,,,main,None,None,1,1.4976267000311054,210.55424929998117,None,None,1,,,,,,,,,,,,,,103,2023-04-20_14h38.40.909,Main,2022.1.1,60.92352758777683,
positive,blue,1,k,None,,,,,,,,,0,30,30,30,,,,,,,,,,,,,,,,,main,None,None,1,1.5022458999883384,213.0537922999938,None,None,1,,,,,,,,,,,,,,103,2023-04-20_14h38.40.909,Main,2022.1.1,60.92352758777683,
positive,yellow,1,None,k,,,,,,,,,0,31,31,31,,,,,,,,,,,,,,,,,main,k,k,1,0.6156714000389911,215.55415899999207,None,None,0,,,,,,,,,,,,,,103,2023-04-20_14h38.40.909,Main,2022.1.1,60.92352758777683,
negative,yellow,2,k,None,,,,,,,,,0,32,32,32,,,,,,,,,,,,,,,,,main,None,None,1,1.4964668999891728,217.17314420000184,None,None,1,,,,,,,,,,,,,,103,2023-04-20_14h38.40.909,Main,2022.1.1,60.92352758777683,
negative,blue,1,None,k,,,,,,,,,0,33,33,33,,,,,,,,,,,,,,,,,main,k,k,1,0.7661876999773085,219.67037469998468,None,None,0,,,,,,,,,,,,,,103,2023-04-20_14h38.40.909,Main,2022.1.1,60.92352758777683,
positive,blue,1,k,None,,,,,,,,,0,34,34,34,,,,,,,,,,,,,,,,,main,None,None,1,1.4996442000265233,221.43737830000464,None,None,1,,,,,,,,,,,,,,103,2023-04-20_14h38.40.909,Main,2022.1.1,60.92352758777683,
negative,yellow,1,k,None,,,,,,,,,0,35,35,35,,,,,,,,,,,,,,,,,main,None,None,1,1.501101000001654,223.9369047000073,None,None,1,,,,,,,,,,,,,,103,2023-04-20_14h38.40.909,Main,2022.1.1,60.92352758777683,
positive,yellow,2,None,k,,,,,,,,,0,36,36,36,,,,,,,,,,,,,,,,,main,k,k,1,0.5493839000118896,226.43954120000126,None,None,0,,,,,,,,,,,,,,103,2023-04-20_14h38.40.909,Main,2022.1.1,60.92352758777683,
positive,yellow,2,None,k,,,,,,,,,0,37,37,37,,,,,,,,,,,,,,,,,main,k,k,1,0.5318800000241026,227.98945579997962,None,None,0,,,,,,,,,,,,,,103,2023-04-20_14h38.40.909,Main,2022.1.1,60.92352758777683,
negative,yellow,2,k,None,,,,,,,,,0,38,38,38,,,,,,,,,,,,,,,,,main,None,None,1,1.4960907999775372,229.52279439999256,None,None,1,,,,,,,,,,,,,,103,2023-04-20_14h38.40.909,Main,2022.1.1,60.92352758777683,
positive,yellow,1,None,k,,,,,,,,,0,39,39,39,,,,,,,,,,,,,,,,,main,k,k,1,0.6019874000339769,232.02011189999757,None,None,0,,,,,,,,,,,,,,103,2023-04-20_14h38.40.909,Main,2022.1.1,60.92352758777683,
negative,yellow,2,k,None,,,,,,,,,0,40,40,40,,,,,,,,,,,,,,,,,main,None,None,1,1.495324100018479,233.62048009998398,None,None,1,,,,,,,,,,,,,,103,2023-04-20_14h38.40.909,Main,2022.1.1,60.92352758777683,
positive,blue,2,k,None,,,,,,,,,0,41,41,41,,,,,,,,,,,,,,,,,main,None,None,1,1.502160600037314,236.11996229999932,None,None,1,,,,,,,,,,,,,,103,2023-04-20_14h38.40.909,Main,2022.1.1,60.92352758777683,
positive,blue,2,k,None,,,,,,,,,0,42,42,42,,,,,,,,,,,,,,,,,main,None,None,1,1.4987171999528073,238.62051539996173,None,None,1,,,,,,,,,,,,,,103,2023-04-20_14h38.40.909,Main,2022.1.1,60.92352758777683,
negative,blue,2,None,k,,,,,,,,,0,43,43,43,,,,,,,,,,,,,,,,,main,k,k,1,0.5799045999883674,241.12258409999777,None,None,0,,,,,,,,,,,,,,103,2023-04-20_14h38.40.909,Main,2022.1.1,60.92352758777683,
negative,red,1,None,None,,,,,,,,,0,44,44,44,,,,,,,,,,,,,,,,,main,None,None,1,1.4994769000331871,242.70318829995813,None,None,1,,,,,,,,,,,,,,103,2023-04-20_14h38.40.909,Main,2022.1.1,60.92352758777683,
negative,yellow,1,k,None,,,,,,,,,0,45,45,45,,,,,,,,,,,,,,,,,main,None,None,1,1.4989549000165425,245.2035382000031,None,None,1,,,,,,,,,,,,,,103,2023-04-20_14h38.40.909,Main,2022.1.1,60.92352758777683,
negative,yellow,1,k,None,,,,,,,,,0,46,46,46,,,,,,,,,,,,,,,,,main,None,None,1,1.5010581000242382,247.70902969996678,None,None,1,,,,,,,,,,,,,,103,2023-04-20_14h38.40.909,Main,2022.1.1,60.92352758777683,
positive,red,1,None,None,,,,,,,,,0,47,47,47,,,,,,,,,,,,,,,,,main,None,None,1,1.4996917999815196,250.2030858999933,None,None,1,,,,,,,,,,,,,,103,2023-04-20_14h38.40.909,Main,2022.1.1,60.92352758777683,
positive,yellow,1,None,k,,,,,,,,,0,48,48,48,,,,,,,,,,,,,,,,,main,k,k,1,0.530009499983862,252.7058001999976,None,None,0,,,,,,,,,,,,,,103,2023-04-20_14h38.40.909,Main,2022.1.1,60.92352758777683,
negative,blue,1,None,k,,,,,,,,,0,49,49,49,,,,,,,,,,,,,,,,,main,k,k,1,0.5991919999942183,254.23628869996173,None,None,0,,,,,,,,,,,,,,103,2023-04-20_14h38.40.909,Main,2022.1.1,60.92352758777683,
positive,yellow,2,None,k,,,,,,,,,0,50,50,50,,,,,,,,,,,,,,,,,main,k,k,1,0.6019300999469124,255.8363137000124,None,None,0,,,,,,,,,,,,,,103,2023-04-20_14h38.40.909,Main,2022.1.1,60.92352758777683,
negative,blue,1,None,k,,,,,,,,,0,51,51,51,,,,,,,,,,,,,,,,,main,k,k,1,0.6826423000311479,257.43661549995886,None,None,0,,,,,,,,,,,,,,103,2023-04-20_14h38.40.909,Main,2022.1.1,60.92352758777683,
positive,red,2,None,None,,,,,,,,,0,52,52,52,,,,,,,,,,,,,,,,,main,None,None,1,1.4959636999992654,259.1223009999958,None,None,1,,,,,,,,,,,,,,103,2023-04-20_14h38.40.909,Main,2022.1.1,60.92352758777683,
positive,yellow,2,None,k,,,,,,,,,0,53,53,53,,,,,,,,,,,,,,,,,main,k,k,1,0.5689952000393532,261.6194569999934,None,None,0,,,,,,,,,,,,,,103,2023-04-20_14h38.40.909,Main,2022.1.1,60.92352758777683,
negative,red,2,None,None,,,,,,,,,0,54,54,54,,,,,,,,,,,,,,,,,main,None,None,1,1.4987270000274293,263.1889258999727,None,None,1,,,,,,,,,,,,,,103,2023-04-20_14h38.40.909,Main,2022.1.1,60.92352758777683,
positive,yellow,1,None,k,,,,,,,,,0,55,55,55,,,,,,,,,,,,,,,,,main,k,k,1,0.5795656999689527,265.688870199956,None,None,0,,,,,,,,,,,,,,103,2023-04-20_14h38.40.909,Main,2022.1.1,60.92352758777683,
negative,blue,2,None,k,,,,,,,,,0,56,56,56,,,,,,,,,,,,,,,,,main,k,k,1,0.585336499963887,267.2693508999655,None,None,0,,,,,,,,,,,,,,103,2023-04-20_14h38.40.909,Main,2022.1.1,60.92352758777683,
positive,blue,1,k,None,,,,,,,,,0,57,57,57,,,,,,,,,,,,,,,,,main,None,None,1,1.4992926000268199,268.8553707000101,None,None,1,,,,,,,,,,,,,,103,2023-04-20_14h38.40.909,Main,2022.1.1,60.92352758777683,
positive,blue,1,k,None,,,,,,,,,0,58,58,58,,,,,,,,,,,,,,,,,main,None,None,1,1.4964918000041507,271.35524329997133,None,None,1,,,,,,,,,,,,,,103,2023-04-20_14h38.40.909,Main,2022.1.1,60.92352758777683,
negative,yellow,2,k,None,,,,,,,,,0,59,59,59,,,,,,,,,,,,,,,,,main,None,None,1,1.4993050000048243,273.85259909997694,None,None,1,,,,,,,,,,,,,,103,2023-04-20_14h38.40.909,Main,2022.1.1,60.92352758777683,
positive,red,2,None,None,,,,,,,,,0,60,60,60,,,,,,,,,,,,,,,,,main,None,None,1,1.4987162000034004,276.35527770000044,None,None,1,,,,,,,,,,,,,,103,2023-04-20_14h38.40.909,Main,2022.1.1,60.92352758777683,
negative,yellow,1,k,None,,,,,,,,,0,61,61,61,,,,,,,,,,,,,,,,,main,None,None,1,1.5018293999601156,278.8524374999688,None,None,1,,,,,,,,,,,,,,103,2023-04-20_14h38.40.909,Main,2022.1.1,60.92352758777683,
negative,red,1,None,None,,,,,,,,,0,62,62,62,,,,,,,,,,,,,,,,,main,None,None,1,1.499030800012406,281.3528102999553,None,None,1,,,,,,,,,,,,,,103,2023-04-20_14h38.40.909,Main,2022.1.1,60.92352758777683,
negative,blue,1,None,k,,,,,,,,,0,63,63,63,,,,,,,,,,,,,,,,,main,k,k,1,0.6298362000379711,283.852761999995,None,None,0,,,,,,,,,,,,,,103,2023-04-20_14h38.40.909,Main,2022.1.1,60.92352758777683,
positive,blue,2,k,None,,,,,,,,,0,64,64,64,,,,,,,,,,,,,,,,,main,None,None,1,1.4996670000255108,285.4856357999961,None,None,1,,,,,,,,,,,,,,103,2023-04-20_14h38.40.909,Main,2022.1.1,60.92352758777683,
negative,yellow,2,k,None,,,,,,,,,0,65,65,65,,,,,,,,,,,,,,,,,main,None,None,1,1.5027128999936394,287.9883753999602,None,None,1,,,,,,,,,,,,,,103,2023-04-20_14h38.40.909,Main,2022.1.1,60.92352758777683,
positive,yellow,2,None,k,,,,,,,,,0,66,66,66,,,,,,,,,,,,,,,,,main,k,k,1,0.578382599982433,290.485541299975,None,None,0,,,,,,,,,,,,,,103,2023-04-20_14h38.40.909,Main,2022.1.1,60.92352758777683,
positive,yellow,2,None,k,,,,,,,,,0,67,67,67,,,,,,,,,,,,,,,,,main,k,k,1,0.5517272999859415,292.0688824999961,None,None,0,,,,,,,,,,,,,,103,2023-04-20_14h38.40.909,Main,2022.1.1,60.92352758777683,
positive,red,1,None,None,,,,,,,,,0,68,68,68,,,,,,,,,,,,,,,,,main,None,None,1,1.504433499998413,293.62143699999433,None,None,1,,,,,,,,,,,,,,103,2023-04-20_14h38.40.909,Main,2022.1.1,60.92352758777683,
positive,yellow,1,None,k,,,,,,,,,0,69,69,69,,,,,,,,,,,,,,,,,main,k,k,1,0.6413873999845237,296.13041290000547,None,None,0,,,,,,,,,,,,,,103,2023-04-20_14h38.40.909,Main,2022.1.1,60.92352758777683,
negative,yellow,2,k,None,,,,,,,,,0,70,70,70,,,,,,,,,,,,,,,,,main,None,None,1,1.5025760999997146,297.76870319998125,None,None,1,,,,,,,,,,,,,,103,2023-04-20_14h38.40.909,Main,2022.1.1,60.92352758777683,
positive,yellow,1,None,k,,,,,,,,,0,71,71,71,,,,,,,,,,,,,,,,,main,k,k,1,0.5819637000095099,300.2690781999845,None,None,0,,,,,,,,,,,,,,103,2023-04-20_14h38.40.909,Main,2022.1.1,60.92352758777683,
negative,blue,1,None,k,,,,,,,,,0,72,72,72,,,,,,,,,,,,,,,,,main,k,k,1,0.6961985000525601,301.8523817000096,None,None,0,,,,,,,,,,,,,,103,2023-04-20_14h38.40.909,Main,2022.1.1,60.92352758777683,
negative,red,2,None,None,,,,,,,,,0,73,73,73,,,,,,,,,,,,,,,,,main,None,None,1,1.5058013999951072,303.55192439997336,None,None,1,,,,,,,,,,,,,,103,2023-04-20_14h38.40.909,Main,2022.1.1,60.92352758777683,
positive,blue,2,k,None,,,,,,,,,0,74,74,74,,,,,,,,,,,,,,,,,main,None,None,1,1.5091530000208877,306.0523157999851,None,None,1,,,,,,,,,,,,,,103,2023-04-20_14h38.40.909,Main,2022.1.1,60.92352758777683,
negative,blue,2,None,k,,,,,,,,,0,75,75,75,,,,,,,,,,,,,,,,,main,k,k,1,0.6325409999699332,308.56851289997576,None,None,0,,,,,,,,,,,,,,103,2023-04-20_14h38.40.909,Main,2022.1.1,60.92352758777683,
negative,blue,2,None,k,,,,,,,,,0,76,76,76,,,,,,,,,,,,,,,,,main,k,k,1,0.5517941999714822,310.2018556999974,None,None,0,,,,,,,,,,,,,,103,2023-04-20_14h38.40.909,Main,2022.1.1,60.92352758777683,
negative,yellow,1,k,None,,,,,,,,,0,77,77,77,,,,,,,,,,,,,,,,,main,None,None,1,1.4916756000020541,311.75447739998344,None,None,1,,,,,,,,,,,,,,103,2023-04-20_14h38.40.909,Main,2022.1.1,60.92352758777683,
positive,blue,1,k,None,,,,,,,,,0,78,78,78,,,,,,,,,,,,,,,,,main,None,None,1,1.5039157000137493,314.24971090001054,None,None,1,,,,,,,,,,,,,,103,2023-04-20_14h38.40.909,Main,2022.1.1,60.92352758777683,
positive,blue,1,k,None,,,,,,,,,0,79,79,79,,,,,,,,,,,,,,,,,main,None,None,1,1.5020008000428788,316.75171320000663,None,None,1,,,,,,,,,,,,,,103,2023-04-20_14h38.40.909,Main,2022.1.1,60.92352758777683,
positive,red,2,None,None,,,,,,,,,0,80,80,80,,,,,,,,,,,,,,,,,main,None,None,1,1.4960122000193223,319.25202439998975,None,None,1,,,,,,,,,,,,,,103,2023-04-20_14h38.40.909,Main,2022.1.1,60.92352758777683,
positive,yellow,2,None,k,,,,,,,,,0,81,81,81,,,,,,,,,,,,,,,,,main,k,k,1,0.6665109000168741,321.75156100001186,None,None,0,,,,,,,,,,,,,,103,2023-04-20_14h38.40.909,Main,2022.1.1,60.92352758777683,
positive,blue,1,k,None,,,,,,,,,0,82,82,82,,,,,,,,,,,,,,,,,main,None,None,1,1.5011598999844864,323.41860299999826,None,None,1,,,,,,,,,,,,,,103,2023-04-20_14h38.40.909,Main,2022.1.1,60.92352758777683,
negative,yellow,2,k,None,,,,,,,,,0,83,83,83,,,,,,,,,,,,,,,,,main,None,None,1,1.4959901999682188,325.9185925999773,None,None,1,,,,,,,,,,,,,,103,2023-04-20_14h38.40.909,Main,2022.1.1,60.92352758777683,
positive,blue,2,k,None,,,,,,,,,0,84,84,84,,,,,,,,,,,,,,,,,main,None,None,1,1.50174470001366,328.41815260000294,None,None,1,,,,,,,,,,,,,,103,2023-04-20_14h38.40.909,Main,2022.1.1,60.92352758777683,
positive,yellow,1,None,k,,,,,,,,,0,85,85,85,,,,,,,,,,,,,,,,,main,k,k,1,0.5962442000163719,330.9207238999661,None,None,0,,,,,,,,,,,,,,103,2023-04-20_14h38.40.909,Main,2022.1.1,60.92352758777683,
positive,blue,2,k,None,,,,,,,,,0,86,86,86,,,,,,,,,,,,,,,,,main,None,None,1,1.502080100006424,332.51799379999284,None,None,1,,,,,,,,,,,,,,103,2023-04-20_14h38.40.909,Main,2022.1.1,60.92352758777683,
positive,blue,1,k,None,,,,,,,,,0,87,87,87,,,,,,,,,,,,,,,,,main,None,None,1,1.4990491000353359,335.0183751999866,None,None,1,,,,,,,,,,,,,,103,2023-04-20_14h38.40.909,Main,2022.1.1,60.92352758777683,
negative,yellow,2,k,None,,,,,,,,,0,88,88,88,,,,,,,,,,,,,,,,,main,None,None,1,1.4961607999866828,337.5183098000125,None,None,1,,,,,,,,,,,,,,103,2023-04-20_14h38.40.909,Main,2022.1.1,60.92352758777683,
negative,blue,2,None,k,,,,,,,,,0,89,89,89,,,,,,,,,,,,,,,,,main,k,k,1,0.6163887999719009,340.0178559999913,None,None,0,,,,,,,,,,,,,,103,2023-04-20_14h38.40.909,Main,2022.1.1,60.92352758777683,
positive,yellow,2,None,k,,,,,,,,,0,90,90,90,,,,,,,,,,,,,,,,,main,k,k,1,0.49927209998713806,341.63727129995823,None,None,0,,,,,,,,,,,,,,103,2023-04-20_14h38.40.909,Main,2022.1.1,60.92352758777683,
negative,yellow,1,k,None,,,,,,,,,0,91,91,91,,,,,,,,,,,,,,,,,main,None,None,1,1.498235399951227,343.1348915999988,None,None,1,,,,,,,,,,,,,,103,2023-04-20_14h38.40.909,Main,2022.1.1,60.92352758777683,
negative,red,2,None,None,,,,,,,,,0,92,92,92,,,,,,,,,,,,,,,,,main,None,None,1,1.5029084999696352,345.6344048999599,None,None,1,,,,,,,,,,,,,,103,2023-04-20_14h38.40.909,Main,2022.1.1,60.92352758777683,
negative,blue,2,None,k,,,,,,,,,0,93,93,93,,,,,,,,,,,,,,,,,main,k,k,1,0.5783252999535762,348.1347458999953,None,None,0,,,,,,,,,,,,,,103,2023-04-20_14h38.40.909,Main,2022.1.1,60.92352758777683,
negative,blue,1,None,k,,,,,,,,,0,94,94,94,,,,,,,,,,,,,,,,,main,k,k,1,0.5154226999729872,349.720462199999,None,None,0,,,,,,,,,,,,,,103,2023-04-20_14h38.40.909,Main,2022.1.1,60.92352758777683,
negative,blue,1,None,k,,,,,,,,,0,95,95,95,,,,,,,,,,,,,,,,,main,k,k,1,0.5325850999797694,351.23430989996996,None,None,0,,,,,,,,,,,,,,103,2023-04-20_14h38.40.909,Main,2022.1.1,60.92352758777683,
negative,red,1,None,None,,,,,,,,,0,96,96,96,,,,,,,,,,,,,,,,,main,None,None,1,1.5019248999888077,352.7677124000038,None,None,1,,,,,,,,,,,,,,103,2023-04-20_14h38.40.909,Main,2022.1.1,60.92352758777683,
positive,yellow,1,None,k,,,,,,,,,0,97,97,97,,,,,,,,,,,,,,,,,main,k,k,1,0.7463655999745242,355.27035050000995,None,None,0,,,,,,,,,,,,,,103,2023-04-20_14h38.40.909,Main,2022.1.1,60.92352758777683,
negative,yellow,1,k,None,,,,,,,,,0,98,98,98,,,,,,,,,,,,,,,,,main,None,None,1,1.5019079000339843,357.01750939997146,None,None,1,,,,,,,,,,,,,,103,2023-04-20_14h38.40.909,Main,2022.1.1,60.92352758777683,
positive,red,1,None,None,,,,,,,,,0,99,99,99,,,,,,,,,,,,,,,,,main,None,None,1,1.4991371000069194,359.51799219998065,None,None,1,,,,,,,,,,,,,,103,2023-04-20_14h38.40.909,Main,2022.1.1,60.92352758777683,
positive,blue,1,k,None,,,,,,,,,0,100,100,100,,,,,,,,,,,,,,,,,main,None,None,1,1.4967228000168689,362.02026299998397,None,None,1,,,,,,,,,,,,,,103,2023-04-20_14h38.40.909,Main,2022.1.1,60.92352758777683,
negative,yellow,1,k,None,,,,,,,,,0,101,101,101,,,,,,,,,,,,,,,,,main,None,k,0,0.5659771000500768,364.51741339999717,None,None,1,,,,,,,,,,,,,,103,2023-04-20_14h38.40.909,Main,2022.1.1,60.92352758777683,
negative,blue,2,None,k,,,,,,,,,0,102,102,102,,,,,,,,,,,,,,,,,main,k,k,1,0.7319121999898925,367.0868627000018,None,None,0,,,,,,,,,,,,,,103,2023-04-20_14h38.40.909,Main,2022.1.1,60.92352758777683,
negative,yellow,2,k,None,,,,,,,,,0,103,103,103,,,,,,,,,,,,,,,,,main,None,None,1,1.5015301000094041,368.8172653999645,None,None,1,,,,,,,,,,,,,,103,2023-04-20_14h38.40.909,Main,2022.1.1,60.92352758777683,
positive,yellow,2,None,k,,,,,,,,,0,104,104,104,,,,,,,,,,,,,,,,,main,k,k,1,0.5491307999473065,371.3176308000111,None,None,0,,,,,,,,,,,,,,103,2023-04-20_14h38.40.909,Main,2022.1.1,60.92352758777683,
positive,blue,1,k,None,,,,,,,,,0,105,105,105,,,,,,,,,,,,,,,,,main,None,None,1,1.4965030999737792,372.8699101000093,None,None,1,,,,,,,,,,,,,,103,2023-04-20_14h38.40.909,Main,2022.1.1,60.92352758777683,
positive,blue,2,k,None,,,,,,,,,0,106,106,106,,,,,,,,,,,,,,,,,main,None,None,1,1.4994804000016302,375.3671512999572,None,None,1,,,,,,,,,,,,,,103,2023-04-20_14h38.40.909,Main,2022.1.1,60.92352758777683,
negative,blue,1,None,k,,,,,,,,,0,107,107,107,,,,,,,,,,,,,,,,,main,k,k,1,0.7178359000245109,377.8699809999671,None,None,0,,,,,,,,,,,,,,103,2023-04-20_14h38.40.909,Main,2022.1.1,60.92352758777683,
positive,yellow,2,None,k,,,,,,,,,0,108,108,108,,,,,,,,,,,,,,,,,main,k,k,1,0.5798119000392035,379.5864214999601,None,None,0,,,,,,,,,,,,,,103,2023-04-20_14h38.40.909,Main,2022.1.1,60.92352758777683,
negative,yellow,1,k,None,,,,,,,,,0,109,109,109,,,,,,,,,,,,,,,,,main,None,None,1,1.5020426999544725,381.16701519995695,None,None,1,,,,,,,,,,,,,,103,2023-04-20_14h38.40.909,Main,2022.1.1,60.92352758777683,
negative,blue,2,None,k,,,,,,,,,0,110,110,110,,,,,,,,,,,,,,,,,main,k,k,1,0.6492497999570332,383.66963509999914,None,None,0,,,,,,,,,,,,,,103,2023-04-20_14h38.40.909,Main,2022.1.1,60.92352758777683,
positive,blue,2,k,None,,,,,,,,,0,111,111,111,,,,,,,,,,,,,,,,,main,None,None,1,1.496050599962473,385.3173562999582,None,None,1,,,,,,,,,,,,,,103,2023-04-20_14h38.40.909,Main,2022.1.1,60.92352758777683,
negative,blue,1,None,k,,,,,,,,,0,112,112,112,,,,,,,,,,,,,,,,,main,k,k,1,0.6854454000131227,387.81687599996803,None,None,0,,,,,,,,,,,,,,103,2023-04-20_14h38.40.909,Main,2022.1.1,60.92352758777683,
positive,yellow,1,None,k,,,,,,,,,0,113,113,113,,,,,,,,,,,,,,,,,main,k,k,1,0.5657582000130787,389.5005758999614,None,None,0,,,,,,,,,,,,,,103,2023-04-20_14h38.40.909,Main,2022.1.1,60.92352758777683,
negative,red,1,None,None,,,,,,,,,0,114,114,114,,,,,,,,,,,,,,,,,main,None,None,1,1.4954250999726355,391.06943089998094,None,None,1,,,,,,,,,,,,,,103,2023-04-20_14h38.40.909,Main,2022.1.1,60.92352758777683,
positive,red,1,None,None,,,,,,,,,0,115,115,115,,,,,,,,,,,,,,,,,main,None,None,1,1.501949799945578,393.56672949995846,None,None,1,,,,,,,,,,,,,,103,2023-04-20_14h38.40.909,Main,2022.1.1,60.92352758777683,
negative,red,2,None,None,,,,,,,,,0,116,116,116,,,,,,,,,,,,,,,,,main,None,None,1,1.4992064000107348,396.0671186000109,None,None,1,,,,,,,,,,,,,,103,2023-04-20_14h38.40.909,Main,2022.1.1,60.92352758777683,
negative,yellow,2,k,None,,,,,,,,,0,117,117,117,,,,,,,,,,,,,,,,,main,None,None,1,1.4963435000390746,398.5669005999807,None,None,1,,,,,,,,,,,,,,103,2023-04-20_14h38.40.909,Main,2022.1.1,60.92352758777683,
positive,yellow,1,None,k,,,,,,,,,0,118,118,118,,,,,,,,,,,,,,,,,main,k,k,1,0.6497389999567531,401.0666494999896,None,None,0,,,,,,,,,,,,,,103,2023-04-20_14h38.40.909,Main,2022.1.1,60.92352758777683,
positive,red,2,None,None,,,,,,,,,0,119,119,119,,,,,,,,,,,,,,,,,main,None,None,1,1.4986217000405304,402.71939019998536,None,None,1,,,,,,,,,,,,,,103,2023-04-20_14h38.40.909,Main,2022.1.1,60.92352758777683,
positive,blue,2,k,None,,,,,,,,,0,120,120,120,,,,,,,,,,,,,,,,,main,None,None,1,1.5023301999899559,405.2165072999778,None,None,1,,,,,,,,,,,,,,103,2023-04-20_14h38.40.909,Main,2022.1.1,60.92352758777683,
negative,red,1,None,None,,,,,,,,,0,121,121,121,,,,,,,,,,,,,,,,,main,None,None,1,1.499665500014089,407.71920059999684,None,None,1,,,,,,,,,,,,,,103,2023-04-20_14h38.40.909,Main,2022.1.1,60.92352758777683,
positive,yellow,2,None,k,,,,,,,,,0,122,122,122,,,,,,,,,,,,,,,,,main,k,k,1,0.7123869000351988,410.21685209998395,None,None,0,,,,,,,,,,,,,,103,2023-04-20_14h38.40.909,Main,2022.1.1,60.92352758777683,
negative,red,2,None,None,,,,,,,,,0,123,123,123,,,,,,,,,,,,,,,,,main,None,None,1,1.5017578999977559,411.9330390999676,None,None,1,,,,,,,,,,,,,,103,2023-04-20_14h38.40.909,Main,2022.1.1,60.92352758777683,
negative,yellow,2,k,None,,,,,,,,,0,124,124,124,,,,,,,,,,,,,,,,,main,None,None,1,1.496091199980583,414.4334020999959,None,None,1,,,,,,,,,,,,,,103,2023-04-20_14h38.40.909,Main,2022.1.1,60.92352758777683,
positive,red,1,None,None,,,,,,,,,0,125,125,125,,,,,,,,,,,,,,,,,main,None,None,1,1.5020972000202164,416.93292069999734,None,None,1,,,,,,,,,,,,,,103,2023-04-20_14h38.40.909,Main,2022.1.1,60.92352758777683,
negative,blue,2,None,k,,,,,,,,,0,126,126,126,,,,,,,,,,,,,,,,,main,k,k,1,0.665727199986577,419.43326610000804,None,None,0,,,,,,,,,,,,,,103,2023-04-20_14h38.40.909,Main,2022.1.1,60.92352758777683,
negative,blue,1,None,k,,,,,,,,,0,127,127,127,,,,,,,,,,,,,,,,,main,k,k,1,0.6132718999870121,421.1021950999857,None,None,0,,,,,,,,,,,,,,103,2023-04-20_14h38.40.909,Main,2022.1.1,60.92352758777683,
negative,yellow,1,k,None,,,,,,,,,0,128,128,128,,,,,,,,,,,,,,,,,main,None,None,1,1.4985754999797791,422.721705199976,None,None,1,,,,,,,,,,,,,,103,2023-04-20_14h38.40.909,Main,2022.1.1,60.92352758777683,
negative,yellow,1,k,None,,,,,,,,,0,129,129,129,,,,,,,,,,,,,,,,,main,None,None,1,1.502034199947957,425.21617109997896,None,None,1,,,,,,,,,,,,,,103,2023-04-20_14h38.40.909,Main,2022.1.1,60.92352758777683,
positive,blue,1,k,None,,,,,,,,,0,130,130,130,,,,,,,,,,,,,,,,,main,None,None,1,1.4963704000110738,427.7188909999677,None,None,1,,,,,,,,,,,,,,103,2023-04-20_14h38.40.909,Main,2022.1.1,60.92352758777683,
negative,blue,1,None,k,,,,,,,,,0,131,131,131,,,,,,,,,,,,,,,,,main,k,k,1,0.5686186000239104,430.2160240999656,None,None,0,,,,,,,,,,,,,,103,2023-04-20_14h38.40.909,Main,2022.1.1,60.92352758777683,
negative,blue,2,None,k,,,,,,,,,0,132,132,132,,,,,,,,,,,,,,,,,main,k,k,1,0.5826470999745652,431.78303839999717,None,None,0,,,,,,,,,,,,,,103,2023-04-20_14h38.40.909,Main,2022.1.1,60.92352758777683,
positive,blue,2,k,None,,,,,,,,,0,133,133,133,,,,,,,,,,,,,,,,,main,None,None,1,1.4962973999790847,433.3685482000001,None,None,1,,,,,,,,,,,,,,103,2023-04-20_14h38.40.909,Main,2022.1.1,60.92352758777683,
positive,red,2,None,None,,,,,,,,,0,134,134,134,,,,,,,,,,,,,,,,,main,None,None,1,1.501863899989985,435.8660549999913,None,None,1,,,,,,,,,,,,,,103,2023-04-20_14h38.40.909,Main,2022.1.1,60.92352758777683,
negative,yellow,2,k,None,,,,,,,,,0,135,135,135,,,,,,,,,,,,,,,,,main,None,None,1,1.503474599972833,438.3662550000008,None,None,1,,,,,,,,,,,,,,103,2023-04-20_14h38.40.909,Main,2022.1.1,60.92352758777683,
positive,yellow,2,None,k,,,,,,,,,0,136,136,136,,,,,,,,,,,,,,,,,main,k,k,1,0.5586191999609582,440.87737699999707,None,None,0,,,,,,,,,,,,,,103,2023-04-20_14h38.40.909,Main,2022.1.1,60.92352758777683,
positive,blue,1,k,None,,,,,,,,,0,137,137,137,,,,,,,,,,,,,,,,,main,None,None,1,1.5015405000303872,442.4323958999594,None,None,1,,,,,,,,,,,,,,103,2023-04-20_14h38.40.909,Main,2022.1.1,60.92352758777683,
positive,yellow,1,None,k,,,,,,,,,0,138,138,138,,,,,,,,,,,,,,,,,main,k,k,1,0.6635911999619566,444.9327652999782,None,None,0,,,,,,,,,,,,,,103,2023-04-20_14h38.40.909,Main,2022.1.1,60.92352758777683,
positive,yellow,1,None,k,,,,,,,,,0,139,139,139,,,,,,,,,,,,,,,,,main,k,k,1,0.615190300042741,446.6018155000056,None,None,0,,,,,,,,,,,,,,103,2023-04-20_14h38.40.909,Main,2022.1.1,60.92352758777683,
positive,yellow,1,None,k,,,,,,,,,0,140,140,140,,,,,,,,,,,,,,,,,main,k,k,1,0.535270499996841,448.21563009999227,None,None,0,,,,,,,,,,,,,,103,2023-04-20_14h38.40.909,Main,2022.1.1,60.92352758777683,
positive,blue,1,k,None,,,,,,,,,0,141,141,141,,,,,,,,,,,,,,,,,main,None,None,1,1.4991187999839894,449.751755699981,None,None,1,,,,,,,,,,,,,,103,2023-04-20_14h38.40.909,Main,2022.1.1,60.92352758777683,
positive,blue,2,k,None,,,,,,,,,0,142,142,142,,,,,,,,,,,,,,,,,main,None,None,1,1.4965841000084765,452.2492809999967,None,None,1,,,,,,,,,,,,,,103,2023-04-20_14h38.40.909,Main,2022.1.1,60.92352758777683,
positive,yellow,2,None,k,,,,,,,,,0,143,143,143,,,,,,,,,,,,,,,,,main,k,k,1,0.7160176000325009,454.7491073999554,None,None,0,,,,,,,,,,,,,,103,2023-04-20_14h38.40.909,Main,2022.1.1,60.92352758777683,
negative,yellow,2,k,None,,,,,,,,,0,144,144,144,,,,,,,,,,,,,,,,,main,None,None,1,1.4986076999921352,456.4657816999825,None,None,1,,,,,,,,,,,,,,103,2023-04-20_14h38.40.909,Main,2022.1.1,60.92352758777683,
negative,blue,2,None,k,,,,,,,,,0,145,145,145,,,,,,,,,,,,,,,,,main,k,k,1,0.5324217000161298,458.9654397999984,None,None,0,,,,,,,,,,,,,,103,2023-04-20_14h38.40.909,Main,2022.1.1,60.92352758777683,
negative,red,1,None,None,,,,,,,,,0,146,146,146,,,,,,,,,,,,,,,,,main,None,None,1,1.4996231999830343,460.49875929998234,None,None,1,,,,,,,,,,,,,,103,2023-04-20_14h38.40.909,Main,2022.1.1,60.92352758777683,
positive,blue,1,k,None,,,,,,,,,0,147,147,147,,,,,,,,,,,,,,,,,main,None,None,1,1.4995884000090882,463.00151759997243,None,None,1,,,,,,,,,,,,,,103,2023-04-20_14h38.40.909,Main,2022.1.1,60.92352758777683,
positive,yellow,1,None,k,,,,,,,,,0,148,148,148,,,,,,,,,,,,,,,,,main,k,k,1,0.7640776999760419,465.5012606999953,None,None,0,,,,,,,,,,,,,,103,2023-04-20_14h38.40.909,Main,2022.1.1,60.92352758777683,
negative,red,2,None,None,,,,,,,,,0,149,149,149,,,,,,,,,,,,,,,,,main,None,None,1,1.4993468000320718,467.2652551999781,None,None,1,,,,,,,,,,,,,,103,2023-04-20_14h38.40.909,Main,2022.1.1,60.92352758777683,
negative,blue,1,None,k,,,,,,,,,0,150,150,150,,,,,,,,,,,,,,,,,main,k,k,1,0.7161763999611139,469.7652195999981,None,None,0,,,,,,,,,,,,,,103,2023-04-20_14h38.40.909,Main,2022.1.1,60.92352758777683,
negative,yellow,2,k,None,,,,,,,,,0,151,151,151,,,,,,,,,,,,,,,,,main,None,None,1,1.5012127000372857,471.4846155999694,None,None,1,,,,,,,,,,,,,,103,2023-04-20_14h38.40.909,Main,2022.1.1,60.92352758777683,
negative,blue,2,None,k,,,,,,,,,0,152,152,152,,,,,,,,,,,,,,,,,main,k,k,1,0.6630318000097759,473.984543700004,None,None,0,,,,,,,,,,,,,,103,2023-04-20_14h38.40.909,Main,2022.1.1,60.92352758777683,
negative,yellow,1,k,None,,,,,,,,,0,153,153,153,,,,,,,,,,,,,,,,,main,None,None,1,1.5022392999962904,475.6484169999603,None,None,1,,,,,,,,,,,,,,103,2023-04-20_14h38.40.909,Main,2022.1.1,60.92352758777683,
negative,blue,1,None,k,,,,,,,,,0,154,154,154,,,,,,,,,,,,,,,,,main,k,k,1,0.6319550000480376,478.14880109997466,None,None,0,,,,,,,,,,,,,,103,2023-04-20_14h38.40.909,Main,2022.1.1,60.92352758777683,
positive,yellow,2,None,k,,,,,,,,,0,155,155,155,,,,,,,,,,,,,,,,,main,k,k,1,0.6299081000033766,479.78435919998446,None,None,0,,,,,,,,,,,,,,103,2023-04-20_14h38.40.909,Main,2022.1.1,60.92352758777683,
positive,red,2,None,None,,,,,,,,,0,156,156,156,,,,,,,,,,,,,,,,,main,None,None,1,1.5017319999751635,481.4149400999886,None,None,1,,,,,,,,,,,,,,103,2023-04-20_14h38.40.909,Main,2022.1.1,60.92352758777683,
positive,red,1,None,None,,,,,,,,,0,157,157,157,,,,,,,,,,,,,,,,,main,None,None,1,1.4982945999945514,483.9152929999982,None,None,1,,,,,,,,,,,,,,103,2023-04-20_14h38.40.909,Main,2022.1.1,60.92352758777683,
positive,blue,2,k,None,,,,,,,,,0,158,158,158,,,,,,,,,,,,,,,,,main,None,None,1,1.4973483000067063,486.41482800000813,None,None,1,,,,,,,,,,,,,,103,2023-04-20_14h38.40.909,Main,2022.1.1,60.92352758777683,
negative,yellow,1,k,None,,,,,,,,,0,159,159,159,,,,,,,,,,,,,,,,,main,None,None,1,1.5017926000291482,488.91521840001224,None,None,1,,,,,,,,,,,,,,103,2023-04-20_14h38.40.909,Main,2022.1.1,60.92352758777683,
negative,red,2,None,None,,,,,,,,,0,160,160,160,,,,,,,,,,,,,,,,,main,None,None,1,1.4968962999992073,491.4151562000043,None,None,1,,,,,,,,,,,,,,103,2023-04-20_14h38.40.909,Main,2022.1.1,60.92352758777683,
negative,blue,1,None,k,,,,,,,,,0,161,161,161,,,,,,,,,,,,,,,,,main,k,k,1,0.6509997000102885,493.9146768999635,None,None,0,,,,,,,,,,,,,,103,2023-04-20_14h38.40.909,Main,2022.1.1,60.92352758777683,
negative,blue,1,None,k,,,,,,,,,0,162,162,162,,,,,,,,,,,,,,,,,main,k,k,1,0.5157500999630429,495.567417299957,None,None,0,,,,,,,,,,,,,,103,2023-04-20_14h38.40.909,Main,2022.1.1,60.92352758777683,
negative,yellow,1,k,None,,,,,,,,,0,163,163,163,,,,,,,,,,,,,,,,,main,None,None,1,1.4967047999962233,497.084052399965,None,None,1,,,,,,,,,,,,,,103,2023-04-20_14h38.40.909,Main,2022.1.1,60.92352758777683,
negative,yellow,1,k,None,,,,,,,,,0,164,164,164,,,,,,,,,,,,,,,,,main,None,None,1,1.5018185999942943,499.5812317999662,None,None,1,,,,,,,,,,,,,,103,2023-04-20_14h38.40.909,Main,2022.1.1,60.92352758777683,
positive,yellow,1,None,k,,,,,,,,,0,165,165,165,,,,,,,,,,,,,,,,,main,k,k,1,0.5466376999975182,502.083925599989,None,None,0,,,,,,,,,,,,,,103,2023-04-20_14h38.40.909,Main,2022.1.1,60.92352758777683,
negative,red,1,None,None,,,,,,,,,0,166,166,166,,,,,,,,,,,,,,,,,main,None,None,1,1.49841939995531,503.6315928999684,None,None,1,,,,,,,,,,,,,,103,2023-04-20_14h38.40.909,Main,2022.1.1,60.92352758777683,
negative,yellow,2,k,None,,,,,,,,,0,167,167,167,,,,,,,,,,,,,,,,,main,None,None,1,1.5023192000226118,506.1310867999564,None,None,1,,,,,,,,,,,,,,103,2023-04-20_14h38.40.909,Main,2022.1.1,60.92352758777683,
positive,blue,2,k,None,,,,,,,,,0,168,168,168,,,,,,,,,,,,,,,,,main,None,None,1,1.5002101000281982,508.63149880000856,None,None,1,,,,,,,,,,,,,,103,2023-04-20_14h38.40.909,Main,2022.1.1,60.92352758777683,
positive,red,2,None,None,,,,,,,,,0,169,169,169,,,,,,,,,,,,,,,,,main,None,None,1,1.4976746999891475,511.1310036999639,None,None,1,,,,,,,,,,,,,,103,2023-04-20_14h38.40.909,Main,2022.1.1,60.92352758777683,
positive,red,1,None,None,,,,,,,,,0,170,170,170,,,,,,,,,,,,,,,,,main,None,None,1,1.49559780000709,513.6313654999831,None,None,1,,,,,,,,,,,,,,103,2023-04-20_14h38.40.909,Main,2022.1.1,60.92352758777683,
negative,blue,2,None,k,,,,,,,,,0,171,171,171,,,,,,,,,,,,,,,,,main,k,k,1,0.8154876999906264,516.1336523999926,None,None,0,,,,,,,,,,,,,,103,2023-04-20_14h38.40.909,Main,2022.1.1,60.92352758777683,
positive,blue,2,k,None,,,,,,,,,0,172,172,172,,,,,,,,,,,,,,,,,main,None,None,1,1.4995316999848,517.9475141000003,None,None,1,,,,,,,,,,,,,,103,2023-04-20_14h38.40.909,Main,2022.1.1,60.92352758777683,
negative,yellow,2,k,None,,,,,,,,,0,173,173,173,,,,,,,,,,,,,,,,,main,None,None,1,1.4986759999883361,520.4508407000103,None,None,1,,,,,,,,,,,,,,103,2023-04-20_14h38.40.909,Main,2022.1.1,60.92352758777683,
positive,yellow,2,None,k,,,,,,,,,0,174,174,174,,,,,,,,,,,,,,,,,main,k,k,1,0.69935400004033,522.947417599964,None,None,0,,,,,,,,,,,,,,103,2023-04-20_14h38.40.909,Main,2022.1.1,60.92352758777683,
negative,blue,2,None,k,,,,,,,,,0,175,175,175,,,,,,,,,,,,,,,,,main,k,k,1,0.602041799982544,524.6474553999724,None,None,0,,,,,,,,,,,,,,103,2023-04-20_14h38.40.909,Main,2022.1.1,60.92352758777683,
positive,blue,1,k,None,,,,,,,,,0,176,176,176,,,,,,,,,,,,,,,,,main,None,None,1,1.4961053000297397,526.2501021999633,None,None,1,,,,,,,,,,,,,,103,2023-04-20_14h38.40.909,Main,2022.1.1,60.92352758777683,
positive,yellow,1,None,k,,,,,,,,,0,177,177,177,,,,,,,,,,,,,,,,,main,k,k,1,0.5826109999907203,528.7473097000038,None,None,0,,,,,,,,,,,,,,103,2023-04-20_14h38.40.909,Main,2022.1.1,60.92352758777683,
positive,blue,1,k,None,,,,,,,,,0,178,178,178,,,,,,,,,,,,,,,,,main,None,None,1,1.499628700024914,530.3306519999751,None,None,1,,,,,,,,,,,,,,103,2023-04-20_14h38.40.909,Main,2022.1.1,60.92352758777683,
positive,yellow,2,None,k,,,,,,,,,0,179,179,179,,,,,,,,,,,,,,,,,main,k,k,1,0.5877332999953069,532.8309772000066,None,None,0,,,,,,,,,,,,,,103,2023-04-20_14h38.40.909,Main,2022.1.1,60.92352758777683,
positive,blue,1,k,None,,,,,,,,,0,180,180,180,,,,,,,,,,,,,,,,,main,None,None,1,1.4930463000200689,534.4229063999956,None,None,1,,,,,,,,,,,,,,103,2023-04-20_14h38.40.909,Main,2022.1.1,60.92352758777683,
negative,red,1,None,None,,,,,,,,,0,181,181,181,,,,,,,,,,,,,,,,,main,None,None,1,1.501776900026016,536.9138610999798,None,None,1,,,,,,,,,,,,,,103,2023-04-20_14h38.40.909,Main,2022.1.1,60.92352758777683,
negative,blue,1,None,k,,,,,,,,,0,182,182,182,,,,,,,,,,,,,,,,,main,k,k,1,0.6466441000229679,539.4164416999556,None,None,0,,,,,,,,,,,,,,103,2023-04-20_14h38.40.909,Main,2022.1.1,60.92352758777683,
negative,yellow,2,k,None,,,,,,,,,0,183,183,183,,,,,,,,,,,,,,,,,main,None,None,1,1.4993792999885045,541.0637295999913,None,None,1,,,,,,,,,,,,,,103,2023-04-20_14h38.40.909,Main,2022.1.1,60.92352758777683,
positive,yellow,2,None,k,,,,,,,,,0,184,184,184,,,,,,,,,,,,,,,,,main,k,k,1,0.5829667000216432,543.5664228000096,None,None,0,,,,,,,,,,,,,,103,2023-04-20_14h38.40.909,Main,2022.1.1,60.92352758777683,
positive,yellow,1,None,k,,,,,,,,,0,185,185,185,,,,,,,,,,,,,,,,,main,k,k,1,0.5983578999876045,545.1496131999884,None,None,0,,,,,,,,,,,,,,103,2023-04-20_14h38.40.909,Main,2022.1.1,60.92352758777683,
positive,red,2,None,None,,,,,,,,,0,186,186,186,,,,,,,,,,,,,,,,,main,None,None,1,1.5020208000205457,546.7469255999895,None,None,1,,,,,,,,,,,,,,103,2023-04-20_14h38.40.909,Main,2022.1.1,60.92352758777683,
positive,blue,1,k,None,,,,,,,,,0,187,187,187,,,,,,,,,,,,,,,,,main,None,None,1,1.4990387000143528,549.2472918999847,None,None,1,,,,,,,,,,,,,,103,2023-04-20_14h38.40.909,Main,2022.1.1,60.92352758777683,
negative,yellow,1,k,None,,,,,,,,,0,188,188,188,,,,,,,,,,,,,,,,,main,None,None,1,1.496256300015375,551.7497240999946,None,None,1,,,,,,,,,,,,,,103,2023-04-20_14h38.40.909,Main,2022.1.1,60.92352758777683,
positive,yellow,2,None,k,,,,,,,,,0,189,189,189,,,,,,,,,,,,,,,,,main,k,k,1,0.601985200017225,554.2467559999786,None,None,0,,,,,,,,,,,,,,103,2023-04-20_14h38.40.909,Main,2022.1.1,60.92352758777683,
negative,yellow,2,k,None,,,,,,,,,0,190,190,190,,,,,,,,,,,,,,,,,main,None,None,1,1.498970000015106,555.8494818999898,None,None,1,,,,,,,,,,,,,,103,2023-04-20_14h38.40.909,Main,2022.1.1,60.92352758777683,
negative,yellow,1,k,None,,,,,,,,,0,191,191,191,,,,,,,,,,,,,,,,,main,None,None,1,1.496189699973911,558.3470997000113,None,None,1,,,,,,,,,,,,,,103,2023-04-20_14h38.40.909,Main,2022.1.1,60.92352758777683,
positive,blue,2,k,None,,,,,,,,,0,192,192,192,,,,,,,,,,,,,,,,,main,None,None,1,1.5019913999713026,560.8466985999839,None,None,1,,,,,,,,,,,,,,103,2023-04-20_14h38.40.909,Main,2022.1.1,60.92352758777683,
positive,yellow,1,None,k,,,,,,,,,0,193,193,193,,,,,,,,,,,,,,,,,main,k,k,1,0.5966028000111692,563.3470034999773,None,None,0,,,,,,,,,,,,,,103,2023-04-20_14h38.40.909,Main,2022.1.1,60.92352758777683,
negative,red,2,None,None,,,,,,,,,0,194,194,194,,,,,,,,,,,,,,,,,main,None,None,1,1.5019572000019252,564.9465499999933,None,None,1,,,,,,,,,,,,,,103,2023-04-20_14h38.40.909,Main,2022.1.1,60.92352758777683,
positive,red,1,None,None,,,,,,,,,0,195,195,195,,,,,,,,,,,,,,,,,main,None,None,1,1.4986897999770008,567.4492499000044,None,None,1,,,,,,,,,,,,,,103,2023-04-20_14h38.40.909,Main,2022.1.1,60.92352758777683,
negative,blue,1,None,k,,,,,,,,,0,196,196,196,,,,,,,,,,,,,,,,,main,k,k,1,0.6133979999576695,569.9469038000097,None,None,0,,,,,,,,,,,,,,103,2023-04-20_14h38.40.909,Main,2022.1.1,60.92352758777683,
positive,blue,2,k,None,,,,,,,,,0,197,197,197,,,,,,,,,,,,,,,,,main,None,None,1,1.5018185000517406,571.5630715999869,None,None,1,,,,,,,,,,,,,,103,2023-04-20_14h38.40.909,Main,2022.1.1,60.92352758777683,
negative,blue,2,None,k,,,,,,,,,0,198,198,198,,,,,,,,,,,,,,,,,main,k,k,1,0.6303319000289775,574.0634632000001,None,None,0,,,,,,,,,,,,,,103,2023-04-20_14h38.40.909,Main,2022.1.1,60.92352758777683,
negative,blue,2,None,k,,,,,,,,,0,199,199,199,,,,,,,,,,,,,,,,,main,k,k,1,0.548964999965392,575.6991800999967,None,None,0,,,,,,,,,,,,,,103,2023-04-20_14h38.40.909,Main,2022.1.1,60.92352758777683,
positive,blue,2,k,None,,,,,,,,,0,200,200,200,,,,,,,,,,,,,,,,,main,None,None,1,1.4987736999755725,577.2465952999773,None,None,1,,,,,,,,,,,,,,103,2023-04-20_14h38.40.909,Main,2022.1.1,60.92352758777683,
positive,blue,2,k,None,,,,,,,,,0,201,201,201,,,,,,,,,,,,,,,,,main,None,None,1,1.4991512999986298,579.7462637999561,None,None,1,,,,,,,,,,,,,,103,2023-04-20_14h38.40.909,Main,2022.1.1,60.92352758777683,
negative,yellow,2,k,None,,,,,,,,,0,202,202,202,,,,,,,,,,,,,,,,,main,None,None,1,1.5020383999799378,582.2462547000032,None,None,1,,,,,,,,,,,,,,103,2023-04-20_14h38.40.909,Main,2022.1.1,60.92352758777683,
positive,red,1,None,None,,,,,,,,,0,203,203,203,,,,,,,,,,,,,,,,,main,None,None,1,1.496355000010226,584.7489748999942,None,None,1,,,,,,,,,,,,,,103,2023-04-20_14h38.40.909,Main,2022.1.1,60.92352758777683,
negative,blue,2,None,k,,,,,,,,,0,204,204,204,,,,,,,,,,,,,,,,,main,k,k,1,0.6184947000001557,587.2462599999853,None,None,0,,,,,,,,,,,,,,103,2023-04-20_14h38.40.909,Main,2022.1.1,60.92352758777683,
negative,red,1,None,None,,,,,,,,,0,205,205,205,,,,,,,,,,,,,,,,,main,None,None,1,1.4992413999862038,588.8653774999548,None,None,1,,,,,,,,,,,,,,103,2023-04-20_14h38.40.909,Main,2022.1.1,60.92352758777683,
negative,blue,2,None,k,,,,,,,,,0,206,206,206,,,,,,,,,,,,,,,,,main,k,k,1,0.7462461999966763,591.3654945999733,None,None,0,,,,,,,,,,,,,,103,2023-04-20_14h38.40.909,Main,2022.1.1,60.92352758777683,
negative,yellow,2,k,None,,,,,,,,,0,207,207,207,,,,,,,,,,,,,,,,,main,None,None,1,1.5019016999867745,593.1126359999762,None,None,1,,,,,,,,,,,,,,103,2023-04-20_14h38.40.909,Main,2022.1.1,60.92352758777683,
positive,yellow,2,None,k,,,,,,,,,0,208,208,208,,,,,,,,,,,,,,,,,main,k,k,1,0.5159490000223741,595.6129890999873,None,None,0,,,,,,,,,,,,,,103,2023-04-20_14h38.40.909,Main,2022.1.1,60.92352758777683,
negative,yellow,1,k,None,,,,,,,,,0,209,209,209,,,,,,,,,,,,,,,,,main,None,None,1,1.496245899994392,597.131954499986,None,None,1,,,,,,,,,,,,,,103,2023-04-20_14h38.40.909,Main,2022.1.1,60.92352758777683,
negative,red,2,None,None,,,,,,,,,0,210,210,210,,,,,,,,,,,,,,,,,main,None,None,1,1.502039999992121,599.6291771999677,None,None,1,,,,,,,,,,,,,,103,2023-04-20_14h38.40.909,Main,2022.1.1,60.92352758777683,
negative,blue,1,None,k,,,,,,,,,0,211,211,211,,,,,,,,,,,,,,,,,main,k,k,1,0.5323619999689981,602.1319352999562,None,None,0,,,,,,,,,,,,,,103,2023-04-20_14h38.40.909,Main,2022.1.1,60.92352758777683,
negative,yellow,1,k,None,,,,,,,,,0,212,212,212,,,,,,,,,,,,,,,,,main,None,None,1,1.4965458000078797,603.6652754999814,None,None,1,,,,,,,,,,,,,,103,2023-04-20_14h38.40.909,Main,2022.1.1,60.92352758777683,
positive,blue,1,k,None,,,,,,,,,0,213,213,213,,,,,,,,,,,,,,,,,main,None,None,1,1.502633199968841,606.1624362999573,None,None,1,,,,,,,,,,,,,,103,2023-04-20_14h38.40.909,Main,2022.1.1,60.92352758777683,
positive,blue,1,k,None,,,,,,,,,0,214,214,214,,,,,,,,,,,,,,,,,main,None,None,1,1.4983853999874555,608.6627405000036,None,None,1,,,,,,,,,,,,,,103,2023-04-20_14h38.40.909,Main,2022.1.1,60.92352758777683,
positive,yellow,1,None,k,,,,,,,,,0,215,215,215,,,,,,,,,,,,,,,,,main,k,k,1,0.6020160000189207,611.16256659996,None,None,0,,,,,,,,,,,,,,103,2023-04-20_14h38.40.909,Main,2022.1.1,60.92352758777683,
positive,yellow,1,None,k,,,,,,,,,0,216,216,216,,,,,,,,,,,,,,,,,main,k,k,1,0.5765170999802649,612.771650300012,None,None,0,,,,,,,,,,,,,,103,2023-04-20_14h38.40.909,Main,2022.1.1,60.92352758777683,
positive,yellow,2,None,k,,,,,,,,,0,217,217,217,,,,,,,,,,,,,,,,,main,k,k,1,0.8516981000429951,614.3455391000025,None,None,0,,,,,,,,,,,,,,103,2023-04-20_14h38.40.909,Main,2022.1.1,60.92352758777683,
negative,blue,1,None,k,,,,,,,,,0,218,218,218,,,,,,,,,,,,,,,,,main,k,k,1,0.5326456999755464,616.1981551999925,None,None,0,,,,,,,,,,,,,,103,2023-04-20_14h38.40.909,Main,2022.1.1,60.92352758777683,
positive,red,2,None,None,,,,,,,,,0,219,219,219,,,,,,,,,,,,,,,,,main,None,None,1,1.4986091000027955,617.7315245000063,None,None,1,,,,,,,,,,,,,,103,2023-04-20_14h38.40.909,Main,2022.1.1,60.92352758777683,
positive,yellow,1,None,k,,,,,,,,,0,220,220,220,,,,,,,,,,,,,,,,,main,k,k,1,0.6825531999929808,620.2290559000103,None,None,0,,,,,,,,,,,,,,103,2023-04-20_14h38.40.909,Main,2022.1.1,60.92352758777683,
positive,blue,1,k,None,,,,,,,,,0,221,221,221,,,,,,,,,,,,,,,,,main,None,None,1,1.4990553999668919,621.9123843999696,None,None,1,,,,,,,,,,,,,,103,2023-04-20_14h38.40.909,Main,2022.1.1,60.92352758777683,
positive,yellow,2,None,k,,,,,,,,,0,222,222,222,,,,,,,,,,,,,,,,,main,k,k,1,0.5827125000068918,624.4145834000083,None,None,0,,,,,,,,,,,,,,103,2023-04-20_14h38.40.909,Main,2022.1.1,60.92352758777683,
negative,yellow,1,k,None,,,,,,,,,0,223,223,223,,,,,,,,,,,,,,,,,main,None,None,1,1.4989346000365913,625.9978485999745,None,None,1,,,,,,,,,,,,,,103,2023-04-20_14h38.40.909,Main,2022.1.1,60.92352758777683,
positive,yellow,2,None,k,,,,,,,,,0,224,224,224,,,,,,,,,,,,,,,,,main,k,k,1,0.49921989999711514,628.4954763999558,None,None,0,,,,,,,,,,,,,,103,2023-04-20_14h38.40.909,Main,2022.1.1,60.92352758777683,
negative,yellow,2,k,None,,,,,,,,,0,225,225,225,,,,,,,,,,,,,,,,,main,None,None,1,1.4989478000206873,629.997698799998,None,None,1,,,,,,,,,,,,,,103,2023-04-20_14h38.40.909,Main,2022.1.1,60.92352758777683,
negative,blue,2,None,k,,,,,,,,,0,226,226,226,,,,,,,,,,,,,,,,,main,k,k,1,0.6329064999590628,632.4977616000106,None,None,0,,,,,,,,,,,,,,103,2023-04-20_14h38.40.909,Main,2022.1.1,60.92352758777683,
positive,red,2,None,None,,,,,,,,,0,227,227,227,,,,,,,,,,,,,,,,,main,None,None,1,1.4969268999993801,634.1309719999554,None,None,1,,,,,,,,,,,,,,103,2023-04-20_14h38.40.909,Main,2022.1.1,60.92352758777683,
positive,blue,2,k,None,,,,,,,,,0,228,228,228,,,,,,,,,,,,,,,,,main,None,None,1,1.5010119000216946,636.6309507999686,None,None,1,,,,,,,,,,,,,,103,2023-04-20_14h38.40.909,Main,2022.1.1,60.92352758777683,
negative,blue,1,None,k,,,,,,,,,0,229,229,229,,,,,,,,,,,,,,,,,main,k,k,1,0.6638726000091992,639.1310395000037,None,None,0,,,,,,,,,,,,,,103,2023-04-20_14h38.40.909,Main,2022.1.1,60.92352758777683,
positive,yellow,1,None,k,,,,,,,,,0,230,230,230,,,,,,,,,,,,,,,,,main,k,k,1,0.6157327999826521,640.7952091000043,None,None,0,,,,,,,,,,,,,,103,2023-04-20_14h38.40.909,Main,2022.1.1,60.92352758777683,
negative,blue,2,None,k,,,,,,,,,0,231,231,231,,,,,,,,,,,,,,,,,main,k,k,1,0.7659041999722831,642.4119008000125,None,None,0,,,,,,,,,,,,,,103,2023-04-20_14h38.40.909,Main,2022.1.1,60.92352758777683,
negative,red,1,None,None,,,,,,,,,0,232,232,232,,,,,,,,,,,,,,,,,main,None,k,0,1.301572899974417,644.1807601999608,None,None,1,,,,,,,,,,,,,,103,2023-04-20_14h38.40.909,Main,2022.1.1,60.92352758777683,
positive,blue,2,k,None,,,,,,,,,0,233,233,233,,,,,,,,,,,,,,,,,main,None,None,1,1.4872546999831684,647.4781740999897,None,None,1,,,,,,,,,,,,,,103,2023-04-20_14h38.40.909,Main,2022.1.1,60.92352758777683,
negative,yellow,1,k,None,,,,,,,,,0,234,234,234,,,,,,,,,,,,,,,,,main,None,None,1,1.4985973000293598,649.9642384999897,None,None,1,,,,,,,,,,,,,,103,2023-04-20_14h38.40.909,Main,2022.1.1,60.92352758777683,
negative,yellow,2,k,None,,,,,,,,,0,235,235,235,,,,,,,,,,,,,,,,,main,None,None,1,1.4965434999903664,652.4641414000071,None,None,1,,,,,,,,,,,,,,103,2023-04-20_14h38.40.909,Main,2022.1.1,60.92352758777683,
positive,red,1,None,None,,,,,,,,,0,236,236,236,,,,,,,,,,,,,,,,,main,None,None,1,1.4991101000341587,654.9613894000067,None,None,1,,,,,,,,,,,,,,103,2023-04-20_14h38.40.909,Main,2022.1.1,60.92352758777683,
negative,red,2,None,None,,,,,,,,,0,237,237,237,,,,,,,,,,,,,,,,,main,None,None,1,1.501963299990166,657.4613830999588,None,None,1,,,,,,,,,,,,,,103,2023-04-20_14h38.40.909,Main,2022.1.1,60.92352758777683,
negative,blue,1,None,k,,,,,,,,,0,238,238,238,,,,,,,,,,,,,,,,,main,k,k,1,0.7491349999909289,659.9639319999842,None,None,0,,,,,,,,,,,,,,103,2023-04-20_14h38.40.909,Main,2022.1.1,60.92352758777683,
positive,blue,1,k,None,,,,,,,,,0,239,239,239,,,,,,,,,,,,,,,,,main,None,None,1,1.4987758999923244,661.7137480999809,None,None,1,,,,,,,,,,,,,,103,2023-04-20_14h38.40.909,Main,2022.1.1,60.92352758777683,
,,,,,,,,,,,,,,,,,,,,,,,,,,,,,,,,,,,,,,,,,,,,,,,,,,,,,664.2136220000102,None,,,,,,
