distractor,target,set,ans1,ans2,rep_loop4.thisRepN,rep_loop4.thisTrialN,rep_loop4.thisN,rep_loop4.thisIndex,st2_prac_loop.thisRepN,st2_prac_loop.thisTrialN,st2_prac_loop.thisN,st2_prac_loop.thisIndex,st2_main_loop.thisRepN,st2_main_loop.thisTrialN,st2_main_loop.thisN,st2_main_loop.thisIndex,image_4.started,image_4.stopped,sound_2.started,sound_2.stopped,key_resp_3.keys,key_resp_3.rt,image_5.started,image_5.stopped,st_prac_back.started,st_prac_back.stopped,st_prac_text.started,st_prac_text.stopped,st_fix_back.started,st_fix_back.stopped,st_fix_2.started,st_fix_2.stopped,main_prac,st_ans,st_res,st_corr,st_rt,st_back.started,st_back.stopped,st2_resp.keys,st2_resp.corr,st_main_back.started,st_main_back.stopped,st_main_text.started,st_main_text.stopped,mouse_4.x,mouse_4.y,mouse_4.leftButton,mouse_4.midButton,mouse_4.rightButton,mouse_4.started,mouse_4.stopped,text_2.started,text_2.stopped,id*,date,expName,psychopyVersion,frameRate,
negative,yellow,1,k,None,,,,,0,0,0,0,,,,,115.17428100001416,None,118.99793353000423,None,space,9.3528119000257,128.3807036000071,None,130.8118233999994,None,130.8118233999994,None,132.81183280001278,None,132.81183280001278,None,prac,None,None,1,1.501607599988347,134.81860170001164,None,None,1,,,,,,,,,,,,,,105,2023-04-19_13h10.03.766,Main,2022.1.1,59.16018567507803,
positive,red,2,None,None,,,,,0,1,1,1,,,,,,,,,,,,,,,,,,,,,prac,None,None,1,1.5017106000159401,137.3281840000127,None,None,1,,,,,,,,,,,,,,105,2023-04-19_13h10.03.766,Main,2022.1.1,59.16018567507803,
negative,blue,2,None,k,,,,,0,2,2,2,,,,,,,,,,,,,,,,,,,,,prac,k,k,1,0.6994950999796856,139.83079910001834,None,None,0,,,,,,,,,,,,,,105,2023-04-19_13h10.03.766,Main,2022.1.1,59.16018567507803,
positive,yellow,1,None,k,,,,,0,3,3,3,,,,,,,,,,,,,,,,,,,,,prac,k,k,1,0.6320985999773256,141.53074040001957,None,None,0,,,,,,,,,,,,,,105,2023-04-19_13h10.03.766,Main,2022.1.1,59.16018567507803,
negative,blue,2,None,k,,,,,0,4,4,4,,,,,,,,,,,,,,,,,,,,,prac,k,k,1,0.5993587000120897,143.16394110000692,None,None,0,,,,,,,,,,,,,,105,2023-04-19_13h10.03.766,Main,2022.1.1,59.16018567507803,
negative,blue,1,None,k,,,,,0,5,5,5,,,,,,,,,,,,,,,,,,,,,prac,k,k,1,0.6130850999907125,144.76396310000564,None,None,0,,,,,,,,,,,,,,105,2023-04-19_13h10.03.766,Main,2022.1.1,59.16018567507803,
negative,yellow,2,k,None,,,,,0,6,6,6,,,,,,,,,,,,,,,,,,,,,prac,None,None,1,1.5016870999825187,146.3784618000209,None,None,1,,,,,,,,,,,,,,105,2023-04-19_13h10.03.766,Main,2022.1.1,59.16018567507803,
negative,red,1,None,None,,,,,0,7,7,7,,,,,,,,,,,,,,,,,,,,,prac,None,None,1,1.4990615000133403,148.87840050001978,None,None,1,,,,,,,,,,,,,,105,2023-04-19_13h10.03.766,Main,2022.1.1,59.16018567507803,
positive,yellow,2,None,k,,,,,0,8,8,8,,,,,,,,,,,,,,,,,,,,,prac,k,k,1,0.6966545000032056,151.3805629000126,None,None,0,,,,,,,,,,,,,,105,2023-04-19_13h10.03.766,Main,2022.1.1,59.16018567507803,
negative,yellow,1,k,None,,,,,0,9,9,9,,,,,,,,,,,,,,,,,,,,,prac,None,None,1,1.501734799996484,153.0778779000102,None,None,1,,,,,,,,,,,,,,105,2023-04-19_13h10.03.766,Main,2022.1.1,59.16018567507803,
positive,yellow,2,None,k,,,,,0,10,10,10,,,,,,,,,,,,,,,,,,,,,prac,k,k,1,0.6324393999821041,155.58053720000316,None,None,0,,,,,,,,,,,,,,105,2023-04-19_13h10.03.766,Main,2022.1.1,59.16018567507803,
negative,yellow,2,k,None,,,,,0,11,11,11,,,,,,,,,,,,,,,,,,,,,prac,None,None,1,1.4964178000227548,157.21384180002497,None,None,1,,,,,,,,,,,,,,105,2023-04-19_13h10.03.766,Main,2022.1.1,59.16018567507803,
negative,red,2,None,None,,,,,0,12,12,12,,,,,,,,,,,,,,,,,,,,,prac,None,None,1,1.5017376999894623,159.7111375000095,None,None,1,,,,,,,,,,,,,,105,2023-04-19_13h10.03.766,Main,2022.1.1,59.16018567507803,
positive,red,1,None,None,,,,,0,13,13,13,,,,,,,,,,,,,,,,,,,,,prac,None,None,1,1.4990880999830551,162.2137077000225,None,None,1,,,,,,,,,,,,,,105,2023-04-19_13h10.03.766,Main,2022.1.1,59.16018567507803,
positive,blue,2,k,None,,,,,0,14,14,14,,,,,,,,,,,,,,,,,,,,,prac,None,None,1,1.496479299996281,164.71349280001596,None,None,1,,,,,,,,,,,,,,105,2023-04-19_13h10.03.766,Main,2022.1.1,59.16018567507803,
positive,blue,1,k,None,,,,,0,15,15,15,,,,,,,,,,,,,,,,,,,,,prac,None,None,1,1.5018192999996245,167.21090950001962,None,None,1,,,,,,,,,,,,,,105,2023-04-19_13h10.03.766,Main,2022.1.1,59.16018567507803,
negative,blue,1,None,k,,,,,0,16,16,16,,,,,,,,,,,,,,,,,,,,,prac,k,k,1,1.0160080999776255,169.7135618000175,None,None,0,,,,,,,,,,,,,,105,2023-04-19_13h10.03.766,Main,2022.1.1,59.16018567507803,
positive,blue,2,k,None,,,,,0,17,17,17,,,,,,,,,,,,,,,,,,,,,prac,None,k,0,0.6137794000096619,171.7301746000012,None,None,1,,,,,,,,,,,,,,105,2023-04-19_13h10.03.766,Main,2022.1.1,59.16018567507803,
positive,blue,1,k,None,,,,,0,18,18,18,,,,,,,,,,,,,,,,,,,,,prac,None,None,1,1.4986668000055943,174.3466744000034,None,None,1,,,,,,,,,,,,,,105,2023-04-19_13h10.03.766,Main,2022.1.1,59.16018567507803,
positive,yellow,1,None,k,,,,,0,19,19,19,,,,,,,,,,,,,,,,,,,,,prac,k,k,1,0.6016832999885082,176.84405460002017,None,None,0,,,,,,,,,,,,,,105,2023-04-19_13h10.03.766,Main,2022.1.1,59.16018567507803,
negative,yellow,1,k,None,,,,,1,0,20,0,,,,,,,,,,,,,,,,,,,,,prac,None,None,1,1.4987287999829277,178.44664050001302,None,None,1,,,,,,,,,,,,,,105,2023-04-19_13h10.03.766,Main,2022.1.1,59.16018567507803,
positive,red,2,None,None,,,,,1,1,21,1,,,,,,,,,,,,,,,,,,,,,prac,None,None,1,1.4967374000116251,180.94667800000752,None,None,1,,,,,,,,,,,,,,105,2023-04-19_13h10.03.766,Main,2022.1.1,59.16018567507803,
negative,blue,2,None,k,,,,,1,2,22,2,,,,,,,,,,,,,,,,,,,,,prac,k,k,1,0.618689800001448,183.4439335000061,None,None,0,,,,,,,,,,,,,,105,2023-04-19_13h10.03.766,Main,2022.1.1,59.16018567507803,
positive,yellow,1,None,k,,,,,1,3,23,3,,,,,,,,,,,,,,,,,,,,,prac,k,k,1,0.6321727999893483,185.0631828000187,None,None,0,,,,,,,,,,,,,,105,2023-04-19_13h10.03.766,Main,2022.1.1,59.16018567507803,
negative,blue,2,None,k,,,,,1,4,24,4,,,,,,,,,,,,,,,,,,,,,prac,k,k,1,0.6631428000109736,186.69653880002443,None,None,0,,,,,,,,,,,,,,105,2023-04-19_13h10.03.766,Main,2022.1.1,59.16018567507803,
negative,blue,1,None,k,,,,,1,5,25,5,,,,,,,,,,,,,,,,,,,,,prac,k,k,1,0.6325715999992099,188.36049380002078,None,None,0,,,,,,,,,,,,,,105,2023-04-19_13h10.03.766,Main,2022.1.1,59.16018567507803,
negative,yellow,2,k,None,,,,,1,6,26,6,,,,,,,,,,,,,,,,,,,,,prac,None,None,1,1.5015858999977354,189.99384500001906,None,None,1,,,,,,,,,,,,,,105,2023-04-19_13h10.03.766,Main,2022.1.1,59.16018567507803,
negative,red,1,None,None,,,,,1,7,27,7,,,,,,,,,,,,,,,,,,,,,prac,None,None,1,1.4965118000109214,192.4963687999989,None,None,1,,,,,,,,,,,,,,105,2023-04-19_13h10.03.766,Main,2022.1.1,59.16018567507803,
positive,yellow,2,None,k,,,,,1,8,28,8,,,,,,,,,,,,,,,,,,,,,prac,k,k,1,0.6160424000117928,194.99368260000483,None,None,0,,,,,,,,,,,,,,105,2023-04-19_13h10.03.766,Main,2022.1.1,59.16018567507803,
negative,yellow,1,k,None,,,,,1,9,29,9,,,,,,,,,,,,,,,,,,,,,prac,None,None,1,1.5015647000109311,196.61038050000207,None,None,1,,,,,,,,,,,,,,105,2023-04-19_13h10.03.766,Main,2022.1.1,59.16018567507803,
positive,yellow,2,None,k,,,,,1,10,30,10,,,,,,,,,,,,,,,,,,,,,prac,k,k,1,0.5797266000008676,199.11297899999772,None,None,0,,,,,,,,,,,,,,105,2023-04-19_13h10.03.766,Main,2022.1.1,59.16018567507803,
negative,yellow,2,k,None,,,,,1,11,31,11,,,,,,,,,,,,,,,,,,,,,prac,None,None,1,1.501511099981144,200.6935697000008,None,None,1,,,,,,,,,,,,,,105,2023-04-19_13h10.03.766,Main,2022.1.1,59.16018567507803,
negative,red,2,None,None,,,,,1,12,32,12,,,,,,,,,,,,,,,,,,,,,prac,None,None,1,1.4991617999912705,203.1961552000139,None,None,1,,,,,,,,,,,,,,105,2023-04-19_13h10.03.766,Main,2022.1.1,59.16018567507803,
positive,red,1,None,None,,,,,1,13,33,13,,,,,,,,,,,,,,,,,,,,,prac,None,None,1,1.496636399999261,205.6961500000034,None,None,1,,,,,,,,,,,,,,105,2023-04-19_13h10.03.766,Main,2022.1.1,59.16018567507803,
positive,blue,2,k,None,,,,,1,14,34,14,,,,,,,,,,,,,,,,,,,,,prac,None,None,1,1.5016755999822635,208.193488000019,None,None,1,,,,,,,,,,,,,,105,2023-04-19_13h10.03.766,Main,2022.1.1,59.16018567507803,
positive,blue,1,k,None,,,,,1,15,35,15,,,,,,,,,,,,,,,,,,,,,prac,None,None,1,1.4967156999919098,210.6959901000082,None,None,1,,,,,,,,,,,,,,105,2023-04-19_13h10.03.766,Main,2022.1.1,59.16018567507803,
negative,blue,1,None,k,,,,,1,16,36,16,,,,,,,,,,,,,,,,,,,,,prac,k,k,1,0.48305820001405664,213.19332670001313,None,None,0,,,,,,,,,,,,,,105,2023-04-19_13h10.03.766,Main,2022.1.1,59.16018567507803,
positive,blue,2,k,None,,,,,1,17,37,17,,,,,,,,,,,,,,,,,,,,,prac,None,None,1,1.5015005000168458,214.67667760001495,None,None,1,,,,,,,,,,,,,,105,2023-04-19_13h10.03.766,Main,2022.1.1,59.16018567507803,
positive,blue,1,k,None,,,,,1,18,38,18,,,,,,,,,,,,,,,,,,,,,prac,None,None,1,1.496441000024788,217.1792228000122,None,None,1,,,,,,,,,,,,,,105,2023-04-19_13h10.03.766,Main,2022.1.1,59.16018567507803,
positive,yellow,1,None,k,,,,,1,19,39,19,,,,,,,,,,,,,,,,,,,,,prac,k,k,1,0.7518303000251763,219.6765194000036,None,None,0,,,,,,,,,,,,,,105,2023-04-19_13h10.03.766,Main,2022.1.1,59.16018567507803,
,,,,,,,,,,,,,,,,,,,,,,,,,,,,,,,,,,,,,,,,,,221.42913870001212,None,221.42913870001212,None,0.0027777778,-0.0037037036,0,0,0,0.014129130024230108,None,,,105,2023-04-19_13h10.03.766,Main,2022.1.1,59.16018567507803,
negative,yellow,2,k,None,,,,,,,,,0,0,0,0,,,,,,,,,,,,,222.02908590002335,None,222.02908590002335,None,main,None,None,1,1.4944301000214182,224.0646081000159,None,None,1,,,,,,,,,,,,,,105,2023-04-19_13h10.03.766,Main,2022.1.1,59.16018567507803,
positive,red,1,None,None,,,,,,,,,0,1,1,1,,,,,,,,,,,,,,,,,main,None,None,1,1.5017405000107829,226.55971460000728,None,None,1,,,,,,,,,,,,,,105,2023-04-19_13h10.03.766,Main,2022.1.1,59.16018567507803,
positive,blue,2,k,None,,,,,,,,,0,2,2,2,,,,,,,,,,,,,,,,,main,None,None,1,1.4990882000129204,229.06228310000733,None,None,1,,,,,,,,,,,,,,105,2023-04-19_13h10.03.766,Main,2022.1.1,59.16018567507803,
positive,blue,1,k,None,,,,,,,,,0,3,3,3,,,,,,,,,,,,,,,,,main,None,None,1,1.4962443000113126,231.5622881000163,None,None,1,,,,,,,,,,,,,,105,2023-04-19_13h10.03.766,Main,2022.1.1,59.16018567507803,
negative,yellow,2,k,None,,,,,,,,,0,4,4,4,,,,,,,,,,,,,,,,,main,None,None,1,1.501764099986758,234.0595564999967,None,None,1,,,,,,,,,,,,,,105,2023-04-19_13h10.03.766,Main,2022.1.1,59.16018567507803,
positive,yellow,2,None,k,,,,,,,,,0,5,5,5,,,,,,,,,,,,,,,,,main,k,k,1,0.46609990001888946,236.56224790000124,None,None,0,,,,,,,,,,,,,,105,2023-04-19_13h10.03.766,Main,2022.1.1,59.16018567507803,
negative,blue,2,None,k,,,,,,,,,0,6,6,6,,,,,,,,,,,,,,,,,main,k,k,1,0.5827477000129875,238.02879790001316,None,None,0,,,,,,,,,,,,,,105,2023-04-19_13h10.03.766,Main,2022.1.1,59.16018567507803,
positive,red,2,None,None,,,,,,,,,0,7,7,7,,,,,,,,,,,,,,,,,main,None,None,1,1.4960699000221211,239.6121082000027,None,None,1,,,,,,,,,,,,,,105,2023-04-19_13h10.03.766,Main,2022.1.1,59.16018567507803,
positive,yellow,1,None,k,,,,,,,,,0,8,8,8,,,,,,,,,,,,,,,,,main,k,k,1,0.6188136999844573,242.10945869999705,None,None,0,,,,,,,,,,,,,,105,2023-04-19_13h10.03.766,Main,2022.1.1,59.16018567507803,
negative,red,1,None,None,,,,,,,,,0,9,9,9,,,,,,,,,,,,,,,,,main,None,None,1,1.4963271000015084,243.72866170000634,None,None,1,,,,,,,,,,,,,,105,2023-04-19_13h10.03.766,Main,2022.1.1,59.16018567507803,
positive,yellow,1,None,k,,,,,,,,,0,10,10,10,,,,,,,,,,,,,,,,,main,k,k,1,0.599310300021898,246.2259858000034,None,None,0,,,,,,,,,,,,,,105,2023-04-19_13h10.03.766,Main,2022.1.1,59.16018567507803,
negative,yellow,1,k,None,,,,,,,,,0,11,11,11,,,,,,,,,,,,,,,,,main,None,None,1,1.5016161000239663,247.82601000001887,None,None,1,,,,,,,,,,,,,,105,2023-04-19_13h10.03.766,Main,2022.1.1,59.16018567507803,
negative,yellow,1,k,None,,,,,,,,,0,12,12,12,,,,,,,,,,,,,,,,,main,None,None,1,1.4963656999752857,250.32851910000318,None,None,1,,,,,,,,,,,,,,105,2023-04-19_13h10.03.766,Main,2022.1.1,59.16018567507803,
negative,red,2,None,None,,,,,,,,,0,13,13,13,,,,,,,,,,,,,,,,,main,None,None,1,1.5019198000081815,252.82583290000912,None,None,1,,,,,,,,,,,,,,105,2023-04-19_13h10.03.766,Main,2022.1.1,59.16018567507803,
positive,yellow,2,None,k,,,,,,,,,0,14,14,14,,,,,,,,,,,,,,,,,main,k,k,1,0.6789981999900192,255.32843320001848,None,None,0,,,,,,,,,,,,,,105,2023-04-19_13h10.03.766,Main,2022.1.1,59.16018567507803,
positive,blue,1,k,None,,,,,,,,,0,15,15,15,,,,,,,,,,,,,,,,,main,None,None,1,1.499741899984656,257.0013648000022,None,None,1,,,,,,,,,,,,,,105,2023-04-19_13h10.03.766,Main,2022.1.1,59.16018567507803,
negative,blue,1,None,k,,,,,,,,,0,16,16,16,,,,,,,,,,,,,,,,,main,k,k,1,0.5159237000043504,259.50905870000133,None,None,0,,,,,,,,,,,,,,105,2023-04-19_13h10.03.766,Main,2022.1.1,59.16018567507803,
positive,blue,2,k,None,,,,,,,,,0,17,17,17,,,,,,,,,,,,,,,,,main,None,None,1,1.501681900001131,261.0257353000052,None,None,1,,,,,,,,,,,,,,105,2023-04-19_13h10.03.766,Main,2022.1.1,59.16018567507803,
negative,blue,2,None,k,,,,,,,,,0,18,18,18,,,,,,,,,,,,,,,,,main,k,k,1,0.6493899000051897,263.5283228000044,None,None,0,,,,,,,,,,,,,,105,2023-04-19_13h10.03.766,Main,2022.1.1,59.16018567507803,
negative,blue,1,None,k,,,,,,,,,0,19,19,19,,,,,,,,,,,,,,,,,main,k,k,1,0.5488974000036251,265.17809910001233,None,None,0,,,,,,,,,,,,,,105,2023-04-19_13h10.03.766,Main,2022.1.1,59.16018567507803,
negative,blue,1,None,k,,,,,,,,,0,20,20,20,,,,,,,,,,,,,,,,,main,k,k,1,0.47879439999815077,266.72813000000315,None,None,0,,,,,,,,,,,,,,105,2023-04-19_13h10.03.766,Main,2022.1.1,59.16018567507803,
negative,blue,2,None,k,,,,,,,,,0,21,21,21,,,,,,,,,,,,,,,,,main,k,k,1,0.4993003999989014,268.2088550000044,None,None,0,,,,,,,,,,,,,,105,2023-04-19_13h10.03.766,Main,2022.1.1,59.16018567507803,
negative,red,1,None,None,,,,,,,,,0,22,22,22,,,,,,,,,,,,,,,,,main,None,None,1,1.5013560999941546,269.70890920000966,None,None,1,,,,,,,,,,,,,,105,2023-04-19_13h10.03.766,Main,2022.1.1,59.16018567507803,
positive,red,2,None,None,,,,,,,,,0,23,23,23,,,,,,,,,,,,,,,,,main,None,None,1,1.4988388000056148,272.21140330002527,None,None,1,,,,,,,,,,,,,,105,2023-04-19_13h10.03.766,Main,2022.1.1,59.16018567507803,
negative,red,2,None,None,,,,,,,,,0,24,24,24,,,,,,,,,,,,,,,,,main,None,None,1,1.4965797000040766,274.71129080001265,None,None,1,,,,,,,,,,,,,,105,2023-04-19_13h10.03.766,Main,2022.1.1,59.16018567507803,
positive,blue,2,k,None,,,,,,,,,0,25,25,25,,,,,,,,,,,,,,,,,main,None,None,1,1.501836200011894,277.20869759999914,None,None,1,,,,,,,,,,,,,,105,2023-04-19_13h10.03.766,Main,2022.1.1,59.16018567507803,
negative,yellow,1,k,None,,,,,,,,,0,26,26,26,,,,,,,,,,,,,,,,,main,None,None,1,1.4993997999990825,279.71126410001307,None,None,1,,,,,,,,,,,,,,105,2023-04-19_13h10.03.766,Main,2022.1.1,59.16018567507803,
positive,blue,2,k,None,,,,,,,,,0,27,27,27,,,,,,,,,,,,,,,,,main,None,None,1,1.4963184999942314,282.2111898000003,None,None,1,,,,,,,,,,,,,,105,2023-04-19_13h10.03.766,Main,2022.1.1,59.16018567507803,
negative,blue,2,None,k,,,,,,,,,0,28,28,28,,,,,,,,,,,,,,,,,main,k,k,1,0.5019388000073377,284.70863370000734,None,None,0,,,,,,,,,,,,,,105,2023-04-19_13h10.03.766,Main,2022.1.1,59.16018567507803,
positive,red,1,None,None,,,,,,,,,0,29,29,29,,,,,,,,,,,,,,,,,main,None,None,1,1.4965846000122838,286.21117819999927,None,None,1,,,,,,,,,,,,,,105,2023-04-19_13h10.03.766,Main,2022.1.1,59.16018567507803,
positive,blue,1,k,None,,,,,,,,,0,30,30,30,,,,,,,,,,,,,,,,,main,None,None,1,1.4989854999876115,288.71425010001985,None,None,1,,,,,,,,,,,,,,105,2023-04-19_13h10.03.766,Main,2022.1.1,59.16018567507803,
positive,yellow,1,None,k,,,,,,,,,0,31,31,31,,,,,,,,,,,,,,,,,main,k,k,1,0.6018434000143316,291.20846960000927,None,None,0,,,,,,,,,,,,,,105,2023-04-19_13h10.03.766,Main,2022.1.1,59.16018567507803,
negative,yellow,2,k,None,,,,,,,,,0,32,32,32,,,,,,,,,,,,,,,,,main,None,None,1,1.49637039998197,292.8110392000235,None,None,1,,,,,,,,,,,,,,105,2023-04-19_13h10.03.766,Main,2022.1.1,59.16018567507803,
negative,blue,1,None,k,,,,,,,,,0,33,33,33,,,,,,,,,,,,,,,,,main,k,k,1,0.49950730000273325,295.3082970000105,None,None,0,,,,,,,,,,,,,,105,2023-04-19_13h10.03.766,Main,2022.1.1,59.16018567507803,
positive,blue,1,k,None,,,,,,,,,0,34,34,34,,,,,,,,,,,,,,,,,main,None,None,1,1.5016585999983363,296.8083506000112,None,None,1,,,,,,,,,,,,,,105,2023-04-19_13h10.03.766,Main,2022.1.1,59.16018567507803,
negative,yellow,1,k,None,,,,,,,,,0,35,35,35,,,,,,,,,,,,,,,,,main,None,None,1,1.4987594000122044,299.31089010002324,None,None,1,,,,,,,,,,,,,,105,2023-04-19_13h10.03.766,Main,2022.1.1,59.16018567507803,
positive,yellow,2,None,k,,,,,,,,,0,36,36,36,,,,,,,,,,,,,,,,,main,k,k,1,0.4858959000266623,301.81075010000495,None,None,0,,,,,,,,,,,,,,105,2023-04-19_13h10.03.766,Main,2022.1.1,59.16018567507803,
positive,yellow,2,None,k,,,,,,,,,0,37,37,37,,,,,,,,,,,,,,,,,main,k,k,1,0.5433904000092298,303.30048720000195,None,None,0,,,,,,,,,,,,,,105,2023-04-19_13h10.03.766,Main,2022.1.1,59.16018567507803,
negative,yellow,2,k,None,,,,,,,,,0,38,38,38,,,,,,,,,,,,,,,,,main,None,None,1,1.4992231999931391,304.84144830002333,None,None,1,,,,,,,,,,,,,,105,2023-04-19_13h10.03.766,Main,2022.1.1,59.16018567507803,
positive,yellow,1,None,k,,,,,,,,,0,39,39,39,,,,,,,,,,,,,,,,,main,k,k,1,0.5350878000026569,307.3440266000107,None,None,0,,,,,,,,,,,,,,105,2023-04-19_13h10.03.766,Main,2022.1.1,59.16018567507803,
negative,yellow,2,k,None,,,,,,,,,0,40,40,40,,,,,,,,,,,,,,,,,main,None,None,1,1.4962684999918565,308.8773774000001,None,None,1,,,,,,,,,,,,,,105,2023-04-19_13h10.03.766,Main,2022.1.1,59.16018567507803,
positive,blue,2,k,None,,,,,,,,,0,41,41,41,,,,,,,,,,,,,,,,,main,None,None,1,1.5019820999877993,311.37464700001874,None,None,1,,,,,,,,,,,,,,105,2023-04-19_13h10.03.766,Main,2022.1.1,59.16018567507803,
positive,blue,2,k,None,,,,,,,,,0,42,42,42,,,,,,,,,,,,,,,,,main,None,None,1,1.4963826999883167,313.8773048000003,None,None,1,,,,,,,,,,,,,,105,2023-04-19_13h10.03.766,Main,2022.1.1,59.16018567507803,
negative,blue,2,None,k,,,,,,,,,0,43,43,43,,,,,,,,,,,,,,,,,main,k,k,1,0.4992804000212345,316.37452360001043,None,None,0,,,,,,,,,,,,,,105,2023-04-19_13h10.03.766,Main,2022.1.1,59.16018567507803,
negative,red,1,None,None,,,,,,,,,0,44,44,44,,,,,,,,,,,,,,,,,main,None,None,1,1.501644200005103,317.874576000002,None,None,1,,,,,,,,,,,,,,105,2023-04-19_13h10.03.766,Main,2022.1.1,59.16018567507803,
negative,yellow,1,k,None,,,,,,,,,0,45,45,45,,,,,,,,,,,,,,,,,main,None,None,1,1.4963469000067562,320.3771203000215,None,None,1,,,,,,,,,,,,,,105,2023-04-19_13h10.03.766,Main,2022.1.1,59.16018567507803,
negative,yellow,1,k,None,,,,,,,,,0,46,46,46,,,,,,,,,,,,,,,,,main,None,None,1,1.5017991999920923,322.8743980000145,None,None,1,,,,,,,,,,,,,,105,2023-04-19_13h10.03.766,Main,2022.1.1,59.16018567507803,
positive,red,1,None,None,,,,,,,,,0,47,47,47,,,,,,,,,,,,,,,,,main,None,None,1,1.5021454000088852,325.37700970002334,None,None,1,,,,,,,,,,,,,,105,2023-04-19_13h10.03.766,Main,2022.1.1,59.16018567507803,
positive,yellow,1,None,k,,,,,,,,,0,48,48,48,,,,,,,,,,,,,,,,,main,k,k,1,0.6106183000083547,327.8780965000042,None,None,0,,,,,,,,,,,,,,105,2023-04-19_13h10.03.766,Main,2022.1.1,59.16018567507803,
negative,blue,1,None,k,,,,,,,,,0,49,49,49,,,,,,,,,,,,,,,,,main,k,k,1,0.6364649999886751,329.49348800000735,None,None,0,,,,,,,,,,,,,,105,2023-04-19_13h10.03.766,Main,2022.1.1,59.16018567507803,
positive,yellow,2,None,k,,,,,,,,,0,50,50,50,,,,,,,,,,,,,,,,,main,k,k,1,0.5943887000030372,331.13151980002294,None,None,0,,,,,,,,,,,,,,105,2023-04-19_13h10.03.766,Main,2022.1.1,59.16018567507803,
negative,blue,1,None,k,,,,,,,,,0,51,51,51,,,,,,,,,,,,,,,,,main,k,k,1,0.4514966999995522,332.7242097000126,None,None,0,,,,,,,,,,,,,,105,2023-04-19_13h10.03.766,Main,2022.1.1,59.16018567507803,
positive,red,2,None,None,,,,,,,,,0,52,52,52,,,,,,,,,,,,,,,,,main,None,None,1,1.4977244000183418,334.17688150002505,None,None,1,,,,,,,,,,,,,,105,2023-04-19_13h10.03.766,Main,2022.1.1,59.16018567507803,
positive,yellow,2,None,k,,,,,,,,,0,53,53,53,,,,,,,,,,,,,,,,,main,k,k,1,0.6178327999950852,336.6768374000094,None,None,0,,,,,,,,,,,,,,105,2023-04-19_13h10.03.766,Main,2022.1.1,59.16018567507803,
negative,red,2,None,None,,,,,,,,,0,54,54,54,,,,,,,,,,,,,,,,,main,None,None,1,1.4943651000212412,338.3002465000027,None,None,1,,,,,,,,,,,,,,105,2023-04-19_13h10.03.766,Main,2022.1.1,59.16018567507803,
positive,yellow,1,None,k,,,,,,,,,0,55,55,55,,,,,,,,,,,,,,,,,main,k,k,1,0.5661856999795418,340.79070890002185,None,None,0,,,,,,,,,,,,,,105,2023-04-19_13h10.03.766,Main,2022.1.1,59.16018567507803,
negative,blue,2,None,k,,,,,,,,,0,56,56,56,,,,,,,,,,,,,,,,,main,k,k,1,0.5349835999950301,342.35740080001415,None,None,0,,,,,,,,,,,,,,105,2023-04-19_13h10.03.766,Main,2022.1.1,59.16018567507803,
positive,blue,1,k,None,,,,,,,,,0,57,57,57,,,,,,,,,,,,,,,,,main,None,None,1,1.4981789999874309,343.8933132000093,None,None,1,,,,,,,,,,,,,,105,2023-04-19_13h10.03.766,Main,2022.1.1,59.16018567507803,
positive,blue,1,k,None,,,,,,,,,0,58,58,58,,,,,,,,,,,,,,,,,main,None,None,1,1.49556229999871,346.3932796000154,None,None,1,,,,,,,,,,,,,,105,2023-04-19_13h10.03.766,Main,2022.1.1,59.16018567507803,
negative,yellow,2,k,None,,,,,,,,,0,59,59,59,,,,,,,,,,,,,,,,,main,None,None,1,1.5009743999980856,348.8906120000174,None,None,1,,,,,,,,,,,,,,105,2023-04-19_13h10.03.766,Main,2022.1.1,59.16018567507803,
positive,red,2,None,None,,,,,,,,,0,60,60,60,,,,,,,,,,,,,,,,,main,None,None,1,1.4979434999986552,351.3932079000224,None,None,1,,,,,,,,,,,,,,105,2023-04-19_13h10.03.766,Main,2022.1.1,59.16018567507803,
negative,yellow,1,k,None,,,,,,,,,0,61,61,61,,,,,,,,,,,,,,,,,main,None,None,1,1.4950522000144701,353.89073900002404,None,None,1,,,,,,,,,,,,,,105,2023-04-19_13h10.03.766,Main,2022.1.1,59.16018567507803,
negative,red,1,None,None,,,,,,,,,0,62,62,62,,,,,,,,,,,,,,,,,main,None,None,1,1.5010609999881126,356.39038250001613,None,None,1,,,,,,,,,,,,,,105,2023-04-19_13h10.03.766,Main,2022.1.1,59.16018567507803,
negative,blue,1,None,k,,,,,,,,,0,63,63,63,,,,,,,,,,,,,,,,,main,k,k,1,0.6817665999988094,358.8930604000052,None,None,0,,,,,,,,,,,,,,105,2023-04-19_13h10.03.766,Main,2022.1.1,59.16018567507803,
positive,blue,2,k,None,,,,,,,,,0,64,64,64,,,,,,,,,,,,,,,,,main,None,None,1,1.4960516999999527,360.57627320001484,None,None,1,,,,,,,,,,,,,,105,2023-04-19_13h10.03.766,Main,2022.1.1,59.16018567507803,
negative,yellow,2,k,None,,,,,,,,,0,65,65,65,,,,,,,,,,,,,,,,,main,None,None,1,1.5018837999959942,363.0735856000101,None,None,1,,,,,,,,,,,,,,105,2023-04-19_13h10.03.766,Main,2022.1.1,59.16018567507803,
positive,yellow,2,None,k,,,,,,,,,0,66,66,66,,,,,,,,,,,,,,,,,main,k,k,1,0.9326934999844525,365.5762425000139,None,None,0,,,,,,,,,,,,,,105,2023-04-19_13h10.03.766,Main,2022.1.1,59.16018567507803,
positive,yellow,2,None,k,,,,,,,,,0,67,67,67,,,,,,,,,,,,,,,,,main,k,k,1,0.4633017999876756,367.50941880000755,None,None,0,,,,,,,,,,,,,,105,2023-04-19_13h10.03.766,Main,2022.1.1,59.16018567507803,
positive,red,1,None,None,,,,,,,,,0,68,68,68,,,,,,,,,,,,,,,,,main,None,None,1,1.501481400016928,368.97346460001427,None,None,1,,,,,,,,,,,,,,105,2023-04-19_13h10.03.766,Main,2022.1.1,59.16018567507803,
positive,yellow,1,None,k,,,,,,,,,0,69,69,69,,,,,,,,,,,,,,,,,main,k,k,1,0.5159902999876067,371.47603300001356,None,None,0,,,,,,,,,,,,,,105,2023-04-19_13h10.03.766,Main,2022.1.1,59.16018567507803,
negative,yellow,2,k,None,,,,,,,,,0,70,70,70,,,,,,,,,,,,,,,,,main,None,None,1,1.4960924000188243,372.9927568999992,None,None,1,,,,,,,,,,,,,,105,2023-04-19_13h10.03.766,Main,2022.1.1,59.16018567507803,
positive,yellow,1,None,k,,,,,,,,,0,71,71,71,,,,,,,,,,,,,,,,,main,k,k,1,0.5687533000018448,375.48998690000735,None,None,0,,,,,,,,,,,,,,105,2023-04-19_13h10.03.766,Main,2022.1.1,59.16018567507803,
negative,blue,1,None,k,,,,,,,,,0,72,72,72,,,,,,,,,,,,,,,,,main,k,k,1,0.5656795999966562,377.0593088000023,None,None,0,,,,,,,,,,,,,,105,2023-04-19_13h10.03.766,Main,2022.1.1,59.16018567507803,
negative,red,2,None,None,,,,,,,,,0,73,73,73,,,,,,,,,,,,,,,,,main,None,None,1,1.4961485000094399,378.6259436000255,None,None,1,,,,,,,,,,,,,,105,2023-04-19_13h10.03.766,Main,2022.1.1,59.16018567507803,
positive,blue,2,k,None,,,,,,,,,0,74,74,74,,,,,,,,,,,,,,,,,main,None,None,1,1.5017983999860007,381.1232259000244,None,None,1,,,,,,,,,,,,,,105,2023-04-19_13h10.03.766,Main,2022.1.1,59.16018567507803,
negative,blue,2,None,k,,,,,,,,,0,75,75,75,,,,,,,,,,,,,,,,,main,k,k,1,0.48280279999016784,383.6257769000076,None,None,0,,,,,,,,,,,,,,105,2023-04-19_13h10.03.766,Main,2022.1.1,59.16018567507803,
negative,blue,2,None,k,,,,,,,,,0,76,76,76,,,,,,,,,,,,,,,,,main,k,k,1,0.5299190000223462,385.1091720999975,None,None,0,,,,,,,,,,,,,,105,2023-04-19_13h10.03.766,Main,2022.1.1,59.16018567507803,
negative,yellow,1,k,None,,,,,,,,,0,77,77,77,,,,,,,,,,,,,,,,,main,None,None,1,1.5013309000059962,386.6397681000235,None,None,1,,,,,,,,,,,,,,105,2023-04-19_13h10.03.766,Main,2022.1.1,59.16018567507803,
positive,blue,1,k,None,,,,,,,,,0,78,78,78,,,,,,,,,,,,,,,,,main,None,None,1,1.4992010999994818,389.14233610001975,None,None,1,,,,,,,,,,,,,,105,2023-04-19_13h10.03.766,Main,2022.1.1,59.16018567507803,
positive,blue,1,k,None,,,,,,,,,0,79,79,79,,,,,,,,,,,,,,,,,main,None,None,1,1.4964774000109173,391.6422907000233,None,None,1,,,,,,,,,,,,,,105,2023-04-19_13h10.03.766,Main,2022.1.1,59.16018567507803,
positive,red,2,None,None,,,,,,,,,0,80,80,80,,,,,,,,,,,,,,,,,main,None,None,1,1.5018858000112232,394.1396744000085,None,None,1,,,,,,,,,,,,,,105,2023-04-19_13h10.03.766,Main,2022.1.1,59.16018567507803,
positive,yellow,2,None,k,,,,,,,,,0,81,81,81,,,,,,,,,,,,,,,,,main,k,k,1,0.579963800002588,396.6421730000002,None,None,0,,,,,,,,,,,,,,105,2023-04-19_13h10.03.766,Main,2022.1.1,59.16018567507803,
positive,blue,1,k,None,,,,,,,,,0,82,82,82,,,,,,,,,,,,,,,,,main,None,None,1,1.5013792000245303,398.2228513000009,None,None,1,,,,,,,,,,,,,,105,2023-04-19_13h10.03.766,Main,2022.1.1,59.16018567507803,
negative,yellow,2,k,None,,,,,,,,,0,83,83,83,,,,,,,,,,,,,,,,,main,None,None,1,1.4991006999916863,400.7254820000089,None,None,1,,,,,,,,,,,,,,105,2023-04-19_13h10.03.766,Main,2022.1.1,59.16018567507803,
positive,blue,2,k,None,,,,,,,,,0,84,84,84,,,,,,,,,,,,,,,,,main,None,None,1,1.4965179999999236,403.2254244000069,None,None,1,,,,,,,,,,,,,,105,2023-04-19_13h10.03.766,Main,2022.1.1,59.16018567507803,
positive,yellow,1,None,k,,,,,,,,,0,85,85,85,,,,,,,,,,,,,,,,,main,k,k,1,0.6522630999970715,405.7227028000052,None,None,0,,,,,,,,,,,,,,105,2023-04-19_13h10.03.766,Main,2022.1.1,59.16018567507803,
positive,blue,2,k,None,,,,,,,,,0,86,86,86,,,,,,,,,,,,,,,,,main,None,None,1,1.4986961999966297,407.375340700004,None,None,1,,,,,,,,,,,,,,105,2023-04-19_13h10.03.766,Main,2022.1.1,59.16018567507803,
positive,blue,1,k,None,,,,,,,,,0,87,87,87,,,,,,,,,,,,,,,,,main,None,None,1,1.496435700013535,409.87533310000435,None,None,1,,,,,,,,,,,,,,105,2023-04-19_13h10.03.766,Main,2022.1.1,59.16018567507803,
negative,yellow,2,k,None,,,,,,,,,0,88,88,88,,,,,,,,,,,,,,,,,main,None,None,1,1.5018614000000525,412.37261780002154,None,None,1,,,,,,,,,,,,,,105,2023-04-19_13h10.03.766,Main,2022.1.1,59.16018567507803,
negative,blue,2,None,k,,,,,,,,,0,89,89,89,,,,,,,,,,,,,,,,,main,k,k,1,0.8489182999765035,414.875179100025,None,None,0,,,,,,,,,,,,,,105,2023-04-19_13h10.03.766,Main,2022.1.1,59.16018567507803,
positive,yellow,2,None,k,,,,,,,,,0,90,90,90,,,,,,,,,,,,,,,,,main,k,k,1,0.46381560000008903,416.7249804000021,None,None,0,,,,,,,,,,,,,,105,2023-04-19_13h10.03.766,Main,2022.1.1,59.16018567507803,
negative,yellow,1,k,None,,,,,,,,,0,91,91,91,,,,,,,,,,,,,,,,,main,None,None,1,1.4984028000035323,418.19164490001276,None,None,1,,,,,,,,,,,,,,105,2023-04-19_13h10.03.766,Main,2022.1.1,59.16018567507803,
negative,red,2,None,None,,,,,,,,,0,92,92,92,,,,,,,,,,,,,,,,,main,None,None,1,1.5019298999977764,420.6890617000172,None,None,1,,,,,,,,,,,,,,105,2023-04-19_13h10.03.766,Main,2022.1.1,59.16018567507803,
negative,blue,2,None,k,,,,,,,,,0,93,93,93,,,,,,,,,,,,,,,,,main,k,k,1,0.6497269000101369,423.19166300000506,None,None,0,,,,,,,,,,,,,,105,2023-04-19_13h10.03.766,Main,2022.1.1,59.16018567507803,
negative,blue,1,None,k,,,,,,,,,0,94,94,94,,,,,,,,,,,,,,,,,main,k,k,1,0.5794784000026993,424.8416140000045,None,None,0,,,,,,,,,,,,,,105,2023-04-19_13h10.03.766,Main,2022.1.1,59.16018567507803,
negative,blue,1,None,k,,,,,,,,,0,95,95,95,,,,,,,,,,,,,,,,,main,k,k,1,0.48715219998848625,426.4222720999969,None,None,0,,,,,,,,,,,,,,105,2023-04-19_13h10.03.766,Main,2022.1.1,59.16018567507803,
negative,red,1,None,None,,,,,,,,,0,96,96,96,,,,,,,,,,,,,,,,,main,None,None,1,1.4968311999982689,427.90820770000573,None,None,1,,,,,,,,,,,,,,105,2023-04-19_13h10.03.766,Main,2022.1.1,59.16018567507803,
positive,yellow,1,None,k,,,,,,,,,0,97,97,97,,,,,,,,,,,,,,,,,main,k,k,1,0.5632922000077087,430.4081741000118,None,None,0,,,,,,,,,,,,,,105,2023-04-19_13h10.03.766,Main,2022.1.1,59.16018567507803,
negative,yellow,1,k,None,,,,,,,,,0,98,98,98,,,,,,,,,,,,,,,,,main,None,None,1,1.501695099985227,431.97216640002443,None,None,1,,,,,,,,,,,,,,105,2023-04-19_13h10.03.766,Main,2022.1.1,59.16018567507803,
positive,red,1,None,None,,,,,,,,,0,99,99,99,,,,,,,,,,,,,,,,,main,None,None,1,1.4989061999949627,434.4747576000227,None,None,1,,,,,,,,,,,,,,105,2023-04-19_13h10.03.766,Main,2022.1.1,59.16018567507803,
positive,blue,1,k,None,,,,,,,,,0,100,100,100,,,,,,,,,,,,,,,,,main,None,None,1,1.4967169000010472,436.9746868000075,None,None,1,,,,,,,,,,,,,,105,2023-04-19_13h10.03.766,Main,2022.1.1,59.16018567507803,
negative,yellow,1,k,None,,,,,,,,,0,101,101,101,,,,,,,,,,,,,,,,,main,None,None,1,1.5018352999759372,439.4720707000233,None,None,1,,,,,,,,,,,,,,105,2023-04-19_13h10.03.766,Main,2022.1.1,59.16018567507803,
negative,blue,2,None,k,,,,,,,,,0,102,102,102,,,,,,,,,,,,,,,,,main,k,k,1,0.5324491000210401,441.9746027000074,None,None,0,,,,,,,,,,,,,,105,2023-04-19_13h10.03.766,Main,2022.1.1,59.16018567507803,
negative,yellow,2,k,None,,,,,,,,,0,103,103,103,,,,,,,,,,,,,,,,,main,None,None,1,1.4989424000086728,443.5077946000092,None,None,1,,,,,,,,,,,,,,105,2023-04-19_13h10.03.766,Main,2022.1.1,59.16018567507803,
positive,yellow,2,None,k,,,,,,,,,0,104,104,104,,,,,,,,,,,,,,,,,main,k,k,1,0.4800556999980472,446.00781340000685,None,None,0,,,,,,,,,,,,,,105,2023-04-19_13h10.03.766,Main,2022.1.1,59.16018567507803,
positive,blue,1,k,None,,,,,,,,,0,105,105,105,,,,,,,,,,,,,,,,,main,None,None,1,1.502178199996706,447.4885094000201,None,None,1,,,,,,,,,,,,,,105,2023-04-19_13h10.03.766,Main,2022.1.1,59.16018567507803,
positive,blue,2,k,None,,,,,,,,,0,106,106,106,,,,,,,,,,,,,,,,,main,None,None,1,1.498734399996465,449.99122340002214,None,None,1,,,,,,,,,,,,,,105,2023-04-19_13h10.03.766,Main,2022.1.1,59.16018567507803,
negative,blue,1,None,k,,,,,,,,,0,107,107,107,,,,,,,,,,,,,,,,,main,k,k,1,0.5296924999856856,452.4910662000184,None,None,0,,,,,,,,,,,,,,105,2023-04-19_13h10.03.766,Main,2022.1.1,59.16018567507803,
positive,yellow,2,None,k,,,,,,,,,0,108,108,108,,,,,,,,,,,,,,,,,main,k,k,1,0.5659813999955077,454.0217089000216,None,None,0,,,,,,,,,,,,,,105,2023-04-19_13h10.03.766,Main,2022.1.1,59.16018567507803,
negative,yellow,1,k,None,,,,,,,,,0,109,109,109,,,,,,,,,,,,,,,,,main,None,None,1,1.5015708999999333,455.58837949999725,None,None,1,,,,,,,,,,,,,,105,2023-04-19_13h10.03.766,Main,2022.1.1,59.16018567507803,
negative,blue,2,None,k,,,,,,,,,0,110,110,110,,,,,,,,,,,,,,,,,main,k,k,1,0.5494292000075802,458.0909707000246,None,None,0,,,,,,,,,,,,,,105,2023-04-19_13h10.03.766,Main,2022.1.1,59.16018567507803,
positive,blue,2,k,None,,,,,,,,,0,111,111,111,,,,,,,,,,,,,,,,,main,None,None,1,1.4962406000122428,459.6408568000188,None,None,1,,,,,,,,,,,,,,105,2023-04-19_13h10.03.766,Main,2022.1.1,59.16018567507803,
negative,blue,1,None,k,,,,,,,,,0,112,112,112,,,,,,,,,,,,,,,,,main,k,k,1,1.0522923000098672,462.1382217000064,None,None,0,,,,,,,,,,,,,,105,2023-04-19_13h10.03.766,Main,2022.1.1,59.16018567507803,
positive,yellow,1,None,k,,,,,,,,,0,113,113,113,,,,,,,,,,,,,,,,,main,k,k,1,0.5822368999943137,464.1908136999991,None,None,0,,,,,,,,,,,,,,105,2023-04-19_13h10.03.766,Main,2022.1.1,59.16018567507803,
negative,red,1,None,None,,,,,,,,,0,114,114,114,,,,,,,,,,,,,,,,,main,None,None,1,1.4963878999988083,465.7740714000247,None,None,1,,,,,,,,,,,,,,105,2023-04-19_13h10.03.766,Main,2022.1.1,59.16018567507803,
positive,red,1,None,None,,,,,,,,,0,115,115,115,,,,,,,,,,,,,,,,,main,None,None,1,1.5017491999897175,468.27141590000247,None,None,1,,,,,,,,,,,,,,105,2023-04-19_13h10.03.766,Main,2022.1.1,59.16018567507803,
negative,red,2,None,None,,,,,,,,,0,116,116,116,,,,,,,,,,,,,,,,,main,None,None,1,1.4992781000037212,470.7740372999979,None,None,1,,,,,,,,,,,,,,105,2023-04-19_13h10.03.766,Main,2022.1.1,59.16018567507803,
negative,yellow,2,k,None,,,,,,,,,0,117,117,117,,,,,,,,,,,,,,,,,main,None,None,1,1.4963594000146259,473.2739254000189,None,None,1,,,,,,,,,,,,,,105,2023-04-19_13h10.03.766,Main,2022.1.1,59.16018567507803,
positive,yellow,1,None,k,,,,,,,,,0,118,118,118,,,,,,,,,,,,,,,,,main,k,k,1,0.5995839999814052,475.77132410000195,None,None,0,,,,,,,,,,,,,,105,2023-04-19_13h10.03.766,Main,2022.1.1,59.16018567507803,
positive,red,2,None,None,,,,,,,,,0,119,119,119,,,,,,,,,,,,,,,,,main,None,None,1,1.4987340999941807,477.3738745000155,None,None,1,,,,,,,,,,,,,,105,2023-04-19_13h10.03.766,Main,2022.1.1,59.16018567507803,
positive,blue,2,k,None,,,,,,,,,0,120,120,120,,,,,,,,,,,,,,,,,main,None,None,1,1.5019561999943107,479.8711638000095,None,None,1,,,,,,,,,,,,,,105,2023-04-19_13h10.03.766,Main,2022.1.1,59.16018567507803,
negative,red,1,None,None,,,,,,,,,0,121,121,121,,,,,,,,,,,,,,,,,main,None,None,1,1.4988745999871753,482.37377640002524,None,None,1,,,,,,,,,,,,,,105,2023-04-19_13h10.03.766,Main,2022.1.1,59.16018567507803,
positive,yellow,2,None,k,,,,,,,,,0,122,122,122,,,,,,,,,,,,,,,,,main,k,k,1,0.6303097000054549,484.8737327000126,None,None,0,,,,,,,,,,,,,,105,2023-04-19_13h10.03.766,Main,2022.1.1,59.16018567507803,
negative,red,2,None,None,,,,,,,,,0,123,123,123,,,,,,,,,,,,,,,,,main,None,None,1,1.5015614999865647,486.50436920000357,None,None,1,,,,,,,,,,,,,,105,2023-04-19_13h10.03.766,Main,2022.1.1,59.16018567507803,
negative,yellow,2,k,None,,,,,,,,,0,124,124,124,,,,,,,,,,,,,,,,,main,None,None,1,1.4982567999977618,489.00697440002114,None,None,1,,,,,,,,,,,,,,105,2023-04-19_13h10.03.766,Main,2022.1.1,59.16018567507803,
positive,red,1,None,None,,,,,,,,,0,125,125,125,,,,,,,,,,,,,,,,,main,None,None,1,1.4975495999970008,491.51000639999984,None,None,1,,,,,,,,,,,,,,105,2023-04-19_13h10.03.766,Main,2022.1.1,59.16018567507803,
negative,blue,2,None,k,,,,,,,,,0,126,126,126,,,,,,,,,,,,,,,,,main,k,k,1,0.5853531000029761,494.004270800011,None,None,0,,,,,,,,,,,,,,105,2023-04-19_13h10.03.766,Main,2022.1.1,59.16018567507803,
negative,blue,1,None,k,,,,,,,,,0,127,127,127,,,,,,,,,,,,,,,,,main,k,k,1,0.5657190000056289,495.59015120001277,None,None,0,,,,,,,,,,,,,,105,2023-04-19_13h10.03.766,Main,2022.1.1,59.16018567507803,
negative,yellow,1,k,None,,,,,,,,,0,128,128,128,,,,,,,,,,,,,,,,,main,None,None,1,1.496463000017684,497.15683849999914,None,None,1,,,,,,,,,,,,,,105,2023-04-19_13h10.03.766,Main,2022.1.1,59.16018567507803,
negative,yellow,1,k,None,,,,,,,,,0,129,129,129,,,,,,,,,,,,,,,,,main,None,None,1,1.5016422000189777,499.6541520000028,None,None,1,,,,,,,,,,,,,,105,2023-04-19_13h10.03.766,Main,2022.1.1,59.16018567507803,
positive,blue,1,k,None,,,,,,,,,0,130,130,130,,,,,,,,,,,,,,,,,main,None,None,1,1.4990904000005685,502.1567193000228,None,None,1,,,,,,,,,,,,,,105,2023-04-19_13h10.03.766,Main,2022.1.1,59.16018567507803,
negative,blue,1,None,k,,,,,,,,,0,131,131,131,,,,,,,,,,,,,,,,,main,k,k,1,0.7327768999966793,504.656526900013,None,None,0,,,,,,,,,,,,,,105,2023-04-19_13h10.03.766,Main,2022.1.1,59.16018567507803,
negative,blue,2,None,k,,,,,,,,,0,132,132,132,,,,,,,,,,,,,,,,,main,k,k,1,1.0466134999878705,506.3898843000061,None,None,0,,,,,,,,,,,,,,105,2023-04-19_13h10.03.766,Main,2022.1.1,59.16018567507803,
positive,blue,2,k,None,,,,,,,,,0,133,133,133,,,,,,,,,,,,,,,,,main,None,None,1,1.5017296000150964,508.4372441000014,None,None,1,,,,,,,,,,,,,,105,2023-04-19_13h10.03.766,Main,2022.1.1,59.16018567507803,
positive,red,2,None,None,,,,,,,,,0,134,134,134,,,,,,,,,,,,,,,,,main,None,None,1,1.49633740002173,510.93989590002457,None,None,1,,,,,,,,,,,,,,105,2023-04-19_13h10.03.766,Main,2022.1.1,59.16018567507803,
negative,yellow,2,k,None,,,,,,,,,0,135,135,135,,,,,,,,,,,,,,,,,main,None,None,1,1.5019088000117335,513.4371442999982,None,None,1,,,,,,,,,,,,,,105,2023-04-19_13h10.03.766,Main,2022.1.1,59.16018567507803,
positive,yellow,2,None,k,,,,,,,,,0,136,136,136,,,,,,,,,,,,,,,,,main,k,k,1,0.5661313000018708,515.9397339000134,None,None,0,,,,,,,,,,,,,,105,2023-04-19_13h10.03.766,Main,2022.1.1,59.16018567507803,
positive,blue,1,k,None,,,,,,,,,0,137,137,137,,,,,,,,,,,,,,,,,main,None,None,1,1.498602400009986,517.5064072000096,None,None,1,,,,,,,,,,,,,,105,2023-04-19_13h10.03.766,Main,2022.1.1,59.16018567507803,
positive,yellow,1,None,k,,,,,,,,,0,138,138,138,,,,,,,,,,,,,,,,,main,k,k,1,0.7354472999868449,520.0062131000159,None,None,0,,,,,,,,,,,,,,105,2023-04-19_13h10.03.766,Main,2022.1.1,59.16018567507803,
positive,yellow,1,None,k,,,,,,,,,0,139,139,139,,,,,,,,,,,,,,,,,main,k,k,1,0.7104904000007082,521.7460123000201,None,None,0,,,,,,,,,,,,,,105,2023-04-19_13h10.03.766,Main,2022.1.1,59.16018567507803,
positive,yellow,1,None,k,,,,,,,,,0,140,140,140,,,,,,,,,,,,,,,,,main,k,k,1,0.48534559999825433,523.4535963000089,None,None,0,,,,,,,,,,,,,,105,2023-04-19_13h10.03.766,Main,2022.1.1,59.16018567507803,
positive,blue,1,k,None,,,,,,,,,0,141,141,141,,,,,,,,,,,,,,,,,main,None,None,1,1.4987685999949463,524.9395809000125,None,None,1,,,,,,,,,,,,,,105,2023-04-19_13h10.03.766,Main,2022.1.1,59.16018567507803,
positive,blue,2,k,None,,,,,,,,,0,142,142,142,,,,,,,,,,,,,,,,,main,None,None,1,1.496668400010094,527.4394794000254,None,None,1,,,,,,,,,,,,,,105,2023-04-19_13h10.03.766,Main,2022.1.1,59.16018567507803,
positive,yellow,2,None,k,,,,,,,,,0,143,143,143,,,,,,,,,,,,,,,,,main,k,k,1,0.601900800014846,529.9368906000163,None,None,0,,,,,,,,,,,,,,105,2023-04-19_13h10.03.766,Main,2022.1.1,59.16018567507803,
negative,yellow,2,k,None,,,,,,,,,0,144,144,144,,,,,,,,,,,,,,,,,main,None,None,1,1.4988873999973293,531.5394749999978,None,None,1,,,,,,,,,,,,,,105,2023-04-19_13h10.03.766,Main,2022.1.1,59.16018567507803,
negative,blue,2,None,k,,,,,,,,,0,145,145,145,,,,,,,,,,,,,,,,,main,k,k,1,0.4993512000073679,534.0392831000208,None,None,0,,,,,,,,,,,,,,105,2023-04-19_13h10.03.766,Main,2022.1.1,59.16018567507803,
negative,red,1,None,None,,,,,,,,,0,146,146,146,,,,,,,,,,,,,,,,,main,None,None,1,1.4965026999998372,535.5392014000099,None,None,1,,,,,,,,,,,,,,105,2023-04-19_13h10.03.766,Main,2022.1.1,59.16018567507803,
positive,blue,1,k,None,,,,,,,,,0,147,147,147,,,,,,,,,,,,,,,,,main,None,None,1,1.5019624000124168,538.0366968000017,None,None,1,,,,,,,,,,,,,,105,2023-04-19_13h10.03.766,Main,2022.1.1,59.16018567507803,
positive,yellow,1,None,k,,,,,,,,,0,148,148,148,,,,,,,,,,,,,,,,,main,k,k,1,0.5492601000005379,540.53926770002,None,None,0,,,,,,,,,,,,,,105,2023-04-19_13h10.03.766,Main,2022.1.1,59.16018567507803,
negative,red,2,None,None,,,,,,,,,0,149,149,149,,,,,,,,,,,,,,,,,main,None,None,1,1.4962695999711286,542.0892362000013,None,None,1,,,,,,,,,,,,,,105,2023-04-19_13h10.03.766,Main,2022.1.1,59.16018567507803,
negative,blue,1,None,k,,,,,,,,,0,150,150,150,,,,,,,,,,,,,,,,,main,k,k,1,0.45196400000713766,544.5865531000018,None,None,0,,,,,,,,,,,,,,105,2023-04-19_13h10.03.766,Main,2022.1.1,59.16018567507803,
negative,yellow,2,k,None,,,,,,,,,0,151,151,151,,,,,,,,,,,,,,,,,main,None,None,1,1.4990933999943081,546.0391297000169,None,None,1,,,,,,,,,,,,,,105,2023-04-19_13h10.03.766,Main,2022.1.1,59.16018567507803,
negative,blue,2,None,k,,,,,,,,,0,152,152,152,,,,,,,,,,,,,,,,,main,k,k,1,0.463387399999192,548.5390601000108,None,None,0,,,,,,,,,,,,,,105,2023-04-19_13h10.03.766,Main,2022.1.1,59.16018567507803,
negative,yellow,1,k,None,,,,,,,,,0,153,153,153,,,,,,,,,,,,,,,,,main,None,None,1,1.5016551000007894,550.0030785000126,None,None,1,,,,,,,,,,,,,,105,2023-04-19_13h10.03.766,Main,2022.1.1,59.16018567507803,
negative,blue,1,None,k,,,,,,,,,0,154,154,154,,,,,,,,,,,,,,,,,main,k,k,1,0.4825645000091754,552.5055999000033,None,None,0,,,,,,,,,,,,,,105,2023-04-19_13h10.03.766,Main,2022.1.1,59.16018567507803,
positive,yellow,2,None,k,,,,,,,,,0,155,155,155,,,,,,,,,,,,,,,,,main,k,k,1,0.6157626000058372,553.988935100002,None,None,0,,,,,,,,,,,,,,105,2023-04-19_13h10.03.766,Main,2022.1.1,59.16018567507803,
positive,red,2,None,None,,,,,,,,,0,156,156,156,,,,,,,,,,,,,,,,,main,None,None,1,1.496432999992976,555.605438700004,None,None,1,,,,,,,,,,,,,,105,2023-04-19_13h10.03.766,Main,2022.1.1,59.16018567507803,
positive,red,1,None,None,,,,,,,,,0,157,157,157,,,,,,,,,,,,,,,,,main,None,None,1,1.5018068999925163,558.1028870000155,None,None,1,,,,,,,,,,,,,,105,2023-04-19_13h10.03.766,Main,2022.1.1,59.16018567507803,
positive,blue,2,k,None,,,,,,,,,0,158,158,158,,,,,,,,,,,,,,,,,main,None,None,1,1.4992817000020295,560.6054653000028,None,None,1,,,,,,,,,,,,,,105,2023-04-19_13h10.03.766,Main,2022.1.1,59.16018567507803,
negative,yellow,1,k,None,,,,,,,,,0,159,159,159,,,,,,,,,,,,,,,,,main,None,None,1,1.4963194000010844,563.1054513000126,None,None,1,,,,,,,,,,,,,,105,2023-04-19_13h10.03.766,Main,2022.1.1,59.16018567507803,
negative,red,2,None,None,,,,,,,,,0,160,160,160,,,,,,,,,,,,,,,,,main,None,None,1,1.5016018000023905,565.6027367000061,None,None,1,,,,,,,,,,,,,,105,2023-04-19_13h10.03.766,Main,2022.1.1,59.16018567507803,
negative,blue,1,None,k,,,,,,,,,0,161,161,161,,,,,,,,,,,,,,,,,main,k,k,1,0.6161034999822732,568.1053385999985,None,None,0,,,,,,,,,,,,,,105,2023-04-19_13h10.03.766,Main,2022.1.1,59.16018567507803,
negative,blue,1,None,k,,,,,,,,,0,162,162,162,,,,,,,,,,,,,,,,,main,k,k,1,0.4960706999991089,569.7219600000244,None,None,0,,,,,,,,,,,,,,105,2023-04-19_13h10.03.766,Main,2022.1.1,59.16018567507803,
negative,yellow,1,k,None,,,,,,,,,0,163,163,163,,,,,,,,,,,,,,,,,main,None,None,1,1.501589099992998,571.2192856000038,None,None,1,,,,,,,,,,,,,,105,2023-04-19_13h10.03.766,Main,2022.1.1,59.16018567507803,
negative,yellow,1,k,None,,,,,,,,,0,164,164,164,,,,,,,,,,,,,,,,,main,None,None,1,1.496596299984958,573.7218974000134,None,None,1,,,,,,,,,,,,,,105,2023-04-19_13h10.03.766,Main,2022.1.1,59.16018567507803,
positive,yellow,1,None,k,,,,,,,,,0,165,165,165,,,,,,,,,,,,,,,,,main,k,k,1,0.5160435999860056,576.2191717000096,None,None,0,,,,,,,,,,,,,,105,2023-04-19_13h10.03.766,Main,2022.1.1,59.16018567507803,
negative,red,1,None,None,,,,,,,,,0,166,166,166,,,,,,,,,,,,,,,,,main,None,None,1,1.5017073000199161,577.7358136000112,None,None,1,,,,,,,,,,,,,,105,2023-04-19_13h10.03.766,Main,2022.1.1,59.16018567507803,
negative,yellow,2,k,None,,,,,,,,,0,167,167,167,,,,,,,,,,,,,,,,,main,None,None,1,1.4962779999768827,580.238364400022,None,None,1,,,,,,,,,,,,,,105,2023-04-19_13h10.03.766,Main,2022.1.1,59.16018567507803,
positive,blue,2,k,None,,,,,,,,,0,168,168,168,,,,,,,,,,,,,,,,,main,None,None,1,1.501850500004366,582.735708799999,None,None,1,,,,,,,,,,,,,,105,2023-04-19_13h10.03.766,Main,2022.1.1,59.16018567507803,
positive,red,2,None,None,,,,,,,,,0,169,169,169,,,,,,,,,,,,,,,,,main,None,None,1,1.4991608000127599,585.2382931000029,None,None,1,,,,,,,,,,,,,,105,2023-04-19_13h10.03.766,Main,2022.1.1,59.16018567507803,
positive,red,1,None,None,,,,,,,,,0,170,170,170,,,,,,,,,,,,,,,,,main,None,None,1,1.4963617000030354,587.7382473000034,None,None,1,,,,,,,,,,,,,,105,2023-04-19_13h10.03.766,Main,2022.1.1,59.16018567507803,
negative,blue,2,None,k,,,,,,,,,0,171,171,171,,,,,,,,,,,,,,,,,main,k,k,1,0.7019872000091709,590.2356089000241,None,None,0,,,,,,,,,,,,,,105,2023-04-19_13h10.03.766,Main,2022.1.1,59.16018567507803,
positive,blue,2,k,None,,,,,,,,,0,172,172,172,,,,,,,,,,,,,,,,,main,None,None,1,1.4990126000193413,591.9381614000013,None,None,1,,,,,,,,,,,,,,105,2023-04-19_13h10.03.766,Main,2022.1.1,59.16018567507803,
negative,yellow,2,k,None,,,,,,,,,0,173,173,173,,,,,,,,,,,,,,,,,main,None,None,1,1.4989397999888752,594.4379817000008,None,None,1,,,,,,,,,,,,,,105,2023-04-19_13h10.03.766,Main,2022.1.1,59.16018567507803,
positive,yellow,2,None,k,,,,,,,,,0,174,174,174,,,,,,,,,,,,,,,,,main,k,k,1,0.4801852000236977,596.9379644000146,None,None,0,,,,,,,,,,,,,,105,2023-04-19_13h10.03.766,Main,2022.1.1,59.16018567507803,
negative,blue,2,None,k,,,,,,,,,0,175,175,175,,,,,,,,,,,,,,,,,main,k,k,1,0.5993866000208072,598.4187223000044,None,None,0,,,,,,,,,,,,,,105,2023-04-19_13h10.03.766,Main,2022.1.1,59.16018567507803,
positive,blue,1,k,None,,,,,,,,,0,176,176,176,,,,,,,,,,,,,,,,,main,None,None,1,1.5012896999833174,600.0187421000155,None,None,1,,,,,,,,,,,,,,105,2023-04-19_13h10.03.766,Main,2022.1.1,59.16018567507803,
positive,yellow,1,None,k,,,,,,,,,0,177,177,177,,,,,,,,,,,,,,,,,main,k,k,1,0.7993490000080783,602.5212422000186,None,None,0,,,,,,,,,,,,,,105,2023-04-19_13h10.03.766,Main,2022.1.1,59.16018567507803,
positive,blue,1,k,None,,,,,,,,,0,178,178,178,,,,,,,,,,,,,,,,,main,None,None,1,1.496535300015239,604.3211171000148,None,None,1,,,,,,,,,,,,,,105,2023-04-19_13h10.03.766,Main,2022.1.1,59.16018567507803,
positive,yellow,2,None,k,,,,,,,,,0,179,179,179,,,,,,,,,,,,,,,,,main,k,k,1,0.5493469999928493,606.8185379000206,None,None,0,,,,,,,,,,,,,,105,2023-04-19_13h10.03.766,Main,2022.1.1,59.16018567507803,
positive,blue,1,k,None,,,,,,,,,0,180,180,180,,,,,,,,,,,,,,,,,main,None,None,1,1.5017432000022382,608.3685166000214,None,None,1,,,,,,,,,,,,,,105,2023-04-19_13h10.03.766,Main,2022.1.1,59.16018567507803,
negative,red,1,None,None,,,,,,,,,0,181,181,181,,,,,,,,,,,,,,,,,main,None,None,1,1.498933599999873,610.8711041000206,None,None,1,,,,,,,,,,,,,,105,2023-04-19_13h10.03.766,Main,2022.1.1,59.16018567507803,
negative,blue,1,None,k,,,,,,,,,0,182,182,182,,,,,,,,,,,,,,,,,main,k,k,1,0.5325135000166483,613.3709351000143,None,None,0,,,,,,,,,,,,,,105,2023-04-19_13h10.03.766,Main,2022.1.1,59.16018567507803,
negative,yellow,2,k,None,,,,,,,,,0,183,183,183,,,,,,,,,,,,,,,,,main,None,None,1,1.4964099999924656,614.9042333000107,None,None,1,,,,,,,,,,,,,,105,2023-04-19_13h10.03.766,Main,2022.1.1,59.16018567507803,
positive,yellow,2,None,k,,,,,,,,,0,184,184,184,,,,,,,,,,,,,,,,,main,k,k,1,0.585371799999848,617.4016644000076,None,None,0,,,,,,,,,,,,,,105,2023-04-19_13h10.03.766,Main,2022.1.1,59.16018567507803,
positive,yellow,1,None,k,,,,,,,,,0,185,185,185,,,,,,,,,,,,,,,,,main,k,k,1,0.7326807999925222,618.9876068000158,None,None,0,,,,,,,,,,,,,,105,2023-04-19_13h10.03.766,Main,2022.1.1,59.16018567507803,
positive,red,2,None,None,,,,,,,,,0,186,186,186,,,,,,,,,,,,,,,,,main,None,None,1,1.4962544000009075,620.7208580000151,None,None,1,,,,,,,,,,,,,,105,2023-04-19_13h10.03.766,Main,2022.1.1,59.16018567507803,
positive,blue,1,k,None,,,,,,,,,0,187,187,187,,,,,,,,,,,,,,,,,main,None,None,1,1.501772699994035,623.218627299997,None,None,1,,,,,,,,,,,,,,105,2023-04-19_13h10.03.766,Main,2022.1.1,59.16018567507803,
negative,yellow,1,k,None,,,,,,,,,0,188,188,188,,,,,,,,,,,,,,,,,main,None,None,1,1.4989998000091873,625.7208135999972,None,None,1,,,,,,,,,,,,,,105,2023-04-19_13h10.03.766,Main,2022.1.1,59.16018567507803,
positive,yellow,2,None,k,,,,,,,,,0,189,189,189,,,,,,,,,,,,,,,,,main,k,k,1,0.5634661999938544,628.2207153000054,None,None,0,,,,,,,,,,,,,,105,2023-04-19_13h10.03.766,Main,2022.1.1,59.16018567507803,
negative,yellow,2,k,None,,,,,,,,,0,190,190,190,,,,,,,,,,,,,,,,,main,None,None,1,1.5017301000189036,629.7847350000229,None,None,1,,,,,,,,,,,,,,105,2023-04-19_13h10.03.766,Main,2022.1.1,59.16018567507803,
negative,yellow,1,k,None,,,,,,,,,0,191,191,191,,,,,,,,,,,,,,,,,main,None,None,1,1.4962949000182562,632.2873611999967,None,None,1,,,,,,,,,,,,,,105,2023-04-19_13h10.03.766,Main,2022.1.1,59.16018567507803,
positive,blue,2,k,None,,,,,,,,,0,192,192,192,,,,,,,,,,,,,,,,,main,None,None,1,1.4992707000055816,634.7846549000242,None,None,1,,,,,,,,,,,,,,105,2023-04-19_13h10.03.766,Main,2022.1.1,59.16018567507803,
positive,yellow,1,None,k,,,,,,,,,0,193,193,193,,,,,,,,,,,,,,,,,main,k,k,1,0.5853173999930732,637.2846352000197,None,None,0,,,,,,,,,,,,,,105,2023-04-19_13h10.03.766,Main,2022.1.1,59.16018567507803,
negative,red,2,None,None,,,,,,,,,0,194,194,194,,,,,,,,,,,,,,,,,main,None,None,1,1.496208900003694,638.8705672000069,None,None,1,,,,,,,,,,,,,,105,2023-04-19_13h10.03.766,Main,2022.1.1,59.16018567507803,
positive,red,1,None,None,,,,,,,,,0,195,195,195,,,,,,,,,,,,,,,,,main,None,None,1,1.5018273000023328,641.367849000002,None,None,1,,,,,,,,,,,,,,105,2023-04-19_13h10.03.766,Main,2022.1.1,59.16018567507803,
negative,blue,1,None,k,,,,,,,,,0,196,196,196,,,,,,,,,,,,,,,,,main,k,k,1,0.6995594000036363,643.8704792000062,None,None,0,,,,,,,,,,,,,,105,2023-04-19_13h10.03.766,Main,2022.1.1,59.16018567507803,
positive,blue,2,k,None,,,,,,,,,0,197,197,197,,,,,,,,,,,,,,,,,main,None,None,1,1.496120099996915,645.570466300007,None,None,1,,,,,,,,,,,,,,105,2023-04-19_13h10.03.766,Main,2022.1.1,59.16018567507803,
negative,blue,2,None,k,,,,,,,,,0,198,198,198,,,,,,,,,,,,,,,,,main,k,k,1,0.5686369999893941,648.0677058000001,None,None,0,,,,,,,,,,,,,,105,2023-04-19_13h10.03.766,Main,2022.1.1,59.16018567507803,
negative,blue,2,None,k,,,,,,,,,0,199,199,199,,,,,,,,,,,,,,,,,main,k,k,1,0.5826954000222031,649.6370242999983,None,None,0,,,,,,,,,,,,,,105,2023-04-19_13h10.03.766,Main,2022.1.1,59.16018567507803,
positive,blue,2,k,None,,,,,,,,,0,200,200,200,,,,,,,,,,,,,,,,,main,None,None,1,1.4986701000016183,651.2202472000208,None,None,1,,,,,,,,,,,,,,105,2023-04-19_13h10.03.766,Main,2022.1.1,59.16018567507803,
positive,blue,2,k,None,,,,,,,,,0,201,201,201,,,,,,,,,,,,,,,,,main,None,None,1,1.4966809999896213,653.7201840000052,None,None,1,,,,,,,,,,,,,,105,2023-04-19_13h10.03.766,Main,2022.1.1,59.16018567507803,
negative,yellow,2,k,None,,,,,,,,,0,202,202,202,,,,,,,,,,,,,,,,,main,None,None,1,1.5018607999954838,656.2175167000096,None,None,1,,,,,,,,,,,,,,105,2023-04-19_13h10.03.766,Main,2022.1.1,59.16018567507803,
positive,red,1,None,None,,,,,,,,,0,203,203,203,,,,,,,,,,,,,,,,,main,None,None,1,1.4989425000094343,658.7201033000019,None,None,1,,,,,,,,,,,,,,105,2023-04-19_13h10.03.766,Main,2022.1.1,59.16018567507803,
negative,blue,2,None,k,,,,,,,,,0,204,204,204,,,,,,,,,,,,,,,,,main,k,k,1,0.6634942999808118,661.2200857000134,None,None,0,,,,,,,,,,,,,,105,2023-04-19_13h10.03.766,Main,2022.1.1,59.16018567507803,
negative,red,1,None,None,,,,,,,,,0,205,205,205,,,,,,,,,,,,,,,,,main,None,None,1,1.5015507999924012,662.8840416000166,None,None,1,,,,,,,,,,,,,,105,2023-04-19_13h10.03.766,Main,2022.1.1,59.16018567507803,
negative,blue,2,None,k,,,,,,,,,0,206,206,206,,,,,,,,,,,,,,,,,main,k,k,1,0.6493334000115283,665.3866950000229,None,None,0,,,,,,,,,,,,,,105,2023-04-19_13h10.03.766,Main,2022.1.1,59.16018567507803,
negative,yellow,2,k,None,,,,,,,,,0,207,207,207,,,,,,,,,,,,,,,,,main,None,None,1,1.4960548999952152,667.0366445000109,None,None,1,,,,,,,,,,,,,,105,2023-04-19_13h10.03.766,Main,2022.1.1,59.16018567507803,
positive,yellow,2,None,k,,,,,,,,,0,208,208,208,,,,,,,,,,,,,,,,,main,k,k,1,0.5186874000064563,669.5339202000177,None,None,0,,,,,,,,,,,,,,105,2023-04-19_13h10.03.766,Main,2022.1.1,59.16018567507803,
negative,yellow,1,k,None,,,,,,,,,0,209,209,209,,,,,,,,,,,,,,,,,main,None,None,1,1.4992369999818038,671.0532423999975,None,None,1,,,,,,,,,,,,,,105,2023-04-19_13h10.03.766,Main,2022.1.1,59.16018567507803,
negative,red,2,None,None,,,,,,,,,0,210,210,210,,,,,,,,,,,,,,,,,main,None,None,1,1.496279399987543,673.5531761000166,None,None,1,,,,,,,,,,,,,,105,2023-04-19_13h10.03.766,Main,2022.1.1,59.16018567507803,
negative,blue,1,None,k,,,,,,,,,0,211,211,211,,,,,,,,,,,,,,,,,main,k,k,1,0.6854400000011083,676.0505010000197,None,None,0,,,,,,,,,,,,,,105,2023-04-19_13h10.03.766,Main,2022.1.1,59.16018567507803,
negative,yellow,1,k,None,,,,,,,,,0,212,212,212,,,,,,,,,,,,,,,,,main,None,None,1,1.4962050000031013,677.736407999997,None,None,1,,,,,,,,,,,,,,105,2023-04-19_13h10.03.766,Main,2022.1.1,59.16018567507803,
positive,blue,1,k,None,,,,,,,,,0,213,213,213,,,,,,,,,,,,,,,,,main,None,None,1,1.5017569000192452,680.2336929000157,None,None,1,,,,,,,,,,,,,,105,2023-04-19_13h10.03.766,Main,2022.1.1,59.16018567507803,
positive,blue,1,k,None,,,,,,,,,0,214,214,214,,,,,,,,,,,,,,,,,main,None,None,1,1.4991793000081088,682.736264200008,None,None,1,,,,,,,,,,,,,,105,2023-04-19_13h10.03.766,Main,2022.1.1,59.16018567507803,
positive,yellow,1,None,k,,,,,,,,,0,215,215,215,,,,,,,,,,,,,,,,,main,k,k,1,0.5301477999892086,685.2362231000152,None,None,0,,,,,,,,,,,,,,105,2023-04-19_13h10.03.766,Main,2022.1.1,59.16018567507803,
positive,yellow,1,None,k,,,,,,,,,0,216,216,216,,,,,,,,,,,,,,,,,main,k,k,1,0.549228599993512,686.7668737000204,None,None,0,,,,,,,,,,,,,,105,2023-04-19_13h10.03.766,Main,2022.1.1,59.16018567507803,
positive,yellow,2,None,k,,,,,,,,,0,217,217,217,,,,,,,,,,,,,,,,,main,k,k,1,0.5019302000000607,688.316911300004,None,None,0,,,,,,,,,,,,,,105,2023-04-19_13h10.03.766,Main,2022.1.1,59.16018567507803,
negative,blue,1,None,k,,,,,,,,,0,218,218,218,,,,,,,,,,,,,,,,,main,k,k,1,0.4989981000253465,689.8194742000196,None,None,0,,,,,,,,,,,,,,105,2023-04-19_13h10.03.766,Main,2022.1.1,59.16018567507803,
positive,red,2,None,None,,,,,,,,,0,219,219,219,,,,,,,,,,,,,,,,,main,None,None,1,1.4963720999949146,691.3194802000071,None,None,1,,,,,,,,,,,,,,105,2023-04-19_13h10.03.766,Main,2022.1.1,59.16018567507803,
positive,yellow,1,None,k,,,,,,,,,0,220,220,220,,,,,,,,,,,,,,,,,main,k,k,1,0.5019802000024356,693.816727700003,None,None,0,,,,,,,,,,,,,,105,2023-04-19_13h10.03.766,Main,2022.1.1,59.16018567507803,
positive,blue,1,k,None,,,,,,,,,0,221,221,221,,,,,,,,,,,,,,,,,main,None,None,1,1.4990159000153653,695.3193460000039,None,None,1,,,,,,,,,,,,,,105,2023-04-19_13h10.03.766,Main,2022.1.1,59.16018567507803,
positive,yellow,2,None,k,,,,,,,,,0,222,222,222,,,,,,,,,,,,,,,,,main,k,k,1,0.5964435999921989,697.8193146999984,None,None,0,,,,,,,,,,,,,,105,2023-04-19_13h10.03.766,Main,2022.1.1,59.16018567507803,
negative,yellow,1,k,None,,,,,,,,,0,223,223,223,,,,,,,,,,,,,,,,,main,None,None,1,1.5007422999769915,699.4166235000012,None,None,1,,,,,,,,,,,,,,105,2023-04-19_13h10.03.766,Main,2022.1.1,59.16018567507803,
positive,yellow,2,None,k,,,,,,,,,0,224,224,224,,,,,,,,,,,,,,,,,main,k,k,1,0.6153291999944486,701.9192150000017,None,None,0,,,,,,,,,,,,,,105,2023-04-19_13h10.03.766,Main,2022.1.1,59.16018567507803,
negative,yellow,2,k,None,,,,,,,,,0,225,225,225,,,,,,,,,,,,,,,,,main,None,None,1,1.496238700026879,703.5358196000161,None,None,1,,,,,,,,,,,,,,105,2023-04-19_13h10.03.766,Main,2022.1.1,59.16018567507803,
negative,blue,2,None,k,,,,,,,,,0,226,226,226,,,,,,,,,,,,,,,,,main,k,k,1,0.6186467999941669,706.033207600005,None,None,0,,,,,,,,,,,,,,105,2023-04-19_13h10.03.766,Main,2022.1.1,59.16018567507803,
positive,red,2,None,None,,,,,,,,,0,227,227,227,,,,,,,,,,,,,,,,,main,None,None,1,1.4965966999880038,707.652462900005,None,None,1,,,,,,,,,,,,,,105,2023-04-19_13h10.03.766,Main,2022.1.1,59.16018567507803,
positive,blue,2,k,None,,,,,,,,,0,228,228,228,,,,,,,,,,,,,,,,,main,None,None,1,1.5044291999947745,710.1554848000233,None,None,1,,,,,,,,,,,,,,105,2023-04-19_13h10.03.766,Main,2022.1.1,59.16018567507803,
negative,blue,1,None,k,,,,,,,,,0,229,229,229,,,,,,,,,,,,,,,,,main,k,k,1,0.5602927000145428,712.6532622000086,None,None,0,,,,,,,,,,,,,,105,2023-04-19_13h10.03.766,Main,2022.1.1,59.16018567507803,
positive,yellow,1,None,k,,,,,,,,,0,230,230,230,,,,,,,,,,,,,,,,,main,k,k,1,0.5853092000179458,714.2163224000251,None,None,0,,,,,,,,,,,,,,105,2023-04-19_13h10.03.766,Main,2022.1.1,59.16018567507803,
negative,blue,2,None,k,,,,,,,,,0,231,231,231,,,,,,,,,,,,,,,,,main,k,k,1,0.633906399976695,715.8022746000206,None,None,0,,,,,,,,,,,,,,105,2023-04-19_13h10.03.766,Main,2022.1.1,59.16018567507803,
negative,red,1,None,None,,,,,,,,,0,232,232,232,,,,,,,,,,,,,,,,,main,None,None,1,1.4944907999888528,717.4355614000233,None,None,1,,,,,,,,,,,,,,105,2023-04-19_13h10.03.766,Main,2022.1.1,59.16018567507803,
positive,blue,2,k,None,,,,,,,,,0,233,233,233,,,,,,,,,,,,,,,,,main,None,None,1,1.501851999986684,719.9328570000071,None,None,1,,,,,,,,,,,,,,105,2023-04-19_13h10.03.766,Main,2022.1.1,59.16018567507803,
negative,yellow,1,k,None,,,,,,,,,0,234,234,234,,,,,,,,,,,,,,,,,main,None,None,1,1.499033000000054,722.4354522000067,None,None,1,,,,,,,,,,,,,,105,2023-04-19_13h10.03.766,Main,2022.1.1,59.16018567507803,
negative,yellow,2,k,None,,,,,,,,,0,235,235,235,,,,,,,,,,,,,,,,,main,None,None,1,1.4963426000031177,724.935498900013,None,None,1,,,,,,,,,,,,,,105,2023-04-19_13h10.03.766,Main,2022.1.1,59.16018567507803,
positive,red,1,None,None,,,,,,,,,0,236,236,236,,,,,,,,,,,,,,,,,main,None,None,1,1.5015894999960437,727.4327654000081,None,None,1,,,,,,,,,,,,,,105,2023-04-19_13h10.03.766,Main,2022.1.1,59.16018567507803,
negative,red,2,None,None,,,,,,,,,0,237,237,237,,,,,,,,,,,,,,,,,main,None,None,1,1.4964048999827355,729.9353343000112,None,None,1,,,,,,,,,,,,,,105,2023-04-19_13h10.03.766,Main,2022.1.1,59.16018567507803,
negative,blue,1,None,k,,,,,,,,,0,238,238,238,,,,,,,,,,,,,,,,,main,k,k,1,0.7518478000129107,732.432615800004,None,None,0,,,,,,,,,,,,,,105,2023-04-19_13h10.03.766,Main,2022.1.1,59.16018567507803,
positive,blue,1,k,None,,,,,,,,,0,239,239,239,,,,,,,,,,,,,,,,,main,None,None,1,1.4990012999915052,734.1852769000106,None,None,1,,,,,,,,,,,,,,105,2023-04-19_13h10.03.766,Main,2022.1.1,59.16018567507803,
,,,,,,,,,,,,,,,,,,,,,,,,,,,,,,,,,,,,,,,,,,,,,,,,,,,,,736.6851687000017,None,,,,,,
