distractor,target,set,ans1,ans2,rep_loop4.thisRepN,rep_loop4.thisTrialN,rep_loop4.thisN,rep_loop4.thisIndex,st2_prac_loop.thisRepN,st2_prac_loop.thisTrialN,st2_prac_loop.thisN,st2_prac_loop.thisIndex,st2_main_loop.thisRepN,st2_main_loop.thisTrialN,st2_main_loop.thisN,st2_main_loop.thisIndex,image_4.started,image_4.stopped,sound_2.started,sound_2.stopped,key_resp_3.keys,key_resp_3.rt,image_5.started,image_5.stopped,st_prac_back.started,st_prac_back.stopped,st_prac_text.started,st_prac_text.stopped,st_fix_back.started,st_fix_back.stopped,st_fix_2.started,st_fix_2.stopped,main_prac,st_ans,st_res,st_corr,st_rt,st_back.started,st_back.stopped,st2_resp.keys,st2_resp.corr,st_main_back.started,st_main_back.stopped,st_main_text.started,st_main_text.stopped,mouse_4.x,mouse_4.y,mouse_4.leftButton,mouse_4.midButton,mouse_4.rightButton,mouse_4.started,mouse_4.stopped,text_2.started,text_2.stopped,id*,date,expName,psychopyVersion,frameRate,
negative,yellow,1,k,None,,,,,0,0,0,0,,,,,29.785670699995535,None,34.332636699998694,None,space,50.12662050000654,84.48131169999397,None,95.8147622999968,None,95.8147622999968,None,97.81773309999699,None,97.81773309999699,None,prac,None,None,1,1.497081599998637,99.82891810000001,None,None,1,,,,,,,,,,,,,,107,2023-04-17_13h42.22.742,Main,2022.1.1,59.83205143180328,
positive,red,2,None,None,,,,,0,1,1,1,,,,,,,,,,,,,,,,,,,,,prac,None,None,1,1.4986018999989028,102.33128209999995,None,None,1,,,,,,,,,,,,,,107,2023-04-17_13h42.22.742,Main,2022.1.1,59.83205143180328,
negative,blue,2,None,k,,,,,0,2,2,2,,,,,,,,,,,,,,,,,,,,,prac,k,k,1,0.7803649999987101,104.83118779999495,None,None,0,,,,,,,,,,,,,,107,2023-04-17_13h42.22.742,Main,2022.1.1,59.83205143180328,
positive,yellow,1,None,k,,,,,0,3,3,3,,,,,,,,,,,,,,,,,,,,,prac,k,k,1,1.1683286000043154,106.61187919999793,None,None,0,,,,,,,,,,,,,,107,2023-04-17_13h42.22.742,Main,2022.1.1,59.83205143180328,
negative,blue,2,None,k,,,,,0,4,4,4,,,,,,,,,,,,,,,,,,,,,prac,k,k,1,0.8159207999997307,108.78116229999432,None,None,0,,,,,,,,,,,,,,107,2023-04-17_13h42.22.742,Main,2022.1.1,59.83205143180328,
negative,blue,1,None,k,,,,,0,5,5,5,,,,,,,,,,,,,,,,,,,,,prac,k,k,1,0.8634867000000668,110.59777439999743,None,None,0,,,,,,,,,,,,,,107,2023-04-17_13h42.22.742,Main,2022.1.1,59.83205143180328,
negative,yellow,2,k,None,,,,,0,6,6,6,,,,,,,,,,,,,,,,,,,,,prac,None,None,1,1.4987977999990107,112.46425669999735,None,None,1,,,,,,,,,,,,,,107,2023-04-17_13h42.22.742,Main,2022.1.1,59.83205143180328,
negative,red,1,None,None,,,,,0,7,7,7,,,,,,,,,,,,,,,,,,,,,prac,None,None,1,1.5016829000014695,114.96188849999453,None,None,1,,,,,,,,,,,,,,107,2023-04-17_13h42.22.742,Main,2022.1.1,59.83205143180328,
positive,yellow,2,None,k,,,,,0,8,8,8,,,,,,,,,,,,,,,,,,,,,prac,k,k,1,0.7660650999969221,117.46427879999828,None,None,0,,,,,,,,,,,,,,107,2023-04-17_13h42.22.742,Main,2022.1.1,59.83205143180328,
negative,yellow,1,k,None,,,,,0,9,9,9,,,,,,,,,,,,,,,,,,,,,prac,None,None,1,1.4988168999989284,119.23094999999739,None,None,1,,,,,,,,,,,,,,107,2023-04-17_13h42.22.742,Main,2022.1.1,59.83205143180328,
positive,yellow,2,None,k,,,,,0,10,10,10,,,,,,,,,,,,,,,,,,,,,prac,k,k,1,0.7303205999996862,121.73080299999856,None,None,0,,,,,,,,,,,,,,107,2023-04-17_13h42.22.742,Main,2022.1.1,59.83205143180328,
negative,yellow,2,k,None,,,,,0,11,11,11,,,,,,,,,,,,,,,,,,,,,prac,None,None,1,1.50134010000329,123.4615388999955,None,None,1,,,,,,,,,,,,,,107,2023-04-17_13h42.22.742,Main,2022.1.1,59.83205143180328,
negative,red,2,None,None,,,,,0,12,12,12,,,,,,,,,,,,,,,,,,,,,prac,None,None,1,1.4991708000015933,125.96423559999675,None,None,1,,,,,,,,,,,,,,107,2023-04-17_13h42.22.742,Main,2022.1.1,59.83205143180328,
positive,red,1,None,None,,,,,0,13,13,13,,,,,,,,,,,,,,,,,,,,,prac,None,None,1,1.4965635999978986,128.46411829999852,None,None,1,,,,,,,,,,,,,,107,2023-04-17_13h42.22.742,Main,2022.1.1,59.83205143180328,
positive,blue,2,k,None,,,,,0,14,14,14,,,,,,,,,,,,,,,,,,,,,prac,None,None,1,1.501858000003267,130.96139119999862,None,None,1,,,,,,,,,,,,,,107,2023-04-17_13h42.22.742,Main,2022.1.1,59.83205143180328,
positive,blue,1,k,None,,,,,0,15,15,15,,,,,,,,,,,,,,,,,,,,,prac,None,None,1,1.4991525999939768,133.46399189999647,None,None,1,,,,,,,,,,,,,,107,2023-04-17_13h42.22.742,Main,2022.1.1,59.83205143180328,
negative,blue,1,None,k,,,,,0,16,16,16,,,,,,,,,,,,,,,,,,,,,prac,k,k,1,0.7634169000011752,135.96380879999924,None,None,0,,,,,,,,,,,,,,107,2023-04-17_13h42.22.742,Main,2022.1.1,59.83205143180328,
positive,blue,2,k,None,,,,,0,17,17,17,,,,,,,,,,,,,,,,,,,,,prac,None,None,1,1.5017311999981757,137.72790909999458,None,None,1,,,,,,,,,,,,,,107,2023-04-17_13h42.22.742,Main,2022.1.1,59.83205143180328,
positive,blue,1,k,None,,,,,0,18,18,18,,,,,,,,,,,,,,,,,,,,,prac,None,None,1,1.4991826999976183,140.22831949999818,None,None,1,,,,,,,,,,,,,,107,2023-04-17_13h42.22.742,Main,2022.1.1,59.83205143180328,
positive,yellow,1,None,k,,,,,0,19,19,19,,,,,,,,,,,,,,,,,,,,,prac,k,k,1,0.913623300002655,142.7304881999953,None,None,0,,,,,,,,,,,,,,107,2023-04-17_13h42.22.742,Main,2022.1.1,59.83205143180328,
negative,yellow,1,k,None,,,,,1,0,20,0,,,,,,,,,,,,,,,,,,,,,prac,None,None,1,1.5016697000028216,144.64445429999614,None,None,1,,,,,,,,,,,,,,107,2023-04-17_13h42.22.742,Main,2022.1.1,59.83205143180328,
positive,red,2,None,None,,,,,1,1,21,1,,,,,,,,,,,,,,,,,,,,,prac,None,None,1,1.4991577999971923,147.14709349999612,None,None,1,,,,,,,,,,,,,,107,2023-04-17_13h42.22.742,Main,2022.1.1,59.83205143180328,
negative,blue,2,None,k,,,,,1,2,22,2,,,,,,,,,,,,,,,,,,,,,prac,k,k,1,0.7194273999994039,149.64684919999854,None,None,0,,,,,,,,,,,,,,107,2023-04-17_13h42.22.742,Main,2022.1.1,59.83205143180328,
positive,yellow,1,None,k,,,,,1,3,23,3,,,,,,,,,,,,,,,,,,,,,prac,k,k,1,0.7599026000025333,151.36549029999878,None,None,0,,,,,,,,,,,,,,107,2023-04-17_13h42.22.742,Main,2022.1.1,59.83205143180328,
negative,blue,2,None,k,,,,,1,4,24,4,,,,,,,,,,,,,,,,,,,,,prac,k,k,1,0.7184478999988642,153.12762519999524,None,None,0,,,,,,,,,,,,,,107,2023-04-17_13h42.22.742,Main,2022.1.1,59.83205143180328,
negative,blue,1,None,k,,,,,1,5,25,5,,,,,,,,,,,,,,,,,,,,,prac,k,k,1,0.582884000003105,154.84463459999824,None,None,0,,,,,,,,,,,,,,107,2023-04-17_13h42.22.742,Main,2022.1.1,59.83205143180328,
negative,yellow,2,k,None,,,,,1,6,26,6,,,,,,,,,,,,,,,,,,,,,prac,None,None,1,1.4975551999959862,156.42797539999447,None,None,1,,,,,,,,,,,,,,107,2023-04-17_13h42.22.742,Main,2022.1.1,59.83205143180328,
negative,red,1,None,None,,,,,1,7,27,7,,,,,,,,,,,,,,,,,,,,,prac,None,None,1,1.4980871999941883,158.9278400999974,None,None,1,,,,,,,,,,,,,,107,2023-04-17_13h42.22.742,Main,2022.1.1,59.83205143180328,
positive,yellow,2,None,k,,,,,1,8,28,8,,,,,,,,,,,,,,,,,,,,,prac,k,k,1,0.7151596000039717,161.4299979999996,None,None,0,,,,,,,,,,,,,,107,2023-04-17_13h42.22.742,Main,2022.1.1,59.83205143180328,
negative,yellow,1,k,None,,,,,1,9,29,9,,,,,,,,,,,,,,,,,,,,,prac,None,None,1,1.498913800001901,163.14655469999707,None,None,1,,,,,,,,,,,,,,107,2023-04-17_13h42.22.742,Main,2022.1.1,59.83205143180328,
positive,yellow,2,None,k,,,,,1,10,30,10,,,,,,,,,,,,,,,,,,,,,prac,k,k,1,0.8470575000028475,165.64419139999518,None,None,0,,,,,,,,,,,,,,107,2023-04-17_13h42.22.742,Main,2022.1.1,59.83205143180328,
negative,yellow,2,k,None,,,,,1,11,31,11,,,,,,,,,,,,,,,,,,,,,prac,None,None,1,1.5014918000015314,167.49398599999404,None,None,1,,,,,,,,,,,,,,107,2023-04-17_13h42.22.742,Main,2022.1.1,59.83205143180328,
negative,red,2,None,None,,,,,1,12,32,12,,,,,,,,,,,,,,,,,,,,,prac,None,None,1,1.4990714000014123,169.99670530000003,None,None,1,,,,,,,,,,,,,,107,2023-04-17_13h42.22.742,Main,2022.1.1,59.83205143180328,
positive,red,1,None,None,,,,,1,13,33,13,,,,,,,,,,,,,,,,,,,,,prac,None,None,1,1.499037200002931,172.49397379999573,None,None,1,,,,,,,,,,,,,,107,2023-04-17_13h42.22.742,Main,2022.1.1,59.83205143180328,
positive,blue,2,k,None,,,,,1,14,34,14,,,,,,,,,,,,,,,,,,,,,prac,None,None,1,1.4989738000003854,174.99645559999772,None,None,1,,,,,,,,,,,,,,107,2023-04-17_13h42.22.742,Main,2022.1.1,59.83205143180328,
positive,blue,1,k,None,,,,,1,15,35,15,,,,,,,,,,,,,,,,,,,,,prac,None,None,1,1.4992800999971223,177.49401289999514,None,None,1,,,,,,,,,,,,,,107,2023-04-17_13h42.22.742,Main,2022.1.1,59.83205143180328,
negative,blue,1,None,k,,,,,1,16,36,16,,,,,,,,,,,,,,,,,,,,,prac,k,k,1,0.6829800999985309,179.99624959999346,None,None,0,,,,,,,,,,,,,,107,2023-04-17_13h42.22.742,Main,2022.1.1,59.83205143180328,
positive,blue,2,k,None,,,,,1,17,37,17,,,,,,,,,,,,,,,,,,,,,prac,None,None,1,1.4962218000000576,181.67963249999593,None,None,1,,,,,,,,,,,,,,107,2023-04-17_13h42.22.742,Main,2022.1.1,59.83205143180328,
positive,blue,1,k,None,,,,,1,18,38,18,,,,,,,,,,,,,,,,,,,,,prac,None,None,1,1.5018189999973401,184.1769792999985,None,None,1,,,,,,,,,,,,,,107,2023-04-17_13h42.22.742,Main,2022.1.1,59.83205143180328,
positive,yellow,1,None,k,,,,,1,19,39,19,,,,,,,,,,,,,,,,,,,,,prac,k,k,1,0.7995243999976083,186.67959469999914,None,None,0,,,,,,,,,,,,,,107,2023-04-17_13h42.22.742,Main,2022.1.1,59.83205143180328,
,,,,,,,,,,,,,,,,,,,,,,,,,,,,,,,,,,,,,,,,,,188.47953809999308,None,188.47953809999308,None,0.16296296,-0.20555556,0,0,0,0.013588999994681217,None,,,107,2023-04-17_13h42.22.742,Main,2022.1.1,59.83205143180328,
negative,yellow,2,k,None,,,,,,,,,0,0,0,0,,,,,,,,,,,,,190.22684569999547,None,190.22684569999547,None,main,None,None,1,1.4867386000041733,192.2509532999975,None,None,1,,,,,,,,,,,,,,107,2023-04-17_13h42.22.742,Main,2022.1.1,59.83205143180328,
positive,red,1,None,None,,,,,,,,,0,1,1,1,,,,,,,,,,,,,,,,,main,None,None,1,1.496723900003417,194.74612439999328,None,None,1,,,,,,,,,,,,,,107,2023-04-17_13h42.22.742,Main,2022.1.1,59.83205143180328,
positive,blue,2,k,None,,,,,,,,,0,2,2,2,,,,,,,,,,,,,,,,,main,None,None,1,1.4986872000008589,197.24368019999383,None,None,1,,,,,,,,,,,,,,107,2023-04-17_13h42.22.742,Main,2022.1.1,59.83205143180328,
positive,blue,1,k,None,,,,,,,,,0,3,3,3,,,,,,,,,,,,,,,,,main,None,None,1,1.5019571000011638,199.7433344999954,None,None,1,,,,,,,,,,,,,,107,2023-04-17_13h42.22.742,Main,2022.1.1,59.83205143180328,
negative,yellow,2,k,None,,,,,,,,,0,4,4,4,,,,,,,,,,,,,,,,,main,None,None,1,1.499187499997788,202.24371719999908,None,None,1,,,,,,,,,,,,,,107,2023-04-17_13h42.22.742,Main,2022.1.1,59.83205143180328,
positive,yellow,2,None,k,,,,,,,,,0,5,5,5,,,,,,,,,,,,,,,,,main,k,k,1,0.6634611999979825,204.7460088999942,None,None,0,,,,,,,,,,,,,,107,2023-04-17_13h42.22.742,Main,2022.1.1,59.83205143180328,
negative,blue,2,None,k,,,,,,,,,0,6,6,6,,,,,,,,,,,,,,,,,main,k,k,1,0.751958699998795,206.40988189999916,None,None,0,,,,,,,,,,,,,,107,2023-04-17_13h42.22.742,Main,2022.1.1,59.83205143180328,
positive,red,2,None,None,,,,,,,,,0,7,7,7,,,,,,,,,,,,,,,,,main,None,None,1,1.4978295000037178,208.16250909999508,None,None,1,,,,,,,,,,,,,,107,2023-04-17_13h42.22.742,Main,2022.1.1,59.83205143180328,
positive,yellow,1,None,k,,,,,,,,,0,8,8,8,,,,,,,,,,,,,,,,,main,k,k,1,0.7630583999998635,210.66254189999745,None,None,0,,,,,,,,,,,,,,107,2023-04-17_13h42.22.742,Main,2022.1.1,59.83205143180328,
negative,red,1,None,None,,,,,,,,,0,9,9,9,,,,,,,,,,,,,,,,,main,None,None,1,1.5010834999993676,212.42889789999754,None,None,1,,,,,,,,,,,,,,107,2023-04-17_13h42.22.742,Main,2022.1.1,59.83205143180328,
positive,yellow,1,None,k,,,,,,,,,0,10,10,10,,,,,,,,,,,,,,,,,main,k,k,1,0.7302893999949447,214.92668829999457,None,None,0,,,,,,,,,,,,,,107,2023-04-17_13h42.22.742,Main,2022.1.1,59.83205143180328,
negative,yellow,1,k,None,,,,,,,,,0,11,11,11,,,,,,,,,,,,,,,,,main,None,None,1,1.5018909999998868,216.65967180000007,None,None,1,,,,,,,,,,,,,,107,2023-04-17_13h42.22.742,Main,2022.1.1,59.83205143180328,
negative,yellow,1,k,None,,,,,,,,,0,12,12,12,,,,,,,,,,,,,,,,,main,None,None,1,1.498763899995538,219.16226079999615,None,None,1,,,,,,,,,,,,,,107,2023-04-17_13h42.22.742,Main,2022.1.1,59.83205143180328,
negative,red,2,None,None,,,,,,,,,0,13,13,13,,,,,,,,,,,,,,,,,main,None,None,1,1.4965480999962892,221.66221999999834,None,None,1,,,,,,,,,,,,,,107,2023-04-17_13h42.22.742,Main,2022.1.1,59.83205143180328,
positive,yellow,2,None,k,,,,,,,,,0,14,14,14,,,,,,,,,,,,,,,,,main,k,k,1,0.6828091999996104,224.15954369999963,None,None,0,,,,,,,,,,,,,,107,2023-04-17_13h42.22.742,Main,2022.1.1,59.83205143180328,
positive,blue,1,k,None,,,,,,,,,0,15,15,15,,,,,,,,,,,,,,,,,main,None,None,1,1.5014322999995784,225.84286539999448,None,None,1,,,,,,,,,,,,,,107,2023-04-17_13h42.22.742,Main,2022.1.1,59.83205143180328,
negative,blue,1,None,k,,,,,,,,,0,16,16,16,,,,,,,,,,,,,,,,,main,k,k,1,0.549393000001146,228.34552769999573,None,None,0,,,,,,,,,,,,,,107,2023-04-17_13h42.22.742,Main,2022.1.1,59.83205143180328,
positive,blue,2,k,None,,,,,,,,,0,17,17,17,,,,,,,,,,,,,,,,,main,None,None,1,1.4968227999997907,229.8952180999986,None,None,1,,,,,,,,,,,,,,107,2023-04-17_13h42.22.742,Main,2022.1.1,59.83205143180328,
negative,blue,2,None,k,,,,,,,,,0,18,18,18,,,,,,,,,,,,,,,,,main,k,k,1,0.6720835000014631,232.39290759999858,None,None,0,,,,,,,,,,,,,,107,2023-04-17_13h42.22.742,Main,2022.1.1,59.83205143180328,
negative,blue,1,None,k,,,,,,,,,0,19,19,19,,,,,,,,,,,,,,,,,main,k,k,1,0.5931846999956178,234.05928429999767,None,None,0,,,,,,,,,,,,,,107,2023-04-17_13h42.22.742,Main,2022.1.1,59.83205143180328,
negative,blue,1,None,k,,,,,,,,,0,20,20,20,,,,,,,,,,,,,,,,,main,k,k,1,0.6822404000049573,235.65957859999617,None,None,0,,,,,,,,,,,,,,107,2023-04-17_13h42.22.742,Main,2022.1.1,59.83205143180328,
negative,blue,2,None,k,,,,,,,,,0,21,21,21,,,,,,,,,,,,,,,,,main,k,k,1,0.6825489999973797,237.3451572999984,None,None,0,,,,,,,,,,,,,,107,2023-04-17_13h42.22.742,Main,2022.1.1,59.83205143180328,
negative,red,1,None,None,,,,,,,,,0,22,22,22,,,,,,,,,,,,,,,,,main,None,None,1,1.4990938999981154,239.02611069999693,None,None,1,,,,,,,,,,,,,,107,2023-04-17_13h42.22.742,Main,2022.1.1,59.83205143180328,
positive,red,2,None,None,,,,,,,,,0,23,23,23,,,,,,,,,,,,,,,,,main,None,None,1,1.501243999999133,241.52610349999304,None,None,1,,,,,,,,,,,,,,107,2023-04-17_13h42.22.742,Main,2022.1.1,59.83205143180328,
negative,red,2,None,None,,,,,,,,,0,24,24,24,,,,,,,,,,,,,,,,,main,None,None,1,1.496961900003953,244.02610419999837,None,None,1,,,,,,,,,,,,,,107,2023-04-17_13h42.22.742,Main,2022.1.1,59.83205143180328,
positive,blue,2,k,None,,,,,,,,,0,25,25,25,,,,,,,,,,,,,,,,,main,None,None,1,1.5012749000015901,246.52573649999977,None,None,1,,,,,,,,,,,,,,107,2023-04-17_13h42.22.742,Main,2022.1.1,59.83205143180328,
negative,yellow,1,k,None,,,,,,,,,0,26,26,26,,,,,,,,,,,,,,,,,main,None,None,1,1.4993972000011127,249.02837579999323,None,None,1,,,,,,,,,,,,,,107,2023-04-17_13h42.22.742,Main,2022.1.1,59.83205143180328,
positive,blue,2,k,None,,,,,,,,,0,27,27,27,,,,,,,,,,,,,,,,,main,None,None,1,1.4967229999965639,251.52593389999674,None,None,1,,,,,,,,,,,,,,107,2023-04-17_13h42.22.742,Main,2022.1.1,59.83205143180328,
negative,blue,2,None,k,,,,,,,,,0,28,28,28,,,,,,,,,,,,,,,,,main,k,k,1,0.6516766000058851,254.02587899999344,None,None,0,,,,,,,,,,,,,,107,2023-04-17_13h42.22.742,Main,2022.1.1,59.83205143180328,
positive,red,1,None,None,,,,,,,,,0,29,29,29,,,,,,,,,,,,,,,,,main,None,None,1,1.496950000000652,255.67800369999895,None,None,1,,,,,,,,,,,,,,107,2023-04-17_13h42.22.742,Main,2022.1.1,59.83205143180328,
positive,blue,1,k,None,,,,,,,,,0,30,30,30,,,,,,,,,,,,,,,,,main,None,None,1,1.501131400000304,258.1758075999969,None,None,1,,,,,,,,,,,,,,107,2023-04-17_13h42.22.742,Main,2022.1.1,59.83205143180328,
positive,yellow,1,None,k,,,,,,,,,0,31,31,31,,,,,,,,,,,,,,,,,main,k,k,1,0.6806060000017169,260.67570279999927,None,None,0,,,,,,,,,,,,,,107,2023-04-17_13h42.22.742,Main,2022.1.1,59.83205143180328,
negative,yellow,2,k,None,,,,,,,,,0,32,32,32,,,,,,,,,,,,,,,,,main,None,None,1,1.5011554000011529,262.35901689999446,None,None,1,,,,,,,,,,,,,,107,2023-04-17_13h42.22.742,Main,2022.1.1,59.83205143180328,
negative,blue,1,None,k,,,,,,,,,0,33,33,33,,,,,,,,,,,,,,,,,main,k,k,1,0.6853579999951762,264.8612085999994,None,None,0,,,,,,,,,,,,,,107,2023-04-17_13h42.22.742,Main,2022.1.1,59.83205143180328,
positive,blue,1,k,None,,,,,,,,,0,34,34,34,,,,,,,,,,,,,,,,,main,None,None,1,1.4964088999986416,266.54227319999336,None,None,1,,,,,,,,,,,,,,107,2023-04-17_13h42.22.742,Main,2022.1.1,59.83205143180328,
negative,yellow,1,k,None,,,,,,,,,0,35,35,35,,,,,,,,,,,,,,,,,main,None,None,1,1.4993611999962013,269.044384899993,None,None,1,,,,,,,,,,,,,,107,2023-04-17_13h42.22.742,Main,2022.1.1,59.83205143180328,
positive,yellow,2,None,k,,,,,,,,,0,36,36,36,,,,,,,,,,,,,,,,,main,k,k,1,0.5804988999952911,271.54457319999347,None,None,0,,,,,,,,,,,,,,107,2023-04-17_13h42.22.742,Main,2022.1.1,59.83205143180328,
positive,yellow,2,None,k,,,,,,,,,0,37,37,37,,,,,,,,,,,,,,,,,main,k,k,1,0.6180619000006118,273.1276299999954,None,None,0,,,,,,,,,,,,,,107,2023-04-17_13h42.22.742,Main,2022.1.1,59.83205143180328,
negative,yellow,2,k,None,,,,,,,,,0,38,38,38,,,,,,,,,,,,,,,,,main,None,None,1,1.4990084000019124,274.7443138999952,None,None,1,,,,,,,,,,,,,,107,2023-04-17_13h42.22.742,Main,2022.1.1,59.83205143180328,
positive,yellow,1,None,k,,,,,,,,,0,39,39,39,,,,,,,,,,,,,,,,,main,k,k,1,0.8472579999943264,277.24433509999653,None,None,0,,,,,,,,,,,,,,107,2023-04-17_13h42.22.742,Main,2022.1.1,59.83205143180328,
negative,yellow,2,k,None,,,,,,,,,0,40,40,40,,,,,,,,,,,,,,,,,main,None,None,1,1.5010980000006384,279.09195909999835,None,None,1,,,,,,,,,,,,,,107,2023-04-17_13h42.22.742,Main,2022.1.1,59.83205143180328,
positive,blue,2,k,None,,,,,,,,,0,41,41,41,,,,,,,,,,,,,,,,,main,None,None,1,1.4994716000001063,281.5919364999936,None,None,1,,,,,,,,,,,,,,107,2023-04-17_13h42.22.742,Main,2022.1.1,59.83205143180328,
positive,blue,2,k,None,,,,,,,,,0,42,42,42,,,,,,,,,,,,,,,,,main,None,None,1,1.4964551999946707,284.0919305999996,None,None,1,,,,,,,,,,,,,,107,2023-04-17_13h42.22.742,Main,2022.1.1,59.83205143180328,
negative,blue,2,None,k,,,,,,,,,0,43,43,43,,,,,,,,,,,,,,,,,main,k,k,1,0.6161530000026687,286.59183779999876,None,None,0,,,,,,,,,,,,,,107,2023-04-17_13h42.22.742,Main,2022.1.1,59.83205143180328,
negative,red,1,None,None,,,,,,,,,0,44,44,44,,,,,,,,,,,,,,,,,main,None,None,1,1.5016275000016321,288.208386899998,None,None,1,,,,,,,,,,,,,,107,2023-04-17_13h42.22.742,Main,2022.1.1,59.83205143180328,
negative,yellow,1,k,None,,,,,,,,,0,45,45,45,,,,,,,,,,,,,,,,,main,None,None,1,1.4988111999991816,290.7108636999983,None,None,1,,,,,,,,,,,,,,107,2023-04-17_13h42.22.742,Main,2022.1.1,59.83205143180328,
negative,yellow,1,k,None,,,,,,,,,0,46,46,46,,,,,,,,,,,,,,,,,main,None,None,1,1.4993082000000868,293.2106145999933,None,None,1,,,,,,,,,,,,,,107,2023-04-17_13h42.22.742,Main,2022.1.1,59.83205143180328,
positive,red,1,None,None,,,,,,,,,0,47,47,47,,,,,,,,,,,,,,,,,main,None,None,1,1.4968370000060531,295.7082997999969,None,None,1,,,,,,,,,,,,,,107,2023-04-17_13h42.22.742,Main,2022.1.1,59.83205143180328,
positive,yellow,1,None,k,,,,,,,,,0,48,48,48,,,,,,,,,,,,,,,,,main,k,k,1,0.6349861999988207,298.208346899999,None,None,0,,,,,,,,,,,,,,107,2023-04-17_13h42.22.742,Main,2022.1.1,59.83205143180328,
negative,blue,1,None,k,,,,,,,,,0,49,49,49,,,,,,,,,,,,,,,,,main,k,k,1,0.7013827999981004,299.8416198999985,None,None,0,,,,,,,,,,,,,,107,2023-04-17_13h42.22.742,Main,2022.1.1,59.83205143180328,
positive,yellow,2,None,k,,,,,,,,,0,50,50,50,,,,,,,,,,,,,,,,,main,k,k,1,0.7780746999997064,301.5482516999982,None,None,0,,,,,,,,,,,,,,107,2023-04-17_13h42.22.742,Main,2022.1.1,59.83205143180328,
negative,blue,1,None,k,,,,,,,,,0,51,51,51,,,,,,,,,,,,,,,,,main,k,k,1,0.6516633999999613,303.324595399994,None,None,0,,,,,,,,,,,,,,107,2023-04-17_13h42.22.742,Main,2022.1.1,59.83205143180328,
positive,red,2,None,None,,,,,,,,,0,52,52,52,,,,,,,,,,,,,,,,,main,None,None,1,1.4988245999993524,304.97719099999813,None,None,1,,,,,,,,,,,,,,107,2023-04-17_13h42.22.742,Main,2022.1.1,59.83205143180328,
positive,yellow,2,None,k,,,,,,,,,0,53,53,53,,,,,,,,,,,,,,,,,main,k,k,1,0.6829534000062267,307.4770084999982,None,None,0,,,,,,,,,,,,,,107,2023-04-17_13h42.22.742,Main,2022.1.1,59.83205143180328,
negative,red,2,None,None,,,,,,,,,0,54,54,54,,,,,,,,,,,,,,,,,main,None,None,1,1.496662199999264,309.1581071999972,None,None,1,,,,,,,,,,,,,,107,2023-04-17_13h42.22.742,Main,2022.1.1,59.83205143180328,
positive,yellow,1,None,k,,,,,,,,,0,55,55,55,,,,,,,,,,,,,,,,,main,k,k,1,0.6018614999993588,311.6578140999991,None,None,0,,,,,,,,,,,,,,107,2023-04-17_13h42.22.742,Main,2022.1.1,59.83205143180328,
negative,blue,2,None,k,,,,,,,,,0,56,56,56,,,,,,,,,,,,,,,,,main,k,k,1,0.6492197999978089,313.2604125999933,None,None,0,,,,,,,,,,,,,,107,2023-04-17_13h42.22.742,Main,2022.1.1,59.83205143180328,
positive,blue,1,k,None,,,,,,,,,0,57,57,57,,,,,,,,,,,,,,,,,main,None,None,1,1.4962730000042939,314.91037179999694,None,None,1,,,,,,,,,,,,,,107,2023-04-17_13h42.22.742,Main,2022.1.1,59.83205143180328,
positive,blue,1,k,None,,,,,,,,,0,58,58,58,,,,,,,,,,,,,,,,,main,None,None,1,1.5020092999984627,317.40763629999856,None,None,1,,,,,,,,,,,,,,107,2023-04-17_13h42.22.742,Main,2022.1.1,59.83205143180328,
negative,yellow,2,k,None,,,,,,,,,0,59,59,59,,,,,,,,,,,,,,,,,main,None,None,1,1.4993630000026315,319.9102187999961,None,None,1,,,,,,,,,,,,,,107,2023-04-17_13h42.22.742,Main,2022.1.1,59.83205143180328,
positive,red,2,None,None,,,,,,,,,0,60,60,60,,,,,,,,,,,,,,,,,main,None,None,1,1.4961607999939588,322.4101653999969,None,None,1,,,,,,,,,,,,,,107,2023-04-17_13h42.22.742,Main,2022.1.1,59.83205143180328,
negative,yellow,1,k,None,,,,,,,,,0,61,61,61,,,,,,,,,,,,,,,,,main,None,None,1,1.501897199996165,324.9074715999959,None,None,1,,,,,,,,,,,,,,107,2023-04-17_13h42.22.742,Main,2022.1.1,59.83205143180328,
negative,red,1,None,None,,,,,,,,,0,62,62,62,,,,,,,,,,,,,,,,,main,None,None,1,1.4990300999997999,327.4101152999938,None,None,1,,,,,,,,,,,,,,107,2023-04-17_13h42.22.742,Main,2022.1.1,59.83205143180328,
negative,blue,1,None,k,,,,,,,,,0,63,63,63,,,,,,,,,,,,,,,,,main,k,k,1,0.6970967000015662,329.9076661999934,None,None,0,,,,,,,,,,,,,,107,2023-04-17_13h42.22.742,Main,2022.1.1,59.83205143180328,
positive,blue,2,k,None,,,,,,,,,0,64,64,64,,,,,,,,,,,,,,,,,main,None,None,1,1.5014718000020366,331.6073353999964,None,None,1,,,,,,,,,,,,,,107,2023-04-17_13h42.22.742,Main,2022.1.1,59.83205143180328,
negative,yellow,2,k,None,,,,,,,,,0,65,65,65,,,,,,,,,,,,,,,,,main,None,None,1,1.4992273000025307,334.1099469999972,None,None,1,,,,,,,,,,,,,,107,2023-04-17_13h42.22.742,Main,2022.1.1,59.83205143180328,
positive,yellow,2,None,k,,,,,,,,,0,66,66,66,,,,,,,,,,,,,,,,,main,k,k,1,0.6801785999996355,336.60992099999567,None,None,0,,,,,,,,,,,,,,107,2023-04-17_13h42.22.742,Main,2022.1.1,59.83205143180328,
positive,yellow,2,None,k,,,,,,,,,0,67,67,67,,,,,,,,,,,,,,,,,main,k,k,1,0.6993817000038689,338.29055459999654,None,None,0,,,,,,,,,,,,,,107,2023-04-17_13h42.22.742,Main,2022.1.1,59.83205143180328,
positive,red,1,None,None,,,,,,,,,0,68,68,68,,,,,,,,,,,,,,,,,main,None,None,1,1.5011818999992101,339.99058199999854,None,None,1,,,,,,,,,,,,,,107,2023-04-17_13h42.22.742,Main,2022.1.1,59.83205143180328,
positive,yellow,1,None,k,,,,,,,,,0,69,69,69,,,,,,,,,,,,,,,,,main,k,k,1,0.5805410000029951,342.4931790999981,None,None,0,,,,,,,,,,,,,,107,2023-04-17_13h42.22.742,Main,2022.1.1,59.83205143180328,
negative,yellow,2,k,None,,,,,,,,,0,70,70,70,,,,,,,,,,,,,,,,,main,None,None,1,1.5011569000052987,344.0763205999974,None,None,1,,,,,,,,,,,,,,107,2023-04-17_13h42.22.742,Main,2022.1.1,59.83205143180328,
positive,yellow,1,None,k,,,,,,,,,0,71,71,71,,,,,,,,,,,,,,,,,main,k,k,1,0.714092599999276,346.5739418999947,None,None,0,,,,,,,,,,,,,,107,2023-04-17_13h42.22.742,Main,2022.1.1,59.83205143180328,
negative,blue,1,None,k,,,,,,,,,0,72,72,72,,,,,,,,,,,,,,,,,main,k,k,1,0.684739600001194,348.2928285999951,None,None,0,,,,,,,,,,,,,,107,2023-04-17_13h42.22.742,Main,2022.1.1,59.83205143180328,
negative,red,2,None,None,,,,,,,,,0,73,73,73,,,,,,,,,,,,,,,,,main,None,None,1,1.4963540000026114,349.97619389999454,None,None,1,,,,,,,,,,,,,,107,2023-04-17_13h42.22.742,Main,2022.1.1,59.83205143180328,
positive,blue,2,k,None,,,,,,,,,0,74,74,74,,,,,,,,,,,,,,,,,main,None,None,1,1.5019690000044648,352.4735842999944,None,None,1,,,,,,,,,,,,,,107,2023-04-17_13h42.22.742,Main,2022.1.1,59.83205143180328,
negative,blue,2,None,k,,,,,,,,,0,75,75,75,,,,,,,,,,,,,,,,,main,k,k,1,0.6492253999967943,354.9761939999953,None,None,0,,,,,,,,,,,,,,107,2023-04-17_13h42.22.742,Main,2022.1.1,59.83205143180328,
negative,blue,2,None,k,,,,,,,,,0,76,76,76,,,,,,,,,,,,,,,,,main,k,k,1,0.5651446999981999,356.6261794999955,None,None,0,,,,,,,,,,,,,,107,2023-04-17_13h42.22.742,Main,2022.1.1,59.83205143180328,
negative,yellow,1,k,None,,,,,,,,,0,77,77,77,,,,,,,,,,,,,,,,,main,None,None,1,1.4962970999986283,358.192813799993,None,None,1,,,,,,,,,,,,,,107,2023-04-17_13h42.22.742,Main,2022.1.1,59.83205143180328,
positive,blue,1,k,None,,,,,,,,,0,78,78,78,,,,,,,,,,,,,,,,,main,None,None,1,1.5019985999970231,360.6958125999954,None,None,1,,,,,,,,,,,,,,107,2023-04-17_13h42.22.742,Main,2022.1.1,59.83205143180328,
positive,blue,1,k,None,,,,,,,,,0,79,79,79,,,,,,,,,,,,,,,,,main,None,None,1,1.4989872000005562,363.1903123999946,None,None,1,,,,,,,,,,,,,,107,2023-04-17_13h42.22.742,Main,2022.1.1,59.83205143180328,
positive,red,2,None,None,,,,,,,,,0,80,80,80,,,,,,,,,,,,,,,,,main,None,None,1,1.4957247999991523,365.6925343999974,None,None,1,,,,,,,,,,,,,,107,2023-04-17_13h42.22.742,Main,2022.1.1,59.83205143180328,
positive,yellow,2,None,k,,,,,,,,,0,81,81,81,,,,,,,,,,,,,,,,,main,k,k,1,0.7994640999968396,368.18993950000004,None,None,0,,,,,,,,,,,,,,107,2023-04-17_13h42.22.742,Main,2022.1.1,59.83205143180328,
positive,blue,1,k,None,,,,,,,,,0,82,82,82,,,,,,,,,,,,,,,,,main,None,None,1,1.5015526999995927,369.9899351999993,None,None,1,,,,,,,,,,,,,,107,2023-04-17_13h42.22.742,Main,2022.1.1,59.83205143180328,
negative,yellow,2,k,None,,,,,,,,,0,83,83,83,,,,,,,,,,,,,,,,,main,None,None,1,1.4991534000000684,372.4925027999998,None,None,1,,,,,,,,,,,,,,107,2023-04-17_13h42.22.742,Main,2022.1.1,59.83205143180328,
positive,blue,2,k,None,,,,,,,,,0,84,84,84,,,,,,,,,,,,,,,,,main,None,None,1,1.499187499997788,374.99231339999824,None,None,1,,,,,,,,,,,,,,107,2023-04-17_13h42.22.742,Main,2022.1.1,59.83205143180328,
positive,yellow,1,None,k,,,,,,,,,0,85,85,85,,,,,,,,,,,,,,,,,main,k,k,1,0.7306134999962524,377.48998389999906,None,None,0,,,,,,,,,,,,,,107,2023-04-17_13h42.22.742,Main,2022.1.1,59.83205143180328,
positive,blue,2,k,None,,,,,,,,,0,86,86,86,,,,,,,,,,,,,,,,,main,None,None,1,1.5010735000032582,379.2255193999954,None,None,1,,,,,,,,,,,,,,107,2023-04-17_13h42.22.742,Main,2022.1.1,59.83205143180328,
positive,blue,1,k,None,,,,,,,,,0,87,87,87,,,,,,,,,,,,,,,,,main,None,None,1,1.4991601000001538,381.7255578999975,None,None,1,,,,,,,,,,,,,,107,2023-04-17_13h42.22.742,Main,2022.1.1,59.83205143180328,
negative,yellow,2,k,None,,,,,,,,,0,88,88,88,,,,,,,,,,,,,,,,,main,None,None,1,1.4968908999944688,384.22318619999714,None,None,1,,,,,,,,,,,,,,107,2023-04-17_13h42.22.742,Main,2022.1.1,59.83205143180328,
negative,blue,2,None,k,,,,,,,,,0,89,89,89,,,,,,,,,,,,,,,,,main,k,k,1,0.8683407999997144,386.72536549999495,None,None,0,,,,,,,,,,,,,,107,2023-04-17_13h42.22.742,Main,2022.1.1,59.83205143180328,
positive,yellow,2,None,k,,,,,,,,,0,90,90,90,,,,,,,,,,,,,,,,,main,k,k,1,0.813686500005133,388.59213389999786,None,None,0,,,,,,,,,,,,,,107,2023-04-17_13h42.22.742,Main,2022.1.1,59.83205143180328,
negative,yellow,1,k,None,,,,,,,,,0,91,91,91,,,,,,,,,,,,,,,,,main,None,None,1,1.500911899995117,390.40638419999595,None,None,1,,,,,,,,,,,,,,107,2023-04-17_13h42.22.742,Main,2022.1.1,59.83205143180328,
negative,red,2,None,None,,,,,,,,,0,92,92,92,,,,,,,,,,,,,,,,,main,None,None,1,1.4991578000044683,392.90638449999824,None,None,1,,,,,,,,,,,,,,107,2023-04-17_13h42.22.742,Main,2022.1.1,59.83205143180328,
negative,blue,2,None,k,,,,,,,,,0,93,93,93,,,,,,,,,,,,,,,,,main,k,k,1,0.6468871000033687,395.40635729999485,None,None,0,,,,,,,,,,,,,,107,2023-04-17_13h42.22.742,Main,2022.1.1,59.83205143180328,
negative,blue,1,None,k,,,,,,,,,0,94,94,94,,,,,,,,,,,,,,,,,main,k,k,1,0.5824810999984038,397.0616668999937,None,None,0,,,,,,,,,,,,,,107,2023-04-17_13h42.22.742,Main,2022.1.1,59.83205143180328,
negative,blue,1,None,k,,,,,,,,,0,95,95,95,,,,,,,,,,,,,,,,,main,k,k,1,0.6351160999984131,398.6393126999974,None,None,0,,,,,,,,,,,,,,107,2023-04-17_13h42.22.742,Main,2022.1.1,59.83205143180328,
negative,red,1,None,None,,,,,,,,,0,96,96,96,,,,,,,,,,,,,,,,,main,None,None,1,1.499016900001152,400.2752080999999,None,None,1,,,,,,,,,,,,,,107,2023-04-17_13h42.22.742,Main,2022.1.1,59.83205143180328,
positive,yellow,1,None,k,,,,,,,,,0,97,97,97,,,,,,,,,,,,,,,,,main,k,k,1,0.7305813999992097,402.77529559999675,None,None,0,,,,,,,,,,,,,,107,2023-04-17_13h42.22.742,Main,2022.1.1,59.83205143180328,
negative,yellow,1,k,None,,,,,,,,,0,98,98,98,,,,,,,,,,,,,,,,,main,None,None,1,1.4988032000037492,404.50842179999745,None,None,1,,,,,,,,,,,,,,107,2023-04-17_13h42.22.742,Main,2022.1.1,59.83205143180328,
positive,red,1,None,None,,,,,,,,,0,99,99,99,,,,,,,,,,,,,,,,,main,None,None,1,1.5014664999980596,407.00605709999945,None,None,1,,,,,,,,,,,,,,107,2023-04-17_13h42.22.742,Main,2022.1.1,59.83205143180328,
positive,blue,1,k,None,,,,,,,,,0,100,100,100,,,,,,,,,,,,,,,,,main,None,None,1,1.49912160000531,409.50605249999353,None,None,1,,,,,,,,,,,,,,107,2023-04-17_13h42.22.742,Main,2022.1.1,59.83205143180328,
negative,yellow,1,k,None,,,,,,,,,0,101,101,101,,,,,,,,,,,,,,,,,main,None,None,1,1.4990761000008206,412.0083813999954,None,None,1,,,,,,,,,,,,,,107,2023-04-17_13h42.22.742,Main,2022.1.1,59.83205143180328,
negative,blue,2,None,k,,,,,,,,,0,102,102,102,,,,,,,,,,,,,,,,,main,k,k,1,0.5806439999942086,414.5058926999991,None,None,0,,,,,,,,,,,,,,107,2023-04-17_13h42.22.742,Main,2022.1.1,59.83205143180328,
negative,yellow,2,k,None,,,,,,,,,0,103,103,103,,,,,,,,,,,,,,,,,main,None,None,1,1.5011881000027643,416.09147629999643,None,None,1,,,,,,,,,,,,,,107,2023-04-17_13h42.22.742,Main,2022.1.1,59.83205143180328,
positive,yellow,2,None,k,,,,,,,,,0,104,104,104,,,,,,,,,,,,,,,,,main,k,k,1,0.5828590000019176,418.58906219999335,None,None,0,,,,,,,,,,,,,,107,2023-04-17_13h42.22.742,Main,2022.1.1,59.83205143180328,
positive,blue,1,k,None,,,,,,,,,0,105,105,105,,,,,,,,,,,,,,,,,main,None,None,1,1.4988726000010502,420.1725279999955,None,None,1,,,,,,,,,,,,,,107,2023-04-17_13h42.22.742,Main,2022.1.1,59.83205143180328,
positive,blue,2,k,None,,,,,,,,,0,106,106,106,,,,,,,,,,,,,,,,,main,None,None,1,1.4993794000038179,422.6746450999999,None,None,1,,,,,,,,,,,,,,107,2023-04-17_13h42.22.742,Main,2022.1.1,59.83205143180328,
negative,blue,1,None,k,,,,,,,,,0,107,107,107,,,,,,,,,,,,,,,,,main,k,k,1,0.5969783000036841,425.174700399999,None,None,0,,,,,,,,,,,,,,107,2023-04-17_13h42.22.742,Main,2022.1.1,59.83205143180328,
positive,yellow,2,None,k,,,,,,,,,0,108,108,108,,,,,,,,,,,,,,,,,main,k,k,1,0.699401999998372,426.7723459999979,None,None,0,,,,,,,,,,,,,,107,2023-04-17_13h42.22.742,Main,2022.1.1,59.83205143180328,
negative,yellow,1,k,None,,,,,,,,,0,109,109,109,,,,,,,,,,,,,,,,,main,None,None,1,1.50130899999931,428.4721500999949,None,None,1,,,,,,,,,,,,,,107,2023-04-17_13h42.22.742,Main,2022.1.1,59.83205143180328,
negative,blue,2,None,k,,,,,,,,,0,110,110,110,,,,,,,,,,,,,,,,,main,k,k,1,0.6825527000037255,430.97454319999815,None,None,0,,,,,,,,,,,,,,107,2023-04-17_13h42.22.742,Main,2022.1.1,59.83205143180328,
positive,blue,2,k,None,,,,,,,,,0,111,111,111,,,,,,,,,,,,,,,,,main,None,None,1,1.496406800004479,432.6578819999995,None,None,1,,,,,,,,,,,,,,107,2023-04-17_13h42.22.742,Main,2022.1.1,59.83205143180328,
negative,blue,1,None,k,,,,,,,,,0,112,112,112,,,,,,,,,,,,,,,,,main,k,k,1,0.6496783999973559,435.155262399996,None,None,0,,,,,,,,,,,,,,107,2023-04-17_13h42.22.742,Main,2022.1.1,59.83205143180328,
positive,yellow,1,None,k,,,,,,,,,0,113,113,113,,,,,,,,,,,,,,,,,main,k,k,1,0.6993657000057283,436.80527989999973,None,None,0,,,,,,,,,,,,,,107,2023-04-17_13h42.22.742,Main,2022.1.1,59.83205143180328,
negative,red,1,None,None,,,,,,,,,0,114,114,114,,,,,,,,,,,,,,,,,main,None,None,1,1.5013407000005827,438.5078552999985,None,None,1,,,,,,,,,,,,,,107,2023-04-17_13h42.22.742,Main,2022.1.1,59.83205143180328,
positive,red,1,None,None,,,,,,,,,0,115,115,115,,,,,,,,,,,,,,,,,main,None,None,1,1.4990084000019124,441.00778929999797,None,None,1,,,,,,,,,,,,,,107,2023-04-17_13h42.22.742,Main,2022.1.1,59.83205143180328,
negative,red,2,None,None,,,,,,,,,0,116,116,116,,,,,,,,,,,,,,,,,main,None,None,1,1.499084800001583,443.5053631999981,None,None,1,,,,,,,,,,,,,,107,2023-04-17_13h42.22.742,Main,2022.1.1,59.83205143180328,
negative,yellow,2,k,None,,,,,,,,,0,117,117,117,,,,,,,,,,,,,,,,,main,None,None,1,1.499209300003713,446.0052518999946,None,None,1,,,,,,,,,,,,,,107,2023-04-17_13h42.22.742,Main,2022.1.1,59.83205143180328,
positive,yellow,1,None,k,,,,,,,,,0,118,118,118,,,,,,,,,,,,,,,,,main,k,k,1,0.6807318999999552,448.505265199994,None,None,0,,,,,,,,,,,,,,107,2023-04-17_13h42.22.742,Main,2022.1.1,59.83205143180328,
positive,red,2,None,None,,,,,,,,,0,119,119,119,,,,,,,,,,,,,,,,,main,None,None,1,1.501470800001698,450.1908378999942,None,None,1,,,,,,,,,,,,,,107,2023-04-17_13h42.22.742,Main,2022.1.1,59.83205143180328,
positive,blue,2,k,None,,,,,,,,,0,120,120,120,,,,,,,,,,,,,,,,,main,None,None,1,1.4990237999954843,452.6884566999943,None,None,1,,,,,,,,,,,,,,107,2023-04-17_13h42.22.742,Main,2022.1.1,59.83205143180328,
negative,red,1,None,None,,,,,,,,,0,121,121,121,,,,,,,,,,,,,,,,,main,None,None,1,1.5027390999966883,455.19085779999295,None,None,1,,,,,,,,,,,,,,107,2023-04-17_13h42.22.742,Main,2022.1.1,59.83205143180328,
positive,yellow,2,None,k,,,,,,,,,0,122,122,122,,,,,,,,,,,,,,,,,main,k,k,1,0.6599838999973144,457.6925839999967,None,None,0,,,,,,,,,,,,,,107,2023-04-17_13h42.22.742,Main,2022.1.1,59.83205143180328,
negative,red,2,None,None,,,,,,,,,0,123,123,123,,,,,,,,,,,,,,,,,main,None,None,1,1.5014744000000064,459.3547713999942,None,None,1,,,,,,,,,,,,,,107,2023-04-17_13h42.22.742,Main,2022.1.1,59.83205143180328,
negative,yellow,2,k,None,,,,,,,,,0,124,124,124,,,,,,,,,,,,,,,,,main,None,None,1,1.4994598999983282,461.8573297999974,None,None,1,,,,,,,,,,,,,,107,2023-04-17_13h42.22.742,Main,2022.1.1,59.83205143180328,
positive,red,1,None,None,,,,,,,,,0,125,125,125,,,,,,,,,,,,,,,,,main,None,None,1,1.498835300000792,464.3573016999944,None,None,1,,,,,,,,,,,,,,107,2023-04-17_13h42.22.742,Main,2022.1.1,59.83205143180328,
negative,blue,2,None,k,,,,,,,,,0,126,126,126,,,,,,,,,,,,,,,,,main,k,k,1,0.6470337999999174,466.8571273999987,None,None,0,,,,,,,,,,,,,,107,2023-04-17_13h42.22.742,Main,2022.1.1,59.83205143180328,
negative,blue,1,None,k,,,,,,,,,0,127,127,127,,,,,,,,,,,,,,,,,main,k,k,1,0.699539499997627,468.50457739999547,None,None,0,,,,,,,,,,,,,,107,2023-04-17_13h42.22.742,Main,2022.1.1,59.83205143180328,
negative,yellow,1,k,None,,,,,,,,,0,128,128,128,,,,,,,,,,,,,,,,,main,None,None,1,1.5012033000020892,470.2046001999988,None,None,1,,,,,,,,,,,,,,107,2023-04-17_13h42.22.742,Main,2022.1.1,59.83205143180328,
negative,yellow,1,k,None,,,,,,,,,0,129,129,129,,,,,,,,,,,,,,,,,main,None,None,1,1.499154199998884,472.70722899999964,None,None,1,,,,,,,,,,,,,,107,2023-04-17_13h42.22.742,Main,2022.1.1,59.83205143180328,
positive,blue,1,k,None,,,,,,,,,0,130,130,130,,,,,,,,,,,,,,,,,main,None,None,1,1.4968240000016522,475.2070134999958,None,None,1,,,,,,,,,,,,,,107,2023-04-17_13h42.22.742,Main,2022.1.1,59.83205143180328,
negative,blue,1,None,k,,,,,,,,,0,131,131,131,,,,,,,,,,,,,,,,,main,k,k,1,0.6687963000003947,477.70438699999795,None,None,0,,,,,,,,,,,,,,107,2023-04-17_13h42.22.742,Main,2022.1.1,59.83205143180328,
negative,blue,2,None,k,,,,,,,,,0,132,132,132,,,,,,,,,,,,,,,,,main,k,k,1,0.6993753999995533,479.37145099999907,None,None,0,,,,,,,,,,,,,,107,2023-04-17_13h42.22.742,Main,2022.1.1,59.83205143180328,
positive,blue,2,k,None,,,,,,,,,0,133,133,133,,,,,,,,,,,,,,,,,main,None,None,1,1.498919699995895,481.0737059999956,None,None,1,,,,,,,,,,,,,,107,2023-04-17_13h42.22.742,Main,2022.1.1,59.83205143180328,
positive,red,2,None,None,,,,,,,,,0,134,134,134,,,,,,,,,,,,,,,,,main,None,None,1,1.496094299996912,483.57343330000003,None,None,1,,,,,,,,,,,,,,107,2023-04-17_13h42.22.742,Main,2022.1.1,59.83205143180328,
negative,yellow,2,k,None,,,,,,,,,0,135,135,135,,,,,,,,,,,,,,,,,main,None,None,1,1.5018448000046192,486.0708974999943,None,None,1,,,,,,,,,,,,,,107,2023-04-17_13h42.22.742,Main,2022.1.1,59.83205143180328,
positive,yellow,2,None,k,,,,,,,,,0,136,136,136,,,,,,,,,,,,,,,,,main,k,k,1,0.6496034000010695,488.57348179999826,None,None,0,,,,,,,,,,,,,,107,2023-04-17_13h42.22.742,Main,2022.1.1,59.83205143180328,
positive,blue,1,k,None,,,,,,,,,0,137,137,137,,,,,,,,,,,,,,,,,main,None,None,1,1.49613970000064,490.22345679999853,None,None,1,,,,,,,,,,,,,,107,2023-04-17_13h42.22.742,Main,2022.1.1,59.83205143180328,
positive,yellow,1,None,k,,,,,,,,,0,138,138,138,,,,,,,,,,,,,,,,,main,k,k,1,1.0504784999939147,492.72092999999586,None,None,0,,,,,,,,,,,,,,107,2023-04-17_13h42.22.742,Main,2022.1.1,59.83205143180328,
positive,yellow,1,None,k,,,,,,,,,0,139,139,139,,,,,,,,,,,,,,,,,main,k,k,1,0.584275000001071,494.77078139999503,None,None,0,,,,,,,,,,,,,,107,2023-04-17_13h42.22.742,Main,2022.1.1,59.83205143180328,
positive,yellow,1,None,k,,,,,,,,,0,140,140,140,,,,,,,,,,,,,,,,,main,k,k,1,0.5325946999946609,496.3566809999975,None,None,0,,,,,,,,,,,,,,107,2023-04-17_13h42.22.742,Main,2022.1.1,59.83205143180328,
positive,blue,1,k,None,,,,,,,,,0,141,141,141,,,,,,,,,,,,,,,,,main,None,None,1,1.4987593999976525,497.8899973999942,None,None,1,,,,,,,,,,,,,,107,2023-04-17_13h42.22.742,Main,2022.1.1,59.83205143180328,
positive,blue,2,k,None,,,,,,,,,0,142,142,142,,,,,,,,,,,,,,,,,main,None,None,1,1.496698999995715,500.3898147999935,None,None,1,,,,,,,,,,,,,,107,2023-04-17_13h42.22.742,Main,2022.1.1,59.83205143180328,
positive,yellow,2,None,k,,,,,,,,,0,143,143,143,,,,,,,,,,,,,,,,,main,k,k,1,0.7852999999959138,502.8872598999951,None,None,0,,,,,,,,,,,,,,107,2023-04-17_13h42.22.742,Main,2022.1.1,59.83205143180328,
negative,yellow,2,k,None,,,,,,,,,0,144,144,144,,,,,,,,,,,,,,,,,main,None,None,1,1.4988812000010512,504.67317969999567,None,None,1,,,,,,,,,,,,,,107,2023-04-17_13h42.22.742,Main,2022.1.1,59.83205143180328,
negative,blue,2,None,k,,,,,,,,,0,145,145,145,,,,,,,,,,,,,,,,,main,k,k,1,0.7164197999954922,507.1730507999964,None,None,0,,,,,,,,,,,,,,107,2023-04-17_13h42.22.742,Main,2022.1.1,59.83205143180328,
negative,red,1,None,None,,,,,,,,,0,146,146,146,,,,,,,,,,,,,,,,,main,None,None,1,1.4965867999999318,508.8896470999971,None,None,1,,,,,,,,,,,,,,107,2023-04-17_13h42.22.742,Main,2022.1.1,59.83205143180328,
positive,blue,1,k,None,,,,,,,,,0,147,147,147,,,,,,,,,,,,,,,,,main,None,None,1,1.5016057999964687,511.3871191999933,None,None,1,,,,,,,,,,,,,,107,2023-04-17_13h42.22.742,Main,2022.1.1,59.83205143180328,
positive,yellow,1,None,k,,,,,,,,,0,148,148,148,,,,,,,,,,,,,,,,,main,k,k,1,0.6327519999977085,513.8896148999993,None,None,0,,,,,,,,,,,,,,107,2023-04-17_13h42.22.742,Main,2022.1.1,59.83205143180328,
negative,red,2,None,None,,,,,,,,,0,149,149,149,,,,,,,,,,,,,,,,,main,None,None,1,1.496409000006679,515.522942699994,None,None,1,,,,,,,,,,,,,,107,2023-04-17_13h42.22.742,Main,2022.1.1,59.83205143180328,
negative,blue,1,None,k,,,,,,,,,0,150,150,150,,,,,,,,,,,,,,,,,main,k,k,1,0.6195344000007026,518.0203104999964,None,None,0,,,,,,,,,,,,,,107,2023-04-17_13h42.22.742,Main,2022.1.1,59.83205143180328,
negative,yellow,2,k,None,,,,,,,,,0,151,151,151,,,,,,,,,,,,,,,,,main,None,None,1,1.499051500002679,519.6372939999928,None,None,1,,,,,,,,,,,,,,107,2023-04-17_13h42.22.742,Main,2022.1.1,59.83205143180328,
negative,blue,2,None,k,,,,,,,,,0,152,152,152,,,,,,,,,,,,,,,,,main,k,k,1,0.6846830000067712,522.1393596999987,None,None,0,,,,,,,,,,,,,,107,2023-04-17_13h42.22.742,Main,2022.1.1,59.83205143180328,
negative,yellow,1,k,None,,,,,,,,,0,153,153,153,,,,,,,,,,,,,,,,,main,None,None,1,1.4959084000001894,523.8292063999979,None,None,1,,,,,,,,,,,,,,107,2023-04-17_13h42.22.742,Main,2022.1.1,59.83205143180328,
negative,blue,1,None,k,,,,,,,,,0,154,154,154,,,,,,,,,,,,,,,,,main,k,k,1,0.6328671000010218,526.3203428999986,None,None,0,,,,,,,,,,,,,,107,2023-04-17_13h42.22.742,Main,2022.1.1,59.83205143180328,
positive,yellow,2,None,k,,,,,,,,,0,155,155,155,,,,,,,,,,,,,,,,,main,k,k,1,0.699265799994464,527.9559052999975,None,None,0,,,,,,,,,,,,,,107,2023-04-17_13h42.22.742,Main,2022.1.1,59.83205143180328,
positive,red,2,None,None,,,,,,,,,0,156,156,156,,,,,,,,,,,,,,,,,main,None,None,1,1.4989382999992813,529.6558298999953,None,None,1,,,,,,,,,,,,,,107,2023-04-17_13h42.22.742,Main,2022.1.1,59.83205143180328,
positive,red,1,None,None,,,,,,,,,0,157,157,157,,,,,,,,,,,,,,,,,main,None,None,1,1.4970157999996445,532.1535180999999,None,None,1,,,,,,,,,,,,,,107,2023-04-17_13h42.22.742,Main,2022.1.1,59.83205143180328,
positive,blue,2,k,None,,,,,,,,,0,158,158,158,,,,,,,,,,,,,,,,,main,None,None,1,1.5014939999964554,534.6557027999952,None,None,1,,,,,,,,,,,,,,107,2023-04-17_13h42.22.742,Main,2022.1.1,59.83205143180328,
negative,yellow,1,k,None,,,,,,,,,0,159,159,159,,,,,,,,,,,,,,,,,main,None,None,1,1.4966985999999451,537.1557243999996,None,None,1,,,,,,,,,,,,,,107,2023-04-17_13h42.22.742,Main,2022.1.1,59.83205143180328,
negative,red,2,None,None,,,,,,,,,0,160,160,160,,,,,,,,,,,,,,,,,main,None,None,1,1.5017875000048662,539.6531887999954,None,None,1,,,,,,,,,,,,,,107,2023-04-17_13h42.22.742,Main,2022.1.1,59.83205143180328,
negative,blue,1,None,k,,,,,,,,,0,161,161,161,,,,,,,,,,,,,,,,,main,k,k,1,0.7339372999995248,542.1557965999964,None,None,0,,,,,,,,,,,,,,107,2023-04-17_13h42.22.742,Main,2022.1.1,59.83205143180328,
negative,blue,1,None,k,,,,,,,,,0,162,162,162,,,,,,,,,,,,,,,,,main,k,k,1,0.5121178000044893,543.8890033999996,None,None,0,,,,,,,,,,,,,,107,2023-04-17_13h42.22.742,Main,2022.1.1,59.83205143180328,
negative,yellow,1,k,None,,,,,,,,,0,163,163,163,,,,,,,,,,,,,,,,,main,None,None,1,1.5014965000009397,545.4031891999985,None,None,1,,,,,,,,,,,,,,107,2023-04-17_13h42.22.742,Main,2022.1.1,59.83205143180328,
negative,yellow,1,k,None,,,,,,,,,0,164,164,164,,,,,,,,,,,,,,,,,main,None,None,1,1.4993992000017897,547.9057657999947,None,None,1,,,,,,,,,,,,,,107,2023-04-17_13h42.22.742,Main,2022.1.1,59.83205143180328,
positive,yellow,1,None,k,,,,,,,,,0,165,165,165,,,,,,,,,,,,,,,,,main,k,k,1,0.6305489000005764,550.4056633999935,None,None,0,,,,,,,,,,,,,,107,2023-04-17_13h42.22.742,Main,2022.1.1,59.83205143180328,
negative,red,1,None,None,,,,,,,,,0,166,166,166,,,,,,,,,,,,,,,,,main,None,None,1,1.4986558000018704,552.036612099997,None,None,1,,,,,,,,,,,,,,107,2023-04-17_13h42.22.742,Main,2022.1.1,59.83205143180328,
negative,yellow,2,k,None,,,,,,,,,0,167,167,167,,,,,,,,,,,,,,,,,main,None,None,1,1.5019363999963389,554.5361610999971,None,None,1,,,,,,,,,,,,,,107,2023-04-17_13h42.22.742,Main,2022.1.1,59.83205143180328,
positive,blue,2,k,None,,,,,,,,,0,168,168,168,,,,,,,,,,,,,,,,,main,None,None,1,1.4991614000027766,557.0365279999969,None,None,1,,,,,,,,,,,,,,107,2023-04-17_13h42.22.742,Main,2022.1.1,59.83205143180328,
positive,red,2,None,None,,,,,,,,,0,169,169,169,,,,,,,,,,,,,,,,,main,None,None,1,1.4967287999970722,559.5387252,None,None,1,,,,,,,,,,,,,,107,2023-04-17_13h42.22.742,Main,2022.1.1,59.83205143180328,
positive,red,1,None,None,,,,,,,,,0,170,170,170,,,,,,,,,,,,,,,,,main,None,None,1,1.501696200000879,562.0360698999939,None,None,1,,,,,,,,,,,,,,107,2023-04-17_13h42.22.742,Main,2022.1.1,59.83205143180328,
negative,blue,2,None,k,,,,,,,,,0,171,171,171,,,,,,,,,,,,,,,,,main,k,k,1,0.9328750999993645,564.5385921999987,None,None,0,,,,,,,,,,,,,,107,2023-04-17_13h42.22.742,Main,2022.1.1,59.83205143180328,
positive,blue,2,k,None,,,,,,,,,0,172,172,172,,,,,,,,,,,,,,,,,main,None,None,1,1.4961553000030108,566.4695550999968,None,None,1,,,,,,,,,,,,,,107,2023-04-17_13h42.22.742,Main,2022.1.1,59.83205143180328,
negative,yellow,2,k,None,,,,,,,,,0,173,173,173,,,,,,,,,,,,,,,,,main,None,None,1,1.5020695999992313,568.9692058999935,None,None,1,,,,,,,,,,,,,,107,2023-04-17_13h42.22.742,Main,2022.1.1,59.83205143180328,
positive,yellow,2,None,k,,,,,,,,,0,174,174,174,,,,,,,,,,,,,,,,,main,k,k,1,0.7158044999960111,571.4695865999965,None,None,0,,,,,,,,,,,,,,107,2023-04-17_13h42.22.742,Main,2022.1.1,59.83205143180328,
negative,blue,2,None,k,,,,,,,,,0,175,175,175,,,,,,,,,,,,,,,,,main,k,k,1,0.780150999999023,573.188450099995,None,None,0,,,,,,,,,,,,,,107,2023-04-17_13h42.22.742,Main,2022.1.1,59.83205143180328,
positive,blue,1,k,None,,,,,,,,,0,176,176,176,,,,,,,,,,,,,,,,,main,None,None,1,1.501150600000983,574.971627699997,None,None,1,,,,,,,,,,,,,,107,2023-04-17_13h42.22.742,Main,2022.1.1,59.83205143180328,
positive,yellow,1,None,k,,,,,,,,,0,177,177,177,,,,,,,,,,,,,,,,,main,k,k,1,0.6808376999979373,577.4693794999985,None,None,0,,,,,,,,,,,,,,107,2023-04-17_13h42.22.742,Main,2022.1.1,59.83205143180328,
positive,blue,1,k,None,,,,,,,,,0,178,178,178,,,,,,,,,,,,,,,,,main,None,None,1,1.5009442000009585,579.1548457999961,None,None,1,,,,,,,,,,,,,,107,2023-04-17_13h42.22.742,Main,2022.1.1,59.83205143180328,
positive,yellow,2,None,k,,,,,,,,,0,179,179,179,,,,,,,,,,,,,,,,,main,k,k,1,0.7162895000001299,581.6548537999988,None,None,0,,,,,,,,,,,,,,107,2023-04-17_13h42.22.742,Main,2022.1.1,59.83205143180328,
positive,blue,1,k,None,,,,,,,,,0,180,180,180,,,,,,,,,,,,,,,,,main,None,None,1,1.498869899995043,583.3691668999963,None,None,1,,,,,,,,,,,,,,107,2023-04-17_13h42.22.742,Main,2022.1.1,59.83205143180328,
negative,red,1,None,None,,,,,,,,,0,181,181,181,,,,,,,,,,,,,,,,,main,None,None,1,1.4989232000007178,585.8713623999938,None,None,1,,,,,,,,,,,,,,107,2023-04-17_13h42.22.742,Main,2022.1.1,59.83205143180328,
negative,blue,1,None,k,,,,,,,,,0,182,182,182,,,,,,,,,,,,,,,,,main,k,k,1,1.3312817000041832,588.371330599999,None,None,0,,,,,,,,,,,,,,107,2023-04-17_13h42.22.742,Main,2022.1.1,59.83205143180328,
negative,yellow,2,k,None,,,,,,,,,0,183,183,183,,,,,,,,,,,,,,,,,main,None,None,1,1.501729499999783,590.7021067999958,None,None,1,,,,,,,,,,,,,,107,2023-04-17_13h42.22.742,Main,2022.1.1,59.83205143180328,
positive,yellow,2,None,k,,,,,,,,,0,184,184,184,,,,,,,,,,,,,,,,,main,k,k,1,0.7983101999998325,593.2048324999996,None,None,0,,,,,,,,,,,,,,107,2023-04-17_13h42.22.742,Main,2022.1.1,59.83205143180328,
positive,yellow,1,None,k,,,,,,,,,0,185,185,185,,,,,,,,,,,,,,,,,main,k,k,1,0.865854900002887,595.0046684999979,None,None,0,,,,,,,,,,,,,,107,2023-04-17_13h42.22.742,Main,2022.1.1,59.83205143180328,
positive,red,2,None,None,,,,,,,,,0,186,186,186,,,,,,,,,,,,,,,,,main,None,None,1,1.4962451999963378,596.8689320999983,None,None,1,,,,,,,,,,,,,,107,2023-04-17_13h42.22.742,Main,2022.1.1,59.83205143180328,
positive,blue,1,k,None,,,,,,,,,0,187,187,187,,,,,,,,,,,,,,,,,main,None,None,1,1.4992314000046463,599.3685913999943,None,None,1,,,,,,,,,,,,,,107,2023-04-17_13h42.22.742,Main,2022.1.1,59.83205143180328,
negative,yellow,1,k,None,,,,,,,,,0,188,188,188,,,,,,,,,,,,,,,,,main,None,None,1,1.502852100005839,601.8686015999992,None,None,1,,,,,,,,,,,,,,107,2023-04-17_13h42.22.742,Main,2022.1.1,59.83205143180328,
positive,yellow,2,None,k,,,,,,,,,0,189,189,189,,,,,,,,,,,,,,,,,main,k,k,1,0.7454332999986946,604.3711623999989,None,None,0,,,,,,,,,,,,,,107,2023-04-17_13h42.22.742,Main,2022.1.1,59.83205143180328,
negative,yellow,2,k,None,,,,,,,,,0,190,190,190,,,,,,,,,,,,,,,,,main,None,None,1,1.4989663000014843,606.1184888999996,None,None,1,,,,,,,,,,,,,,107,2023-04-17_13h42.22.742,Main,2022.1.1,59.83205143180328,
negative,yellow,1,k,None,,,,,,,,,0,191,191,191,,,,,,,,,,,,,,,,,main,None,None,1,1.501823599995987,608.6184255999979,None,None,1,,,,,,,,,,,,,,107,2023-04-17_13h42.22.742,Main,2022.1.1,59.83205143180328,
positive,blue,2,k,None,,,,,,,,,0,192,192,192,,,,,,,,,,,,,,,,,main,None,None,1,1.496403700002702,611.1210337999946,None,None,1,,,,,,,,,,,,,,107,2023-04-17_13h42.22.742,Main,2022.1.1,59.83205143180328,
positive,yellow,1,None,k,,,,,,,,,0,193,193,193,,,,,,,,,,,,,,,,,main,k,k,1,0.8498100000069826,613.6183007999934,None,None,0,,,,,,,,,,,,,,107,2023-04-17_13h42.22.742,Main,2022.1.1,59.83205143180328,
negative,red,2,None,None,,,,,,,,,0,194,194,194,,,,,,,,,,,,,,,,,main,None,None,1,1.5013375999988057,615.4683493999983,None,None,1,,,,,,,,,,,,,,107,2023-04-17_13h42.22.742,Main,2022.1.1,59.83205143180328,
positive,red,1,None,None,,,,,,,,,0,195,195,195,,,,,,,,,,,,,,,,,main,None,None,1,1.499343499999668,617.9708994999964,None,None,1,,,,,,,,,,,,,,107,2023-04-17_13h42.22.742,Main,2022.1.1,59.83205143180328,
negative,blue,1,None,k,,,,,,,,,0,196,196,196,,,,,,,,,,,,,,,,,main,k,k,1,0.6802119000058156,620.4684643,None,None,0,,,,,,,,,,,,,,107,2023-04-17_13h42.22.742,Main,2022.1.1,59.83205143180328,
positive,blue,2,k,None,,,,,,,,,0,197,197,197,,,,,,,,,,,,,,,,,main,None,None,1,1.5015774999992573,622.1514653999984,None,None,1,,,,,,,,,,,,,,107,2023-04-17_13h42.22.742,Main,2022.1.1,59.83205143180328,
negative,blue,2,None,k,,,,,,,,,0,198,198,198,,,,,,,,,,,,,,,,,main,k,k,1,0.6661440999960178,624.6541737999942,None,None,0,,,,,,,,,,,,,,107,2023-04-17_13h42.22.742,Main,2022.1.1,59.83205143180328,
negative,blue,2,None,k,,,,,,,,,0,199,199,199,,,,,,,,,,,,,,,,,main,k,k,1,0.6306456000020262,626.3207018999965,None,None,0,,,,,,,,,,,,,,107,2023-04-17_13h42.22.742,Main,2022.1.1,59.83205143180328,
positive,blue,2,k,None,,,,,,,,,0,200,200,200,,,,,,,,,,,,,,,,,main,None,None,1,1.4985315000012633,627.9516678999935,None,None,1,,,,,,,,,,,,,,107,2023-04-17_13h42.22.742,Main,2022.1.1,59.83205143180328,
positive,blue,2,k,None,,,,,,,,,0,201,201,201,,,,,,,,,,,,,,,,,main,None,None,1,1.5011018000004697,630.4515261999986,None,None,1,,,,,,,,,,,,,,107,2023-04-17_13h42.22.742,Main,2022.1.1,59.83205143180328,
negative,yellow,2,k,None,,,,,,,,,0,202,202,202,,,,,,,,,,,,,,,,,main,None,None,1,1.4992806000009296,632.9515272999997,None,None,1,,,,,,,,,,,,,,107,2023-04-17_13h42.22.742,Main,2022.1.1,59.83205143180328,
positive,red,1,None,None,,,,,,,,,0,203,203,203,,,,,,,,,,,,,,,,,main,None,None,1,1.4965634000036516,635.4538298999978,None,None,1,,,,,,,,,,,,,,107,2023-04-17_13h42.22.742,Main,2022.1.1,59.83205143180328,
negative,blue,2,None,k,,,,,,,,,0,204,204,204,,,,,,,,,,,,,,,,,main,k,k,1,0.6022286999941571,637.9512031999984,None,None,0,,,,,,,,,,,,,,107,2023-04-17_13h42.22.742,Main,2022.1.1,59.83205143180328,
negative,red,1,None,None,,,,,,,,,0,205,205,205,,,,,,,,,,,,,,,,,main,None,None,1,1.4987327999988338,639.5538002999965,None,None,1,,,,,,,,,,,,,,107,2023-04-17_13h42.22.742,Main,2022.1.1,59.83205143180328,
negative,blue,2,None,k,,,,,,,,,0,206,206,206,,,,,,,,,,,,,,,,,main,k,k,1,0.6146293000056176,642.0538215999986,None,None,0,,,,,,,,,,,,,,107,2023-04-17_13h42.22.742,Main,2022.1.1,59.83205143180328,
negative,yellow,2,k,None,,,,,,,,,0,207,207,207,,,,,,,,,,,,,,,,,main,None,None,1,1.4986528000008548,643.6702363999939,None,None,1,,,,,,,,,,,,,,107,2023-04-17_13h42.22.742,Main,2022.1.1,59.83205143180328,
positive,yellow,2,None,k,,,,,,,,,0,208,208,208,,,,,,,,,,,,,,,,,main,k,k,1,0.581976699999359,646.1679109999968,None,None,0,,,,,,,,,,,,,,107,2023-04-17_13h42.22.742,Main,2022.1.1,59.83205143180328,
negative,yellow,1,k,None,,,,,,,,,0,209,209,209,,,,,,,,,,,,,,,,,main,None,None,1,1.5014419999934034,647.7510056999963,None,None,1,,,,,,,,,,,,,,107,2023-04-17_13h42.22.742,Main,2022.1.1,59.83205143180328,
negative,red,2,None,None,,,,,,,,,0,210,210,210,,,,,,,,,,,,,,,,,main,None,None,1,1.4990787999995518,650.2535323999982,None,None,1,,,,,,,,,,,,,,107,2023-04-17_13h42.22.742,Main,2022.1.1,59.83205143180328,
negative,blue,1,None,k,,,,,,,,,0,211,211,211,,,,,,,,,,,,,,,,,main,k,k,1,0.6475099999952363,652.7533535999974,None,None,0,,,,,,,,,,,,,,107,2023-04-17_13h42.22.742,Main,2022.1.1,59.83205143180328,
negative,yellow,1,k,None,,,,,,,,,0,212,212,212,,,,,,,,,,,,,,,,,main,None,None,1,1.501043900003424,654.400993599993,None,None,1,,,,,,,,,,,,,,107,2023-04-17_13h42.22.742,Main,2022.1.1,59.83205143180328,
positive,blue,1,k,None,,,,,,,,,0,213,213,213,,,,,,,,,,,,,,,,,main,None,None,1,1.5021811000042362,656.9034332999945,None,None,1,,,,,,,,,,,,,,107,2023-04-17_13h42.22.742,Main,2022.1.1,59.83205143180328,
positive,blue,1,k,None,,,,,,,,,0,214,214,214,,,,,,,,,,,,,,,,,main,None,None,1,1.4962691000037012,659.4043390999941,None,None,1,,,,,,,,,,,,,,107,2023-04-17_13h42.22.742,Main,2022.1.1,59.83205143180328,
positive,yellow,1,None,k,,,,,,,,,0,215,215,215,,,,,,,,,,,,,,,,,main,k,k,1,1.2138693000015337,661.900974499993,None,None,0,,,,,,,,,,,,,,107,2023-04-17_13h42.22.742,Main,2022.1.1,59.83205143180328,
positive,yellow,1,None,k,,,,,,,,,0,216,216,216,,,,,,,,,,,,,,,,,main,k,k,1,0.5488239000042086,664.1175200999933,None,None,0,,,,,,,,,,,,,,107,2023-04-17_13h42.22.742,Main,2022.1.1,59.83205143180328,
positive,yellow,2,None,k,,,,,,,,,0,217,217,217,,,,,,,,,,,,,,,,,main,k,k,1,0.584841800002323,665.6697041999942,None,None,0,,,,,,,,,,,,,,107,2023-04-17_13h42.22.742,Main,2022.1.1,59.83205143180328,
negative,blue,1,None,k,,,,,,,,,0,218,218,218,,,,,,,,,,,,,,,,,main,k,k,1,0.6493092000018805,667.2530525999973,None,None,0,,,,,,,,,,,,,,107,2023-04-17_13h42.22.742,Main,2022.1.1,59.83205143180328,
positive,red,2,None,None,,,,,,,,,0,219,219,219,,,,,,,,,,,,,,,,,main,None,None,1,1.496694400004344,668.9031560999938,None,None,1,,,,,,,,,,,,,,107,2023-04-17_13h42.22.742,Main,2022.1.1,59.83205143180328,
positive,yellow,1,None,k,,,,,,,,,0,220,220,220,,,,,,,,,,,,,,,,,main,k,k,1,0.6852300000027753,671.400496299997,None,None,0,,,,,,,,,,,,,,107,2023-04-17_13h42.22.742,Main,2022.1.1,59.83205143180328,
positive,blue,1,k,None,,,,,,,,,0,221,221,221,,,,,,,,,,,,,,,,,main,None,None,1,1.4989462000012281,673.086401099994,None,None,1,,,,,,,,,,,,,,107,2023-04-17_13h42.22.742,Main,2022.1.1,59.83205143180328,
positive,yellow,2,None,k,,,,,,,,,0,222,222,222,,,,,,,,,,,,,,,,,main,k,k,1,0.6135260999944876,675.5865111999956,None,None,0,,,,,,,,,,,,,,107,2023-04-17_13h42.22.742,Main,2022.1.1,59.83205143180328,
negative,yellow,1,k,None,,,,,,,,,0,223,223,223,,,,,,,,,,,,,,,,,main,None,None,1,1.501369599995087,677.2003448999967,None,None,1,,,,,,,,,,,,,,107,2023-04-17_13h42.22.742,Main,2022.1.1,59.83205143180328,
positive,yellow,2,None,k,,,,,,,,,0,224,224,224,,,,,,,,,,,,,,,,,main,k,k,1,0.6496072000009008,679.7029723999949,None,None,0,,,,,,,,,,,,,,107,2023-04-17_13h42.22.742,Main,2022.1.1,59.83205143180328,
negative,yellow,2,k,None,,,,,,,,,0,225,225,225,,,,,,,,,,,,,,,,,main,None,None,1,1.4988461999964784,681.3529501999947,None,None,1,,,,,,,,,,,,,,107,2023-04-17_13h42.22.742,Main,2022.1.1,59.83205143180328,
negative,blue,2,None,k,,,,,,,,,0,226,226,226,,,,,,,,,,,,,,,,,main,k,k,1,0.6494393999964814,683.8527264999939,None,None,0,,,,,,,,,,,,,,107,2023-04-17_13h42.22.742,Main,2022.1.1,59.83205143180328,
positive,red,2,None,None,,,,,,,,,0,227,227,227,,,,,,,,,,,,,,,,,main,None,None,1,1.4990840000027674,685.5004163999984,None,None,1,,,,,,,,,,,,,,107,2023-04-17_13h42.22.742,Main,2022.1.1,59.83205143180328,
positive,blue,2,k,None,,,,,,,,,0,228,228,228,,,,,,,,,,,,,,,,,main,None,None,1,1.4991168000051402,688.0004110999944,None,None,1,,,,,,,,,,,,,,107,2023-04-17_13h42.22.742,Main,2022.1.1,59.83205143180328,
negative,blue,1,None,k,,,,,,,,,0,229,229,229,,,,,,,,,,,,,,,,,main,k,k,1,0.7300173000039649,690.5003768999959,None,None,0,,,,,,,,,,,,,,107,2023-04-17_13h42.22.742,Main,2022.1.1,59.83205143180328,
positive,yellow,1,None,k,,,,,,,,,0,230,230,230,,,,,,,,,,,,,,,,,main,k,k,1,0.7318054999996093,692.2333969999963,None,None,0,,,,,,,,,,,,,,107,2023-04-17_13h42.22.742,Main,2022.1.1,59.83205143180328,
negative,blue,2,None,k,,,,,,,,,0,231,231,231,,,,,,,,,,,,,,,,,main,k,k,1,0.7016975000005914,693.9667348999938,None,None,0,,,,,,,,,,,,,,107,2023-04-17_13h42.22.742,Main,2022.1.1,59.83205143180328,
negative,red,1,None,None,,,,,,,,,0,232,232,232,,,,,,,,,,,,,,,,,main,None,None,1,1.502137199997378,695.6693050999966,None,None,1,,,,,,,,,,,,,,107,2023-04-17_13h42.22.742,Main,2022.1.1,59.83205143180328,
positive,blue,2,k,None,,,,,,,,,0,233,233,233,,,,,,,,,,,,,,,,,main,None,None,1,1.495689899995341,698.1707484999934,None,None,1,,,,,,,,,,,,,,107,2023-04-17_13h42.22.742,Main,2022.1.1,59.83205143180328,
negative,yellow,1,k,None,,,,,,,,,0,234,234,234,,,,,,,,,,,,,,,,,main,None,None,1,1.4992790999967838,700.6667740999983,None,None,1,,,,,,,,,,,,,,107,2023-04-17_13h42.22.742,Main,2022.1.1,59.83205143180328,
negative,yellow,2,k,None,,,,,,,,,0,235,235,235,,,,,,,,,,,,,,,,,main,None,None,1,1.4992953000037232,703.1668165999945,None,None,1,,,,,,,,,,,,,,107,2023-04-17_13h42.22.742,Main,2022.1.1,59.83205143180328,
positive,red,1,None,None,,,,,,,,,0,236,236,236,,,,,,,,,,,,,,,,,main,None,None,1,1.4970955999961006,705.6689507999981,None,None,1,,,,,,,,,,,,,,107,2023-04-17_13h42.22.742,Main,2022.1.1,59.83205143180328,
negative,red,2,None,None,,,,,,,,,0,237,237,237,,,,,,,,,,,,,,,,,main,None,None,1,1.5013934000016889,708.1688572999992,None,None,1,,,,,,,,,,,,,,107,2023-04-17_13h42.22.742,Main,2022.1.1,59.83205143180328,
negative,blue,1,None,k,,,,,,,,,0,238,238,238,,,,,,,,,,,,,,,,,main,k,k,1,1.2806330000021262,710.6665997999953,None,None,0,,,,,,,,,,,,,,107,2023-04-17_13h42.22.742,Main,2022.1.1,59.83205143180328,
positive,blue,1,k,None,,,,,,,,,0,239,239,239,,,,,,,,,,,,,,,,,main,None,None,1,1.5010855999935302,712.9521589999931,None,None,1,,,,,,,,,,,,,,107,2023-04-17_13h42.22.742,Main,2022.1.1,59.83205143180328,
,,,,,,,,,,,,,,,,,,,,,,,,,,,,,,,,,,,,,,,,,,,,,,,,,,,,,715.4520235999953,None,,,,,,
