distractor,target,set,ans1,ans2,rep_loop4.thisRepN,rep_loop4.thisTrialN,rep_loop4.thisN,rep_loop4.thisIndex,st2_prac_loop.thisRepN,st2_prac_loop.thisTrialN,st2_prac_loop.thisN,st2_prac_loop.thisIndex,st2_main_loop.thisRepN,st2_main_loop.thisTrialN,st2_main_loop.thisN,st2_main_loop.thisIndex,image_4.started,image_4.stopped,sound_2.started,sound_2.stopped,key_resp_3.keys,key_resp_3.rt,image_5.started,image_5.stopped,st_prac_back.started,st_prac_back.stopped,st_prac_text.started,st_prac_text.stopped,st_fix_back.started,st_fix_back.stopped,st_fix_2.started,st_fix_2.stopped,main_prac,st_ans,st_res,st_corr,st_rt,st_back.started,st_back.stopped,st2_resp.keys,st2_resp.corr,st_main_back.started,st_main_back.stopped,st_main_text.started,st_main_text.stopped,mouse_4.x,mouse_4.y,mouse_4.leftButton,mouse_4.midButton,mouse_4.rightButton,mouse_4.started,mouse_4.stopped,text_2.started,text_2.stopped,id*,date,expName,psychopyVersion,frameRate,
negative,yellow,1,k,None,,,,,0,0,0,0,,,,,50.11930849996861,None,53.45677337996894,None,space,51.318380099954084,104.80566680000629,None,106.85316850000527,None,106.85316850000527,None,108.855665900046,None,108.855665900046,None,prac,None,None,1,1.500802000053227,110.86088389996439,None,None,1,,,,,,,,,,,,,,109,2023-04-25_13h33.37.053,Main,2022.1.1,60.06882686843058,
positive,red,2,None,None,,,,,0,1,1,1,,,,,,,,,,,,,,,,,,,,,prac,None,None,1,1.5017994999652728,113.36949179996736,None,None,1,,,,,,,,,,,,,,109,2023-04-25_13h33.37.053,Main,2022.1.1,60.06882686843058,
negative,blue,2,None,k,,,,,0,2,2,2,,,,,,,,,,,,,,,,,,,,,prac,k,k,1,0.6521228000055999,115.87208710005507,None,None,0,,,,,,,,,,,,,,109,2023-04-25_13h33.37.053,Main,2022.1.1,60.06882686843058,
positive,yellow,1,None,k,,,,,0,3,3,3,,,,,,,,,,,,,,,,,,,,,prac,k,k,1,0.4768677999963984,117.52329729998019,None,None,0,,,,,,,,,,,,,,109,2023-04-25_13h33.37.053,Main,2022.1.1,60.06882686843058,
negative,blue,2,None,k,,,,,0,4,4,4,,,,,,,,,,,,,,,,,,,,,prac,k,k,1,0.6018436999293044,119.00273469998501,None,None,0,,,,,,,,,,,,,,109,2023-04-25_13h33.37.053,Main,2022.1.1,60.06882686843058,
negative,blue,1,None,k,,,,,0,5,5,5,,,,,,,,,,,,,,,,,,,,,prac,k,k,1,0.7658556000096723,120.60525939997751,None,None,0,,,,,,,,,,,,,,109,2023-04-25_13h33.37.053,Main,2022.1.1,60.06882686843058,
negative,yellow,2,k,None,,,,,0,6,6,6,,,,,,,,,,,,,,,,,,,,,prac,None,None,1,1.4961478000041097,122.37195109995082,None,None,1,,,,,,,,,,,,,,109,2023-04-25_13h33.37.053,Main,2022.1.1,60.06882686843058,
negative,red,1,None,None,,,,,0,7,7,7,,,,,,,,,,,,,,,,,,,,,prac,None,None,1,1.5018488999921829,124.86926529998891,None,None,1,,,,,,,,,,,,,,109,2023-04-25_13h33.37.053,Main,2022.1.1,60.06882686843058,
positive,yellow,2,None,k,,,,,0,8,8,8,,,,,,,,,,,,,,,,,,,,,prac,k,k,1,0.48259969998616725,127.37189800001215,None,None,0,,,,,,,,,,,,,,109,2023-04-25_13h33.37.053,Main,2022.1.1,60.06882686843058,
negative,yellow,1,k,None,,,,,0,9,9,9,,,,,,,,,,,,,,,,,,,,,prac,None,None,1,1.496076599927619,128.85515790001955,None,None,1,,,,,,,,,,,,,,109,2023-04-25_13h33.37.053,Main,2022.1.1,60.06882686843058,
positive,yellow,2,None,k,,,,,0,10,10,10,,,,,,,,,,,,,,,,,,,,,prac,k,k,1,0.5186476999660954,131.35247160005383,None,None,0,,,,,,,,,,,,,,109,2023-04-25_13h33.37.053,Main,2022.1.1,60.06882686843058,
negative,yellow,2,k,None,,,,,0,11,11,11,,,,,,,,,,,,,,,,,,,,,prac,None,None,1,1.4990281999344006,132.87182540004142,None,None,1,,,,,,,,,,,,,,109,2023-04-25_13h33.37.053,Main,2022.1.1,60.06882686843058,
negative,red,2,None,None,,,,,0,12,12,12,,,,,,,,,,,,,,,,,,,,,prac,None,None,1,1.496717100031674,135.37168189999647,None,None,1,,,,,,,,,,,,,,109,2023-04-25_13h33.37.053,Main,2022.1.1,60.06882686843058,
positive,red,1,None,None,,,,,0,13,13,13,,,,,,,,,,,,,,,,,,,,,prac,None,None,1,1.5014863999094814,137.86909090005793,None,None,1,,,,,,,,,,,,,,109,2023-04-25_13h33.37.053,Main,2022.1.1,60.06882686843058,
positive,blue,2,k,None,,,,,0,14,14,14,,,,,,,,,,,,,,,,,,,,,prac,None,None,1,1.4966763999545947,140.37160049995873,None,None,1,,,,,,,,,,,,,,109,2023-04-25_13h33.37.053,Main,2022.1.1,60.06882686843058,
positive,blue,1,k,None,,,,,0,15,15,15,,,,,,,,,,,,,,,,,,,,,prac,None,None,1,1.501636300003156,142.86891509999987,None,None,1,,,,,,,,,,,,,,109,2023-04-25_13h33.37.053,Main,2022.1.1,60.06882686843058,
negative,blue,1,None,k,,,,,0,16,16,16,,,,,,,,,,,,,,,,,,,,,prac,k,k,1,0.5491893999278545,145.37148510001134,None,None,0,,,,,,,,,,,,,,109,2023-04-25_13h33.37.053,Main,2022.1.1,60.06882686843058,
positive,blue,2,k,None,,,,,0,17,17,17,,,,,,,,,,,,,,,,,,,,,prac,None,None,1,1.4989473999012262,146.92149099998642,None,None,1,,,,,,,,,,,,,,109,2023-04-25_13h33.37.053,Main,2022.1.1,60.06882686843058,
positive,blue,1,k,None,,,,,0,18,18,18,,,,,,,,,,,,,,,,,,,,,prac,None,None,1,1.4964636999648064,149.4212775999913,None,None,1,,,,,,,,,,,,,,109,2023-04-25_13h33.37.053,Main,2022.1.1,60.06882686843058,
positive,yellow,1,None,k,,,,,0,19,19,19,,,,,,,,,,,,,,,,,,,,,prac,k,k,1,0.5188868000404909,151.9187284000218,None,None,0,,,,,,,,,,,,,,109,2023-04-25_13h33.37.053,Main,2022.1.1,60.06882686843058,
negative,yellow,1,k,None,,,,,1,0,20,0,,,,,,,,,,,,,,,,,,,,,prac,None,None,1,1.498807099997066,153.43800409999676,None,None,1,,,,,,,,,,,,,,109,2023-04-25_13h33.37.053,Main,2022.1.1,60.06882686843058,
positive,red,2,None,None,,,,,1,1,21,1,,,,,,,,,,,,,,,,,,,,,prac,None,None,1,1.4963720999658108,155.93798809999134,None,None,1,,,,,,,,,,,,,,109,2023-04-25_13h33.37.053,Main,2022.1.1,60.06882686843058,
negative,blue,2,None,k,,,,,1,2,22,2,,,,,,,,,,,,,,,,,,,,,prac,k,k,1,0.685180899919942,158.4352663999889,None,None,0,,,,,,,,,,,,,,109,2023-04-25_13h33.37.053,Main,2022.1.1,60.06882686843058,
positive,yellow,1,None,k,,,,,1,3,23,3,,,,,,,,,,,,,,,,,,,,,prac,k,k,1,0.6322702000616118,160.12123219994828,None,None,0,,,,,,,,,,,,,,109,2023-04-25_13h33.37.053,Main,2022.1.1,60.06882686843058,
negative,blue,2,None,k,,,,,1,4,24,4,,,,,,,,,,,,,,,,,,,,,prac,k,k,1,0.5324927000328898,161.75451440003235,None,None,0,,,,,,,,,,,,,,109,2023-04-25_13h33.37.053,Main,2022.1.1,60.06882686843058,
negative,blue,1,None,k,,,,,1,5,25,5,,,,,,,,,,,,,,,,,,,,,prac,k,k,1,0.5321410000324249,163.2877039000159,None,None,0,,,,,,,,,,,,,,109,2023-04-25_13h33.37.053,Main,2022.1.1,60.06882686843058,
negative,yellow,2,k,None,,,,,1,6,26,6,,,,,,,,,,,,,,,,,,,,,prac,None,k,0,0.5020004999823868,164.82099619996734,None,None,1,,,,,,,,,,,,,,109,2023-04-25_13h33.37.053,Main,2022.1.1,60.06882686843058,
negative,red,1,None,None,,,,,1,7,27,7,,,,,,,,,,,,,,,,,,,,,prac,None,None,1,1.4870675000129268,167.3350850000279,None,None,1,,,,,,,,,,,,,,109,2023-04-25_13h33.37.053,Main,2022.1.1,60.06882686843058,
positive,yellow,2,None,k,,,,,1,8,28,8,,,,,,,,,,,,,,,,,,,,,prac,k,k,1,0.6324988999404013,169.82103440002538,None,None,0,,,,,,,,,,,,,,109,2023-04-25_13h33.37.053,Main,2022.1.1,60.06882686843058,
negative,yellow,1,k,None,,,,,1,9,29,9,,,,,,,,,,,,,,,,,,,,,prac,None,None,1,1.498708000057377,171.4542840999784,None,None,1,,,,,,,,,,,,,,109,2023-04-25_13h33.37.053,Main,2022.1.1,60.06882686843058,
positive,yellow,2,None,k,,,,,1,10,30,10,,,,,,,,,,,,,,,,,,,,,prac,k,k,1,0.6968121000099927,173.95414379995782,None,None,0,,,,,,,,,,,,,,109,2023-04-25_13h33.37.053,Main,2022.1.1,60.06882686843058,
negative,yellow,2,k,None,,,,,1,11,31,11,,,,,,,,,,,,,,,,,,,,,prac,None,None,1,1.5019827000796795,175.65158329997212,None,None,1,,,,,,,,,,,,,,109,2023-04-25_13h33.37.053,Main,2022.1.1,60.06882686843058,
negative,red,2,None,None,,,,,1,12,32,12,,,,,,,,,,,,,,,,,,,,,prac,None,None,1,1.498550400021486,178.1543458000524,None,None,1,,,,,,,,,,,,,,109,2023-04-25_13h33.37.053,Main,2022.1.1,60.06882686843058,
positive,red,1,None,None,,,,,1,13,33,13,,,,,,,,,,,,,,,,,,,,,prac,None,None,1,1.496880799997598,180.65418489999138,None,None,1,,,,,,,,,,,,,,109,2023-04-25_13h33.37.053,Main,2022.1.1,60.06882686843058,
positive,blue,2,k,None,,,,,1,14,34,14,,,,,,,,,,,,,,,,,,,,,prac,None,None,1,1.4988636000780389,183.15146109997295,None,None,1,,,,,,,,,,,,,,109,2023-04-25_13h33.37.053,Main,2022.1.1,60.06882686843058,
positive,blue,1,k,None,,,,,1,15,35,15,,,,,,,,,,,,,,,,,,,,,prac,None,None,1,1.5015419999836013,185.6514359000139,None,None,1,,,,,,,,,,,,,,109,2023-04-25_13h33.37.053,Main,2022.1.1,60.06882686843058,
negative,blue,1,None,k,,,,,1,16,36,16,,,,,,,,,,,,,,,,,,,,,prac,k,k,1,0.6634951999876648,188.15406490000896,None,None,0,,,,,,,,,,,,,,109,2023-04-25_13h33.37.053,Main,2022.1.1,60.06882686843058,
positive,blue,2,k,None,,,,,1,17,37,17,,,,,,,,,,,,,,,,,,,,,prac,None,None,1,1.5015131001127884,189.81797710002866,None,None,1,,,,,,,,,,,,,,109,2023-04-25_13h33.37.053,Main,2022.1.1,60.06882686843058,
positive,blue,1,k,None,,,,,1,18,38,18,,,,,,,,,,,,,,,,,,,,,prac,None,None,1,1.499009900027886,192.32050489995163,None,None,1,,,,,,,,,,,,,,109,2023-04-25_13h33.37.053,Main,2022.1.1,60.06882686843058,
positive,yellow,1,None,k,,,,,1,19,39,19,,,,,,,,,,,,,,,,,,,,,prac,k,k,1,0.7469843999715522,194.82049950002693,None,None,0,,,,,,,,,,,,,,109,2023-04-25_13h33.37.053,Main,2022.1.1,60.06882686843058,
,,,,,,,,,,,,,,,,,,,,,,,,,,,,,,,,,,,,,,,,,,196.56782270001713,None,196.56782270001713,None,0.0046296297,-0.08240741,0,0,0,0.013958179973997176,None,,,109,2023-04-25_13h33.37.053,Main,2022.1.1,60.06882686843058,
negative,yellow,2,k,None,,,,,,,,,0,0,0,0,,,,,,,,,,,,,197.48452900000848,None,197.48452900000848,None,main,None,None,1,1.4966696000192314,199.512386300019,None,None,1,,,,,,,,,,,,,,109,2023-04-25_13h33.37.053,Main,2022.1.1,60.06882686843058,
positive,red,1,None,None,,,,,,,,,0,1,1,1,,,,,,,,,,,,,,,,,main,None,None,1,1.5016824000049382,202.01770910003688,None,None,1,,,,,,,,,,,,,,109,2023-04-25_13h33.37.053,Main,2022.1.1,60.06882686843058,
positive,blue,2,k,None,,,,,,,,,0,2,2,2,,,,,,,,,,,,,,,,,main,None,None,1,1.498954499955289,204.52030289999675,None,None,1,,,,,,,,,,,,,,109,2023-04-25_13h33.37.053,Main,2022.1.1,60.06882686843058,
positive,blue,1,k,None,,,,,,,,,0,3,3,3,,,,,,,,,,,,,,,,,main,None,None,1,1.4965875999769196,207.02026420005132,None,None,1,,,,,,,,,,,,,,109,2023-04-25_13h33.37.053,Main,2022.1.1,60.06882686843058,
negative,yellow,2,k,None,,,,,,,,,0,4,4,4,,,,,,,,,,,,,,,,,main,None,None,1,1.5016562999226153,209.51762579998467,None,None,1,,,,,,,,,,,,,,109,2023-04-25_13h33.37.053,Main,2022.1.1,60.06882686843058,
positive,yellow,2,None,k,,,,,,,,,0,5,5,5,,,,,,,,,,,,,,,,,main,k,k,1,0.5386266000568867,212.02021949994378,None,None,0,,,,,,,,,,,,,,109,2023-04-25_13h33.37.053,Main,2022.1.1,60.06882686843058,
negative,blue,2,None,k,,,,,,,,,0,6,6,6,,,,,,,,,,,,,,,,,main,k,k,1,0.543291199952364,213.5636335000163,None,None,0,,,,,,,,,,,,,,109,2023-04-25_13h33.37.053,Main,2022.1.1,60.06882686843058,
positive,red,2,None,None,,,,,,,,,0,7,7,7,,,,,,,,,,,,,,,,,main,None,None,1,1.4962420999072492,215.10327179997694,None,None,1,,,,,,,,,,,,,,109,2023-04-25_13h33.37.053,Main,2022.1.1,60.06882686843058,
positive,yellow,1,None,k,,,,,,,,,0,8,8,8,,,,,,,,,,,,,,,,,main,k,k,1,0.5994806999806315,217.6007237000158,None,None,0,,,,,,,,,,,,,,109,2023-04-25_13h33.37.053,Main,2022.1.1,60.06882686843058,
negative,red,1,None,None,,,,,,,,,0,9,9,9,,,,,,,,,,,,,,,,,main,None,None,1,1.5015176000306383,219.20078730001114,None,None,1,,,,,,,,,,,,,,109,2023-04-25_13h33.37.053,Main,2022.1.1,60.06882686843058,
positive,yellow,1,None,k,,,,,,,,,0,10,10,10,,,,,,,,,,,,,,,,,main,k,k,1,0.6973319000098854,221.70331030001398,None,None,0,,,,,,,,,,,,,,109,2023-04-25_13h33.37.053,Main,2022.1.1,60.06882686843058,
negative,yellow,1,k,None,,,,,,,,,0,11,11,11,,,,,,,,,,,,,,,,,main,None,None,1,1.5009636000031605,223.40063269995153,None,None,1,,,,,,,,,,,,,,109,2023-04-25_13h33.37.053,Main,2022.1.1,60.06882686843058,
negative,yellow,1,k,None,,,,,,,,,0,12,12,12,,,,,,,,,,,,,,,,,main,None,None,1,1.4989979000529274,225.9032476999564,None,None,1,,,,,,,,,,,,,,109,2023-04-25_13h33.37.053,Main,2022.1.1,60.06882686843058,
negative,red,2,None,None,,,,,,,,,0,13,13,13,,,,,,,,,,,,,,,,,main,None,None,1,1.4964274999219924,228.4031960000284,None,None,1,,,,,,,,,,,,,,109,2023-04-25_13h33.37.053,Main,2022.1.1,60.06882686843058,
positive,yellow,2,None,k,,,,,,,,,0,14,14,14,,,,,,,,,,,,,,,,,main,k,k,1,0.7188715999945998,230.9005223000422,None,None,0,,,,,,,,,,,,,,109,2023-04-25_13h33.37.053,Main,2022.1.1,60.06882686843058,
positive,blue,1,k,None,,,,,,,,,0,15,15,15,,,,,,,,,,,,,,,,,main,None,None,1,1.4958336000563577,232.619834800018,None,None,1,,,,,,,,,,,,,,109,2023-04-25_13h33.37.053,Main,2022.1.1,60.06882686843058,
negative,blue,1,None,k,,,,,,,,,0,16,16,16,,,,,,,,,,,,,,,,,main,k,k,1,0.5828662000130862,235.1170464999741,None,None,0,,,,,,,,,,,,,,109,2023-04-25_13h33.37.053,Main,2022.1.1,60.06882686843058,
positive,blue,2,k,None,,,,,,,,,0,17,17,17,,,,,,,,,,,,,,,,,main,None,None,1,1.5013721999712288,236.70039330003783,None,None,1,,,,,,,,,,,,,,109,2023-04-25_13h33.37.053,Main,2022.1.1,60.06882686843058,
negative,blue,2,None,k,,,,,,,,,0,18,18,18,,,,,,,,,,,,,,,,,main,k,k,1,0.5690630000317469,239.20294550003018,None,None,0,,,,,,,,,,,,,,109,2023-04-25_13h33.37.053,Main,2022.1.1,60.06882686843058,
negative,blue,1,None,k,,,,,,,,,0,19,19,19,,,,,,,,,,,,,,,,,main,k,k,1,0.6765344999730587,240.7763721999945,None,None,0,,,,,,,,,,,,,,109,2023-04-25_13h33.37.053,Main,2022.1.1,60.06882686843058,
negative,blue,1,None,k,,,,,,,,,0,20,20,20,,,,,,,,,,,,,,,,,main,k,k,1,0.6684603999601677,242.45022070000414,None,None,0,,,,,,,,,,,,,,109,2023-04-25_13h33.37.053,Main,2022.1.1,60.06882686843058,
negative,blue,2,None,k,,,,,,,,,0,21,21,21,,,,,,,,,,,,,,,,,main,k,k,1,0.6658525000093505,244.1195260999957,None,None,0,,,,,,,,,,,,,,109,2023-04-25_13h33.37.053,Main,2022.1.1,60.06882686843058,
negative,red,1,None,None,,,,,,,,,0,22,22,22,,,,,,,,,,,,,,,,,main,None,None,1,1.4962016000645235,245.7861269999994,None,None,1,,,,,,,,,,,,,,109,2023-04-25_13h33.37.053,Main,2022.1.1,60.06882686843058,
positive,red,2,None,None,,,,,,,,,0,23,23,23,,,,,,,,,,,,,,,,,main,None,None,1,1.5018169999821112,248.2834404000314,None,None,1,,,,,,,,,,,,,,109,2023-04-25_13h33.37.053,Main,2022.1.1,60.06882686843058,
negative,red,2,None,None,,,,,,,,,0,24,24,24,,,,,,,,,,,,,,,,,main,None,None,1,1.4970560999354348,250.78611320001073,None,None,1,,,,,,,,,,,,,,109,2023-04-25_13h33.37.053,Main,2022.1.1,60.06882686843058,
positive,blue,2,k,None,,,,,,,,,0,25,25,25,,,,,,,,,,,,,,,,,main,None,None,1,1.5010798999574035,253.2833465000149,None,None,1,,,,,,,,,,,,,,109,2023-04-25_13h33.37.053,Main,2022.1.1,60.06882686843058,
negative,yellow,1,k,None,,,,,,,,,0,26,26,26,,,,,,,,,,,,,,,,,main,None,None,1,1.4990165999624878,255.7859027000377,None,None,1,,,,,,,,,,,,,,109,2023-04-25_13h33.37.053,Main,2022.1.1,60.06882686843058,
positive,blue,2,k,None,,,,,,,,,0,27,27,27,,,,,,,,,,,,,,,,,main,None,None,1,1.496418199967593,258.2859266999876,None,None,1,,,,,,,,,,,,,,109,2023-04-25_13h33.37.053,Main,2022.1.1,60.06882686843058,
negative,blue,2,None,k,,,,,,,,,0,28,28,28,,,,,,,,,,,,,,,,,main,k,k,1,0.7687226999551058,260.7832544000121,None,None,0,,,,,,,,,,,,,,109,2023-04-25_13h33.37.053,Main,2022.1.1,60.06882686843058,
positive,red,1,None,None,,,,,,,,,0,29,29,29,,,,,,,,,,,,,,,,,main,None,None,1,1.4961734999669716,262.55244060000405,None,None,1,,,,,,,,,,,,,,109,2023-04-25_13h33.37.053,Main,2022.1.1,60.06882686843058,
positive,blue,1,k,None,,,,,,,,,0,30,30,30,,,,,,,,,,,,,,,,,main,None,None,1,1.501744300010614,265.04976219998207,None,None,1,,,,,,,,,,,,,,109,2023-04-25_13h33.37.053,Main,2022.1.1,60.06882686843058,
positive,yellow,1,None,k,,,,,,,,,0,31,31,31,,,,,,,,,,,,,,,,,main,k,k,1,0.6493025000672787,267.5523683000356,None,None,0,,,,,,,,,,,,,,109,2023-04-25_13h33.37.053,Main,2022.1.1,60.06882686843058,
negative,yellow,2,k,None,,,,,,,,,0,32,32,32,,,,,,,,,,,,,,,,,main,None,None,1,1.4964197999797761,269.20230829995126,None,None,1,,,,,,,,,,,,,,109,2023-04-25_13h33.37.053,Main,2022.1.1,60.06882686843058,
negative,blue,1,None,k,,,,,,,,,0,33,33,33,,,,,,,,,,,,,,,,,main,k,k,1,0.7326881000772119,271.69963389995974,None,None,0,,,,,,,,,,,,,,109,2023-04-25_13h33.37.053,Main,2022.1.1,60.06882686843058,
positive,blue,1,k,None,,,,,,,,,0,34,34,34,,,,,,,,,,,,,,,,,main,None,None,1,1.5017029999289662,273.43299929995555,None,None,1,,,,,,,,,,,,,,109,2023-04-25_13h33.37.053,Main,2022.1.1,60.06882686843058,
negative,yellow,1,k,None,,,,,,,,,0,35,35,35,,,,,,,,,,,,,,,,,main,None,None,1,1.4963408999610692,275.9356266000541,None,None,1,,,,,,,,,,,,,,109,2023-04-25_13h33.37.053,Main,2022.1.1,60.06882686843058,
positive,yellow,2,None,k,,,,,,,,,0,36,36,36,,,,,,,,,,,,,,,,,main,k,k,1,0.5352141000330448,278.4328442000551,None,None,0,,,,,,,,,,,,,,109,2023-04-25_13h33.37.053,Main,2022.1.1,60.06882686843058,
positive,yellow,2,None,k,,,,,,,,,0,37,37,37,,,,,,,,,,,,,,,,,main,k,k,1,0.6825869000749663,279.9687386000296,None,None,0,,,,,,,,,,,,,,109,2023-04-25_13h33.37.053,Main,2022.1.1,60.06882686843058,
negative,yellow,2,k,None,,,,,,,,,0,38,38,38,,,,,,,,,,,,,,,,,main,None,None,1,1.4961153999902308,281.6521101000253,None,None,1,,,,,,,,,,,,,,109,2023-04-25_13h33.37.053,Main,2022.1.1,60.06882686843058,
positive,yellow,1,None,k,,,,,,,,,0,39,39,39,,,,,,,,,,,,,,,,,main,k,k,1,0.7021307999966666,284.14937450003345,None,None,0,,,,,,,,,,,,,,109,2023-04-25_13h33.37.053,Main,2022.1.1,60.06882686843058,
negative,yellow,2,k,None,,,,,,,,,0,40,40,40,,,,,,,,,,,,,,,,,main,None,None,1,1.499009900027886,285.85204589995556,None,None,1,,,,,,,,,,,,,,109,2023-04-25_13h33.37.053,Main,2022.1.1,60.06882686843058,
positive,blue,2,k,None,,,,,,,,,0,41,41,41,,,,,,,,,,,,,,,,,main,None,None,1,1.499157499987632,288.3519790000282,None,None,1,,,,,,,,,,,,,,109,2023-04-25_13h33.37.053,Main,2022.1.1,60.06882686843058,
positive,blue,2,k,None,,,,,,,,,0,42,42,42,,,,,,,,,,,,,,,,,main,None,None,1,1.4966666999971494,290.84954269998707,None,None,1,,,,,,,,,,,,,,109,2023-04-25_13h33.37.053,Main,2022.1.1,60.06882686843058,
negative,blue,2,None,k,,,,,,,,,0,43,43,43,,,,,,,,,,,,,,,,,main,k,k,1,0.6003337999572977,293.34920000005513,None,None,0,,,,,,,,,,,,,,109,2023-04-25_13h33.37.053,Main,2022.1.1,60.06882686843058,
negative,red,1,None,None,,,,,,,,,0,44,44,44,,,,,,,,,,,,,,,,,main,None,None,1,1.500482500065118,294.94921320001595,None,None,1,,,,,,,,,,,,,,109,2023-04-25_13h33.37.053,Main,2022.1.1,60.06882686843058,
negative,yellow,1,k,None,,,,,,,,,0,45,45,45,,,,,,,,,,,,,,,,,main,None,None,1,1.4961973000317812,297.451786300051,None,None,1,,,,,,,,,,,,,,109,2023-04-25_13h33.37.053,Main,2022.1.1,60.06882686843058,
negative,yellow,1,k,None,,,,,,,,,0,46,46,46,,,,,,,,,,,,,,,,,main,None,None,1,1.5018273000605404,299.94904990005307,None,None,1,,,,,,,,,,,,,,109,2023-04-25_13h33.37.053,Main,2022.1.1,60.06882686843058,
positive,red,1,None,None,,,,,,,,,0,47,47,47,,,,,,,,,,,,,,,,,main,None,None,1,1.496517000021413,302.4516625000397,None,None,1,,,,,,,,,,,,,,109,2023-04-25_13h33.37.053,Main,2022.1.1,60.06882686843058,
positive,yellow,1,None,k,,,,,,,,,0,48,48,48,,,,,,,,,,,,,,,,,main,k,k,1,1.2160840999567881,304.9489612999605,None,None,0,,,,,,,,,,,,,,109,2023-04-25_13h33.37.053,Main,2022.1.1,60.06882686843058,
negative,blue,1,None,k,,,,,,,,,0,49,49,49,,,,,,,,,,,,,,,,,main,k,k,1,0.6185082000447437,307.1656542000128,None,None,0,,,,,,,,,,,,,,109,2023-04-25_13h33.37.053,Main,2022.1.1,60.06882686843058,
positive,yellow,2,None,k,,,,,,,,,0,50,50,50,,,,,,,,,,,,,,,,,main,k,k,1,0.5991234000539407,308.78487770003267,None,None,0,,,,,,,,,,,,,,109,2023-04-25_13h33.37.053,Main,2022.1.1,60.06882686843058,
negative,blue,1,None,k,,,,,,,,,0,51,51,51,,,,,,,,,,,,,,,,,main,k,k,1,0.5797817000420764,310.3848084999481,None,None,0,,,,,,,,,,,,,,109,2023-04-25_13h33.37.053,Main,2022.1.1,60.06882686843058,
positive,red,2,None,None,,,,,,,,,0,52,52,52,,,,,,,,,,,,,,,,,main,None,None,1,1.5015946999192238,311.96549099998083,None,None,1,,,,,,,,,,,,,,109,2023-04-25_13h33.37.053,Main,2022.1.1,60.06882686843058,
positive,yellow,2,None,k,,,,,,,,,0,53,53,53,,,,,,,,,,,,,,,,,main,k,k,1,0.6162001000484452,314.46810749999713,None,None,0,,,,,,,,,,,,,,109,2023-04-25_13h33.37.053,Main,2022.1.1,60.06882686843058,
negative,red,2,None,None,,,,,,,,,0,54,54,54,,,,,,,,,,,,,,,,,main,None,None,1,1.49608250008896,316.0846611999441,None,None,1,,,,,,,,,,,,,,109,2023-04-25_13h33.37.053,Main,2022.1.1,60.06882686843058,
positive,yellow,1,None,k,,,,,,,,,0,55,55,55,,,,,,,,,,,,,,,,,main,k,k,1,0.5521300999680534,318.5820253000129,None,None,0,,,,,,,,,,,,,,109,2023-04-25_13h33.37.053,Main,2022.1.1,60.06882686843058,
negative,blue,2,None,k,,,,,,,,,0,56,56,56,,,,,,,,,,,,,,,,,main,k,k,1,0.5489907000446692,320.1346044000238,None,None,0,,,,,,,,,,,,,,109,2023-04-25_13h33.37.053,Main,2022.1.1,60.06882686843058,
positive,blue,1,k,None,,,,,,,,,0,57,57,57,,,,,,,,,,,,,,,,,main,None,None,1,1.4963353000348434,321.684646800044,None,None,1,,,,,,,,,,,,,,109,2023-04-25_13h33.37.053,Main,2022.1.1,60.06882686843058,
positive,blue,1,k,None,,,,,,,,,0,58,58,58,,,,,,,,,,,,,,,,,main,None,None,1,1.5017244999762625,324.18189689994324,None,None,1,,,,,,,,,,,,,,109,2023-04-25_13h33.37.053,Main,2022.1.1,60.06882686843058,
negative,yellow,2,k,None,,,,,,,,,0,59,59,59,,,,,,,,,,,,,,,,,main,None,None,1,1.4988763999426737,326.68452380003873,None,None,1,,,,,,,,,,,,,,109,2023-04-25_13h33.37.053,Main,2022.1.1,60.06882686843058,
positive,red,2,None,None,,,,,,,,,0,60,60,60,,,,,,,,,,,,,,,,,main,None,None,1,1.4968727000523359,329.1821122999536,None,None,1,,,,,,,,,,,,,,109,2023-04-25_13h33.37.053,Main,2022.1.1,60.06882686843058,
negative,yellow,1,k,None,,,,,,,,,0,61,61,61,,,,,,,,,,,,,,,,,main,None,None,1,1.4990131000522524,331.68740169995,None,None,1,,,,,,,,,,,,,,109,2023-04-25_13h33.37.053,Main,2022.1.1,60.06882686843058,
negative,red,1,None,None,,,,,,,,,0,62,62,62,,,,,,,,,,,,,,,,,main,None,None,1,1.5017087999731302,334.1817896000575,None,None,1,,,,,,,,,,,,,,109,2023-04-25_13h33.37.053,Main,2022.1.1,60.06882686843058,
negative,blue,1,None,k,,,,,,,,,0,63,63,63,,,,,,,,,,,,,,,,,main,k,k,1,0.6467498999554664,336.6843694000272,None,None,0,,,,,,,,,,,,,,109,2023-04-25_13h33.37.053,Main,2022.1.1,60.06882686843058,
positive,blue,2,k,None,,,,,,,,,0,64,64,64,,,,,,,,,,,,,,,,,main,None,None,1,1.501742499996908,338.3316000000341,None,None,1,,,,,,,,,,,,,,109,2023-04-25_13h33.37.053,Main,2022.1.1,60.06882686843058,
negative,yellow,2,k,None,,,,,,,,,0,65,65,65,,,,,,,,,,,,,,,,,main,None,None,1,1.5019751000218093,340.8341983000282,None,None,1,,,,,,,,,,,,,,109,2023-04-25_13h33.37.053,Main,2022.1.1,60.06882686843058,
positive,yellow,2,None,k,,,,,,,,,0,66,66,66,,,,,,,,,,,,,,,,,main,k,k,1,0.6435007000109181,343.33531390002463,None,None,0,,,,,,,,,,,,,,109,2023-04-25_13h33.37.053,Main,2022.1.1,60.06882686843058,
positive,yellow,2,None,k,,,,,,,,,0,67,67,67,,,,,,,,,,,,,,,,,main,k,k,1,0.6520030000247061,344.9814894000301,None,None,0,,,,,,,,,,,,,,109,2023-04-25_13h33.37.053,Main,2022.1.1,60.06882686843058,
positive,red,1,None,None,,,,,,,,,0,68,68,68,,,,,,,,,,,,,,,,,main,None,None,1,1.498798600048758,346.6340770999668,None,None,1,,,,,,,,,,,,,,109,2023-04-25_13h33.37.053,Main,2022.1.1,60.06882686843058,
positive,yellow,1,None,k,,,,,,,,,0,69,69,69,,,,,,,,,,,,,,,,,main,k,k,1,0.630196199985221,349.13407829997595,None,None,0,,,,,,,,,,,,,,109,2023-04-25_13h33.37.053,Main,2022.1.1,60.06882686843058,
negative,yellow,2,k,None,,,,,,,,,0,70,70,70,,,,,,,,,,,,,,,,,main,None,None,1,1.5014592999359593,350.7646870999597,None,None,1,,,,,,,,,,,,,,109,2023-04-25_13h33.37.053,Main,2022.1.1,60.06882686843058,
positive,yellow,1,None,k,,,,,,,,,0,71,71,71,,,,,,,,,,,,,,,,,main,k,k,1,0.5658388999290764,353.26729929994326,None,None,0,,,,,,,,,,,,,,109,2023-04-25_13h33.37.053,Main,2022.1.1,60.06882686843058,
negative,blue,1,None,k,,,,,,,,,0,72,72,72,,,,,,,,,,,,,,,,,main,k,k,1,0.513409800012596,354.83393690001685,None,None,0,,,,,,,,,,,,,,109,2023-04-25_13h33.37.053,Main,2022.1.1,60.06882686843058,
negative,red,2,None,None,,,,,,,,,0,73,73,73,,,,,,,,,,,,,,,,,main,None,None,1,1.5012004000600427,356.3479246000061,None,None,1,,,,,,,,,,,,,,109,2023-04-25_13h33.37.053,Main,2022.1.1,60.06882686843058,
positive,blue,2,k,None,,,,,,,,,0,74,74,74,,,,,,,,,,,,,,,,,main,None,k,0,1.0827050999505445,358.85047990002204,None,None,1,,,,,,,,,,,,,,109,2023-04-25_13h33.37.053,Main,2022.1.1,60.06882686843058,
negative,blue,2,None,k,,,,,,,,,0,75,75,75,,,,,,,,,,,,,,,,,main,k,k,1,0.8514518999727443,361.9477898000041,None,None,0,,,,,,,,,,,,,,109,2023-04-25_13h33.37.053,Main,2022.1.1,60.06882686843058,
negative,blue,2,None,k,,,,,,,,,0,76,76,76,,,,,,,,,,,,,,,,,main,k,k,1,0.6514193000039086,363.7978345999727,None,None,0,,,,,,,,,,,,,,109,2023-04-25_13h33.37.053,Main,2022.1.1,60.06882686843058,
negative,yellow,1,k,None,,,,,,,,,0,77,77,77,,,,,,,,,,,,,,,,,main,None,None,1,1.496116099995561,365.4503460000269,None,None,1,,,,,,,,,,,,,,109,2023-04-25_13h33.37.053,Main,2022.1.1,60.06882686843058,
positive,blue,1,k,None,,,,,,,,,0,78,78,78,,,,,,,,,,,,,,,,,main,None,None,1,1.5018476999830455,367.9476899000583,None,None,1,,,,,,,,,,,,,,109,2023-04-25_13h33.37.053,Main,2022.1.1,60.06882686843058,
positive,blue,1,k,None,,,,,,,,,0,79,79,79,,,,,,,,,,,,,,,,,main,None,None,1,1.4992452999576926,370.45035179995466,None,None,1,,,,,,,,,,,,,,109,2023-04-25_13h33.37.053,Main,2022.1.1,60.06882686843058,
positive,red,2,None,None,,,,,,,,,0,80,80,80,,,,,,,,,,,,,,,,,main,None,None,1,1.4964832999976352,372.95024779997766,None,None,1,,,,,,,,,,,,,,109,2023-04-25_13h33.37.053,Main,2022.1.1,60.06882686843058,
positive,yellow,2,None,k,,,,,,,,,0,81,81,81,,,,,,,,,,,,,,,,,main,k,k,1,0.7353320999536663,375.4475455000065,None,None,0,,,,,,,,,,,,,,109,2023-04-25_13h33.37.053,Main,2022.1.1,60.06882686843058,
positive,blue,1,k,None,,,,,,,,,0,82,82,82,,,,,,,,,,,,,,,,,main,None,None,1,1.4964838000014424,377.18350020004436,None,None,1,,,,,,,,,,,,,,109,2023-04-25_13h33.37.053,Main,2022.1.1,60.06882686843058,
negative,yellow,2,k,None,,,,,,,,,0,83,83,83,,,,,,,,,,,,,,,,,main,None,None,1,1.5129157999763265,379.6864462000085,None,None,1,,,,,,,,,,,,,,109,2023-04-25_13h33.37.053,Main,2022.1.1,60.06882686843058,
positive,blue,2,k,None,,,,,,,,,0,84,84,84,,,,,,,,,,,,,,,,,main,None,None,1,1.5043834999669343,382.18709779996425,None,None,1,,,,,,,,,,,,,,109,2023-04-25_13h33.37.053,Main,2022.1.1,60.06882686843058,
positive,yellow,1,None,k,,,,,,,,,0,85,85,85,,,,,,,,,,,,,,,,,main,k,k,1,0.7467244999716058,384.70003850001376,None,None,0,,,,,,,,,,,,,,109,2023-04-25_13h33.37.053,Main,2022.1.1,60.06882686843058,
positive,blue,2,k,None,,,,,,,,,0,86,86,86,,,,,,,,,,,,,,,,,main,None,None,1,1.5016785999760032,386.44730480003636,None,None,1,,,,,,,,,,,,,,109,2023-04-25_13h33.37.053,Main,2022.1.1,60.06882686843058,
positive,blue,1,k,None,,,,,,,,,0,87,87,87,,,,,,,,,,,,,,,,,main,None,None,1,1.4989882999798283,388.9499628000194,None,None,1,,,,,,,,,,,,,,109,2023-04-25_13h33.37.053,Main,2022.1.1,60.06882686843058,
negative,yellow,2,k,None,,,,,,,,,0,88,88,88,,,,,,,,,,,,,,,,,main,None,None,1,1.4965456000063568,391.44993350002915,None,None,1,,,,,,,,,,,,,,109,2023-04-25_13h33.37.053,Main,2022.1.1,60.06882686843058,
negative,blue,2,None,k,,,,,,,,,0,89,89,89,,,,,,,,,,,,,,,,,main,k,k,1,0.6852518001105636,393.94721510005184,None,None,0,,,,,,,,,,,,,,109,2023-04-25_13h33.37.053,Main,2022.1.1,60.06882686843058,
positive,yellow,2,None,k,,,,,,,,,0,90,90,90,,,,,,,,,,,,,,,,,main,k,k,1,0.6992512999568135,395.633133299998,None,None,0,,,,,,,,,,,,,,109,2023-04-25_13h33.37.053,Main,2022.1.1,60.06882686843058,
negative,yellow,1,k,None,,,,,,,,,0,91,91,91,,,,,,,,,,,,,,,,,main,None,None,1,1.496356699964963,397.33308979996946,None,None,1,,,,,,,,,,,,,,109,2023-04-25_13h33.37.053,Main,2022.1.1,60.06882686843058,
negative,red,2,None,None,,,,,,,,,0,92,92,92,,,,,,,,,,,,,,,,,main,None,None,1,1.5017695999704301,399.8304249000503,None,None,1,,,,,,,,,,,,,,109,2023-04-25_13h33.37.053,Main,2022.1.1,60.06882686843058,
negative,blue,2,None,k,,,,,,,,,0,93,93,93,,,,,,,,,,,,,,,,,main,k,k,1,0.6301054999930784,402.33298680000007,None,None,0,,,,,,,,,,,,,,109,2023-04-25_13h33.37.053,Main,2022.1.1,60.06882686843058,
negative,blue,1,None,k,,,,,,,,,0,94,94,94,,,,,,,,,,,,,,,,,main,k,k,1,0.6325221000006422,403.963615900022,None,None,0,,,,,,,,,,,,,,109,2023-04-25_13h33.37.053,Main,2022.1.1,60.06882686843058,
negative,blue,1,None,k,,,,,,,,,0,95,95,95,,,,,,,,,,,,,,,,,main,k,k,1,0.5019787999335676,405.59689439996146,None,None,0,,,,,,,,,,,,,,109,2023-04-25_13h33.37.053,Main,2022.1.1,60.06882686843058,
negative,red,1,None,None,,,,,,,,,0,96,96,96,,,,,,,,,,,,,,,,,main,None,None,1,1.4988618000643328,407.0995444,None,None,1,,,,,,,,,,,,,,109,2023-04-25_13h33.37.053,Main,2022.1.1,60.06882686843058,
positive,yellow,1,None,k,,,,,,,,,0,97,97,97,,,,,,,,,,,,,,,,,main,k,k,1,0.713233400019817,409.5995454000076,None,None,0,,,,,,,,,,,,,,109,2023-04-25_13h33.37.053,Main,2022.1.1,60.06882686843058,
negative,yellow,1,k,None,,,,,,,,,0,98,98,98,,,,,,,,,,,,,,,,,main,None,None,1,1.5007314999820665,411.3134590999689,None,None,1,,,,,,,,,,,,,,109,2023-04-25_13h33.37.053,Main,2022.1.1,60.06882686843058,
positive,red,1,None,None,,,,,,,,,0,99,99,99,,,,,,,,,,,,,,,,,main,None,None,1,1.4958117000060156,413.8160773999989,None,None,1,,,,,,,,,,,,,,109,2023-04-25_13h33.37.053,Main,2022.1.1,60.06882686843058,
positive,blue,1,k,None,,,,,,,,,0,100,100,100,,,,,,,,,,,,,,,,,main,None,None,1,1.5009362999117002,416.3133545999881,None,None,1,,,,,,,,,,,,,,109,2023-04-25_13h33.37.053,Main,2022.1.1,60.06882686843058,
negative,yellow,1,k,None,,,,,,,,,0,101,101,101,,,,,,,,,,,,,,,,,main,None,None,1,1.4980511999456212,418.816022300045,None,None,1,,,,,,,,,,,,,,109,2023-04-25_13h33.37.053,Main,2022.1.1,60.06882686843058,
negative,blue,2,None,k,,,,,,,,,0,102,102,102,,,,,,,,,,,,,,,,,main,k,k,1,0.7627052000025287,421.31594380002934,None,None,0,,,,,,,,,,,,,,109,2023-04-25_13h33.37.053,Main,2022.1.1,60.06882686843058,
negative,yellow,2,k,None,,,,,,,,,0,103,103,103,,,,,,,,,,,,,,,,,main,None,None,1,1.501471500028856,423.07989089994226,None,None,1,,,,,,,,,,,,,,109,2023-04-25_13h33.37.053,Main,2022.1.1,60.06882686843058,
positive,yellow,2,None,k,,,,,,,,,0,104,104,104,,,,,,,,,,,,,,,,,main,k,k,1,0.766375600011088,425.5824745000573,None,None,0,,,,,,,,,,,,,,109,2023-04-25_13h33.37.053,Main,2022.1.1,60.06882686843058,
positive,blue,1,k,None,,,,,,,,,0,105,105,105,,,,,,,,,,,,,,,,,main,None,None,1,1.4964087998960167,427.3491848000558,None,None,1,,,,,,,,,,,,,,109,2023-04-25_13h33.37.053,Main,2022.1.1,60.06882686843058,
positive,blue,2,k,None,,,,,,,,,0,106,106,106,,,,,,,,,,,,,,,,,main,None,None,1,1.5017906000139192,429.846491000033,None,None,1,,,,,,,,,,,,,,109,2023-04-25_13h33.37.053,Main,2022.1.1,60.06882686843058,
negative,blue,1,None,k,,,,,,,,,0,107,107,107,,,,,,,,,,,,,,,,,main,k,k,1,0.6518723999615759,432.34897799999453,None,None,0,,,,,,,,,,,,,,109,2023-04-25_13h33.37.053,Main,2022.1.1,60.06882686843058,
positive,yellow,2,None,k,,,,,,,,,0,108,108,108,,,,,,,,,,,,,,,,,main,k,k,1,0.6768689999589697,434.0058484999463,None,None,0,,,,,,,,,,,,,,109,2023-04-25_13h33.37.053,Main,2022.1.1,60.06882686843058,
negative,yellow,1,k,None,,,,,,,,,0,109,109,109,,,,,,,,,,,,,,,,,main,None,None,1,1.5014780000783503,435.67962840001564,None,None,1,,,,,,,,,,,,,,109,2023-04-25_13h33.37.053,Main,2022.1.1,60.06882686843058,
negative,blue,2,None,k,,,,,,,,,0,110,110,110,,,,,,,,,,,,,,,,,main,k,k,1,0.6326634000288323,438.1822516999673,None,None,0,,,,,,,,,,,,,,109,2023-04-25_13h33.37.053,Main,2022.1.1,60.06882686843058,
positive,blue,2,k,None,,,,,,,,,0,111,111,111,,,,,,,,,,,,,,,,,main,None,None,1,1.4961632000049576,439.81562300003134,None,None,1,,,,,,,,,,,,,,109,2023-04-25_13h33.37.053,Main,2022.1.1,60.06882686843058,
negative,blue,1,None,k,,,,,,,,,0,112,112,112,,,,,,,,,,,,,,,,,main,k,k,1,0.6353997000260279,442.31287529994734,None,None,0,,,,,,,,,,,,,,109,2023-04-25_13h33.37.053,Main,2022.1.1,60.06882686843058,
positive,yellow,1,None,k,,,,,,,,,0,113,113,113,,,,,,,,,,,,,,,,,main,k,k,1,0.6824420000193641,443.94880749995355,None,None,0,,,,,,,,,,,,,,109,2023-04-25_13h33.37.053,Main,2022.1.1,60.06882686843058,
negative,red,1,None,None,,,,,,,,,0,114,114,114,,,,,,,,,,,,,,,,,main,None,None,1,1.4961943000089377,445.6320890999632,None,None,1,,,,,,,,,,,,,,109,2023-04-25_13h33.37.053,Main,2022.1.1,60.06882686843058,
positive,red,1,None,None,,,,,,,,,0,115,115,115,,,,,,,,,,,,,,,,,main,None,None,1,1.5016924999654293,448.1294191000052,None,None,1,,,,,,,,,,,,,,109,2023-04-25_13h33.37.053,Main,2022.1.1,60.06882686843058,
negative,red,2,None,None,,,,,,,,,0,116,116,116,,,,,,,,,,,,,,,,,main,None,None,1,1.496489700046368,450.6319816999603,None,None,1,,,,,,,,,,,,,,109,2023-04-25_13h33.37.053,Main,2022.1.1,60.06882686843058,
negative,yellow,2,k,None,,,,,,,,,0,117,117,117,,,,,,,,,,,,,,,,,main,None,None,1,1.5015856999671087,453.1292724000523,None,None,1,,,,,,,,,,,,,,109,2023-04-25_13h33.37.053,Main,2022.1.1,60.06882686843058,
positive,yellow,1,None,k,,,,,,,,,0,118,118,118,,,,,,,,,,,,,,,,,main,k,k,1,0.7161679000128061,455.6318668000167,None,None,0,,,,,,,,,,,,,,109,2023-04-25_13h33.37.053,Main,2022.1.1,60.06882686843058,
positive,red,2,None,None,,,,,,,,,0,119,119,119,,,,,,,,,,,,,,,,,main,None,None,1,1.4960508999647573,457.34853319998365,None,None,1,,,,,,,,,,,,,,109,2023-04-25_13h33.37.053,Main,2022.1.1,60.06882686843058,
positive,blue,2,k,None,,,,,,,,,0,120,120,120,,,,,,,,,,,,,,,,,main,None,None,1,1.5018802999984473,459.8457982999971,None,None,1,,,,,,,,,,,,,,109,2023-04-25_13h33.37.053,Main,2022.1.1,60.06882686843058,
negative,red,1,None,None,,,,,,,,,0,121,121,121,,,,,,,,,,,,,,,,,main,None,None,1,1.4964105000253767,462.3483721000375,None,None,1,,,,,,,,,,,,,,109,2023-04-25_13h33.37.053,Main,2022.1.1,60.06882686843058,
positive,yellow,2,None,k,,,,,,,,,0,122,122,122,,,,,,,,,,,,,,,,,main,k,k,1,0.7329192999750376,464.84571020002477,None,None,0,,,,,,,,,,,,,,109,2023-04-25_13h33.37.053,Main,2022.1.1,60.06882686843058,
negative,red,2,None,None,,,,,,,,,0,123,123,123,,,,,,,,,,,,,,,,,main,None,None,1,1.501564099919051,466.5790432000067,None,None,1,,,,,,,,,,,,,,109,2023-04-25_13h33.37.053,Main,2022.1.1,60.06882686843058,
negative,yellow,2,k,None,,,,,,,,,0,124,124,124,,,,,,,,,,,,,,,,,main,None,None,1,1.496216999948956,469.0816511999583,None,None,1,,,,,,,,,,,,,,109,2023-04-25_13h33.37.053,Main,2022.1.1,60.06882686843058,
positive,red,1,None,None,,,,,,,,,0,125,125,125,,,,,,,,,,,,,,,,,main,None,None,1,1.5017922000261024,471.5788940000348,None,None,1,,,,,,,,,,,,,,109,2023-04-25_13h33.37.053,Main,2022.1.1,60.06882686843058,
negative,blue,2,None,k,,,,,,,,,0,126,126,126,,,,,,,,,,,,,,,,,main,k,k,1,0.6827462000073865,474.0814458000241,None,None,0,,,,,,,,,,,,,,109,2023-04-25_13h33.37.053,Main,2022.1.1,60.06882686843058,
negative,blue,1,None,k,,,,,,,,,0,127,127,127,,,,,,,,,,,,,,,,,main,k,k,1,0.6298100999556482,475.7647990999976,None,None,0,,,,,,,,,,,,,,109,2023-04-25_13h33.37.053,Main,2022.1.1,60.06882686843058,
negative,yellow,1,k,None,,,,,,,,,0,128,128,128,,,,,,,,,,,,,,,,,main,None,None,1,1.5007244000444189,477.3954341999488,None,None,1,,,,,,,,,,,,,,109,2023-04-25_13h33.37.053,Main,2022.1.1,60.06882686843058,
negative,yellow,1,k,None,,,,,,,,,0,129,129,129,,,,,,,,,,,,,,,,,main,None,None,1,1.4957399000413716,479.89799730002414,None,None,1,,,,,,,,,,,,,,109,2023-04-25_13h33.37.053,Main,2022.1.1,60.06882686843058,
positive,blue,1,k,None,,,,,,,,,0,130,130,130,,,,,,,,,,,,,,,,,main,None,None,1,1.5009299999801442,482.39534609997645,None,None,1,,,,,,,,,,,,,,109,2023-04-25_13h33.37.053,Main,2022.1.1,60.06882686843058,
negative,blue,1,None,k,,,,,,,,,0,131,131,131,,,,,,,,,,,,,,,,,main,k,k,1,0.715175100020133,484.8979564999463,None,None,0,,,,,,,,,,,,,,109,2023-04-25_13h33.37.053,Main,2022.1.1,60.06882686843058,
negative,blue,2,None,k,,,,,,,,,0,132,132,132,,,,,,,,,,,,,,,,,main,k,k,1,0.5844725000206381,486.6145180000458,None,None,0,,,,,,,,,,,,,,109,2023-04-25_13h33.37.053,Main,2022.1.1,60.06882686843058,
positive,blue,2,k,None,,,,,,,,,0,133,133,133,,,,,,,,,,,,,,,,,main,None,None,1,1.4943618000252172,488.2022746000439,None,None,1,,,,,,,,,,,,,,109,2023-04-25_13h33.37.053,Main,2022.1.1,60.06882686843058,
positive,red,2,None,None,,,,,,,,,0,134,134,134,,,,,,,,,,,,,,,,,main,None,None,1,1.5018490001093596,490.6952172999736,None,None,1,,,,,,,,,,,,,,109,2023-04-25_13h33.37.053,Main,2022.1.1,60.06882686843058,
negative,yellow,2,k,None,,,,,,,,,0,135,135,135,,,,,,,,,,,,,,,,,main,None,None,1,1.4963157000020146,493.197771999985,None,None,1,,,,,,,,,,,,,,109,2023-04-25_13h33.37.053,Main,2022.1.1,60.06882686843058,
positive,yellow,2,None,k,,,,,,,,,0,136,136,136,,,,,,,,,,,,,,,,,main,k,k,1,0.7186819999478757,495.69506219995674,None,None,0,,,,,,,,,,,,,,109,2023-04-25_13h33.37.053,Main,2022.1.1,60.06882686843058,
positive,blue,1,k,None,,,,,,,,,0,137,137,137,,,,,,,,,,,,,,,,,main,None,None,1,1.4990952999796718,497.41435189999174,None,None,1,,,,,,,,,,,,,,109,2023-04-25_13h33.37.053,Main,2022.1.1,60.06882686843058,
positive,yellow,1,None,k,,,,,,,,,0,138,138,138,,,,,,,,,,,,,,,,,main,k,k,1,0.8300651999888942,499.9143511999864,None,None,0,,,,,,,,,,,,,,109,2023-04-25_13h33.37.053,Main,2022.1.1,60.06882686843058,
positive,yellow,1,None,k,,,,,,,,,0,139,139,139,,,,,,,,,,,,,,,,,main,k,k,1,0.668317100033164,501.7449460000498,None,None,0,,,,,,,,,,,,,,109,2023-04-25_13h33.37.053,Main,2022.1.1,60.06882686843058,
positive,yellow,1,None,k,,,,,,,,,0,140,140,140,,,,,,,,,,,,,,,,,main,k,k,1,0.5492175000254065,503.41428390005603,None,None,0,,,,,,,,,,,,,,109,2023-04-25_13h33.37.053,Main,2022.1.1,60.06882686843058,
positive,blue,1,k,None,,,,,,,,,0,141,141,141,,,,,,,,,,,,,,,,,main,None,None,1,1.4962379999924451,504.9641784999985,None,None,1,,,,,,,,,,,,,,109,2023-04-25_13h33.37.053,Main,2022.1.1,60.06882686843058,
positive,blue,2,k,None,,,,,,,,,0,142,142,142,,,,,,,,,,,,,,,,,main,None,None,1,1.5018876999383792,507.4614960999461,None,None,1,,,,,,,,,,,,,,109,2023-04-25_13h33.37.053,Main,2022.1.1,60.06882686843058,
positive,yellow,2,None,k,,,,,,,,,0,143,143,143,,,,,,,,,,,,,,,,,main,k,k,1,0.7168354999739677,509.96411399997305,None,None,0,,,,,,,,,,,,,,109,2023-04-25_13h33.37.053,Main,2022.1.1,60.06882686843058,
negative,yellow,2,k,None,,,,,,,,,0,144,144,144,,,,,,,,,,,,,,,,,main,None,None,1,1.4960793000645936,511.6807676999597,None,None,1,,,,,,,,,,,,,,109,2023-04-25_13h33.37.053,Main,2022.1.1,60.06882686843058,
negative,blue,2,None,k,,,,,,,,,0,145,145,145,,,,,,,,,,,,,,,,,main,k,k,1,0.7179596000351012,514.1779987999471,None,None,0,,,,,,,,,,,,,,109,2023-04-25_13h33.37.053,Main,2022.1.1,60.06882686843058,
negative,red,1,None,None,,,,,,,,,0,146,146,146,,,,,,,,,,,,,,,,,main,None,None,1,1.4963732999749482,515.8972481000237,None,None,1,,,,,,,,,,,,,,109,2023-04-25_13h33.37.053,Main,2022.1.1,60.06882686843058,
positive,blue,1,k,None,,,,,,,,,0,147,147,147,,,,,,,,,,,,,,,,,main,None,None,1,1.4988520999904722,518.4003577999538,None,None,1,,,,,,,,,,,,,,109,2023-04-25_13h33.37.053,Main,2022.1.1,60.06882686843058,
positive,yellow,1,None,k,,,,,,,,,0,148,148,148,,,,,,,,,,,,,,,,,main,k,k,1,0.6855882001109421,520.8946083999472,None,None,0,,,,,,,,,,,,,,109,2023-04-25_13h33.37.053,Main,2022.1.1,60.06882686843058,
negative,red,2,None,None,,,,,,,,,0,149,149,149,,,,,,,,,,,,,,,,,main,None,None,1,1.49857970001176,522.5805734000169,None,None,1,,,,,,,,,,,,,,109,2023-04-25_13h33.37.053,Main,2022.1.1,60.06882686843058,
negative,blue,1,None,k,,,,,,,,,0,150,150,150,,,,,,,,,,,,,,,,,main,k,k,1,0.7159439000533894,525.08029730001,None,None,0,,,,,,,,,,,,,,109,2023-04-25_13h33.37.053,Main,2022.1.1,60.06882686843058,
negative,yellow,2,k,None,,,,,,,,,0,151,151,151,,,,,,,,,,,,,,,,,main,None,None,1,1.4961740999715403,526.7969875000417,None,None,1,,,,,,,,,,,,,,109,2023-04-25_13h33.37.053,Main,2022.1.1,60.06882686843058,
negative,blue,2,None,k,,,,,,,,,0,152,152,152,,,,,,,,,,,,,,,,,main,k,k,1,0.7521193999564275,529.2943804999813,None,None,0,,,,,,,,,,,,,,109,2023-04-25_13h33.37.053,Main,2022.1.1,60.06882686843058,
negative,yellow,1,k,None,,,,,,,,,0,153,153,153,,,,,,,,,,,,,,,,,main,None,None,1,1.498942599981092,531.0470406999812,None,None,1,,,,,,,,,,,,,,109,2023-04-25_13h33.37.053,Main,2022.1.1,60.06882686843058,
negative,blue,1,None,k,,,,,,,,,0,154,154,154,,,,,,,,,,,,,,,,,main,k,k,1,0.6463880999945104,533.5469083000207,None,None,0,,,,,,,,,,,,,,109,2023-04-25_13h33.37.053,Main,2022.1.1,60.06882686843058,
positive,yellow,2,None,k,,,,,,,,,0,155,155,155,,,,,,,,,,,,,,,,,main,k,k,1,0.7518852000357583,535.1942594000138,None,None,0,,,,,,,,,,,,,,109,2023-04-25_13h33.37.053,Main,2022.1.1,60.06882686843058,
positive,red,2,None,None,,,,,,,,,0,156,156,156,,,,,,,,,,,,,,,,,main,None,None,1,1.499009299906902,536.9468335000565,None,None,1,,,,,,,,,,,,,,109,2023-04-25_13h33.37.053,Main,2022.1.1,60.06882686843058,
positive,red,1,None,None,,,,,,,,,0,157,157,157,,,,,,,,,,,,,,,,,main,None,None,1,1.4961611999897286,539.4468013000442,None,None,1,,,,,,,,,,,,,,109,2023-04-25_13h33.37.053,Main,2022.1.1,60.06882686843058,
positive,blue,2,k,None,,,,,,,,,0,158,158,158,,,,,,,,,,,,,,,,,main,None,None,1,1.5019583000103012,541.944111400051,None,None,1,,,,,,,,,,,,,,109,2023-04-25_13h33.37.053,Main,2022.1.1,60.06882686843058,
negative,yellow,1,k,None,,,,,,,,,0,159,159,159,,,,,,,,,,,,,,,,,main,None,None,1,1.49626630009152,544.4466815999476,None,None,1,,,,,,,,,,,,,,109,2023-04-25_13h33.37.053,Main,2022.1.1,60.06882686843058,
negative,red,2,None,None,,,,,,,,,0,160,160,160,,,,,,,,,,,,,,,,,main,None,None,1,1.5018826000159606,546.9440296000103,None,None,1,,,,,,,,,,,,,,109,2023-04-25_13h33.37.053,Main,2022.1.1,60.06882686843058,
negative,blue,1,None,k,,,,,,,,,0,161,161,161,,,,,,,,,,,,,,,,,main,k,k,1,0.6492159999907017,549.4466113999952,None,None,0,,,,,,,,,,,,,,109,2023-04-25_13h33.37.053,Main,2022.1.1,60.06882686843058,
negative,blue,1,None,k,,,,,,,,,0,162,162,162,,,,,,,,,,,,,,,,,main,k,k,1,0.5655227000825107,551.0966301000444,None,None,0,,,,,,,,,,,,,,109,2023-04-25_13h33.37.053,Main,2022.1.1,60.06882686843058,
negative,yellow,1,k,None,,,,,,,,,0,163,163,163,,,,,,,,,,,,,,,,,main,None,None,1,1.5018823998980224,552.6630487999646,None,None,1,,,,,,,,,,,,,,109,2023-04-25_13h33.37.053,Main,2022.1.1,60.06882686843058,
negative,yellow,1,k,None,,,,,,,,,0,164,164,164,,,,,,,,,,,,,,,,,main,None,None,1,1.4934889000141993,555.1640594999772,None,None,1,,,,,,,,,,,,,,109,2023-04-25_13h33.37.053,Main,2022.1.1,60.06882686843058,
positive,yellow,1,None,k,,,,,,,,,0,165,165,165,,,,,,,,,,,,,,,,,main,k,k,1,0.8187854000134394,557.6605232999427,None,None,0,,,,,,,,,,,,,,109,2023-04-25_13h33.37.053,Main,2022.1.1,60.06882686843058,
negative,red,1,None,None,,,,,,,,,0,166,166,166,,,,,,,,,,,,,,,,,main,None,None,1,1.496100899996236,559.4797514999518,None,None,1,,,,,,,,,,,,,,109,2023-04-25_13h33.37.053,Main,2022.1.1,60.06882686843058,
negative,yellow,2,k,None,,,,,,,,,0,167,167,167,,,,,,,,,,,,,,,,,main,None,None,1,1.5017929999157786,561.9770309999585,None,None,1,,,,,,,,,,,,,,109,2023-04-25_13h33.37.053,Main,2022.1.1,60.06882686843058,
positive,blue,2,k,None,,,,,,,,,0,168,168,168,,,,,,,,,,,,,,,,,main,None,None,1,1.4992700000293553,564.4796135999495,None,None,1,,,,,,,,,,,,,,109,2023-04-25_13h33.37.053,Main,2022.1.1,60.06882686843058,
positive,red,2,None,None,,,,,,,,,0,169,169,169,,,,,,,,,,,,,,,,,main,None,None,1,1.4990050999913365,566.9795902000042,None,None,1,,,,,,,,,,,,,,109,2023-04-25_13h33.37.053,Main,2022.1.1,60.06882686843058,
positive,red,1,None,None,,,,,,,,,0,170,170,170,,,,,,,,,,,,,,,,,main,None,None,1,1.4963266999693587,569.4794707000256,None,None,1,,,,,,,,,,,,,,109,2023-04-25_13h33.37.053,Main,2022.1.1,60.06882686843058,
negative,blue,2,None,k,,,,,,,,,0,171,171,171,,,,,,,,,,,,,,,,,main,k,k,1,0.8021908999653533,571.9768385000061,None,None,0,,,,,,,,,,,,,,109,2023-04-25_13h33.37.053,Main,2022.1.1,60.06882686843058,
positive,blue,2,k,None,,,,,,,,,0,172,172,172,,,,,,,,,,,,,,,,,main,None,None,1,1.4987622000044212,573.7794401999563,None,None,1,,,,,,,,,,,,,,109,2023-04-25_13h33.37.053,Main,2022.1.1,60.06882686843058,
negative,yellow,2,k,None,,,,,,,,,0,173,173,173,,,,,,,,,,,,,,,,,main,None,None,1,1.4966785999713466,576.2823433999438,None,None,1,,,,,,,,,,,,,,109,2023-04-25_13h33.37.053,Main,2022.1.1,60.06882686843058,
positive,yellow,2,None,k,,,,,,,,,0,174,174,174,,,,,,,,,,,,,,,,,main,k,k,1,0.7518413999350742,578.776754999999,None,None,0,,,,,,,,,,,,,,109,2023-04-25_13h33.37.053,Main,2022.1.1,60.06882686843058,
negative,blue,2,None,k,,,,,,,,,0,175,175,175,,,,,,,,,,,,,,,,,main,k,k,1,0.6993520999094471,580.529306899989,None,None,0,,,,,,,,,,,,,,109,2023-04-25_13h33.37.053,Main,2022.1.1,60.06882686843058,
positive,blue,1,k,None,,,,,,,,,0,176,176,176,,,,,,,,,,,,,,,,,main,None,None,1,1.496235299971886,582.2292663999833,None,None,1,,,,,,,,,,,,,,109,2023-04-25_13h33.37.053,Main,2022.1.1,60.06882686843058,
positive,yellow,1,None,k,,,,,,,,,0,177,177,177,,,,,,,,,,,,,,,,,main,k,k,1,0.6517940999474376,584.7266416000202,None,None,0,,,,,,,,,,,,,,109,2023-04-25_13h33.37.053,Main,2022.1.1,60.06882686843058,
positive,blue,1,k,None,,,,,,,,,0,178,178,178,,,,,,,,,,,,,,,,,main,None,None,1,1.4961588999722153,586.3792025999865,None,None,1,,,,,,,,,,,,,,109,2023-04-25_13h33.37.053,Main,2022.1.1,60.06882686843058,
positive,yellow,2,None,k,,,,,,,,,0,179,179,179,,,,,,,,,,,,,,,,,main,k,k,1,0.5994678999995813,588.8764600000577,None,None,0,,,,,,,,,,,,,,109,2023-04-25_13h33.37.053,Main,2022.1.1,60.06882686843058,
positive,blue,1,k,None,,,,,,,,,0,180,180,180,,,,,,,,,,,,,,,,,main,None,None,1,1.5016357999993488,590.4765333000105,None,None,1,,,,,,,,,,,,,,109,2023-04-25_13h33.37.053,Main,2022.1.1,60.06882686843058,
negative,red,1,None,None,,,,,,,,,0,181,181,181,,,,,,,,,,,,,,,,,main,None,None,1,1.4963376999367028,592.9790572000202,None,None,1,,,,,,,,,,,,,,109,2023-04-25_13h33.37.053,Main,2022.1.1,60.06882686843058,
negative,blue,1,None,k,,,,,,,,,0,182,182,182,,,,,,,,,,,,,,,,,main,k,k,1,0.6686414000578225,595.4763531000353,None,None,0,,,,,,,,,,,,,,109,2023-04-25_13h33.37.053,Main,2022.1.1,60.06882686843058,
negative,yellow,2,k,None,,,,,,,,,0,183,183,183,,,,,,,,,,,,,,,,,main,None,None,1,1.4988736000377685,597.1456374999834,None,None,1,,,,,,,,,,,,,,109,2023-04-25_13h33.37.053,Main,2022.1.1,60.06882686843058,
positive,yellow,2,None,k,,,,,,,,,0,184,184,184,,,,,,,,,,,,,,,,,main,k,k,1,0.7131958999671042,599.6455536000431,None,None,0,,,,,,,,,,,,,,109,2023-04-25_13h33.37.053,Main,2022.1.1,60.06882686843058,
positive,yellow,1,None,k,,,,,,,,,0,185,185,185,,,,,,,,,,,,,,,,,main,k,k,1,0.6660172999836504,601.359572699992,None,None,0,,,,,,,,,,,,,,109,2023-04-25_13h33.37.053,Main,2022.1.1,60.06882686843058,
positive,red,2,None,None,,,,,,,,,0,186,186,186,,,,,,,,,,,,,,,,,main,None,None,1,1.5014198999851942,603.0288295999635,None,None,1,,,,,,,,,,,,,,109,2023-04-25_13h33.37.053,Main,2022.1.1,60.06882686843058,
positive,blue,1,k,None,,,,,,,,,0,187,187,187,,,,,,,,,,,,,,,,,main,None,None,1,1.4963921000016853,605.5287924000295,None,None,1,,,,,,,,,,,,,,109,2023-04-25_13h33.37.053,Main,2022.1.1,60.06882686843058,
negative,yellow,1,k,None,,,,,,,,,0,188,188,188,,,,,,,,,,,,,,,,,main,None,None,1,1.5018575999420136,608.0260913999518,None,None,1,,,,,,,,,,,,,,109,2023-04-25_13h33.37.053,Main,2022.1.1,60.06882686843058,
positive,yellow,2,None,k,,,,,,,,,0,189,189,189,,,,,,,,,,,,,,,,,main,k,k,1,0.9862284000264481,610.5287322000368,None,None,0,,,,,,,,,,,,,,109,2023-04-25_13h33.37.053,Main,2022.1.1,60.06882686843058,
negative,yellow,2,k,None,,,,,,,,,0,190,190,190,,,,,,,,,,,,,,,,,main,None,None,1,1.4926519999280572,612.5138456999557,None,None,1,,,,,,,,,,,,,,109,2023-04-25_13h33.37.053,Main,2022.1.1,60.06882686843058,
negative,yellow,1,k,None,,,,,,,,,0,191,191,191,,,,,,,,,,,,,,,,,main,None,None,1,1.50145139999222,615.0093341999454,None,None,1,,,,,,,,,,,,,,109,2023-04-25_13h33.37.053,Main,2022.1.1,60.06882686843058,
positive,blue,2,k,None,,,,,,,,,0,192,192,192,,,,,,,,,,,,,,,,,main,None,None,1,1.4967241999693215,617.5118450999726,None,None,1,,,,,,,,,,,,,,109,2023-04-25_13h33.37.053,Main,2022.1.1,60.06882686843058,
positive,yellow,1,None,k,,,,,,,,,0,193,193,193,,,,,,,,,,,,,,,,,main,k,k,1,0.7688354001147673,620.0091754000168,None,None,0,,,,,,,,,,,,,,109,2023-04-25_13h33.37.053,Main,2022.1.1,60.06882686843058,
negative,red,2,None,None,,,,,,,,,0,194,194,194,,,,,,,,,,,,,,,,,main,None,None,1,1.4985387999331579,621.7785081999609,None,None,1,,,,,,,,,,,,,,109,2023-04-25_13h33.37.053,Main,2022.1.1,60.06882686843058,
positive,red,1,None,None,,,,,,,,,0,195,195,195,,,,,,,,,,,,,,,,,main,None,None,1,1.499416399979964,624.2783794000279,None,None,1,,,,,,,,,,,,,,109,2023-04-25_13h33.37.053,Main,2022.1.1,60.06882686843058,
negative,blue,1,None,k,,,,,,,,,0,196,196,196,,,,,,,,,,,,,,,,,main,k,k,1,0.782539299922064,626.7757792000193,None,None,0,,,,,,,,,,,,,,109,2023-04-25_13h33.37.053,Main,2022.1.1,60.06882686843058,
positive,blue,2,k,None,,,,,,,,,0,197,197,197,,,,,,,,,,,,,,,,,main,None,None,1,1.496158300084062,628.5616174000315,None,None,1,,,,,,,,,,,,,,109,2023-04-25_13h33.37.053,Main,2022.1.1,60.06882686843058,
negative,blue,2,None,k,,,,,,,,,0,198,198,198,,,,,,,,,,,,,,,,,main,k,k,1,0.6160570000065491,631.0589404000202,None,None,0,,,,,,,,,,,,,,109,2023-04-25_13h33.37.053,Main,2022.1.1,60.06882686843058,
negative,blue,2,None,k,,,,,,,,,0,199,199,199,,,,,,,,,,,,,,,,,main,k,k,1,0.63535390002653,632.6756617999636,None,None,0,,,,,,,,,,,,,,109,2023-04-25_13h33.37.053,Main,2022.1.1,60.06882686843058,
positive,blue,2,k,None,,,,,,,,,0,200,200,200,,,,,,,,,,,,,,,,,main,None,None,1,1.5018803999992087,634.3115287000546,None,None,1,,,,,,,,,,,,,,109,2023-04-25_13h33.37.053,Main,2022.1.1,60.06882686843058,
positive,blue,2,k,None,,,,,,,,,0,201,201,201,,,,,,,,,,,,,,,,,main,None,None,1,1.496029100031592,636.8126174999634,None,None,1,,,,,,,,,,,,,,109,2023-04-25_13h33.37.053,Main,2022.1.1,60.06882686843058,
negative,yellow,2,k,None,,,,,,,,,0,202,202,202,,,,,,,,,,,,,,,,,main,None,None,1,1.4993123000022024,639.3114172000205,None,None,1,,,,,,,,,,,,,,109,2023-04-25_13h33.37.053,Main,2022.1.1,60.06882686843058,
positive,red,1,None,None,,,,,,,,,0,203,203,203,,,,,,,,,,,,,,,,,main,None,None,1,1.4961661000270396,641.8113962999778,None,None,1,,,,,,,,,,,,,,109,2023-04-25_13h33.37.053,Main,2022.1.1,60.06882686843058,
negative,blue,2,None,k,,,,,,,,,0,204,204,204,,,,,,,,,,,,,,,,,main,k,k,1,0.6520510000409558,644.308690899983,None,None,0,,,,,,,,,,,,,,109,2023-04-25_13h33.37.053,Main,2022.1.1,60.06882686843058,
negative,red,1,None,None,,,,,,,,,0,205,205,205,,,,,,,,,,,,,,,,,main,None,None,1,1.4987407999578863,645.9612790000392,None,None,1,,,,,,,,,,,,,,109,2023-04-25_13h33.37.053,Main,2022.1.1,60.06882686843058,
negative,blue,2,None,k,,,,,,,,,0,206,206,206,,,,,,,,,,,,,,,,,main,k,k,1,0.6135193000081927,648.4612655000528,None,None,0,,,,,,,,,,,,,,109,2023-04-25_13h33.37.053,Main,2022.1.1,60.06882686843058,
negative,yellow,2,k,None,,,,,,,,,0,207,207,207,,,,,,,,,,,,,,,,,main,None,None,1,1.501416299957782,650.0752234000247,None,None,1,,,,,,,,,,,,,,109,2023-04-25_13h33.37.053,Main,2022.1.1,60.06882686843058,
positive,yellow,2,None,k,,,,,,,,,0,208,208,208,,,,,,,,,,,,,,,,,main,k,k,1,0.6491739999037236,652.5778327999869,None,None,0,,,,,,,,,,,,,,109,2023-04-25_13h33.37.053,Main,2022.1.1,60.06882686843058,
negative,yellow,1,k,None,,,,,,,,,0,209,209,209,,,,,,,,,,,,,,,,,main,None,None,1,1.4960835000965744,654.2278626000043,None,None,1,,,,,,,,,,,,,,109,2023-04-25_13h33.37.053,Main,2022.1.1,60.06882686843058,
negative,red,2,None,None,,,,,,,,,0,210,210,210,,,,,,,,,,,,,,,,,main,None,None,1,1.5019029999384657,656.7250899999635,None,None,1,,,,,,,,,,,,,,109,2023-04-25_13h33.37.053,Main,2022.1.1,60.06882686843058,
negative,blue,1,None,k,,,,,,,,,0,211,211,211,,,,,,,,,,,,,,,,,main,k,k,1,0.7186963999411091,659.2276542000473,None,None,0,,,,,,,,,,,,,,109,2023-04-25_13h33.37.053,Main,2022.1.1,60.06882686843058,
negative,yellow,1,k,None,,,,,,,,,0,212,212,212,,,,,,,,,,,,,,,,,main,None,None,1,1.4960034000687301,660.9506990000373,None,None,1,,,,,,,,,,,,,,109,2023-04-25_13h33.37.053,Main,2022.1.1,60.06882686843058,
positive,blue,1,k,None,,,,,,,,,0,213,213,213,,,,,,,,,,,,,,,,,main,None,None,1,1.4967196000507101,663.4441703000339,None,None,1,,,,,,,,,,,,,,109,2023-04-25_13h33.37.053,Main,2022.1.1,60.06882686843058,
positive,blue,1,k,None,,,,,,,,,0,214,214,214,,,,,,,,,,,,,,,,,main,None,None,1,1.5018738000653684,665.9415743000573,None,None,1,,,,,,,,,,,,,,109,2023-04-25_13h33.37.053,Main,2022.1.1,60.06882686843058,
positive,yellow,1,None,k,,,,,,,,,0,215,215,215,,,,,,,,,,,,,,,,,main,k,k,1,0.9327072999440134,668.4442111999961,None,None,0,,,,,,,,,,,,,,109,2023-04-25_13h33.37.053,Main,2022.1.1,60.06882686843058,
positive,yellow,1,None,k,,,,,,,,,0,216,216,216,,,,,,,,,,,,,,,,,main,k,k,1,-0.7510103000095114,670.3776415999746,None,None,0,,,,,,,,,,,,,,109,2023-04-25_13h33.37.053,Main,2022.1.1,60.06882686843058,
positive,yellow,2,None,k,,,,,,,,,0,217,217,217,,,,,,,,,,,,,,,,,main,k,k,1,1.170368600054644,673.6414752999553,None,None,0,,,,,,,,,,,,,,109,2023-04-25_13h33.37.053,Main,2022.1.1,60.06882686843058,
negative,blue,1,None,k,,,,,,,,,0,218,218,218,,,,,,,,,,,,,,,,,main,k,k,1,0.7320671000052243,675.8107232999755,None,None,0,,,,,,,,,,,,,,109,2023-04-25_13h33.37.053,Main,2022.1.1,60.06882686843058,
positive,red,2,None,None,,,,,,,,,0,219,219,219,,,,,,,,,,,,,,,,,main,None,None,1,1.4964301999425516,677.5440240999451,None,None,1,,,,,,,,,,,,,,109,2023-04-25_13h33.37.053,Main,2022.1.1,60.06882686843058,
positive,yellow,1,None,k,,,,,,,,,0,220,220,220,,,,,,,,,,,,,,,,,main,k,k,1,0.6684015000937507,680.0413359999657,None,None,0,,,,,,,,,,,,,,109,2023-04-25_13h33.37.053,Main,2022.1.1,60.06882686843058,
positive,blue,1,k,None,,,,,,,,,0,221,221,221,,,,,,,,,,,,,,,,,main,None,None,1,1.4989921000087634,681.7105171999428,None,None,1,,,,,,,,,,,,,,109,2023-04-25_13h33.37.053,Main,2022.1.1,60.06882686843058,
positive,yellow,2,None,k,,,,,,,,,0,222,222,222,,,,,,,,,,,,,,,,,main,k,k,1,0.6470559999579564,684.2103915000334,None,None,0,,,,,,,,,,,,,,109,2023-04-25_13h33.37.053,Main,2022.1.1,60.06882686843058,
negative,yellow,1,k,None,,,,,,,,,0,223,223,223,,,,,,,,,,,,,,,,,main,None,None,1,1.4983266999479383,685.8603763000574,None,None,1,,,,,,,,,,,,,,109,2023-04-25_13h33.37.053,Main,2022.1.1,60.06882686843058,
positive,yellow,2,None,k,,,,,,,,,0,224,224,224,,,,,,,,,,,,,,,,,main,k,k,1,0.6189359000418335,688.3577749000397,None,None,0,,,,,,,,,,,,,,109,2023-04-25_13h33.37.053,Main,2022.1.1,60.06882686843058,
negative,yellow,2,k,None,,,,,,,,,0,225,225,225,,,,,,,,,,,,,,,,,main,None,None,1,1.4988667001016438,689.9770575000439,None,None,1,,,,,,,,,,,,,,109,2023-04-25_13h33.37.053,Main,2022.1.1,60.06882686843058,
negative,blue,2,None,k,,,,,,,,,0,226,226,226,,,,,,,,,,,,,,,,,main,k,k,1,0.6632169999647886,692.4770302999532,None,None,0,,,,,,,,,,,,,,109,2023-04-25_13h33.37.053,Main,2022.1.1,60.06882686843058,
positive,red,2,None,None,,,,,,,,,0,227,227,227,,,,,,,,,,,,,,,,,main,None,None,1,1.5015662999358028,694.1409851999488,None,None,1,,,,,,,,,,,,,,109,2023-04-25_13h33.37.053,Main,2022.1.1,60.06882686843058,
positive,blue,2,k,None,,,,,,,,,0,228,228,228,,,,,,,,,,,,,,,,,main,None,None,1,1.4991669000592083,696.6437084999634,None,None,1,,,,,,,,,,,,,,109,2023-04-25_13h33.37.053,Main,2022.1.1,60.06882686843058,
negative,blue,1,None,k,,,,,,,,,0,229,229,229,,,,,,,,,,,,,,,,,main,k,k,1,0.6798495000693947,699.1435675000539,None,None,0,,,,,,,,,,,,,,109,2023-04-25_13h33.37.053,Main,2022.1.1,60.06882686843058,
positive,yellow,1,None,k,,,,,,,,,0,230,230,230,,,,,,,,,,,,,,,,,main,k,k,1,1.2343723999802023,700.8241997000296,None,None,0,,,,,,,,,,,,,,109,2023-04-25_13h33.37.053,Main,2022.1.1,60.06882686843058,
negative,blue,2,None,k,,,,,,,,,0,231,231,231,,,,,,,,,,,,,,,,,main,k,k,1,0.6490721000591293,703.0600908000488,None,None,0,,,,,,,,,,,,,,109,2023-04-25_13h33.37.053,Main,2022.1.1,60.06882686843058,
negative,red,1,None,None,,,,,,,,,0,232,232,232,,,,,,,,,,,,,,,,,main,None,None,1,1.496228100033477,704.7101048999466,None,None,1,,,,,,,,,,,,,,109,2023-04-25_13h33.37.053,Main,2022.1.1,60.06882686843058,
positive,blue,2,k,None,,,,,,,,,0,233,233,233,,,,,,,,,,,,,,,,,main,None,None,1,1.5017894000047818,707.2073845999548,None,None,1,,,,,,,,,,,,,,109,2023-04-25_13h33.37.053,Main,2022.1.1,60.06882686843058,
negative,yellow,1,k,None,,,,,,,,,0,234,234,234,,,,,,,,,,,,,,,,,main,None,None,1,1.496550300042145,709.7099923000205,None,None,1,,,,,,,,,,,,,,109,2023-04-25_13h33.37.053,Main,2022.1.1,60.06882686843058,
negative,yellow,2,k,None,,,,,,,,,0,235,235,235,,,,,,,,,,,,,,,,,main,None,None,1,1.5018888999475166,712.2072876000311,None,None,1,,,,,,,,,,,,,,109,2023-04-25_13h33.37.053,Main,2022.1.1,60.06882686843058,
positive,red,1,None,None,,,,,,,,,0,236,236,236,,,,,,,,,,,,,,,,,main,None,None,1,1.4990583000471815,714.7099166000262,None,None,1,,,,,,,,,,,,,,109,2023-04-25_13h33.37.053,Main,2022.1.1,60.06882686843058,
negative,red,2,None,None,,,,,,,,,0,237,237,237,,,,,,,,,,,,,,,,,main,None,None,1,1.4963752999901772,717.2098495999817,None,None,1,,,,,,,,,,,,,,109,2023-04-25_13h33.37.053,Main,2022.1.1,60.06882686843058,
negative,blue,1,None,k,,,,,,,,,0,238,238,238,,,,,,,,,,,,,,,,,main,k,k,1,0.7186133000068367,719.7071959000314,None,None,0,,,,,,,,,,,,,,109,2023-04-25_13h33.37.053,Main,2022.1.1,60.06882686843058,
positive,blue,1,k,None,,,,,,,,,0,239,239,239,,,,,,,,,,,,,,,,,main,None,None,1,1.4978206999367103,721.4264697999461,None,None,1,,,,,,,,,,,,,,109,2023-04-25_13h33.37.053,Main,2022.1.1,60.06882686843058,
,,,,,,,,,,,,,,,,,,,,,,,,,,,,,,,,,,,,,,,,,,,,,,,,,,,,,723.9262106999522,None,,,,,,
