distractor,target,set,ans1,ans2,rep_loop4.thisRepN,rep_loop4.thisTrialN,rep_loop4.thisN,rep_loop4.thisIndex,st2_prac_loop.thisRepN,st2_prac_loop.thisTrialN,st2_prac_loop.thisN,st2_prac_loop.thisIndex,st2_main_loop.thisRepN,st2_main_loop.thisTrialN,st2_main_loop.thisN,st2_main_loop.thisIndex,image_4.started,image_4.stopped,sound_2.started,sound_2.stopped,key_resp_3.keys,key_resp_3.rt,image_5.started,image_5.stopped,st_prac_back.started,st_prac_back.stopped,st_prac_text.started,st_prac_text.stopped,st_fix_back.started,st_fix_back.stopped,st_fix_2.started,st_fix_2.stopped,main_prac,st_ans,st_res,st_corr,st_rt,st_back.started,st_back.stopped,st2_resp.keys,st2_resp.corr,st_main_back.started,st_main_back.stopped,st_main_text.started,st_main_text.stopped,mouse_4.x,mouse_4.y,mouse_4.leftButton,mouse_4.midButton,mouse_4.rightButton,mouse_4.started,mouse_4.stopped,text_2.started,text_2.stopped,id*,date,expName,psychopyVersion,frameRate,
negative,yellow,1,k,None,,,,,0,0,0,0,,,,,32.62387500000477,None,36.66600852000484,None,space,56.90423179999925,93.5977095000053,None,95.04804300000251,None,95.04804300000251,None,97.04806120000285,None,97.04806120000285,None,prac,k,k,1,1.880825799999002,99.07498650000343,None,None,0,,,,,,,,,,,,,,110,2023-04-17_10h31.46.061,Main,2022.1.1,61.1243954802234,
positive,red,2,None,None,,,,,0,1,1,1,,,,,,,,,,,,,,,,,,,,,prac,None,None,1,1.498492200000328,102.96242750000238,None,None,1,,,,,,,,,,,,,,110,2023-04-17_10h31.46.061,Main,2022.1.1,61.1243954802234,
negative,blue,2,None,k,,,,,0,2,2,2,,,,,,,,,,,,,,,,,,,,,prac,None,None,1,1.5012933000034536,105.46197670000402,None,None,1,,,,,,,,,,,,,,110,2023-04-17_10h31.46.061,Main,2022.1.1,61.1243954802234,
positive,yellow,1,None,k,,,,,0,3,3,3,,,,,,,,,,,,,,,,,,,,,prac,None,None,1,1.4992632000066806,107.96586460000253,None,None,1,,,,,,,,,,,,,,110,2023-04-17_10h31.46.061,Main,2022.1.1,61.1243954802234,
negative,blue,2,None,k,,,,,0,4,4,4,,,,,,,,,,,,,,,,,,,,,prac,None,None,1,1.4963672000012593,110.46451410000009,None,None,1,,,,,,,,,,,,,,110,2023-04-17_10h31.46.061,Main,2022.1.1,61.1243954802234,
negative,blue,1,None,k,,,,,0,5,5,5,,,,,,,,,,,,,,,,,,,,,prac,None,None,1,1.5016452000054414,112.96186360000138,None,None,1,,,,,,,,,,,,,,110,2023-04-17_10h31.46.061,Main,2022.1.1,61.1243954802234,
negative,yellow,2,k,None,,,,,0,6,6,6,,,,,,,,,,,,,,,,,,,,,prac,k,k,1,0.8967873000001418,115.46565850000479,None,None,0,,,,,,,,,,,,,,110,2023-04-17_10h31.46.061,Main,2022.1.1,61.1243954802234,
negative,red,1,None,None,,,,,0,7,7,7,,,,,,,,,,,,,,,,,,,,,prac,None,None,1,1.5016143000029842,117.36169789999985,None,None,1,,,,,,,,,,,,,,110,2023-04-17_10h31.46.061,Main,2022.1.1,61.1243954802234,
positive,yellow,2,None,k,,,,,0,8,8,8,,,,,,,,,,,,,,,,,,,,,prac,None,None,1,1.4991440000012517,119.86430870000186,None,None,1,,,,,,,,,,,,,,110,2023-04-17_10h31.46.061,Main,2022.1.1,61.1243954802234,
negative,yellow,1,k,None,,,,,0,9,9,9,,,,,,,,,,,,,,,,,,,,,prac,k,k,1,0.9134015000017826,122.36433070000203,None,None,0,,,,,,,,,,,,,,110,2023-04-17_10h31.46.061,Main,2022.1.1,61.1243954802234,
positive,yellow,2,None,k,,,,,0,10,10,10,,,,,,,,,,,,,,,,,,,,,prac,None,None,1,1.5016302000003634,124.27825410000514,None,None,1,,,,,,,,,,,,,,110,2023-04-17_10h31.46.061,Main,2022.1.1,61.1243954802234,
negative,yellow,2,k,None,,,,,0,11,11,11,,,,,,,,,,,,,,,,,,,,,prac,k,k,1,1.2134069000021555,126.78090930000326,None,None,0,,,,,,,,,,,,,,110,2023-04-17_10h31.46.061,Main,2022.1.1,61.1243954802234,
negative,red,2,None,None,,,,,0,12,12,12,,,,,,,,,,,,,,,,,,,,,prac,None,None,1,1.4989471000008052,128.99481229999947,None,None,1,,,,,,,,,,,,,,110,2023-04-17_10h31.46.061,Main,2022.1.1,61.1243954802234,
positive,red,1,None,None,,,,,0,13,13,13,,,,,,,,,,,,,,,,,,,,,prac,None,None,1,1.5016412999975728,131.49481840000226,None,None,1,,,,,,,,,,,,,,110,2023-04-17_10h31.46.061,Main,2022.1.1,61.1243954802234,
positive,blue,2,k,None,,,,,0,14,14,14,,,,,,,,,,,,,,,,,,,,,prac,k,k,1,0.7465274000060163,133.99738950000028,None,None,0,,,,,,,,,,,,,,110,2023-04-17_10h31.46.061,Main,2022.1.1,61.1243954802234,
positive,blue,1,k,None,,,,,0,15,15,15,,,,,,,,,,,,,,,,,,,,,prac,k,k,1,0.7826084999978775,135.74468139999954,None,None,0,,,,,,,,,,,,,,110,2023-04-17_10h31.46.061,Main,2022.1.1,61.1243954802234,
negative,blue,1,None,k,,,,,0,16,16,16,,,,,,,,,,,,,,,,,,,,,prac,None,None,1,1.5015357000011136,137.52804490000563,None,None,1,,,,,,,,,,,,,,110,2023-04-17_10h31.46.061,Main,2022.1.1,61.1243954802234,
positive,blue,2,k,None,,,,,0,17,17,17,,,,,,,,,,,,,,,,,,,,,prac,k,k,1,0.8134324000056949,140.03057790000457,None,None,0,,,,,,,,,,,,,,110,2023-04-17_10h31.46.061,Main,2022.1.1,61.1243954802234,
positive,blue,1,k,None,,,,,0,18,18,18,,,,,,,,,,,,,,,,,,,,,prac,k,k,1,1.101618500004406,141.84454100000585,None,None,0,,,,,,,,,,,,,,110,2023-04-17_10h31.46.061,Main,2022.1.1,61.1243954802234,
positive,yellow,1,None,k,,,,,0,19,19,19,,,,,,,,,,,,,,,,,,,,,prac,None,None,1,1.4991055999998935,143.94990550000512,None,None,1,,,,,,,,,,,,,,110,2023-04-17_10h31.46.061,Main,2022.1.1,61.1243954802234,
negative,yellow,1,k,None,,,,,1,0,20,0,,,,,,,,,,,,,,,,,,,,,prac,k,k,1,1.24647580000601,146.44725490000565,None,None,0,,,,,,,,,,,,,,110,2023-04-17_10h31.46.061,Main,2022.1.1,61.1243954802234,
positive,red,2,None,None,,,,,1,1,21,1,,,,,,,,,,,,,,,,,,,,,prac,None,k,0,1.2850631000037538,148.69442650000565,None,None,1,,,,,,,,,,,,,,110,2023-04-17_10h31.46.061,Main,2022.1.1,61.1243954802234,
negative,blue,2,None,k,,,,,1,2,22,2,,,,,,,,,,,,,,,,,,,,,prac,None,None,1,1.4983517000000575,151.98033340000256,None,None,1,,,,,,,,,,,,,,110,2023-04-17_10h31.46.061,Main,2022.1.1,61.1243954802234,
positive,yellow,1,None,k,,,,,1,3,23,3,,,,,,,,,,,,,,,,,,,,,prac,None,None,1,1.5015636999960407,154.47763260000647,None,None,1,,,,,,,,,,,,,,110,2023-04-17_10h31.46.061,Main,2022.1.1,61.1243954802234,
negative,blue,2,None,k,,,,,1,4,24,4,,,,,,,,,,,,,,,,,,,,,prac,None,None,1,1.4963100000022678,156.98023600000306,None,None,1,,,,,,,,,,,,,,110,2023-04-17_10h31.46.061,Main,2022.1.1,61.1243954802234,
negative,blue,1,None,k,,,,,1,5,25,5,,,,,,,,,,,,,,,,,,,,,prac,None,None,1,1.501846300001489,159.47752190000028,None,None,1,,,,,,,,,,,,,,110,2023-04-17_10h31.46.061,Main,2022.1.1,61.1243954802234,
negative,yellow,2,k,None,,,,,1,6,26,6,,,,,,,,,,,,,,,,,,,,,prac,k,k,1,0.8804141000000527,161.9801099000033,None,None,0,,,,,,,,,,,,,,110,2023-04-17_10h31.46.061,Main,2022.1.1,61.1243954802234,
negative,red,1,None,None,,,,,1,7,27,7,,,,,,,,,,,,,,,,,,,,,prac,None,None,1,1.5010737999982666,163.8635241000011,None,None,1,,,,,,,,,,,,,,110,2023-04-17_10h31.46.061,Main,2022.1.1,61.1243954802234,
positive,yellow,2,None,k,,,,,1,8,28,8,,,,,,,,,,,,,,,,,,,,,prac,None,None,1,1.496732500003418,166.36326670000562,None,None,1,,,,,,,,,,,,,,110,2023-04-17_10h31.46.061,Main,2022.1.1,61.1243954802234,
negative,yellow,1,k,None,,,,,1,9,29,9,,,,,,,,,,,,,,,,,,,,,prac,k,k,1,0.8991864999989048,168.86067350000667,None,None,0,,,,,,,,,,,,,,110,2023-04-17_10h31.46.061,Main,2022.1.1,61.1243954802234,
positive,yellow,2,None,k,,,,,1,10,30,10,,,,,,,,,,,,,,,,,,,,,prac,None,None,1,1.5014422999956878,170.76068230000237,None,None,1,,,,,,,,,,,,,,110,2023-04-17_10h31.46.061,Main,2022.1.1,61.1243954802234,
negative,yellow,2,k,None,,,,,1,11,31,11,,,,,,,,,,,,,,,,,,,,,prac,k,k,1,1.113367300000391,173.26321420000022,None,None,0,,,,,,,,,,,,,,110,2023-04-17_10h31.46.061,Main,2022.1.1,61.1243954802234,
negative,red,2,None,None,,,,,1,12,32,12,,,,,,,,,,,,,,,,,,,,,prac,None,None,1,1.5015376000010292,175.37721630000306,None,None,1,,,,,,,,,,,,,,110,2023-04-17_10h31.46.061,Main,2022.1.1,61.1243954802234,
positive,red,1,None,None,,,,,1,13,33,13,,,,,,,,,,,,,,,,,,,,,prac,None,None,1,1.4992378000024473,177.8797984000048,None,None,1,,,,,,,,,,,,,,110,2023-04-17_10h31.46.061,Main,2022.1.1,61.1243954802234,
positive,blue,2,k,None,,,,,1,14,34,14,,,,,,,,,,,,,,,,,,,,,prac,k,k,1,0.896502399999008,180.37978000000294,None,None,0,,,,,,,,,,,,,,110,2023-04-17_10h31.46.061,Main,2022.1.1,61.1243954802234,
positive,blue,1,k,None,,,,,1,15,35,15,,,,,,,,,,,,,,,,,,,,,prac,k,k,1,0.8019617999962065,182.2770696000007,None,None,0,,,,,,,,,,,,,,110,2023-04-17_10h31.46.061,Main,2022.1.1,61.1243954802234,
negative,blue,1,None,k,,,,,1,16,36,16,,,,,,,,,,,,,,,,,,,,,prac,None,None,1,0.9664209000038682,184.07745570000407,None,None,1,,,,,,,,,,,,,,110,2023-04-17_10h31.46.061,Main,2022.1.1,61.1243954802234,
positive,blue,2,k,None,,,,,1,17,37,17,,,,,,,,,,,,,,,,,,,,,prac,k,k,1,0.7955482999968808,186.04651850000664,None,None,0,,,,,,,,,,,,,,110,2023-04-17_10h31.46.061,Main,2022.1.1,61.1243954802234,
positive,blue,1,k,None,,,,,1,18,38,18,,,,,,,,,,,,,,,,,,,,,prac,k,k,1,0.7018299000046682,187.8436112000054,None,None,0,,,,,,,,,,,,,,110,2023-04-17_10h31.46.061,Main,2022.1.1,61.1243954802234,
positive,yellow,1,None,k,,,,,1,19,39,19,,,,,,,,,,,,,,,,,,,,,prac,None,None,1,1.498868800001219,189.5461940000023,None,None,1,,,,,,,,,,,,,,110,2023-04-17_10h31.46.061,Main,2022.1.1,61.1243954802234,
,,,,,,,,,,,,,,,,,,,,,,,,,,,,,,,,,,,,,,,,,,192.04621179999958,None,192.04621179999958,None,0.026851851,-0.119444445,0,0,0,0.014191620000929106,None,,,110,2023-04-17_10h31.46.061,Main,2022.1.1,61.1243954802234,
negative,yellow,2,k,None,,,,,,,,,0,0,0,0,,,,,,,,,,,,,195.14352400000644,None,195.14352400000644,None,main,k,k,1,2.2239962999956333,197.1784575000056,None,None,0,,,,,,,,,,,,,,110,2023-04-17_10h31.46.061,Main,2022.1.1,61.1243954802234,
positive,red,1,None,None,,,,,,,,,0,1,1,1,,,,,,,,,,,,,,,,,main,None,None,1,1.4870573000007425,201.41007370000443,None,None,1,,,,,,,,,,,,,,110,2023-04-17_10h31.46.061,Main,2022.1.1,61.1243954802234,
positive,blue,2,k,None,,,,,,,,,0,2,2,2,,,,,,,,,,,,,,,,,main,k,k,1,1.4129708999971626,203.89599460000318,None,None,0,,,,,,,,,,,,,,110,2023-04-17_10h31.46.061,Main,2022.1.1,61.1243954802234,
positive,blue,1,k,None,,,,,,,,,0,3,3,3,,,,,,,,,,,,,,,,,main,k,k,1,0.8507695000007516,206.309909100004,None,None,0,,,,,,,,,,,,,,110,2023-04-17_10h31.46.061,Main,2022.1.1,61.1243954802234,
negative,yellow,2,k,None,,,,,,,,,0,4,4,4,,,,,,,,,,,,,,,,,main,k,k,1,0.8147403999973903,208.15328360000422,None,None,0,,,,,,,,,,,,,,110,2023-04-17_10h31.46.061,Main,2022.1.1,61.1243954802234,
positive,yellow,2,None,k,,,,,,,,,0,5,5,5,,,,,,,,,,,,,,,,,main,None,None,1,1.4984167000002344,209.97925810000015,None,None,1,,,,,,,,,,,,,,110,2023-04-17_10h31.46.061,Main,2022.1.1,61.1243954802234,
negative,blue,2,None,k,,,,,,,,,0,6,6,6,,,,,,,,,,,,,,,,,main,None,None,1,1.5018421999993734,212.476453700001,None,None,1,,,,,,,,,,,,,,110,2023-04-17_10h31.46.061,Main,2022.1.1,61.1243954802234,
positive,red,2,None,None,,,,,,,,,0,7,7,7,,,,,,,,,,,,,,,,,main,None,None,1,1.4964871999982279,214.9790334000063,None,None,1,,,,,,,,,,,,,,110,2023-04-17_10h31.46.061,Main,2022.1.1,61.1243954802234,
positive,yellow,1,None,k,,,,,,,,,0,8,8,8,,,,,,,,,,,,,,,,,main,None,None,1,1.5017940999969142,217.47634470000048,None,None,1,,,,,,,,,,,,,,110,2023-04-17_10h31.46.061,Main,2022.1.1,61.1243954802234,
negative,red,1,None,None,,,,,,,,,0,9,9,9,,,,,,,,,,,,,,,,,main,None,None,1,1.4993243999997503,219.97893040000054,None,None,1,,,,,,,,,,,,,,110,2023-04-17_10h31.46.061,Main,2022.1.1,61.1243954802234,
positive,yellow,1,None,k,,,,,,,,,0,10,10,10,,,,,,,,,,,,,,,,,main,None,None,1,1.4965153000011924,222.47890710000502,None,None,1,,,,,,,,,,,,,,110,2023-04-17_10h31.46.061,Main,2022.1.1,61.1243954802234,
negative,yellow,1,k,None,,,,,,,,,0,11,11,11,,,,,,,,,,,,,,,,,main,k,k,1,1.0351960999978473,224.9762320000009,None,None,0,,,,,,,,,,,,,,110,2023-04-17_10h31.46.061,Main,2022.1.1,61.1243954802234,
negative,yellow,1,k,None,,,,,,,,,0,12,12,12,,,,,,,,,,,,,,,,,main,k,k,1,0.8340042999989237,227.0121436000045,None,None,0,,,,,,,,,,,,,,110,2023-04-17_10h31.46.061,Main,2022.1.1,61.1243954802234,
negative,red,2,None,None,,,,,,,,,0,13,13,13,,,,,,,,,,,,,,,,,main,None,None,1,1.494874300005904,228.84916910000175,None,None,1,,,,,,,,,,,,,,110,2023-04-17_10h31.46.061,Main,2022.1.1,61.1243954802234,
positive,yellow,2,None,k,,,,,,,,,0,14,14,14,,,,,,,,,,,,,,,,,main,None,None,1,1.5017225999981747,231.342782300002,None,None,1,,,,,,,,,,,,,,110,2023-04-17_10h31.46.061,Main,2022.1.1,61.1243954802234,
positive,blue,1,k,None,,,,,,,,,0,15,15,15,,,,,,,,,,,,,,,,,main,k,k,1,0.9467473999975482,233.84529509999993,None,None,0,,,,,,,,,,,,,,110,2023-04-17_10h31.46.061,Main,2022.1.1,61.1243954802234,
negative,blue,1,None,k,,,,,,,,,0,16,16,16,,,,,,,,,,,,,,,,,main,None,None,1,1.501658100001805,235.7926390000066,None,None,1,,,,,,,,,,,,,,110,2023-04-17_10h31.46.061,Main,2022.1.1,61.1243954802234,
positive,blue,2,k,None,,,,,,,,,0,17,17,17,,,,,,,,,,,,,,,,,main,k,k,1,0.7659449999991921,238.29530660000455,None,None,0,,,,,,,,,,,,,,110,2023-04-17_10h31.46.061,Main,2022.1.1,61.1243954802234,
negative,blue,2,None,k,,,,,,,,,0,18,18,18,,,,,,,,,,,,,,,,,main,None,None,1,1.4962881999963429,240.06185200000618,None,None,1,,,,,,,,,,,,,,110,2023-04-17_10h31.46.061,Main,2022.1.1,61.1243954802234,
negative,blue,1,None,k,,,,,,,,,0,19,19,19,,,,,,,,,,,,,,,,,main,None,None,1,1.5019092000002274,242.55915500000265,None,None,1,,,,,,,,,,,,,,110,2023-04-17_10h31.46.061,Main,2022.1.1,61.1243954802234,
negative,blue,1,None,k,,,,,,,,,0,20,20,20,,,,,,,,,,,,,,,,,main,None,None,1,1.4963877999980468,245.06180719999975,None,None,1,,,,,,,,,,,,,,110,2023-04-17_10h31.46.061,Main,2022.1.1,61.1243954802234,
negative,blue,2,None,k,,,,,,,,,0,21,21,21,,,,,,,,,,,,,,,,,main,None,None,1,1.501872100001492,247.5590613000022,None,None,1,,,,,,,,,,,,,,110,2023-04-17_10h31.46.061,Main,2022.1.1,61.1243954802234,
negative,red,1,None,None,,,,,,,,,0,22,22,22,,,,,,,,,,,,,,,,,main,None,None,1,1.4991678000005777,250.0617241,None,None,1,,,,,,,,,,,,,,110,2023-04-17_10h31.46.061,Main,2022.1.1,61.1243954802234,
positive,red,2,None,None,,,,,,,,,0,23,23,23,,,,,,,,,,,,,,,,,main,None,None,1,1.4963153999997303,252.56165220000548,None,None,1,,,,,,,,,,,,,,110,2023-04-17_10h31.46.061,Main,2022.1.1,61.1243954802234,
negative,red,2,None,None,,,,,,,,,0,24,24,24,,,,,,,,,,,,,,,,,main,None,None,1,1.501718899999105,255.0589842000045,None,None,1,,,,,,,,,,,,,,110,2023-04-17_10h31.46.061,Main,2022.1.1,61.1243954802234,
positive,blue,2,k,None,,,,,,,,,0,25,25,25,,,,,,,,,,,,,,,,,main,k,k,1,1.1634149000019534,257.56153020000056,None,None,0,,,,,,,,,,,,,,110,2023-04-17_10h31.46.061,Main,2022.1.1,61.1243954802234,
negative,yellow,1,k,None,,,,,,,,,0,26,26,26,,,,,,,,,,,,,,,,,main,k,k,1,0.932594899997639,259.72549110000546,None,None,0,,,,,,,,,,,,,,110,2023-04-17_10h31.46.061,Main,2022.1.1,61.1243954802234,
positive,blue,2,k,None,,,,,,,,,0,27,27,27,,,,,,,,,,,,,,,,,main,k,k,1,0.8851183000006131,261.65884350000124,None,None,0,,,,,,,,,,,,,,110,2023-04-17_10h31.46.061,Main,2022.1.1,61.1243954802234,
negative,blue,2,None,k,,,,,,,,,0,28,28,28,,,,,,,,,,,,,,,,,main,None,None,1,1.4961756999982754,263.544787800005,None,None,1,,,,,,,,,,,,,,110,2023-04-17_10h31.46.061,Main,2022.1.1,61.1243954802234,
positive,red,1,None,None,,,,,,,,,0,29,29,29,,,,,,,,,,,,,,,,,main,None,None,1,1.5018715999976848,266.0420180000001,None,None,1,,,,,,,,,,,,,,110,2023-04-17_10h31.46.061,Main,2022.1.1,61.1243954802234,
positive,blue,1,k,None,,,,,,,,,0,30,30,30,,,,,,,,,,,,,,,,,main,k,k,1,0.8992723000046681,268.54467750000185,None,None,0,,,,,,,,,,,,,,110,2023-04-17_10h31.46.061,Main,2022.1.1,61.1243954802234,
positive,yellow,1,None,k,,,,,,,,,0,31,31,31,,,,,,,,,,,,,,,,,main,None,None,1,1.4961440000042785,270.44464470000094,None,None,1,,,,,,,,,,,,,,110,2023-04-17_10h31.46.061,Main,2022.1.1,61.1243954802234,
negative,yellow,2,k,None,,,,,,,,,0,32,32,32,,,,,,,,,,,,,,,,,main,k,k,1,0.7665091000017128,272.94188810000196,None,None,0,,,,,,,,,,,,,,110,2023-04-17_10h31.46.061,Main,2022.1.1,61.1243954802234,
negative,blue,1,None,k,,,,,,,,,0,33,33,33,,,,,,,,,,,,,,,,,main,None,None,1,1.5041096999993897,274.7089335000055,None,None,1,,,,,,,,,,,,,,110,2023-04-17_10h31.46.061,Main,2022.1.1,61.1243954802234,
positive,blue,1,k,None,,,,,,,,,0,34,34,34,,,,,,,,,,,,,,,,,main,k,k,1,0.6769072000024607,277.2121010000046,None,None,0,,,,,,,,,,,,,,110,2023-04-17_10h31.46.061,Main,2022.1.1,61.1243954802234,
negative,yellow,1,k,None,,,,,,,,,0,35,35,35,,,,,,,,,,,,,,,,,main,k,k,1,1.0520987999989302,278.89179230000445,None,None,0,,,,,,,,,,,,,,110,2023-04-17_10h31.46.061,Main,2022.1.1,61.1243954802234,
positive,yellow,2,None,k,,,,,,,,,0,36,36,36,,,,,,,,,,,,,,,,,main,None,None,1,1.496001100000285,280.9446109000055,None,None,1,,,,,,,,,,,,,,110,2023-04-17_10h31.46.061,Main,2022.1.1,61.1243954802234,
positive,yellow,2,None,k,,,,,,,,,0,37,37,37,,,,,,,,,,,,,,,,,main,None,k,0,0.949472499996773,283.44167080000625,None,None,1,,,,,,,,,,,,,,110,2023-04-17_10h31.46.061,Main,2022.1.1,61.1243954802234,
negative,yellow,2,k,None,,,,,,,,,0,38,38,38,,,,,,,,,,,,,,,,,main,k,k,1,0.784550099997432,286.39425250000204,None,None,0,,,,,,,,,,,,,,110,2023-04-17_10h31.46.061,Main,2022.1.1,61.1243954802234,
positive,yellow,1,None,k,,,,,,,,,0,39,39,39,,,,,,,,,,,,,,,,,main,None,None,1,1.4961425999936182,288.177562900004,None,None,1,,,,,,,,,,,,,,110,2023-04-17_10h31.46.061,Main,2022.1.1,61.1243954802234,
negative,yellow,2,k,None,,,,,,,,,0,40,40,40,,,,,,,,,,,,,,,,,main,k,k,1,0.9497919999994338,290.6748607000045,None,None,0,,,,,,,,,,,,,,110,2023-04-17_10h31.46.061,Main,2022.1.1,61.1243954802234,
positive,blue,2,k,None,,,,,,,,,0,41,41,41,,,,,,,,,,,,,,,,,main,k,k,1,5.965570899999875,292.6252303000001,None,None,0,,,,,,,,,,,,,,110,2023-04-17_10h31.46.061,Main,2022.1.1,61.1243954802234,
positive,blue,2,k,None,,,,,,,,,0,42,42,42,,,,,,,,,,,,,,,,,main,k,k,1,0.6986952000006568,300.5939664000034,None,None,0,,,,,,,,,,,,,,110,2023-04-17_10h31.46.061,Main,2022.1.1,61.1243954802234,
negative,blue,2,None,k,,,,,,,,,0,43,43,43,,,,,,,,,,,,,,,,,main,None,None,1,1.5013229999967734,302.2912789000038,None,None,1,,,,,,,,,,,,,,110,2023-04-17_10h31.46.061,Main,2022.1.1,61.1243954802234,
negative,red,1,None,None,,,,,,,,,0,44,44,44,,,,,,,,,,,,,,,,,main,None,None,1,1.4965709000025527,304.7938551000043,None,None,1,,,,,,,,,,,,,,110,2023-04-17_10h31.46.061,Main,2022.1.1,61.1243954802234,
negative,yellow,1,k,None,,,,,,,,,0,45,45,45,,,,,,,,,,,,,,,,,main,k,k,1,0.9490957999951206,307.2970845000018,None,None,0,,,,,,,,,,,,,,110,2023-04-17_10h31.46.061,Main,2022.1.1,61.1243954802234,
negative,yellow,1,k,None,,,,,,,,,0,46,46,46,,,,,,,,,,,,,,,,,main,k,k,1,0.768424199995934,309.2411621000065,None,None,0,,,,,,,,,,,,,,110,2023-04-17_10h31.46.061,Main,2022.1.1,61.1243954802234,
positive,red,1,None,None,,,,,,,,,0,47,47,47,,,,,,,,,,,,,,,,,main,None,None,1,1.4964151000021957,311.01040210000065,None,None,1,,,,,,,,,,,,,,110,2023-04-17_10h31.46.061,Main,2022.1.1,61.1243954802234,
positive,yellow,1,None,k,,,,,,,,,0,48,48,48,,,,,,,,,,,,,,,,,main,None,None,1,1.499122900000657,313.5077515000012,None,None,1,,,,,,,,,,,,,,110,2023-04-17_10h31.46.061,Main,2022.1.1,61.1243954802234,
negative,blue,1,None,k,,,,,,,,,0,49,49,49,,,,,,,,,,,,,,,,,main,None,None,1,1.5018238000047859,316.0077251000039,None,None,1,,,,,,,,,,,,,,110,2023-04-17_10h31.46.061,Main,2022.1.1,61.1243954802234,
positive,yellow,2,None,k,,,,,,,,,0,50,50,50,,,,,,,,,,,,,,,,,main,None,None,1,1.4964821000030497,318.51028610000503,None,None,1,,,,,,,,,,,,,,110,2023-04-17_10h31.46.061,Main,2022.1.1,61.1243954802234,
negative,blue,1,None,k,,,,,,,,,0,51,51,51,,,,,,,,,,,,,,,,,main,None,None,1,1.5018401000052108,321.00755400000344,None,None,1,,,,,,,,,,,,,,110,2023-04-17_10h31.46.061,Main,2022.1.1,61.1243954802234,
positive,red,2,None,None,,,,,,,,,0,52,52,52,,,,,,,,,,,,,,,,,main,None,None,1,1.496421800002281,323.5101773999995,None,None,1,,,,,,,,,,,,,,110,2023-04-17_10h31.46.061,Main,2022.1.1,61.1243954802234,
positive,yellow,2,None,k,,,,,,,,,0,53,53,53,,,,,,,,,,,,,,,,,main,None,None,1,1.501778400001058,326.0074669000023,None,None,1,,,,,,,,,,,,,,110,2023-04-17_10h31.46.061,Main,2022.1.1,61.1243954802234,
negative,red,2,None,None,,,,,,,,,0,54,54,54,,,,,,,,,,,,,,,,,main,None,None,1,1.4992811000047368,328.5100476000007,None,None,1,,,,,,,,,,,,,,110,2023-04-17_10h31.46.061,Main,2022.1.1,61.1243954802234,
positive,yellow,1,None,k,,,,,,,,,0,55,55,55,,,,,,,,,,,,,,,,,main,None,None,1,1.4989084000044386,331.0100330999994,None,None,1,,,,,,,,,,,,,,110,2023-04-17_10h31.46.061,Main,2022.1.1,61.1243954802234,
negative,blue,2,None,k,,,,,,,,,0,56,56,56,,,,,,,,,,,,,,,,,main,None,k,0,1.2965824000057182,333.5098403000011,None,None,1,,,,,,,,,,,,,,110,2023-04-17_10h31.46.061,Main,2022.1.1,61.1243954802234,
positive,blue,1,k,None,,,,,,,,,0,57,57,57,,,,,,,,,,,,,,,,,main,k,k,1,1.4205537000016193,336.80731260000175,None,None,0,,,,,,,,,,,,,,110,2023-04-17_10h31.46.061,Main,2022.1.1,61.1243954802234,
positive,blue,1,k,None,,,,,,,,,0,58,58,58,,,,,,,,,,,,,,,,,main,k,k,1,0.815618300002825,339.2266899000024,None,None,0,,,,,,,,,,,,,,110,2023-04-17_10h31.46.061,Main,2022.1.1,61.1243954802234,
negative,yellow,2,k,None,,,,,,,,,0,59,59,59,,,,,,,,,,,,,,,,,main,k,k,1,1.0295317000054638,341.04316480000125,None,None,0,,,,,,,,,,,,,,110,2023-04-17_10h31.46.061,Main,2022.1.1,61.1243954802234,
positive,red,2,None,None,,,,,,,,,0,60,60,60,,,,,,,,,,,,,,,,,main,None,None,1,1.501791000002413,343.0738299000004,None,None,1,,,,,,,,,,,,,,110,2023-04-17_10h31.46.061,Main,2022.1.1,61.1243954802234,
negative,yellow,1,k,None,,,,,,,,,0,61,61,61,,,,,,,,,,,,,,,,,main,k,k,1,1.746456799999578,345.5763675000053,None,None,0,,,,,,,,,,,,,,110,2023-04-17_10h31.46.061,Main,2022.1.1,61.1243954802234,
negative,red,1,None,None,,,,,,,,,0,62,62,62,,,,,,,,,,,,,,,,,main,None,None,1,1.487010899996676,349.3236659000031,None,None,1,,,,,,,,,,,,,,110,2023-04-17_10h31.46.061,Main,2022.1.1,61.1243954802234,
negative,blue,1,None,k,,,,,,,,,0,63,63,63,,,,,,,,,,,,,,,,,main,None,None,1,1.4984894000008353,351.80955260000337,None,None,1,,,,,,,,,,,,,,110,2023-04-17_10h31.46.061,Main,2022.1.1,61.1243954802234,
positive,blue,2,k,None,,,,,,,,,0,64,64,64,,,,,,,,,,,,,,,,,main,k,k,1,1.1829391999999643,354.3094318000003,None,None,0,,,,,,,,,,,,,,110,2023-04-17_10h31.46.061,Main,2022.1.1,61.1243954802234,
negative,yellow,2,k,None,,,,,,,,,0,65,65,65,,,,,,,,,,,,,,,,,main,k,k,1,1.1795818000027793,356.4905152000065,None,None,0,,,,,,,,,,,,,,110,2023-04-17_10h31.46.061,Main,2022.1.1,61.1243954802234,
positive,yellow,2,None,k,,,,,,,,,0,66,66,66,,,,,,,,,,,,,,,,,main,None,None,1,1.5016949999990175,358.67346640000324,None,None,1,,,,,,,,,,,,,,110,2023-04-17_10h31.46.061,Main,2022.1.1,61.1243954802234,
positive,yellow,2,None,k,,,,,,,,,0,67,67,67,,,,,,,,,,,,,,,,,main,None,None,1,1.4988290000037523,361.176048500005,None,None,1,,,,,,,,,,,,,,110,2023-04-17_10h31.46.061,Main,2022.1.1,61.1243954802234,
positive,red,1,None,None,,,,,,,,,0,68,68,68,,,,,,,,,,,,,,,,,main,None,None,1,1.4967003999990993,363.67587410000124,None,None,1,,,,,,,,,,,,,,110,2023-04-17_10h31.46.061,Main,2022.1.1,61.1243954802234,
positive,yellow,1,None,k,,,,,,,,,0,69,69,69,,,,,,,,,,,,,,,,,main,None,None,1,1.501920800001244,366.1733072999996,None,None,1,,,,,,,,,,,,,,110,2023-04-17_10h31.46.061,Main,2022.1.1,61.1243954802234,
negative,yellow,2,k,None,,,,,,,,,0,70,70,70,,,,,,,,,,,,,,,,,main,k,k,1,0.932632800002466,368.67592620000505,None,None,0,,,,,,,,,,,,,,110,2023-04-17_10h31.46.061,Main,2022.1.1,61.1243954802234,
positive,yellow,1,None,k,,,,,,,,,0,71,71,71,,,,,,,,,,,,,,,,,main,None,None,1,1.496141700001317,370.6092841999998,None,None,1,,,,,,,,,,,,,,110,2023-04-17_10h31.46.061,Main,2022.1.1,61.1243954802234,
negative,blue,1,None,k,,,,,,,,,0,72,72,72,,,,,,,,,,,,,,,,,main,None,None,1,1.5016575999979977,373.1065082000059,None,None,1,,,,,,,,,,,,,,110,2023-04-17_10h31.46.061,Main,2022.1.1,61.1243954802234,
negative,red,2,None,None,,,,,,,,,0,73,73,73,,,,,,,,,,,,,,,,,main,None,None,1,1.496984600002179,375.6091207000063,None,None,1,,,,,,,,,,,,,,110,2023-04-17_10h31.46.061,Main,2022.1.1,61.1243954802234,
positive,blue,2,k,None,,,,,,,,,0,74,74,74,,,,,,,,,,,,,,,,,main,k,k,1,2.584888700002921,378.10639240000455,None,None,0,,,,,,,,,,,,,,110,2023-04-17_10h31.46.061,Main,2022.1.1,61.1243954802234,
negative,blue,2,None,k,,,,,,,,,0,75,75,75,,,,,,,,,,,,,,,,,main,None,None,1,1.498368799999298,382.6922790000026,None,None,1,,,,,,,,,,,,,,110,2023-04-17_10h31.46.061,Main,2022.1.1,61.1243954802234,
negative,blue,2,None,k,,,,,,,,,0,76,76,76,,,,,,,,,,,,,,,,,main,None,None,1,1.5014531999986502,385.1895799000049,None,None,1,,,,,,,,,,,,,,110,2023-04-17_10h31.46.061,Main,2022.1.1,61.1243954802234,
negative,yellow,1,k,None,,,,,,,,,0,77,77,77,,,,,,,,,,,,,,,,,main,k,k,1,1.2661363000006531,387.69218370000453,None,None,0,,,,,,,,,,,,,,110,2023-04-17_10h31.46.061,Main,2022.1.1,61.1243954802234,
positive,blue,1,k,None,,,,,,,,,0,78,78,78,,,,,,,,,,,,,,,,,main,k,k,1,2.5822888999973657,389.956408500002,None,None,0,,,,,,,,,,,,,,110,2023-04-17_10h31.46.061,Main,2022.1.1,61.1243954802234,
positive,blue,1,k,None,,,,,,,,,0,79,79,79,,,,,,,,,,,,,,,,,main,k,k,1,0.9154179999968619,394.5420382000011,None,None,0,,,,,,,,,,,,,,110,2023-04-17_10h31.46.061,Main,2022.1.1,61.1243954802234,
positive,red,2,None,None,,,,,,,,,0,80,80,80,,,,,,,,,,,,,,,,,main,None,None,1,1.5011634999973467,396.4560120000024,None,None,1,,,,,,,,,,,,,,110,2023-04-17_10h31.46.061,Main,2022.1.1,61.1243954802234,
positive,yellow,2,None,k,,,,,,,,,0,81,81,81,,,,,,,,,,,,,,,,,main,None,None,1,1.499243899997964,398.95861900000455,None,None,1,,,,,,,,,,,,,,110,2023-04-17_10h31.46.061,Main,2022.1.1,61.1243954802234,
positive,blue,1,k,None,,,,,,,,,0,82,82,82,,,,,,,,,,,,,,,,,main,k,k,1,0.7964576999947894,401.4585570000054,None,None,0,,,,,,,,,,,,,,110,2023-04-17_10h31.46.061,Main,2022.1.1,61.1243954802234,
negative,yellow,2,k,None,,,,,,,,,0,83,83,83,,,,,,,,,,,,,,,,,main,k,k,1,0.7353987999958917,403.2558987000011,None,None,0,,,,,,,,,,,,,,110,2023-04-17_10h31.46.061,Main,2022.1.1,61.1243954802234,
positive,blue,2,k,None,,,,,,,,,0,84,84,84,,,,,,,,,,,,,,,,,main,k,k,1,0.9468378999954439,404.99175749999995,None,None,0,,,,,,,,,,,,,,110,2023-04-17_10h31.46.061,Main,2022.1.1,61.1243954802234,
positive,yellow,1,None,k,,,,,,,,,0,85,85,85,,,,,,,,,,,,,,,,,main,None,None,1,1.4983826000025147,406.9418699000016,None,None,1,,,,,,,,,,,,,,110,2023-04-17_10h31.46.061,Main,2022.1.1,61.1243954802234,
positive,blue,2,k,None,,,,,,,,,0,86,86,86,,,,,,,,,,,,,,,,,main,k,k,1,0.8687248999995063,409.4391079000052,None,None,0,,,,,,,,,,,,,,110,2023-04-17_10h31.46.061,Main,2022.1.1,61.1243954802234,
positive,blue,1,k,None,,,,,,,,,0,87,87,87,,,,,,,,,,,,,,,,,main,k,k,1,1.165691300004255,411.30832410000585,None,None,0,,,,,,,,,,,,,,110,2023-04-17_10h31.46.061,Main,2022.1.1,61.1243954802234,
negative,yellow,2,k,None,,,,,,,,,0,88,88,88,,,,,,,,,,,,,,,,,main,k,k,1,0.9632590000037453,413.4750103000042,None,None,0,,,,,,,,,,,,,,110,2023-04-17_10h31.46.061,Main,2022.1.1,61.1243954802234,
negative,blue,2,None,k,,,,,,,,,0,89,89,89,,,,,,,,,,,,,,,,,main,None,None,1,1.5014853999964544,415.4389764000007,None,None,1,,,,,,,,,,,,,,110,2023-04-17_10h31.46.061,Main,2022.1.1,61.1243954802234,
positive,yellow,2,None,k,,,,,,,,,0,90,90,90,,,,,,,,,,,,,,,,,main,None,None,1,1.4964978999996674,417.941642400001,None,None,1,,,,,,,,,,,,,,110,2023-04-17_10h31.46.061,Main,2022.1.1,61.1243954802234,
negative,yellow,1,k,None,,,,,,,,,0,91,91,91,,,,,,,,,,,,,,,,,main,k,k,1,1.1996781999987434,420.4388575000048,None,None,0,,,,,,,,,,,,,,110,2023-04-17_10h31.46.061,Main,2022.1.1,61.1243954802234,
negative,red,2,None,None,,,,,,,,,0,92,92,92,,,,,,,,,,,,,,,,,main,None,k,0,1.417908900002658,422.6388903000043,None,None,1,,,,,,,,,,,,,,110,2023-04-17_10h31.46.061,Main,2022.1.1,61.1243954802234,
negative,blue,2,None,k,,,,,,,,,0,93,93,93,,,,,,,,,,,,,,,,,main,None,None,1,1.4983242000016617,426.0580614000064,None,None,1,,,,,,,,,,,,,,110,2023-04-17_10h31.46.061,Main,2022.1.1,61.1243954802234,
negative,blue,1,None,k,,,,,,,,,0,94,94,94,,,,,,,,,,,,,,,,,main,None,None,1,1.501830200002587,428.5554267000043,None,None,1,,,,,,,,,,,,,,110,2023-04-17_10h31.46.061,Main,2022.1.1,61.1243954802234,
negative,blue,1,None,k,,,,,,,,,0,95,95,95,,,,,,,,,,,,,,,,,main,None,None,1,1.4987598000006983,431.05799440000555,None,None,1,,,,,,,,,,,,,,110,2023-04-17_10h31.46.061,Main,2022.1.1,61.1243954802234,
negative,red,1,None,None,,,,,,,,,0,96,96,96,,,,,,,,,,,,,,,,,main,None,None,1,1.4965257000003476,433.557825200005,None,None,1,,,,,,,,,,,,,,110,2023-04-17_10h31.46.061,Main,2022.1.1,61.1243954802234,
positive,yellow,1,None,k,,,,,,,,,0,97,97,97,,,,,,,,,,,,,,,,,main,None,None,1,1.5018468999987817,436.05521570000565,None,None,1,,,,,,,,,,,,,,110,2023-04-17_10h31.46.061,Main,2022.1.1,61.1243954802234,
negative,yellow,1,k,None,,,,,,,,,0,98,98,98,,,,,,,,,,,,,,,,,main,k,k,1,1.8342846000014106,438.557825200005,None,None,0,,,,,,,,,,,,,,110,2023-04-17_10h31.46.061,Main,2022.1.1,61.1243954802234,
positive,red,1,None,None,,,,,,,,,0,99,99,99,,,,,,,,,,,,,,,,,main,None,None,1,1.4874128000010387,442.40508820000105,None,None,1,,,,,,,,,,,,,,110,2023-04-17_10h31.46.061,Main,2022.1.1,61.1243954802234,
positive,blue,1,k,None,,,,,,,,,0,100,100,100,,,,,,,,,,,,,,,,,main,k,k,1,2.995986099995207,444.891016900001,None,None,0,,,,,,,,,,,,,,110,2023-04-17_10h31.46.061,Main,2022.1.1,61.1243954802234,
negative,yellow,1,k,None,,,,,,,,,0,101,101,101,,,,,,,,,,,,,,,,,main,k,k,1,0.9205595000021276,449.8908611000006,None,None,0,,,,,,,,,,,,,,110,2023-04-17_10h31.46.061,Main,2022.1.1,61.1243954802234,
negative,blue,2,None,k,,,,,,,,,0,102,102,102,,,,,,,,,,,,,,,,,main,None,None,1,1.4959697000012966,451.8075281000056,None,None,1,,,,,,,,,,,,,,110,2023-04-17_10h31.46.061,Main,2022.1.1,61.1243954802234,
negative,yellow,2,k,None,,,,,,,,,0,103,103,103,,,,,,,,,,,,,,,,,main,k,k,1,1.0687566999986302,454.3048268000057,None,None,0,,,,,,,,,,,,,,110,2023-04-17_10h31.46.061,Main,2022.1.1,61.1243954802234,
positive,yellow,2,None,k,,,,,,,,,0,104,104,104,,,,,,,,,,,,,,,,,main,None,None,1,1.49899820000428,456.3740992000021,None,None,1,,,,,,,,,,,,,,110,2023-04-17_10h31.46.061,Main,2022.1.1,61.1243954802234,
positive,blue,1,k,None,,,,,,,,,0,105,105,105,,,,,,,,,,,,,,,,,main,k,k,1,0.7630535999996937,458.87409599999955,None,None,0,,,,,,,,,,,,,,110,2023-04-17_10h31.46.061,Main,2022.1.1,61.1243954802234,
positive,blue,2,k,None,,,,,,,,,0,106,106,106,,,,,,,,,,,,,,,,,main,k,k,1,0.7187066999977105,460.6380588000029,None,None,0,,,,,,,,,,,,,,110,2023-04-17_10h31.46.061,Main,2022.1.1,61.1243954802234,
negative,blue,1,None,k,,,,,,,,,0,107,107,107,,,,,,,,,,,,,,,,,main,None,None,1,1.4990715000021737,462.3573419000022,None,None,1,,,,,,,,,,,,,,110,2023-04-17_10h31.46.061,Main,2022.1.1,61.1243954802234,
positive,yellow,2,None,k,,,,,,,,,0,108,108,108,,,,,,,,,,,,,,,,,main,None,None,1,1.4962815000035334,464.8573228000023,None,None,1,,,,,,,,,,,,,,110,2023-04-17_10h31.46.061,Main,2022.1.1,61.1243954802234,
negative,yellow,1,k,None,,,,,,,,,0,109,109,109,,,,,,,,,,,,,,,,,main,k,k,1,1.0517091000001528,467.354594000004,None,None,0,,,,,,,,,,,,,,110,2023-04-17_10h31.46.061,Main,2022.1.1,61.1243954802234,
negative,blue,2,None,k,,,,,,,,,0,110,110,110,,,,,,,,,,,,,,,,,main,None,None,1,1.496364699996775,469.4071707000039,None,None,1,,,,,,,,,,,,,,110,2023-04-17_10h31.46.061,Main,2022.1.1,61.1243954802234,
positive,blue,2,k,None,,,,,,,,,0,111,111,111,,,,,,,,,,,,,,,,,main,k,k,1,0.716132599998673,471.90448570000444,None,None,0,,,,,,,,,,,,,,110,2023-04-17_10h31.46.061,Main,2022.1.1,61.1243954802234,
negative,blue,1,None,k,,,,,,,,,0,112,112,112,,,,,,,,,,,,,,,,,main,None,None,1,1.501544799997646,473.6211859000032,None,None,1,,,,,,,,,,,,,,110,2023-04-17_10h31.46.061,Main,2022.1.1,61.1243954802234,
positive,yellow,1,None,k,,,,,,,,,0,113,113,113,,,,,,,,,,,,,,,,,main,None,None,1,1.4966289000003599,476.1237872000056,None,None,1,,,,,,,,,,,,,,110,2023-04-17_10h31.46.061,Main,2022.1.1,61.1243954802234,
negative,red,1,None,None,,,,,,,,,0,114,114,114,,,,,,,,,,,,,,,,,main,None,None,1,1.5016861999974935,478.62101650000113,None,None,1,,,,,,,,,,,,,,110,2023-04-17_10h31.46.061,Main,2022.1.1,61.1243954802234,
positive,red,1,None,None,,,,,,,,,0,115,115,115,,,,,,,,,,,,,,,,,main,None,None,1,1.496787600000971,481.1236185000016,None,None,1,,,,,,,,,,,,,,110,2023-04-17_10h31.46.061,Main,2022.1.1,61.1243954802234,
negative,red,2,None,None,,,,,,,,,0,116,116,116,,,,,,,,,,,,,,,,,main,None,None,1,1.5015612999995938,483.6264878000002,None,None,1,,,,,,,,,,,,,,110,2023-04-17_10h31.46.061,Main,2022.1.1,61.1243954802234,
negative,yellow,2,k,None,,,,,,,,,0,117,117,117,,,,,,,,,,,,,,,,,main,k,k,1,1.149405600001046,486.1234795000055,None,None,0,,,,,,,,,,,,,,110,2023-04-17_10h31.46.061,Main,2022.1.1,61.1243954802234,
positive,yellow,1,None,k,,,,,,,,,0,118,118,118,,,,,,,,,,,,,,,,,main,None,None,1,1.4964212000049883,488.2734474000026,None,None,1,,,,,,,,,,,,,,110,2023-04-17_10h31.46.061,Main,2022.1.1,61.1243954802234,
positive,red,2,None,None,,,,,,,,,0,119,119,119,,,,,,,,,,,,,,,,,main,None,None,1,1.5018371999976807,490.7707672000033,None,None,1,,,,,,,,,,,,,,110,2023-04-17_10h31.46.061,Main,2022.1.1,61.1243954802234,
positive,blue,2,k,None,,,,,,,,,0,120,120,120,,,,,,,,,,,,,,,,,main,k,k,1,0.9158853000044473,493.27337600000465,None,None,0,,,,,,,,,,,,,,110,2023-04-17_10h31.46.061,Main,2022.1.1,61.1243954802234,
negative,red,1,None,None,,,,,,,,,0,121,121,121,,,,,,,,,,,,,,,,,main,None,None,1,1.4963704000037978,495.1900244000062,None,None,1,,,,,,,,,,,,,,110,2023-04-17_10h31.46.061,Main,2022.1.1,61.1243954802234,
positive,yellow,2,None,k,,,,,,,,,0,122,122,122,,,,,,,,,,,,,,,,,main,None,None,1,1.501932699997269,497.6873437000031,None,None,1,,,,,,,,,,,,,,110,2023-04-17_10h31.46.061,Main,2022.1.1,61.1243954802234,
negative,red,2,None,None,,,,,,,,,0,123,123,123,,,,,,,,,,,,,,,,,main,None,None,1,1.4986290000015288,500.18993360000604,None,None,1,,,,,,,,,,,,,,110,2023-04-17_10h31.46.061,Main,2022.1.1,61.1243954802234,
negative,yellow,2,k,None,,,,,,,,,0,124,124,124,,,,,,,,,,,,,,,,,main,k,k,1,0.9863352000029408,502.68970660000195,None,None,0,,,,,,,,,,,,,,110,2023-04-17_10h31.46.061,Main,2022.1.1,61.1243954802234,
positive,red,1,None,None,,,,,,,,,0,125,125,125,,,,,,,,,,,,,,,,,main,None,None,1,1.4930056000011973,504.6792181000055,None,None,1,,,,,,,,,,,,,,110,2023-04-17_10h31.46.061,Main,2022.1.1,61.1243954802234,
negative,blue,2,None,k,,,,,,,,,0,126,126,126,,,,,,,,,,,,,,,,,main,None,None,1,1.501716300001135,507.17048840000643,None,None,1,,,,,,,,,,,,,,110,2023-04-17_10h31.46.061,Main,2022.1.1,61.1243954802234,
negative,blue,1,None,k,,,,,,,,,0,127,127,127,,,,,,,,,,,,,,,,,main,None,k,0,-0.06712889999471372,509.6731022000022,None,None,1,,,,,,,,,,,,,,110,2023-04-17_10h31.46.061,Main,2022.1.1,61.1243954802234,
negative,yellow,1,k,None,,,,,,,,,0,128,128,128,,,,,,,,,,,,,,,,,main,k,k,1,1.1348959000024479,513.6062818000064,None,None,0,,,,,,,,,,,,,,110,2023-04-17_10h31.46.061,Main,2022.1.1,61.1243954802234,
negative,yellow,1,k,None,,,,,,,,,0,129,129,129,,,,,,,,,,,,,,,,,main,k,k,1,1.245524000005389,515.7396001000016,None,None,0,,,,,,,,,,,,,,110,2023-04-17_10h31.46.061,Main,2022.1.1,61.1243954802234,
positive,blue,1,k,None,,,,,,,,,0,130,130,130,,,,,,,,,,,,,,,,,main,k,k,1,0.9683176000035019,517.9868748000008,None,None,0,,,,,,,,,,,,,,110,2023-04-17_10h31.46.061,Main,2022.1.1,61.1243954802234,
negative,blue,1,None,k,,,,,,,,,0,131,131,131,,,,,,,,,,,,,,,,,main,None,None,1,1.4990515999961644,519.9561890000041,None,None,1,,,,,,,,,,,,,,110,2023-04-17_10h31.46.061,Main,2022.1.1,61.1243954802234,
negative,blue,2,None,k,,,,,,,,,0,132,132,132,,,,,,,,,,,,,,,,,main,None,k,0,1.2630988000018988,522.456104500001,None,None,1,,,,,,,,,,,,,,110,2023-04-17_10h31.46.061,Main,2022.1.1,61.1243954802234,
positive,blue,2,k,None,,,,,,,,,0,133,133,133,,,,,,,,,,,,,,,,,main,k,k,1,0.8514508000007481,525.7227151000043,None,None,0,,,,,,,,,,,,,,110,2023-04-17_10h31.46.061,Main,2022.1.1,61.1243954802234,
positive,red,2,None,None,,,,,,,,,0,134,134,134,,,,,,,,,,,,,,,,,main,None,None,1,1.4957653999954346,527.5728583000018,None,None,1,,,,,,,,,,,,,,110,2023-04-17_10h31.46.061,Main,2022.1.1,61.1243954802234,
negative,yellow,2,k,None,,,,,,,,,0,135,135,135,,,,,,,,,,,,,,,,,main,k,k,1,1.099911899997096,530.0699599,None,None,0,,,,,,,,,,,,,,110,2023-04-17_10h31.46.061,Main,2022.1.1,61.1243954802234,
positive,yellow,2,None,k,,,,,,,,,0,136,136,136,,,,,,,,,,,,,,,,,main,None,None,1,1.5008812999949441,532.1703247000041,None,None,1,,,,,,,,,,,,,,110,2023-04-17_10h31.46.061,Main,2022.1.1,61.1243954802234,
positive,blue,1,k,None,,,,,,,,,0,137,137,137,,,,,,,,,,,,,,,,,main,k,k,1,2.1159894000011263,534.6725379000054,None,None,0,,,,,,,,,,,,,,110,2023-04-17_10h31.46.061,Main,2022.1.1,61.1243954802234,
positive,yellow,1,None,k,,,,,,,,,0,138,138,138,,,,,,,,,,,,,,,,,main,None,None,1,1.4992521000021952,538.7891701000044,None,None,1,,,,,,,,,,,,,,110,2023-04-17_10h31.46.061,Main,2022.1.1,61.1243954802234,
positive,yellow,1,None,k,,,,,,,,,0,139,139,139,,,,,,,,,,,,,,,,,main,None,None,1,1.5016856000002008,541.2864104000037,None,None,1,,,,,,,,,,,,,,110,2023-04-17_10h31.46.061,Main,2022.1.1,61.1243954802234,
positive,yellow,1,None,k,,,,,,,,,0,140,140,140,,,,,,,,,,,,,,,,,main,None,None,1,1.498876099998597,543.7890307000052,None,None,1,,,,,,,,,,,,,,110,2023-04-17_10h31.46.061,Main,2022.1.1,61.1243954802234,
positive,blue,1,k,None,,,,,,,,,0,141,141,141,,,,,,,,,,,,,,,,,main,k,k,1,-0.1990354000008665,546.2890378000011,None,None,0,,,,,,,,,,,,,,110,2023-04-17_10h31.46.061,Main,2022.1.1,61.1243954802234,
positive,blue,2,k,None,,,,,,,,,0,142,142,142,,,,,,,,,,,,,,,,,main,k,k,1,1.2681943999996292,550.1055003000001,None,None,0,,,,,,,,,,,,,,110,2023-04-17_10h31.46.061,Main,2022.1.1,61.1243954802234,
positive,yellow,2,None,k,,,,,,,,,0,143,143,143,,,,,,,,,,,,,,,,,main,None,None,1,1.49592329999723,552.3699483000019,None,None,1,,,,,,,,,,,,,,110,2023-04-17_10h31.46.061,Main,2022.1.1,61.1243954802234,
negative,yellow,2,k,None,,,,,,,,,0,144,144,144,,,,,,,,,,,,,,,,,main,k,k,1,0.9330093999960809,554.8694568000064,None,None,0,,,,,,,,,,,,,,110,2023-04-17_10h31.46.061,Main,2022.1.1,61.1243954802234,
negative,blue,2,None,k,,,,,,,,,0,145,145,145,,,,,,,,,,,,,,,,,main,None,None,1,1.498356899995997,556.8054837000018,None,None,1,,,,,,,,,,,,,,110,2023-04-17_10h31.46.061,Main,2022.1.1,61.1243954802234,
negative,red,1,None,None,,,,,,,,,0,146,146,146,,,,,,,,,,,,,,,,,main,None,None,1,1.5018011000065599,559.3026952,None,None,1,,,,,,,,,,,,,,110,2023-04-17_10h31.46.061,Main,2022.1.1,61.1243954802234,
positive,blue,1,k,None,,,,,,,,,0,147,147,147,,,,,,,,,,,,,,,,,main,k,k,1,2.132777499995427,561.8053265000053,None,None,0,,,,,,,,,,,,,,110,2023-04-17_10h31.46.061,Main,2022.1.1,61.1243954802234,
positive,yellow,1,None,k,,,,,,,,,0,148,148,148,,,,,,,,,,,,,,,,,main,None,None,1,1.487020599997777,565.9525651000004,None,None,1,,,,,,,,,,,,,,110,2023-04-17_10h31.46.061,Main,2022.1.1,61.1243954802234,
negative,red,2,None,None,,,,,,,,,0,149,149,149,,,,,,,,,,,,,,,,,main,None,None,1,1.4988739999971585,568.4385173000046,None,None,1,,,,,,,,,,,,,,110,2023-04-17_10h31.46.061,Main,2022.1.1,61.1243954802234,
negative,blue,1,None,k,,,,,,,,,0,150,150,150,,,,,,,,,,,,,,,,,main,None,None,1,1.4966010999996797,570.9384065000049,None,None,1,,,,,,,,,,,,,,110,2023-04-17_10h31.46.061,Main,2022.1.1,61.1243954802234,
negative,yellow,2,k,None,,,,,,,,,0,151,151,151,,,,,,,,,,,,,,,,,main,k,None,0,1.4874045999968075,573.435814000004,None,None,0,,,,,,,,,,,,,,110,2023-04-17_10h31.46.061,Main,2022.1.1,61.1243954802234,
negative,blue,2,None,k,,,,,,,,,0,152,152,152,,,,,,,,,,,,,,,,,main,None,None,1,1.498435099994822,576.9216335000019,None,None,1,,,,,,,,,,,,,,110,2023-04-17_10h31.46.061,Main,2022.1.1,61.1243954802234,
negative,yellow,1,k,None,,,,,,,,,0,153,153,153,,,,,,,,,,,,,,,,,main,k,k,1,1.0494905000014114,579.4190116000027,None,None,0,,,,,,,,,,,,,,110,2023-04-17_10h31.46.061,Main,2022.1.1,61.1243954802234,
negative,blue,1,None,k,,,,,,,,,0,154,154,154,,,,,,,,,,,,,,,,,main,None,None,1,1.4983386999956565,581.4717092999999,None,None,1,,,,,,,,,,,,,,110,2023-04-17_10h31.46.061,Main,2022.1.1,61.1243954802234,
positive,yellow,2,None,k,,,,,,,,,0,155,155,155,,,,,,,,,,,,,,,,,main,None,None,1,1.5018409000040265,583.968873100006,None,None,1,,,,,,,,,,,,,,110,2023-04-17_10h31.46.061,Main,2022.1.1,61.1243954802234,
positive,red,2,None,None,,,,,,,,,0,156,156,156,,,,,,,,,,,,,,,,,main,None,None,1,1.4990937000038684,586.4714884000059,None,None,1,,,,,,,,,,,,,,110,2023-04-17_10h31.46.061,Main,2022.1.1,61.1243954802234,
positive,red,1,None,None,,,,,,,,,0,157,157,157,,,,,,,,,,,,,,,,,main,None,k,0,-0.17006769999716198,588.9714166000049,None,None,1,,,,,,,,,,,,,,110,2023-04-17_10h31.46.061,Main,2022.1.1,61.1243954802234,
positive,blue,2,k,None,,,,,,,,,0,158,158,158,,,,,,,,,,,,,,,,,main,k,k,1,1.1013650000022608,592.8046471000052,None,None,0,,,,,,,,,,,,,,110,2023-04-17_10h31.46.061,Main,2022.1.1,61.1243954802234,
negative,yellow,1,k,None,,,,,,,,,0,159,159,159,,,,,,,,,,,,,,,,,main,k,k,1,0.9292881000001216,594.9046477000011,None,None,0,,,,,,,,,,,,,,110,2023-04-17_10h31.46.061,Main,2022.1.1,61.1243954802234,
negative,red,2,None,None,,,,,,,,,0,160,160,160,,,,,,,,,,,,,,,,,main,None,None,1,1.5016293000007863,596.8352648,None,None,1,,,,,,,,,,,,,,110,2023-04-17_10h31.46.061,Main,2022.1.1,61.1243954802234,
negative,blue,1,None,k,,,,,,,,,0,161,161,161,,,,,,,,,,,,,,,,,main,None,None,1,1.496503100002883,599.3378924999997,None,None,1,,,,,,,,,,,,,,110,2023-04-17_10h31.46.061,Main,2022.1.1,61.1243954802234,
negative,blue,1,None,k,,,,,,,,,0,162,162,162,,,,,,,,,,,,,,,,,main,None,None,1,1.5019097000040347,601.8352656999996,None,None,1,,,,,,,,,,,,,,110,2023-04-17_10h31.46.061,Main,2022.1.1,61.1243954802234,
negative,yellow,1,k,None,,,,,,,,,0,163,163,163,,,,,,,,,,,,,,,,,main,k,k,1,1.2145242000042344,604.3377947000045,None,None,0,,,,,,,,,,,,,,110,2023-04-17_10h31.46.061,Main,2022.1.1,61.1243954802234,
negative,yellow,1,k,None,,,,,,,,,0,164,164,164,,,,,,,,,,,,,,,,,main,k,k,1,0.8476673999975901,606.5545562000043,None,None,0,,,,,,,,,,,,,,110,2023-04-17_10h31.46.061,Main,2022.1.1,61.1243954802234,
positive,yellow,1,None,k,,,,,,,,,0,165,165,165,,,,,,,,,,,,,,,,,main,None,None,1,1.500788700002886,608.4017273999998,None,None,1,,,,,,,,,,,,,,110,2023-04-17_10h31.46.061,Main,2022.1.1,61.1243954802234,
negative,red,1,None,None,,,,,,,,,0,166,166,166,,,,,,,,,,,,,,,,,main,None,None,1,1.501772700001311,610.904317600005,None,None,1,,,,,,,,,,,,,,110,2023-04-17_10h31.46.061,Main,2022.1.1,61.1243954802234,
negative,yellow,2,k,None,,,,,,,,,0,167,167,167,,,,,,,,,,,,,,,,,main,k,k,1,1.4592083999959868,613.4066077000025,None,None,0,,,,,,,,,,,,,,110,2023-04-17_10h31.46.061,Main,2022.1.1,61.1243954802234,
positive,blue,2,k,None,,,,,,,,,0,168,168,168,,,,,,,,,,,,,,,,,main,k,k,1,0.9520491000002949,615.8682736000046,None,None,0,,,,,,,,,,,,,,110,2023-04-17_10h31.46.061,Main,2022.1.1,61.1243954802234,
positive,red,2,None,None,,,,,,,,,0,169,169,169,,,,,,,,,,,,,,,,,main,None,None,1,1.496211300000141,617.8185916000002,None,None,1,,,,,,,,,,,,,,110,2023-04-17_10h31.46.061,Main,2022.1.1,61.1243954802234,
positive,red,1,None,None,,,,,,,,,0,170,170,170,,,,,,,,,,,,,,,,,main,None,None,1,1.5018954999977723,620.3181309000065,None,None,1,,,,,,,,,,,,,,110,2023-04-17_10h31.46.061,Main,2022.1.1,61.1243954802234,
negative,blue,2,None,k,,,,,,,,,0,171,171,171,,,,,,,,,,,,,,,,,main,None,None,1,1.4991877999927965,622.8207353000034,None,None,1,,,,,,,,,,,,,,110,2023-04-17_10h31.46.061,Main,2022.1.1,61.1243954802234,
positive,blue,2,k,None,,,,,,,,,0,172,172,172,,,,,,,,,,,,,,,,,main,k,k,1,0.979794300001231,625.3206659000061,None,None,0,,,,,,,,,,,,,,110,2023-04-17_10h31.46.061,Main,2022.1.1,61.1243954802234,
negative,yellow,2,k,None,,,,,,,,,0,173,173,173,,,,,,,,,,,,,,,,,main,k,k,1,0.8852044000013848,627.301297900005,None,None,0,,,,,,,,,,,,,,110,2023-04-17_10h31.46.061,Main,2022.1.1,61.1243954802234,
positive,yellow,2,None,k,,,,,,,,,0,174,174,174,,,,,,,,,,,,,,,,,main,None,None,1,1.4962742999996408,629.1874964000017,None,None,1,,,,,,,,,,,,,,110,2023-04-17_10h31.46.061,Main,2022.1.1,61.1243954802234,
negative,blue,2,None,k,,,,,,,,,0,175,175,175,,,,,,,,,,,,,,,,,main,None,k,0,0.8993578000008711,631.6845563000024,None,None,1,,,,,,,,,,,,,,110,2023-04-17_10h31.46.061,Main,2022.1.1,61.1243954802234,
positive,blue,1,k,None,,,,,,,,,0,176,176,176,,,,,,,,,,,,,,,,,main,k,k,1,1.8179387999989558,634.5871340000012,None,None,0,,,,,,,,,,,,,,110,2023-04-17_10h31.46.061,Main,2022.1.1,61.1243954802234,
positive,yellow,1,None,k,,,,,,,,,0,177,177,177,,,,,,,,,,,,,,,,,main,None,None,1,1.4868725999986054,638.4177458000049,None,None,1,,,,,,,,,,,,,,110,2023-04-17_10h31.46.061,Main,2022.1.1,61.1243954802234,
positive,blue,1,k,None,,,,,,,,,0,178,178,178,,,,,,,,,,,,,,,,,main,k,k,1,1.0481625000029453,640.9036893000011,None,None,0,,,,,,,,,,,,,,110,2023-04-17_10h31.46.061,Main,2022.1.1,61.1243954802234,
positive,yellow,2,None,k,,,,,,,,,0,179,179,179,,,,,,,,,,,,,,,,,main,None,None,1,1.4963013000015053,642.9536150000058,None,None,1,,,,,,,,,,,,,,110,2023-04-17_10h31.46.061,Main,2022.1.1,61.1243954802234,
positive,blue,1,k,None,,,,,,,,,0,180,180,180,,,,,,,,,,,,,,,,,main,k,k,1,0.8687337000010302,645.4509374000045,None,None,0,,,,,,,,,,,,,,110,2023-04-17_10h31.46.061,Main,2022.1.1,61.1243954802234,
negative,red,1,None,None,,,,,,,,,0,181,181,181,,,,,,,,,,,,,,,,,main,None,None,1,1.4961779000004753,647.3202531999996,None,None,1,,,,,,,,,,,,,,110,2023-04-17_10h31.46.061,Main,2022.1.1,61.1243954802234,
negative,blue,1,None,k,,,,,,,,,0,182,182,182,,,,,,,,,,,,,,,,,main,None,None,1,1.5020413000020199,649.817500600002,None,None,1,,,,,,,,,,,,,,110,2023-04-17_10h31.46.061,Main,2022.1.1,61.1243954802234,
negative,yellow,2,k,None,,,,,,,,,0,183,183,183,,,,,,,,,,,,,,,,,main,k,k,1,1.41627989999688,652.3201335000049,None,None,0,,,,,,,,,,,,,,110,2023-04-17_10h31.46.061,Main,2022.1.1,61.1243954802234,
positive,yellow,2,None,k,,,,,,,,,0,184,184,184,,,,,,,,,,,,,,,,,main,None,None,1,1.4957314999992377,654.7368077000065,None,None,1,,,,,,,,,,,,,,110,2023-04-17_10h31.46.061,Main,2022.1.1,61.1243954802234,
positive,yellow,1,None,k,,,,,,,,,0,185,185,185,,,,,,,,,,,,,,,,,main,None,None,1,1.502057400000922,657.2340230000045,None,None,1,,,,,,,,,,,,,,110,2023-04-17_10h31.46.061,Main,2022.1.1,61.1243954802234,
positive,red,2,None,None,,,,,,,,,0,186,186,186,,,,,,,,,,,,,,,,,main,None,None,1,1.496278300000995,659.7366443999999,None,None,1,,,,,,,,,,,,,,110,2023-04-17_10h31.46.061,Main,2022.1.1,61.1243954802234,
positive,blue,1,k,None,,,,,,,,,0,187,187,187,,,,,,,,,,,,,,,,,main,k,k,1,1.0828150999950594,662.2339327000009,None,None,0,,,,,,,,,,,,,,110,2023-04-17_10h31.46.061,Main,2022.1.1,61.1243954802234,
negative,yellow,1,k,None,,,,,,,,,0,188,188,188,,,,,,,,,,,,,,,,,main,k,k,1,-0.10069350000412669,664.3172752000028,None,None,0,,,,,,,,,,,,,,110,2023-04-17_10h31.46.061,Main,2022.1.1,61.1243954802234,
positive,yellow,2,None,k,,,,,,,,,0,189,189,189,,,,,,,,,,,,,,,,,main,None,None,1,1.4871571000039694,668.2338033000051,None,None,1,,,,,,,,,,,,,,110,2023-04-17_10h31.46.061,Main,2022.1.1,61.1243954802234,
negative,yellow,2,k,None,,,,,,,,,0,190,190,190,,,,,,,,,,,,,,,,,main,k,k,1,0.7989054999998189,670.7197625000044,None,None,0,,,,,,,,,,,,,,110,2023-04-17_10h31.46.061,Main,2022.1.1,61.1243954802234,
negative,yellow,1,k,None,,,,,,,,,0,191,191,191,,,,,,,,,,,,,,,,,main,k,k,1,0.9797824999986915,672.5196820000056,None,None,0,,,,,,,,,,,,,,110,2023-04-17_10h31.46.061,Main,2022.1.1,61.1243954802234,
positive,blue,2,k,None,,,,,,,,,0,192,192,192,,,,,,,,,,,,,,,,,main,k,k,1,1.0352419999981066,674.5003545,None,None,0,,,,,,,,,,,,,,110,2023-04-17_10h31.46.061,Main,2022.1.1,61.1243954802234,
positive,yellow,1,None,k,,,,,,,,,0,193,193,193,,,,,,,,,,,,,,,,,main,None,None,1,1.499008300001151,676.5362416000062,None,None,1,,,,,,,,,,,,,,110,2023-04-17_10h31.46.061,Main,2022.1.1,61.1243954802234,
negative,red,2,None,None,,,,,,,,,0,194,194,194,,,,,,,,,,,,,,,,,main,None,None,1,1.496305200002098,679.0362237000008,None,None,1,,,,,,,,,,,,,,110,2023-04-17_10h31.46.061,Main,2022.1.1,61.1243954802234,
positive,red,1,None,None,,,,,,,,,0,195,195,195,,,,,,,,,,,,,,,,,main,None,None,1,1.5019109999993816,681.5335355000061,None,None,1,,,,,,,,,,,,,,110,2023-04-17_10h31.46.061,Main,2022.1.1,61.1243954802234,
negative,blue,1,None,k,,,,,,,,,0,196,196,196,,,,,,,,,,,,,,,,,main,None,None,1,1.4962894999989658,684.0361204000001,None,None,1,,,,,,,,,,,,,,110,2023-04-17_10h31.46.061,Main,2022.1.1,61.1243954802234,
positive,blue,2,k,None,,,,,,,,,0,197,197,197,,,,,,,,,,,,,,,,,main,k,k,1,1.049388799998269,686.533433800003,None,None,0,,,,,,,,,,,,,,110,2023-04-17_10h31.46.061,Main,2022.1.1,61.1243954802234,
negative,blue,2,None,k,,,,,,,,,0,198,198,198,,,,,,,,,,,,,,,,,main,None,None,1,1.5016055000014603,688.5834544000027,None,None,1,,,,,,,,,,,,,,110,2023-04-17_10h31.46.061,Main,2022.1.1,61.1243954802234,
negative,blue,2,None,k,,,,,,,,,0,199,199,199,,,,,,,,,,,,,,,,,main,None,None,1,1.496296600002097,691.0860338000057,None,None,1,,,,,,,,,,,,,,110,2023-04-17_10h31.46.061,Main,2022.1.1,61.1243954802234,
positive,blue,2,k,None,,,,,,,,,0,200,200,200,,,,,,,,,,,,,,,,,main,k,k,1,4.399477699997078,693.5832883000039,None,None,0,,,,,,,,,,,,,,110,2023-04-17_10h31.46.061,Main,2022.1.1,61.1243954802234,
positive,blue,2,k,None,,,,,,,,,0,201,201,201,,,,,,,,,,,,,,,,,main,k,k,1,0.7371736999994027,699.9832142000014,None,None,0,,,,,,,,,,,,,,110,2023-04-17_10h31.46.061,Main,2022.1.1,61.1243954802234,
negative,yellow,2,k,None,,,,,,,,,0,202,202,202,,,,,,,,,,,,,,,,,main,k,k,1,1.04857980000088,701.7190959,None,None,0,,,,,,,,,,,,,,110,2023-04-17_10h31.46.061,Main,2022.1.1,61.1243954802234,
positive,red,1,None,None,,,,,,,,,0,203,203,203,,,,,,,,,,,,,,,,,main,None,None,1,1.4964095000032103,703.769045400004,None,None,1,,,,,,,,,,,,,,110,2023-04-17_10h31.46.061,Main,2022.1.1,61.1243954802234,
negative,blue,2,None,k,,,,,,,,,0,204,204,204,,,,,,,,,,,,,,,,,main,None,None,1,1.5018076000051224,706.2664195000034,None,None,1,,,,,,,,,,,,,,110,2023-04-17_10h31.46.061,Main,2022.1.1,61.1243954802234,
negative,red,1,None,None,,,,,,,,,0,205,205,205,,,,,,,,,,,,,,,,,main,None,k,0,-0.15105059999768855,708.7689714000007,None,None,1,,,,,,,,,,,,,,110,2023-04-17_10h31.46.061,Main,2022.1.1,61.1243954802234,
negative,blue,2,None,k,,,,,,,,,0,206,206,206,,,,,,,,,,,,,,,,,main,None,None,1,1.5020342000061646,712.6188841000039,None,None,1,,,,,,,,,,,,,,110,2023-04-17_10h31.46.061,Main,2022.1.1,61.1243954802234,
negative,yellow,2,k,None,,,,,,,,,0,207,207,207,,,,,,,,,,,,,,,,,main,k,k,1,1.1785768999980064,715.1188414000062,None,None,0,,,,,,,,,,,,,,110,2023-04-17_10h31.46.061,Main,2022.1.1,61.1243954802234,
positive,yellow,2,None,k,,,,,,,,,0,208,208,208,,,,,,,,,,,,,,,,,main,None,None,1,1.5016202999977395,717.299453700005,None,None,1,,,,,,,,,,,,,,110,2023-04-17_10h31.46.061,Main,2022.1.1,61.1243954802234,
negative,yellow,1,k,None,,,,,,,,,0,209,209,209,,,,,,,,,,,,,,,,,main,k,k,1,0.9494474000021,719.8020663999996,None,None,0,,,,,,,,,,,,,,110,2023-04-17_10h31.46.061,Main,2022.1.1,61.1243954802234,
negative,red,2,None,None,,,,,,,,,0,210,210,210,,,,,,,,,,,,,,,,,main,None,None,1,1.4963015999965137,721.7520298000018,None,None,1,,,,,,,,,,,,,,110,2023-04-17_10h31.46.061,Main,2022.1.1,61.1243954802234,
negative,blue,1,None,k,,,,,,,,,0,211,211,211,,,,,,,,,,,,,,,,,main,None,None,1,1.5018683000016608,724.2493825000056,None,None,1,,,,,,,,,,,,,,110,2023-04-17_10h31.46.061,Main,2022.1.1,61.1243954802234,
negative,yellow,1,k,None,,,,,,,,,0,212,212,212,,,,,,,,,,,,,,,,,main,k,k,1,1.1464877000034903,726.7519918000035,None,None,0,,,,,,,,,,,,,,110,2023-04-17_10h31.46.061,Main,2022.1.1,61.1243954802234,
positive,blue,1,k,None,,,,,,,,,0,213,213,213,,,,,,,,,,,,,,,,,main,k,k,1,0.935186499998963,728.8992254000041,None,None,0,,,,,,,,,,,,,,110,2023-04-17_10h31.46.061,Main,2022.1.1,61.1243954802234,
positive,blue,1,k,None,,,,,,,,,0,214,214,214,,,,,,,,,,,,,,,,,main,k,k,1,0.8490490999975009,730.8351677000028,None,None,0,,,,,,,,,,,,,,110,2023-04-17_10h31.46.061,Main,2022.1.1,61.1243954802234,
positive,yellow,1,None,k,,,,,,,,,0,215,215,215,,,,,,,,,,,,,,,,,main,None,None,1,1.4962308000031044,732.6829317000011,None,None,1,,,,,,,,,,,,,,110,2023-04-17_10h31.46.061,Main,2022.1.1,61.1243954802234,
positive,yellow,1,None,k,,,,,,,,,0,216,216,216,,,,,,,,,,,,,,,,,main,None,None,1,1.5020705999995698,735.1824244000018,None,None,1,,,,,,,,,,,,,,110,2023-04-17_10h31.46.061,Main,2022.1.1,61.1243954802234,
positive,yellow,2,None,k,,,,,,,,,0,217,217,217,,,,,,,,,,,,,,,,,main,None,None,1,1.5024703000017325,737.685061300006,None,None,1,,,,,,,,,,,,,,110,2023-04-17_10h31.46.061,Main,2022.1.1,61.1243954802234,
negative,blue,1,None,k,,,,,,,,,0,218,218,218,,,,,,,,,,,,,,,,,main,None,None,1,1.495369699994626,740.1866852000021,None,None,1,,,,,,,,,,,,,,110,2023-04-17_10h31.46.061,Main,2022.1.1,61.1243954802234,
positive,red,2,None,None,,,,,,,,,0,219,219,219,,,,,,,,,,,,,,,,,main,None,None,1,1.4966924999971525,742.6848395000052,None,None,1,,,,,,,,,,,,,,110,2023-04-17_10h31.46.061,Main,2022.1.1,61.1243954802234,
positive,yellow,1,None,k,,,,,,,,,0,220,220,220,,,,,,,,,,,,,,,,,main,None,None,1,1.5017688000007183,745.1822960000063,None,None,1,,,,,,,,,,,,,,110,2023-04-17_10h31.46.061,Main,2022.1.1,61.1243954802234,
positive,blue,1,k,None,,,,,,,,,0,221,221,221,,,,,,,,,,,,,,,,,main,k,k,1,0.8466759000002639,747.6847841000053,None,None,0,,,,,,,,,,,,,,110,2023-04-17_10h31.46.061,Main,2022.1.1,61.1243954802234,
positive,yellow,2,None,k,,,,,,,,,0,222,222,222,,,,,,,,,,,,,,,,,main,None,None,1,1.5014951000048313,749.5321391000034,None,None,1,,,,,,,,,,,,,,110,2023-04-17_10h31.46.061,Main,2022.1.1,61.1243954802234,
negative,yellow,1,k,None,,,,,,,,,0,223,223,223,,,,,,,,,,,,,,,,,main,k,k,1,0.9994936000002781,752.0347636000006,None,None,0,,,,,,,,,,,,,,110,2023-04-17_10h31.46.061,Main,2022.1.1,61.1243954802234,
positive,yellow,2,None,k,,,,,,,,,0,224,224,224,,,,,,,,,,,,,,,,,main,None,None,1,1.4987048000039067,754.0348419000002,None,None,1,,,,,,,,,,,,,,110,2023-04-17_10h31.46.061,Main,2022.1.1,61.1243954802234,
negative,yellow,2,k,None,,,,,,,,,0,225,225,225,,,,,,,,,,,,,,,,,main,k,k,1,-0.7363297999982024,756.5345230000021,None,None,0,,,,,,,,,,,,,,110,2023-04-17_10h31.46.061,Main,2022.1.1,61.1243954802234,
negative,blue,2,None,k,,,,,,,,,0,226,226,226,,,,,,,,,,,,,,,,,main,None,None,1,1.4868612999998732,759.8152643000067,None,None,1,,,,,,,,,,,,,,110,2023-04-17_10h31.46.061,Main,2022.1.1,61.1243954802234,
positive,red,2,None,None,,,,,,,,,0,227,227,227,,,,,,,,,,,,,,,,,main,None,None,1,1.4962611000009929,762.3012439000013,None,None,1,,,,,,,,,,,,,,110,2023-04-17_10h31.46.061,Main,2022.1.1,61.1243954802234,
positive,blue,2,k,None,,,,,,,,,0,228,228,228,,,,,,,,,,,,,,,,,main,k,k,1,1.2013172000006307,764.7985008000032,None,None,0,,,,,,,,,,,,,,110,2023-04-17_10h31.46.061,Main,2022.1.1,61.1243954802234,
negative,blue,1,None,k,,,,,,,,,0,229,229,229,,,,,,,,,,,,,,,,,main,None,None,1,1.4989889999997104,767.0011814000027,None,None,1,,,,,,,,,,,,,,110,2023-04-17_10h31.46.061,Main,2022.1.1,61.1243954802234,
positive,yellow,1,None,k,,,,,,,,,0,230,230,230,,,,,,,,,,,,,,,,,main,None,None,1,1.4963054999971064,769.5011099000039,None,None,1,,,,,,,,,,,,,,110,2023-04-17_10h31.46.061,Main,2022.1.1,61.1243954802234,
negative,blue,2,None,k,,,,,,,,,0,231,231,231,,,,,,,,,,,,,,,,,main,None,None,1,1.5020605999961845,771.9983477999995,None,None,1,,,,,,,,,,,,,,110,2023-04-17_10h31.46.061,Main,2022.1.1,61.1243954802234,
negative,red,1,None,None,,,,,,,,,0,232,232,232,,,,,,,,,,,,,,,,,main,None,None,1,1.4961519999997108,774.5009563000058,None,None,1,,,,,,,,,,,,,,110,2023-04-17_10h31.46.061,Main,2022.1.1,61.1243954802234,
positive,blue,2,k,None,,,,,,,,,0,233,233,233,,,,,,,,,,,,,,,,,main,k,k,1,1.785438200000499,776.9982457000006,None,None,0,,,,,,,,,,,,,,110,2023-04-17_10h31.46.061,Main,2022.1.1,61.1243954802234,
negative,yellow,1,k,None,,,,,,,,,0,234,234,234,,,,,,,,,,,,,,,,,main,k,k,1,0.9152946999965934,780.7841828000019,None,None,0,,,,,,,,,,,,,,110,2023-04-17_10h31.46.061,Main,2022.1.1,61.1243954802234,
negative,yellow,2,k,None,,,,,,,,,0,235,235,235,,,,,,,,,,,,,,,,,main,k,k,1,0.8656128000002354,782.6981264999995,None,None,0,,,,,,,,,,,,,,110,2023-04-17_10h31.46.061,Main,2022.1.1,61.1243954802234,
positive,red,1,None,None,,,,,,,,,0,236,236,236,,,,,,,,,,,,,,,,,main,None,None,1,1.5016324000025634,784.564815400001,None,None,1,,,,,,,,,,,,,,110,2023-04-17_10h31.46.061,Main,2022.1.1,61.1243954802234,
negative,red,2,None,None,,,,,,,,,0,237,237,237,,,,,,,,,,,,,,,,,main,None,None,1,1.496449999998731,787.0673412000033,None,None,1,,,,,,,,,,,,,,110,2023-04-17_10h31.46.061,Main,2022.1.1,61.1243954802234,
negative,blue,1,None,k,,,,,,,,,0,238,238,238,,,,,,,,,,,,,,,,,main,None,None,1,1.5018509000001359,789.5646454000016,None,None,1,,,,,,,,,,,,,,110,2023-04-17_10h31.46.061,Main,2022.1.1,61.1243954802234,
positive,blue,1,k,None,,,,,,,,,0,239,239,239,,,,,,,,,,,,,,,,,main,k,k,1,0.7829229999988456,792.0672152000043,None,None,0,,,,,,,,,,,,,,110,2023-04-17_10h31.46.061,Main,2022.1.1,61.1243954802234,
,,,,,,,,,,,,,,,,,,,,,,,,,,,,,,,,,,,,,,,,,,,,,,,,,,,,,793.8505615000031,None,,,,,,
