distractor,target,set,ans1,ans2,rep_loop4.thisRepN,rep_loop4.thisTrialN,rep_loop4.thisN,rep_loop4.thisIndex,st2_prac_loop.thisRepN,st2_prac_loop.thisTrialN,st2_prac_loop.thisN,st2_prac_loop.thisIndex,st2_main_loop.thisRepN,st2_main_loop.thisTrialN,st2_main_loop.thisN,st2_main_loop.thisIndex,image_4.started,image_4.stopped,sound_2.started,sound_2.stopped,key_resp_3.keys,key_resp_3.rt,image_5.started,image_5.stopped,st_prac_back.started,st_prac_back.stopped,st_prac_text.started,st_prac_text.stopped,st_fix_back.started,st_fix_back.stopped,st_fix_2.started,st_fix_2.stopped,main_prac,st_ans,st_res,st_corr,st_rt,st_back.started,st_back.stopped,st2_resp.keys,st2_resp.corr,st_main_back.started,st_main_back.stopped,st_main_text.started,st_main_text.stopped,mouse_4.x,mouse_4.y,mouse_4.leftButton,mouse_4.midButton,mouse_4.rightButton,mouse_4.started,mouse_4.stopped,text_2.started,text_2.stopped,id*,date,expName,psychopyVersion,frameRate,
negative,yellow,1,k,None,,,,,0,0,0,0,,,,,29.656003099982627,None,48.76184556999942,None,space,0.7742108999518678,49.55630109994672,None,50.3061673999764,None,50.3061673999764,None,52.30878690001555,None,52.30878690001555,None,prac,None,None,1,1.5033426999580115,54.3111122000264,None,None,1,,,,,,,,,,,,,,111,2023-04-24_17h27.41.276,Main,2022.1.1,60.107893679001776,
positive,red,2,None,None,,,,,0,1,1,1,,,,,,,,,,,,,,,,,,,,,prac,None,k,0,0.7853026000084355,56.82271779992152,None,None,1,,,,,,,,,,,,,,111,2023-04-24_17h27.41.276,Main,2022.1.1,60.107893679001776,
negative,blue,2,None,k,,,,,0,2,2,2,,,,,,,,,,,,,,,,,,,,,prac,k,k,1,0.8657637999858707,59.60859800002072,None,None,0,,,,,,,,,,,,,,111,2023-04-24_17h27.41.276,Main,2022.1.1,60.107893679001776,
positive,yellow,1,None,k,,,,,0,3,3,3,,,,,,,,,,,,,,,,,,,,,prac,k,k,1,0.7674915000097826,61.47514009999577,None,None,0,,,,,,,,,,,,,,111,2023-04-24_17h27.41.276,Main,2022.1.1,60.107893679001776,
negative,blue,2,None,k,,,,,0,4,4,4,,,,,,,,,,,,,,,,,,,,,prac,k,k,1,1.1466392000438645,63.24185879994184,None,None,0,,,,,,,,,,,,,,111,2023-04-24_17h27.41.276,Main,2022.1.1,60.107893679001776,
negative,blue,1,None,k,,,,,0,5,5,5,,,,,,,,,,,,,,,,,,,,,prac,k,k,1,0.8851897999411449,65.38921589998063,None,None,0,,,,,,,,,,,,,,111,2023-04-24_17h27.41.276,Main,2022.1.1,60.107893679001776,
negative,yellow,2,k,None,,,,,0,6,6,6,,,,,,,,,,,,,,,,,,,,,prac,None,None,1,1.499049499980174,67.27525940001942,None,None,1,,,,,,,,,,,,,,111,2023-04-24_17h27.41.276,Main,2022.1.1,60.107893679001776,
negative,red,1,None,None,,,,,0,7,7,7,,,,,,,,,,,,,,,,,,,,,prac,None,None,1,1.4963868000777438,69.7751318999799,None,None,1,,,,,,,,,,,,,,111,2023-04-24_17h27.41.276,Main,2022.1.1,60.107893679001776,
positive,yellow,2,None,k,,,,,0,8,8,8,,,,,,,,,,,,,,,,,,,,,prac,k,k,1,1.0852694000350311,72.27245409996249,None,None,0,,,,,,,,,,,,,,111,2023-04-24_17h27.41.276,Main,2022.1.1,60.107893679001776,
negative,yellow,1,k,None,,,,,0,9,9,9,,,,,,,,,,,,,,,,,,,,,prac,None,None,1,1.4951982999918982,74.35841200000141,None,None,1,,,,,,,,,,,,,,111,2023-04-24_17h27.41.276,Main,2022.1.1,60.107893679001776,
positive,yellow,2,None,k,,,,,0,10,10,10,,,,,,,,,,,,,,,,,,,,,prac,k,k,1,0.8655536000151187,76.8556487999158,None,None,0,,,,,,,,,,,,,,111,2023-04-24_17h27.41.276,Main,2022.1.1,60.107893679001776,
negative,yellow,2,k,None,,,,,0,11,11,11,,,,,,,,,,,,,,,,,,,,,prac,None,None,1,1.500393099966459,78.72234829992522,None,None,1,,,,,,,,,,,,,,111,2023-04-24_17h27.41.276,Main,2022.1.1,60.107893679001776,
negative,red,2,None,None,,,,,0,12,12,12,,,,,,,,,,,,,,,,,,,,,prac,None,k,0,0.6960443999851122,81.22489810001571,None,None,1,,,,,,,,,,,,,,111,2023-04-24_17h27.41.276,Main,2022.1.1,60.107893679001776,
positive,red,1,None,None,,,,,0,13,13,13,,,,,,,,,,,,,,,,,,,,,prac,None,None,1,1.4869802999310195,83.92215519992169,None,None,1,,,,,,,,,,,,,,111,2023-04-24_17h27.41.276,Main,2022.1.1,60.107893679001776,
positive,blue,2,k,None,,,,,0,14,14,14,,,,,,,,,,,,,,,,,,,,,prac,None,None,1,1.498806899995543,86.40810609993059,None,None,1,,,,,,,,,,,,,,111,2023-04-24_17h27.41.276,Main,2022.1.1,60.107893679001776,
positive,blue,1,k,None,,,,,0,15,15,15,,,,,,,,,,,,,,,,,,,,,prac,None,None,1,1.4967153000179678,88.90793139999732,None,None,1,,,,,,,,,,,,,,111,2023-04-24_17h27.41.276,Main,2022.1.1,60.107893679001776,
negative,blue,1,None,k,,,,,0,16,16,16,,,,,,,,,,,,,,,,,,,,,prac,k,k,1,0.6326795000350103,91.40535649994854,None,None,0,,,,,,,,,,,,,,111,2023-04-24_17h27.41.276,Main,2022.1.1,60.107893679001776,
positive,blue,2,k,None,,,,,0,17,17,17,,,,,,,,,,,,,,,,,,,,,prac,None,None,1,1.5016384000191465,93.03869029995985,None,None,1,,,,,,,,,,,,,,111,2023-04-24_17h27.41.276,Main,2022.1.1,60.107893679001776,
positive,blue,1,k,None,,,,,0,18,18,18,,,,,,,,,,,,,,,,,,,,,prac,None,None,1,1.50192850001622,95.54125150002073,None,None,1,,,,,,,,,,,,,,111,2023-04-24_17h27.41.276,Main,2022.1.1,60.107893679001776,
positive,yellow,1,None,k,,,,,0,19,19,19,,,,,,,,,,,,,,,,,,,,,prac,k,k,1,0.9604778999928385,98.04195460001938,None,None,0,,,,,,,,,,,,,,111,2023-04-24_17h27.41.276,Main,2022.1.1,60.107893679001776,
negative,yellow,1,k,None,,,,,1,0,20,0,,,,,,,,,,,,,,,,,,,,,prac,None,None,1,1.5015074000693858,100.0052017000271,None,None,1,,,,,,,,,,,,,,111,2023-04-24_17h27.41.276,Main,2022.1.1,60.107893679001776,
positive,red,2,None,None,,,,,1,1,21,1,,,,,,,,,,,,,,,,,,,,,prac,None,None,1,1.499121000058949,102.50777219992597,None,None,1,,,,,,,,,,,,,,111,2023-04-24_17h27.41.276,Main,2022.1.1,60.107893679001776,
negative,blue,2,None,k,,,,,1,2,22,2,,,,,,,,,,,,,,,,,,,,,prac,k,k,1,0.7967595000518486,105.0077159999637,None,None,0,,,,,,,,,,,,,,111,2023-04-24_17h27.41.276,Main,2022.1.1,60.107893679001776,
positive,yellow,1,None,k,,,,,1,3,23,3,,,,,,,,,,,,,,,,,,,,,prac,k,k,1,0.8662386999931186,106.80502049997449,None,None,0,,,,,,,,,,,,,,111,2023-04-24_17h27.41.276,Main,2022.1.1,60.107893679001776,
negative,blue,2,None,k,,,,,1,4,24,4,,,,,,,,,,,,,,,,,,,,,prac,k,k,1,0.8347301000030711,108.67422159994021,None,None,0,,,,,,,,,,,,,,111,2023-04-24_17h27.41.276,Main,2022.1.1,60.107893679001776,
negative,blue,1,None,k,,,,,1,5,25,5,,,,,,,,,,,,,,,,,,,,,prac,k,k,1,0.9296730000060052,110.50757689995226,None,None,0,,,,,,,,,,,,,,111,2023-04-24_17h27.41.276,Main,2022.1.1,60.107893679001776,
negative,yellow,2,k,None,,,,,1,6,26,6,,,,,,,,,,,,,,,,,,,,,prac,None,None,1,1.5018725999398157,112.43823680002242,None,None,1,,,,,,,,,,,,,,111,2023-04-24_17h27.41.276,Main,2022.1.1,60.107893679001776,
negative,red,1,None,None,,,,,1,7,27,7,,,,,,,,,,,,,,,,,,,,,prac,None,None,1,1.4990074000088498,114.9408835999202,None,None,1,,,,,,,,,,,,,,111,2023-04-24_17h27.41.276,Main,2022.1.1,60.107893679001776,
positive,yellow,2,None,k,,,,,1,8,28,8,,,,,,,,,,,,,,,,,,,,,prac,k,k,1,0.7963898999150842,117.44079010002315,None,None,0,,,,,,,,,,,,,,111,2023-04-24_17h27.41.276,Main,2022.1.1,60.107893679001776,
negative,yellow,1,k,None,,,,,1,9,29,9,,,,,,,,,,,,,,,,,,,,,prac,None,None,1,1.501671600039117,119.23808699997608,None,None,1,,,,,,,,,,,,,,111,2023-04-24_17h27.41.276,Main,2022.1.1,60.107893679001776,
positive,yellow,2,None,k,,,,,1,10,30,10,,,,,,,,,,,,,,,,,,,,,prac,k,k,1,0.8831127999583259,121.74069969996344,None,None,0,,,,,,,,,,,,,,111,2023-04-24_17h27.41.276,Main,2022.1.1,60.107893679001776,
negative,yellow,2,k,None,,,,,1,11,31,11,,,,,,,,,,,,,,,,,,,,,prac,None,None,1,1.4958698999835178,123.62397559999954,None,None,1,,,,,,,,,,,,,,111,2023-04-24_17h27.41.276,Main,2022.1.1,60.107893679001776,
negative,red,2,None,None,,,,,1,12,32,12,,,,,,,,,,,,,,,,,,,,,prac,None,None,1,1.5018130999524146,126.12135279993527,None,None,1,,,,,,,,,,,,,,111,2023-04-24_17h27.41.276,Main,2022.1.1,60.107893679001776,
positive,red,1,None,None,,,,,1,13,33,13,,,,,,,,,,,,,,,,,,,,,prac,None,None,1,1.4963366999290884,128.62385989993345,None,None,1,,,,,,,,,,,,,,111,2023-04-24_17h27.41.276,Main,2022.1.1,60.107893679001776,
positive,blue,2,k,None,,,,,1,14,34,14,,,,,,,,,,,,,,,,,,,,,prac,None,None,1,1.5019507999531925,131.12117840000428,None,None,1,,,,,,,,,,,,,,111,2023-04-24_17h27.41.276,Main,2022.1.1,60.107893679001776,
positive,blue,1,k,None,,,,,1,15,35,15,,,,,,,,,,,,,,,,,,,,,prac,None,None,1,1.4963881000876427,133.62385380000342,None,None,1,,,,,,,,,,,,,,111,2023-04-24_17h27.41.276,Main,2022.1.1,60.107893679001776,
negative,blue,1,None,k,,,,,1,16,36,16,,,,,,,,,,,,,,,,,,,,,prac,k,k,1,0.6660067000193521,136.12106349994428,None,None,0,,,,,,,,,,,,,,111,2023-04-24_17h27.41.276,Main,2022.1.1,60.107893679001776,
positive,blue,2,k,None,,,,,1,17,37,17,,,,,,,,,,,,,,,,,,,,,prac,None,None,1,1.5020816000178456,137.78770540002733,None,None,1,,,,,,,,,,,,,,111,2023-04-24_17h27.41.276,Main,2022.1.1,60.107893679001776,
positive,blue,1,k,None,,,,,1,18,38,18,,,,,,,,,,,,,,,,,,,,,prac,None,None,1,1.495787600055337,140.29026879998855,None,None,1,,,,,,,,,,,,,,111,2023-04-24_17h27.41.276,Main,2022.1.1,60.107893679001776,
positive,yellow,1,None,k,,,,,1,19,39,19,,,,,,,,,,,,,,,,,,,,,prac,k,k,1,0.8327645000535995,142.78760809998494,None,None,0,,,,,,,,,,,,,,111,2023-04-24_17h27.41.276,Main,2022.1.1,60.107893679001776,
,,,,,,,,,,,,,,,,,,,,,,,,,,,,,,,,,,,,,,,,,,144.62097269995138,None,144.62097269995138,None,-0.012037037,0.074074075,0,0,0,0.014272970031015575,None,,,111,2023-04-24_17h27.41.276,Main,2022.1.1,60.107893679001776,
negative,yellow,2,k,None,,,,,,,,,0,0,0,0,,,,,,,,,,,,,155.40399499994237,None,155.40399499994237,None,main,None,None,1,1.500915399985388,157.4304566999199,None,None,1,,,,,,,,,,,,,,111,2023-04-24_17h27.41.276,Main,2022.1.1,60.107893679001776,
positive,red,1,None,None,,,,,,,,,0,1,1,1,,,,,,,,,,,,,,,,,main,None,None,1,1.4959868000587448,159.9399410999613,None,None,1,,,,,,,,,,,,,,111,2023-04-24_17h27.41.276,Main,2022.1.1,60.107893679001776,
positive,blue,2,k,None,,,,,,,,,0,2,2,2,,,,,,,,,,,,,,,,,main,None,None,1,1.5019593000179157,162.43720069993287,None,None,1,,,,,,,,,,,,,,111,2023-04-24_17h27.41.276,Main,2022.1.1,60.107893679001776,
positive,blue,1,k,None,,,,,,,,,0,3,3,3,,,,,,,,,,,,,,,,,main,None,None,1,1.4987467000028118,164.93973939993884,None,None,1,,,,,,,,,,,,,,111,2023-04-24_17h27.41.276,Main,2022.1.1,60.107893679001776,
negative,yellow,2,k,None,,,,,,,,,0,4,4,4,,,,,,,,,,,,,,,,,main,None,None,1,1.496623900020495,167.43966799997725,None,None,1,,,,,,,,,,,,,,111,2023-04-24_17h27.41.276,Main,2022.1.1,60.107893679001776,
positive,yellow,2,None,k,,,,,,,,,0,5,5,5,,,,,,,,,,,,,,,,,main,k,k,1,0.7829290999798104,169.93704069999512,None,None,0,,,,,,,,,,,,,,111,2023-04-24_17h27.41.276,Main,2022.1.1,60.107893679001776,
negative,blue,2,None,k,,,,,,,,,0,6,6,6,,,,,,,,,,,,,,,,,main,k,k,1,0.7016927000368014,171.72038720001,None,None,0,,,,,,,,,,,,,,111,2023-04-24_17h27.41.276,Main,2022.1.1,60.107893679001776,
positive,red,2,None,None,,,,,,,,,0,7,7,7,,,,,,,,,,,,,,,,,main,None,None,1,1.4988246000139043,173.42297089996282,None,None,1,,,,,,,,,,,,,,111,2023-04-24_17h27.41.276,Main,2022.1.1,60.107893679001776,
positive,yellow,1,None,k,,,,,,,,,0,8,8,8,,,,,,,,,,,,,,,,,main,k,k,1,0.8302532000234351,175.92298219993245,None,None,0,,,,,,,,,,,,,,111,2023-04-24_17h27.41.276,Main,2022.1.1,60.107893679001776,
negative,red,1,None,None,,,,,,,,,0,9,9,9,,,,,,,,,,,,,,,,,main,None,None,1,1.4991343000438064,177.75355919997673,None,None,1,,,,,,,,,,,,,,111,2023-04-24_17h27.41.276,Main,2022.1.1,60.107893679001776,
positive,yellow,1,None,k,,,,,,,,,0,10,10,10,,,,,,,,,,,,,,,,,main,k,k,1,0.9683548000175506,180.2535495000193,None,None,0,,,,,,,,,,,,,,111,2023-04-24_17h27.41.276,Main,2022.1.1,60.107893679001776,
negative,yellow,1,k,None,,,,,,,,,0,11,11,11,,,,,,,,,,,,,,,,,main,None,None,1,1.4963142999913543,182.220573999919,None,None,1,,,,,,,,,,,,,,111,2023-04-24_17h27.41.276,Main,2022.1.1,60.107893679001776,
negative,yellow,1,k,None,,,,,,,,,0,12,12,12,,,,,,,,,,,,,,,,,main,None,None,1,1.501741399988532,184.7200567999389,None,None,1,,,,,,,,,,,,,,111,2023-04-24_17h27.41.276,Main,2022.1.1,60.107893679001776,
negative,red,2,None,None,,,,,,,,,0,13,13,13,,,,,,,,,,,,,,,,,main,None,None,1,1.4990961999865249,187.22266460000537,None,None,1,,,,,,,,,,,,,,111,2023-04-24_17h27.41.276,Main,2022.1.1,60.107893679001776,
positive,yellow,2,None,k,,,,,,,,,0,14,14,14,,,,,,,,,,,,,,,,,main,k,k,1,0.813261799979955,189.72269780002534,None,None,0,,,,,,,,,,,,,,111,2023-04-24_17h27.41.276,Main,2022.1.1,60.107893679001776,
positive,blue,1,k,None,,,,,,,,,0,15,15,15,,,,,,,,,,,,,,,,,main,None,None,1,1.5016328999772668,191.53658670000732,None,None,1,,,,,,,,,,,,,,111,2023-04-24_17h27.41.276,Main,2022.1.1,60.107893679001776,
negative,blue,1,None,k,,,,,,,,,0,16,16,16,,,,,,,,,,,,,,,,,main,k,k,1,0.6159712000517175,194.03923470003065,None,None,0,,,,,,,,,,,,,,111,2023-04-24_17h27.41.276,Main,2022.1.1,60.107893679001776,
positive,blue,2,k,None,,,,,,,,,0,17,17,17,,,,,,,,,,,,,,,,,main,None,None,1,1.496067399973981,195.65583699999843,None,None,1,,,,,,,,,,,,,,111,2023-04-24_17h27.41.276,Main,2022.1.1,60.107893679001776,
negative,blue,2,None,k,,,,,,,,,0,18,18,18,,,,,,,,,,,,,,,,,main,k,k,1,0.6856379000237212,198.15312729997095,None,None,0,,,,,,,,,,,,,,111,2023-04-24_17h27.41.276,Main,2022.1.1,60.107893679001776,
negative,blue,1,None,k,,,,,,,,,0,19,19,19,,,,,,,,,,,,,,,,,main,k,k,1,1.0132700999965891,199.83906429994386,None,None,0,,,,,,,,,,,,,,111,2023-04-24_17h27.41.276,Main,2022.1.1,60.107893679001776,
negative,blue,1,None,k,,,,,,,,,0,20,20,20,,,,,,,,,,,,,,,,,main,k,k,1,0.6987226000055671,201.85575829993468,None,None,0,,,,,,,,,,,,,,111,2023-04-24_17h27.41.276,Main,2022.1.1,60.107893679001776,
negative,blue,2,None,k,,,,,,,,,0,21,21,21,,,,,,,,,,,,,,,,,main,k,k,1,0.6495742000406608,203.55303179996554,None,None,0,,,,,,,,,,,,,,111,2023-04-24_17h27.41.276,Main,2022.1.1,60.107893679001776,
negative,red,1,None,None,,,,,,,,,0,22,22,22,,,,,,,,,,,,,,,,,main,None,None,1,1.5011471000034362,205.20339529996272,None,None,1,,,,,,,,,,,,,,111,2023-04-24_17h27.41.276,Main,2022.1.1,60.107893679001776,
positive,red,2,None,None,,,,,,,,,0,23,23,23,,,,,,,,,,,,,,,,,main,None,None,1,1.4966983000049368,207.70560500002466,None,None,1,,,,,,,,,,,,,,111,2023-04-24_17h27.41.276,Main,2022.1.1,60.107893679001776,
negative,red,2,None,None,,,,,,,,,0,24,24,24,,,,,,,,,,,,,,,,,main,None,None,1,1.5017730999970809,210.2030642000027,None,None,1,,,,,,,,,,,,,,111,2023-04-24_17h27.41.276,Main,2022.1.1,60.107893679001776,
positive,blue,2,k,None,,,,,,,,,0,25,25,25,,,,,,,,,,,,,,,,,main,None,None,1,1.496232100063935,212.70549850002863,None,None,1,,,,,,,,,,,,,,111,2023-04-24_17h27.41.276,Main,2022.1.1,60.107893679001776,
negative,yellow,1,k,None,,,,,,,,,0,26,26,26,,,,,,,,,,,,,,,,,main,None,None,1,1.5018370000179857,215.20276919996832,None,None,1,,,,,,,,,,,,,,111,2023-04-24_17h27.41.276,Main,2022.1.1,60.107893679001776,
positive,blue,2,k,None,,,,,,,,,0,27,27,27,,,,,,,,,,,,,,,,,main,None,None,1,1.4990963999880478,217.70539259992074,None,None,1,,,,,,,,,,,,,,111,2023-04-24_17h27.41.276,Main,2022.1.1,60.107893679001776,
negative,blue,2,None,k,,,,,,,,,0,28,28,28,,,,,,,,,,,,,,,,,main,k,k,1,0.5632364000193775,220.20530999999028,None,None,0,,,,,,,,,,,,,,111,2023-04-24_17h27.41.276,Main,2022.1.1,60.107893679001776,
positive,red,1,None,None,,,,,,,,,0,29,29,29,,,,,,,,,,,,,,,,,main,None,None,1,1.5017173000378534,221.76931549992878,None,None,1,,,,,,,,,,,,,,111,2023-04-24_17h27.41.276,Main,2022.1.1,60.107893679001776,
positive,blue,1,k,None,,,,,,,,,0,30,30,30,,,,,,,,,,,,,,,,,main,None,None,1,1.4964128999272361,224.27191959996708,None,None,1,,,,,,,,,,,,,,111,2023-04-24_17h27.41.276,Main,2022.1.1,60.107893679001776,
positive,yellow,1,None,k,,,,,,,,,0,31,31,31,,,,,,,,,,,,,,,,,main,k,k,1,0.7325069999787956,226.7692253999412,None,None,0,,,,,,,,,,,,,,111,2023-04-24_17h27.41.276,Main,2022.1.1,60.107893679001776,
negative,yellow,2,k,None,,,,,,,,,0,32,32,32,,,,,,,,,,,,,,,,,main,None,None,1,1.501693999976851,228.50257359992247,None,None,1,,,,,,,,,,,,,,111,2023-04-24_17h27.41.276,Main,2022.1.1,60.107893679001776,
negative,blue,1,None,k,,,,,,,,,0,33,33,33,,,,,,,,,,,,,,,,,main,k,k,1,0.6511372999520972,231.0051209999947,None,None,0,,,,,,,,,,,,,,111,2023-04-24_17h27.41.276,Main,2022.1.1,60.107893679001776,
positive,blue,1,k,None,,,,,,,,,0,34,34,34,,,,,,,,,,,,,,,,,main,None,None,1,1.4968925999710336,232.65973620000295,None,None,1,,,,,,,,,,,,,,111,2023-04-24_17h27.41.276,Main,2022.1.1,60.107893679001776,
negative,yellow,1,k,None,,,,,,,,,0,35,35,35,,,,,,,,,,,,,,,,,main,None,None,1,1.4966436000540853,235.1549086999148,None,None,1,,,,,,,,,,,,,,111,2023-04-24_17h27.41.276,Main,2022.1.1,60.107893679001776,
positive,yellow,2,None,k,,,,,,,,,0,36,36,36,,,,,,,,,,,,,,,,,main,k,k,1,0.8020458000246435,237.65238240000326,None,None,0,,,,,,,,,,,,,,111,2023-04-24_17h27.41.276,Main,2022.1.1,60.107893679001776,
positive,yellow,2,None,k,,,,,,,,,0,37,37,37,,,,,,,,,,,,,,,,,main,k,k,1,0.7484132000245154,239.45495529996697,None,None,0,,,,,,,,,,,,,,111,2023-04-24_17h27.41.276,Main,2022.1.1,60.107893679001776,
negative,yellow,2,k,None,,,,,,,,,0,38,38,38,,,,,,,,,,,,,,,,,main,None,None,1,1.4986936999484897,241.2049083999591,None,None,1,,,,,,,,,,,,,,111,2023-04-24_17h27.41.276,Main,2022.1.1,60.107893679001776,
positive,yellow,1,None,k,,,,,,,,,0,39,39,39,,,,,,,,,,,,,,,,,main,k,k,1,0.8157632000511512,243.70225349999964,None,None,0,,,,,,,,,,,,,,111,2023-04-24_17h27.41.276,Main,2022.1.1,60.107893679001776,
negative,yellow,2,k,None,,,,,,,,,0,40,40,40,,,,,,,,,,,,,,,,,main,None,None,1,1.4964399000164121,245.52142399991862,None,None,1,,,,,,,,,,,,,,111,2023-04-24_17h27.41.276,Main,2022.1.1,60.107893679001776,
positive,blue,2,k,None,,,,,,,,,0,41,41,41,,,,,,,,,,,,,,,,,main,None,None,1,1.501669800025411,248.01876579993404,None,None,1,,,,,,,,,,,,,,111,2023-04-24_17h27.41.276,Main,2022.1.1,60.107893679001776,
positive,blue,2,k,None,,,,,,,,,0,42,42,42,,,,,,,,,,,,,,,,,main,None,k,0,0.7162089999765158,250.52134959993418,None,None,1,,,,,,,,,,,,,,111,2023-04-24_17h27.41.276,Main,2022.1.1,60.107893679001776,
negative,blue,2,None,k,,,,,,,,,0,43,43,43,,,,,,,,,,,,,,,,,main,k,k,1,0.765419700066559,253.23799059994053,None,None,0,,,,,,,,,,,,,,111,2023-04-24_17h27.41.276,Main,2022.1.1,60.107893679001776,
negative,red,1,None,None,,,,,,,,,0,44,44,44,,,,,,,,,,,,,,,,,main,None,None,1,1.5012806999729946,255.00197440001648,None,None,1,,,,,,,,,,,,,,111,2023-04-24_17h27.41.276,Main,2022.1.1,60.107893679001776,
negative,yellow,1,k,None,,,,,,,,,0,45,45,45,,,,,,,,,,,,,,,,,main,None,None,1,1.498772699967958,257.5045237999875,None,None,1,,,,,,,,,,,,,,111,2023-04-24_17h27.41.276,Main,2022.1.1,60.107893679001776,
negative,yellow,1,k,None,,,,,,,,,0,46,46,46,,,,,,,,,,,,,,,,,main,None,None,1,1.4992273999378085,260.00436349993106,None,None,1,,,,,,,,,,,,,,111,2023-04-24_17h27.41.276,Main,2022.1.1,60.107893679001776,
positive,red,1,None,None,,,,,,,,,0,47,47,47,,,,,,,,,,,,,,,,,main,None,None,1,1.4966040999861434,262.50442919996567,None,None,1,,,,,,,,,,,,,,111,2023-04-24_17h27.41.276,Main,2022.1.1,60.107893679001776,
positive,yellow,1,None,k,,,,,,,,,0,48,48,48,,,,,,,,,,,,,,,,,main,k,k,1,0.8856914000352845,265.0017443000106,None,None,0,,,,,,,,,,,,,,111,2023-04-24_17h27.41.276,Main,2022.1.1,60.107893679001776,
negative,blue,1,None,k,,,,,,,,,0,49,49,49,,,,,,,,,,,,,,,,,main,k,k,1,0.7320866999216378,266.8877977000084,None,None,0,,,,,,,,,,,,,,111,2023-04-24_17h27.41.276,Main,2022.1.1,60.107893679001776,
positive,yellow,2,None,k,,,,,,,,,0,50,50,50,,,,,,,,,,,,,,,,,main,k,k,1,0.9129465000005439,268.6209999999264,None,None,0,,,,,,,,,,,,,,111,2023-04-24_17h27.41.276,Main,2022.1.1,60.107893679001776,
negative,blue,1,None,k,,,,,,,,,0,51,51,51,,,,,,,,,,,,,,,,,main,k,k,1,0.785137900034897,270.53497969999444,None,None,0,,,,,,,,,,,,,,111,2023-04-24_17h27.41.276,Main,2022.1.1,60.107893679001776,
positive,red,2,None,None,,,,,,,,,0,52,52,52,,,,,,,,,,,,,,,,,main,None,None,1,1.4992409999249503,272.3209507999709,None,None,1,,,,,,,,,,,,,,111,2023-04-24_17h27.41.276,Main,2022.1.1,60.107893679001776,
positive,yellow,2,None,k,,,,,,,,,0,53,53,53,,,,,,,,,,,,,,,,,main,k,k,1,0.8130606000777334,274.8208665000275,None,None,0,,,,,,,,,,,,,,111,2023-04-24_17h27.41.276,Main,2022.1.1,60.107893679001776,
negative,red,2,None,None,,,,,,,,,0,54,54,54,,,,,,,,,,,,,,,,,main,None,None,1,1.5015554999699816,276.63481880002655,None,None,1,,,,,,,,,,,,,,111,2023-04-24_17h27.41.276,Main,2022.1.1,60.107893679001776,
positive,yellow,1,None,k,,,,,,,,,0,55,55,55,,,,,,,,,,,,,,,,,main,k,k,1,0.8160286000929773,279.13744099996984,None,None,0,,,,,,,,,,,,,,111,2023-04-24_17h27.41.276,Main,2022.1.1,60.107893679001776,
negative,blue,2,None,k,,,,,,,,,0,56,56,56,,,,,,,,,,,,,,,,,main,k,k,1,0.715845700004138,280.954036799958,None,None,0,,,,,,,,,,,,,,111,2023-04-24_17h27.41.276,Main,2022.1.1,60.107893679001776,
positive,blue,1,k,None,,,,,,,,,0,57,57,57,,,,,,,,,,,,,,,,,main,None,None,1,1.4972805000143126,282.67056979995687,None,None,1,,,,,,,,,,,,,,111,2023-04-24_17h27.41.276,Main,2022.1.1,60.107893679001776,
positive,blue,1,k,None,,,,,,,,,0,58,58,58,,,,,,,,,,,,,,,,,main,None,None,1,1.5001857000170276,285.16799939994235,None,None,1,,,,,,,,,,,,,,111,2023-04-24_17h27.41.276,Main,2022.1.1,60.107893679001776,
negative,yellow,2,k,None,,,,,,,,,0,59,59,59,,,,,,,,,,,,,,,,,main,None,None,1,1.4966097000287846,287.6705675999401,None,None,1,,,,,,,,,,,,,,111,2023-04-24_17h27.41.276,Main,2022.1.1,60.107893679001776,
positive,red,2,None,None,,,,,,,,,0,60,60,60,,,,,,,,,,,,,,,,,main,None,None,1,1.5017375000752509,290.1678952999646,None,None,1,,,,,,,,,,,,,,111,2023-04-24_17h27.41.276,Main,2022.1.1,60.107893679001776,
negative,yellow,1,k,None,,,,,,,,,0,61,61,61,,,,,,,,,,,,,,,,,main,None,None,1,1.4991502000484616,292.6704325999599,None,None,1,,,,,,,,,,,,,,111,2023-04-24_17h27.41.276,Main,2022.1.1,60.107893679001776,
negative,red,1,None,None,,,,,,,,,0,62,62,62,,,,,,,,,,,,,,,,,main,None,None,1,1.4965128999901935,295.1704617999494,None,None,1,,,,,,,,,,,,,,111,2023-04-24_17h27.41.276,Main,2022.1.1,60.107893679001776,
negative,blue,1,None,k,,,,,,,,,0,63,63,63,,,,,,,,,,,,,,,,,main,k,k,1,1.0688443999970332,297.66772589995526,None,None,0,,,,,,,,,,,,,,111,2023-04-24_17h27.41.276,Main,2022.1.1,60.107893679001776,
positive,blue,2,k,None,,,,,,,,,0,64,64,64,,,,,,,,,,,,,,,,,main,None,None,1,1.496288999915123,299.7371149000246,None,None,1,,,,,,,,,,,,,,111,2023-04-24_17h27.41.276,Main,2022.1.1,60.107893679001776,
negative,yellow,2,k,None,,,,,,,,,0,65,65,65,,,,,,,,,,,,,,,,,main,None,None,1,1.5018059000140056,302.2342983999988,None,None,1,,,,,,,,,,,,,,111,2023-04-24_17h27.41.276,Main,2022.1.1,60.107893679001776,
positive,yellow,2,None,k,,,,,,,,,0,66,66,66,,,,,,,,,,,,,,,,,main,k,k,1,0.6159863999346271,304.7368793999776,None,None,0,,,,,,,,,,,,,,111,2023-04-24_17h27.41.276,Main,2022.1.1,60.107893679001776,
positive,yellow,2,None,k,,,,,,,,,0,67,67,67,,,,,,,,,,,,,,,,,main,k,k,1,0.8629505999851972,306.3535465999739,None,None,0,,,,,,,,,,,,,,111,2023-04-24_17h27.41.276,Main,2022.1.1,60.107893679001776,
positive,red,1,None,None,,,,,,,,,0,68,68,68,,,,,,,,,,,,,,,,,main,None,None,1,1.501453600008972,308.2175101999892,None,None,1,,,,,,,,,,,,,,111,2023-04-24_17h27.41.276,Main,2022.1.1,60.107893679001776,
positive,yellow,1,None,k,,,,,,,,,0,69,69,69,,,,,,,,,,,,,,,,,main,k,k,1,0.7160723999841139,310.7201152999187,None,None,0,,,,,,,,,,,,,,111,2023-04-24_17h27.41.276,Main,2022.1.1,60.107893679001776,
negative,yellow,2,k,None,,,,,,,,,0,70,70,70,,,,,,,,,,,,,,,,,main,None,None,1,1.4989693000679836,312.43676740000956,None,None,1,,,,,,,,,,,,,,111,2023-04-24_17h27.41.276,Main,2022.1.1,60.107893679001776,
positive,yellow,1,None,k,,,,,,,,,0,71,71,71,,,,,,,,,,,,,,,,,main,k,k,1,0.9299544000532478,314.93661009997595,None,None,0,,,,,,,,,,,,,,111,2023-04-24_17h27.41.276,Main,2022.1.1,60.107893679001776,
negative,blue,1,None,k,,,,,,,,,0,72,72,72,,,,,,,,,,,,,,,,,main,k,k,1,0.6992758999112993,316.8673270000145,None,None,0,,,,,,,,,,,,,,111,2023-04-24_17h27.41.276,Main,2022.1.1,60.107893679001776,
negative,red,2,None,None,,,,,,,,,0,73,73,73,,,,,,,,,,,,,,,,,main,None,None,1,1.5015326999127865,318.56735929998104,None,None,1,,,,,,,,,,,,,,111,2023-04-24_17h27.41.276,Main,2022.1.1,60.107893679001776,
positive,blue,2,k,None,,,,,,,,,0,74,74,74,,,,,,,,,,,,,,,,,main,None,None,1,1.4988488000817597,321.06997840001713,None,None,1,,,,,,,,,,,,,,111,2023-04-24_17h27.41.276,Main,2022.1.1,60.107893679001776,
negative,blue,2,None,k,,,,,,,,,0,75,75,75,,,,,,,,,,,,,,,,,main,k,k,1,0.5661319000646472,323.5698433999205,None,None,0,,,,,,,,,,,,,,111,2023-04-24_17h27.41.276,Main,2022.1.1,60.107893679001776,
negative,blue,2,None,k,,,,,,,,,0,76,76,76,,,,,,,,,,,,,,,,,main,k,k,1,0.6632636999711394,325.13636799994856,None,None,0,,,,,,,,,,,,,,111,2023-04-24_17h27.41.276,Main,2022.1.1,60.107893679001776,
negative,yellow,1,k,None,,,,,,,,,0,77,77,77,,,,,,,,,,,,,,,,,main,None,None,1,1.5014689000090584,326.80044709995855,None,None,1,,,,,,,,,,,,,,111,2023-04-24_17h27.41.276,Main,2022.1.1,60.107893679001776,
positive,blue,1,k,None,,,,,,,,,0,78,78,78,,,,,,,,,,,,,,,,,main,None,None,1,1.496284699998796,329.3030431999359,None,None,1,,,,,,,,,,,,,,111,2023-04-24_17h27.41.276,Main,2022.1.1,60.107893679001776,
positive,blue,1,k,None,,,,,,,,,0,79,79,79,,,,,,,,,,,,,,,,,main,None,None,1,1.4993336000479758,331.8003662999254,None,None,1,,,,,,,,,,,,,,111,2023-04-24_17h27.41.276,Main,2022.1.1,60.107893679001776,
positive,red,2,None,None,,,,,,,,,0,80,80,80,,,,,,,,,,,,,,,,,main,None,None,1,1.501611499930732,334.30050949996803,None,None,1,,,,,,,,,,,,,,111,2023-04-24_17h27.41.276,Main,2022.1.1,60.107893679001776,
positive,yellow,2,None,k,,,,,,,,,0,81,81,81,,,,,,,,,,,,,,,,,main,k,k,1,0.8327416999964043,336.80283930001315,None,None,0,,,,,,,,,,,,,,111,2023-04-24_17h27.41.276,Main,2022.1.1,60.107893679001776,
positive,blue,1,k,None,,,,,,,,,0,82,82,82,,,,,,,,,,,,,,,,,main,None,None,1,1.4962919000536203,338.6360951999668,None,None,1,,,,,,,,,,,,,,111,2023-04-24_17h27.41.276,Main,2022.1.1,60.107893679001776,
negative,yellow,2,k,None,,,,,,,,,0,83,83,83,,,,,,,,,,,,,,,,,main,None,None,1,1.501810200046748,341.1334942999529,None,None,1,,,,,,,,,,,,,,111,2023-04-24_17h27.41.276,Main,2022.1.1,60.107893679001776,
positive,blue,2,k,None,,,,,,,,,0,84,84,84,,,,,,,,,,,,,,,,,main,None,None,1,1.4993068999610841,343.6360275999177,None,None,1,,,,,,,,,,,,,,111,2023-04-24_17h27.41.276,Main,2022.1.1,60.107893679001776,
positive,yellow,1,None,k,,,,,,,,,0,85,85,85,,,,,,,,,,,,,,,,,main,k,k,1,0.9631876999046654,346.1360227999976,None,None,0,,,,,,,,,,,,,,111,2023-04-24_17h27.41.276,Main,2022.1.1,60.107893679001776,
positive,blue,2,k,None,,,,,,,,,0,86,86,86,,,,,,,,,,,,,,,,,main,None,None,1,1.5016549999127164,348.1000221000286,None,None,1,,,,,,,,,,,,,,111,2023-04-24_17h27.41.276,Main,2022.1.1,60.107893679001776,
positive,blue,1,k,None,,,,,,,,,0,87,87,87,,,,,,,,,,,,,,,,,main,None,None,1,1.4989902999950573,350.60266999993473,None,None,1,,,,,,,,,,,,,,111,2023-04-24_17h27.41.276,Main,2022.1.1,60.107893679001776,
negative,yellow,2,k,None,,,,,,,,,0,88,88,88,,,,,,,,,,,,,,,,,main,None,None,1,1.4966440999414772,353.1025932999328,None,None,1,,,,,,,,,,,,,,111,2023-04-24_17h27.41.276,Main,2022.1.1,60.107893679001776,
negative,blue,2,None,k,,,,,,,,,0,89,89,89,,,,,,,,,,,,,,,,,main,k,k,1,0.7354890999849886,355.5999203999527,None,None,0,,,,,,,,,,,,,,111,2023-04-24_17h27.41.276,Main,2022.1.1,60.107893679001776,
positive,yellow,2,None,k,,,,,,,,,0,90,90,90,,,,,,,,,,,,,,,,,main,k,k,1,0.8990617999807,357.3358085999498,None,None,0,,,,,,,,,,,,,,111,2023-04-24_17h27.41.276,Main,2022.1.1,60.107893679001776,
negative,yellow,1,k,None,,,,,,,,,0,91,91,91,,,,,,,,,,,,,,,,,main,None,None,1,1.4960135000292212,359.235867899959,None,None,1,,,,,,,,,,,,,,111,2023-04-24_17h27.41.276,Main,2022.1.1,60.107893679001776,
negative,red,2,None,None,,,,,,,,,0,92,92,92,,,,,,,,,,,,,,,,,main,None,None,1,1.5019369999645278,361.7331359999953,None,None,1,,,,,,,,,,,,,,111,2023-04-24_17h27.41.276,Main,2022.1.1,60.107893679001776,
negative,blue,2,None,k,,,,,,,,,0,93,93,93,,,,,,,,,,,,,,,,,main,k,k,1,0.7488980999914929,364.23570939991623,None,None,0,,,,,,,,,,,,,,111,2023-04-24_17h27.41.276,Main,2022.1.1,60.107893679001776,
negative,blue,1,None,k,,,,,,,,,0,94,94,94,,,,,,,,,,,,,,,,,main,k,k,1,0.8489555999403819,365.98551059991587,None,None,0,,,,,,,,,,,,,,111,2023-04-24_17h27.41.276,Main,2022.1.1,60.107893679001776,
negative,blue,1,None,k,,,,,,,,,0,95,95,95,,,,,,,,,,,,,,,,,main,k,k,1,0.6633397999685258,367.8354784999974,None,None,0,,,,,,,,,,,,,,111,2023-04-24_17h27.41.276,Main,2022.1.1,60.107893679001776,
negative,red,1,None,None,,,,,,,,,0,96,96,96,,,,,,,,,,,,,,,,,main,None,None,1,1.5015022999141365,369.49956859997474,None,None,1,,,,,,,,,,,,,,111,2023-04-24_17h27.41.276,Main,2022.1.1,60.107893679001776,
positive,yellow,1,None,k,,,,,,,,,0,97,97,97,,,,,,,,,,,,,,,,,main,k,k,1,0.7990808999165893,372.0021642999491,None,None,0,,,,,,,,,,,,,,111,2023-04-24_17h27.41.276,Main,2022.1.1,60.107893679001776,
negative,yellow,1,k,None,,,,,,,,,0,98,98,98,,,,,,,,,,,,,,,,,main,None,None,1,1.497883600066416,373.80221210001037,None,None,1,,,,,,,,,,,,,,111,2023-04-24_17h27.41.276,Main,2022.1.1,60.107893679001776,
positive,red,1,None,None,,,,,,,,,0,99,99,99,,,,,,,,,,,,,,,,,main,None,None,1,1.4956746000098065,376.30196559999604,None,None,1,,,,,,,,,,,,,,111,2023-04-24_17h27.41.276,Main,2022.1.1,60.107893679001776,
positive,blue,1,k,None,,,,,,,,,0,100,100,100,,,,,,,,,,,,,,,,,main,None,None,1,1.5006722999969497,378.7993983000051,None,None,1,,,,,,,,,,,,,,111,2023-04-24_17h27.41.276,Main,2022.1.1,60.107893679001776,
negative,yellow,1,k,None,,,,,,,,,0,101,101,101,,,,,,,,,,,,,,,,,main,None,None,1,1.4983765999786556,381.3020178999286,None,None,1,,,,,,,,,,,,,,111,2023-04-24_17h27.41.276,Main,2022.1.1,60.107893679001776,
negative,blue,2,None,k,,,,,,,,,0,102,102,102,,,,,,,,,,,,,,,,,main,k,k,1,0.762387300026603,383.8019570999313,None,None,0,,,,,,,,,,,,,,111,2023-04-24_17h27.41.276,Main,2022.1.1,60.107893679001776,
negative,yellow,2,k,None,,,,,,,,,0,103,103,103,,,,,,,,,,,,,,,,,main,None,None,1,1.5016855000285432,385.5659011999378,None,None,1,,,,,,,,,,,,,,111,2023-04-24_17h27.41.276,Main,2022.1.1,60.107893679001776,
positive,yellow,2,None,k,,,,,,,,,0,104,104,104,,,,,,,,,,,,,,,,,main,k,k,1,0.7828385999891907,388.068460999988,None,None,0,,,,,,,,,,,,,,111,2023-04-24_17h27.41.276,Main,2022.1.1,60.107893679001776,
positive,blue,1,k,None,,,,,,,,,0,105,105,105,,,,,,,,,,,,,,,,,main,None,None,1,1.4965567000908777,389.8519120999845,None,None,1,,,,,,,,,,,,,,111,2023-04-24_17h27.41.276,Main,2022.1.1,60.107893679001776,
positive,blue,2,k,None,,,,,,,,,0,106,106,106,,,,,,,,,,,,,,,,,main,None,None,1,1.5016156999627128,392.34917199995834,None,None,1,,,,,,,,,,,,,,111,2023-04-24_17h27.41.276,Main,2022.1.1,60.107893679001776,
negative,blue,1,None,k,,,,,,,,,0,107,107,107,,,,,,,,,,,,,,,,,main,k,k,1,0.6964554999722168,394.8517314000055,None,None,0,,,,,,,,,,,,,,111,2023-04-24_17h27.41.276,Main,2022.1.1,60.107893679001776,
positive,yellow,2,None,k,,,,,,,,,0,108,108,108,,,,,,,,,,,,,,,,,main,k,k,1,1.0325132000725716,396.5490178000182,None,None,0,,,,,,,,,,,,,,111,2023-04-24_17h27.41.276,Main,2022.1.1,60.107893679001776,
negative,yellow,1,k,None,,,,,,,,,0,109,109,109,,,,,,,,,,,,,,,,,main,None,None,1,1.5015274999896064,398.58236869995017,None,None,1,,,,,,,,,,,,,,111,2023-04-24_17h27.41.276,Main,2022.1.1,60.107893679001776,
negative,blue,2,None,k,,,,,,,,,0,110,110,110,,,,,,,,,,,,,,,,,main,k,k,1,0.8467736999737099,401.08483619999606,None,None,0,,,,,,,,,,,,,,111,2023-04-24_17h27.41.276,Main,2022.1.1,60.107893679001776,
positive,blue,2,k,None,,,,,,,,,0,111,111,111,,,,,,,,,,,,,,,,,main,None,None,1,1.5016420999309048,402.93222339998465,None,None,1,,,,,,,,,,,,,,111,2023-04-24_17h27.41.276,Main,2022.1.1,60.107893679001776,
negative,blue,1,None,k,,,,,,,,,0,112,112,112,,,,,,,,,,,,,,,,,main,k,k,1,0.8994009000016376,405.43481559993234,None,None,0,,,,,,,,,,,,,,111,2023-04-24_17h27.41.276,Main,2022.1.1,60.107893679001776,
positive,yellow,1,None,k,,,,,,,,,0,113,113,113,,,,,,,,,,,,,,,,,main,k,k,1,0.7801265000598505,407.33255970000755,None,None,0,,,,,,,,,,,,,,111,2023-04-24_17h27.41.276,Main,2022.1.1,60.107893679001776,
negative,red,1,None,None,,,,,,,,,0,114,114,114,,,,,,,,,,,,,,,,,main,None,None,1,1.498752500046976,409.1158113999991,None,None,1,,,,,,,,,,,,,,111,2023-04-24_17h27.41.276,Main,2022.1.1,60.107893679001776,
positive,red,1,None,None,,,,,,,,,0,115,115,115,,,,,,,,,,,,,,,,,main,None,None,1,1.502357400022447,411.61536569998134,None,None,1,,,,,,,,,,,,,,111,2023-04-24_17h27.41.276,Main,2022.1.1,60.107893679001776,
negative,red,2,None,None,,,,,,,,,0,116,116,116,,,,,,,,,,,,,,,,,main,None,None,1,1.4985672999173403,414.11803240003064,None,None,1,,,,,,,,,,,,,,111,2023-04-24_17h27.41.276,Main,2022.1.1,60.107893679001776,
negative,yellow,2,k,None,,,,,,,,,0,117,117,117,,,,,,,,,,,,,,,,,main,None,None,1,1.4965030000312254,416.61793219996616,None,None,1,,,,,,,,,,,,,,111,2023-04-24_17h27.41.276,Main,2022.1.1,60.107893679001776,
positive,yellow,1,None,k,,,,,,,,,0,118,118,118,,,,,,,,,,,,,,,,,main,k,k,1,0.7350657999049872,419.1152208999265,None,None,0,,,,,,,,,,,,,,111,2023-04-24_17h27.41.276,Main,2022.1.1,60.107893679001776,
positive,red,2,None,None,,,,,,,,,0,119,119,119,,,,,,,,,,,,,,,,,main,None,None,1,1.49643180007115,420.8511411999352,None,None,1,,,,,,,,,,,,,,111,2023-04-24_17h27.41.276,Main,2022.1.1,60.107893679001776,
positive,blue,2,k,None,,,,,,,,,0,120,120,120,,,,,,,,,,,,,,,,,main,None,None,1,1.4989257999695837,423.3540283999173,None,None,1,,,,,,,,,,,,,,111,2023-04-24_17h27.41.276,Main,2022.1.1,60.107893679001776,
negative,red,1,None,None,,,,,,,,,0,121,121,121,,,,,,,,,,,,,,,,,main,None,None,1,1.5018412000499666,425.8484622000251,None,None,1,,,,,,,,,,,,,,111,2023-04-24_17h27.41.276,Main,2022.1.1,60.107893679001776,
positive,yellow,2,None,k,,,,,,,,,0,122,122,122,,,,,,,,,,,,,,,,,main,k,k,1,0.7464834999991581,428.3510077999672,None,None,0,,,,,,,,,,,,,,111,2023-04-24_17h27.41.276,Main,2022.1.1,60.107893679001776,
negative,red,2,None,None,,,,,,,,,0,123,123,123,,,,,,,,,,,,,,,,,main,None,None,1,1.5018848000327125,430.09832829993684,None,None,1,,,,,,,,,,,,,,111,2023-04-24_17h27.41.276,Main,2022.1.1,60.107893679001776,
negative,yellow,2,k,None,,,,,,,,,0,124,124,124,,,,,,,,,,,,,,,,,main,None,None,1,1.4987741999793798,432.600918799988,None,None,1,,,,,,,,,,,,,,111,2023-04-24_17h27.41.276,Main,2022.1.1,60.107893679001776,
positive,red,1,None,None,,,,,,,,,0,125,125,125,,,,,,,,,,,,,,,,,main,None,None,1,1.496656599920243,435.10082079994027,None,None,1,,,,,,,,,,,,,,111,2023-04-24_17h27.41.276,Main,2022.1.1,60.107893679001776,
negative,blue,2,None,k,,,,,,,,,0,126,126,126,,,,,,,,,,,,,,,,,main,k,k,1,0.7685190999181941,437.59822509996593,None,None,0,,,,,,,,,,,,,,111,2023-04-24_17h27.41.276,Main,2022.1.1,60.107893679001776,
negative,blue,1,None,k,,,,,,,,,0,127,127,127,,,,,,,,,,,,,,,,,main,k,k,1,0.833597999997437,439.367472599959,None,None,0,,,,,,,,,,,,,,111,2023-04-24_17h27.41.276,Main,2022.1.1,60.107893679001776,
negative,yellow,1,k,None,,,,,,,,,0,128,128,128,,,,,,,,,,,,,,,,,main,None,None,1,1.4963093999540433,441.2008307999931,None,None,1,,,,,,,,,,,,,,111,2023-04-24_17h27.41.276,Main,2022.1.1,60.107893679001776,
negative,yellow,1,k,None,,,,,,,,,0,129,129,129,,,,,,,,,,,,,,,,,main,None,None,1,1.5018870999338105,443.69810219993815,None,None,1,,,,,,,,,,,,,,111,2023-04-24_17h27.41.276,Main,2022.1.1,60.107893679001776,
positive,blue,1,k,None,,,,,,,,,0,130,130,130,,,,,,,,,,,,,,,,,main,None,None,1,1.4959951000055298,446.20079989999067,None,None,1,,,,,,,,,,,,,,111,2023-04-24_17h27.41.276,Main,2022.1.1,60.107893679001776,
negative,blue,1,None,k,,,,,,,,,0,131,131,131,,,,,,,,,,,,,,,,,main,k,k,1,0.8846157999942079,448.697957700002,None,None,0,,,,,,,,,,,,,,111,2023-04-24_17h27.41.276,Main,2022.1.1,60.107893679001776,
negative,blue,2,None,k,,,,,,,,,0,132,132,132,,,,,,,,,,,,,,,,,main,k,k,1,1.0324309000279754,450.5838813999435,None,None,0,,,,,,,,,,,,,,111,2023-04-24_17h27.41.276,Main,2022.1.1,60.107893679001776,
positive,blue,2,k,None,,,,,,,,,0,133,133,133,,,,,,,,,,,,,,,,,main,None,None,1,1.496320000034757,452.61715579999145,None,None,1,,,,,,,,,,,,,,111,2023-04-24_17h27.41.276,Main,2022.1.1,60.107893679001776,
positive,red,2,None,None,,,,,,,,,0,134,134,134,,,,,,,,,,,,,,,,,main,None,None,1,1.5017612000228837,455.11445619992446,None,None,1,,,,,,,,,,,,,,111,2023-04-24_17h27.41.276,Main,2022.1.1,60.107893679001776,
negative,yellow,2,k,None,,,,,,,,,0,135,135,135,,,,,,,,,,,,,,,,,main,None,None,1,1.4989294999977574,457.6170728999423,None,None,1,,,,,,,,,,,,,,111,2023-04-24_17h27.41.276,Main,2022.1.1,60.107893679001776,
positive,yellow,2,None,k,,,,,,,,,0,136,136,136,,,,,,,,,,,,,,,,,main,k,k,1,0.6686267999466509,460.117009999929,None,None,0,,,,,,,,,,,,,,111,2023-04-24_17h27.41.276,Main,2022.1.1,60.107893679001776,
positive,blue,1,k,None,,,,,,,,,0,137,137,137,,,,,,,,,,,,,,,,,main,None,None,1,1.4925847999984398,461.790840899921,None,None,1,,,,,,,,,,,,,,111,2023-04-24_17h27.41.276,Main,2022.1.1,60.107893679001776,
positive,yellow,1,None,k,,,,,,,,,0,138,138,138,,,,,,,,,,,,,,,,,main,k,k,1,0.8854885000037029,464.28099889995065,None,None,0,,,,,,,,,,,,,,111,2023-04-24_17h27.41.276,Main,2022.1.1,60.107893679001776,
positive,yellow,1,None,k,,,,,,,,,0,139,139,139,,,,,,,,,,,,,,,,,main,k,k,1,0.7803647000109777,466.16690159996506,None,None,0,,,,,,,,,,,,,,111,2023-04-24_17h27.41.276,Main,2022.1.1,60.107893679001776,
positive,yellow,1,None,k,,,,,,,,,0,140,140,140,,,,,,,,,,,,,,,,,main,k,k,1,0.6139831999316812,467.95357739995234,None,None,0,,,,,,,,,,,,,,111,2023-04-24_17h27.41.276,Main,2022.1.1,60.107893679001776,
positive,blue,1,k,None,,,,,,,,,0,141,141,141,,,,,,,,,,,,,,,,,main,None,None,1,1.5016987000126392,469.5641523000086,None,None,1,,,,,,,,,,,,,,111,2023-04-24_17h27.41.276,Main,2022.1.1,60.107893679001776,
positive,blue,2,k,None,,,,,,,,,0,142,142,142,,,,,,,,,,,,,,,,,main,None,None,1,1.499054600019008,472.0668117000023,None,None,1,,,,,,,,,,,,,,111,2023-04-24_17h27.41.276,Main,2022.1.1,60.107893679001776,
positive,yellow,2,None,k,,,,,,,,,0,143,143,143,,,,,,,,,,,,,,,,,main,k,k,1,0.7633912999881431,474.5642699999735,None,None,0,,,,,,,,,,,,,,111,2023-04-24_17h27.41.276,Main,2022.1.1,60.107893679001776,
negative,yellow,2,k,None,,,,,,,,,0,144,144,144,,,,,,,,,,,,,,,,,main,None,None,1,1.501616399968043,476.33069169998635,None,None,1,,,,,,,,,,,,,,111,2023-04-24_17h27.41.276,Main,2022.1.1,60.107893679001776,
negative,blue,2,None,k,,,,,,,,,0,145,145,145,,,,,,,,,,,,,,,,,main,k,k,1,0.8843142000259832,478.8333562000189,None,None,0,,,,,,,,,,,,,,111,2023-04-24_17h27.41.276,Main,2022.1.1,60.107893679001776,
negative,red,1,None,None,,,,,,,,,0,146,146,146,,,,,,,,,,,,,,,,,main,None,None,1,1.4945688999723643,480.72064479999244,None,None,1,,,,,,,,,,,,,,111,2023-04-24_17h27.41.276,Main,2022.1.1,60.107893679001776,
positive,blue,1,k,None,,,,,,,,,0,147,147,147,,,,,,,,,,,,,,,,,main,None,None,1,1.5017905000131577,483.2164514999604,None,None,1,,,,,,,,,,,,,,111,2023-04-24_17h27.41.276,Main,2022.1.1,60.107893679001776,
positive,yellow,1,None,k,,,,,,,,,0,148,148,148,,,,,,,,,,,,,,,,,main,k,k,1,0.7967387000098825,485.71644719992764,None,None,0,,,,,,,,,,,,,,111,2023-04-24_17h27.41.276,Main,2022.1.1,60.107893679001776,
negative,red,2,None,None,,,,,,,,,0,149,149,149,,,,,,,,,,,,,,,,,main,None,None,1,1.5015621000202373,487.51376669993624,None,None,1,,,,,,,,,,,,,,111,2023-04-24_17h27.41.276,Main,2022.1.1,60.107893679001776,
negative,blue,1,None,k,,,,,,,,,0,150,150,150,,,,,,,,,,,,,,,,,main,k,k,1,0.8659280000720173,490.0164275999414,None,None,0,,,,,,,,,,,,,,111,2023-04-24_17h27.41.276,Main,2022.1.1,60.107893679001776,
negative,yellow,2,k,None,,,,,,,,,0,151,151,151,,,,,,,,,,,,,,,,,main,None,None,1,1.496202800073661,491.88307829992846,None,None,1,,,,,,,,,,,,,,111,2023-04-24_17h27.41.276,Main,2022.1.1,60.107893679001776,
negative,blue,2,None,k,,,,,,,,,0,152,152,152,,,,,,,,,,,,,,,,,main,k,k,1,0.6686263000592589,494.38031879998744,None,None,0,,,,,,,,,,,,,,111,2023-04-24_17h27.41.276,Main,2022.1.1,60.107893679001776,
negative,yellow,1,k,None,,,,,,,,,0,153,153,153,,,,,,,,,,,,,,,,,main,None,None,1,1.497601900016889,496.0495670000091,None,None,1,,,,,,,,,,,,,,111,2023-04-24_17h27.41.276,Main,2022.1.1,60.107893679001776,
negative,blue,1,None,k,,,,,,,,,0,154,154,154,,,,,,,,,,,,,,,,,main,k,k,1,0.6624289000174031,498.5495666000061,None,None,0,,,,,,,,,,,,,,111,2023-04-24_17h27.41.276,Main,2022.1.1,60.107893679001776,
positive,yellow,2,None,k,,,,,,,,,0,155,155,155,,,,,,,,,,,,,,,,,main,k,k,1,0.751705399947241,500.2135167999659,None,None,0,,,,,,,,,,,,,,111,2023-04-24_17h27.41.276,Main,2022.1.1,60.107893679001776,
positive,red,2,None,None,,,,,,,,,0,156,156,156,,,,,,,,,,,,,,,,,main,None,None,1,1.4992250999202952,501.9661364000058,None,None,1,,,,,,,,,,,,,,111,2023-04-24_17h27.41.276,Main,2022.1.1,60.107893679001776,
positive,red,1,None,None,,,,,,,,,0,157,157,157,,,,,,,,,,,,,,,,,main,None,None,1,1.4963452001102269,504.46608939999714,None,None,1,,,,,,,,,,,,,,111,2023-04-24_17h27.41.276,Main,2022.1.1,60.107893679001776,
positive,blue,2,k,None,,,,,,,,,0,158,158,158,,,,,,,,,,,,,,,,,main,None,None,1,1.5019158999202773,506.96345089992974,None,None,1,,,,,,,,,,,,,,111,2023-04-24_17h27.41.276,Main,2022.1.1,60.107893679001776,
negative,yellow,1,k,None,,,,,,,,,0,159,159,159,,,,,,,,,,,,,,,,,main,None,None,1,1.4962834001053125,509.4660247999709,None,None,1,,,,,,,,,,,,,,111,2023-04-24_17h27.41.276,Main,2022.1.1,60.107893679001776,
negative,red,2,None,None,,,,,,,,,0,160,160,160,,,,,,,,,,,,,,,,,main,None,None,1,1.5018614999717101,511.96328319993336,None,None,1,,,,,,,,,,,,,,111,2023-04-24_17h27.41.276,Main,2022.1.1,60.107893679001776,
negative,blue,1,None,k,,,,,,,,,0,161,161,161,,,,,,,,,,,,,,,,,main,k,k,1,1.0660614999942482,514.4659278999316,None,None,0,,,,,,,,,,,,,,111,2023-04-24_17h27.41.276,Main,2022.1.1,60.107893679001776,
negative,blue,1,None,k,,,,,,,,,0,162,162,162,,,,,,,,,,,,,,,,,main,k,k,1,0.7964171000057831,516.5326638999395,None,None,0,,,,,,,,,,,,,,111,2023-04-24_17h27.41.276,Main,2022.1.1,60.107893679001776,
negative,yellow,1,k,None,,,,,,,,,0,163,163,163,,,,,,,,,,,,,,,,,main,None,None,1,1.5015254999743775,518.329827999929,None,None,1,,,,,,,,,,,,,,111,2023-04-24_17h27.41.276,Main,2022.1.1,60.107893679001776,
negative,yellow,1,k,None,,,,,,,,,0,164,164,164,,,,,,,,,,,,,,,,,main,None,None,1,1.4992124000564218,520.8324439999415,None,None,1,,,,,,,,,,,,,,111,2023-04-24_17h27.41.276,Main,2022.1.1,60.107893679001776,
positive,yellow,1,None,k,,,,,,,,,0,165,165,165,,,,,,,,,,,,,,,,,main,k,k,1,0.8158108000643551,523.3322177999653,None,None,0,,,,,,,,,,,,,,111,2023-04-24_17h27.41.276,Main,2022.1.1,60.107893679001776,
negative,red,1,None,None,,,,,,,,,0,166,166,166,,,,,,,,,,,,,,,,,main,None,None,1,1.496395800029859,525.1488419999368,None,None,1,,,,,,,,,,,,,,111,2023-04-24_17h27.41.276,Main,2022.1.1,60.107893679001776,
negative,yellow,2,k,None,,,,,,,,,0,167,167,167,,,,,,,,,,,,,,,,,main,None,None,1,1.4992278999416158,527.6462927999673,None,None,1,,,,,,,,,,,,,,111,2023-04-24_17h27.41.276,Main,2022.1.1,60.107893679001776,
positive,blue,2,k,None,,,,,,,,,0,168,168,168,,,,,,,,,,,,,,,,,main,None,None,1,1.5019644999410957,530.146294199978,None,None,1,,,,,,,,,,,,,,111,2023-04-24_17h27.41.276,Main,2022.1.1,60.107893679001776,
positive,red,2,None,None,,,,,,,,,0,169,169,169,,,,,,,,,,,,,,,,,main,None,None,1,1.496245100046508,532.6488235000288,None,None,1,,,,,,,,,,,,,,111,2023-04-24_17h27.41.276,Main,2022.1.1,60.107893679001776,
positive,red,1,None,None,,,,,,,,,0,170,170,170,,,,,,,,,,,,,,,,,main,None,None,1,1.5018014999805018,535.1461181999184,None,None,1,,,,,,,,,,,,,,111,2023-04-24_17h27.41.276,Main,2022.1.1,60.107893679001776,
negative,blue,2,None,k,,,,,,,,,0,171,171,171,,,,,,,,,,,,,,,,,main,k,k,1,0.6327562000369653,537.6487031999277,None,None,0,,,,,,,,,,,,,,111,2023-04-24_17h27.41.276,Main,2022.1.1,60.107893679001776,
positive,blue,2,k,None,,,,,,,,,0,172,172,172,,,,,,,,,,,,,,,,,main,None,None,1,1.4988093000138178,539.2820127999876,None,None,1,,,,,,,,,,,,,,111,2023-04-24_17h27.41.276,Main,2022.1.1,60.107893679001776,
negative,yellow,2,k,None,,,,,,,,,0,173,173,173,,,,,,,,,,,,,,,,,main,None,None,1,1.4969303000252694,541.7818202999188,None,None,1,,,,,,,,,,,,,,111,2023-04-24_17h27.41.276,Main,2022.1.1,60.107893679001776,
positive,yellow,2,None,k,,,,,,,,,0,174,174,174,,,,,,,,,,,,,,,,,main,k,k,1,0.718699699966237,544.2793044999707,None,None,0,,,,,,,,,,,,,,111,2023-04-24_17h27.41.276,Main,2022.1.1,60.107893679001776,
negative,blue,2,None,k,,,,,,,,,0,175,175,175,,,,,,,,,,,,,,,,,main,k,k,1,0.7655607999768108,545.9984994999832,None,None,0,,,,,,,,,,,,,,111,2023-04-24_17h27.41.276,Main,2022.1.1,60.107893679001776,
positive,blue,1,k,None,,,,,,,,,0,176,176,176,,,,,,,,,,,,,,,,,main,None,None,1,1.498572999960743,547.7651547000278,None,None,1,,,,,,,,,,,,,,111,2023-04-24_17h27.41.276,Main,2022.1.1,60.107893679001776,
positive,yellow,1,None,k,,,,,,,,,0,177,177,177,,,,,,,,,,,,,,,,,main,k,k,1,0.8634869999950752,550.2649716000305,None,None,0,,,,,,,,,,,,,,111,2023-04-24_17h27.41.276,Main,2022.1.1,60.107893679001776,
positive,blue,1,k,None,,,,,,,,,0,178,178,178,,,,,,,,,,,,,,,,,main,None,None,1,1.4990653999848291,552.1291014000308,None,None,1,,,,,,,,,,,,,,111,2023-04-24_17h27.41.276,Main,2022.1.1,60.107893679001776,
positive,yellow,2,None,k,,,,,,,,,0,179,179,179,,,,,,,,,,,,,,,,,main,k,k,1,0.7688723000464961,554.629116200027,None,None,0,,,,,,,,,,,,,,111,2023-04-24_17h27.41.276,Main,2022.1.1,60.107893679001776,
positive,blue,1,k,None,,,,,,,,,0,180,180,180,,,,,,,,,,,,,,,,,main,None,None,1,1.4961495000170544,556.3961246999679,None,None,1,,,,,,,,,,,,,,111,2023-04-24_17h27.41.276,Main,2022.1.1,60.107893679001776,
negative,red,1,None,None,,,,,,,,,0,181,181,181,,,,,,,,,,,,,,,,,main,None,None,1,1.5018130999524146,558.895623599994,None,None,1,,,,,,,,,,,,,,111,2023-04-24_17h27.41.276,Main,2022.1.1,60.107893679001776,
negative,blue,1,None,k,,,,,,,,,0,182,182,182,,,,,,,,,,,,,,,,,main,k,k,1,0.7327798999613151,561.3982395000057,None,None,0,,,,,,,,,,,,,,111,2023-04-24_17h27.41.276,Main,2022.1.1,60.107893679001776,
negative,yellow,2,k,None,,,,,,,,,0,183,183,183,,,,,,,,,,,,,,,,,main,None,None,1,1.496058400021866,563.1315132000018,None,None,1,,,,,,,,,,,,,,111,2023-04-24_17h27.41.276,Main,2022.1.1,60.107893679001776,
positive,yellow,2,None,k,,,,,,,,,0,184,184,184,,,,,,,,,,,,,,,,,main,k,k,1,0.6855895000044256,565.6288288999349,None,None,0,,,,,,,,,,,,,,111,2023-04-24_17h27.41.276,Main,2022.1.1,60.107893679001776,
positive,yellow,1,None,k,,,,,,,,,0,185,185,185,,,,,,,,,,,,,,,,,main,k,k,1,0.7007851999951527,567.3148589999182,None,None,0,,,,,,,,,,,,,,111,2023-04-24_17h27.41.276,Main,2022.1.1,60.107893679001776,
positive,red,2,None,None,,,,,,,,,0,186,186,186,,,,,,,,,,,,,,,,,main,None,None,1,1.4974321000045165,569.0148039999185,None,None,1,,,,,,,,,,,,,,111,2023-04-24_17h27.41.276,Main,2022.1.1,60.107893679001776,
positive,blue,1,k,None,,,,,,,,,0,187,187,187,,,,,,,,,,,,,,,,,main,None,None,1,1.4965249999659136,571.5145757999271,None,None,1,,,,,,,,,,,,,,111,2023-04-24_17h27.41.276,Main,2022.1.1,60.107893679001776,
negative,yellow,1,k,None,,,,,,,,,0,188,188,188,,,,,,,,,,,,,,,,,main,None,None,1,1.5012981001054868,574.0119836999802,None,None,1,,,,,,,,,,,,,,111,2023-04-24_17h27.41.276,Main,2022.1.1,60.107893679001776,
positive,yellow,2,None,k,,,,,,,,,0,189,189,189,,,,,,,,,,,,,,,,,main,k,k,1,0.6991813000058755,576.5145992999896,None,None,0,,,,,,,,,,,,,,111,2023-04-24_17h27.41.276,Main,2022.1.1,60.107893679001776,
negative,yellow,2,k,None,,,,,,,,,0,190,190,190,,,,,,,,,,,,,,,,,main,None,None,1,1.4960675000911579,578.2145572999725,None,None,1,,,,,,,,,,,,,,111,2023-04-24_17h27.41.276,Main,2022.1.1,60.107893679001776,
negative,yellow,1,k,None,,,,,,,,,0,191,191,191,,,,,,,,,,,,,,,,,main,None,None,1,1.501750300056301,580.7118488999549,None,None,1,,,,,,,,,,,,,,111,2023-04-24_17h27.41.276,Main,2022.1.1,60.107893679001776,
positive,blue,2,k,None,,,,,,,,,0,192,192,192,,,,,,,,,,,,,,,,,main,None,None,1,1.4968355000019073,583.2144714000169,None,None,1,,,,,,,,,,,,,,111,2023-04-24_17h27.41.276,Main,2022.1.1,60.107893679001776,
positive,yellow,1,None,k,,,,,,,,,0,193,193,193,,,,,,,,,,,,,,,,,main,k,k,1,0.8034927999833599,585.717512400006,None,None,0,,,,,,,,,,,,,,111,2023-04-24_17h27.41.276,Main,2022.1.1,60.107893679001776,
negative,red,2,None,None,,,,,,,,,0,194,194,194,,,,,,,,,,,,,,,,,main,None,None,1,1.4967934000305831,587.5141923999181,None,None,1,,,,,,,,,,,,,,111,2023-04-24_17h27.41.276,Main,2022.1.1,60.107893679001776,
positive,red,1,None,None,,,,,,,,,0,195,195,195,,,,,,,,,,,,,,,,,main,None,None,1,1.4994261999381706,590.0116441999562,None,None,1,,,,,,,,,,,,,,111,2023-04-24_17h27.41.276,Main,2022.1.1,60.107893679001776,
negative,blue,1,None,k,,,,,,,,,0,196,196,196,,,,,,,,,,,,,,,,,main,k,k,1,0.8658572999993339,592.5142166999867,None,None,0,,,,,,,,,,,,,,111,2023-04-24_17h27.41.276,Main,2022.1.1,60.107893679001776,
positive,blue,2,k,None,,,,,,,,,0,197,197,197,,,,,,,,,,,,,,,,,main,None,None,1,1.4962195999687538,594.3809276999673,None,None,1,,,,,,,,,,,,,,111,2023-04-24_17h27.41.276,Main,2022.1.1,60.107893679001776,
negative,blue,2,None,k,,,,,,,,,0,198,198,198,,,,,,,,,,,,,,,,,main,k,k,1,0.9520392999984324,596.8782243999885,None,None,0,,,,,,,,,,,,,,111,2023-04-24_17h27.41.276,Main,2022.1.1,60.107893679001776,
negative,blue,2,None,k,,,,,,,,,0,199,199,199,,,,,,,,,,,,,,,,,main,k,k,1,0.8823860000120476,598.8308960000286,None,None,0,,,,,,,,,,,,,,111,2023-04-24_17h27.41.276,Main,2022.1.1,60.107893679001776,
positive,blue,2,k,None,,,,,,,,,0,200,200,200,,,,,,,,,,,,,,,,,main,None,None,1,1.4961835000431165,600.7141298999777,None,None,1,,,,,,,,,,,,,,111,2023-04-24_17h27.41.276,Main,2022.1.1,60.107893679001776,
positive,blue,2,k,None,,,,,,,,,0,201,201,201,,,,,,,,,,,,,,,,,main,None,None,1,1.5018745000706986,603.211379299988,None,None,1,,,,,,,,,,,,,,111,2023-04-24_17h27.41.276,Main,2022.1.1,60.107893679001776,
negative,yellow,2,k,None,,,,,,,,,0,202,202,202,,,,,,,,,,,,,,,,,main,None,None,1,1.499013700056821,605.7139177999925,None,None,1,,,,,,,,,,,,,,111,2023-04-24_17h27.41.276,Main,2022.1.1,60.107893679001776,
positive,red,1,None,None,,,,,,,,,0,203,203,203,,,,,,,,,,,,,,,,,main,None,None,1,1.5022617999929935,608.21375669993,None,None,1,,,,,,,,,,,,,,111,2023-04-24_17h27.41.276,Main,2022.1.1,60.107893679001776,
negative,blue,2,None,k,,,,,,,,,0,204,204,204,,,,,,,,,,,,,,,,,main,k,k,1,0.7102372999070212,610.7147969999351,None,None,0,,,,,,,,,,,,,,111,2023-04-24_17h27.41.276,Main,2022.1.1,60.107893679001776,
negative,red,1,None,None,,,,,,,,,0,205,205,205,,,,,,,,,,,,,,,,,main,None,None,1,1.5017634000396356,612.4278630999615,None,None,1,,,,,,,,,,,,,,111,2023-04-24_17h27.41.276,Main,2022.1.1,60.107893679001776,
negative,blue,2,None,k,,,,,,,,,0,206,206,206,,,,,,,,,,,,,,,,,main,k,k,1,0.6825116000836715,614.9304515999975,None,None,0,,,,,,,,,,,,,,111,2023-04-24_17h27.41.276,Main,2022.1.1,60.107893679001776,
negative,yellow,2,k,None,,,,,,,,,0,207,207,207,,,,,,,,,,,,,,,,,main,None,None,1,1.4964567999122664,616.6137606999837,None,None,1,,,,,,,,,,,,,,111,2023-04-24_17h27.41.276,Main,2022.1.1,60.107893679001776,
positive,yellow,2,None,k,,,,,,,,,0,208,208,208,,,,,,,,,,,,,,,,,main,k,k,1,0.6993711999384686,619.111065999954,None,None,0,,,,,,,,,,,,,,111,2023-04-24_17h27.41.276,Main,2022.1.1,60.107893679001776,
negative,yellow,1,k,None,,,,,,,,,0,209,209,209,,,,,,,,,,,,,,,,,main,None,None,1,1.5014172000810504,620.8110797000118,None,None,1,,,,,,,,,,,,,,111,2023-04-24_17h27.41.276,Main,2022.1.1,60.107893679001776,
negative,red,2,None,None,,,,,,,,,0,210,210,210,,,,,,,,,,,,,,,,,main,None,None,1,1.4966619999613613,623.3136305999942,None,None,1,,,,,,,,,,,,,,111,2023-04-24_17h27.41.276,Main,2022.1.1,60.107893679001776,
negative,blue,1,None,k,,,,,,,,,0,211,211,211,,,,,,,,,,,,,,,,,main,k,k,1,0.7494459999725223,625.8109226999804,None,None,0,,,,,,,,,,,,,,111,2023-04-24_17h27.41.276,Main,2022.1.1,60.107893679001776,
negative,yellow,1,k,None,,,,,,,,,0,212,212,212,,,,,,,,,,,,,,,,,main,None,None,1,1.5014023000840098,627.5609434000216,None,None,1,,,,,,,,,,,,,,111,2023-04-24_17h27.41.276,Main,2022.1.1,60.107893679001776,
positive,blue,1,k,None,,,,,,,,,0,213,213,213,,,,,,,,,,,,,,,,,main,None,None,1,1.4969212000723928,630.0634941000026,None,None,1,,,,,,,,,,,,,,111,2023-04-24_17h27.41.276,Main,2022.1.1,60.107893679001776,
positive,blue,1,k,None,,,,,,,,,0,214,214,214,,,,,,,,,,,,,,,,,main,None,None,1,1.4988036999711767,632.5633355999598,None,None,1,,,,,,,,,,,,,,111,2023-04-24_17h27.41.276,Main,2022.1.1,60.107893679001776,
positive,yellow,1,None,k,,,,,,,,,0,215,215,215,,,,,,,,,,,,,,,,,main,k,k,1,0.6853710999712348,635.0607306999154,None,None,0,,,,,,,,,,,,,,111,2023-04-24_17h27.41.276,Main,2022.1.1,60.107893679001776,
positive,yellow,1,None,k,,,,,,,,,0,216,216,216,,,,,,,,,,,,,,,,,main,k,k,1,0.7324898999650031,636.7466631999705,None,None,0,,,,,,,,,,,,,,111,2023-04-24_17h27.41.276,Main,2022.1.1,60.107893679001776,
positive,yellow,2,None,k,,,,,,,,,0,217,217,217,,,,,,,,,,,,,,,,,main,k,k,1,0.7349018999375403,638.4800065999152,None,None,0,,,,,,,,,,,,,,111,2023-04-24_17h27.41.276,Main,2022.1.1,60.107893679001776,
negative,blue,1,None,k,,,,,,,,,0,218,218,218,,,,,,,,,,,,,,,,,main,k,k,1,0.8444468999514356,640.2161574999336,None,None,0,,,,,,,,,,,,,,111,2023-04-24_17h27.41.276,Main,2022.1.1,60.107893679001776,
positive,red,2,None,None,,,,,,,,,0,219,219,219,,,,,,,,,,,,,,,,,main,None,None,1,1.4987191000254825,642.0631501999451,None,None,1,,,,,,,,,,,,,,111,2023-04-24_17h27.41.276,Main,2022.1.1,60.107893679001776,
positive,yellow,1,None,k,,,,,,,,,0,220,220,220,,,,,,,,,,,,,,,,,main,k,k,1,0.7498880000784993,644.560525799985,None,None,0,,,,,,,,,,,,,,111,2023-04-24_17h27.41.276,Main,2022.1.1,60.107893679001776,
positive,blue,1,k,None,,,,,,,,,0,221,221,221,,,,,,,,,,,,,,,,,main,None,None,1,1.5001910999417305,646.3130968000041,None,None,1,,,,,,,,,,,,,,111,2023-04-24_17h27.41.276,Main,2022.1.1,60.107893679001776,
positive,yellow,2,None,k,,,,,,,,,0,222,222,222,,,,,,,,,,,,,,,,,main,k,k,1,0.6461559999734163,648.813143300009,None,None,0,,,,,,,,,,,,,,111,2023-04-24_17h27.41.276,Main,2022.1.1,60.107893679001776,
negative,yellow,1,k,None,,,,,,,,,0,223,223,223,,,,,,,,,,,,,,,,,main,None,None,1,1.5018524999031797,650.4603969999589,None,None,1,,,,,,,,,,,,,,111,2023-04-24_17h27.41.276,Main,2022.1.1,60.107893679001776,
positive,yellow,2,None,k,,,,,,,,,0,224,224,224,,,,,,,,,,,,,,,,,main,k,k,1,0.7491375999525189,652.963098499924,None,None,0,,,,,,,,,,,,,,111,2023-04-24_17h27.41.276,Main,2022.1.1,60.107893679001776,
negative,yellow,2,k,None,,,,,,,,,0,225,225,225,,,,,,,,,,,,,,,,,main,None,None,1,1.4983903000829741,654.713042999967,None,None,1,,,,,,,,,,,,,,111,2023-04-24_17h27.41.276,Main,2022.1.1,60.107893679001776,
negative,blue,2,None,k,,,,,,,,,0,226,226,226,,,,,,,,,,,,,,,,,main,k,k,1,0.7135862000286579,657.2105743000284,None,None,0,,,,,,,,,,,,,,111,2023-04-24_17h27.41.276,Main,2022.1.1,60.107893679001776,
positive,red,2,None,None,,,,,,,,,0,227,227,227,,,,,,,,,,,,,,,,,main,None,None,1,1.5017281000036746,658.9268988999538,None,None,1,,,,,,,,,,,,,,111,2023-04-24_17h27.41.276,Main,2022.1.1,60.107893679001776,
positive,blue,2,k,None,,,,,,,,,0,228,228,228,,,,,,,,,,,,,,,,,main,None,None,1,1.4987417999655008,661.4294677999569,None,None,1,,,,,,,,,,,,,,111,2023-04-24_17h27.41.276,Main,2022.1.1,60.107893679001776,
negative,blue,1,None,k,,,,,,,,,0,229,229,229,,,,,,,,,,,,,,,,,main,k,k,1,0.7966554999584332,663.9294897000073,None,None,0,,,,,,,,,,,,,,111,2023-04-24_17h27.41.276,Main,2022.1.1,60.107893679001776,
positive,yellow,1,None,k,,,,,,,,,0,230,230,230,,,,,,,,,,,,,,,,,main,k,k,1,0.8852601000107825,665.7267438999843,None,None,0,,,,,,,,,,,,,,111,2023-04-24_17h27.41.276,Main,2022.1.1,60.107893679001776,
negative,blue,2,None,k,,,,,,,,,0,231,231,231,,,,,,,,,,,,,,,,,main,k,k,1,0.6824228999903426,667.6127493999666,None,None,0,,,,,,,,,,,,,,111,2023-04-24_17h27.41.276,Main,2022.1.1,60.107893679001776,
negative,red,1,None,None,,,,,,,,,0,232,232,232,,,,,,,,,,,,,,,,,main,None,None,1,1.4964734999230132,669.2960160999792,None,None,1,,,,,,,,,,,,,,111,2023-04-24_17h27.41.276,Main,2022.1.1,60.107893679001776,
positive,blue,2,k,None,,,,,,,,,0,233,233,233,,,,,,,,,,,,,,,,,main,None,None,1,1.4987286000978202,671.7958614999661,None,None,1,,,,,,,,,,,,,,111,2023-04-24_17h27.41.276,Main,2022.1.1,60.107893679001776,
negative,yellow,1,k,None,,,,,,,,,0,234,234,234,,,,,,,,,,,,,,,,,main,None,None,1,1.5018926999764517,674.2932494999841,None,None,1,,,,,,,,,,,,,,111,2023-04-24_17h27.41.276,Main,2022.1.1,60.107893679001776,
negative,yellow,2,k,None,,,,,,,,,0,235,235,235,,,,,,,,,,,,,,,,,main,None,None,1,1.4989563999697566,676.7958445999539,None,None,1,,,,,,,,,,,,,,111,2023-04-24_17h27.41.276,Main,2022.1.1,60.107893679001776,
positive,red,1,None,None,,,,,,,,,0,236,236,236,,,,,,,,,,,,,,,,,main,None,None,1,1.4966531000100076,679.2958906999556,None,None,1,,,,,,,,,,,,,,111,2023-04-24_17h27.41.276,Main,2022.1.1,60.107893679001776,
negative,red,2,None,None,,,,,,,,,0,237,237,237,,,,,,,,,,,,,,,,,main,None,None,1,1.501815100084059,681.7930817999877,None,None,1,,,,,,,,,,,,,,111,2023-04-24_17h27.41.276,Main,2022.1.1,60.107893679001776,
negative,blue,1,None,k,,,,,,,,,0,238,238,238,,,,,,,,,,,,,,,,,main,k,k,1,0.7523197000846267,684.2957075999584,None,None,0,,,,,,,,,,,,,,111,2023-04-24_17h27.41.276,Main,2022.1.1,60.107893679001776,
positive,blue,1,k,None,,,,,,,,,0,239,239,239,,,,,,,,,,,,,,,,,main,None,None,1,1.4959509000182152,686.048231099965,None,None,1,,,,,,,,,,,,,,111,2023-04-24_17h27.41.276,Main,2022.1.1,60.107893679001776,
,,,,,,,,,,,,,,,,,,,,,,,,,,,,,,,,,,,,,,,,,,,,,,,,,,,,,688.5455416999757,None,,,,,,
