distractor,target,set,ans1,ans2,rep_loop4.thisRepN,rep_loop4.thisTrialN,rep_loop4.thisN,rep_loop4.thisIndex,st2_prac_loop.thisRepN,st2_prac_loop.thisTrialN,st2_prac_loop.thisN,st2_prac_loop.thisIndex,st2_main_loop.thisRepN,st2_main_loop.thisTrialN,st2_main_loop.thisN,st2_main_loop.thisIndex,image_4.started,image_4.stopped,sound_2.started,sound_2.stopped,key_resp_3.keys,key_resp_3.rt,image_5.started,image_5.stopped,st_prac_back.started,st_prac_back.stopped,st_prac_text.started,st_prac_text.stopped,st_fix_back.started,st_fix_back.stopped,st_fix_2.started,st_fix_2.stopped,main_prac,st_ans,st_res,st_corr,st_rt,st_back.started,st_back.stopped,st2_resp.keys,st2_resp.corr,st_main_back.started,st_main_back.stopped,st_main_text.started,st_main_text.stopped,mouse_4.x,mouse_4.y,mouse_4.leftButton,mouse_4.midButton,mouse_4.rightButton,mouse_4.started,mouse_4.stopped,text_2.started,text_2.stopped,id*,date,expName,psychopyVersion,frameRate,
negative,yellow,1,k,None,,,,,0,0,0,0,,,,,28.609704600006808,None,33.502823960006936,None,space,19.66875779995462,53.202244799991604,None,55.04994549998082,None,55.04994549998082,None,57.052325500000734,None,57.052325500000734,None,prac,k,k,1,0.9686650999938138,59.05777359998319,None,None,0,,,,,,,,,,,,,,112,2023-04-20_13h35.20.766,Main,2022.1.1,59.81197507087388,
positive,red,2,None,None,,,,,0,1,1,1,,,,,,,,,,,,,,,,,,,,,prac,None,None,1,1.5000950999674387,61.03325819998281,None,None,1,,,,,,,,,,,,,,112,2023-04-20_13h35.20.766,Main,2022.1.1,59.81197507087388,
negative,blue,2,None,k,,,,,0,2,2,2,,,,,,,,,,,,,,,,,,,,,prac,None,None,1,1.4991705000284128,63.535505899984855,None,None,1,,,,,,,,,,,,,,112,2023-04-20_13h35.20.766,Main,2022.1.1,59.81197507087388,
positive,yellow,1,None,k,,,,,0,3,3,3,,,,,,,,,,,,,,,,,,,,,prac,None,None,1,1.4993029999895953,66.03536290000193,None,None,1,,,,,,,,,,,,,,112,2023-04-20_13h35.20.766,Main,2022.1.1,59.81197507087388,
negative,blue,2,None,k,,,,,0,4,4,4,,,,,,,,,,,,,,,,,,,,,prac,None,None,1,1.496480000030715,68.53538329998264,None,None,1,,,,,,,,,,,,,,112,2023-04-20_13h35.20.766,Main,2022.1.1,59.81197507087388,
negative,blue,1,None,k,,,,,0,5,5,5,,,,,,,,,,,,,,,,,,,,,prac,None,None,1,1.5020149999763817,71.03282049996778,None,None,1,,,,,,,,,,,,,,112,2023-04-20_13h35.20.766,Main,2022.1.1,59.81197507087388,
negative,yellow,2,k,None,,,,,0,6,6,6,,,,,,,,,,,,,,,,,,,,,prac,k,k,1,1.3656623999704607,73.5355375999934,None,None,0,,,,,,,,,,,,,,112,2023-04-20_13h35.20.766,Main,2022.1.1,59.81197507087388,
negative,red,1,None,None,,,,,0,7,7,7,,,,,,,,,,,,,,,,,,,,,prac,None,k,0,-0.7032570999581367,75.90185039996868,None,None,1,,,,,,,,,,,,,,112,2023-04-20_13h35.20.766,Main,2022.1.1,59.81197507087388,
positive,yellow,2,None,k,,,,,0,8,8,8,,,,,,,,,,,,,,,,,,,,,prac,None,None,1,1.4881708000320941,79.19926309998846,None,None,1,,,,,,,,,,,,,,112,2023-04-20_13h35.20.766,Main,2022.1.1,59.81197507087388,
negative,yellow,1,k,None,,,,,0,9,9,9,,,,,,,,,,,,,,,,,,,,,prac,k,k,1,1.1147134999628179,81.68525899999077,None,None,0,,,,,,,,,,,,,,112,2023-04-20_13h35.20.766,Main,2022.1.1,59.81197507087388,
positive,yellow,2,None,k,,,,,0,10,10,10,,,,,,,,,,,,,,,,,,,,,prac,None,None,1,1.4961075999890454,83.80182399996556,None,None,1,,,,,,,,,,,,,,112,2023-04-20_13h35.20.766,Main,2022.1.1,59.81197507087388,
negative,yellow,2,k,None,,,,,0,11,11,11,,,,,,,,,,,,,,,,,,,,,prac,k,k,1,0.8855120000080206,86.29917179996846,None,None,0,,,,,,,,,,,,,,112,2023-04-20_13h35.20.766,Main,2022.1.1,59.81197507087388,
negative,red,2,None,None,,,,,0,12,12,12,,,,,,,,,,,,,,,,,,,,,prac,None,None,1,1.4962893000338227,88.18506360001629,None,None,1,,,,,,,,,,,,,,112,2023-04-20_13h35.20.766,Main,2022.1.1,59.81197507087388,
positive,red,1,None,None,,,,,0,13,13,13,,,,,,,,,,,,,,,,,,,,,prac,None,None,1,1.5011006999993697,90.68809569999576,None,None,1,,,,,,,,,,,,,,112,2023-04-20_13h35.20.766,Main,2022.1.1,59.81197507087388,
positive,blue,2,k,None,,,,,0,14,14,14,,,,,,,,,,,,,,,,,,,,,prac,k,k,1,1.2804612999898382,93.18262829998275,None,None,0,,,,,,,,,,,,,,112,2023-04-20_13h35.20.766,Main,2022.1.1,59.81197507087388,
positive,blue,1,k,None,,,,,0,15,15,15,,,,,,,,,,,,,,,,,,,,,prac,k,k,1,0.6991816000081599,95.46583469997859,None,None,0,,,,,,,,,,,,,,112,2023-04-20_13h35.20.766,Main,2022.1.1,59.81197507087388,
negative,blue,1,None,k,,,,,0,16,16,16,,,,,,,,,,,,,,,,,,,,,prac,None,None,1,1.5011539999977686,97.16804670001147,None,None,1,,,,,,,,,,,,,,112,2023-04-20_13h35.20.766,Main,2022.1.1,59.81197507087388,
positive,blue,2,k,None,,,,,0,17,17,17,,,,,,,,,,,,,,,,,,,,,prac,k,k,1,0.6968855000450276,99.66814249998424,None,None,0,,,,,,,,,,,,,,112,2023-04-20_13h35.20.766,Main,2022.1.1,59.81197507087388,
positive,blue,1,k,None,,,,,0,18,18,18,,,,,,,,,,,,,,,,,,,,,prac,k,k,1,0.6659850999712944,101.36546349996934,None,None,0,,,,,,,,,,,,,,112,2023-04-20_13h35.20.766,Main,2022.1.1,59.81197507087388,
positive,yellow,1,None,k,,,,,0,19,19,19,,,,,,,,,,,,,,,,,,,,,prac,None,None,1,1.5016262999852188,103.03217089996906,None,None,1,,,,,,,,,,,,,,112,2023-04-20_13h35.20.766,Main,2022.1.1,59.81197507087388,
negative,yellow,1,k,None,,,,,1,0,20,0,,,,,,,,,,,,,,,,,,,,,prac,k,k,1,0.6468634000048041,105.53478889999678,None,None,0,,,,,,,,,,,,,,112,2023-04-20_13h35.20.766,Main,2022.1.1,59.81197507087388,
positive,red,2,None,None,,,,,1,1,21,1,,,,,,,,,,,,,,,,,,,,,prac,None,None,1,1.498555900005158,107.18460189999314,None,None,1,,,,,,,,,,,,,,112,2023-04-20_13h35.20.766,Main,2022.1.1,59.81197507087388,
negative,blue,2,None,k,,,,,1,2,22,2,,,,,,,,,,,,,,,,,,,,,prac,None,None,1,1.5019741999567486,109.68198130000383,None,None,1,,,,,,,,,,,,,,112,2023-04-20_13h35.20.766,Main,2022.1.1,59.81197507087388,
positive,yellow,1,None,k,,,,,1,3,23,3,,,,,,,,,,,,,,,,,,,,,prac,None,None,1,1.4989117999793962,112.18456640001386,None,None,1,,,,,,,,,,,,,,112,2023-04-20_13h35.20.766,Main,2022.1.1,59.81197507087388,
negative,blue,2,None,k,,,,,1,4,24,4,,,,,,,,,,,,,,,,,,,,,prac,None,None,1,1.4966403999715112,114.68210440000985,None,None,1,,,,,,,,,,,,,,112,2023-04-20_13h35.20.766,Main,2022.1.1,59.81197507087388,
negative,blue,1,None,k,,,,,1,5,25,5,,,,,,,,,,,,,,,,,,,,,prac,None,None,1,1.5016847999650054,117.18188250000821,None,None,1,,,,,,,,,,,,,,112,2023-04-20_13h35.20.766,Main,2022.1.1,59.81197507087388,
negative,yellow,2,k,None,,,,,1,6,26,6,,,,,,,,,,,,,,,,,,,,,prac,k,k,1,0.8297734000370838,119.68453049997333,None,None,0,,,,,,,,,,,,,,112,2023-04-20_13h35.20.766,Main,2022.1.1,59.81197507087388,
negative,red,1,None,None,,,,,1,7,27,7,,,,,,,,,,,,,,,,,,,,,prac,None,None,1,1.50162240001373,121.51506529998733,None,None,1,,,,,,,,,,,,,,112,2023-04-20_13h35.20.766,Main,2022.1.1,59.81197507087388,
positive,yellow,2,None,k,,,,,1,8,28,8,,,,,,,,,,,,,,,,,,,,,prac,None,None,1,1.4990726999822073,124.01778170000762,None,None,1,,,,,,,,,,,,,,112,2023-04-20_13h35.20.766,Main,2022.1.1,59.81197507087388,
negative,yellow,1,k,None,,,,,1,9,29,9,,,,,,,,,,,,,,,,,,,,,prac,k,k,1,0.763347000000067,126.51768559997436,None,None,0,,,,,,,,,,,,,,112,2023-04-20_13h35.20.766,Main,2022.1.1,59.81197507087388,
positive,yellow,2,None,k,,,,,1,10,30,10,,,,,,,,,,,,,,,,,,,,,prac,None,None,1,1.501310800027568,128.2815962000168,None,None,1,,,,,,,,,,,,,,112,2023-04-20_13h35.20.766,Main,2022.1.1,59.81197507087388,
negative,yellow,2,k,None,,,,,1,11,31,11,,,,,,,,,,,,,,,,,,,,,prac,k,k,1,0.8660928999888711,130.78422969998792,None,None,0,,,,,,,,,,,,,,112,2023-04-20_13h35.20.766,Main,2022.1.1,59.81197507087388,
negative,red,2,None,None,,,,,1,12,32,12,,,,,,,,,,,,,,,,,,,,,prac,None,None,1,1.4962687999941409,132.65092469996307,None,None,1,,,,,,,,,,,,,,112,2023-04-20_13h35.20.766,Main,2022.1.1,59.81197507087388,
positive,red,1,None,None,,,,,1,13,33,13,,,,,,,,,,,,,,,,,,,,,prac,None,None,1,1.5018714000470936,135.1482026000158,None,None,1,,,,,,,,,,,,,,112,2023-04-20_13h35.20.766,Main,2022.1.1,59.81197507087388,
positive,blue,2,k,None,,,,,1,14,34,14,,,,,,,,,,,,,,,,,,,,,prac,k,k,1,0.6326368000009097,137.6508891999838,None,None,0,,,,,,,,,,,,,,112,2023-04-20_13h35.20.766,Main,2022.1.1,59.81197507087388,
positive,blue,1,k,None,,,,,1,15,35,15,,,,,,,,,,,,,,,,,,,,,prac,k,k,1,0.7360430000117049,139.28168449999066,None,None,0,,,,,,,,,,,,,,112,2023-04-20_13h35.20.766,Main,2022.1.1,59.81197507087388,
negative,blue,1,None,k,,,,,1,16,36,16,,,,,,,,,,,,,,,,,,,,,prac,None,None,1,1.4951454999973066,141.01927529997192,None,None,1,,,,,,,,,,,,,,112,2023-04-20_13h35.20.766,Main,2022.1.1,59.81197507087388,
positive,blue,2,k,None,,,,,1,17,37,17,,,,,,,,,,,,,,,,,,,,,prac,k,k,1,0.7806719999643974,143.51490090001607,None,None,0,,,,,,,,,,,,,,112,2023-04-20_13h35.20.766,Main,2022.1.1,59.81197507087388,
positive,blue,1,k,None,,,,,1,18,38,18,,,,,,,,,,,,,,,,,,,,,prac,k,k,1,0.6846882000099868,145.30050379998283,None,None,0,,,,,,,,,,,,,,112,2023-04-20_13h35.20.766,Main,2022.1.1,59.81197507087388,
positive,yellow,1,None,k,,,,,1,19,39,19,,,,,,,,,,,,,,,,,,,,,prac,None,None,1,1.4961253999499604,146.98156260000542,None,None,1,,,,,,,,,,,,,,112,2023-04-20_13h35.20.766,Main,2022.1.1,59.81197507087388,
,,,,,,,,,,,,,,,,,,,,,,,,,,,,,,,,,,,,,,,,,,149.48120959999505,None,149.48120959999505,None,0.11666667,0.011111111,0,0,0,0.014360159926582128,None,,,112,2023-04-20_13h35.20.766,Main,2022.1.1,59.81197507087388,
negative,yellow,2,k,None,,,,,,,,,0,0,0,0,,,,,,,,,,,,,150.26705929997843,None,150.26705929997843,None,main,k,k,1,0.8806328999926336,152.29253560001962,None,None,0,,,,,,,,,,,,,,112,2023-04-20_13h35.20.766,Main,2022.1.1,59.81197507087388,
positive,red,1,None,None,,,,,,,,,0,1,1,1,,,,,,,,,,,,,,,,,main,None,None,1,1.4983922999817878,154.18356309999945,None,None,1,,,,,,,,,,,,,,112,2023-04-20_13h35.20.766,Main,2022.1.1,59.81197507087388,
positive,blue,2,k,None,,,,,,,,,0,2,2,2,,,,,,,,,,,,,,,,,main,k,k,1,0.6660512000089511,156.68099319998873,None,None,0,,,,,,,,,,,,,,112,2023-04-20_13h35.20.766,Main,2022.1.1,59.81197507087388,
positive,blue,1,k,None,,,,,,,,,0,3,3,3,,,,,,,,,,,,,,,,,main,k,k,1,0.6518148999894038,158.3477076999843,None,None,0,,,,,,,,,,,,,,112,2023-04-20_13h35.20.766,Main,2022.1.1,59.81197507087388,
negative,yellow,2,k,None,,,,,,,,,0,4,4,4,,,,,,,,,,,,,,,,,main,k,k,1,0.6490200000116602,160.000333199976,None,None,0,,,,,,,,,,,,,,112,2023-04-20_13h35.20.766,Main,2022.1.1,59.81197507087388,
positive,yellow,2,None,k,,,,,,,,,0,5,5,5,,,,,,,,,,,,,,,,,main,None,None,1,1.4962789000128396,161.6502247999888,None,None,1,,,,,,,,,,,,,,112,2023-04-20_13h35.20.766,Main,2022.1.1,59.81197507087388,
negative,blue,2,None,k,,,,,,,,,0,6,6,6,,,,,,,,,,,,,,,,,main,None,None,1,1.5019394000410102,164.1475824000081,None,None,1,,,,,,,,,,,,,,112,2023-04-20_13h35.20.766,Main,2022.1.1,59.81197507087388,
positive,red,2,None,None,,,,,,,,,0,7,7,7,,,,,,,,,,,,,,,,,main,None,None,1,1.4988001000019722,166.65015170001425,None,None,1,,,,,,,,,,,,,,112,2023-04-20_13h35.20.766,Main,2022.1.1,59.81197507087388,
positive,yellow,1,None,k,,,,,,,,,0,8,8,8,,,,,,,,,,,,,,,,,main,None,None,1,1.499069800018333,169.1477176999906,None,None,1,,,,,,,,,,,,,,112,2023-04-20_13h35.20.766,Main,2022.1.1,59.81197507087388,
negative,red,1,None,None,,,,,,,,,0,9,9,9,,,,,,,,,,,,,,,,,main,None,None,1,1.498962700017728,171.6476285000099,None,None,1,,,,,,,,,,,,,,112,2023-04-20_13h35.20.766,Main,2022.1.1,59.81197507087388,
positive,yellow,1,None,k,,,,,,,,,0,10,10,10,,,,,,,,,,,,,,,,,main,None,None,1,1.499346999975387,174.15022129996214,None,None,1,,,,,,,,,,,,,,112,2023-04-20_13h35.20.766,Main,2022.1.1,59.81197507087388,
negative,yellow,1,k,None,,,,,,,,,0,11,11,11,,,,,,,,,,,,,,,,,main,k,k,1,0.8300430999952368,176.64758399996208,None,None,0,,,,,,,,,,,,,,112,2023-04-20_13h35.20.766,Main,2022.1.1,59.81197507087388,
negative,yellow,1,k,None,,,,,,,,,0,12,12,12,,,,,,,,,,,,,,,,,main,k,k,1,1.1862049999763258,178.48056220001308,None,None,0,,,,,,,,,,,,,,112,2023-04-20_13h35.20.766,Main,2022.1.1,59.81197507087388,
negative,red,2,None,None,,,,,,,,,0,13,13,13,,,,,,,,,,,,,,,,,main,None,None,1,1.4988310999469832,180.6643008000101,None,None,1,,,,,,,,,,,,,,112,2023-04-20_13h35.20.766,Main,2022.1.1,59.81197507087388,
positive,yellow,2,None,k,,,,,,,,,0,14,14,14,,,,,,,,,,,,,,,,,main,None,None,1,1.496380099968519,183.16649440000765,None,None,1,,,,,,,,,,,,,,112,2023-04-20_13h35.20.766,Main,2022.1.1,59.81197507087388,
positive,blue,1,k,None,,,,,,,,,0,15,15,15,,,,,,,,,,,,,,,,,main,k,k,1,0.6344972999650054,185.66381529998034,None,None,0,,,,,,,,,,,,,,112,2023-04-20_13h35.20.766,Main,2022.1.1,59.81197507087388,
negative,blue,1,None,k,,,,,,,,,0,16,16,16,,,,,,,,,,,,,,,,,main,None,None,1,1.4962273000273854,187.29980059998343,None,None,1,,,,,,,,,,,,,,112,2023-04-20_13h35.20.766,Main,2022.1.1,59.81197507087388,
positive,blue,2,k,None,,,,,,,,,0,17,17,17,,,,,,,,,,,,,,,,,main,k,k,1,0.7684512999840081,189.79728800000157,None,None,0,,,,,,,,,,,,,,112,2023-04-20_13h35.20.766,Main,2022.1.1,59.81197507087388,
negative,blue,2,None,k,,,,,,,,,0,18,18,18,,,,,,,,,,,,,,,,,main,None,None,1,1.4962814000318758,191.56622869998682,None,None,1,,,,,,,,,,,,,,112,2023-04-20_13h35.20.766,Main,2022.1.1,59.81197507087388,
negative,blue,1,None,k,,,,,,,,,0,19,19,19,,,,,,,,,,,,,,,,,main,None,None,1,1.501779499987606,194.0636308999965,None,None,1,,,,,,,,,,,,,,112,2023-04-20_13h35.20.766,Main,2022.1.1,59.81197507087388,
negative,blue,1,None,k,,,,,,,,,0,20,20,20,,,,,,,,,,,,,,,,,main,None,None,1,1.499169000016991,196.56628059997456,None,None,1,,,,,,,,,,,,,,112,2023-04-20_13h35.20.766,Main,2022.1.1,59.81197507087388,
negative,blue,2,None,k,,,,,,,,,0,21,21,21,,,,,,,,,,,,,,,,,main,None,None,1,1.4963704000110738,199.06599209998967,None,None,1,,,,,,,,,,,,,,112,2023-04-20_13h35.20.766,Main,2022.1.1,59.81197507087388,
negative,red,1,None,None,,,,,,,,,0,22,22,22,,,,,,,,,,,,,,,,,main,None,None,1,1.5016966999974102,201.56340749998344,None,None,1,,,,,,,,,,,,,,112,2023-04-20_13h35.20.766,Main,2022.1.1,59.81197507087388,
positive,red,2,None,None,,,,,,,,,0,23,23,23,,,,,,,,,,,,,,,,,main,None,None,1,1.4993069000192918,204.0661138999858,None,None,1,,,,,,,,,,,,,,112,2023-04-20_13h35.20.766,Main,2022.1.1,59.81197507087388,
negative,red,2,None,None,,,,,,,,,0,24,24,24,,,,,,,,,,,,,,,,,main,None,None,1,1.4961175000062212,206.56606069998816,None,None,1,,,,,,,,,,,,,,112,2023-04-20_13h35.20.766,Main,2022.1.1,59.81197507087388,
positive,blue,2,k,None,,,,,,,,,0,25,25,25,,,,,,,,,,,,,,,,,main,k,k,1,0.8021493999985978,209.0632673999644,None,None,0,,,,,,,,,,,,,,112,2023-04-20_13h35.20.766,Main,2022.1.1,59.81197507087388,
negative,yellow,1,k,None,,,,,,,,,0,26,26,26,,,,,,,,,,,,,,,,,main,k,k,1,1.0158339000190608,210.86587520001922,None,None,0,,,,,,,,,,,,,,112,2023-04-20_13h35.20.766,Main,2022.1.1,59.81197507087388,
positive,blue,2,k,None,,,,,,,,,0,27,27,27,,,,,,,,,,,,,,,,,main,k,k,1,0.7135654999874532,212.8824913999997,None,None,0,,,,,,,,,,,,,,112,2023-04-20_13h35.20.766,Main,2022.1.1,59.81197507087388,
negative,blue,2,None,k,,,,,,,,,0,28,28,28,,,,,,,,,,,,,,,,,main,None,None,1,1.4986638999544084,214.59904729999835,None,None,1,,,,,,,,,,,,,,112,2023-04-20_13h35.20.766,Main,2022.1.1,59.81197507087388,
positive,red,1,None,None,,,,,,,,,0,29,29,29,,,,,,,,,,,,,,,,,main,None,None,1,1.4990584999904968,217.10211869998602,None,None,1,,,,,,,,,,,,,,112,2023-04-20_13h35.20.766,Main,2022.1.1,59.81197507087388,
positive,blue,1,k,None,,,,,,,,,0,30,30,30,,,,,,,,,,,,,,,,,main,k,k,1,0.7685657000401989,219.59646049997536,None,None,0,,,,,,,,,,,,,,112,2023-04-20_13h35.20.766,Main,2022.1.1,59.81197507087388,
positive,yellow,1,None,k,,,,,,,,,0,31,31,31,,,,,,,,,,,,,,,,,main,None,k,0,0.7492746000061743,221.3657393999747,None,None,1,,,,,,,,,,,,,,112,2023-04-20_13h35.20.766,Main,2022.1.1,59.81197507087388,
negative,yellow,2,k,None,,,,,,,,,0,32,32,32,,,,,,,,,,,,,,,,,main,k,k,1,0.8955777999944985,224.11519589996897,None,None,0,,,,,,,,,,,,,,112,2023-04-20_13h35.20.766,Main,2022.1.1,59.81197507087388,
negative,blue,1,None,k,,,,,,,,,0,33,33,33,,,,,,,,,,,,,,,,,main,None,None,1,1.5011583000305109,226.01296199997887,None,None,1,,,,,,,,,,,,,,112,2023-04-20_13h35.20.766,Main,2022.1.1,59.81197507087388,
positive,blue,1,k,None,,,,,,,,,0,34,34,34,,,,,,,,,,,,,,,,,main,k,k,1,0.9997075999854133,228.51551719999406,None,None,0,,,,,,,,,,,,,,112,2023-04-20_13h35.20.766,Main,2022.1.1,59.81197507087388,
negative,yellow,1,k,None,,,,,,,,,0,35,35,35,,,,,,,,,,,,,,,,,main,k,k,1,0.7131457999930717,230.51552399998764,None,None,0,,,,,,,,,,,,,,112,2023-04-20_13h35.20.766,Main,2022.1.1,59.81197507087388,
positive,yellow,2,None,k,,,,,,,,,0,36,36,36,,,,,,,,,,,,,,,,,main,None,None,1,1.501141800021287,232.2319925999618,None,None,1,,,,,,,,,,,,,,112,2023-04-20_13h35.20.766,Main,2022.1.1,59.81197507087388,
positive,yellow,2,None,k,,,,,,,,,0,37,37,37,,,,,,,,,,,,,,,,,main,None,None,1,1.4988301999983378,234.72972170001594,None,None,1,,,,,,,,,,,,,,112,2023-04-20_13h35.20.766,Main,2022.1.1,59.81197507087388,
negative,yellow,2,k,None,,,,,,,,,0,38,38,38,,,,,,,,,,,,,,,,,main,k,k,1,0.7307434999966063,237.22971129999496,None,None,0,,,,,,,,,,,,,,112,2023-04-20_13h35.20.766,Main,2022.1.1,59.81197507087388,
positive,yellow,1,None,k,,,,,,,,,0,39,39,39,,,,,,,,,,,,,,,,,main,None,None,1,1.4988787999609485,238.9652237999835,None,None,1,,,,,,,,,,,,,,112,2023-04-20_13h35.20.766,Main,2022.1.1,59.81197507087388,
negative,yellow,2,k,None,,,,,,,,,0,40,40,40,,,,,,,,,,,,,,,,,main,k,k,1,0.7658658999716863,241.46284260001266,None,None,0,,,,,,,,,,,,,,112,2023-04-20_13h35.20.766,Main,2022.1.1,59.81197507087388,
positive,blue,2,k,None,,,,,,,,,0,41,41,41,,,,,,,,,,,,,,,,,main,k,k,1,0.8182634999975562,243.22951889998512,None,None,0,,,,,,,,,,,,,,112,2023-04-20_13h35.20.766,Main,2022.1.1,59.81197507087388,
positive,blue,2,k,None,,,,,,,,,0,42,42,42,,,,,,,,,,,,,,,,,main,k,k,1,0.6993040000088513,245.04850580001948,None,None,0,,,,,,,,,,,,,,112,2023-04-20_13h35.20.766,Main,2022.1.1,59.81197507087388,
negative,blue,2,None,k,,,,,,,,,0,43,43,43,,,,,,,,,,,,,,,,,main,None,None,1,1.4962346000247635,246.74601289996644,None,None,1,,,,,,,,,,,,,,112,2023-04-20_13h35.20.766,Main,2022.1.1,59.81197507087388,
negative,red,1,None,None,,,,,,,,,0,44,44,44,,,,,,,,,,,,,,,,,main,None,None,1,1.501751300005708,249.24585040000966,None,None,1,,,,,,,,,,,,,,112,2023-04-20_13h35.20.766,Main,2022.1.1,59.81197507087388,
negative,yellow,1,k,None,,,,,,,,,0,45,45,45,,,,,,,,,,,,,,,,,main,k,k,1,0.7827170999953523,251.74844260001555,None,None,0,,,,,,,,,,,,,,112,2023-04-20_13h35.20.766,Main,2022.1.1,59.81197507087388,
negative,yellow,1,k,None,,,,,,,,,0,46,46,46,,,,,,,,,,,,,,,,,main,k,k,1,0.732451600022614,253.53152690001298,None,None,0,,,,,,,,,,,,,,112,2023-04-20_13h35.20.766,Main,2022.1.1,59.81197507087388,
positive,red,1,None,None,,,,,,,,,0,47,47,47,,,,,,,,,,,,,,,,,main,None,None,1,1.4964883999782614,255.26502150000306,None,None,1,,,,,,,,,,,,,,112,2023-04-20_13h35.20.766,Main,2022.1.1,59.81197507087388,
positive,yellow,1,None,k,,,,,,,,,0,48,48,48,,,,,,,,,,,,,,,,,main,None,None,1,1.5016492999857292,257.76233130000765,None,None,1,,,,,,,,,,,,,,112,2023-04-20_13h35.20.766,Main,2022.1.1,59.81197507087388,
negative,blue,1,None,k,,,,,,,,,0,49,49,49,,,,,,,,,,,,,,,,,main,None,None,1,1.499204899999313,260.2648617000086,None,None,1,,,,,,,,,,,,,,112,2023-04-20_13h35.20.766,Main,2022.1.1,59.81197507087388,
positive,yellow,2,None,k,,,,,,,,,0,50,50,50,,,,,,,,,,,,,,,,,main,None,None,1,1.4966450000065379,262.7647059999872,None,None,1,,,,,,,,,,,,,,112,2023-04-20_13h35.20.766,Main,2022.1.1,59.81197507087388,
negative,blue,1,None,k,,,,,,,,,0,51,51,51,,,,,,,,,,,,,,,,,main,None,None,1,1.5016842000186443,265.2621039999649,None,None,1,,,,,,,,,,,,,,112,2023-04-20_13h35.20.766,Main,2022.1.1,59.81197507087388,
positive,red,2,None,None,,,,,,,,,0,52,52,52,,,,,,,,,,,,,,,,,main,None,None,1,1.499115000013262,267.7647281999816,None,None,1,,,,,,,,,,,,,,112,2023-04-20_13h35.20.766,Main,2022.1.1,59.81197507087388,
positive,yellow,2,None,k,,,,,,,,,0,53,53,53,,,,,,,,,,,,,,,,,main,None,None,1,1.4964895999873988,270.2648127999855,None,None,1,,,,,,,,,,,,,,112,2023-04-20_13h35.20.766,Main,2022.1.1,59.81197507087388,
negative,red,2,None,None,,,,,,,,,0,54,54,54,,,,,,,,,,,,,,,,,main,None,None,1,1.5017239999724552,272.76200739998603,None,None,1,,,,,,,,,,,,,,112,2023-04-20_13h35.20.766,Main,2022.1.1,59.81197507087388,
positive,yellow,1,None,k,,,,,,,,,0,55,55,55,,,,,,,,,,,,,,,,,main,None,None,1,1.4988659999798983,275.2645626000012,None,None,1,,,,,,,,,,,,,,112,2023-04-20_13h35.20.766,Main,2022.1.1,59.81197507087388,
negative,blue,2,None,k,,,,,,,,,0,56,56,56,,,,,,,,,,,,,,,,,main,None,None,1,1.4971489000017755,277.76215670001693,None,None,1,,,,,,,,,,,,,,112,2023-04-20_13h35.20.766,Main,2022.1.1,59.81197507087388,
positive,blue,1,k,None,,,,,,,,,0,57,57,57,,,,,,,,,,,,,,,,,main,k,k,1,1.268066100019496,280.26180989999557,None,None,0,,,,,,,,,,,,,,112,2023-04-20_13h35.20.766,Main,2022.1.1,59.81197507087388,
positive,blue,1,k,None,,,,,,,,,0,58,58,58,,,,,,,,,,,,,,,,,main,k,k,1,0.6658640999812633,282.53136349999113,None,None,0,,,,,,,,,,,,,,112,2023-04-20_13h35.20.766,Main,2022.1.1,59.81197507087388,
negative,yellow,2,k,None,,,,,,,,,0,59,59,59,,,,,,,,,,,,,,,,,main,k,k,1,0.6797836000332609,284.1978120999993,None,None,0,,,,,,,,,,,,,,112,2023-04-20_13h35.20.766,Main,2022.1.1,59.81197507087388,
positive,red,2,None,None,,,,,,,,,0,60,60,60,,,,,,,,,,,,,,,,,main,None,None,1,1.5016221000114456,285.8785266999621,None,None,1,,,,,,,,,,,,,,112,2023-04-20_13h35.20.766,Main,2022.1.1,59.81197507087388,
negative,yellow,1,k,None,,,,,,,,,0,61,61,61,,,,,,,,,,,,,,,,,main,k,k,1,0.7827522000297904,288.38106210000115,None,None,0,,,,,,,,,,,,,,112,2023-04-20_13h35.20.766,Main,2022.1.1,59.81197507087388,
negative,red,1,None,None,,,,,,,,,0,62,62,62,,,,,,,,,,,,,,,,,main,None,None,1,1.496588599984534,290.16429729998345,None,None,1,,,,,,,,,,,,,,112,2023-04-20_13h35.20.766,Main,2022.1.1,59.81197507087388,
negative,blue,1,None,k,,,,,,,,,0,63,63,63,,,,,,,,,,,,,,,,,main,None,None,1,1.5014566000318155,292.6615812999662,None,None,1,,,,,,,,,,,,,,112,2023-04-20_13h35.20.766,Main,2022.1.1,59.81197507087388,
positive,blue,2,k,None,,,,,,,,,0,64,64,64,,,,,,,,,,,,,,,,,main,k,k,1,0.7826953000039794,295.1642805999727,None,None,0,,,,,,,,,,,,,,112,2023-04-20_13h35.20.766,Main,2022.1.1,59.81197507087388,
negative,yellow,2,k,None,,,,,,,,,0,65,65,65,,,,,,,,,,,,,,,,,main,k,k,1,0.8454980999813415,296.9475081000128,None,None,0,,,,,,,,,,,,,,112,2023-04-20_13h35.20.766,Main,2022.1.1,59.81197507087388,
positive,yellow,2,None,k,,,,,,,,,0,66,66,66,,,,,,,,,,,,,,,,,main,None,None,1,1.5016526999534108,298.7947351000039,None,None,1,,,,,,,,,,,,,,112,2023-04-20_13h35.20.766,Main,2022.1.1,59.81197507087388,
positive,yellow,2,None,k,,,,,,,,,0,67,67,67,,,,,,,,,,,,,,,,,main,None,None,1,1.499087399977725,301.2974676999729,None,None,1,,,,,,,,,,,,,,112,2023-04-20_13h35.20.766,Main,2022.1.1,59.81197507087388,
positive,red,1,None,None,,,,,,,,,0,68,68,68,,,,,,,,,,,,,,,,,main,None,None,1,1.496440300019458,303.7971719999914,None,None,1,,,,,,,,,,,,,,112,2023-04-20_13h35.20.766,Main,2022.1.1,59.81197507087388,
positive,yellow,1,None,k,,,,,,,,,0,69,69,69,,,,,,,,,,,,,,,,,main,None,None,1,1.5019332999945618,306.29460610001115,None,None,1,,,,,,,,,,,,,,112,2023-04-20_13h35.20.766,Main,2022.1.1,59.81197507087388,
negative,yellow,2,k,None,,,,,,,,,0,70,70,70,,,,,,,,,,,,,,,,,main,k,k,1,0.9494095999980345,308.7973205000162,None,None,0,,,,,,,,,,,,,,112,2023-04-20_13h35.20.766,Main,2022.1.1,59.81197507087388,
positive,yellow,1,None,k,,,,,,,,,0,71,71,71,,,,,,,,,,,,,,,,,main,None,None,1,1.4989143999991938,310.74719660001574,None,None,1,,,,,,,,,,,,,,112,2023-04-20_13h35.20.766,Main,2022.1.1,59.81197507087388,
negative,blue,1,None,k,,,,,,,,,0,72,72,72,,,,,,,,,,,,,,,,,main,None,None,1,1.4987751999869943,313.24702120001893,None,None,1,,,,,,,,,,,,,,112,2023-04-20_13h35.20.766,Main,2022.1.1,59.81197507087388,
negative,red,2,None,None,,,,,,,,,0,73,73,73,,,,,,,,,,,,,,,,,main,None,None,1,1.4970488999970257,315.744661499979,None,None,1,,,,,,,,,,,,,,112,2023-04-20_13h35.20.766,Main,2022.1.1,59.81197507087388,
positive,blue,2,k,None,,,,,,,,,0,74,74,74,,,,,,,,,,,,,,,,,main,k,k,1,1.0351192000089213,318.24464759998955,None,None,0,,,,,,,,,,,,,,112,2023-04-20_13h35.20.766,Main,2022.1.1,59.81197507087388,
negative,blue,2,None,k,,,,,,,,,0,75,75,75,,,,,,,,,,,,,,,,,main,None,None,1,1.4960105000063777,320.28022020001663,None,None,1,,,,,,,,,,,,,,112,2023-04-20_13h35.20.766,Main,2022.1.1,59.81197507087388,
negative,blue,2,None,k,,,,,,,,,0,76,76,76,,,,,,,,,,,,,,,,,main,None,None,1,1.501793000032194,322.7776578000048,None,None,1,,,,,,,,,,,,,,112,2023-04-20_13h35.20.766,Main,2022.1.1,59.81197507087388,
negative,yellow,1,k,None,,,,,,,,,0,77,77,77,,,,,,,,,,,,,,,,,main,k,k,1,0.8470430999877863,325.2802665999625,None,None,0,,,,,,,,,,,,,,112,2023-04-20_13h35.20.766,Main,2022.1.1,59.81197507087388,
positive,blue,1,k,None,,,,,,,,,0,78,78,78,,,,,,,,,,,,,,,,,main,k,k,1,1.0054112000507303,327.130050399981,None,None,0,,,,,,,,,,,,,,112,2023-04-20_13h35.20.766,Main,2022.1.1,59.81197507087388,
positive,blue,1,k,None,,,,,,,,,0,79,79,79,,,,,,,,,,,,,,,,,main,k,k,1,0.5759895999799483,329.1322950000176,None,None,0,,,,,,,,,,,,,,112,2023-04-20_13h35.20.766,Main,2022.1.1,59.81197507087388,
positive,red,2,None,None,,,,,,,,,0,80,80,80,,,,,,,,,,,,,,,,,main,None,None,1,1.5015238999621943,330.7107679999899,None,None,1,,,,,,,,,,,,,,112,2023-04-20_13h35.20.766,Main,2022.1.1,59.81197507087388,
positive,yellow,2,None,k,,,,,,,,,0,81,81,81,,,,,,,,,,,,,,,,,main,None,None,1,1.4990841000108048,333.21334889996797,None,None,1,,,,,,,,,,,,,,112,2023-04-20_13h35.20.766,Main,2022.1.1,59.81197507087388,
positive,blue,1,k,None,,,,,,,,,0,82,82,82,,,,,,,,,,,,,,,,,main,k,k,1,0.7994280999992043,335.7131639000145,None,None,0,,,,,,,,,,,,,,112,2023-04-20_13h35.20.766,Main,2022.1.1,59.81197507087388,
negative,yellow,2,k,None,,,,,,,,,0,83,83,83,,,,,,,,,,,,,,,,,main,k,k,1,1.0965419999556616,337.5131921999855,None,None,0,,,,,,,,,,,,,,112,2023-04-20_13h35.20.766,Main,2022.1.1,59.81197507087388,
positive,blue,2,k,None,,,,,,,,,0,84,84,84,,,,,,,,,,,,,,,,,main,k,k,1,0.8829320999793708,339.61057610000717,None,None,0,,,,,,,,,,,,,,112,2023-04-20_13h35.20.766,Main,2022.1.1,59.81197507087388,
positive,yellow,1,None,k,,,,,,,,,0,85,85,85,,,,,,,,,,,,,,,,,main,None,None,1,1.5012407000176609,341.4965471000178,None,None,1,,,,,,,,,,,,,,112,2023-04-20_13h35.20.766,Main,2022.1.1,59.81197507087388,
positive,blue,2,k,None,,,,,,,,,0,86,86,86,,,,,,,,,,,,,,,,,main,k,k,1,0.7634306999971159,343.99647339998046,None,None,0,,,,,,,,,,,,,,112,2023-04-20_13h35.20.766,Main,2022.1.1,59.81197507087388,
positive,blue,1,k,None,,,,,,,,,0,87,87,87,,,,,,,,,,,,,,,,,main,k,k,1,0.6833353000110947,345.7629411999951,None,None,0,,,,,,,,,,,,,,112,2023-04-20_13h35.20.766,Main,2022.1.1,59.81197507087388,
negative,yellow,2,k,None,,,,,,,,,0,88,88,88,,,,,,,,,,,,,,,,,main,k,k,1,0.6313614000100642,347.4437513999874,None,None,0,,,,,,,,,,,,,,112,2023-04-20_13h35.20.766,Main,2022.1.1,59.81197507087388,
negative,blue,2,None,k,,,,,,,,,0,89,89,89,,,,,,,,,,,,,,,,,main,None,None,1,1.5017458000220358,349.0770429999684,None,None,1,,,,,,,,,,,,,,112,2023-04-20_13h35.20.766,Main,2022.1.1,59.81197507087388,
positive,yellow,2,None,k,,,,,,,,,0,90,90,90,,,,,,,,,,,,,,,,,main,None,None,1,1.4987865999573842,351.5796731999726,None,None,1,,,,,,,,,,,,,,112,2023-04-20_13h35.20.766,Main,2022.1.1,59.81197507087388,
negative,yellow,1,k,None,,,,,,,,,0,91,91,91,,,,,,,,,,,,,,,,,main,k,k,1,1.1635225999634713,354.0794679999817,None,None,0,,,,,,,,,,,,,,112,2023-04-20_13h35.20.766,Main,2022.1.1,59.81197507087388,
negative,red,2,None,None,,,,,,,,,0,92,92,92,,,,,,,,,,,,,,,,,main,None,None,1,1.5016565999831073,356.2435830999748,None,None,1,,,,,,,,,,,,,,112,2023-04-20_13h35.20.766,Main,2022.1.1,59.81197507087388,
negative,blue,2,None,k,,,,,,,,,0,93,93,93,,,,,,,,,,,,,,,,,main,None,None,1,1.4992724999901839,358.74620539997704,None,None,1,,,,,,,,,,,,,,112,2023-04-20_13h35.20.766,Main,2022.1.1,59.81197507087388,
negative,blue,1,None,k,,,,,,,,,0,94,94,94,,,,,,,,,,,,,,,,,main,None,None,1,1.498861100000795,361.24611999996705,None,None,1,,,,,,,,,,,,,,112,2023-04-20_13h35.20.766,Main,2022.1.1,59.81197507087388,
negative,blue,1,None,k,,,,,,,,,0,95,95,95,,,,,,,,,,,,,,,,,main,None,None,1,1.4965605000033975,363.7460367999738,None,None,1,,,,,,,,,,,,,,112,2023-04-20_13h35.20.766,Main,2022.1.1,59.81197507087388,
negative,red,1,None,None,,,,,,,,,0,96,96,96,,,,,,,,,,,,,,,,,main,None,None,1,1.5021683999802917,366.2433596000192,None,None,1,,,,,,,,,,,,,,112,2023-04-20_13h35.20.766,Main,2022.1.1,59.81197507087388,
positive,yellow,1,None,k,,,,,,,,,0,97,97,97,,,,,,,,,,,,,,,,,main,None,None,1,1.4982535999733955,368.7459545999882,None,None,1,,,,,,,,,,,,,,112,2023-04-20_13h35.20.766,Main,2022.1.1,59.81197507087388,
negative,yellow,1,k,None,,,,,,,,,0,98,98,98,,,,,,,,,,,,,,,,,main,k,k,1,0.8807310999836773,371.24584960000357,None,None,0,,,,,,,,,,,,,,112,2023-04-20_13h35.20.766,Main,2022.1.1,59.81197507087388,
positive,red,1,None,None,,,,,,,,,0,99,99,99,,,,,,,,,,,,,,,,,main,None,None,1,1.4991557000321336,373.12907759996597,None,None,1,,,,,,,,,,,,,,112,2023-04-20_13h35.20.766,Main,2022.1.1,59.81197507087388,
positive,blue,1,k,None,,,,,,,,,0,100,100,100,,,,,,,,,,,,,,,,,main,k,k,1,1.2846717999782413,375.6266070000129,None,None,0,,,,,,,,,,,,,,112,2023-04-20_13h35.20.766,Main,2022.1.1,59.81197507087388,
negative,yellow,1,k,None,,,,,,,,,0,101,101,101,,,,,,,,,,,,,,,,,main,k,k,1,0.6468242999981157,377.9124485999928,None,None,0,,,,,,,,,,,,,,112,2023-04-20_13h35.20.766,Main,2022.1.1,59.81197507087388,
negative,blue,2,None,k,,,,,,,,,0,102,102,102,,,,,,,,,,,,,,,,,main,None,None,1,1.4986989999888465,379.5623002999928,None,None,1,,,,,,,,,,,,,,112,2023-04-20_13h35.20.766,Main,2022.1.1,59.81197507087388,
negative,yellow,2,k,None,,,,,,,,,0,103,103,103,,,,,,,,,,,,,,,,,main,k,k,1,0.949484399985522,382.05992839997634,None,None,0,,,,,,,,,,,,,,112,2023-04-20_13h35.20.766,Main,2022.1.1,59.81197507087388,
positive,yellow,2,None,k,,,,,,,,,0,104,104,104,,,,,,,,,,,,,,,,,main,None,None,1,1.499031399958767,384.01215039996896,None,None,1,,,,,,,,,,,,,,112,2023-04-20_13h35.20.766,Main,2022.1.1,59.81197507087388,
positive,blue,1,k,None,,,,,,,,,0,105,105,105,,,,,,,,,,,,,,,,,main,k,k,1,0.7071021000156179,386.5098927000072,None,None,0,,,,,,,,,,,,,,112,2023-04-20_13h35.20.766,Main,2022.1.1,59.81197507087388,
positive,blue,2,k,None,,,,,,,,,0,106,106,106,,,,,,,,,,,,,,,,,main,k,k,1,0.6910049000289291,388.22101059998386,None,None,0,,,,,,,,,,,,,,112,2023-04-20_13h35.20.766,Main,2022.1.1,59.81197507087388,
negative,blue,1,None,k,,,,,,,,,0,107,107,107,,,,,,,,,,,,,,,,,main,None,None,1,1.5016858999733813,389.9095435999916,None,None,1,,,,,,,,,,,,,,112,2023-04-20_13h35.20.766,Main,2022.1.1,59.81197507087388,
positive,yellow,2,None,k,,,,,,,,,0,108,108,108,,,,,,,,,,,,,,,,,main,None,None,1,1.4989119000383653,392.41228310001316,None,None,1,,,,,,,,,,,,,,112,2023-04-20_13h35.20.766,Main,2022.1.1,59.81197507087388,
negative,yellow,1,k,None,,,,,,,,,0,109,109,109,,,,,,,,,,,,,,,,,main,k,k,1,0.6661084000370465,394.90973209997173,None,None,0,,,,,,,,,,,,,,112,2023-04-20_13h35.20.766,Main,2022.1.1,59.81197507087388,
negative,blue,2,None,k,,,,,,,,,0,110,110,110,,,,,,,,,,,,,,,,,main,None,None,1,1.4961864000069909,396.57639990001917,None,None,1,,,,,,,,,,,,,,112,2023-04-20_13h35.20.766,Main,2022.1.1,59.81197507087388,
positive,blue,2,k,None,,,,,,,,,0,111,111,111,,,,,,,,,,,,,,,,,main,k,k,1,0.8997730999835767,399.07601829996565,None,None,0,,,,,,,,,,,,,,112,2023-04-20_13h35.20.766,Main,2022.1.1,59.81197507087388,
negative,blue,1,None,k,,,,,,,,,0,112,112,112,,,,,,,,,,,,,,,,,main,None,None,1,1.5045251999981701,400.9763940999983,None,None,1,,,,,,,,,,,,,,112,2023-04-20_13h35.20.766,Main,2022.1.1,59.81197507087388,
positive,yellow,1,None,k,,,,,,,,,0,113,113,113,,,,,,,,,,,,,,,,,main,None,None,1,1.4957316999789327,403.48000009998213,None,None,1,,,,,,,,,,,,,,112,2023-04-20_13h35.20.766,Main,2022.1.1,59.81197507087388,
negative,red,1,None,None,,,,,,,,,0,114,114,114,,,,,,,,,,,,,,,,,main,None,None,1,1.4968262999900617,405.9784765999648,None,None,1,,,,,,,,,,,,,,112,2023-04-20_13h35.20.766,Main,2022.1.1,59.81197507087388,
positive,red,1,None,None,,,,,,,,,0,115,115,115,,,,,,,,,,,,,,,,,main,None,None,1,1.5013262000284158,408.476070899982,None,None,1,,,,,,,,,,,,,,112,2023-04-20_13h35.20.766,Main,2022.1.1,59.81197507087388,
negative,red,2,None,None,,,,,,,,,0,116,116,116,,,,,,,,,,,,,,,,,main,None,None,1,1.4989684000029229,410.9760571999941,None,None,1,,,,,,,,,,,,,,112,2023-04-20_13h35.20.766,Main,2022.1.1,59.81197507087388,
negative,yellow,2,k,None,,,,,,,,,0,117,117,117,,,,,,,,,,,,,,,,,main,k,k,1,0.8305750000290573,413.475920900004,None,None,0,,,,,,,,,,,,,,112,2023-04-20_13h35.20.766,Main,2022.1.1,59.81197507087388,
positive,yellow,1,None,k,,,,,,,,,0,118,118,118,,,,,,,,,,,,,,,,,main,None,None,1,1.5012002000003122,415.31150090001756,None,None,1,,,,,,,,,,,,,,112,2023-04-20_13h35.20.766,Main,2022.1.1,59.81197507087388,
positive,red,2,None,None,,,,,,,,,0,119,119,119,,,,,,,,,,,,,,,,,main,None,None,1,1.4968961999984458,417.8114629999618,None,None,1,,,,,,,,,,,,,,112,2023-04-20_13h35.20.766,Main,2022.1.1,59.81197507087388,
positive,blue,2,k,None,,,,,,,,,0,120,120,120,,,,,,,,,,,,,,,,,main,k,k,1,0.7825248999870382,420.30908159998944,None,None,0,,,,,,,,,,,,,,112,2023-04-20_13h35.20.766,Main,2022.1.1,59.81197507087388,
negative,red,1,None,None,,,,,,,,,0,121,121,121,,,,,,,,,,,,,,,,,main,None,None,1,1.5015763999545015,422.0922589999973,None,None,1,,,,,,,,,,,,,,112,2023-04-20_13h35.20.766,Main,2022.1.1,59.81197507087388,
positive,yellow,2,None,k,,,,,,,,,0,122,122,122,,,,,,,,,,,,,,,,,main,None,None,1,1.49678230000427,424.5948236999684,None,None,1,,,,,,,,,,,,,,112,2023-04-20_13h35.20.766,Main,2022.1.1,59.81197507087388,
negative,red,2,None,None,,,,,,,,,0,123,123,123,,,,,,,,,,,,,,,,,main,None,None,1,1.4988285000436008,427.0924550999771,None,None,1,,,,,,,,,,,,,,112,2023-04-20_13h35.20.766,Main,2022.1.1,59.81197507087388,
negative,yellow,2,k,None,,,,,,,,,0,124,124,124,,,,,,,,,,,,,,,,,main,k,k,1,1.1522204999928363,429.59223399998154,None,None,0,,,,,,,,,,,,,,112,2023-04-20_13h35.20.766,Main,2022.1.1,59.81197507087388,
positive,red,1,None,None,,,,,,,,,0,125,125,125,,,,,,,,,,,,,,,,,main,None,None,1,1.4987543000024743,431.74462020001374,None,None,1,,,,,,,,,,,,,,112,2023-04-20_13h35.20.766,Main,2022.1.1,59.81197507087388,
negative,blue,2,None,k,,,,,,,,,0,126,126,126,,,,,,,,,,,,,,,,,main,None,None,1,1.4989470000145957,434.244751399965,None,None,1,,,,,,,,,,,,,,112,2023-04-20_13h35.20.766,Main,2022.1.1,59.81197507087388,
negative,blue,1,None,k,,,,,,,,,0,127,127,127,,,,,,,,,,,,,,,,,main,None,None,1,1.4964568999712355,436.742162199982,None,None,1,,,,,,,,,,,,,,112,2023-04-20_13h35.20.766,Main,2022.1.1,59.81197507087388,
negative,yellow,1,k,None,,,,,,,,,0,128,128,128,,,,,,,,,,,,,,,,,main,k,k,1,1.0521577999461442,439.24185589997796,None,None,0,,,,,,,,,,,,,,112,2023-04-20_13h35.20.766,Main,2022.1.1,59.81197507087388,
negative,yellow,1,k,None,,,,,,,,,0,129,129,129,,,,,,,,,,,,,,,,,main,k,k,1,0.6822344000102021,441.2945464999648,None,None,0,,,,,,,,,,,,,,112,2023-04-20_13h35.20.766,Main,2022.1.1,59.81197507087388,
positive,blue,1,k,None,,,,,,,,,0,130,130,130,,,,,,,,,,,,,,,,,main,k,k,1,0.7469059000140987,442.9777670999756,None,None,0,,,,,,,,,,,,,,112,2023-04-20_13h35.20.766,Main,2022.1.1,59.81197507087388,
negative,blue,1,None,k,,,,,,,,,0,131,131,131,,,,,,,,,,,,,,,,,main,None,None,1,1.498340799997095,444.72759500000393,None,None,1,,,,,,,,,,,,,,112,2023-04-20_13h35.20.766,Main,2022.1.1,59.81197507087388,
negative,blue,2,None,k,,,,,,,,,0,132,132,132,,,,,,,,,,,,,,,,,main,None,None,1,1.5019731000065804,447.22501829999965,None,None,1,,,,,,,,,,,,,,112,2023-04-20_13h35.20.766,Main,2022.1.1,59.81197507087388,
positive,blue,2,k,None,,,,,,,,,0,133,133,133,,,,,,,,,,,,,,,,,main,k,k,1,0.7160191999864765,449.72764930000994,None,None,0,,,,,,,,,,,,,,112,2023-04-20_13h35.20.766,Main,2022.1.1,59.81197507087388,
positive,red,2,None,None,,,,,,,,,0,134,134,134,,,,,,,,,,,,,,,,,main,None,None,1,1.4987003999995068,451.4442196000018,None,None,1,,,,,,,,,,,,,,112,2023-04-20_13h35.20.766,Main,2022.1.1,59.81197507087388,
negative,yellow,2,k,None,,,,,,,,,0,135,135,135,,,,,,,,,,,,,,,,,main,k,k,1,1.1134288999601267,453.94406269997125,None,None,0,,,,,,,,,,,,,,112,2023-04-20_13h35.20.766,Main,2022.1.1,59.81197507087388,
positive,yellow,2,None,k,,,,,,,,,0,136,136,136,,,,,,,,,,,,,,,,,main,None,None,1,1.5016833000117913,456.0581717999885,None,None,1,,,,,,,,,,,,,,112,2023-04-20_13h35.20.766,Main,2022.1.1,59.81197507087388,
positive,blue,1,k,None,,,,,,,,,0,137,137,137,,,,,,,,,,,,,,,,,main,k,k,1,1.1826811999781057,458.560806399968,None,None,0,,,,,,,,,,,,,,112,2023-04-20_13h35.20.766,Main,2022.1.1,59.81197507087388,
positive,yellow,1,None,k,,,,,,,,,0,138,138,138,,,,,,,,,,,,,,,,,main,None,None,1,1.496310300019104,460.7441065000021,None,None,1,,,,,,,,,,,,,,112,2023-04-20_13h35.20.766,Main,2022.1.1,59.81197507087388,
positive,yellow,1,None,k,,,,,,,,,0,139,139,139,,,,,,,,,,,,,,,,,main,None,None,1,1.501922800031025,463.2413372999872,None,None,1,,,,,,,,,,,,,,112,2023-04-20_13h35.20.766,Main,2022.1.1,59.81197507087388,
positive,yellow,1,None,k,,,,,,,,,0,140,140,140,,,,,,,,,,,,,,,,,main,None,None,1,1.4988435000414029,465.7439752999926,None,None,1,,,,,,,,,,,,,,112,2023-04-20_13h35.20.766,Main,2022.1.1,59.81197507087388,
positive,blue,1,k,None,,,,,,,,,0,141,141,141,,,,,,,,,,,,,,,,,main,k,k,1,0.5971903999452479,468.2438027000171,None,None,0,,,,,,,,,,,,,,112,2023-04-20_13h35.20.766,Main,2022.1.1,59.81197507087388,
positive,blue,2,k,None,,,,,,,,,0,142,142,142,,,,,,,,,,,,,,,,,main,k,k,1,0.831980399962049,469.84152409998933,None,None,0,,,,,,,,,,,,,,112,2023-04-20_13h35.20.766,Main,2022.1.1,59.81197507087388,
positive,yellow,2,None,k,,,,,,,,,0,143,143,143,,,,,,,,,,,,,,,,,main,None,None,1,1.501560500008054,471.6745110999909,None,None,1,,,,,,,,,,,,,,112,2023-04-20_13h35.20.766,Main,2022.1.1,59.81197507087388,
negative,yellow,2,k,None,,,,,,,,,0,144,144,144,,,,,,,,,,,,,,,,,main,k,k,1,0.6660494999960065,474.1772561999969,None,None,0,,,,,,,,,,,,,,112,2023-04-20_13h35.20.766,Main,2022.1.1,59.81197507087388,
negative,blue,2,None,k,,,,,,,,,0,145,145,145,,,,,,,,,,,,,,,,,main,None,None,1,1.4986423999653198,475.843724699982,None,None,1,,,,,,,,,,,,,,112,2023-04-20_13h35.20.766,Main,2022.1.1,59.81197507087388,
negative,red,1,None,None,,,,,,,,,0,146,146,146,,,,,,,,,,,,,,,,,main,None,None,1,1.4965595999965444,478.3413368000183,None,None,1,,,,,,,,,,,,,,112,2023-04-20_13h35.20.766,Main,2022.1.1,59.81197507087388,
positive,blue,1,k,None,,,,,,,,,0,147,147,147,,,,,,,,,,,,,,,,,main,k,k,1,0.7020913999876939,480.84099990001414,None,None,0,,,,,,,,,,,,,,112,2023-04-20_13h35.20.766,Main,2022.1.1,59.81197507087388,
positive,yellow,1,None,k,,,,,,,,,0,148,148,148,,,,,,,,,,,,,,,,,main,None,None,1,1.4990080000134185,482.5436187000014,None,None,1,,,,,,,,,,,,,,112,2023-04-20_13h35.20.766,Main,2022.1.1,59.81197507087388,
negative,red,2,None,None,,,,,,,,,0,149,149,149,,,,,,,,,,,,,,,,,main,None,None,1,1.4990638000308536,485.04355719999876,None,None,1,,,,,,,,,,,,,,112,2023-04-20_13h35.20.766,Main,2022.1.1,59.81197507087388,
negative,blue,1,None,k,,,,,,,,,0,150,150,150,,,,,,,,,,,,,,,,,main,None,None,1,1.4964488000259735,487.54116449999856,None,None,1,,,,,,,,,,,,,,112,2023-04-20_13h35.20.766,Main,2022.1.1,59.81197507087388,
negative,yellow,2,k,None,,,,,,,,,0,151,151,151,,,,,,,,,,,,,,,,,main,k,k,1,0.7856408999650739,490.04078500001924,None,None,0,,,,,,,,,,,,,,112,2023-04-20_13h35.20.766,Main,2022.1.1,59.81197507087388,
negative,blue,2,None,k,,,,,,,,,0,152,152,152,,,,,,,,,,,,,,,,,main,None,None,1,1.498857099970337,491.8268348000129,None,None,1,,,,,,,,,,,,,,112,2023-04-20_13h35.20.766,Main,2022.1.1,59.81197507087388,
negative,yellow,1,k,None,,,,,,,,,0,153,153,153,,,,,,,,,,,,,,,,,main,k,k,1,0.6968879000050947,494.32668349996675,None,None,0,,,,,,,,,,,,,,112,2023-04-20_13h35.20.766,Main,2022.1.1,59.81197507087388,
negative,blue,1,None,k,,,,,,,,,0,154,154,154,,,,,,,,,,,,,,,,,main,None,None,1,1.4989988999441266,496.0265513000195,None,None,1,,,,,,,,,,,,,,112,2023-04-20_13h35.20.766,Main,2022.1.1,59.81197507087388,
positive,yellow,2,None,k,,,,,,,,,0,155,155,155,,,,,,,,,,,,,,,,,main,None,None,1,1.4988219999941066,498.52649219997693,None,None,1,,,,,,,,,,,,,,112,2023-04-20_13h35.20.766,Main,2022.1.1,59.81197507087388,
positive,red,2,None,None,,,,,,,,,0,156,156,156,,,,,,,,,,,,,,,,,main,None,None,1,1.5017342999926768,501.02395900001284,None,None,1,,,,,,,,,,,,,,112,2023-04-20_13h35.20.766,Main,2022.1.1,59.81197507087388,
positive,red,1,None,None,,,,,,,,,0,157,157,157,,,,,,,,,,,,,,,,,main,None,None,1,1.4991013999679126,503.5265953000053,None,None,1,,,,,,,,,,,,,,112,2023-04-20_13h35.20.766,Main,2022.1.1,59.81197507087388,
positive,blue,2,k,None,,,,,,,,,0,158,158,158,,,,,,,,,,,,,,,,,main,k,k,1,0.6799645000137389,506.02630739996675,None,None,0,,,,,,,,,,,,,,112,2023-04-20_13h35.20.766,Main,2022.1.1,59.81197507087388,
negative,yellow,1,k,None,,,,,,,,,0,159,159,159,,,,,,,,,,,,,,,,,main,k,k,1,2.7186303000198677,507.7070909999893,None,None,0,,,,,,,,,,,,,,112,2023-04-20_13h35.20.766,Main,2022.1.1,59.81197507087388,
negative,red,2,None,None,,,,,,,,,0,160,160,160,,,,,,,,,,,,,,,,,main,None,None,1,1.5012118999729864,512.4263350999681,None,None,1,,,,,,,,,,,,,,112,2023-04-20_13h35.20.766,Main,2022.1.1,59.81197507087388,
negative,blue,1,None,k,,,,,,,,,0,161,161,161,,,,,,,,,,,,,,,,,main,None,None,1,0.7170229000039399,514.9239125999738,None,None,1,,,,,,,,,,,,,,112,2023-04-20_13h35.20.766,Main,2022.1.1,59.81197507087388,
negative,blue,1,None,k,,,,,,,,,0,162,162,162,,,,,,,,,,,,,,,,,main,None,k,0,-0.8047219000291079,516.6405487000011,None,None,1,,,,,,,,,,,,,,112,2023-04-20_13h35.20.766,Main,2022.1.1,59.81197507087388,
negative,yellow,1,k,None,,,,,,,,,0,163,163,163,,,,,,,,,,,,,,,,,main,k,k,1,1.132621900003869,519.8426910999697,None,None,0,,,,,,,,,,,,,,112,2023-04-20_13h35.20.766,Main,2022.1.1,59.81197507087388,
negative,yellow,1,k,None,,,,,,,,,0,164,164,164,,,,,,,,,,,,,,,,,main,k,k,1,0.7318346999818459,521.9760035999934,None,None,0,,,,,,,,,,,,,,112,2023-04-20_13h35.20.766,Main,2022.1.1,59.81197507087388,
positive,yellow,1,None,k,,,,,,,,,0,165,165,165,,,,,,,,,,,,,,,,,main,None,None,1,1.4991173999733292,523.7067495000083,None,None,1,,,,,,,,,,,,,,112,2023-04-20_13h35.20.766,Main,2022.1.1,59.81197507087388,
negative,red,1,None,None,,,,,,,,,0,166,166,166,,,,,,,,,,,,,,,,,main,None,None,1,1.5016301000141539,526.2067569000064,None,None,1,,,,,,,,,,,,,,112,2023-04-20_13h35.20.766,Main,2022.1.1,59.81197507087388,
negative,yellow,2,k,None,,,,,,,,,0,167,167,167,,,,,,,,,,,,,,,,,main,k,k,1,0.7638247999711893,528.7093749999767,None,None,0,,,,,,,,,,,,,,112,2023-04-20_13h35.20.766,Main,2022.1.1,59.81197507087388,
positive,blue,2,k,None,,,,,,,,,0,168,168,168,,,,,,,,,,,,,,,,,main,k,k,1,0.7157249000156298,530.4735878999927,None,None,0,,,,,,,,,,,,,,112,2023-04-20_13h35.20.766,Main,2022.1.1,59.81197507087388,
positive,red,2,None,None,,,,,,,,,0,169,169,169,,,,,,,,,,,,,,,,,main,None,None,1,1.4984853999922052,532.1924588999827,None,None,1,,,,,,,,,,,,,,112,2023-04-20_13h35.20.766,Main,2022.1.1,59.81197507087388,
positive,red,1,None,None,,,,,,,,,0,170,170,170,,,,,,,,,,,,,,,,,main,None,None,1,1.502612299984321,534.6899218999897,None,None,1,,,,,,,,,,,,,,112,2023-04-20_13h35.20.766,Main,2022.1.1,59.81197507087388,
negative,blue,2,None,k,,,,,,,,,0,171,171,171,,,,,,,,,,,,,,,,,main,None,None,1,1.4981215999578126,537.1925508999848,None,None,1,,,,,,,,,,,,,,112,2023-04-20_13h35.20.766,Main,2022.1.1,59.81197507087388,
positive,blue,2,k,None,,,,,,,,,0,172,172,172,,,,,,,,,,,,,,,,,main,k,k,1,0.7329523999942467,539.6900840000017,None,None,0,,,,,,,,,,,,,,112,2023-04-20_13h35.20.766,Main,2022.1.1,59.81197507087388,
negative,yellow,2,k,None,,,,,,,,,0,173,173,173,,,,,,,,,,,,,,,,,main,k,k,1,0.7795088999555446,541.4256392999669,None,None,0,,,,,,,,,,,,,,112,2023-04-20_13h35.20.766,Main,2022.1.1,59.81197507087388,
positive,yellow,2,None,k,,,,,,,,,0,174,174,174,,,,,,,,,,,,,,,,,main,None,None,1,1.501750199997332,543.2063633999787,None,None,1,,,,,,,,,,,,,,112,2023-04-20_13h35.20.766,Main,2022.1.1,59.81197507087388,
negative,blue,2,None,k,,,,,,,,,0,175,175,175,,,,,,,,,,,,,,,,,main,None,None,1,1.4987793000182137,545.7090080999769,None,None,1,,,,,,,,,,,,,,112,2023-04-20_13h35.20.766,Main,2022.1.1,59.81197507087388,
positive,blue,1,k,None,,,,,,,,,0,176,176,176,,,,,,,,,,,,,,,,,main,k,k,1,0.6975168999633752,548.2087757000118,None,None,0,,,,,,,,,,,,,,112,2023-04-20_13h35.20.766,Main,2022.1.1,59.81197507087388,
positive,yellow,1,None,k,,,,,,,,,0,177,177,177,,,,,,,,,,,,,,,,,main,None,None,1,1.500884400040377,549.9065995999845,None,None,1,,,,,,,,,,,,,,112,2023-04-20_13h35.20.766,Main,2022.1.1,59.81197507087388,
positive,blue,1,k,None,,,,,,,,,0,178,178,178,,,,,,,,,,,,,,,,,main,k,k,1,0.682902800035663,552.4086871999898,None,None,0,,,,,,,,,,,,,,112,2023-04-20_13h35.20.766,Main,2022.1.1,59.81197507087388,
positive,yellow,2,None,k,,,,,,,,,0,179,179,179,,,,,,,,,,,,,,,,,main,None,None,1,1.5018688999698497,554.0897522000014,None,None,1,,,,,,,,,,,,,,112,2023-04-20_13h35.20.766,Main,2022.1.1,59.81197507087388,
positive,blue,1,k,None,,,,,,,,,0,180,180,180,,,,,,,,,,,,,,,,,main,k,k,1,0.6783571999985725,556.5930992999929,None,None,0,,,,,,,,,,,,,,112,2023-04-20_13h35.20.766,Main,2022.1.1,59.81197507087388,
negative,red,1,None,None,,,,,,,,,0,181,181,181,,,,,,,,,,,,,,,,,main,None,None,1,1.5012476000119932,558.2727768999757,None,None,1,,,,,,,,,,,,,,112,2023-04-20_13h35.20.766,Main,2022.1.1,59.81197507087388,
negative,blue,1,None,k,,,,,,,,,0,182,182,182,,,,,,,,,,,,,,,,,main,None,None,1,1.4991510000545532,560.7753370999708,None,None,1,,,,,,,,,,,,,,112,2023-04-20_13h35.20.766,Main,2022.1.1,59.81197507087388,
negative,yellow,2,k,None,,,,,,,,,0,183,183,183,,,,,,,,,,,,,,,,,main,k,k,1,1.4127209999714978,563.2728929999867,None,None,0,,,,,,,,,,,,,,112,2023-04-20_13h35.20.766,Main,2022.1.1,59.81197507087388,
positive,yellow,2,None,k,,,,,,,,,0,184,184,184,,,,,,,,,,,,,,,,,main,None,None,1,1.4985832000384107,565.6895497000078,None,None,1,,,,,,,,,,,,,,112,2023-04-20_13h35.20.766,Main,2022.1.1,59.81197507087388,
positive,yellow,1,None,k,,,,,,,,,0,185,185,185,,,,,,,,,,,,,,,,,main,None,None,1,1.5019286000169814,568.1892253999831,None,None,1,,,,,,,,,,,,,,112,2023-04-20_13h35.20.766,Main,2022.1.1,59.81197507087388,
positive,red,2,None,None,,,,,,,,,0,186,186,186,,,,,,,,,,,,,,,,,main,None,None,1,1.4988781999563798,570.6917556999833,None,None,1,,,,,,,,,,,,,,112,2023-04-20_13h35.20.766,Main,2022.1.1,59.81197507087388,
positive,blue,1,k,None,,,,,,,,,0,187,187,187,,,,,,,,,,,,,,,,,main,k,k,1,0.8328025999944657,573.1893622999778,None,None,0,,,,,,,,,,,,,,112,2023-04-20_13h35.20.766,Main,2022.1.1,59.81197507087388,
negative,yellow,1,k,None,,,,,,,,,0,188,188,188,,,,,,,,,,,,,,,,,main,k,k,1,0.7297170999809168,575.0248963999911,None,None,0,,,,,,,,,,,,,,112,2023-04-20_13h35.20.766,Main,2022.1.1,59.81197507087388,
positive,yellow,2,None,k,,,,,,,,,0,189,189,189,,,,,,,,,,,,,,,,,main,None,None,1,1.501599500013981,576.755657200003,None,None,1,,,,,,,,,,,,,,112,2023-04-20_13h35.20.766,Main,2022.1.1,59.81197507087388,
negative,yellow,2,k,None,,,,,,,,,0,190,190,190,,,,,,,,,,,,,,,,,main,k,k,1,0.6660219000186771,579.2583087999956,None,None,0,,,,,,,,,,,,,,112,2023-04-20_13h35.20.766,Main,2022.1.1,59.81197507087388,
negative,yellow,1,k,None,,,,,,,,,0,191,191,191,,,,,,,,,,,,,,,,,main,k,k,1,0.7630747999646701,580.9249894999666,None,None,0,,,,,,,,,,,,,,112,2023-04-20_13h35.20.766,Main,2022.1.1,59.81197507087388,
positive,blue,2,k,None,,,,,,,,,0,192,192,192,,,,,,,,,,,,,,,,,main,k,k,1,0.8519335999735631,582.6888561999658,None,None,0,,,,,,,,,,,,,,112,2023-04-20_13h35.20.766,Main,2022.1.1,59.81197507087388,
positive,yellow,1,None,k,,,,,,,,,0,193,193,193,,,,,,,,,,,,,,,,,main,None,None,1,1.4988741999841295,584.5415687999921,None,None,1,,,,,,,,,,,,,,112,2023-04-20_13h35.20.766,Main,2022.1.1,59.81197507087388,
negative,red,2,None,None,,,,,,,,,0,194,194,194,,,,,,,,,,,,,,,,,main,None,None,1,1.4962584000313655,587.0414790000068,None,None,1,,,,,,,,,,,,,,112,2023-04-20_13h35.20.766,Main,2022.1.1,59.81197507087388,
positive,red,1,None,None,,,,,,,,,0,195,195,195,,,,,,,,,,,,,,,,,main,None,None,1,1.502059599966742,589.5387145999703,None,None,1,,,,,,,,,,,,,,112,2023-04-20_13h35.20.766,Main,2022.1.1,59.81197507087388,
negative,blue,1,None,k,,,,,,,,,0,196,196,196,,,,,,,,,,,,,,,,,main,None,None,1,1.498779600020498,592.0414556000032,None,None,1,,,,,,,,,,,,,,112,2023-04-20_13h35.20.766,Main,2022.1.1,59.81197507087388,
positive,blue,2,k,None,,,,,,,,,0,197,197,197,,,,,,,,,,,,,,,,,main,k,k,1,0.846684800053481,594.5411554999882,None,None,0,,,,,,,,,,,,,,112,2023-04-20_13h35.20.766,Main,2022.1.1,59.81197507087388,
negative,blue,2,None,k,,,,,,,,,0,198,198,198,,,,,,,,,,,,,,,,,main,None,None,1,1.5015588999958709,596.3885887999786,None,None,1,,,,,,,,,,,,,,112,2023-04-20_13h35.20.766,Main,2022.1.1,59.81197507087388,
negative,blue,2,None,k,,,,,,,,,0,199,199,199,,,,,,,,,,,,,,,,,main,None,None,1,1.4992421999922954,598.8912153000128,None,None,1,,,,,,,,,,,,,,112,2023-04-20_13h35.20.766,Main,2022.1.1,59.81197507087388,
positive,blue,2,k,None,,,,,,,,,0,200,200,200,,,,,,,,,,,,,,,,,main,k,k,1,0.7465846000122838,601.3912172999699,None,None,0,,,,,,,,,,,,,,112,2023-04-20_13h35.20.766,Main,2022.1.1,59.81197507087388,
positive,blue,2,k,None,,,,,,,,,0,201,201,201,,,,,,,,,,,,,,,,,main,k,k,1,0.6325268999789841,603.138443999982,None,None,0,,,,,,,,,,,,,,112,2023-04-20_13h35.20.766,Main,2022.1.1,59.81197507087388,
negative,yellow,2,k,None,,,,,,,,,0,202,202,202,,,,,,,,,,,,,,,,,main,k,k,1,0.785107399977278,604.7717822999693,None,None,0,,,,,,,,,,,,,,112,2023-04-20_13h35.20.766,Main,2022.1.1,59.81197507087388,
positive,red,1,None,None,,,,,,,,,0,203,203,203,,,,,,,,,,,,,,,,,main,None,None,1,1.4988777000107802,606.5576901999884,None,None,1,,,,,,,,,,,,,,112,2023-04-20_13h35.20.766,Main,2022.1.1,59.81197507087388,
negative,blue,2,None,k,,,,,,,,,0,204,204,204,,,,,,,,,,,,,,,,,main,None,None,1,1.496495999977924,609.0552759999991,None,None,1,,,,,,,,,,,,,,112,2023-04-20_13h35.20.766,Main,2022.1.1,59.81197507087388,
negative,red,1,None,None,,,,,,,,,0,205,205,205,,,,,,,,,,,,,,,,,main,None,None,1,1.501878100039903,611.5549181000097,None,None,1,,,,,,,,,,,,,,112,2023-04-20_13h35.20.766,Main,2022.1.1,59.81197507087388,
negative,blue,2,None,k,,,,,,,,,0,206,206,206,,,,,,,,,,,,,,,,,main,None,None,1,1.4989579999819398,614.0574889999698,None,None,1,,,,,,,,,,,,,,112,2023-04-20_13h35.20.766,Main,2022.1.1,59.81197507087388,
negative,yellow,2,k,None,,,,,,,,,0,207,207,207,,,,,,,,,,,,,,,,,main,k,k,1,0.7992165999603458,616.5575337000191,None,None,0,,,,,,,,,,,,,,112,2023-04-20_13h35.20.766,Main,2022.1.1,59.81197507087388,
positive,yellow,2,None,k,,,,,,,,,0,208,208,208,,,,,,,,,,,,,,,,,main,None,None,1,1.4963873000233434,618.3573480999912,None,None,1,,,,,,,,,,,,,,112,2023-04-20_13h35.20.766,Main,2022.1.1,59.81197507087388,
negative,yellow,1,k,None,,,,,,,,,0,209,209,209,,,,,,,,,,,,,,,,,main,k,k,1,0.7828516999725252,620.8547189999954,None,None,0,,,,,,,,,,,,,,112,2023-04-20_13h35.20.766,Main,2022.1.1,59.81197507087388,
negative,red,2,None,None,,,,,,,,,0,210,210,210,,,,,,,,,,,,,,,,,main,None,None,1,1.5013936000177637,622.6380957000074,None,None,1,,,,,,,,,,,,,,112,2023-04-20_13h35.20.766,Main,2022.1.1,59.81197507087388,
negative,blue,1,None,k,,,,,,,,,0,211,211,211,,,,,,,,,,,,,,,,,main,None,None,1,1.4988439000444487,625.1406325999997,None,None,1,,,,,,,,,,,,,,112,2023-04-20_13h35.20.766,Main,2022.1.1,59.81197507087388,
negative,yellow,1,k,None,,,,,,,,,0,212,212,212,,,,,,,,,,,,,,,,,main,k,k,1,1.180437900009565,627.6404731000075,None,None,0,,,,,,,,,,,,,,112,2023-04-20_13h35.20.766,Main,2022.1.1,59.81197507087388,
positive,blue,1,k,None,,,,,,,,,0,213,213,213,,,,,,,,,,,,,,,,,main,k,k,1,0.9017763999872841,629.8212190999766,None,None,0,,,,,,,,,,,,,,112,2023-04-20_13h35.20.766,Main,2022.1.1,59.81197507087388,
positive,blue,1,k,None,,,,,,,,,0,214,214,214,,,,,,,,,,,,,,,,,main,k,k,1,0.7824125000042841,631.7238271000097,None,None,0,,,,,,,,,,,,,,112,2023-04-20_13h35.20.766,Main,2022.1.1,59.81197507087388,
positive,yellow,1,None,k,,,,,,,,,0,215,215,215,,,,,,,,,,,,,,,,,main,None,None,1,1.4958180999965407,633.5071268000174,None,None,1,,,,,,,,,,,,,,112,2023-04-20_13h35.20.766,Main,2022.1.1,59.81197507087388,
positive,yellow,1,None,k,,,,,,,,,0,216,216,216,,,,,,,,,,,,,,,,,main,None,k,0,0.8162005000049248,636.0044313999824,None,None,1,,,,,,,,,,,,,,112,2023-04-20_13h35.20.766,Main,2022.1.1,59.81197507087388,
positive,yellow,2,None,k,,,,,,,,,0,217,217,217,,,,,,,,,,,,,,,,,main,None,None,1,1.488116100023035,638.8236947999685,None,None,1,,,,,,,,,,,,,,112,2023-04-20_13h35.20.766,Main,2022.1.1,59.81197507087388,
negative,blue,1,None,k,,,,,,,,,0,218,218,218,,,,,,,,,,,,,,,,,main,None,None,1,1.4951758999959566,641.3091058999998,None,None,1,,,,,,,,,,,,,,112,2023-04-20_13h35.20.766,Main,2022.1.1,59.81197507087388,
positive,red,2,None,None,,,,,,,,,0,219,219,219,,,,,,,,,,,,,,,,,main,None,None,1,1.4966022999724373,643.8046092999866,None,None,1,,,,,,,,,,,,,,112,2023-04-20_13h35.20.766,Main,2022.1.1,59.81197507087388,
positive,yellow,1,None,k,,,,,,,,,0,220,220,220,,,,,,,,,,,,,,,,,main,None,None,1,1.5016309000202455,646.3042424999876,None,None,1,,,,,,,,,,,,,,112,2023-04-20_13h35.20.766,Main,2022.1.1,59.81197507087388,
positive,blue,1,k,None,,,,,,,,,0,221,221,221,,,,,,,,,,,,,,,,,main,k,k,1,0.897077800007537,648.8069366000127,None,None,0,,,,,,,,,,,,,,112,2023-04-20_13h35.20.766,Main,2022.1.1,59.81197507087388,
positive,yellow,2,None,k,,,,,,,,,0,222,222,222,,,,,,,,,,,,,,,,,main,None,None,1,1.501141699962318,650.7044180000084,None,None,1,,,,,,,,,,,,,,112,2023-04-20_13h35.20.766,Main,2022.1.1,59.81197507087388,
negative,yellow,1,k,None,,,,,,,,,0,223,223,223,,,,,,,,,,,,,,,,,main,k,k,1,0.9324819999746978,653.2065502000041,None,None,0,,,,,,,,,,,,,,112,2023-04-20_13h35.20.766,Main,2022.1.1,59.81197507087388,
positive,yellow,2,None,k,,,,,,,,,0,224,224,224,,,,,,,,,,,,,,,,,main,None,None,1,1.4990706000244245,655.1398333999678,None,None,1,,,,,,,,,,,,,,112,2023-04-20_13h35.20.766,Main,2022.1.1,59.81197507087388,
negative,yellow,2,k,None,,,,,,,,,0,225,225,225,,,,,,,,,,,,,,,,,main,k,k,1,0.7630015999893658,657.637628299999,None,None,0,,,,,,,,,,,,,,112,2023-04-20_13h35.20.766,Main,2022.1.1,59.81197507087388,
negative,blue,2,None,k,,,,,,,,,0,226,226,226,,,,,,,,,,,,,,,,,main,None,None,1,1.5018108000513166,659.4039264000021,None,None,1,,,,,,,,,,,,,,112,2023-04-20_13h35.20.766,Main,2022.1.1,59.81197507087388,
positive,red,2,None,None,,,,,,,,,0,227,227,227,,,,,,,,,,,,,,,,,main,None,None,1,1.4988548000110313,661.9065311999875,None,None,1,,,,,,,,,,,,,,112,2023-04-20_13h35.20.766,Main,2022.1.1,59.81197507087388,
positive,blue,2,k,None,,,,,,,,,0,228,228,228,,,,,,,,,,,,,,,,,main,k,k,1,0.7968383000115864,664.406604299962,None,None,0,,,,,,,,,,,,,,112,2023-04-20_13h35.20.766,Main,2022.1.1,59.81197507087388,
negative,blue,1,None,k,,,,,,,,,0,229,229,229,,,,,,,,,,,,,,,,,main,None,None,1,1.4989080000086688,666.203801799973,None,None,1,,,,,,,,,,,,,,112,2023-04-20_13h35.20.766,Main,2022.1.1,59.81197507087388,
positive,yellow,1,None,k,,,,,,,,,0,230,230,230,,,,,,,,,,,,,,,,,main,None,None,1,1.5020049000158906,668.7037941999733,None,None,1,,,,,,,,,,,,,,112,2023-04-20_13h35.20.766,Main,2022.1.1,59.81197507087388,
negative,blue,2,None,k,,,,,,,,,0,231,231,231,,,,,,,,,,,,,,,,,main,None,None,1,1.4987733999732882,671.2064329999848,None,None,1,,,,,,,,,,,,,,112,2023-04-20_13h35.20.766,Main,2022.1.1,59.81197507087388,
negative,red,1,None,None,,,,,,,,,0,232,232,232,,,,,,,,,,,,,,,,,main,None,None,1,1.4963459999999031,673.7062124999939,None,None,1,,,,,,,,,,,,,,112,2023-04-20_13h35.20.766,Main,2022.1.1,59.81197507087388,
positive,blue,2,k,None,,,,,,,,,0,233,233,233,,,,,,,,,,,,,,,,,main,k,k,1,4.518966600007843,676.2035771000083,None,None,0,,,,,,,,,,,,,,112,2023-04-20_13h35.20.766,Main,2022.1.1,59.81197507087388,
negative,yellow,1,k,None,,,,,,,,,0,234,234,234,,,,,,,,,,,,,,,,,main,k,k,1,0.7518549000378698,682.7367677000002,None,None,0,,,,,,,,,,,,,,112,2023-04-20_13h35.20.766,Main,2022.1.1,59.81197507087388,
negative,yellow,2,k,None,,,,,,,,,0,235,235,235,,,,,,,,,,,,,,,,,main,k,k,1,0.6327586999977939,684.4871306999703,None,None,0,,,,,,,,,,,,,,112,2023-04-20_13h35.20.766,Main,2022.1.1,59.81197507087388,
positive,red,1,None,None,,,,,,,,,0,236,236,236,,,,,,,,,,,,,,,,,main,None,None,1,1.5003624000237323,686.1227888999856,None,None,1,,,,,,,,,,,,,,112,2023-04-20_13h35.20.766,Main,2022.1.1,59.81197507087388,
negative,red,2,None,None,,,,,,,,,0,237,237,237,,,,,,,,,,,,,,,,,main,None,None,1,1.4967325999750756,688.6224894999759,None,None,1,,,,,,,,,,,,,,112,2023-04-20_13h35.20.766,Main,2022.1.1,59.81197507087388,
negative,blue,1,None,k,,,,,,,,,0,238,238,238,,,,,,,,,,,,,,,,,main,None,None,1,1.501622200012207,691.1199242000002,None,None,1,,,,,,,,,,,,,,112,2023-04-20_13h35.20.766,Main,2022.1.1,59.81197507087388,
positive,blue,1,k,None,,,,,,,,,0,239,239,239,,,,,,,,,,,,,,,,,main,k,k,1,0.6826006000046618,693.6225916999974,None,None,0,,,,,,,,,,,,,,112,2023-04-20_13h35.20.766,Main,2022.1.1,59.81197507087388,
,,,,,,,,,,,,,,,,,,,,,,,,,,,,,,,,,,,,,,,,,,,,,,,,,,,,,695.3058212000178,None,,,,,,
