distractor,target,set,ans1,ans2,rep_loop4.thisRepN,rep_loop4.thisTrialN,rep_loop4.thisN,rep_loop4.thisIndex,st2_prac_loop.thisRepN,st2_prac_loop.thisTrialN,st2_prac_loop.thisN,st2_prac_loop.thisIndex,st2_main_loop.thisRepN,st2_main_loop.thisTrialN,st2_main_loop.thisN,st2_main_loop.thisIndex,image_4.started,image_4.stopped,sound_2.started,sound_2.stopped,key_resp_3.keys,key_resp_3.rt,image_5.started,image_5.stopped,st_prac_back.started,st_prac_back.stopped,st_prac_text.started,st_prac_text.stopped,st_fix_back.started,st_fix_back.stopped,st_fix_2.started,st_fix_2.stopped,main_prac,st_ans,st_res,st_corr,st_rt,st_back.started,st_back.stopped,st2_resp.keys,st2_resp.corr,st_main_back.started,st_main_back.stopped,st_main_text.started,st_main_text.stopped,mouse_4.x,mouse_4.y,mouse_4.leftButton,mouse_4.midButton,mouse_4.rightButton,mouse_4.started,mouse_4.stopped,text_2.started,text_2.stopped,id*,date,expName,psychopyVersion,frameRate,
negative,yellow,1,k,None,,,,,0,0,0,0,,,,,113.56032349995803,None,117.9316534000449,None,space,10.9421474999981,128.89760429994203,None,131.3646423999453,None,131.3646423999453,None,133.37877680000383,None,133.37877680000383,None,prac,None,None,1,1.505056699970737,135.38497240003198,None,None,1,,,,,,,,,,,,,,201,2023-04-24_10h36.11.867,Main,2022.1.1,60.03842461874288,
positive,red,2,None,None,,,,,0,1,1,1,,,,,,,,,,,,,,,,,,,,,prac,None,None,1,1.496104700025171,137.89794990001246,None,None,1,,,,,,,,,,,,,,201,2023-04-24_10h36.11.867,Main,2022.1.1,60.03842461874288,
negative,blue,2,None,k,,,,,0,2,2,2,,,,,,,,,,,,,,,,,,,,,prac,k,k,1,0.9687070000218228,140.39512789994478,None,None,0,,,,,,,,,,,,,,201,2023-04-24_10h36.11.867,Main,2022.1.1,60.03842461874288,
positive,yellow,1,None,k,,,,,0,3,3,3,,,,,,,,,,,,,,,,,,,,,prac,k,k,1,0.8169579000677913,142.3644828000106,None,None,0,,,,,,,,,,,,,,201,2023-04-24_10h36.11.867,Main,2022.1.1,60.03842461874288,
negative,blue,2,None,k,,,,,0,4,4,4,,,,,,,,,,,,,,,,,,,,,prac,k,k,1,0.7136635000351816,144.18113239994273,None,None,0,,,,,,,,,,,,,,201,2023-04-24_10h36.11.867,Main,2022.1.1,60.03842461874288,
negative,blue,1,None,k,,,,,0,5,5,5,,,,,,,,,,,,,,,,,,,,,prac,k,k,1,1.0836155998986214,145.89502109994646,None,None,0,,,,,,,,,,,,,,201,2023-04-24_10h36.11.867,Main,2022.1.1,60.03842461874288,
negative,yellow,2,k,None,,,,,0,6,6,6,,,,,,,,,,,,,,,,,,,,,prac,None,None,1,1.4985829000361264,147.98119119997136,None,None,1,,,,,,,,,,,,,,201,2023-04-24_10h36.11.867,Main,2022.1.1,60.03842461874288,
negative,red,1,None,None,,,,,0,7,7,7,,,,,,,,,,,,,,,,,,,,,prac,None,None,1,1.499154799967073,150.48097409994807,None,None,1,,,,,,,,,,,,,,201,2023-04-24_10h36.11.867,Main,2022.1.1,60.03842461874288,
positive,yellow,2,None,k,,,,,0,8,8,8,,,,,,,,,,,,,,,,,,,,,prac,k,k,1,1.0300724999979138,152.9807086000219,None,None,0,,,,,,,,,,,,,,201,2023-04-24_10h36.11.867,Main,2022.1.1,60.03842461874288,
negative,yellow,1,k,None,,,,,0,9,9,9,,,,,,,,,,,,,,,,,,,,,prac,None,None,1,1.5017557000974193,155.0115612000227,None,None,1,,,,,,,,,,,,,,201,2023-04-24_10h36.11.867,Main,2022.1.1,60.03842461874288,
positive,yellow,2,None,k,,,,,0,10,10,10,,,,,,,,,,,,,,,,,,,,,prac,k,k,1,0.7826198999537155,157.51418890000787,None,None,0,,,,,,,,,,,,,,201,2023-04-24_10h36.11.867,Main,2022.1.1,60.03842461874288,
negative,yellow,2,k,None,,,,,0,11,11,11,,,,,,,,,,,,,,,,,,,,,prac,None,None,1,1.499056899920106,159.29748860001564,None,None,1,,,,,,,,,,,,,,201,2023-04-24_10h36.11.867,Main,2022.1.1,60.03842461874288,
negative,red,2,None,None,,,,,0,12,12,12,,,,,,,,,,,,,,,,,,,,,prac,None,None,1,1.4962083999998868,161.79722069995478,None,None,1,,,,,,,,,,,,,,201,2023-04-24_10h36.11.867,Main,2022.1.1,60.03842461874288,
positive,red,1,None,None,,,,,0,13,13,13,,,,,,,,,,,,,,,,,,,,,prac,None,None,1,1.5018086000345647,164.2946519999532,None,None,1,,,,,,,,,,,,,,201,2023-04-24_10h36.11.867,Main,2022.1.1,60.03842461874288,
positive,blue,2,k,None,,,,,0,14,14,14,,,,,,,,,,,,,,,,,,,,,prac,None,None,1,1.5020916999783367,166.79720060003456,None,None,1,,,,,,,,,,,,,,201,2023-04-24_10h36.11.867,Main,2022.1.1,60.03842461874288,
positive,blue,1,k,None,,,,,0,15,15,15,,,,,,,,,,,,,,,,,,,,,prac,None,None,1,1.4937636000104249,169.29808340000454,None,None,1,,,,,,,,,,,,,,201,2023-04-24_10h36.11.867,Main,2022.1.1,60.03842461874288,
negative,blue,1,None,k,,,,,0,16,16,16,,,,,,,,,,,,,,,,,,,,,prac,k,k,1,0.8185417000204325,171.7945645999862,None,None,0,,,,,,,,,,,,,,201,2023-04-24_10h36.11.867,Main,2022.1.1,60.03842461874288,
positive,blue,2,k,None,,,,,0,17,17,17,,,,,,,,,,,,,,,,,,,,,prac,None,None,1,1.4990654999855906,173.61385710001923,None,None,1,,,,,,,,,,,,,,201,2023-04-24_10h36.11.867,Main,2022.1.1,60.03842461874288,
positive,blue,1,k,None,,,,,0,18,18,18,,,,,,,,,,,,,,,,,,,,,prac,None,None,1,1.496630199952051,176.11371970002074,None,None,1,,,,,,,,,,,,,,201,2023-04-24_10h36.11.867,Main,2022.1.1,60.03842461874288,
positive,yellow,1,None,k,,,,,0,19,19,19,,,,,,,,,,,,,,,,,,,,,prac,k,k,1,1.335328400018625,178.61102169996593,None,None,0,,,,,,,,,,,,,,201,2023-04-24_10h36.11.867,Main,2022.1.1,60.03842461874288,
negative,yellow,1,k,None,,,,,1,0,20,0,,,,,,,,,,,,,,,,,,,,,prac,None,None,1,1.4990288999397308,180.94705860002432,None,None,1,,,,,,,,,,,,,,201,2023-04-24_10h36.11.867,Main,2022.1.1,60.03842461874288,
positive,red,2,None,None,,,,,1,1,21,1,,,,,,,,,,,,,,,,,,,,,prac,None,None,1,1.498765300028026,183.44702880003024,None,None,1,,,,,,,,,,,,,,201,2023-04-24_10h36.11.867,Main,2022.1.1,60.03842461874288,
negative,blue,2,None,k,,,,,1,2,22,2,,,,,,,,,,,,,,,,,,,,,prac,k,k,1,0.913755499990657,185.94672370003536,None,None,0,,,,,,,,,,,,,,201,2023-04-24_10h36.11.867,Main,2022.1.1,60.03842461874288,
positive,yellow,1,None,k,,,,,1,3,23,3,,,,,,,,,,,,,,,,,,,,,prac,k,k,1,0.7155900000361726,187.8608659999445,None,None,0,,,,,,,,,,,,,,201,2023-04-24_10h36.11.867,Main,2022.1.1,60.03842461874288,
negative,blue,2,None,k,,,,,1,4,24,4,,,,,,,,,,,,,,,,,,,,,prac,k,k,1,0.6852897999342531,189.57753000000957,None,None,0,,,,,,,,,,,,,,201,2023-04-24_10h36.11.867,Main,2022.1.1,60.03842461874288,
negative,blue,1,None,k,,,,,1,5,25,5,,,,,,,,,,,,,,,,,,,,,prac,k,k,1,0.7326825000345707,191.26348470000084,None,None,0,,,,,,,,,,,,,,201,2023-04-24_10h36.11.867,Main,2022.1.1,60.03842461874288,
negative,yellow,2,k,None,,,,,1,6,26,6,,,,,,,,,,,,,,,,,,,,,prac,None,None,1,1.4955241000279784,192.99675549997482,None,None,1,,,,,,,,,,,,,,201,2023-04-24_10h36.11.867,Main,2022.1.1,60.03842461874288,
negative,red,1,None,None,,,,,1,7,27,7,,,,,,,,,,,,,,,,,,,,,prac,None,None,1,1.5014066000003368,195.4940924999537,None,None,1,,,,,,,,,,,,,,201,2023-04-24_10h36.11.867,Main,2022.1.1,60.03842461874288,
positive,yellow,2,None,k,,,,,1,8,28,8,,,,,,,,,,,,,,,,,,,,,prac,k,k,1,0.9329373999498785,197.99660129996482,None,None,0,,,,,,,,,,,,,,201,2023-04-24_10h36.11.867,Main,2022.1.1,60.03842461874288,
negative,yellow,1,k,None,,,,,1,9,29,9,,,,,,,,,,,,,,,,,,,,,prac,None,None,1,1.4986466000555083,199.93030080001336,None,None,1,,,,,,,,,,,,,,201,2023-04-24_10h36.11.867,Main,2022.1.1,60.03842461874288,
positive,yellow,2,None,k,,,,,1,10,30,10,,,,,,,,,,,,,,,,,,,,,prac,k,k,1,0.8139546999009326,202.42980529996566,None,None,0,,,,,,,,,,,,,,201,2023-04-24_10h36.11.867,Main,2022.1.1,60.03842461874288,
negative,yellow,2,k,None,,,,,1,11,31,11,,,,,,,,,,,,,,,,,,,,,prac,None,None,1,1.501263300073333,204.24386549997143,None,None,1,,,,,,,,,,,,,,201,2023-04-24_10h36.11.867,Main,2022.1.1,60.03842461874288,
negative,red,2,None,None,,,,,1,12,32,12,,,,,,,,,,,,,,,,,,,,,prac,None,None,1,1.5019639000529423,206.74652010004502,None,None,1,,,,,,,,,,,,,,201,2023-04-24_10h36.11.867,Main,2022.1.1,60.03842461874288,
positive,red,1,None,None,,,,,1,13,33,13,,,,,,,,,,,,,,,,,,,,,prac,None,None,1,1.4990493000950664,209.24768819997553,None,None,1,,,,,,,,,,,,,,201,2023-04-24_10h36.11.867,Main,2022.1.1,60.03842461874288,
positive,blue,2,k,None,,,,,1,14,34,14,,,,,,,,,,,,,,,,,,,,,prac,None,None,1,1.493303900002502,211.74750679999124,None,None,1,,,,,,,,,,,,,,201,2023-04-24_10h36.11.867,Main,2022.1.1,60.03842461874288,
positive,blue,1,k,None,,,,,1,15,35,15,,,,,,,,,,,,,,,,,,,,,prac,None,None,1,1.5019302999135107,214.24370330001693,None,None,1,,,,,,,,,,,,,,201,2023-04-24_10h36.11.867,Main,2022.1.1,60.03842461874288,
negative,blue,1,None,k,,,,,1,16,36,16,,,,,,,,,,,,,,,,,,,,,prac,k,k,1,0.7801223000278696,216.746257300023,None,None,0,,,,,,,,,,,,,,201,2023-04-24_10h36.11.867,Main,2022.1.1,60.03842461874288,
positive,blue,2,k,None,,,,,1,17,37,17,,,,,,,,,,,,,,,,,,,,,prac,None,None,1,1.5014684000052512,218.5268914999906,None,None,1,,,,,,,,,,,,,,201,2023-04-24_10h36.11.867,Main,2022.1.1,60.03842461874288,
positive,blue,1,k,None,,,,,1,18,38,18,,,,,,,,,,,,,,,,,,,,,prac,None,None,1,1.498929199995473,221.02957230003085,None,None,1,,,,,,,,,,,,,,201,2023-04-24_10h36.11.867,Main,2022.1.1,60.03842461874288,
positive,yellow,1,None,k,,,,,1,19,39,19,,,,,,,,,,,,,,,,,,,,,prac,k,k,1,0.9133395000826567,223.52947820001282,None,None,0,,,,,,,,,,,,,,201,2023-04-24_10h36.11.867,Main,2022.1.1,60.03842461874288,
,,,,,,,,,,,,,,,,,,,,,,,,,,,,,,,,,,,,,,,,,,225.4434212000342,None,225.4434212000342,None,0.027777778,0.09351852,0,0,0,0.014035200118087232,None,,,201,2023-04-24_10h36.11.867,Main,2022.1.1,60.03842461874288,
negative,yellow,2,k,None,,,,,,,,,0,0,0,0,,,,,,,,,,,,,230.69331789994612,None,230.69331789994612,None,main,None,None,1,1.5000244000693783,232.72070369997527,None,None,1,,,,,,,,,,,,,,201,2023-04-24_10h36.11.867,Main,2022.1.1,60.03842461874288,
positive,red,1,None,None,,,,,,,,,0,1,1,1,,,,,,,,,,,,,,,,,main,None,None,1,1.4997861000010744,235.22919899993576,None,None,1,,,,,,,,,,,,,,201,2023-04-24_10h36.11.867,Main,2022.1.1,60.03842461874288,
positive,blue,2,k,None,,,,,,,,,0,2,2,2,,,,,,,,,,,,,,,,,main,None,None,1,1.4982665999559686,237.7267203000374,None,None,1,,,,,,,,,,,,,,201,2023-04-24_10h36.11.867,Main,2022.1.1,60.03842461874288,
positive,blue,1,k,None,,,,,,,,,0,3,3,3,,,,,,,,,,,,,,,,,main,None,None,1,1.499174700002186,240.22912889998406,None,None,1,,,,,,,,,,,,,,201,2023-04-24_10h36.11.867,Main,2022.1.1,60.03842461874288,
negative,yellow,2,k,None,,,,,,,,,0,4,4,4,,,,,,,,,,,,,,,,,main,None,None,1,1.5020395999308676,242.72895090002567,None,None,1,,,,,,,,,,,,,,201,2023-04-24_10h36.11.867,Main,2022.1.1,60.03842461874288,
positive,yellow,2,None,k,,,,,,,,,0,5,5,5,,,,,,,,,,,,,,,,,main,k,k,1,0.9798397000413388,245.23011759994552,None,None,0,,,,,,,,,,,,,,201,2023-04-24_10h36.11.867,Main,2022.1.1,60.03842461874288,
negative,blue,2,None,k,,,,,,,,,0,6,6,6,,,,,,,,,,,,,,,,,main,k,k,1,0.7154911999823526,247.20429689995944,None,None,0,,,,,,,,,,,,,,201,2023-04-24_10h36.11.867,Main,2022.1.1,60.03842461874288,
positive,red,2,None,None,,,,,,,,,0,7,7,7,,,,,,,,,,,,,,,,,main,None,None,1,1.4990156000712886,248.928848200012,None,None,1,,,,,,,,,,,,,,201,2023-04-24_10h36.11.867,Main,2022.1.1,60.03842461874288,
positive,yellow,1,None,k,,,,,,,,,0,8,8,8,,,,,,,,,,,,,,,,,main,k,k,1,0.9800189000088722,251.42657609994058,None,None,0,,,,,,,,,,,,,,201,2023-04-24_10h36.11.867,Main,2022.1.1,60.03842461874288,
negative,red,1,None,None,,,,,,,,,0,9,9,9,,,,,,,,,,,,,,,,,main,None,None,1,1.501436399994418,253.40977969998494,None,None,1,,,,,,,,,,,,,,201,2023-04-24_10h36.11.867,Main,2022.1.1,60.03842461874288,
positive,yellow,1,None,k,,,,,,,,,0,10,10,10,,,,,,,,,,,,,,,,,main,k,k,1,0.8492474999511614,255.9121592999436,None,None,0,,,,,,,,,,,,,,201,2023-04-24_10h36.11.867,Main,2022.1.1,60.03842461874288,
negative,yellow,1,k,None,,,,,,,,,0,11,11,11,,,,,,,,,,,,,,,,,main,None,None,1,1.498693099943921,257.76220500003546,None,None,1,,,,,,,,,,,,,,201,2023-04-24_10h36.11.867,Main,2022.1.1,60.03842461874288,
negative,yellow,1,k,None,,,,,,,,,0,12,12,12,,,,,,,,,,,,,,,,,main,None,None,1,1.49682290002238,260.2619396999944,None,None,1,,,,,,,,,,,,,,201,2023-04-24_10h36.11.867,Main,2022.1.1,60.03842461874288,
negative,red,2,None,None,,,,,,,,,0,13,13,13,,,,,,,,,,,,,,,,,main,None,None,1,1.501980199944228,262.7595442000311,None,None,1,,,,,,,,,,,,,,201,2023-04-24_10h36.11.867,Main,2022.1.1,60.03842461874288,
positive,yellow,2,None,k,,,,,,,,,0,14,14,14,,,,,,,,,,,,,,,,,main,k,k,1,1.0159660000354052,265.2620154999895,None,None,0,,,,,,,,,,,,,,201,2023-04-24_10h36.11.867,Main,2022.1.1,60.03842461874288,
positive,blue,1,k,None,,,,,,,,,0,15,15,15,,,,,,,,,,,,,,,,,main,None,None,1,1.4986133999191225,267.2791443000315,None,None,1,,,,,,,,,,,,,,201,2023-04-24_10h36.11.867,Main,2022.1.1,60.03842461874288,
negative,blue,1,None,k,,,,,,,,,0,16,16,16,,,,,,,,,,,,,,,,,main,k,k,1,0.8799100000178441,269.7761797000421,None,None,0,,,,,,,,,,,,,,201,2023-04-24_10h36.11.867,Main,2022.1.1,60.03842461874288,
positive,blue,2,k,None,,,,,,,,,0,17,17,17,,,,,,,,,,,,,,,,,main,None,None,1,1.5018447000766173,271.6591383999912,None,None,1,,,,,,,,,,,,,,201,2023-04-24_10h36.11.867,Main,2022.1.1,60.03842461874288,
negative,blue,2,None,k,,,,,,,,,0,18,18,18,,,,,,,,,,,,,,,,,main,k,k,1,0.93035600008443,274.1618857999565,None,None,0,,,,,,,,,,,,,,201,2023-04-24_10h36.11.867,Main,2022.1.1,60.03842461874288,
negative,blue,1,None,k,,,,,,,,,0,19,19,19,,,,,,,,,,,,,,,,,main,k,k,1,0.8978742000181228,276.0925049999496,None,None,0,,,,,,,,,,,,,,201,2023-04-24_10h36.11.867,Main,2022.1.1,60.03842461874288,
negative,blue,1,None,k,,,,,,,,,0,20,20,20,,,,,,,,,,,,,,,,,main,k,k,1,0.8686057000886649,277.99239899998065,None,None,0,,,,,,,,,,,,,,201,2023-04-24_10h36.11.867,Main,2022.1.1,60.03842461874288,
negative,blue,2,None,k,,,,,,,,,0,21,21,21,,,,,,,,,,,,,,,,,main,k,k,1,0.6824564000125974,279.8617979999399,None,None,0,,,,,,,,,,,,,,201,2023-04-24_10h36.11.867,Main,2022.1.1,60.03842461874288,
negative,red,1,None,None,,,,,,,,,0,22,22,22,,,,,,,,,,,,,,,,,main,None,None,1,1.4984219999751076,281.54492310003843,None,None,1,,,,,,,,,,,,,,201,2023-04-24_10h36.11.867,Main,2022.1.1,60.03842461874288,
positive,red,2,None,None,,,,,,,,,0,23,23,23,,,,,,,,,,,,,,,,,main,None,None,1,1.496626100037247,284.044879199937,None,None,1,,,,,,,,,,,,,,201,2023-04-24_10h36.11.867,Main,2022.1.1,60.03842461874288,
negative,red,2,None,None,,,,,,,,,0,24,24,24,,,,,,,,,,,,,,,,,main,None,None,1,1.5016240000259131,286.5423496000003,None,None,1,,,,,,,,,,,,,,201,2023-04-24_10h36.11.867,Main,2022.1.1,60.03842461874288,
positive,blue,2,k,None,,,,,,,,,0,25,25,25,,,,,,,,,,,,,,,,,main,None,None,1,1.4993558999849483,289.04471549997106,None,None,1,,,,,,,,,,,,,,201,2023-04-24_10h36.11.867,Main,2022.1.1,60.03842461874288,
negative,yellow,1,k,None,,,,,,,,,0,26,26,26,,,,,,,,,,,,,,,,,main,None,None,1,1.4986539999954402,291.5448503999505,None,None,1,,,,,,,,,,,,,,201,2023-04-24_10h36.11.867,Main,2022.1.1,60.03842461874288,
positive,blue,2,k,None,,,,,,,,,0,27,27,27,,,,,,,,,,,,,,,,,main,None,None,1,1.496744200005196,294.0445843000198,None,None,1,,,,,,,,,,,,,,201,2023-04-24_10h36.11.867,Main,2022.1.1,60.03842461874288,
negative,blue,2,None,k,,,,,,,,,0,28,28,28,,,,,,,,,,,,,,,,,main,k,k,1,0.6997473000083119,296.54196319996845,None,None,0,,,,,,,,,,,,,,201,2023-04-24_10h36.11.867,Main,2022.1.1,60.03842461874288,
positive,red,1,None,None,,,,,,,,,0,29,29,29,,,,,,,,,,,,,,,,,main,None,None,1,1.5013123999815434,298.2420069000218,None,None,1,,,,,,,,,,,,,,201,2023-04-24_10h36.11.867,Main,2022.1.1,60.03842461874288,
positive,blue,1,k,None,,,,,,,,,0,30,30,30,,,,,,,,,,,,,,,,,main,None,None,1,1.4965835999464616,300.74454949994106,None,None,1,,,,,,,,,,,,,,201,2023-04-24_10h36.11.867,Main,2022.1.1,60.03842461874288,
positive,yellow,1,None,k,,,,,,,,,0,31,31,31,,,,,,,,,,,,,,,,,main,k,k,1,0.7856696000089869,303.2418255000375,None,None,0,,,,,,,,,,,,,,201,2023-04-24_10h36.11.867,Main,2022.1.1,60.03842461874288,
negative,yellow,2,k,None,,,,,,,,,0,32,32,32,,,,,,,,,,,,,,,,,main,None,None,1,1.4992520000087097,305.0278688999824,None,None,1,,,,,,,,,,,,,,201,2023-04-24_10h36.11.867,Main,2022.1.1,60.03842461874288,
negative,blue,1,None,k,,,,,,,,,0,33,33,33,,,,,,,,,,,,,,,,,main,k,k,1,0.5795109999598935,307.5278187999502,None,None,0,,,,,,,,,,,,,,201,2023-04-24_10h36.11.867,Main,2022.1.1,60.03842461874288,
positive,blue,1,k,None,,,,,,,,,0,34,34,34,,,,,,,,,,,,,,,,,main,None,None,1,1.5015784000279382,309.10837849997915,None,None,1,,,,,,,,,,,,,,201,2023-04-24_10h36.11.867,Main,2022.1.1,60.03842461874288,
negative,yellow,1,k,None,,,,,,,,,0,35,35,35,,,,,,,,,,,,,,,,,main,None,None,1,1.498928000102751,311.61104210000485,None,None,1,,,,,,,,,,,,,,201,2023-04-24_10h36.11.867,Main,2022.1.1,60.03842461874288,
positive,yellow,2,None,k,,,,,,,,,0,36,36,36,,,,,,,,,,,,,,,,,main,k,k,1,1.1166037999792024,314.11119399999734,None,None,0,,,,,,,,,,,,,,201,2023-04-24_10h36.11.867,Main,2022.1.1,60.03842461874288,
positive,yellow,2,None,k,,,,,,,,,0,37,37,37,,,,,,,,,,,,,,,,,main,k,k,1,0.8986197999911383,316.2249982999638,None,None,0,,,,,,,,,,,,,,201,2023-04-24_10h36.11.867,Main,2022.1.1,60.03842461874288,
negative,yellow,2,k,None,,,,,,,,,0,38,38,38,,,,,,,,,,,,,,,,,main,None,None,1,1.4979632999747992,318.12755480001215,None,None,1,,,,,,,,,,,,,,201,2023-04-24_10h36.11.867,Main,2022.1.1,60.03842461874288,
positive,yellow,1,None,k,,,,,,,,,0,39,39,39,,,,,,,,,,,,,,,,,main,k,k,1,0.7639742000028491,320.6248207000317,None,None,0,,,,,,,,,,,,,,201,2023-04-24_10h36.11.867,Main,2022.1.1,60.03842461874288,
negative,yellow,2,k,None,,,,,,,,,0,40,40,40,,,,,,,,,,,,,,,,,main,None,None,1,1.5013193000340834,322.3915076999692,None,None,1,,,,,,,,,,,,,,201,2023-04-24_10h36.11.867,Main,2022.1.1,60.03842461874288,
positive,blue,2,k,None,,,,,,,,,0,41,41,41,,,,,,,,,,,,,,,,,main,None,None,1,1.4967399999732152,324.8940442999592,None,None,1,,,,,,,,,,,,,,201,2023-04-24_10h36.11.867,Main,2022.1.1,60.03842461874288,
positive,blue,2,k,None,,,,,,,,,0,42,42,42,,,,,,,,,,,,,,,,,main,None,None,1,1.5015454000094905,327.39134590001777,None,None,1,,,,,,,,,,,,,,201,2023-04-24_10h36.11.867,Main,2022.1.1,60.03842461874288,
negative,blue,2,None,k,,,,,,,,,0,43,43,43,,,,,,,,,,,,,,,,,main,k,k,1,0.6662897999631241,329.8939404999837,None,None,0,,,,,,,,,,,,,,201,2023-04-24_10h36.11.867,Main,2022.1.1,60.03842461874288,
negative,red,1,None,None,,,,,,,,,0,44,44,44,,,,,,,,,,,,,,,,,main,None,None,1,1.4985143999801949,331.56064759998117,None,None,1,,,,,,,,,,,,,,201,2023-04-24_10h36.11.867,Main,2022.1.1,60.03842461874288,
negative,yellow,1,k,None,,,,,,,,,0,45,45,45,,,,,,,,,,,,,,,,,main,None,None,1,1.4967973999446258,334.060352099943,None,None,1,,,,,,,,,,,,,,201,2023-04-24_10h36.11.867,Main,2022.1.1,60.03842461874288,
negative,yellow,1,k,None,,,,,,,,,0,46,46,46,,,,,,,,,,,,,,,,,main,None,None,1,1.501668700017035,336.5578209999949,None,None,1,,,,,,,,,,,,,,201,2023-04-24_10h36.11.867,Main,2022.1.1,60.03842461874288,
positive,red,1,None,None,,,,,,,,,0,47,47,47,,,,,,,,,,,,,,,,,main,None,None,1,1.4989801000338048,339.0605285000056,None,None,1,,,,,,,,,,,,,,201,2023-04-24_10h36.11.867,Main,2022.1.1,60.03842461874288,
positive,yellow,1,None,k,,,,,,,,,0,48,48,48,,,,,,,,,,,,,,,,,main,k,k,1,0.7825026001082733,341.56025229999796,None,None,0,,,,,,,,,,,,,,201,2023-04-24_10h36.11.867,Main,2022.1.1,60.03842461874288,
negative,blue,1,None,k,,,,,,,,,0,49,49,49,,,,,,,,,,,,,,,,,main,k,k,1,0.6969142000889406,343.34356019995175,None,None,0,,,,,,,,,,,,,,201,2023-04-24_10h36.11.867,Main,2022.1.1,60.03842461874288,
positive,yellow,2,None,k,,,,,,,,,0,50,50,50,,,,,,,,,,,,,,,,,main,k,k,1,0.7490906999446452,345.04097570001613,None,None,0,,,,,,,,,,,,,,201,2023-04-24_10h36.11.867,Main,2022.1.1,60.03842461874288,
negative,blue,1,None,k,,,,,,,,,0,51,51,51,,,,,,,,,,,,,,,,,main,k,k,1,0.6513805000577122,346.79126930003986,None,None,0,,,,,,,,,,,,,,201,2023-04-24_10h36.11.867,Main,2022.1.1,60.03842461874288,
positive,red,2,None,None,,,,,,,,,0,52,52,52,,,,,,,,,,,,,,,,,main,None,None,1,1.4990929000778124,348.44352149998304,None,None,1,,,,,,,,,,,,,,201,2023-04-24_10h36.11.867,Main,2022.1.1,60.03842461874288,
positive,yellow,2,None,k,,,,,,,,,0,53,53,53,,,,,,,,,,,,,,,,,main,k,k,1,0.831153400009498,350.94351010001265,None,None,0,,,,,,,,,,,,,,201,2023-04-24_10h36.11.867,Main,2022.1.1,60.03842461874288,
negative,red,2,None,None,,,,,,,,,0,54,54,54,,,,,,,,,,,,,,,,,main,None,None,1,1.4988809999777004,352.7741457000375,None,None,1,,,,,,,,,,,,,,201,2023-04-24_10h36.11.867,Main,2022.1.1,60.03842461874288,
positive,yellow,1,None,k,,,,,,,,,0,55,55,55,,,,,,,,,,,,,,,,,main,k,k,1,0.7345812000567093,355.2741772000445,None,None,0,,,,,,,,,,,,,,201,2023-04-24_10h36.11.867,Main,2022.1.1,60.03842461874288,
negative,blue,2,None,k,,,,,,,,,0,56,56,56,,,,,,,,,,,,,,,,,main,k,k,1,0.6826777000678703,357.0100087999599,None,None,0,,,,,,,,,,,,,,201,2023-04-24_10h36.11.867,Main,2022.1.1,60.03842461874288,
positive,blue,1,k,None,,,,,,,,,0,57,57,57,,,,,,,,,,,,,,,,,main,None,None,1,1.4963461000006646,358.6934179000091,None,None,1,,,,,,,,,,,,,,201,2023-04-24_10h36.11.867,Main,2022.1.1,60.03842461874288,
positive,blue,1,k,None,,,,,,,,,0,58,58,58,,,,,,,,,,,,,,,,,main,None,None,1,1.5014824999962002,361.19097590004094,None,None,1,,,,,,,,,,,,,,201,2023-04-24_10h36.11.867,Main,2022.1.1,60.03842461874288,
negative,yellow,2,k,None,,,,,,,,,0,59,59,59,,,,,,,,,,,,,,,,,main,None,None,1,1.4966829000040889,363.6932592999656,None,None,1,,,,,,,,,,,,,,201,2023-04-24_10h36.11.867,Main,2022.1.1,60.03842461874288,
positive,red,2,None,None,,,,,,,,,0,60,60,60,,,,,,,,,,,,,,,,,main,None,None,1,1.5018226000247523,366.1905686999671,None,None,1,,,,,,,,,,,,,,201,2023-04-24_10h36.11.867,Main,2022.1.1,60.03842461874288,
negative,yellow,1,k,None,,,,,,,,,0,61,61,61,,,,,,,,,,,,,,,,,main,None,None,1,1.4987285999814048,368.69316859997343,None,None,1,,,,,,,,,,,,,,201,2023-04-24_10h36.11.867,Main,2022.1.1,60.03842461874288,
negative,red,1,None,None,,,,,,,,,0,62,62,62,,,,,,,,,,,,,,,,,main,None,None,1,1.4993146999040619,371.1929376999615,None,None,1,,,,,,,,,,,,,,201,2023-04-24_10h36.11.867,Main,2022.1.1,60.03842461874288,
negative,blue,1,None,k,,,,,,,,,0,63,63,63,,,,,,,,,,,,,,,,,main,k,k,1,0.7135493000969291,373.69299110001884,None,None,0,,,,,,,,,,,,,,201,2023-04-24_10h36.11.867,Main,2022.1.1,60.03842461874288,
positive,blue,2,k,None,,,,,,,,,0,64,64,64,,,,,,,,,,,,,,,,,main,None,None,1,1.5015487000346184,375.4070342000341,None,None,1,,,,,,,,,,,,,,201,2023-04-24_10h36.11.867,Main,2022.1.1,60.03842461874288,
negative,yellow,2,k,None,,,,,,,,,0,65,65,65,,,,,,,,,,,,,,,,,main,None,None,1,1.4965900999959558,377.9095903999405,None,None,1,,,,,,,,,,,,,,201,2023-04-24_10h36.11.867,Main,2022.1.1,60.03842461874288,
positive,yellow,2,None,k,,,,,,,,,0,66,66,66,,,,,,,,,,,,,,,,,main,k,k,1,0.8829132000682876,380.4069232000038,None,None,0,,,,,,,,,,,,,,201,2023-04-24_10h36.11.867,Main,2022.1.1,60.03842461874288,
positive,yellow,2,None,k,,,,,,,,,0,67,67,67,,,,,,,,,,,,,,,,,main,k,k,1,0.6186403000028804,382.2904007999459,None,None,0,,,,,,,,,,,,,,201,2023-04-24_10h36.11.867,Main,2022.1.1,60.03842461874288,
positive,red,1,None,None,,,,,,,,,0,68,68,68,,,,,,,,,,,,,,,,,main,None,None,1,1.4959839000366628,383.9097102000378,None,None,1,,,,,,,,,,,,,,201,2023-04-24_10h36.11.867,Main,2022.1.1,60.03842461874288,
positive,yellow,1,None,k,,,,,,,,,0,69,69,69,,,,,,,,,,,,,,,,,main,k,k,1,0.8494697000132874,386.40680640004575,None,None,0,,,,,,,,,,,,,,201,2023-04-24_10h36.11.867,Main,2022.1.1,60.03842461874288,
negative,yellow,2,k,None,,,,,,,,,0,70,70,70,,,,,,,,,,,,,,,,,main,None,None,1,1.50150529993698,388.25682300003245,None,None,1,,,,,,,,,,,,,,201,2023-04-24_10h36.11.867,Main,2022.1.1,60.03842461874288,
positive,yellow,1,None,k,,,,,,,,,0,71,71,71,,,,,,,,,,,,,,,,,main,k,k,1,0.7969768000766635,390.75937640003394,None,None,0,,,,,,,,,,,,,,201,2023-04-24_10h36.11.867,Main,2022.1.1,60.03842461874288,
negative,blue,1,None,k,,,,,,,,,0,72,72,72,,,,,,,,,,,,,,,,,main,k,k,1,0.7491104999789968,392.55668469995726,None,None,0,,,,,,,,,,,,,,201,2023-04-24_10h36.11.867,Main,2022.1.1,60.03842461874288,
negative,red,2,None,None,,,,,,,,,0,73,73,73,,,,,,,,,,,,,,,,,main,None,None,1,1.501271600020118,394.3067079000175,None,None,1,,,,,,,,,,,,,,201,2023-04-24_10h36.11.867,Main,2022.1.1,60.03842461874288,
positive,blue,2,k,None,,,,,,,,,0,74,74,74,,,,,,,,,,,,,,,,,main,None,None,1,1.5005588999483734,396.8092226999579,None,None,1,,,,,,,,,,,,,,201,2023-04-24_10h36.11.867,Main,2022.1.1,60.03842461874288,
negative,blue,2,None,k,,,,,,,,,0,75,75,75,,,,,,,,,,,,,,,,,main,k,k,1,0.7961484000552446,399.30902799998876,None,None,0,,,,,,,,,,,,,,201,2023-04-24_10h36.11.867,Main,2022.1.1,60.03842461874288,
negative,blue,2,None,k,,,,,,,,,0,76,76,76,,,,,,,,,,,,,,,,,main,k,k,1,0.6489429000066593,401.10707889997866,None,None,0,,,,,,,,,,,,,,201,2023-04-24_10h36.11.867,Main,2022.1.1,60.03842461874288,
negative,yellow,1,k,None,,,,,,,,,0,77,77,77,,,,,,,,,,,,,,,,,main,None,None,1,1.5007237000390887,402.7565616000211,None,None,1,,,,,,,,,,,,,,201,2023-04-24_10h36.11.867,Main,2022.1.1,60.03842461874288,
positive,blue,1,k,None,,,,,,,,,0,78,78,78,,,,,,,,,,,,,,,,,main,None,None,1,1.4963525000493973,405.2592163999798,None,None,1,,,,,,,,,,,,,,201,2023-04-24_10h36.11.867,Main,2022.1.1,60.03842461874288,
positive,blue,1,k,None,,,,,,,,,0,79,79,79,,,,,,,,,,,,,,,,,main,None,None,1,1.5017967000603676,407.7571153000463,None,None,1,,,,,,,,,,,,,,201,2023-04-24_10h36.11.867,Main,2022.1.1,60.03842461874288,
positive,red,2,None,None,,,,,,,,,0,80,80,80,,,,,,,,,,,,,,,,,main,None,None,1,1.4990209999959916,410.25901729997713,None,None,1,,,,,,,,,,,,,,201,2023-04-24_10h36.11.867,Main,2022.1.1,60.03842461874288,
positive,yellow,2,None,k,,,,,,,,,0,81,81,81,,,,,,,,,,,,,,,,,main,k,k,1,0.8657741000643,412.7589878999861,None,None,0,,,,,,,,,,,,,,201,2023-04-24_10h36.11.867,Main,2022.1.1,60.03842461874288,
positive,blue,1,k,None,,,,,,,,,0,82,82,82,,,,,,,,,,,,,,,,,main,None,None,1,1.496159699978307,414.6254561999813,None,None,1,,,,,,,,,,,,,,201,2023-04-24_10h36.11.867,Main,2022.1.1,60.03842461874288,
negative,yellow,2,k,None,,,,,,,,,0,83,83,83,,,,,,,,,,,,,,,,,main,None,None,1,1.501864599995315,417.1228427999886,None,None,1,,,,,,,,,,,,,,201,2023-04-24_10h36.11.867,Main,2022.1.1,60.03842461874288,
positive,blue,2,k,None,,,,,,,,,0,84,84,84,,,,,,,,,,,,,,,,,main,None,None,1,1.4989785999059677,419.6254344000481,None,None,1,,,,,,,,,,,,,,201,2023-04-24_10h36.11.867,Main,2022.1.1,60.03842461874288,
positive,yellow,1,None,k,,,,,,,,,0,85,85,85,,,,,,,,,,,,,,,,,main,k,k,1,0.8635522000258788,422.1254597000079,None,None,0,,,,,,,,,,,,,,201,2023-04-24_10h36.11.867,Main,2022.1.1,60.03842461874288,
positive,blue,2,k,None,,,,,,,,,0,86,86,86,,,,,,,,,,,,,,,,,main,None,None,1,1.5012742999242619,423.98940109997056,None,None,1,,,,,,,,,,,,,,201,2023-04-24_10h36.11.867,Main,2022.1.1,60.03842461874288,
positive,blue,1,k,None,,,,,,,,,0,87,87,87,,,,,,,,,,,,,,,,,main,None,None,1,1.5022191000171006,426.4919596000109,None,None,1,,,,,,,,,,,,,,201,2023-04-24_10h36.11.867,Main,2022.1.1,60.03842461874288,
negative,yellow,2,k,None,,,,,,,,,0,88,88,88,,,,,,,,,,,,,,,,,main,None,None,1,1.4962152000516653,428.99266009998973,None,None,1,,,,,,,,,,,,,,201,2023-04-24_10h36.11.867,Main,2022.1.1,60.03842461874288,
negative,blue,2,None,k,,,,,,,,,0,89,89,89,,,,,,,,,,,,,,,,,main,k,k,1,1.1636819000123069,431.49176739994437,None,None,0,,,,,,,,,,,,,,201,2023-04-24_10h36.11.867,Main,2022.1.1,60.03842461874288,
positive,yellow,2,None,k,,,,,,,,,0,90,90,90,,,,,,,,,,,,,,,,,main,k,k,1,0.7184942000312731,433.6558152999496,None,None,0,,,,,,,,,,,,,,201,2023-04-24_10h36.11.867,Main,2022.1.1,60.03842461874288,
negative,yellow,1,k,None,,,,,,,,,0,91,91,91,,,,,,,,,,,,,,,,,main,None,None,1,1.4991344000445679,435.37512280000374,None,None,1,,,,,,,,,,,,,,201,2023-04-24_10h36.11.867,Main,2022.1.1,60.03842461874288,
negative,red,2,None,None,,,,,,,,,0,92,92,92,,,,,,,,,,,,,,,,,main,None,None,1,1.498958200099878,437.87513049994595,None,None,1,,,,,,,,,,,,,,201,2023-04-24_10h36.11.867,Main,2022.1.1,60.03842461874288,
negative,blue,2,None,k,,,,,,,,,0,93,93,93,,,,,,,,,,,,,,,,,main,k,k,1,0.8800024000229314,440.37490339996293,None,None,0,,,,,,,,,,,,,,201,2023-04-24_10h36.11.867,Main,2022.1.1,60.03842461874288,
negative,blue,1,None,k,,,,,,,,,0,94,94,94,,,,,,,,,,,,,,,,,main,k,k,1,0.7492258000420406,442.25566929997876,None,None,0,,,,,,,,,,,,,,201,2023-04-24_10h36.11.867,Main,2022.1.1,60.03842461874288,
negative,blue,1,None,k,,,,,,,,,0,95,95,95,,,,,,,,,,,,,,,,,main,k,k,1,0.6351140999468043,444.0056843999773,None,None,0,,,,,,,,,,,,,,201,2023-04-24_10h36.11.867,Main,2022.1.1,60.03842461874288,
negative,red,1,None,None,,,,,,,,,0,96,96,96,,,,,,,,,,,,,,,,,main,None,None,1,1.4982620999217033,445.64158319996204,None,None,1,,,,,,,,,,,,,,201,2023-04-24_10h36.11.867,Main,2022.1.1,60.03842461874288,
positive,yellow,1,None,k,,,,,,,,,0,97,97,97,,,,,,,,,,,,,,,,,main,k,k,1,0.7150363000109792,448.1416866000509,None,None,0,,,,,,,,,,,,,,201,2023-04-24_10h36.11.867,Main,2022.1.1,60.03842461874288,
negative,yellow,1,k,None,,,,,,,,,0,98,98,98,,,,,,,,,,,,,,,,,main,None,None,1,1.496328999986872,449.85806340002455,None,None,1,,,,,,,,,,,,,,201,2023-04-24_10h36.11.867,Main,2022.1.1,60.03842461874288,
positive,red,1,None,None,,,,,,,,,0,99,99,99,,,,,,,,,,,,,,,,,main,None,None,1,1.501815399969928,452.3554705999559,None,None,1,,,,,,,,,,,,,,201,2023-04-24_10h36.11.867,Main,2022.1.1,60.03842461874288,
positive,blue,1,k,None,,,,,,,,,0,100,100,100,,,,,,,,,,,,,,,,,main,None,None,1,1.499405200011097,454.85814100003336,None,None,1,,,,,,,,,,,,,,201,2023-04-24_10h36.11.867,Main,2022.1.1,60.03842461874288,
negative,yellow,1,k,None,,,,,,,,,0,101,101,101,,,,,,,,,,,,,,,,,main,None,None,1,1.4965180000290275,457.3580449000001,None,None,1,,,,,,,,,,,,,,201,2023-04-24_10h36.11.867,Main,2022.1.1,60.03842461874288,
negative,blue,2,None,k,,,,,,,,,0,102,102,102,,,,,,,,,,,,,,,,,main,k,k,1,0.9991168000269681,459.85789420001674,None,None,0,,,,,,,,,,,,,,201,2023-04-24_10h36.11.867,Main,2022.1.1,60.03842461874288,
negative,yellow,2,k,None,,,,,,,,,0,103,103,103,,,,,,,,,,,,,,,,,main,None,None,1,1.5002474999055266,461.85551080002915,None,None,1,,,,,,,,,,,,,,201,2023-04-24_10h36.11.867,Main,2022.1.1,60.03842461874288,
positive,yellow,2,None,k,,,,,,,,,0,104,104,104,,,,,,,,,,,,,,,,,main,k,k,1,0.8487105000531301,464.3578187000239,None,None,0,,,,,,,,,,,,,,201,2023-04-24_10h36.11.867,Main,2022.1.1,60.03842461874288,
positive,blue,1,k,None,,,,,,,,,0,105,105,105,,,,,,,,,,,,,,,,,main,None,None,1,1.4963847000617534,466.2077400999842,None,None,1,,,,,,,,,,,,,,201,2023-04-24_10h36.11.867,Main,2022.1.1,60.03842461874288,
positive,blue,2,k,None,,,,,,,,,0,106,106,106,,,,,,,,,,,,,,,,,main,None,None,1,1.501465899986215,468.70513649994973,None,None,1,,,,,,,,,,,,,,201,2023-04-24_10h36.11.867,Main,2022.1.1,60.03842461874288,
negative,blue,1,None,k,,,,,,,,,0,107,107,107,,,,,,,,,,,,,,,,,main,k,k,1,0.8326365000102669,471.2077930000378,None,None,0,,,,,,,,,,,,,,201,2023-04-24_10h36.11.867,Main,2022.1.1,60.03842461874288,
positive,yellow,2,None,k,,,,,,,,,0,108,108,108,,,,,,,,,,,,,,,,,main,k,k,1,1.246501600020565,473.04106339998543,None,None,0,,,,,,,,,,,,,,201,2023-04-24_10h36.11.867,Main,2022.1.1,60.03842461874288,
negative,yellow,1,k,None,,,,,,,,,0,109,109,109,,,,,,,,,,,,,,,,,main,None,None,1,1.5012356999795884,475.2883279999951,None,None,1,,,,,,,,,,,,,,201,2023-04-24_10h36.11.867,Main,2022.1.1,60.03842461874288,
negative,blue,2,None,k,,,,,,,,,0,110,110,110,,,,,,,,,,,,,,,,,main,k,k,1,0.7161665000021458,477.7908689000178,None,None,0,,,,,,,,,,,,,,201,2023-04-24_10h36.11.867,Main,2022.1.1,60.03842461874288,
positive,blue,2,k,None,,,,,,,,,0,111,111,111,,,,,,,,,,,,,,,,,main,None,None,1,1.496753300074488,479.5075574000366,None,None,1,,,,,,,,,,,,,,201,2023-04-24_10h36.11.867,Main,2022.1.1,60.03842461874288,
negative,blue,1,None,k,,,,,,,,,0,112,112,112,,,,,,,,,,,,,,,,,main,k,k,1,0.7849221000215039,482.00487109995447,None,None,0,,,,,,,,,,,,,,201,2023-04-24_10h36.11.867,Main,2022.1.1,60.03842461874288,
positive,yellow,1,None,k,,,,,,,,,0,113,113,113,,,,,,,,,,,,,,,,,main,k,k,1,0.7161041999934241,483.79080359998625,None,None,0,,,,,,,,,,,,,,201,2023-04-24_10h36.11.867,Main,2022.1.1,60.03842461874288,
negative,red,1,None,None,,,,,,,,,0,114,114,114,,,,,,,,,,,,,,,,,main,None,None,1,1.4986609000479802,485.5075630999636,None,None,1,,,,,,,,,,,,,,201,2023-04-24_10h36.11.867,Main,2022.1.1,60.03842461874288,
positive,red,1,None,None,,,,,,,,,0,115,115,115,,,,,,,,,,,,,,,,,main,None,None,1,1.4971177999395877,488.00729860004503,None,None,1,,,,,,,,,,,,,,201,2023-04-24_10h36.11.867,Main,2022.1.1,60.03842461874288,
negative,red,2,None,None,,,,,,,,,0,116,116,116,,,,,,,,,,,,,,,,,main,None,None,1,1.5010812999680638,490.50470509997103,None,None,1,,,,,,,,,,,,,,201,2023-04-24_10h36.11.867,Main,2022.1.1,60.03842461874288,
negative,yellow,2,k,None,,,,,,,,,0,117,117,117,,,,,,,,,,,,,,,,,main,None,None,1,1.496466200100258,493.0073532999959,None,None,1,,,,,,,,,,,,,,201,2023-04-24_10h36.11.867,Main,2022.1.1,60.03842461874288,
positive,yellow,1,None,k,,,,,,,,,0,118,118,118,,,,,,,,,,,,,,,,,main,k,k,1,0.7162195999408141,495.5045700999908,None,None,0,,,,,,,,,,,,,,201,2023-04-24_10h36.11.867,Main,2022.1.1,60.03842461874288,
positive,red,2,None,None,,,,,,,,,0,119,119,119,,,,,,,,,,,,,,,,,main,None,None,1,1.5016924000810832,497.22119399998337,None,None,1,,,,,,,,,,,,,,201,2023-04-24_10h36.11.867,Main,2022.1.1,60.03842461874288,
positive,blue,2,k,None,,,,,,,,,0,120,120,120,,,,,,,,,,,,,,,,,main,None,None,1,1.4966197999892756,499.7237919999752,None,None,1,,,,,,,,,,,,,,201,2023-04-24_10h36.11.867,Main,2022.1.1,60.03842461874288,
negative,red,1,None,None,,,,,,,,,0,121,121,121,,,,,,,,,,,,,,,,,main,None,None,1,1.502058699959889,502.2210944000399,None,None,1,,,,,,,,,,,,,,201,2023-04-24_10h36.11.867,Main,2022.1.1,60.03842461874288,
positive,yellow,2,None,k,,,,,,,,,0,122,122,122,,,,,,,,,,,,,,,,,main,k,k,1,0.882468199939467,504.7238093999913,None,None,0,,,,,,,,,,,,,,201,2023-04-24_10h36.11.867,Main,2022.1.1,60.03842461874288,
negative,red,2,None,None,,,,,,,,,0,123,123,123,,,,,,,,,,,,,,,,,main,None,None,1,1.4983650000067428,506.6070532000158,None,None,1,,,,,,,,,,,,,,201,2023-04-24_10h36.11.867,Main,2022.1.1,60.03842461874288,
negative,yellow,2,k,None,,,,,,,,,0,124,124,124,,,,,,,,,,,,,,,,,main,None,None,1,1.4963110000826418,509.1068197999848,None,None,1,,,,,,,,,,,,,,201,2023-04-24_10h36.11.867,Main,2022.1.1,60.03842461874288,
positive,red,1,None,None,,,,,,,,,0,125,125,125,,,,,,,,,,,,,,,,,main,None,None,1,1.5018242000369355,511.6042556000175,None,None,1,,,,,,,,,,,,,,201,2023-04-24_10h36.11.867,Main,2022.1.1,60.03842461874288,
negative,blue,2,None,k,,,,,,,,,0,126,126,126,,,,,,,,,,,,,,,,,main,k,k,1,0.6997785000130534,514.1068044999847,None,None,0,,,,,,,,,,,,,,201,2023-04-24_10h36.11.867,Main,2022.1.1,60.03842461874288,
negative,blue,1,None,k,,,,,,,,,0,127,127,127,,,,,,,,,,,,,,,,,main,k,k,1,0.6474273999920115,515.806836899952,None,None,0,,,,,,,,,,,,,,201,2023-04-24_10h36.11.867,Main,2022.1.1,60.03842461874288,
negative,yellow,1,k,None,,,,,,,,,0,128,128,128,,,,,,,,,,,,,,,,,main,None,None,1,1.5012643999652937,517.4541664000135,None,None,1,,,,,,,,,,,,,,201,2023-04-24_10h36.11.867,Main,2022.1.1,60.03842461874288,
negative,yellow,1,k,None,,,,,,,,,0,129,129,129,,,,,,,,,,,,,,,,,main,None,None,1,1.5011478000087664,519.9568007000489,None,None,1,,,,,,,,,,,,,,201,2023-04-24_10h36.11.867,Main,2022.1.1,60.03842461874288,
positive,blue,1,k,None,,,,,,,,,0,130,130,130,,,,,,,,,,,,,,,,,main,None,None,1,1.4937334000132978,522.4575241999701,None,None,1,,,,,,,,,,,,,,201,2023-04-24_10h36.11.867,Main,2022.1.1,60.03842461874288,
negative,blue,1,None,k,,,,,,,,,0,131,131,131,,,,,,,,,,,,,,,,,main,k,k,1,0.5852686000289395,524.9540323000401,None,None,0,,,,,,,,,,,,,,201,2023-04-24_10h36.11.867,Main,2022.1.1,60.03842461874288,
negative,blue,2,None,k,,,,,,,,,0,132,132,132,,,,,,,,,,,,,,,,,main,k,k,1,0.6992375999689102,526.5399080000352,None,None,0,,,,,,,,,,,,,,201,2023-04-24_10h36.11.867,Main,2022.1.1,60.03842461874288,
positive,blue,2,k,None,,,,,,,,,0,133,133,133,,,,,,,,,,,,,,,,,main,None,None,1,1.496039399993606,528.2400246999459,None,None,1,,,,,,,,,,,,,,201,2023-04-24_10h36.11.867,Main,2022.1.1,60.03842461874288,
positive,red,2,None,None,,,,,,,,,0,134,134,134,,,,,,,,,,,,,,,,,main,None,None,1,1.50177580001764,530.7372521000216,None,None,1,,,,,,,,,,,,,,201,2023-04-24_10h36.11.867,Main,2022.1.1,60.03842461874288,
negative,yellow,2,k,None,,,,,,,,,0,135,135,135,,,,,,,,,,,,,,,,,main,None,None,1,1.4988328999606892,533.2399004000472,None,None,1,,,,,,,,,,,,,,201,2023-04-24_10h36.11.867,Main,2022.1.1,60.03842461874288,
positive,yellow,2,None,k,,,,,,,,,0,136,136,136,,,,,,,,,,,,,,,,,main,k,k,1,0.7660870000254363,535.7396145999664,None,None,0,,,,,,,,,,,,,,201,2023-04-24_10h36.11.867,Main,2022.1.1,60.03842461874288,
positive,blue,1,k,None,,,,,,,,,0,137,137,137,,,,,,,,,,,,,,,,,main,None,None,1,1.4964934000745416,537.5092080000322,None,None,1,,,,,,,,,,,,,,201,2023-04-24_10h36.11.867,Main,2022.1.1,60.03842461874288,
positive,yellow,1,None,k,,,,,,,,,0,138,138,138,,,,,,,,,,,,,,,,,main,k,k,1,0.7855480000143871,540.003703400027,None,None,0,,,,,,,,,,,,,,201,2023-04-24_10h36.11.867,Main,2022.1.1,60.03842461874288,
positive,yellow,1,None,k,,,,,,,,,0,139,139,139,,,,,,,,,,,,,,,,,main,k,k,1,0.6657972999382764,541.7896888999967,None,None,0,,,,,,,,,,,,,,201,2023-04-24_10h36.11.867,Main,2022.1.1,60.03842461874288,
positive,yellow,1,None,k,,,,,,,,,0,140,140,140,,,,,,,,,,,,,,,,,main,k,k,1,0.6800477999495342,543.4563416000456,None,None,0,,,,,,,,,,,,,,201,2023-04-24_10h36.11.867,Main,2022.1.1,60.03842461874288,
positive,blue,1,k,None,,,,,,,,,0,141,141,141,,,,,,,,,,,,,,,,,main,None,None,1,1.501079799956642,545.1369156000437,None,None,1,,,,,,,,,,,,,,201,2023-04-24_10h36.11.867,Main,2022.1.1,60.03842461874288,
positive,blue,2,k,None,,,,,,,,,0,142,142,142,,,,,,,,,,,,,,,,,main,None,None,1,1.4963311000028625,547.6395937999478,None,None,1,,,,,,,,,,,,,,201,2023-04-24_10h36.11.867,Main,2022.1.1,60.03842461874288,
positive,yellow,2,None,k,,,,,,,,,0,143,143,143,,,,,,,,,,,,,,,,,main,k,k,1,0.8494359999895096,550.1370582999662,None,None,0,,,,,,,,,,,,,,201,2023-04-24_10h36.11.867,Main,2022.1.1,60.03842461874288,
negative,yellow,2,k,None,,,,,,,,,0,144,144,144,,,,,,,,,,,,,,,,,main,None,None,1,1.501448400085792,551.9868201999925,None,None,1,,,,,,,,,,,,,,201,2023-04-24_10h36.11.867,Main,2022.1.1,60.03842461874288,
negative,blue,2,None,k,,,,,,,,,0,145,145,145,,,,,,,,,,,,,,,,,main,k,k,1,0.7471016000490636,554.4894314999692,None,None,0,,,,,,,,,,,,,,201,2023-04-24_10h36.11.867,Main,2022.1.1,60.03842461874288,
negative,red,1,None,None,,,,,,,,,0,146,146,146,,,,,,,,,,,,,,,,,main,None,None,1,1.4991819000570104,556.2391671000514,None,None,1,,,,,,,,,,,,,,201,2023-04-24_10h36.11.867,Main,2022.1.1,60.03842461874288,
positive,blue,1,k,None,,,,,,,,,0,147,147,147,,,,,,,,,,,,,,,,,main,None,None,1,1.4982479000464082,558.7367821000516,None,None,1,,,,,,,,,,,,,,201,2023-04-24_10h36.11.867,Main,2022.1.1,60.03842461874288,
positive,yellow,1,None,k,,,,,,,,,0,148,148,148,,,,,,,,,,,,,,,,,main,k,k,1,0.7019682000391185,561.2391708999639,None,None,0,,,,,,,,,,,,,,201,2023-04-24_10h36.11.867,Main,2022.1.1,60.03842461874288,
negative,red,2,None,None,,,,,,,,,0,149,149,149,,,,,,,,,,,,,,,,,main,None,None,1,1.4962180000729859,562.9393478999846,None,None,1,,,,,,,,,,,,,,201,2023-04-24_10h36.11.867,Main,2022.1.1,60.03842461874288,
negative,blue,1,None,k,,,,,,,,,0,150,150,150,,,,,,,,,,,,,,,,,main,k,k,1,0.7160997000755742,565.4364747999934,None,None,0,,,,,,,,,,,,,,201,2023-04-24_10h36.11.867,Main,2022.1.1,60.03842461874288,
negative,yellow,2,k,None,,,,,,,,,0,151,151,151,,,,,,,,,,,,,,,,,main,None,None,1,1.501960500027053,567.1531631000107,None,None,1,,,,,,,,,,,,,,201,2023-04-24_10h36.11.867,Main,2022.1.1,60.03842461874288,
negative,blue,2,None,k,,,,,,,,,0,152,152,152,,,,,,,,,,,,,,,,,main,k,k,1,0.7160841999575496,569.6535971999401,None,None,0,,,,,,,,,,,,,,201,2023-04-24_10h36.11.867,Main,2022.1.1,60.03842461874288,
negative,yellow,1,k,None,,,,,,,,,0,153,153,153,,,,,,,,,,,,,,,,,main,None,None,1,1.495539000025019,571.3722063000314,None,None,1,,,,,,,,,,,,,,201,2023-04-24_10h36.11.867,Main,2022.1.1,60.03842461874288,
negative,blue,1,None,k,,,,,,,,,0,154,154,154,,,,,,,,,,,,,,,,,main,k,k,1,0.8665543999522924,573.8698717999505,None,None,0,,,,,,,,,,,,,,201,2023-04-24_10h36.11.867,Main,2022.1.1,60.03842461874288,
positive,yellow,2,None,k,,,,,,,,,0,155,155,155,,,,,,,,,,,,,,,,,main,k,k,1,0.8840932999737561,575.7397017000476,None,None,0,,,,,,,,,,,,,,201,2023-04-24_10h36.11.867,Main,2022.1.1,60.03842461874288,
positive,red,2,None,None,,,,,,,,,0,156,156,156,,,,,,,,,,,,,,,,,main,None,None,1,1.499023100011982,577.62227599998,None,None,1,,,,,,,,,,,,,,201,2023-04-24_10h36.11.867,Main,2022.1.1,60.03842461874288,
positive,red,1,None,None,,,,,,,,,0,157,157,157,,,,,,,,,,,,,,,,,main,None,None,1,1.4990574999246746,580.122215499985,None,None,1,,,,,,,,,,,,,,201,2023-04-24_10h36.11.867,Main,2022.1.1,60.03842461874288,
positive,blue,2,k,None,,,,,,,,,0,158,158,158,,,,,,,,,,,,,,,,,main,None,None,1,1.4964468000689521,582.6221401999937,None,None,1,,,,,,,,,,,,,,201,2023-04-24_10h36.11.867,Main,2022.1.1,60.03842461874288,
negative,yellow,1,k,None,,,,,,,,,0,159,159,159,,,,,,,,,,,,,,,,,main,None,None,1,1.501625300035812,585.1194317999762,None,None,1,,,,,,,,,,,,,,201,2023-04-24_10h36.11.867,Main,2022.1.1,60.03842461874288,
negative,red,2,None,None,,,,,,,,,0,160,160,160,,,,,,,,,,,,,,,,,main,None,None,1,1.5024389999452978,587.6220367000205,None,None,1,,,,,,,,,,,,,,201,2023-04-24_10h36.11.867,Main,2022.1.1,60.03842461874288,
negative,blue,1,None,k,,,,,,,,,0,161,161,161,,,,,,,,,,,,,,,,,main,k,k,1,0.9458094000583515,590.1235584999667,None,None,0,,,,,,,,,,,,,,201,2023-04-24_10h36.11.867,Main,2022.1.1,60.03842461874288,
negative,blue,1,None,k,,,,,,,,,0,162,162,162,,,,,,,,,,,,,,,,,main,k,k,1,0.7803127999650314,592.0718978999648,None,None,0,,,,,,,,,,,,,,201,2023-04-24_10h36.11.867,Main,2022.1.1,60.03842461874288,
negative,yellow,1,k,None,,,,,,,,,0,163,163,163,,,,,,,,,,,,,,,,,main,None,None,1,1.501143499976024,593.8525755000301,None,None,1,,,,,,,,,,,,,,201,2023-04-24_10h36.11.867,Main,2022.1.1,60.03842461874288,
negative,yellow,1,k,None,,,,,,,,,0,164,164,164,,,,,,,,,,,,,,,,,main,None,None,1,1.501172799966298,596.3551698999945,None,None,1,,,,,,,,,,,,,,201,2023-04-24_10h36.11.867,Main,2022.1.1,60.03842461874288,
positive,yellow,1,None,k,,,,,,,,,0,165,165,165,,,,,,,,,,,,,,,,,main,k,k,1,0.7947337999939919,598.8550821000244,None,None,0,,,,,,,,,,,,,,201,2023-04-24_10h36.11.867,Main,2022.1.1,60.03842461874288,
negative,red,1,None,None,,,,,,,,,0,166,166,166,,,,,,,,,,,,,,,,,main,None,None,1,1.4984706999966875,600.6549819000065,None,None,1,,,,,,,,,,,,,,201,2023-04-24_10h36.11.867,Main,2022.1.1,60.03842461874288,
negative,yellow,2,k,None,,,,,,,,,0,167,167,167,,,,,,,,,,,,,,,,,main,None,None,1,1.502004100009799,603.1523826000048,None,None,1,,,,,,,,,,,,,,201,2023-04-24_10h36.11.867,Main,2022.1.1,60.03842461874288,
positive,blue,2,k,None,,,,,,,,,0,168,168,168,,,,,,,,,,,,,,,,,main,None,None,1,1.4990529000060633,605.6550803999417,None,None,1,,,,,,,,,,,,,,201,2023-04-24_10h36.11.867,Main,2022.1.1,60.03842461874288,
positive,red,2,None,None,,,,,,,,,0,169,169,169,,,,,,,,,,,,,,,,,main,None,None,1,1.4987477000104263,608.1549658000004,None,None,1,,,,,,,,,,,,,,201,2023-04-24_10h36.11.867,Main,2022.1.1,60.03842461874288,
positive,red,1,None,None,,,,,,,,,0,170,170,170,,,,,,,,,,,,,,,,,main,None,None,1,1.496754699968733,610.654740500031,None,None,1,,,,,,,,,,,,,,201,2023-04-24_10h36.11.867,Main,2022.1.1,60.03842461874288,
negative,blue,2,None,k,,,,,,,,,0,171,171,171,,,,,,,,,,,,,,,,,main,k,k,1,0.8520416999235749,613.1521653999807,None,None,0,,,,,,,,,,,,,,201,2023-04-24_10h36.11.867,Main,2022.1.1,60.03842461874288,
positive,blue,2,k,None,,,,,,,,,0,172,172,172,,,,,,,,,,,,,,,,,main,None,None,1,1.49900880001951,615.0047751000384,None,None,1,,,,,,,,,,,,,,201,2023-04-24_10h36.11.867,Main,2022.1.1,60.03842461874288,
negative,yellow,2,k,None,,,,,,,,,0,173,173,173,,,,,,,,,,,,,,,,,main,None,None,1,1.4965751999989152,617.5047434000298,None,None,1,,,,,,,,,,,,,,201,2023-04-24_10h36.11.867,Main,2022.1.1,60.03842461874288,
positive,yellow,2,None,k,,,,,,,,,0,174,174,174,,,,,,,,,,,,,,,,,main,k,k,1,0.818780199973844,620.0020098999375,None,None,0,,,,,,,,,,,,,,201,2023-04-24_10h36.11.867,Main,2022.1.1,60.03842461874288,
negative,blue,2,None,k,,,,,,,,,0,175,175,175,,,,,,,,,,,,,,,,,main,k,k,1,0.9336429999675602,621.822055800003,None,None,0,,,,,,,,,,,,,,201,2023-04-24_10h36.11.867,Main,2022.1.1,60.03842461874288,
positive,blue,1,k,None,,,,,,,,,0,176,176,176,,,,,,,,,,,,,,,,,main,None,None,1,1.496232199948281,623.7546189000132,None,None,1,,,,,,,,,,,,,,201,2023-04-24_10h36.11.867,Main,2022.1.1,60.03842461874288,
positive,yellow,1,None,k,,,,,,,,,0,177,177,177,,,,,,,,,,,,,,,,,main,k,k,1,0.9313771000597626,626.2545788999414,None,None,0,,,,,,,,,,,,,,201,2023-04-24_10h36.11.867,Main,2022.1.1,60.03842461874288,
positive,blue,1,k,None,,,,,,,,,0,178,178,178,,,,,,,,,,,,,,,,,main,None,None,1,1.4989854000741616,628.1851884999778,None,None,1,,,,,,,,,,,,,,201,2023-04-24_10h36.11.867,Main,2022.1.1,60.03842461874288,
positive,yellow,2,None,k,,,,,,,,,0,179,179,179,,,,,,,,,,,,,,,,,main,k,k,1,0.9855666999937966,630.6851805000333,None,None,0,,,,,,,,,,,,,,201,2023-04-24_10h36.11.867,Main,2022.1.1,60.03842461874288,
positive,blue,1,k,None,,,,,,,,,0,180,180,180,,,,,,,,,,,,,,,,,main,None,None,1,1.4960457000415772,632.6710578999482,None,None,1,,,,,,,,,,,,,,201,2023-04-24_10h36.11.867,Main,2022.1.1,60.03842461874288,
negative,red,1,None,None,,,,,,,,,0,181,181,181,,,,,,,,,,,,,,,,,main,None,None,1,1.5018660000059754,635.1683544999687,None,None,1,,,,,,,,,,,,,,201,2023-04-24_10h36.11.867,Main,2022.1.1,60.03842461874288,
negative,blue,1,None,k,,,,,,,,,0,182,182,182,,,,,,,,,,,,,,,,,main,k,k,1,0.6998037999728695,637.6709758000216,None,None,0,,,,,,,,,,,,,,201,2023-04-24_10h36.11.867,Main,2022.1.1,60.03842461874288,
negative,yellow,2,k,None,,,,,,,,,0,183,183,183,,,,,,,,,,,,,,,,,main,None,None,1,1.4961131000891328,639.371009800001,None,None,1,,,,,,,,,,,,,,201,2023-04-24_10h36.11.867,Main,2022.1.1,60.03842461874288,
positive,yellow,2,None,k,,,,,,,,,0,184,184,184,,,,,,,,,,,,,,,,,main,k,k,1,0.902090199990198,641.8682568999939,None,None,0,,,,,,,,,,,,,,201,2023-04-24_10h36.11.867,Main,2022.1.1,60.03842461874288,
positive,yellow,1,None,k,,,,,,,,,0,185,185,185,,,,,,,,,,,,,,,,,main,k,k,1,0.9322784000542015,643.7709293999942,None,None,0,,,,,,,,,,,,,,201,2023-04-24_10h36.11.867,Main,2022.1.1,60.03842461874288,
positive,red,2,None,None,,,,,,,,,0,186,186,186,,,,,,,,,,,,,,,,,main,None,None,1,1.4987186000216752,645.7042158000404,None,None,1,,,,,,,,,,,,,,201,2023-04-24_10h36.11.867,Main,2022.1.1,60.03842461874288,
positive,blue,1,k,None,,,,,,,,,0,187,187,187,,,,,,,,,,,,,,,,,main,None,None,1,1.496702800039202,648.2039659000002,None,None,1,,,,,,,,,,,,,,201,2023-04-24_10h36.11.867,Main,2022.1.1,60.03842461874288,
negative,yellow,1,k,None,,,,,,,,,0,188,188,188,,,,,,,,,,,,,,,,,main,None,None,1,1.5011516000377014,650.701630000025,None,None,1,,,,,,,,,,,,,,201,2023-04-24_10h36.11.867,Main,2022.1.1,60.03842461874288,
positive,yellow,2,None,k,,,,,,,,,0,189,189,189,,,,,,,,,,,,,,,,,main,k,k,1,0.8495780000230297,653.2015937999822,None,None,0,,,,,,,,,,,,,,201,2023-04-24_10h36.11.867,Main,2022.1.1,60.03842461874288,
negative,yellow,2,k,None,,,,,,,,,0,190,190,190,,,,,,,,,,,,,,,,,main,None,k,0,-0.750779900001362,655.0538111999631,None,None,1,,,,,,,,,,,,,,201,2023-04-24_10h36.11.867,Main,2022.1.1,60.03842461874288,
negative,yellow,1,k,None,,,,,,,,,0,191,191,191,,,,,,,,,,,,,,,,,main,None,None,1,1.487465100013651,658.3016195000382,None,None,1,,,,,,,,,,,,,,201,2023-04-24_10h36.11.867,Main,2022.1.1,60.03842461874288,
positive,blue,2,k,None,,,,,,,,,0,192,192,192,,,,,,,,,,,,,,,,,main,None,None,1,1.499255200033076,660.7871910999529,None,None,1,,,,,,,,,,,,,,201,2023-04-24_10h36.11.867,Main,2022.1.1,60.03842461874288,
positive,yellow,1,None,k,,,,,,,,,0,193,193,193,,,,,,,,,,,,,,,,,main,k,k,1,0.7484954000683501,663.28706709994,None,None,0,,,,,,,,,,,,,,201,2023-04-24_10h36.11.867,Main,2022.1.1,60.03842461874288,
negative,red,2,None,None,,,,,,,,,0,194,194,194,,,,,,,,,,,,,,,,,main,None,None,1,1.4958684999728575,665.0370253999718,None,None,1,,,,,,,,,,,,,,201,2023-04-24_10h36.11.867,Main,2022.1.1,60.03842461874288,
positive,red,1,None,None,,,,,,,,,0,195,195,195,,,,,,,,,,,,,,,,,main,None,None,1,1.501353899948299,667.5344457000028,None,None,1,,,,,,,,,,,,,,201,2023-04-24_10h36.11.867,Main,2022.1.1,60.03842461874288,
negative,blue,1,None,k,,,,,,,,,0,196,196,196,,,,,,,,,,,,,,,,,main,k,k,1,0.7014604000141844,670.0369326999644,None,None,0,,,,,,,,,,,,,,201,2023-04-24_10h36.11.867,Main,2022.1.1,60.03842461874288,
positive,blue,2,k,None,,,,,,,,,0,197,197,197,,,,,,,,,,,,,,,,,main,None,None,1,1.494378300034441,671.7412487999536,None,None,1,,,,,,,,,,,,,,201,2023-04-24_10h36.11.867,Main,2022.1.1,60.03842461874288,
negative,blue,2,None,k,,,,,,,,,0,198,198,198,,,,,,,,,,,,,,,,,main,k,k,1,0.7187451000791043,674.2342976999935,None,None,0,,,,,,,,,,,,,,201,2023-04-24_10h36.11.867,Main,2022.1.1,60.03842461874288,
negative,blue,2,None,k,,,,,,,,,0,199,199,199,,,,,,,,,,,,,,,,,main,k,k,1,0.7010889999801293,675.9535606999416,None,None,0,,,,,,,,,,,,,,201,2023-04-24_10h36.11.867,Main,2022.1.1,60.03842461874288,
positive,blue,2,k,None,,,,,,,,,0,200,200,200,,,,,,,,,,,,,,,,,main,None,None,1,1.4944776999764144,677.6580191999674,None,None,1,,,,,,,,,,,,,,201,2023-04-24_10h36.11.867,Main,2022.1.1,60.03842461874288,
positive,blue,2,k,None,,,,,,,,,0,201,201,201,,,,,,,,,,,,,,,,,main,None,None,1,1.5015837999526411,680.1508553000167,None,None,1,,,,,,,,,,,,,,201,2023-04-24_10h36.11.867,Main,2022.1.1,60.03842461874288,
negative,yellow,2,k,None,,,,,,,,,0,202,202,202,,,,,,,,,,,,,,,,,main,None,None,1,1.4965538000687957,682.6534874000354,None,None,1,,,,,,,,,,,,,,201,2023-04-24_10h36.11.867,Main,2022.1.1,60.03842461874288,
positive,red,1,None,None,,,,,,,,,0,203,203,203,,,,,,,,,,,,,,,,,main,None,None,1,1.5017346000531688,685.1506990999915,None,None,1,,,,,,,,,,,,,,201,2023-04-24_10h36.11.867,Main,2022.1.1,60.03842461874288,
negative,blue,2,None,k,,,,,,,,,0,204,204,204,,,,,,,,,,,,,,,,,main,k,k,1,0.699290500022471,687.6532829999924,None,None,0,,,,,,,,,,,,,,201,2023-04-24_10h36.11.867,Main,2022.1.1,60.03842461874288,
negative,red,1,None,None,,,,,,,,,0,205,205,205,,,,,,,,,,,,,,,,,main,None,None,1,1.4961214000359178,689.3532496000407,None,None,1,,,,,,,,,,,,,,201,2023-04-24_10h36.11.867,Main,2022.1.1,60.03842461874288,
negative,blue,2,None,k,,,,,,,,,0,206,206,206,,,,,,,,,,,,,,,,,main,k,k,1,0.7186005000257865,691.8531214999966,None,None,0,,,,,,,,,,,,,,201,2023-04-24_10h36.11.867,Main,2022.1.1,60.03842461874288,
negative,yellow,2,k,None,,,,,,,,,0,207,207,207,,,,,,,,,,,,,,,,,main,None,None,1,1.4963933000108227,693.5698288000422,None,None,1,,,,,,,,,,,,,,201,2023-04-24_10h36.11.867,Main,2022.1.1,60.03842461874288,
positive,yellow,2,None,k,,,,,,,,,0,208,208,208,,,,,,,,,,,,,,,,,main,k,k,1,0.752215199987404,696.067107800045,None,None,0,,,,,,,,,,,,,,201,2023-04-24_10h36.11.867,Main,2022.1.1,60.03842461874288,
negative,yellow,1,k,None,,,,,,,,,0,209,209,209,,,,,,,,,,,,,,,,,main,None,None,1,1.4991024999180809,697.8174246000126,None,None,1,,,,,,,,,,,,,,201,2023-04-24_10h36.11.867,Main,2022.1.1,60.03842461874288,
negative,red,2,None,None,,,,,,,,,0,210,210,210,,,,,,,,,,,,,,,,,main,None,None,1,1.4960112000117078,700.3197780000046,None,None,1,,,,,,,,,,,,,,201,2023-04-24_10h36.11.867,Main,2022.1.1,60.03842461874288,
negative,blue,1,None,k,,,,,,,,,0,211,211,211,,,,,,,,,,,,,,,,,main,k,k,1,0.8162788000190631,702.8169831000268,None,None,0,,,,,,,,,,,,,,201,2023-04-24_10h36.11.867,Main,2022.1.1,60.03842461874288,
negative,yellow,1,k,None,,,,,,,,,0,212,212,212,,,,,,,,,,,,,,,,,main,None,None,1,1.5013600999955088,704.6336711000185,None,None,1,,,,,,,,,,,,,,201,2023-04-24_10h36.11.867,Main,2022.1.1,60.03842461874288,
positive,blue,1,k,None,,,,,,,,,0,213,213,213,,,,,,,,,,,,,,,,,main,None,None,1,1.4962414000183344,707.1362282000482,None,None,1,,,,,,,,,,,,,,201,2023-04-24_10h36.11.867,Main,2022.1.1,60.03842461874288,
positive,blue,1,k,None,,,,,,,,,0,214,214,214,,,,,,,,,,,,,,,,,main,None,None,1,1.5016833000117913,709.633499299991,None,None,1,,,,,,,,,,,,,,201,2023-04-24_10h36.11.867,Main,2022.1.1,60.03842461874288,
positive,yellow,1,None,k,,,,,,,,,0,215,215,215,,,,,,,,,,,,,,,,,main,k,k,1,0.9307066999608651,712.1361486000242,None,None,0,,,,,,,,,,,,,,201,2023-04-24_10h36.11.867,Main,2022.1.1,60.03842461874288,
positive,yellow,1,None,k,,,,,,,,,0,216,216,216,,,,,,,,,,,,,,,,,main,k,k,1,0.8344993999926373,714.0692706999835,None,None,0,,,,,,,,,,,,,,201,2023-04-24_10h36.11.867,Main,2022.1.1,60.03842461874288,
positive,yellow,2,None,k,,,,,,,,,0,217,217,217,,,,,,,,,,,,,,,,,main,k,k,1,1.2136887999949977,715.9025784999831,None,None,0,,,,,,,,,,,,,,201,2023-04-24_10h36.11.867,Main,2022.1.1,60.03842461874288,
negative,blue,1,None,k,,,,,,,,,0,218,218,218,,,,,,,,,,,,,,,,,main,k,k,1,0.8676595999859273,718.1166673999978,None,None,0,,,,,,,,,,,,,,201,2023-04-24_10h36.11.867,Main,2022.1.1,60.03842461874288,
positive,red,2,None,None,,,,,,,,,0,219,219,219,,,,,,,,,,,,,,,,,main,None,None,1,1.4990169999655336,719.9859512000112,None,None,1,,,,,,,,,,,,,,201,2023-04-24_10h36.11.867,Main,2022.1.1,60.03842461874288,
positive,yellow,1,None,k,,,,,,,,,0,220,220,220,,,,,,,,,,,,,,,,,main,k,k,1,0.8803092000307515,722.4858650999377,None,None,0,,,,,,,,,,,,,,201,2023-04-24_10h36.11.867,Main,2022.1.1,60.03842461874288,
positive,blue,1,k,None,,,,,,,,,0,221,221,221,,,,,,,,,,,,,,,,,main,None,None,1,1.5002335000317544,724.36653140001,None,None,1,,,,,,,,,,,,,,201,2023-04-24_10h36.11.867,Main,2022.1.1,60.03842461874288,
positive,yellow,2,None,k,,,,,,,,,0,222,222,222,,,,,,,,,,,,,,,,,main,k,k,1,1.0130716999992728,726.8691344000399,None,None,0,,,,,,,,,,,,,,201,2023-04-24_10h36.11.867,Main,2022.1.1,60.03842461874288,
negative,yellow,1,k,None,,,,,,,,,0,223,223,223,,,,,,,,,,,,,,,,,main,None,None,1,1.4984950999496505,728.888768899953,None,None,1,,,,,,,,,,,,,,201,2023-04-24_10h36.11.867,Main,2022.1.1,60.03842461874288,
positive,yellow,2,None,k,,,,,,,,,0,224,224,224,,,,,,,,,,,,,,,,,main,k,k,1,1.0856435999739915,731.3830997999758,None,None,0,,,,,,,,,,,,,,201,2023-04-24_10h36.11.867,Main,2022.1.1,60.03842461874288,
negative,yellow,2,k,None,,,,,,,,,0,225,225,225,,,,,,,,,,,,,,,,,main,None,None,1,1.4986862998921424,733.4690158000449,None,None,1,,,,,,,,,,,,,,201,2023-04-24_10h36.11.867,Main,2022.1.1,60.03842461874288,
negative,blue,2,None,k,,,,,,,,,0,226,226,226,,,,,,,,,,,,,,,,,main,k,k,1,0.7157717999070883,735.9688661999535,None,None,0,,,,,,,,,,,,,,201,2023-04-24_10h36.11.867,Main,2022.1.1,60.03842461874288,
positive,red,2,None,None,,,,,,,,,0,227,227,227,,,,,,,,,,,,,,,,,main,None,None,1,1.4963620000053197,737.6854811999947,None,None,1,,,,,,,,,,,,,,201,2023-04-24_10h36.11.867,Main,2022.1.1,60.03842461874288,
positive,blue,2,k,None,,,,,,,,,0,228,228,228,,,,,,,,,,,,,,,,,main,None,None,1,1.5017895000055432,740.182913800003,None,None,1,,,,,,,,,,,,,,201,2023-04-24_10h36.11.867,Main,2022.1.1,60.03842461874288,
negative,blue,1,None,k,,,,,,,,,0,229,229,229,,,,,,,,,,,,,,,,,main,k,k,1,0.7161396000301465,742.6855559999822,None,None,0,,,,,,,,,,,,,,201,2023-04-24_10h36.11.867,Main,2022.1.1,60.03842461874288,
positive,yellow,1,None,k,,,,,,,,,0,230,230,230,,,,,,,,,,,,,,,,,main,k,k,1,0.6799659000243992,744.402105199988,None,None,0,,,,,,,,,,,,,,201,2023-04-24_10h36.11.867,Main,2022.1.1,60.03842461874288,
negative,blue,2,None,k,,,,,,,,,0,231,231,231,,,,,,,,,,,,,,,,,main,k,k,1,0.7685629000188783,746.0827535999706,None,None,0,,,,,,,,,,,,,,201,2023-04-24_10h36.11.867,Main,2022.1.1,60.03842461874288,
negative,red,1,None,None,,,,,,,,,0,232,232,232,,,,,,,,,,,,,,,,,main,None,None,1,1.499134200043045,747.8520573000424,None,None,1,,,,,,,,,,,,,,201,2023-04-24_10h36.11.867,Main,2022.1.1,60.03842461874288,
positive,blue,2,k,None,,,,,,,,,0,233,233,233,,,,,,,,,,,,,,,,,main,None,None,1,1.4961231999332085,750.3519887999864,None,None,1,,,,,,,,,,,,,,201,2023-04-24_10h36.11.867,Main,2022.1.1,60.03842461874288,
negative,yellow,1,k,None,,,,,,,,,0,234,234,234,,,,,,,,,,,,,,,,,main,None,None,1,1.5016994000179693,752.8492916999385,None,None,1,,,,,,,,,,,,,,201,2023-04-24_10h36.11.867,Main,2022.1.1,60.03842461874288,
negative,yellow,2,k,None,,,,,,,,,0,235,235,235,,,,,,,,,,,,,,,,,main,None,None,1,1.4988996000029147,755.3521060999483,None,None,1,,,,,,,,,,,,,,201,2023-04-24_10h36.11.867,Main,2022.1.1,60.03842461874288,
positive,red,1,None,None,,,,,,,,,0,236,236,236,,,,,,,,,,,,,,,,,main,None,None,1,1.4992763999616727,757.8517514000414,None,None,1,,,,,,,,,,,,,,201,2023-04-24_10h36.11.867,Main,2022.1.1,60.03842461874288,
negative,red,2,None,None,,,,,,,,,0,237,237,237,,,,,,,,,,,,,,,,,main,None,None,1,1.4990822999970987,760.3497240999714,None,None,1,,,,,,,,,,,,,,201,2023-04-24_10h36.11.867,Main,2022.1.1,60.03842461874288,
negative,blue,1,None,k,,,,,,,,,0,238,238,238,,,,,,,,,,,,,,,,,main,k,k,1,1.0827689000871032,762.8516415000195,None,None,0,,,,,,,,,,,,,,201,2023-04-24_10h36.11.867,Main,2022.1.1,60.03842461874288,
positive,blue,1,k,None,,,,,,,,,0,239,239,239,,,,,,,,,,,,,,,,,main,None,None,1,1.4985255999490619,764.9350684999954,None,None,1,,,,,,,,,,,,,,201,2023-04-24_10h36.11.867,Main,2022.1.1,60.03842461874288,
,,,,,,,,,,,,,,,,,,,,,,,,,,,,,,,,,,,,,,,,,,,,,,,,,,,,,767.4348687999882,None,,,,,,
