distractor,target,set,ans1,ans2,rep_loop4.thisRepN,rep_loop4.thisTrialN,rep_loop4.thisN,rep_loop4.thisIndex,st2_prac_loop.thisRepN,st2_prac_loop.thisTrialN,st2_prac_loop.thisN,st2_prac_loop.thisIndex,st2_main_loop.thisRepN,st2_main_loop.thisTrialN,st2_main_loop.thisN,st2_main_loop.thisIndex,image_4.started,image_4.stopped,sound_2.started,sound_2.stopped,key_resp_3.keys,key_resp_3.rt,image_5.started,image_5.stopped,st_prac_back.started,st_prac_back.stopped,st_prac_text.started,st_prac_text.stopped,st_fix_back.started,st_fix_back.stopped,st_fix_2.started,st_fix_2.stopped,main_prac,st_ans,st_res,st_corr,st_rt,st_back.started,st_back.stopped,st2_resp.keys,st2_resp.corr,st_main_back.started,st_main_back.stopped,st_main_text.started,st_main_text.stopped,mouse_4.x,mouse_4.y,mouse_4.leftButton,mouse_4.midButton,mouse_4.rightButton,mouse_4.started,mouse_4.stopped,text_2.started,text_2.stopped,id*,date,expName,psychopyVersion,frameRate,
negative,yellow,1,k,None,,,,,0,0,0,0,,,,,157.21923120005522,None,160.71369486997136,None,space,19.28755819995422,180.0292850000551,None,185.51012019999325,None,185.51012019999325,None,187.51247780001722,None,187.51247780001722,None,prac,None,None,1,1.501721000066027,189.52383760001976,None,None,1,,,,,,,,,,,,,,203,2023-04-26_17h18.39.282,Main,2022.1.1,59.837708130395136,
positive,red,2,None,None,,,,,0,1,1,1,,,,,,,,,,,,,,,,,,,,,prac,None,None,1,1.497195199946873,192.03256490000058,None,None,1,,,,,,,,,,,,,,203,2023-04-26_17h18.39.282,Main,2022.1.1,59.837708130395136,
negative,blue,2,None,k,,,,,0,2,2,2,,,,,,,,,,,,,,,,,,,,,prac,k,k,1,0.5854545999318361,194.52642719994765,None,None,0,,,,,,,,,,,,,,203,2023-04-26_17h18.39.282,Main,2022.1.1,59.837708130395136,
positive,yellow,1,None,k,,,,,0,3,3,3,,,,,,,,,,,,,,,,,,,,,prac,k,k,1,0.5465141999302432,196.11233459995128,None,None,0,,,,,,,,,,,,,,203,2023-04-26_17h18.39.282,Main,2022.1.1,59.837708130395136,
negative,blue,2,None,k,,,,,0,4,4,4,,,,,,,,,,,,,,,,,,,,,prac,k,k,1,0.5989748999709263,197.66238170000724,None,None,0,,,,,,,,,,,,,,203,2023-04-26_17h18.39.282,Main,2022.1.1,59.837708130395136,
negative,blue,1,None,k,,,,,0,5,5,5,,,,,,,,,,,,,,,,,,,,,prac,k,k,1,0.7158182000275701,199.25963009998668,None,None,0,,,,,,,,,,,,,,203,2023-04-26_17h18.39.282,Main,2022.1.1,59.837708130395136,
negative,yellow,2,k,None,,,,,0,6,6,6,,,,,,,,,,,,,,,,,,,,,prac,None,None,1,1.5014895000495017,200.979557499988,None,None,1,,,,,,,,,,,,,,203,2023-04-26_17h18.39.282,Main,2022.1.1,59.837708130395136,
negative,red,1,None,None,,,,,0,7,7,7,,,,,,,,,,,,,,,,,,,,,prac,None,None,1,1.4991174000315368,203.47882720001508,None,None,1,,,,,,,,,,,,,,203,2023-04-26_17h18.39.282,Main,2022.1.1,59.837708130395136,
positive,yellow,2,None,k,,,,,0,8,8,8,,,,,,,,,,,,,,,,,,,,,prac,k,k,1,0.6970372999785468,205.9787076000357,None,None,0,,,,,,,,,,,,,,203,2023-04-26_17h18.39.282,Main,2022.1.1,59.837708130395136,
negative,yellow,1,k,None,,,,,0,9,9,9,,,,,,,,,,,,,,,,,,,,,prac,None,None,1,1.5014134999364614,207.67629259999376,None,None,1,,,,,,,,,,,,,,203,2023-04-26_17h18.39.282,Main,2022.1.1,59.837708130395136,
positive,yellow,2,None,k,,,,,0,10,10,10,,,,,,,,,,,,,,,,,,,,,prac,k,k,1,0.7133834999985993,210.17871280002873,None,None,0,,,,,,,,,,,,,,203,2023-04-26_17h18.39.282,Main,2022.1.1,59.837708130395136,
negative,yellow,2,k,None,,,,,0,11,11,11,,,,,,,,,,,,,,,,,,,,,prac,None,None,1,1.5015764000127092,211.8849281000439,None,None,1,,,,,,,,,,,,,,203,2023-04-26_17h18.39.282,Main,2022.1.1,59.837708130395136,
negative,red,2,None,None,,,,,0,12,12,12,,,,,,,,,,,,,,,,,,,,,prac,None,None,1,1.4969936000416055,214.39523559994996,None,None,1,,,,,,,,,,,,,,203,2023-04-26_17h18.39.282,Main,2022.1.1,59.837708130395136,
positive,red,1,None,None,,,,,0,13,13,13,,,,,,,,,,,,,,,,,,,,,prac,None,None,1,1.501607900019735,216.89279509999324,None,None,1,,,,,,,,,,,,,,203,2023-04-26_17h18.39.282,Main,2022.1.1,59.837708130395136,
positive,blue,2,k,None,,,,,0,14,14,14,,,,,,,,,,,,,,,,,,,,,prac,None,None,1,1.4990059999981895,219.39526360004675,None,None,1,,,,,,,,,,,,,,203,2023-04-26_17h18.39.282,Main,2022.1.1,59.837708130395136,
positive,blue,1,k,None,,,,,0,15,15,15,,,,,,,,,,,,,,,,,,,,,prac,None,None,1,1.4991596000036225,221.89506360003725,None,None,1,,,,,,,,,,,,,,203,2023-04-26_17h18.39.282,Main,2022.1.1,59.837708130395136,
negative,blue,1,None,k,,,,,0,16,16,16,,,,,,,,,,,,,,,,,,,,,prac,k,k,1,0.6472790000261739,224.39494020002894,None,None,0,,,,,,,,,,,,,,203,2023-04-26_17h18.39.282,Main,2022.1.1,59.837708130395136,
positive,blue,2,k,None,,,,,0,17,17,17,,,,,,,,,,,,,,,,,,,,,prac,None,None,1,1.498985500074923,226.04268319997936,None,None,1,,,,,,,,,,,,,,203,2023-04-26_17h18.39.282,Main,2022.1.1,59.837708130395136,
positive,blue,1,k,None,,,,,0,18,18,18,,,,,,,,,,,,,,,,,,,,,prac,None,None,1,1.4989748999942094,228.54274539998733,None,None,1,,,,,,,,,,,,,,203,2023-04-26_17h18.39.282,Main,2022.1.1,59.837708130395136,
positive,yellow,1,None,k,,,,,0,19,19,19,,,,,,,,,,,,,,,,,,,,,prac,k,k,1,0.716260900022462,231.04250780004077,None,None,0,,,,,,,,,,,,,,203,2023-04-26_17h18.39.282,Main,2022.1.1,59.837708130395136,
negative,yellow,1,k,None,,,,,1,0,20,0,,,,,,,,,,,,,,,,,,,,,prac,None,None,1,1.501412499928847,232.7590689000208,None,None,1,,,,,,,,,,,,,,203,2023-04-26_17h18.39.282,Main,2022.1.1,59.837708130395136,
positive,red,2,None,None,,,,,1,1,21,1,,,,,,,,,,,,,,,,,,,,,prac,None,None,1,1.4970374000258744,235.2615828999551,None,None,1,,,,,,,,,,,,,,203,2023-04-26_17h18.39.282,Main,2022.1.1,59.837708130395136,
negative,blue,2,None,k,,,,,1,2,22,2,,,,,,,,,,,,,,,,,,,,,prac,k,k,1,0.6657413999782875,237.76164959999733,None,None,0,,,,,,,,,,,,,,203,2023-04-26_17h18.39.282,Main,2022.1.1,59.837708130395136,
positive,yellow,1,None,k,,,,,1,3,23,3,,,,,,,,,,,,,,,,,,,,,prac,k,k,1,0.7157978999894112,239.4257663000608,None,None,0,,,,,,,,,,,,,,203,2023-04-26_17h18.39.282,Main,2022.1.1,59.837708130395136,
negative,blue,2,None,k,,,,,1,4,24,4,,,,,,,,,,,,,,,,,,,,,prac,k,k,1,0.68270670005586,241.14219140005298,None,None,0,,,,,,,,,,,,,,203,2023-04-26_17h18.39.282,Main,2022.1.1,59.837708130395136,
negative,blue,1,None,k,,,,,1,5,25,5,,,,,,,,,,,,,,,,,,,,,prac,k,k,1,0.7016936000436544,242.8280867000576,None,None,0,,,,,,,,,,,,,,203,2023-04-26_17h18.39.282,Main,2022.1.1,59.837708130395136,
negative,yellow,2,k,None,,,,,1,6,26,6,,,,,,,,,,,,,,,,,,,,,prac,None,None,1,1.4961917999899015,244.52799850003794,None,None,1,,,,,,,,,,,,,,203,2023-04-26_17h18.39.282,Main,2022.1.1,59.837708130395136,
negative,red,1,None,None,,,,,1,7,27,7,,,,,,,,,,,,,,,,,,,,,prac,None,None,1,1.5020117999520153,247.0253989000339,None,None,1,,,,,,,,,,,,,,203,2023-04-26_17h18.39.282,Main,2022.1.1,59.837708130395136,
positive,yellow,2,None,k,,,,,1,8,28,8,,,,,,,,,,,,,,,,,,,,,prac,k,k,1,0.7157416000263765,249.5279268999584,None,None,0,,,,,,,,,,,,,,203,2023-04-26_17h18.39.282,Main,2022.1.1,59.837708130395136,
negative,yellow,1,k,None,,,,,1,9,29,9,,,,,,,,,,,,,,,,,,,,,prac,None,None,1,1.500073799979873,251.24451300001238,None,None,1,,,,,,,,,,,,,,203,2023-04-26_17h18.39.282,Main,2022.1.1,59.837708130395136,
positive,yellow,2,None,k,,,,,1,10,30,10,,,,,,,,,,,,,,,,,,,,,prac,k,k,1,0.7118731000227854,253.74449099996127,None,None,0,,,,,,,,,,,,,,203,2023-04-26_17h18.39.282,Main,2022.1.1,59.837708130395136,
negative,yellow,2,k,None,,,,,1,11,31,11,,,,,,,,,,,,,,,,,,,,,prac,None,None,1,1.5015957000432536,255.45851320005022,None,None,1,,,,,,,,,,,,,,203,2023-04-26_17h18.39.282,Main,2022.1.1,59.837708130395136,
negative,red,2,None,None,,,,,1,12,32,12,,,,,,,,,,,,,,,,,,,,,prac,None,None,1,1.4991665000561625,257.96106730005704,None,None,1,,,,,,,,,,,,,,203,2023-04-26_17h18.39.282,Main,2022.1.1,59.837708130395136,
positive,red,1,None,None,,,,,1,13,33,13,,,,,,,,,,,,,,,,,,,,,prac,None,None,1,1.4989174000220373,260.45870169997215,None,None,1,,,,,,,,,,,,,,203,2023-04-26_17h18.39.282,Main,2022.1.1,59.837708130395136,
positive,blue,2,k,None,,,,,1,14,34,14,,,,,,,,,,,,,,,,,,,,,prac,None,None,1,1.4993193000555038,262.95861009997316,None,None,1,,,,,,,,,,,,,,203,2023-04-26_17h18.39.282,Main,2022.1.1,59.837708130395136,
positive,blue,1,k,None,,,,,1,15,35,15,,,,,,,,,,,,,,,,,,,,,prac,None,None,1,1.4992357000010088,265.4585802999791,None,None,1,,,,,,,,,,,,,,203,2023-04-26_17h18.39.282,Main,2022.1.1,59.837708130395136,
negative,blue,1,None,k,,,,,1,16,36,16,,,,,,,,,,,,,,,,,,,,,prac,k,k,1,0.5829084999859333,267.96077150001656,None,None,0,,,,,,,,,,,,,,203,2023-04-26_17h18.39.282,Main,2022.1.1,59.837708130395136,
positive,blue,2,k,None,,,,,1,17,37,17,,,,,,,,,,,,,,,,,,,,,prac,None,None,1,1.498706099926494,269.5418106999714,None,None,1,,,,,,,,,,,,,,203,2023-04-26_17h18.39.282,Main,2022.1.1,59.837708130395136,
positive,blue,1,k,None,,,,,1,18,38,18,,,,,,,,,,,,,,,,,,,,,prac,None,None,1,1.4993270999984816,272.0417937999591,None,None,1,,,,,,,,,,,,,,203,2023-04-26_17h18.39.282,Main,2022.1.1,59.837708130395136,
positive,yellow,1,None,k,,,,,1,19,39,19,,,,,,,,,,,,,,,,,,,,,prac,k,k,1,0.78019039996434,274.5440024000127,None,None,0,,,,,,,,,,,,,,203,2023-04-26_17h18.39.282,Main,2022.1.1,59.837708130395136,
,,,,,,,,,,,,,,,,,,,,,,,,,,,,,,,,,,,,,,,,,,276.324746600003,None,276.324746600003,None,0.013888889,-0.031481482,0,0,0,0.013925970066338778,None,,,203,2023-04-26_17h18.39.282,Main,2022.1.1,59.837708130395136,
negative,yellow,2,k,None,,,,,,,,,0,0,0,0,,,,,,,,,,,,,277.65831940004136,None,277.65831940004136,None,main,None,None,1,1.5000201999209821,279.6856703000376,None,None,1,,,,,,,,,,,,,,203,2023-04-26_17h18.39.282,Main,2022.1.1,59.837708130395136,
positive,red,1,None,None,,,,,,,,,0,1,1,1,,,,,,,,,,,,,,,,,main,None,None,1,1.4960672999732196,282.19172949995846,None,None,1,,,,,,,,,,,,,,203,2023-04-26_17h18.39.282,Main,2022.1.1,59.837708130395136,
positive,blue,2,k,None,,,,,,,,,0,2,2,2,,,,,,,,,,,,,,,,,main,None,None,1,1.5017794999293983,284.69129149999935,None,None,1,,,,,,,,,,,,,,203,2023-04-26_17h18.39.282,Main,2022.1.1,59.837708130395136,
positive,blue,1,k,None,,,,,,,,,0,3,3,3,,,,,,,,,,,,,,,,,main,None,None,1,1.499111199984327,287.19387620000634,None,None,1,,,,,,,,,,,,,,203,2023-04-26_17h18.39.282,Main,2022.1.1,59.837708130395136,
negative,yellow,2,k,None,,,,,,,,,0,4,4,4,,,,,,,,,,,,,,,,,main,None,None,1,1.4968975000083447,289.6936442999868,None,None,1,,,,,,,,,,,,,,203,2023-04-26_17h18.39.282,Main,2022.1.1,59.837708130395136,
positive,yellow,2,None,k,,,,,,,,,0,5,5,5,,,,,,,,,,,,,,,,,main,k,k,1,0.818618300021626,292.1911055999808,None,None,0,,,,,,,,,,,,,,203,2023-04-26_17h18.39.282,Main,2022.1.1,59.837708130395136,
negative,blue,2,None,k,,,,,,,,,0,6,6,6,,,,,,,,,,,,,,,,,main,k,k,1,0.7157729000318795,294.0103680000175,None,None,0,,,,,,,,,,,,,,203,2023-04-26_17h18.39.282,Main,2022.1.1,59.837708130395136,
positive,red,2,None,None,,,,,,,,,0,7,7,7,,,,,,,,,,,,,,,,,main,None,None,1,1.4971319999312982,295.7270125000505,None,None,1,,,,,,,,,,,,,,203,2023-04-26_17h18.39.282,Main,2022.1.1,59.837708130395136,
positive,yellow,1,None,k,,,,,,,,,0,8,8,8,,,,,,,,,,,,,,,,,main,k,k,1,0.7179466000525281,298.22457540000323,None,None,0,,,,,,,,,,,,,,203,2023-04-26_17h18.39.282,Main,2022.1.1,59.837708130395136,
negative,red,1,None,None,,,,,,,,,0,9,9,9,,,,,,,,,,,,,,,,,main,None,None,1,1.5021032999502495,299.943623600062,None,None,1,,,,,,,,,,,,,,203,2023-04-26_17h18.39.282,Main,2022.1.1,59.837708130395136,
positive,yellow,1,None,k,,,,,,,,,0,10,10,10,,,,,,,,,,,,,,,,,main,k,k,1,0.7105554000008851,302.4457640000619,None,None,0,,,,,,,,,,,,,,203,2023-04-26_17h18.39.282,Main,2022.1.1,59.837708130395136,
negative,yellow,1,k,None,,,,,,,,,0,11,11,11,,,,,,,,,,,,,,,,,main,None,None,1,1.5006095999851823,304.16004820005037,None,None,1,,,,,,,,,,,,,,203,2023-04-26_17h18.39.282,Main,2022.1.1,59.837708130395136,
negative,yellow,1,k,None,,,,,,,,,0,12,12,12,,,,,,,,,,,,,,,,,main,None,None,1,1.4993109999923036,306.65756339998916,None,None,1,,,,,,,,,,,,,,203,2023-04-26_17h18.39.282,Main,2022.1.1,59.837708130395136,
negative,red,2,None,None,,,,,,,,,0,13,13,13,,,,,,,,,,,,,,,,,main,None,None,1,1.4964826999930665,309.15763300005347,None,None,1,,,,,,,,,,,,,,203,2023-04-26_17h18.39.282,Main,2022.1.1,59.837708130395136,
positive,yellow,2,None,k,,,,,,,,,0,14,14,14,,,,,,,,,,,,,,,,,main,k,k,1,0.6159339000005275,311.6576713999966,None,None,0,,,,,,,,,,,,,,203,2023-04-26_17h18.39.282,Main,2022.1.1,59.837708130395136,
positive,blue,1,k,None,,,,,,,,,0,15,15,15,,,,,,,,,,,,,,,,,main,None,None,1,1.5016514000017196,313.27400139998645,None,None,1,,,,,,,,,,,,,,203,2023-04-26_17h18.39.282,Main,2022.1.1,59.837708130395136,
negative,blue,1,None,k,,,,,,,,,0,16,16,16,,,,,,,,,,,,,,,,,main,k,k,1,0.5827887000050396,315.77659380005207,None,None,0,,,,,,,,,,,,,,203,2023-04-26_17h18.39.282,Main,2022.1.1,59.837708130395136,
positive,blue,2,k,None,,,,,,,,,0,17,17,17,,,,,,,,,,,,,,,,,main,None,None,1,1.4987886999733746,317.36000720004085,None,None,1,,,,,,,,,,,,,,203,2023-04-26_17h18.39.282,Main,2022.1.1,59.837708130395136,
negative,blue,2,None,k,,,,,,,,,0,18,18,18,,,,,,,,,,,,,,,,,main,k,k,1,0.6977695000823587,319.85976320004556,None,None,0,,,,,,,,,,,,,,203,2023-04-26_17h18.39.282,Main,2022.1.1,59.837708130395136,
negative,blue,1,None,k,,,,,,,,,0,19,19,19,,,,,,,,,,,,,,,,,main,k,k,1,0.7486023999517784,321.557178499992,None,None,0,,,,,,,,,,,,,,203,2023-04-26_17h18.39.282,Main,2022.1.1,59.837708130395136,
negative,blue,1,None,k,,,,,,,,,0,20,20,20,,,,,,,,,,,,,,,,,main,k,k,1,0.6516607999801636,323.30720679997467,None,None,0,,,,,,,,,,,,,,203,2023-04-26_17h18.39.282,Main,2022.1.1,59.837708130395136,
negative,blue,2,None,k,,,,,,,,,0,21,21,21,,,,,,,,,,,,,,,,,main,k,k,1,0.6824417000170797,324.95975859998725,None,None,0,,,,,,,,,,,,,,203,2023-04-26_17h18.39.282,Main,2022.1.1,59.837708130395136,
negative,red,1,None,None,,,,,,,,,0,22,22,22,,,,,,,,,,,,,,,,,main,None,None,1,1.4963217000477016,326.6431481000036,None,None,1,,,,,,,,,,,,,,203,2023-04-26_17h18.39.282,Main,2022.1.1,59.837708130395136,
positive,red,2,None,None,,,,,,,,,0,23,23,23,,,,,,,,,,,,,,,,,main,None,None,1,1.5019353999523446,329.1404101999942,None,None,1,,,,,,,,,,,,,,203,2023-04-26_17h18.39.282,Main,2022.1.1,59.837708130395136,
negative,red,2,None,None,,,,,,,,,0,24,24,24,,,,,,,,,,,,,,,,,main,None,None,1,1.4988247000146657,331.64297210006043,None,None,1,,,,,,,,,,,,,,203,2023-04-26_17h18.39.282,Main,2022.1.1,59.837708130395136,
positive,blue,2,k,None,,,,,,,,,0,25,25,25,,,,,,,,,,,,,,,,,main,None,None,1,1.4966835000086576,334.1405702000484,None,None,1,,,,,,,,,,,,,,203,2023-04-26_17h18.39.282,Main,2022.1.1,59.837708130395136,
negative,yellow,1,k,None,,,,,,,,,0,26,26,26,,,,,,,,,,,,,,,,,main,None,None,1,1.5017300000181422,336.6401949999854,None,None,1,,,,,,,,,,,,,,203,2023-04-26_17h18.39.282,Main,2022.1.1,59.837708130395136,
positive,blue,2,k,None,,,,,,,,,0,27,27,27,,,,,,,,,,,,,,,,,main,None,None,1,1.502236899919808,339.14277130004484,None,None,1,,,,,,,,,,,,,,203,2023-04-26_17h18.39.282,Main,2022.1.1,59.837708130395136,
negative,blue,2,None,k,,,,,,,,,0,28,28,28,,,,,,,,,,,,,,,,,main,k,k,1,0.6296088999370113,341.6438871000428,None,None,0,,,,,,,,,,,,,,203,2023-04-26_17h18.39.282,Main,2022.1.1,59.837708130395136,
positive,red,1,None,None,,,,,,,,,0,29,29,29,,,,,,,,,,,,,,,,,main,None,None,1,1.4964316999539733,343.27591880003456,None,None,1,,,,,,,,,,,,,,203,2023-04-26_17h18.39.282,Main,2022.1.1,59.837708130395136,
positive,blue,1,k,None,,,,,,,,,0,30,30,30,,,,,,,,,,,,,,,,,main,None,None,1,1.5019212999613956,345.7734030999709,None,None,1,,,,,,,,,,,,,,203,2023-04-26_17h18.39.282,Main,2022.1.1,59.837708130395136,
positive,yellow,1,None,k,,,,,,,,,0,31,31,31,,,,,,,,,,,,,,,,,main,k,k,1,0.7634717000182718,348.2760001999559,None,None,0,,,,,,,,,,,,,,203,2023-04-26_17h18.39.282,Main,2022.1.1,59.837708130395136,
negative,yellow,2,k,None,,,,,,,,,0,32,32,32,,,,,,,,,,,,,,,,,main,None,None,1,1.5015241000801325,350.0399428999517,None,None,1,,,,,,,,,,,,,,203,2023-04-26_17h18.39.282,Main,2022.1.1,59.837708130395136,
negative,blue,1,None,k,,,,,,,,,0,33,33,33,,,,,,,,,,,,,,,,,main,k,k,1,0.647340500028804,352.5425472999923,None,None,0,,,,,,,,,,,,,,203,2023-04-26_17h18.39.282,Main,2022.1.1,59.837708130395136,
positive,blue,1,k,None,,,,,,,,,0,34,34,34,,,,,,,,,,,,,,,,,main,None,None,1,1.5009837000397965,354.1925348000368,None,None,1,,,,,,,,,,,,,,203,2023-04-26_17h18.39.282,Main,2022.1.1,59.837708130395136,
negative,yellow,1,k,None,,,,,,,,,0,35,35,35,,,,,,,,,,,,,,,,,main,None,None,1,1.4990803999826312,356.6923293999862,None,None,1,,,,,,,,,,,,,,203,2023-04-26_17h18.39.282,Main,2022.1.1,59.837708130395136,
positive,yellow,2,None,k,,,,,,,,,0,36,36,36,,,,,,,,,,,,,,,,,main,k,k,1,0.780621699988842,359.1899756999919,None,None,0,,,,,,,,,,,,,,203,2023-04-26_17h18.39.282,Main,2022.1.1,59.837708130395136,
positive,yellow,2,None,k,,,,,,,,,0,37,37,37,,,,,,,,,,,,,,,,,main,k,k,1,0.6162972999736667,360.97555570001714,None,None,0,,,,,,,,,,,,,,203,2023-04-26_17h18.39.282,Main,2022.1.1,59.837708130395136,
negative,yellow,2,k,None,,,,,,,,,0,38,38,38,,,,,,,,,,,,,,,,,main,None,None,1,1.4998484998941422,362.592165100039,None,None,1,,,,,,,,,,,,,,203,2023-04-26_17h18.39.282,Main,2022.1.1,59.837708130395136,
positive,yellow,1,None,k,,,,,,,,,0,39,39,39,,,,,,,,,,,,,,,,,main,k,k,1,0.8161752000451088,365.0899122999981,None,None,0,,,,,,,,,,,,,,203,2023-04-26_17h18.39.282,Main,2022.1.1,59.837708130395136,
negative,yellow,2,k,None,,,,,,,,,0,40,40,40,,,,,,,,,,,,,,,,,main,None,None,1,1.4989789000246674,366.9065334999468,None,None,1,,,,,,,,,,,,,,203,2023-04-26_17h18.39.282,Main,2022.1.1,59.837708130395136,
positive,blue,2,k,None,,,,,,,,,0,41,41,41,,,,,,,,,,,,,,,,,main,None,None,1,1.4991934000281617,369.4065147000365,None,None,1,,,,,,,,,,,,,,203,2023-04-26_17h18.39.282,Main,2022.1.1,59.837708130395136,
positive,blue,2,k,None,,,,,,,,,0,42,42,42,,,,,,,,,,,,,,,,,main,None,None,1,1.4992617000825703,371.9064057000214,None,None,1,,,,,,,,,,,,,,203,2023-04-26_17h18.39.282,Main,2022.1.1,59.837708130395136,
negative,blue,2,None,k,,,,,,,,,0,43,43,43,,,,,,,,,,,,,,,,,main,k,k,1,0.7163999000331387,374.40853260003496,None,None,0,,,,,,,,,,,,,,203,2023-04-26_17h18.39.282,Main,2022.1.1,59.837708130395136,
negative,red,1,None,None,,,,,,,,,0,44,44,44,,,,,,,,,,,,,,,,,main,None,None,1,1.496396500035189,376.1252689999528,None,None,1,,,,,,,,,,,,,,203,2023-04-26_17h18.39.282,Main,2022.1.1,59.837708130395136,
negative,yellow,1,k,None,,,,,,,,,0,45,45,45,,,,,,,,,,,,,,,,,main,None,None,1,1.5016766999615356,378.62273860001005,None,None,1,,,,,,,,,,,,,,203,2023-04-26_17h18.39.282,Main,2022.1.1,59.837708130395136,
negative,yellow,1,k,None,,,,,,,,,0,46,46,46,,,,,,,,,,,,,,,,,main,None,None,1,1.4991949000395834,381.1253495999845,None,None,1,,,,,,,,,,,,,,203,2023-04-26_17h18.39.282,Main,2022.1.1,59.837708130395136,
positive,red,1,None,None,,,,,,,,,0,47,47,47,,,,,,,,,,,,,,,,,main,None,None,1,1.4966117999283597,383.62533910002094,None,None,1,,,,,,,,,,,,,,203,2023-04-26_17h18.39.282,Main,2022.1.1,59.837708130395136,
positive,yellow,1,None,k,,,,,,,,,0,48,48,48,,,,,,,,,,,,,,,,,main,k,k,1,1.5521203998941928,386.12259709998034,None,None,0,,,,,,,,,,,,,,203,2023-04-26_17h18.39.282,Main,2022.1.1,59.837708130395136,
negative,blue,1,None,k,,,,,,,,,0,49,49,49,,,,,,,,,,,,,,,,,main,k,k,1,0.9819854999659583,389.67527610005345,None,None,0,,,,,,,,,,,,,,203,2023-04-26_17h18.39.282,Main,2022.1.1,59.837708130395136,
positive,yellow,2,None,k,,,,,,,,,0,50,50,50,,,,,,,,,,,,,,,,,main,k,k,1,0.7348574000643566,391.65576370002236,None,None,0,,,,,,,,,,,,,,203,2023-04-26_17h18.39.282,Main,2022.1.1,59.837708130395136,
negative,blue,1,None,k,,,,,,,,,0,51,51,51,,,,,,,,,,,,,,,,,main,k,k,1,0.6491448000306264,393.3917174000526,None,None,0,,,,,,,,,,,,,,203,2023-04-26_17h18.39.282,Main,2022.1.1,59.837708130395136,
positive,red,2,None,None,,,,,,,,,0,52,52,52,,,,,,,,,,,,,,,,,main,None,None,1,1.498775799991563,395.04169310000725,None,None,1,,,,,,,,,,,,,,203,2023-04-26_17h18.39.282,Main,2022.1.1,59.837708130395136,
positive,yellow,2,None,k,,,,,,,,,0,53,53,53,,,,,,,,,,,,,,,,,main,k,k,1,0.7474739999743178,397.5415251000086,None,None,0,,,,,,,,,,,,,,203,2023-04-26_17h18.39.282,Main,2022.1.1,59.837708130395136,
negative,red,2,None,None,,,,,,,,,0,54,54,54,,,,,,,,,,,,,,,,,main,None,None,1,1.5007666000165045,399.29148100002203,None,None,1,,,,,,,,,,,,,,203,2023-04-26_17h18.39.282,Main,2022.1.1,59.837708130395136,
positive,yellow,1,None,k,,,,,,,,,0,55,55,55,,,,,,,,,,,,,,,,,main,k,k,1,0.6807567999931052,401.791420500027,None,None,0,,,,,,,,,,,,,,203,2023-04-26_17h18.39.282,Main,2022.1.1,59.837708130395136,
negative,blue,2,None,k,,,,,,,,,0,56,56,56,,,,,,,,,,,,,,,,,main,k,k,1,0.7010745999868959,403.4746590000577,None,None,0,,,,,,,,,,,,,,203,2023-04-26_17h18.39.282,Main,2022.1.1,59.837708130395136,
positive,blue,1,k,None,,,,,,,,,0,57,57,57,,,,,,,,,,,,,,,,,main,None,None,1,1.4969773999182507,405.17247180000413,None,None,1,,,,,,,,,,,,,,203,2023-04-26_17h18.39.282,Main,2022.1.1,59.837708130395136,
positive,blue,1,k,None,,,,,,,,,0,58,58,58,,,,,,,,,,,,,,,,,main,None,None,1,1.5011891000904143,407.6745572000509,None,None,1,,,,,,,,,,,,,,203,2023-04-26_17h18.39.282,Main,2022.1.1,59.837708130395136,
negative,yellow,2,k,None,,,,,,,,,0,59,59,59,,,,,,,,,,,,,,,,,main,None,None,1,1.4967915000161156,410.17455989995506,None,None,1,,,,,,,,,,,,,,203,2023-04-26_17h18.39.282,Main,2022.1.1,59.837708130395136,
positive,red,2,None,None,,,,,,,,,0,60,60,60,,,,,,,,,,,,,,,,,main,None,None,1,1.4992095999186859,412.67224280000664,None,None,1,,,,,,,,,,,,,,203,2023-04-26_17h18.39.282,Main,2022.1.1,59.837708130395136,
negative,yellow,1,k,None,,,,,,,,,0,61,61,61,,,,,,,,,,,,,,,,,main,None,None,1,1.5015588999958709,415.17220859997906,None,None,1,,,,,,,,,,,,,,203,2023-04-26_17h18.39.282,Main,2022.1.1,59.837708130395136,
negative,red,1,None,None,,,,,,,,,0,62,62,62,,,,,,,,,,,,,,,,,main,None,None,1,1.4995193999493495,417.6745854000328,None,None,1,,,,,,,,,,,,,,203,2023-04-26_17h18.39.282,Main,2022.1.1,59.837708130395136,
negative,blue,1,None,k,,,,,,,,,0,63,63,63,,,,,,,,,,,,,,,,,main,k,k,1,0.7633613999933004,420.17433639999945,None,None,0,,,,,,,,,,,,,,203,2023-04-26_17h18.39.282,Main,2022.1.1,59.837708130395136,
positive,blue,2,k,None,,,,,,,,,0,64,64,64,,,,,,,,,,,,,,,,,main,None,None,1,1.4992468999698758,421.9384890999645,None,None,1,,,,,,,,,,,,,,203,2023-04-26_17h18.39.282,Main,2022.1.1,59.837708130395136,
negative,yellow,2,k,None,,,,,,,,,0,65,65,65,,,,,,,,,,,,,,,,,main,None,None,1,1.5014038999797776,424.4385160000529,None,None,1,,,,,,,,,,,,,,203,2023-04-26_17h18.39.282,Main,2022.1.1,59.837708130395136,
positive,yellow,2,None,k,,,,,,,,,0,66,66,66,,,,,,,,,,,,,,,,,main,k,k,1,0.7140711999963969,426.9410668000346,None,None,0,,,,,,,,,,,,,,203,2023-04-26_17h18.39.282,Main,2022.1.1,59.837708130395136,
positive,yellow,2,None,k,,,,,,,,,0,67,67,67,,,,,,,,,,,,,,,,,main,k,k,1,0.6657444998854771,428.6575654000044,None,None,0,,,,,,,,,,,,,,203,2023-04-26_17h18.39.282,Main,2022.1.1,59.837708130395136,
positive,red,1,None,None,,,,,,,,,0,68,68,68,,,,,,,,,,,,,,,,,main,None,None,1,1.4986640000715852,430.3220450000372,None,None,1,,,,,,,,,,,,,,203,2023-04-26_17h18.39.282,Main,2022.1.1,59.837708130395136,
positive,yellow,1,None,k,,,,,,,,,0,69,69,69,,,,,,,,,,,,,,,,,main,k,k,1,0.8021184999961406,432.821838999982,None,None,0,,,,,,,,,,,,,,203,2023-04-26_17h18.39.282,Main,2022.1.1,59.837708130395136,
negative,yellow,2,k,None,,,,,,,,,0,70,70,70,,,,,,,,,,,,,,,,,main,None,None,1,1.4987507000332698,434.62419879995286,None,None,1,,,,,,,,,,,,,,203,2023-04-26_17h18.39.282,Main,2022.1.1,59.837708130395136,
positive,yellow,1,None,k,,,,,,,,,0,71,71,71,,,,,,,,,,,,,,,,,main,k,k,1,0.7329600999364629,437.1239760000026,None,None,0,,,,,,,,,,,,,,203,2023-04-26_17h18.39.282,Main,2022.1.1,59.837708130395136,
negative,blue,1,None,k,,,,,,,,,0,72,72,72,,,,,,,,,,,,,,,,,main,k,k,1,0.7135360999964178,438.8573371999664,None,None,0,,,,,,,,,,,,,,203,2023-04-26_17h18.39.282,Main,2022.1.1,59.837708130395136,
negative,red,2,None,None,,,,,,,,,0,73,73,73,,,,,,,,,,,,,,,,,main,None,None,1,1.5014619999565184,440.5716205999488,None,None,1,,,,,,,,,,,,,,203,2023-04-26_17h18.39.282,Main,2022.1.1,59.837708130395136,
positive,blue,2,k,None,,,,,,,,,0,74,74,74,,,,,,,,,,,,,,,,,main,None,None,1,1.4992322999751195,443.0740244999761,None,None,1,,,,,,,,,,,,,,203,2023-04-26_17h18.39.282,Main,2022.1.1,59.837708130395136,
negative,blue,2,None,k,,,,,,,,,0,75,75,75,,,,,,,,,,,,,,,,,main,k,k,1,0.6325132000492886,445.5740341000492,None,None,0,,,,,,,,,,,,,,203,2023-04-26_17h18.39.282,Main,2022.1.1,59.837708130395136,
negative,blue,2,None,k,,,,,,,,,0,76,76,76,,,,,,,,,,,,,,,,,main,k,k,1,0.6361208000453189,447.2049248999683,None,None,0,,,,,,,,,,,,,,203,2023-04-26_17h18.39.282,Main,2022.1.1,59.837708130395136,
negative,yellow,1,k,None,,,,,,,,,0,77,77,77,,,,,,,,,,,,,,,,,main,None,None,1,1.4953054999932647,448.8423230999615,None,None,1,,,,,,,,,,,,,,203,2023-04-26_17h18.39.282,Main,2022.1.1,59.837708130395136,
positive,blue,1,k,None,,,,,,,,,0,78,78,78,,,,,,,,,,,,,,,,,main,None,None,1,1.4993279000045732,451.3383329999633,None,None,1,,,,,,,,,,,,,,203,2023-04-26_17h18.39.282,Main,2022.1.1,59.837708130395136,
positive,blue,1,k,None,,,,,,,,,0,79,79,79,,,,,,,,,,,,,,,,,main,None,None,1,1.4988320999545977,453.84042400005274,None,None,1,,,,,,,,,,,,,,203,2023-04-26_17h18.39.282,Main,2022.1.1,59.837708130395136,
positive,red,2,None,None,,,,,,,,,0,80,80,80,,,,,,,,,,,,,,,,,main,None,None,1,1.4970964000094682,456.34030240005814,None,None,1,,,,,,,,,,,,,,203,2023-04-26_17h18.39.282,Main,2022.1.1,59.837708130395136,
positive,yellow,2,None,k,,,,,,,,,0,81,81,81,,,,,,,,,,,,,,,,,main,k,k,1,0.7850332000525668,458.83824309997726,None,None,0,,,,,,,,,,,,,,203,2023-04-26_17h18.39.282,Main,2022.1.1,59.837708130395136,
positive,blue,1,k,None,,,,,,,,,0,82,82,82,,,,,,,,,,,,,,,,,main,None,None,1,1.4989136999938637,460.62370989995543,None,None,1,,,,,,,,,,,,,,203,2023-04-26_17h18.39.282,Main,2022.1.1,59.837708130395136,
negative,yellow,2,k,None,,,,,,,,,0,83,83,83,,,,,,,,,,,,,,,,,main,None,None,1,1.4991504000499845,463.1234870000044,None,None,1,,,,,,,,,,,,,,203,2023-04-26_17h18.39.282,Main,2022.1.1,59.837708130395136,
positive,blue,2,k,None,,,,,,,,,0,84,84,84,,,,,,,,,,,,,,,,,main,None,None,1,1.4993318000342697,465.62342449999414,None,None,1,,,,,,,,,,,,,,203,2023-04-26_17h18.39.282,Main,2022.1.1,59.837708130395136,
positive,yellow,1,None,k,,,,,,,,,0,85,85,85,,,,,,,,,,,,,,,,,main,k,k,1,0.6802721999119967,468.1212170999497,None,None,0,,,,,,,,,,,,,,203,2023-04-26_17h18.39.282,Main,2022.1.1,59.837708130395136,
positive,blue,2,k,None,,,,,,,,,0,86,86,86,,,,,,,,,,,,,,,,,main,None,None,1,1.5015726999845356,469.8041874000337,None,None,1,,,,,,,,,,,,,,203,2023-04-26_17h18.39.282,Main,2022.1.1,59.837708130395136,
positive,blue,1,k,None,,,,,,,,,0,87,87,87,,,,,,,,,,,,,,,,,main,None,None,1,1.4990296000614762,472.30712869996205,None,None,1,,,,,,,,,,,,,,203,2023-04-26_17h18.39.282,Main,2022.1.1,59.837708130395136,
negative,yellow,2,k,None,,,,,,,,,0,88,88,88,,,,,,,,,,,,,,,,,main,None,None,1,1.5022529000416398,474.8065754000563,None,None,1,,,,,,,,,,,,,,203,2023-04-26_17h18.39.282,Main,2022.1.1,59.837708130395136,
negative,blue,2,None,k,,,,,,,,,0,89,89,89,,,,,,,,,,,,,,,,,main,k,k,1,0.710966799990274,477.30657060001977,None,None,0,,,,,,,,,,,,,,203,2023-04-26_17h18.39.282,Main,2022.1.1,59.837708130395136,
positive,yellow,2,None,k,,,,,,,,,0,90,90,90,,,,,,,,,,,,,,,,,main,k,k,1,0.7014375999569893,479.0209138999926,None,None,0,,,,,,,,,,,,,,203,2023-04-26_17h18.39.282,Main,2022.1.1,59.837708130395136,
negative,yellow,1,k,None,,,,,,,,,0,91,91,91,,,,,,,,,,,,,,,,,main,None,None,1,1.498966500046663,480.72311789996456,None,None,1,,,,,,,,,,,,,,203,2023-04-26_17h18.39.282,Main,2022.1.1,59.837708130395136,
negative,red,2,None,None,,,,,,,,,0,92,92,92,,,,,,,,,,,,,,,,,main,None,None,1,1.49658969999291,483.2231063999934,None,None,1,,,,,,,,,,,,,,203,2023-04-26_17h18.39.282,Main,2022.1.1,59.837708130395136,
negative,blue,2,None,k,,,,,,,,,0,93,93,93,,,,,,,,,,,,,,,,,main,k,k,1,1.3020714999875054,485.72054650005884,None,None,0,,,,,,,,,,,,,,203,2023-04-26_17h18.39.282,Main,2022.1.1,59.837708130395136,
negative,blue,1,None,k,,,,,,,,,0,94,94,94,,,,,,,,,,,,,,,,,main,k,k,1,0.7660615999484435,488.023208300001,None,None,0,,,,,,,,,,,,,,203,2023-04-26_17h18.39.282,Main,2022.1.1,59.837708130395136,
negative,blue,1,None,k,,,,,,,,,0,95,95,95,,,,,,,,,,,,,,,,,main,k,k,1,0.6322909999871626,489.78997539996635,None,None,0,,,,,,,,,,,,,,203,2023-04-26_17h18.39.282,Main,2022.1.1,59.837708130395136,
negative,red,1,None,None,,,,,,,,,0,96,96,96,,,,,,,,,,,,,,,,,main,None,None,1,1.49877040006686,491.42298220004886,None,None,1,,,,,,,,,,,,,,203,2023-04-26_17h18.39.282,Main,2022.1.1,59.837708130395136,
positive,yellow,1,None,k,,,,,,,,,0,97,97,97,,,,,,,,,,,,,,,,,main,k,k,1,0.8306327000027522,493.9206140000606,None,None,0,,,,,,,,,,,,,,203,2023-04-26_17h18.39.282,Main,2022.1.1,59.837708130395136,
negative,yellow,1,k,None,,,,,,,,,0,98,98,98,,,,,,,,,,,,,,,,,main,None,None,1,1.501155300065875,495.7539663000498,None,None,1,,,,,,,,,,,,,,203,2023-04-26_17h18.39.282,Main,2022.1.1,59.837708130395136,
positive,red,1,None,None,,,,,,,,,0,99,99,99,,,,,,,,,,,,,,,,,main,None,None,1,1.497146699926816,498.2561615000013,None,None,1,,,,,,,,,,,,,,203,2023-04-26_17h18.39.282,Main,2022.1.1,59.837708130395136,
positive,blue,1,k,None,,,,,,,,,0,100,100,100,,,,,,,,,,,,,,,,,main,None,None,1,1.5012992999982089,500.75379490002524,None,None,1,,,,,,,,,,,,,,203,2023-04-26_17h18.39.282,Main,2022.1.1,59.837708130395136,
negative,yellow,1,k,None,,,,,,,,,0,101,101,101,,,,,,,,,,,,,,,,,main,None,None,1,1.4995670999633148,503.2561830000486,None,None,1,,,,,,,,,,,,,,203,2023-04-26_17h18.39.282,Main,2022.1.1,59.837708130395136,
negative,blue,2,None,k,,,,,,,,,0,102,102,102,,,,,,,,,,,,,,,,,main,k,k,1,0.8295531999319792,505.756029900047,None,None,0,,,,,,,,,,,,,,203,2023-04-26_17h18.39.282,Main,2022.1.1,59.837708130395136,
negative,yellow,2,k,None,,,,,,,,,0,103,103,103,,,,,,,,,,,,,,,,,main,None,None,1,1.4990074000088498,507.58678570005577,None,None,1,,,,,,,,,,,,,,203,2023-04-26_17h18.39.282,Main,2022.1.1,59.837708130395136,
positive,yellow,2,None,k,,,,,,,,,0,104,104,104,,,,,,,,,,,,,,,,,main,k,k,1,0.6999758000019938,510.08676820003893,None,None,0,,,,,,,,,,,,,,203,2023-04-26_17h18.39.282,Main,2022.1.1,59.837708130395136,
positive,blue,1,k,None,,,,,,,,,0,105,105,105,,,,,,,,,,,,,,,,,main,None,None,1,1.5012236000038683,511.7894302000059,None,None,1,,,,,,,,,,,,,,203,2023-04-26_17h18.39.282,Main,2022.1.1,59.837708130395136,
positive,blue,2,k,None,,,,,,,,,0,106,106,106,,,,,,,,,,,,,,,,,main,None,None,1,1.4966566999210045,514.2893054999877,None,None,1,,,,,,,,,,,,,,203,2023-04-26_17h18.39.282,Main,2022.1.1,59.837708130395136,
negative,blue,1,None,k,,,,,,,,,0,107,107,107,,,,,,,,,,,,,,,,,main,k,k,1,0.7519971000729129,516.7865771000506,None,None,0,,,,,,,,,,,,,,203,2023-04-26_17h18.39.282,Main,2022.1.1,59.837708130395136,
positive,yellow,2,None,k,,,,,,,,,0,108,108,108,,,,,,,,,,,,,,,,,main,k,k,1,0.8302415000507608,518.5369831999997,None,None,0,,,,,,,,,,,,,,203,2023-04-26_17h18.39.282,Main,2022.1.1,59.837708130395136,
negative,yellow,1,k,None,,,,,,,,,0,109,109,109,,,,,,,,,,,,,,,,,main,None,k,0,0.6832774999784306,520.3726549999556,None,None,1,,,,,,,,,,,,,,203,2023-04-26_17h18.39.282,Main,2022.1.1,59.837708130395136,
negative,blue,2,None,k,,,,,,,,,0,110,110,110,,,,,,,,,,,,,,,,,main,k,k,1,0.9655164999421686,523.0557510999497,None,None,0,,,,,,,,,,,,,,203,2023-04-26_17h18.39.282,Main,2022.1.1,59.837708130395136,
positive,blue,2,k,None,,,,,,,,,0,111,111,111,,,,,,,,,,,,,,,,,main,None,None,1,1.5006823000730947,525.0197703000158,None,None,1,,,,,,,,,,,,,,203,2023-04-26_17h18.39.282,Main,2022.1.1,59.837708130395136,
negative,blue,1,None,k,,,,,,,,,0,112,112,112,,,,,,,,,,,,,,,,,main,k,k,1,0.7495681999716908,527.5223727000412,None,None,0,,,,,,,,,,,,,,203,2023-04-26_17h18.39.282,Main,2022.1.1,59.837708130395136,
positive,yellow,1,None,k,,,,,,,,,0,113,113,113,,,,,,,,,,,,,,,,,main,k,k,1,0.763264499953948,529.2722888999851,None,None,0,,,,,,,,,,,,,,203,2023-04-26_17h18.39.282,Main,2022.1.1,59.837708130395136,
negative,red,1,None,None,,,,,,,,,0,114,114,114,,,,,,,,,,,,,,,,,main,None,None,1,1.5006348000606522,531.036475699977,None,None,1,,,,,,,,,,,,,,203,2023-04-26_17h18.39.282,Main,2022.1.1,59.837708130395136,
positive,red,1,None,None,,,,,,,,,0,115,115,115,,,,,,,,,,,,,,,,,main,None,None,1,1.4983218999113888,533.5389117000159,None,None,1,,,,,,,,,,,,,,203,2023-04-26_17h18.39.282,Main,2022.1.1,59.837708130395136,
negative,red,2,None,None,,,,,,,,,0,116,116,116,,,,,,,,,,,,,,,,,main,None,None,1,1.4958009000401944,536.0389024999458,None,None,1,,,,,,,,,,,,,,203,2023-04-26_17h18.39.282,Main,2022.1.1,59.837708130395136,
negative,yellow,2,k,None,,,,,,,,,0,117,117,117,,,,,,,,,,,,,,,,,main,None,None,1,1.5011753999860957,538.5362112000585,None,None,1,,,,,,,,,,,,,,203,2023-04-26_17h18.39.282,Main,2022.1.1,59.837708130395136,
positive,yellow,1,None,k,,,,,,,,,0,118,118,118,,,,,,,,,,,,,,,,,main,k,k,1,0.8124871000181884,541.0388071000343,None,None,0,,,,,,,,,,,,,,203,2023-04-26_17h18.39.282,Main,2022.1.1,59.837708130395136,
positive,red,2,None,None,,,,,,,,,0,119,119,119,,,,,,,,,,,,,,,,,main,None,None,1,1.5017025000415742,542.8527178999502,None,None,1,,,,,,,,,,,,,,203,2023-04-26_17h18.39.282,Main,2022.1.1,59.837708130395136,
positive,blue,2,k,None,,,,,,,,,0,120,120,120,,,,,,,,,,,,,,,,,main,None,None,1,1.4991898000007495,545.3553181999596,None,None,1,,,,,,,,,,,,,,203,2023-04-26_17h18.39.282,Main,2022.1.1,59.837708130395136,
negative,red,1,None,None,,,,,,,,,0,121,121,121,,,,,,,,,,,,,,,,,main,None,None,1,1.4990606000646949,547.855259199976,None,None,1,,,,,,,,,,,,,,203,2023-04-26_17h18.39.282,Main,2022.1.1,59.837708130395136,
positive,yellow,2,None,k,,,,,,,,,0,122,122,122,,,,,,,,,,,,,,,,,main,k,k,1,0.6970932999392971,550.3552147999872,None,None,0,,,,,,,,,,,,,,203,2023-04-26_17h18.39.282,Main,2022.1.1,59.837708130395136,
negative,red,2,None,None,,,,,,,,,0,123,123,123,,,,,,,,,,,,,,,,,main,None,None,1,1.5014156999532133,552.0525246000616,None,None,1,,,,,,,,,,,,,,203,2023-04-26_17h18.39.282,Main,2022.1.1,59.837708130395136,
negative,yellow,2,k,None,,,,,,,,,0,124,124,124,,,,,,,,,,,,,,,,,main,None,None,1,1.4994290000759065,554.5551252999576,None,None,1,,,,,,,,,,,,,,203,2023-04-26_17h18.39.282,Main,2022.1.1,59.837708130395136,
positive,red,1,None,None,,,,,,,,,0,125,125,125,,,,,,,,,,,,,,,,,main,None,None,1,1.4965397999621928,557.0528493999736,None,None,1,,,,,,,,,,,,,,203,2023-04-26_17h18.39.282,Main,2022.1.1,59.837708130395136,
negative,blue,2,None,k,,,,,,,,,0,126,126,126,,,,,,,,,,,,,,,,,main,k,k,1,0.7352056999225169,559.5524592000293,None,None,0,,,,,,,,,,,,,,203,2023-04-26_17h18.39.282,Main,2022.1.1,59.837708130395136,
negative,blue,1,None,k,,,,,,,,,0,127,127,127,,,,,,,,,,,,,,,,,main,k,k,1,0.8638279000297189,561.2883684999542,None,None,0,,,,,,,,,,,,,,203,2023-04-26_17h18.39.282,Main,2022.1.1,59.837708130395136,
negative,yellow,1,k,None,,,,,,,,,0,128,128,128,,,,,,,,,,,,,,,,,main,None,None,1,1.498434599954635,563.1551543000387,None,None,1,,,,,,,,,,,,,,203,2023-04-26_17h18.39.282,Main,2022.1.1,59.837708130395136,
negative,yellow,1,k,None,,,,,,,,,0,129,129,129,,,,,,,,,,,,,,,,,main,None,None,1,1.5017294000135735,565.652490700013,None,None,1,,,,,,,,,,,,,,203,2023-04-26_17h18.39.282,Main,2022.1.1,59.837708130395136,
positive,blue,1,k,None,,,,,,,,,0,130,130,130,,,,,,,,,,,,,,,,,main,None,None,1,1.496765699936077,568.154851200059,None,None,1,,,,,,,,,,,,,,203,2023-04-26_17h18.39.282,Main,2022.1.1,59.837708130395136,
negative,blue,1,None,k,,,,,,,,,0,131,131,131,,,,,,,,,,,,,,,,,main,k,k,1,0.7018990000942722,570.6532900000457,None,None,0,,,,,,,,,,,,,,203,2023-04-26_17h18.39.282,Main,2022.1.1,59.837708130395136,
negative,blue,2,None,k,,,,,,,,,0,132,132,132,,,,,,,,,,,,,,,,,main,k,k,1,0.7494019999867305,572.3547422999982,None,None,0,,,,,,,,,,,,,,203,2023-04-26_17h18.39.282,Main,2022.1.1,59.837708130395136,
positive,blue,2,k,None,,,,,,,,,0,133,133,133,,,,,,,,,,,,,,,,,main,None,None,1,1.4990314999595284,574.1047264999943,None,None,1,,,,,,,,,,,,,,203,2023-04-26_17h18.39.282,Main,2022.1.1,59.837708130395136,
positive,red,2,None,None,,,,,,,,,0,134,134,134,,,,,,,,,,,,,,,,,main,None,None,1,1.4966882000444457,576.6024313999806,None,None,1,,,,,,,,,,,,,,203,2023-04-26_17h18.39.282,Main,2022.1.1,59.837708130395136,
negative,yellow,2,k,None,,,,,,,,,0,135,135,135,,,,,,,,,,,,,,,,,main,None,None,1,1.5018379000248387,579.1028943000128,None,None,1,,,,,,,,,,,,,,203,2023-04-26_17h18.39.282,Main,2022.1.1,59.837708130395136,
positive,yellow,2,None,k,,,,,,,,,0,136,136,136,,,,,,,,,,,,,,,,,main,k,k,1,0.8660168000496924,581.6046060000081,None,None,0,,,,,,,,,,,,,,203,2023-04-26_17h18.39.282,Main,2022.1.1,59.837708130395136,
positive,blue,1,k,None,,,,,,,,,0,137,137,137,,,,,,,,,,,,,,,,,main,None,None,1,1.4964169000741094,583.4712569999974,None,None,1,,,,,,,,,,,,,,203,2023-04-26_17h18.39.282,Main,2022.1.1,59.837708130395136,
positive,yellow,1,None,k,,,,,,,,,0,138,138,138,,,,,,,,,,,,,,,,,main,k,k,1,0.8666138999396935,585.9685751999496,None,None,0,,,,,,,,,,,,,,203,2023-04-26_17h18.39.282,Main,2022.1.1,59.837708130395136,
positive,yellow,1,None,k,,,,,,,,,0,139,139,139,,,,,,,,,,,,,,,,,main,k,k,1,0.8012079000473022,587.8355777000543,None,None,0,,,,,,,,,,,,,,203,2023-04-26_17h18.39.282,Main,2022.1.1,59.837708130395136,
positive,yellow,1,None,k,,,,,,,,,0,140,140,140,,,,,,,,,,,,,,,,,main,k,k,1,0.713096100022085,589.6378073999658,None,None,0,,,,,,,,,,,,,,203,2023-04-26_17h18.39.282,Main,2022.1.1,59.837708130395136,
positive,blue,1,k,None,,,,,,,,,0,141,141,141,,,,,,,,,,,,,,,,,main,None,None,1,1.5013305000029504,591.351807900006,None,None,1,,,,,,,,,,,,,,203,2023-04-26_17h18.39.282,Main,2022.1.1,59.837708130395136,
positive,blue,2,k,None,,,,,,,,,0,142,142,142,,,,,,,,,,,,,,,,,main,None,None,1,1.4992192999925464,593.854373899987,None,None,1,,,,,,,,,,,,,,203,2023-04-26_17h18.39.282,Main,2022.1.1,59.837708130395136,
positive,yellow,2,None,k,,,,,,,,,0,143,143,143,,,,,,,,,,,,,,,,,main,k,k,1,0.7829052999150008,596.3541589999804,None,None,0,,,,,,,,,,,,,,203,2023-04-26_17h18.39.282,Main,2022.1.1,59.837708130395136,
negative,yellow,2,k,None,,,,,,,,,0,144,144,144,,,,,,,,,,,,,,,,,main,None,None,1,1.4963543999474496,598.137475800002,None,None,1,,,,,,,,,,,,,,203,2023-04-26_17h18.39.282,Main,2022.1.1,59.837708130395136,
negative,blue,2,None,k,,,,,,,,,0,145,145,145,,,,,,,,,,,,,,,,,main,k,k,1,0.6520490000257269,600.6351251000306,None,None,0,,,,,,,,,,,,,,203,2023-04-26_17h18.39.282,Main,2022.1.1,59.837708130395136,
negative,red,1,None,None,,,,,,,,,0,146,146,146,,,,,,,,,,,,,,,,,main,None,None,1,1.4988394000101835,602.2875037000049,None,None,1,,,,,,,,,,,,,,203,2023-04-26_17h18.39.282,Main,2022.1.1,59.837708130395136,
positive,blue,1,k,None,,,,,,,,,0,147,147,147,,,,,,,,,,,,,,,,,main,None,None,1,1.4991482999175787,604.7873235000297,None,None,1,,,,,,,,,,,,,,203,2023-04-26_17h18.39.282,Main,2022.1.1,59.837708130395136,
positive,yellow,1,None,k,,,,,,,,,0,148,148,148,,,,,,,,,,,,,,,,,main,k,k,1,0.7806684999959543,607.2849936999846,None,None,0,,,,,,,,,,,,,,203,2023-04-26_17h18.39.282,Main,2022.1.1,59.837708130395136,
negative,red,2,None,None,,,,,,,,,0,149,149,149,,,,,,,,,,,,,,,,,main,None,None,1,1.4991770000196993,609.0683273000177,None,None,1,,,,,,,,,,,,,,203,2023-04-26_17h18.39.282,Main,2022.1.1,59.837708130395136,
negative,blue,1,None,k,,,,,,,,,0,150,150,150,,,,,,,,,,,,,,,,,main,k,k,1,0.6326859999680892,611.5705111999996,None,None,0,,,,,,,,,,,,,,203,2023-04-26_17h18.39.282,Main,2022.1.1,59.837708130395136,
negative,yellow,2,k,None,,,,,,,,,0,151,151,151,,,,,,,,,,,,,,,,,main,None,None,1,1.4987566000781953,613.2038923000218,None,None,1,,,,,,,,,,,,,,203,2023-04-26_17h18.39.282,Main,2022.1.1,59.837708130395136,
negative,blue,2,None,k,,,,,,,,,0,152,152,152,,,,,,,,,,,,,,,,,main,k,k,1,0.7853122000815347,615.7013111000415,None,None,0,,,,,,,,,,,,,,203,2023-04-26_17h18.39.282,Main,2022.1.1,59.837708130395136,
negative,yellow,1,k,None,,,,,,,,,0,153,153,153,,,,,,,,,,,,,,,,,main,None,None,1,1.4988425000337884,617.4872119999491,None,None,1,,,,,,,,,,,,,,203,2023-04-26_17h18.39.282,Main,2022.1.1,59.837708130395136,
negative,blue,1,None,k,,,,,,,,,0,154,154,154,,,,,,,,,,,,,,,,,main,k,k,1,0.7138075000839308,619.9848395000445,None,None,0,,,,,,,,,,,,,,203,2023-04-26_17h18.39.282,Main,2022.1.1,59.837708130395136,
positive,yellow,2,None,k,,,,,,,,,0,155,155,155,,,,,,,,,,,,,,,,,main,k,k,1,0.699313799967058,621.7013797999825,None,None,0,,,,,,,,,,,,,,203,2023-04-26_17h18.39.282,Main,2022.1.1,59.837708130395136,
positive,red,2,None,None,,,,,,,,,0,156,156,156,,,,,,,,,,,,,,,,,main,None,None,1,1.5012118000304326,623.4013438000111,None,None,1,,,,,,,,,,,,,,203,2023-04-26_17h18.39.282,Main,2022.1.1,59.837708130395136,
positive,red,1,None,None,,,,,,,,,0,157,157,157,,,,,,,,,,,,,,,,,main,None,None,1,1.4966051999945194,625.9035419999855,None,None,1,,,,,,,,,,,,,,203,2023-04-26_17h18.39.282,Main,2022.1.1,59.837708130395136,
positive,blue,2,k,None,,,,,,,,,0,158,158,158,,,,,,,,,,,,,,,,,main,None,None,1,1.5019250999903306,628.401006,None,None,1,,,,,,,,,,,,,,203,2023-04-26_17h18.39.282,Main,2022.1.1,59.837708130395136,
negative,yellow,1,k,None,,,,,,,,,0,159,159,159,,,,,,,,,,,,,,,,,main,None,None,1,1.4992941999807954,630.9035973000573,None,None,1,,,,,,,,,,,,,,203,2023-04-26_17h18.39.282,Main,2022.1.1,59.837708130395136,
negative,red,2,None,None,,,,,,,,,0,160,160,160,,,,,,,,,,,,,,,,,main,None,None,1,1.4990166000789031,633.4036169999745,None,None,1,,,,,,,,,,,,,,203,2023-04-26_17h18.39.282,Main,2022.1.1,59.837708130395136,
negative,blue,1,None,k,,,,,,,,,0,161,161,161,,,,,,,,,,,,,,,,,main,k,k,1,0.6969321999931708,635.901164400042,None,None,0,,,,,,,,,,,,,,203,2023-04-26_17h18.39.282,Main,2022.1.1,59.837708130395136,
negative,blue,1,None,k,,,,,,,,,0,162,162,162,,,,,,,,,,,,,,,,,main,k,k,1,0.6494455999927595,637.6008147000102,None,None,0,,,,,,,,,,,,,,203,2023-04-26_17h18.39.282,Main,2022.1.1,59.837708130395136,
negative,yellow,1,k,None,,,,,,,,,0,163,163,163,,,,,,,,,,,,,,,,,main,None,None,1,1.5014939000830054,639.2508462000405,None,None,1,,,,,,,,,,,,,,203,2023-04-26_17h18.39.282,Main,2022.1.1,59.837708130395136,
negative,yellow,1,k,None,,,,,,,,,0,164,164,164,,,,,,,,,,,,,,,,,main,None,None,1,1.499129300005734,641.7533615999855,None,None,1,,,,,,,,,,,,,,203,2023-04-26_17h18.39.282,Main,2022.1.1,59.837708130395136,
positive,yellow,1,None,k,,,,,,,,,0,165,165,165,,,,,,,,,,,,,,,,,main,k,k,1,0.7137073000194505,644.2532405999955,None,None,0,,,,,,,,,,,,,,203,2023-04-26_17h18.39.282,Main,2022.1.1,59.837708130395136,
negative,red,1,None,None,,,,,,,,,0,166,166,166,,,,,,,,,,,,,,,,,main,None,None,1,1.5013577999779955,645.9673132000025,None,None,1,,,,,,,,,,,,,,203,2023-04-26_17h18.39.282,Main,2022.1.1,59.837708130395136,
negative,yellow,2,k,None,,,,,,,,,0,167,167,167,,,,,,,,,,,,,,,,,main,None,None,1,1.4993613999104127,648.4699696999742,None,None,1,,,,,,,,,,,,,,203,2023-04-26_17h18.39.282,Main,2022.1.1,59.837708130395136,
positive,blue,2,k,None,,,,,,,,,0,168,168,168,,,,,,,,,,,,,,,,,main,None,None,1,1.4966408999171108,650.9699001000263,None,None,1,,,,,,,,,,,,,,203,2023-04-26_17h18.39.282,Main,2022.1.1,59.837708130395136,
positive,red,2,None,None,,,,,,,,,0,169,169,169,,,,,,,,,,,,,,,,,main,None,None,1,1.5017259999876842,653.4672742000548,None,None,1,,,,,,,,,,,,,,203,2023-04-26_17h18.39.282,Main,2022.1.1,59.837708130395136,
positive,red,1,None,None,,,,,,,,,0,170,170,170,,,,,,,,,,,,,,,,,main,None,None,1,1.4966862000292167,655.9698228000198,None,None,1,,,,,,,,,,,,,,203,2023-04-26_17h18.39.282,Main,2022.1.1,59.837708130395136,
negative,blue,2,None,k,,,,,,,,,0,171,171,171,,,,,,,,,,,,,,,,,main,k,k,1,0.7853407999500632,658.4670496999752,None,None,0,,,,,,,,,,,,,,203,2023-04-26_17h18.39.282,Main,2022.1.1,59.837708130395136,
positive,blue,2,k,None,,,,,,,,,0,172,172,172,,,,,,,,,,,,,,,,,main,None,None,1,1.498851599986665,660.2530977999559,None,None,1,,,,,,,,,,,,,,203,2023-04-26_17h18.39.282,Main,2022.1.1,59.837708130395136,
negative,yellow,2,k,None,,,,,,,,,0,173,173,173,,,,,,,,,,,,,,,,,main,None,None,1,1.499058600049466,662.7529842000222,None,None,1,,,,,,,,,,,,,,203,2023-04-26_17h18.39.282,Main,2022.1.1,59.837708130395136,
positive,yellow,2,None,k,,,,,,,,,0,174,174,174,,,,,,,,,,,,,,,,,main,k,k,1,0.7968673000577837,665.2528072999557,None,None,0,,,,,,,,,,,,,,203,2023-04-26_17h18.39.282,Main,2022.1.1,59.837708130395136,
negative,blue,2,None,k,,,,,,,,,0,175,175,175,,,,,,,,,,,,,,,,,main,k,k,1,0.6827006000094116,667.050219399971,None,None,0,,,,,,,,,,,,,,203,2023-04-26_17h18.39.282,Main,2022.1.1,59.837708130395136,
positive,blue,1,k,None,,,,,,,,,0,176,176,176,,,,,,,,,,,,,,,,,main,None,None,1,1.5014327999670058,668.7335744999582,None,None,1,,,,,,,,,,,,,,203,2023-04-26_17h18.39.282,Main,2022.1.1,59.837708130395136,
positive,yellow,1,None,k,,,,,,,,,0,177,177,177,,,,,,,,,,,,,,,,,main,k,k,1,0.6995140999788418,671.2361298999749,None,None,0,,,,,,,,,,,,,,203,2023-04-26_17h18.39.282,Main,2022.1.1,59.837708130395136,
positive,blue,1,k,None,,,,,,,,,0,178,178,178,,,,,,,,,,,,,,,,,main,None,None,1,1.4966170000843704,672.9337355999742,None,None,1,,,,,,,,,,,,,,203,2023-04-26_17h18.39.282,Main,2022.1.1,59.837708130395136,
positive,yellow,2,None,k,,,,,,,,,0,179,179,179,,,,,,,,,,,,,,,,,main,k,k,1,0.7517911000177264,675.4336167000001,None,None,0,,,,,,,,,,,,,,203,2023-04-26_17h18.39.282,Main,2022.1.1,59.837708130395136,
positive,blue,1,k,None,,,,,,,,,0,180,180,180,,,,,,,,,,,,,,,,,main,None,None,1,1.498907000059262,677.1836297999835,None,None,1,,,,,,,,,,,,,,203,2023-04-26_17h18.39.282,Main,2022.1.1,59.837708130395136,
negative,red,1,None,None,,,,,,,,,0,181,181,181,,,,,,,,,,,,,,,,,main,None,None,1,1.496607800014317,679.6836012999993,None,None,1,,,,,,,,,,,,,,203,2023-04-26_17h18.39.282,Main,2022.1.1,59.837708130395136,
negative,blue,1,None,k,,,,,,,,,0,182,182,182,,,,,,,,,,,,,,,,,main,k,k,1,0.7828675999771804,682.1832447999623,None,None,0,,,,,,,,,,,,,,203,2023-04-26_17h18.39.282,Main,2022.1.1,59.837708130395136,
negative,yellow,2,k,None,,,,,,,,,0,183,183,183,,,,,,,,,,,,,,,,,main,None,None,1,1.5015556999715045,683.9665962000145,None,None,1,,,,,,,,,,,,,,203,2023-04-26_17h18.39.282,Main,2022.1.1,59.837708130395136,
positive,yellow,2,None,k,,,,,,,,,0,184,184,184,,,,,,,,,,,,,,,,,main,k,k,1,0.713727799942717,686.4692157000536,None,None,0,,,,,,,,,,,,,,203,2023-04-26_17h18.39.282,Main,2022.1.1,59.837708130395136,
positive,yellow,1,None,k,,,,,,,,,0,185,185,185,,,,,,,,,,,,,,,,,main,k,k,1,0.682232299936004,688.1833127000136,None,None,0,,,,,,,,,,,,,,203,2023-04-26_17h18.39.282,Main,2022.1.1,59.837708130395136,
positive,red,2,None,None,,,,,,,,,0,186,186,186,,,,,,,,,,,,,,,,,main,None,None,1,1.5013248000759631,689.866490000044,None,None,1,,,,,,,,,,,,,,203,2023-04-26_17h18.39.282,Main,2022.1.1,59.837708130395136,
positive,blue,1,k,None,,,,,,,,,0,187,187,187,,,,,,,,,,,,,,,,,main,None,None,1,1.4990323000820354,692.3690417000325,None,None,1,,,,,,,,,,,,,,203,2023-04-26_17h18.39.282,Main,2022.1.1,59.837708130395136,
negative,yellow,1,k,None,,,,,,,,,0,188,188,188,,,,,,,,,,,,,,,,,main,None,None,1,1.4993765000253916,694.8688650999684,None,None,1,,,,,,,,,,,,,,203,2023-04-26_17h18.39.282,Main,2022.1.1,59.837708130395136,
positive,yellow,2,None,k,,,,,,,,,0,189,189,189,,,,,,,,,,,,,,,,,main,k,k,1,0.6799969000276178,697.36870370002,None,None,0,,,,,,,,,,,,,,203,2023-04-26_17h18.39.282,Main,2022.1.1,59.837708130395136,
negative,yellow,2,k,None,,,,,,,,,0,190,190,190,,,,,,,,,,,,,,,,,main,None,None,1,1.5012901000445709,699.052009099978,None,None,1,,,,,,,,,,,,,,203,2023-04-26_17h18.39.282,Main,2022.1.1,59.837708130395136,
negative,yellow,1,k,None,,,,,,,,,0,191,191,191,,,,,,,,,,,,,,,,,main,None,None,1,1.4966385000152513,701.5520553999813,None,None,1,,,,,,,,,,,,,,203,2023-04-26_17h18.39.282,Main,2022.1.1,59.837708130395136,
positive,blue,2,k,None,,,,,,,,,0,192,192,192,,,,,,,,,,,,,,,,,main,None,None,1,1.5019512000726536,704.0494842999615,None,None,1,,,,,,,,,,,,,,203,2023-04-26_17h18.39.282,Main,2022.1.1,59.837708130395136,
positive,yellow,1,None,k,,,,,,,,,0,193,193,193,,,,,,,,,,,,,,,,,main,k,k,1,0.8494947999715805,706.552115199971,None,None,0,,,,,,,,,,,,,,203,2023-04-26_17h18.39.282,Main,2022.1.1,59.837708130395136,
negative,red,2,None,None,,,,,,,,,0,194,194,194,,,,,,,,,,,,,,,,,main,None,None,1,1.4988400000147521,708.4021286000498,None,None,1,,,,,,,,,,,,,,203,2023-04-26_17h18.39.282,Main,2022.1.1,59.837708130395136,
positive,red,1,None,None,,,,,,,,,0,195,195,195,,,,,,,,,,,,,,,,,main,None,None,1,1.4967287000035867,710.901882300037,None,None,1,,,,,,,,,,,,,,203,2023-04-26_17h18.39.282,Main,2022.1.1,59.837708130395136,
negative,blue,1,None,k,,,,,,,,,0,196,196,196,,,,,,,,,,,,,,,,,main,k,k,1,0.7021748999832198,713.3993570000166,None,None,0,,,,,,,,,,,,,,203,2023-04-26_17h18.39.282,Main,2022.1.1,59.837708130395136,
positive,blue,2,k,None,,,,,,,,,0,197,197,197,,,,,,,,,,,,,,,,,main,None,None,1,1.4988919000606984,715.1018960999791,None,None,1,,,,,,,,,,,,,,203,2023-04-26_17h18.39.282,Main,2022.1.1,59.837708130395136,
negative,blue,2,None,k,,,,,,,,,0,198,198,198,,,,,,,,,,,,,,,,,main,k,k,1,0.7301866000052541,717.6018406000221,None,None,0,,,,,,,,,,,,,,203,2023-04-26_17h18.39.282,Main,2022.1.1,59.837708130395136,
negative,blue,2,None,k,,,,,,,,,0,199,199,199,,,,,,,,,,,,,,,,,main,k,k,1,0.7151466000359505,719.3325080999639,None,None,0,,,,,,,,,,,,,,203,2023-04-26_17h18.39.282,Main,2022.1.1,59.837708130395136,
positive,blue,2,k,None,,,,,,,,,0,200,200,200,,,,,,,,,,,,,,,,,main,None,None,1,1.5013613000046462,721.0491786999628,None,None,1,,,,,,,,,,,,,,203,2023-04-26_17h18.39.282,Main,2022.1.1,59.837708130395136,
positive,blue,2,k,None,,,,,,,,,0,201,201,201,,,,,,,,,,,,,,,,,main,None,None,1,1.4989784000208601,723.5518151000142,None,None,1,,,,,,,,,,,,,,203,2023-04-26_17h18.39.282,Main,2022.1.1,59.837708130395136,
negative,yellow,2,k,None,,,,,,,,,0,202,202,202,,,,,,,,,,,,,,,,,main,None,None,1,1.4976813000394031,726.0517561000306,None,None,1,,,,,,,,,,,,,,203,2023-04-26_17h18.39.282,Main,2022.1.1,59.837708130395136,
positive,red,1,None,None,,,,,,,,,0,203,203,203,,,,,,,,,,,,,,,,,main,None,None,1,1.500588099937886,728.5490718999645,None,None,1,,,,,,,,,,,,,,203,2023-04-26_17h18.39.282,Main,2022.1.1,59.837708130395136,
negative,blue,2,None,k,,,,,,,,,0,204,204,204,,,,,,,,,,,,,,,,,main,k,k,1,0.7994642000412568,731.0516710999655,None,None,0,,,,,,,,,,,,,,203,2023-04-26_17h18.39.282,Main,2022.1.1,59.837708130395136,
negative,red,1,None,None,,,,,,,,,0,205,205,205,,,,,,,,,,,,,,,,,main,None,None,1,1.4964678999967873,732.8514155000448,None,None,1,,,,,,,,,,,,,,203,2023-04-26_17h18.39.282,Main,2022.1.1,59.837708130395136,
negative,blue,2,None,k,,,,,,,,,0,206,206,206,,,,,,,,,,,,,,,,,main,k,k,1,0.7520403999369591,735.3489165999927,None,None,0,,,,,,,,,,,,,,203,2023-04-26_17h18.39.282,Main,2022.1.1,59.837708130395136,
negative,yellow,2,k,None,,,,,,,,,0,207,207,207,,,,,,,,,,,,,,,,,main,None,None,1,1.498936100048013,737.0990344999591,None,None,1,,,,,,,,,,,,,,203,2023-04-26_17h18.39.282,Main,2022.1.1,59.837708130395136,
positive,yellow,2,None,k,,,,,,,,,0,208,208,208,,,,,,,,,,,,,,,,,main,k,k,1,0.6974331000819802,739.5991959000239,None,None,0,,,,,,,,,,,,,,203,2023-04-26_17h18.39.282,Main,2022.1.1,59.837708130395136,
negative,yellow,1,k,None,,,,,,,,,0,209,209,209,,,,,,,,,,,,,,,,,main,None,None,1,1.4985581999644637,741.3012424999615,None,None,1,,,,,,,,,,,,,,203,2023-04-26_17h18.39.282,Main,2022.1.1,59.837708130395136,
negative,red,2,None,None,,,,,,,,,0,210,210,210,,,,,,,,,,,,,,,,,main,None,None,1,1.5018947999924421,743.7987200999632,None,None,1,,,,,,,,,,,,,,203,2023-04-26_17h18.39.282,Main,2022.1.1,59.837708130395136,
negative,blue,1,None,k,,,,,,,,,0,211,211,211,,,,,,,,,,,,,,,,,main,k,k,1,0.7160214999457821,746.299060099991,None,None,0,,,,,,,,,,,,,,203,2023-04-26_17h18.39.282,Main,2022.1.1,59.837708130395136,
negative,yellow,1,k,None,,,,,,,,,0,212,212,212,,,,,,,,,,,,,,,,,main,None,None,1,1.495470399968326,748.0179356000153,None,None,1,,,,,,,,,,,,,,203,2023-04-26_17h18.39.282,Main,2022.1.1,59.837708130395136,
positive,blue,1,k,None,,,,,,,,,0,213,213,213,,,,,,,,,,,,,,,,,main,None,None,1,1.5008886000141501,750.5155578999547,None,None,1,,,,,,,,,,,,,,203,2023-04-26_17h18.39.282,Main,2022.1.1,59.837708130395136,
positive,blue,1,k,None,,,,,,,,,0,214,214,214,,,,,,,,,,,,,,,,,main,None,None,1,1.4983168999897316,753.0178243999835,None,None,1,,,,,,,,,,,,,,203,2023-04-26_17h18.39.282,Main,2022.1.1,59.837708130395136,
positive,yellow,1,None,k,,,,,,,,,0,215,215,215,,,,,,,,,,,,,,,,,main,k,k,1,0.8128549000248313,755.5154114000034,None,None,0,,,,,,,,,,,,,,203,2023-04-26_17h18.39.282,Main,2022.1.1,59.837708130395136,
positive,yellow,1,None,k,,,,,,,,,0,216,216,216,,,,,,,,,,,,,,,,,main,k,k,1,0.7327324999496341,757.3317382000387,None,None,0,,,,,,,,,,,,,,203,2023-04-26_17h18.39.282,Main,2022.1.1,59.837708130395136,
positive,yellow,2,None,k,,,,,,,,,0,217,217,217,,,,,,,,,,,,,,,,,main,k,k,1,0.93487189989537,759.0650975999888,None,None,0,,,,,,,,,,,,,,203,2023-04-26_17h18.39.282,Main,2022.1.1,59.837708130395136,
negative,blue,1,None,k,,,,,,,,,0,218,218,218,,,,,,,,,,,,,,,,,main,k,k,1,0.6660212998976931,761.0010306000477,None,None,0,,,,,,,,,,,,,,203,2023-04-26_17h18.39.282,Main,2022.1.1,59.837708130395136,
positive,red,2,None,None,,,,,,,,,0,219,219,219,,,,,,,,,,,,,,,,,main,None,None,1,1.4986229999922216,762.6676071999827,None,None,1,,,,,,,,,,,,,,203,2023-04-26_17h18.39.282,Main,2022.1.1,59.837708130395136,
positive,yellow,1,None,k,,,,,,,,,0,220,220,220,,,,,,,,,,,,,,,,,main,k,k,1,1.263710500090383,765.167423899984,None,None,0,,,,,,,,,,,,,,203,2023-04-26_17h18.39.282,Main,2022.1.1,59.837708130395136,
positive,blue,1,k,None,,,,,,,,,0,221,221,221,,,,,,,,,,,,,,,,,main,None,None,1,1.5016466000815853,767.4315454000607,None,None,1,,,,,,,,,,,,,,203,2023-04-26_17h18.39.282,Main,2022.1.1,59.837708130395136,
positive,yellow,2,None,k,,,,,,,,,0,222,222,222,,,,,,,,,,,,,,,,,main,k,k,1,0.7840317999944091,769.9341523000039,None,None,0,,,,,,,,,,,,,,203,2023-04-26_17h18.39.282,Main,2022.1.1,59.837708130395136,
negative,yellow,1,k,None,,,,,,,,,0,223,223,223,,,,,,,,,,,,,,,,,main,None,None,1,1.495858300011605,771.717443499947,None,None,1,,,,,,,,,,,,,,203,2023-04-26_17h18.39.282,Main,2022.1.1,59.837708130395136,
positive,yellow,2,None,k,,,,,,,,,0,224,224,224,,,,,,,,,,,,,,,,,main,k,k,1,0.632240999955684,774.2147298000054,None,None,0,,,,,,,,,,,,,,203,2023-04-26_17h18.39.282,Main,2022.1.1,59.837708130395136,
negative,yellow,2,k,None,,,,,,,,,0,225,225,225,,,,,,,,,,,,,,,,,main,None,None,1,1.50122440000996,775.8481089000124,None,None,1,,,,,,,,,,,,,,203,2023-04-26_17h18.39.282,Main,2022.1.1,59.837708130395136,
negative,blue,2,None,k,,,,,,,,,0,226,226,226,,,,,,,,,,,,,,,,,main,k,k,1,0.7495272000087425,778.3506550999591,None,None,0,,,,,,,,,,,,,,203,2023-04-26_17h18.39.282,Main,2022.1.1,59.837708130395136,
positive,red,2,None,None,,,,,,,,,0,227,227,227,,,,,,,,,,,,,,,,,main,None,None,1,1.4963132999837399,780.1005948999664,None,None,1,,,,,,,,,,,,,,203,2023-04-26_17h18.39.282,Main,2022.1.1,59.837708130395136,
positive,blue,2,k,None,,,,,,,,,0,228,228,228,,,,,,,,,,,,,,,,,main,None,None,1,1.5018412000499666,782.597904699971,None,None,1,,,,,,,,,,,,,,203,2023-04-26_17h18.39.282,Main,2022.1.1,59.837708130395136,
negative,blue,1,None,k,,,,,,,,,0,229,229,229,,,,,,,,,,,,,,,,,main,k,k,1,0.6025767000392079,785.1004958000267,None,None,0,,,,,,,,,,,,,,203,2023-04-26_17h18.39.282,Main,2022.1.1,59.837708130395136,
positive,yellow,1,None,k,,,,,,,,,0,230,230,230,,,,,,,,,,,,,,,,,main,k,k,1,0.6103055999847129,786.707108899951,None,None,0,,,,,,,,,,,,,,203,2023-04-26_17h18.39.282,Main,2022.1.1,59.837708130395136,
negative,blue,2,None,k,,,,,,,,,0,231,231,231,,,,,,,,,,,,,,,,,main,k,k,1,0.618580500013195,788.314733200008,None,None,0,,,,,,,,,,,,,,203,2023-04-26_17h18.39.282,Main,2022.1.1,59.837708130395136,
negative,red,1,None,None,,,,,,,,,0,232,232,232,,,,,,,,,,,,,,,,,main,None,None,1,1.4989083000691608,789.9337696000002,None,None,1,,,,,,,,,,,,,,203,2023-04-26_17h18.39.282,Main,2022.1.1,59.837708130395136,
positive,blue,2,k,None,,,,,,,,,0,233,233,233,,,,,,,,,,,,,,,,,main,None,None,1,1.4992166000884026,792.4337587000336,None,None,1,,,,,,,,,,,,,,203,2023-04-26_17h18.39.282,Main,2022.1.1,59.837708130395136,
negative,yellow,1,k,None,,,,,,,,,0,234,234,234,,,,,,,,,,,,,,,,,main,None,None,1,1.498935699928552,794.9312569999602,None,None,1,,,,,,,,,,,,,,203,2023-04-26_17h18.39.282,Main,2022.1.1,59.837708130395136,
negative,yellow,2,k,None,,,,,,,,,0,235,235,235,,,,,,,,,,,,,,,,,main,None,None,1,1.4994078000308946,797.4312280999729,None,None,1,,,,,,,,,,,,,,203,2023-04-26_17h18.39.282,Main,2022.1.1,59.837708130395136,
positive,red,1,None,None,,,,,,,,,0,236,236,236,,,,,,,,,,,,,,,,,main,None,None,1,1.4990609999513254,799.9333523999667,None,None,1,,,,,,,,,,,,,,203,2023-04-26_17h18.39.282,Main,2022.1.1,59.837708130395136,
negative,red,2,None,None,,,,,,,,,0,237,237,237,,,,,,,,,,,,,,,,,main,None,None,1,1.496763400034979,802.4333802999463,None,None,1,,,,,,,,,,,,,,203,2023-04-26_17h18.39.282,Main,2022.1.1,59.837708130395136,
negative,blue,1,None,k,,,,,,,,,0,238,238,238,,,,,,,,,,,,,,,,,main,k,k,1,0.7521086999913678,804.9308500000043,None,None,0,,,,,,,,,,,,,,203,2023-04-26_17h18.39.282,Main,2022.1.1,59.837708130395136,
positive,blue,1,k,None,,,,,,,,,0,239,239,239,,,,,,,,,,,,,,,,,main,None,None,1,1.4963529000524431,806.6834133999655,None,None,1,,,,,,,,,,,,,,203,2023-04-26_17h18.39.282,Main,2022.1.1,59.837708130395136,
,,,,,,,,,,,,,,,,,,,,,,,,,,,,,,,,,,,,,,,,,,,,,,,,,,,,,809.1862352000317,None,,,,,,
