distractor,target,set,ans1,ans2,rep_loop4.thisRepN,rep_loop4.thisTrialN,rep_loop4.thisN,rep_loop4.thisIndex,st2_prac_loop.thisRepN,st2_prac_loop.thisTrialN,st2_prac_loop.thisN,st2_prac_loop.thisIndex,st2_main_loop.thisRepN,st2_main_loop.thisTrialN,st2_main_loop.thisN,st2_main_loop.thisIndex,image_4.started,image_4.stopped,sound_2.started,sound_2.stopped,key_resp_3.keys,key_resp_3.rt,image_5.started,image_5.stopped,st_prac_back.started,st_prac_back.stopped,st_prac_text.started,st_prac_text.stopped,st_fix_back.started,st_fix_back.stopped,st_fix_2.started,st_fix_2.stopped,main_prac,st_ans,st_res,st_corr,st_rt,st_back.started,st_back.stopped,st2_resp.keys,st2_resp.corr,st_main_back.started,st_main_back.stopped,st_main_text.started,st_main_text.stopped,mouse_4.x,mouse_4.y,mouse_4.leftButton,mouse_4.midButton,mouse_4.rightButton,mouse_4.started,mouse_4.stopped,text_2.started,text_2.stopped,id*,date,expName,psychopyVersion,frameRate,
negative,yellow,1,k,None,,,,,0,0,0,0,,,,,109.48348270007409,None,114.05350581005914,None,space,19.905954700079747,133.98385670001153,None,141.100527600036,None,141.100527600036,None,143.10288530006073,None,143.10288530006073,None,prac,None,None,1,1.496951299952343,145.11700830003247,None,None,1,,,,,,,,,,,,,,207,2023-04-26_13h27.06.788,Main,2022.1.1,59.85196214442846,
positive,red,2,None,None,,,,,0,1,1,1,,,,,,,,,,,,,,,,,,,,,prac,None,None,1,1.4990630999673158,147.619436900015,None,None,1,,,,,,,,,,,,,,207,2023-04-26_13h27.06.788,Main,2022.1.1,59.85196214442846,
negative,blue,2,None,k,,,,,0,2,2,2,,,,,,,,,,,,,,,,,,,,,prac,k,k,1,0.6464777999790385,150.1193718999857,None,None,0,,,,,,,,,,,,,,207,2023-04-26_13h27.06.788,Main,2022.1.1,59.85196214442846,
positive,yellow,1,None,k,,,,,0,3,3,3,,,,,,,,,,,,,,,,,,,,,prac,k,k,1,0.8351015000371262,151.7667047000723,None,None,0,,,,,,,,,,,,,,207,2023-04-26_13h27.06.788,Main,2022.1.1,59.85196214442846,
negative,blue,2,None,k,,,,,0,4,4,4,,,,,,,,,,,,,,,,,,,,,prac,k,k,1,0.5491956999758258,153.6027348000789,None,None,0,,,,,,,,,,,,,,207,2023-04-26_13h27.06.788,Main,2022.1.1,59.85196214442846,
negative,blue,1,None,k,,,,,0,5,5,5,,,,,,,,,,,,,,,,,,,,,prac,k,k,1,0.7134269000962377,155.1526087000966,None,None,0,,,,,,,,,,,,,,207,2023-04-26_13h27.06.788,Main,2022.1.1,59.85196214442846,
negative,yellow,2,k,None,,,,,0,6,6,6,,,,,,,,,,,,,,,,,,,,,prac,None,None,1,1.4987749999854714,156.8691267000977,None,None,1,,,,,,,,,,,,,,207,2023-04-26_13h27.06.788,Main,2022.1.1,59.85196214442846,
negative,red,1,None,None,,,,,0,7,7,7,,,,,,,,,,,,,,,,,,,,,prac,None,None,1,1.5016672000056133,159.3665609000018,None,None,1,,,,,,,,,,,,,,207,2023-04-26_13h27.06.788,Main,2022.1.1,59.85196214442846,
positive,yellow,2,None,k,,,,,0,8,8,8,,,,,,,,,,,,,,,,,,,,,prac,k,k,1,1.6994022999424487,161.8692492999835,None,None,0,,,,,,,,,,,,,,207,2023-04-26_13h27.06.788,Main,2022.1.1,59.85196214442846,
negative,yellow,1,k,None,,,,,0,9,9,9,,,,,,,,,,,,,,,,,,,,,prac,None,None,1,1.4871763000264764,165.5832812000299,None,None,1,,,,,,,,,,,,,,207,2023-04-26_13h27.06.788,Main,2022.1.1,59.85196214442846,
positive,yellow,2,None,k,,,,,0,10,10,10,,,,,,,,,,,,,,,,,,,,,prac,k,k,1,0.5492831999436021,168.0668024000479,None,None,0,,,,,,,,,,,,,,207,2023-04-26_13h27.06.788,Main,2022.1.1,59.85196214442846,
negative,yellow,2,k,None,,,,,0,11,11,11,,,,,,,,,,,,,,,,,,,,,prac,None,None,1,1.4986146000446752,169.61896500003058,None,None,1,,,,,,,,,,,,,,207,2023-04-26_13h27.06.788,Main,2022.1.1,59.85196214442846,
negative,red,2,None,None,,,,,0,12,12,12,,,,,,,,,,,,,,,,,,,,,prac,None,None,1,1.4964752999367192,172.1165910999989,None,None,1,,,,,,,,,,,,,,207,2023-04-26_13h27.06.788,Main,2022.1.1,59.85196214442846,
positive,red,1,None,None,,,,,0,13,13,13,,,,,,,,,,,,,,,,,,,,,prac,None,None,1,1.5016366000054404,174.6162542999955,None,None,1,,,,,,,,,,,,,,207,2023-04-26_13h27.06.788,Main,2022.1.1,59.85196214442846,
positive,blue,2,k,None,,,,,0,14,14,14,,,,,,,,,,,,,,,,,,,,,prac,None,None,1,1.4992116999346763,177.11884900007863,None,None,1,,,,,,,,,,,,,,207,2023-04-26_13h27.06.788,Main,2022.1.1,59.85196214442846,
positive,blue,1,k,None,,,,,0,15,15,15,,,,,,,,,,,,,,,,,,,,,prac,None,None,1,1.4991224000696093,179.61887540004682,None,None,1,,,,,,,,,,,,,,207,2023-04-26_13h27.06.788,Main,2022.1.1,59.85196214442846,
negative,blue,1,None,k,,,,,0,16,16,16,,,,,,,,,,,,,,,,,,,,,prac,k,k,1,0.7305104000261053,182.12178899999708,None,None,0,,,,,,,,,,,,,,207,2023-04-26_13h27.06.788,Main,2022.1.1,59.85196214442846,
positive,blue,2,k,None,,,,,0,17,17,17,,,,,,,,,,,,,,,,,,,,,prac,None,None,1,1.4987487000180408,183.84939079999458,None,None,1,,,,,,,,,,,,,,207,2023-04-26_13h27.06.788,Main,2022.1.1,59.85196214442846,
positive,blue,1,k,None,,,,,0,18,18,18,,,,,,,,,,,,,,,,,,,,,prac,None,None,1,1.501525399973616,186.35207850008737,None,None,1,,,,,,,,,,,,,,207,2023-04-26_13h27.06.788,Main,2022.1.1,59.85196214442846,
positive,yellow,1,None,k,,,,,0,19,19,19,,,,,,,,,,,,,,,,,,,,,prac,k,k,1,0.61624500004109,188.85182740003802,None,None,0,,,,,,,,,,,,,,207,2023-04-26_13h27.06.788,Main,2022.1.1,59.85196214442846,
negative,yellow,1,k,None,,,,,1,0,20,0,,,,,,,,,,,,,,,,,,,,,prac,None,None,1,1.4964779000729322,190.4684273999883,None,None,1,,,,,,,,,,,,,,207,2023-04-26_13h27.06.788,Main,2022.1.1,59.85196214442846,
positive,red,2,None,None,,,,,1,1,21,1,,,,,,,,,,,,,,,,,,,,,prac,None,None,1,1.5016648999881,192.96590499999002,None,None,1,,,,,,,,,,,,,,207,2023-04-26_13h27.06.788,Main,2022.1.1,59.85196214442846,
negative,blue,2,None,k,,,,,1,2,22,2,,,,,,,,,,,,,,,,,,,,,prac,k,k,1,0.6493950999574736,195.46856740000658,None,None,0,,,,,,,,,,,,,,207,2023-04-26_13h27.06.788,Main,2022.1.1,59.85196214442846,
positive,yellow,1,None,k,,,,,1,3,23,3,,,,,,,,,,,,,,,,,,,,,prac,k,k,1,0.5630533999064937,197.11854180006776,None,None,0,,,,,,,,,,,,,,207,2023-04-26_13h27.06.788,Main,2022.1.1,59.85196214442846,
negative,blue,2,None,k,,,,,1,4,24,4,,,,,,,,,,,,,,,,,,,,,prac,k,k,1,0.8327533999690786,198.68242160009686,None,None,0,,,,,,,,,,,,,,207,2023-04-26_13h27.06.788,Main,2022.1.1,59.85196214442846,
negative,blue,1,None,k,,,,,1,5,25,5,,,,,,,,,,,,,,,,,,,,,prac,k,k,1,0.6350738999899477,200.51579690002836,None,None,0,,,,,,,,,,,,,,207,2023-04-26_13h27.06.788,Main,2022.1.1,59.85196214442846,
negative,yellow,2,k,None,,,,,1,6,26,6,,,,,,,,,,,,,,,,,,,,,prac,None,None,1,1.4989118999801576,202.15166960004717,None,None,1,,,,,,,,,,,,,,207,2023-04-26_13h27.06.788,Main,2022.1.1,59.85196214442846,
negative,red,1,None,None,,,,,1,7,27,7,,,,,,,,,,,,,,,,,,,,,prac,None,None,1,1.4992604000726715,204.65164669998921,None,None,1,,,,,,,,,,,,,,207,2023-04-26_13h27.06.788,Main,2022.1.1,59.85196214442846,
positive,yellow,2,None,k,,,,,1,8,28,8,,,,,,,,,,,,,,,,,,,,,prac,k,k,1,0.6494054000359029,207.14915660000406,None,None,0,,,,,,,,,,,,,,207,2023-04-26_13h27.06.788,Main,2022.1.1,59.85196214442846,
negative,yellow,1,k,None,,,,,1,9,29,9,,,,,,,,,,,,,,,,,,,,,prac,None,None,1,1.4964645999716595,208.80156060005538,None,None,1,,,,,,,,,,,,,,207,2023-04-26_13h27.06.788,Main,2022.1.1,59.85196214442846,
positive,yellow,2,None,k,,,,,1,10,30,10,,,,,,,,,,,,,,,,,,,,,prac,k,k,1,0.6660164999775589,211.29884270008188,None,None,0,,,,,,,,,,,,,,207,2023-04-26_13h27.06.788,Main,2022.1.1,59.85196214442846,
negative,yellow,2,k,None,,,,,1,11,31,11,,,,,,,,,,,,,,,,,,,,,prac,None,None,1,1.5012374999932945,212.96554600005038,None,None,1,,,,,,,,,,,,,,207,2023-04-26_13h27.06.788,Main,2022.1.1,59.85196214442846,
negative,red,2,None,None,,,,,1,12,32,12,,,,,,,,,,,,,,,,,,,,,prac,None,None,1,1.499025599914603,215.46812500001397,None,None,1,,,,,,,,,,,,,,207,2023-04-26_13h27.06.788,Main,2022.1.1,59.85196214442846,
positive,red,1,None,None,,,,,1,13,33,13,,,,,,,,,,,,,,,,,,,,,prac,None,None,1,1.4965396000770852,217.9657172000734,None,None,1,,,,,,,,,,,,,,207,2023-04-26_13h27.06.788,Main,2022.1.1,59.85196214442846,
positive,blue,2,k,None,,,,,1,14,34,14,,,,,,,,,,,,,,,,,,,,,prac,None,None,1,1.502176700043492,220.46532389998902,None,None,1,,,,,,,,,,,,,,207,2023-04-26_13h27.06.788,Main,2022.1.1,59.85196214442846,
positive,blue,1,k,None,,,,,1,15,35,15,,,,,,,,,,,,,,,,,,,,,prac,None,k,0,0.5659644999541342,222.96802110003773,None,None,1,,,,,,,,,,,,,,207,2023-04-26_13h27.06.788,Main,2022.1.1,59.85196214442846,
negative,blue,1,None,k,,,,,1,16,36,16,,,,,,,,,,,,,,,,,,,,,prac,k,k,1,0.6989027999807149,225.53455440001562,None,None,0,,,,,,,,,,,,,,207,2023-04-26_13h27.06.788,Main,2022.1.1,59.85196214442846,
positive,blue,2,k,None,,,,,1,17,37,17,,,,,,,,,,,,,,,,,,,,,prac,None,None,1,1.5012417000252753,227.2320066000102,None,None,1,,,,,,,,,,,,,,207,2023-04-26_13h27.06.788,Main,2022.1.1,59.85196214442846,
positive,blue,1,k,None,,,,,1,18,38,18,,,,,,,,,,,,,,,,,,,,,prac,None,None,1,1.5024286999832839,229.73448099999223,None,None,1,,,,,,,,,,,,,,207,2023-04-26_13h27.06.788,Main,2022.1.1,59.85196214442846,
positive,yellow,1,None,k,,,,,1,19,39,19,,,,,,,,,,,,,,,,,,,,,prac,k,k,1,0.7293723999755457,232.23202200001106,None,None,0,,,,,,,,,,,,,,207,2023-04-26_13h27.06.788,Main,2022.1.1,59.85196214442846,
,,,,,,,,,,,,,,,,,,,,,,,,,,,,,,,,,,,,,,,,,,233.9675687000854,None,233.9675687000854,None,0.14074074,0.04074074,0,0,0,0.013002909952774644,None,,,207,2023-04-26_13h27.06.788,Main,2022.1.1,59.85196214442846,
negative,yellow,2,k,None,,,,,,,,,0,0,0,0,,,,,,,,,,,,,236.014988000039,None,236.014988000039,None,main,None,None,1,1.5033865000586957,238.03835050005,None,None,1,,,,,,,,,,,,,,207,2023-04-26_13h27.06.788,Main,2022.1.1,59.85196214442846,
positive,red,1,None,None,,,,,,,,,0,1,1,1,,,,,,,,,,,,,,,,,main,None,None,1,1.5017221999587491,240.55405320005957,None,None,1,,,,,,,,,,,,,,207,2023-04-26_13h27.06.788,Main,2022.1.1,59.85196214442846,
positive,blue,2,k,None,,,,,,,,,0,2,2,2,,,,,,,,,,,,,,,,,main,None,None,1,1.4965693999547511,243.048526700004,None,None,1,,,,,,,,,,,,,,207,2023-04-26_13h27.06.788,Main,2022.1.1,59.85196214442846,
positive,blue,1,k,None,,,,,,,,,0,3,3,3,,,,,,,,,,,,,,,,,main,None,None,1,1.5017945999279618,245.54820369998924,None,None,1,,,,,,,,,,,,,,207,2023-04-26_13h27.06.788,Main,2022.1.1,59.85196214442846,
negative,yellow,2,k,None,,,,,,,,,0,4,4,4,,,,,,,,,,,,,,,,,main,None,None,1,1.499305099947378,248.0507357000606,None,None,1,,,,,,,,,,,,,,207,2023-04-26_13h27.06.788,Main,2022.1.1,59.85196214442846,
positive,yellow,2,None,k,,,,,,,,,0,5,5,5,,,,,,,,,,,,,,,,,main,k,k,1,0.6658042001072317,250.55072530009784,None,None,0,,,,,,,,,,,,,,207,2023-04-26_13h27.06.788,Main,2022.1.1,59.85196214442846,
negative,blue,2,None,k,,,,,,,,,0,6,6,6,,,,,,,,,,,,,,,,,main,k,k,1,0.9633504999801517,252.21730570006184,None,None,0,,,,,,,,,,,,,,207,2023-04-26_13h27.06.788,Main,2022.1.1,59.85196214442846,
positive,red,2,None,None,,,,,,,,,0,7,7,7,,,,,,,,,,,,,,,,,main,None,None,1,1.5015838000690565,254.18151350005064,None,None,1,,,,,,,,,,,,,,207,2023-04-26_13h27.06.788,Main,2022.1.1,59.85196214442846,
positive,yellow,1,None,k,,,,,,,,,0,8,8,8,,,,,,,,,,,,,,,,,main,k,k,1,0.7658416000194848,256.6838880000869,None,None,0,,,,,,,,,,,,,,207,2023-04-26_13h27.06.788,Main,2022.1.1,59.85196214442846,
negative,red,1,None,None,,,,,,,,,0,9,9,9,,,,,,,,,,,,,,,,,main,None,None,1,1.4987739999778569,258.4505349000683,None,None,1,,,,,,,,,,,,,,207,2023-04-26_13h27.06.788,Main,2022.1.1,59.85196214442846,
positive,yellow,1,None,k,,,,,,,,,0,10,10,10,,,,,,,,,,,,,,,,,main,k,k,1,0.6469592000357807,260.9481484000571,None,None,0,,,,,,,,,,,,,,207,2023-04-26_13h27.06.788,Main,2022.1.1,59.85196214442846,
negative,yellow,1,k,None,,,,,,,,,0,11,11,11,,,,,,,,,,,,,,,,,main,None,None,1,1.5016479999758303,262.5980508000357,None,None,1,,,,,,,,,,,,,,207,2023-04-26_13h27.06.788,Main,2022.1.1,59.85196214442846,
negative,yellow,1,k,None,,,,,,,,,0,12,12,12,,,,,,,,,,,,,,,,,main,None,None,1,1.498992000008002,265.1004197000293,None,None,1,,,,,,,,,,,,,,207,2023-04-26_13h27.06.788,Main,2022.1.1,59.85196214442846,
negative,red,2,None,None,,,,,,,,,0,13,13,13,,,,,,,,,,,,,,,,,main,None,None,1,1.498877799953334,267.6004040000262,None,None,1,,,,,,,,,,,,,,207,2023-04-26_13h27.06.788,Main,2022.1.1,59.85196214442846,
positive,yellow,2,None,k,,,,,,,,,0,14,14,14,,,,,,,,,,,,,,,,,main,k,k,1,0.9306629000930116,270.0979684999911,None,None,0,,,,,,,,,,,,,,207,2023-04-26_13h27.06.788,Main,2022.1.1,59.85196214442846,
positive,blue,1,k,None,,,,,,,,,0,15,15,15,,,,,,,,,,,,,,,,,main,None,None,1,1.501058500027284,272.03117640002165,None,None,1,,,,,,,,,,,,,,207,2023-04-26_13h27.06.788,Main,2022.1.1,59.85196214442846,
negative,blue,1,None,k,,,,,,,,,0,16,16,16,,,,,,,,,,,,,,,,,main,k,k,1,1.047441800008528,274.5311688000802,None,None,0,,,,,,,,,,,,,,207,2023-04-26_13h27.06.788,Main,2022.1.1,59.85196214442846,
positive,blue,2,k,None,,,,,,,,,0,17,17,17,,,,,,,,,,,,,,,,,main,None,None,1,1.4986132000340149,276.58336490008514,None,None,1,,,,,,,,,,,,,,207,2023-04-26_13h27.06.788,Main,2022.1.1,59.85196214442846,
negative,blue,2,None,k,,,,,,,,,0,18,18,18,,,,,,,,,,,,,,,,,main,k,k,1,0.7181981999892741,279.0808047000319,None,None,0,,,,,,,,,,,,,,207,2023-04-26_13h27.06.788,Main,2022.1.1,59.85196214442846,
negative,blue,1,None,k,,,,,,,,,0,19,19,19,,,,,,,,,,,,,,,,,main,k,k,1,0.9319991999072954,280.79305040009785,None,None,0,,,,,,,,,,,,,,207,2023-04-26_13h27.06.788,Main,2022.1.1,59.85196214442846,
negative,blue,1,None,k,,,,,,,,,0,20,20,20,,,,,,,,,,,,,,,,,main,k,k,1,0.7978785000741482,282.733398100012,None,None,0,,,,,,,,,,,,,,207,2023-04-26_13h27.06.788,Main,2022.1.1,59.85196214442846,
negative,blue,2,None,k,,,,,,,,,0,21,21,21,,,,,,,,,,,,,,,,,main,k,k,1,0.6643611999461427,284.5309765000129,None,None,0,,,,,,,,,,,,,,207,2023-04-26_13h27.06.788,Main,2022.1.1,59.85196214442846,
negative,red,1,None,None,,,,,,,,,0,22,22,22,,,,,,,,,,,,,,,,,main,None,None,1,1.5017744000069797,286.19729400007054,None,None,1,,,,,,,,,,,,,,207,2023-04-26_13h27.06.788,Main,2022.1.1,59.85196214442846,
positive,red,2,None,None,,,,,,,,,0,23,23,23,,,,,,,,,,,,,,,,,main,None,None,1,1.4993701999774203,288.69996350002475,None,None,1,,,,,,,,,,,,,,207,2023-04-26_13h27.06.788,Main,2022.1.1,59.85196214442846,
negative,red,2,None,None,,,,,,,,,0,24,24,24,,,,,,,,,,,,,,,,,main,None,None,1,1.4989245999604464,291.1999005000107,None,None,1,,,,,,,,,,,,,,207,2023-04-26_13h27.06.788,Main,2022.1.1,59.85196214442846,
positive,blue,2,k,None,,,,,,,,,0,25,25,25,,,,,,,,,,,,,,,,,main,None,None,1,1.498486700002104,293.699661700055,None,None,1,,,,,,,,,,,,,,207,2023-04-26_13h27.06.788,Main,2022.1.1,59.85196214442846,
negative,yellow,1,k,None,,,,,,,,,0,26,26,26,,,,,,,,,,,,,,,,,main,None,None,1,1.4970195000059903,296.19734720001,None,None,1,,,,,,,,,,,,,,207,2023-04-26_13h27.06.788,Main,2022.1.1,59.85196214442846,
positive,blue,2,k,None,,,,,,,,,0,27,27,27,,,,,,,,,,,,,,,,,main,None,None,1,1.50148800003808,298.69960030005313,None,None,1,,,,,,,,,,,,,,207,2023-04-26_13h27.06.788,Main,2022.1.1,59.85196214442846,
negative,blue,2,None,k,,,,,,,,,0,28,28,28,,,,,,,,,,,,,,,,,main,k,k,1,0.5969137999927625,301.19957520009484,None,None,0,,,,,,,,,,,,,,207,2023-04-26_13h27.06.788,Main,2022.1.1,59.85196214442846,
positive,red,1,None,None,,,,,,,,,0,29,29,29,,,,,,,,,,,,,,,,,main,None,None,1,1.5015433999942616,302.7970410999842,None,None,1,,,,,,,,,,,,,,207,2023-04-26_13h27.06.788,Main,2022.1.1,59.85196214442846,
positive,blue,1,k,None,,,,,,,,,0,30,30,30,,,,,,,,,,,,,,,,,main,None,None,1,1.4996095999376848,305.2996059000725,None,None,1,,,,,,,,,,,,,,207,2023-04-26_13h27.06.788,Main,2022.1.1,59.85196214442846,
positive,yellow,1,None,k,,,,,,,,,0,31,31,31,,,,,,,,,,,,,,,,,main,k,k,1,0.8520597999449819,307.7994654000504,None,None,0,,,,,,,,,,,,,,207,2023-04-26_13h27.06.788,Main,2022.1.1,59.85196214442846,
negative,yellow,2,k,None,,,,,,,,,0,32,32,32,,,,,,,,,,,,,,,,,main,None,None,1,1.4935344000114128,309.65602400002535,None,None,1,,,,,,,,,,,,,,207,2023-04-26_13h27.06.788,Main,2022.1.1,59.85196214442846,
negative,blue,1,None,k,,,,,,,,,0,33,33,33,,,,,,,,,,,,,,,,,main,k,k,1,0.6685596000170335,312.14684420009144,None,None,0,,,,,,,,,,,,,,207,2023-04-26_13h27.06.788,Main,2022.1.1,59.85196214442846,
positive,blue,1,k,None,,,,,,,,,0,34,34,34,,,,,,,,,,,,,,,,,main,None,None,1,1.4986065999837592,313.81607270007953,None,None,1,,,,,,,,,,,,,,207,2023-04-26_13h27.06.788,Main,2022.1.1,59.85196214442846,
negative,yellow,1,k,None,,,,,,,,,0,35,35,35,,,,,,,,,,,,,,,,,main,None,None,1,1.4991200999356806,316.31371700007,None,None,1,,,,,,,,,,,,,,207,2023-04-26_13h27.06.788,Main,2022.1.1,59.85196214442846,
positive,yellow,2,None,k,,,,,,,,,0,36,36,36,,,,,,,,,,,,,,,,,main,k,k,1,0.964100299985148,318.81354670005385,None,None,0,,,,,,,,,,,,,,207,2023-04-26_13h27.06.788,Main,2022.1.1,59.85196214442846,
positive,yellow,2,None,k,,,,,,,,,0,37,37,37,,,,,,,,,,,,,,,,,main,k,k,1,0.6514884999487549,320.7824202000629,None,None,0,,,,,,,,,,,,,,207,2023-04-26_13h27.06.788,Main,2022.1.1,59.85196214442846,
negative,yellow,2,k,None,,,,,,,,,0,38,38,38,,,,,,,,,,,,,,,,,main,None,None,1,1.4964413000270724,322.4323964000214,None,None,1,,,,,,,,,,,,,,207,2023-04-26_13h27.06.788,Main,2022.1.1,59.85196214442846,
positive,yellow,1,None,k,,,,,,,,,0,39,39,39,,,,,,,,,,,,,,,,,main,k,k,1,0.9006767999380827,324.93553430004977,None,None,0,,,,,,,,,,,,,,207,2023-04-26_13h27.06.788,Main,2022.1.1,59.85196214442846,
negative,yellow,2,k,None,,,,,,,,,0,40,40,40,,,,,,,,,,,,,,,,,main,None,None,1,1.500356600037776,326.8299893999938,None,None,1,,,,,,,,,,,,,,207,2023-04-26_13h27.06.788,Main,2022.1.1,59.85196214442846,
positive,blue,2,k,None,,,,,,,,,0,41,41,41,,,,,,,,,,,,,,,,,main,None,None,1,1.499123900081031,329.3324243000243,None,None,1,,,,,,,,,,,,,,207,2023-04-26_13h27.06.788,Main,2022.1.1,59.85196214442846,
positive,blue,2,k,None,,,,,,,,,0,42,42,42,,,,,,,,,,,,,,,,,main,None,None,1,1.4966076000127941,331.83001460006926,None,None,1,,,,,,,,,,,,,,207,2023-04-26_13h27.06.788,Main,2022.1.1,59.85196214442846,
negative,blue,2,None,k,,,,,,,,,0,43,43,43,,,,,,,,,,,,,,,,,main,k,k,1,0.8354916000971571,334.32966300006956,None,None,0,,,,,,,,,,,,,,207,2023-04-26_13h27.06.788,Main,2022.1.1,59.85196214442846,
negative,red,1,None,None,,,,,,,,,0,44,44,44,,,,,,,,,,,,,,,,,main,None,None,1,1.4991238999646157,336.1656022000825,None,None,1,,,,,,,,,,,,,,207,2023-04-26_13h27.06.788,Main,2022.1.1,59.85196214442846,
negative,yellow,1,k,None,,,,,,,,,0,45,45,45,,,,,,,,,,,,,,,,,main,None,None,1,1.4966358999954537,338.66568480001297,None,None,1,,,,,,,,,,,,,,207,2023-04-26_13h27.06.788,Main,2022.1.1,59.85196214442846,
negative,yellow,1,k,None,,,,,,,,,0,46,46,46,,,,,,,,,,,,,,,,,main,None,None,1,1.4989539999514818,341.16317650000565,None,None,1,,,,,,,,,,,,,,207,2023-04-26_13h27.06.788,Main,2022.1.1,59.85196214442846,
positive,red,1,None,None,,,,,,,,,0,47,47,47,,,,,,,,,,,,,,,,,main,None,None,1,1.501796399941668,343.6635293000145,None,None,1,,,,,,,,,,,,,,207,2023-04-26_13h27.06.788,Main,2022.1.1,59.85196214442846,
positive,yellow,1,None,k,,,,,,,,,0,48,48,48,,,,,,,,,,,,,,,,,main,k,k,1,1.016248399973847,346.16550580004696,None,None,0,,,,,,,,,,,,,,207,2023-04-26_13h27.06.788,Main,2022.1.1,59.85196214442846,
negative,blue,1,None,k,,,,,,,,,0,49,49,49,,,,,,,,,,,,,,,,,main,k,k,1,0.5656807000050321,348.1820678000804,None,None,0,,,,,,,,,,,,,,207,2023-04-26_13h27.06.788,Main,2022.1.1,59.85196214442846,
positive,yellow,2,None,k,,,,,,,,,0,50,50,50,,,,,,,,,,,,,,,,,main,k,k,1,0.563563400064595,349.7485204000259,None,None,0,,,,,,,,,,,,,,207,2023-04-26_13h27.06.788,Main,2022.1.1,59.85196214442846,
negative,blue,1,None,k,,,,,,,,,0,51,51,51,,,,,,,,,,,,,,,,,main,k,k,1,0.5658623999916017,351.31525270000566,None,None,0,,,,,,,,,,,,,,207,2023-04-26_13h27.06.788,Main,2022.1.1,59.85196214442846,
positive,red,2,None,None,,,,,,,,,0,52,52,52,,,,,,,,,,,,,,,,,main,None,None,1,1.5013116000918671,352.8795438000234,None,None,1,,,,,,,,,,,,,,207,2023-04-26_13h27.06.788,Main,2022.1.1,59.85196214442846,
positive,yellow,2,None,k,,,,,,,,,0,53,53,53,,,,,,,,,,,,,,,,,main,k,k,1,1.4474758999422193,355.3819455000339,None,None,0,,,,,,,,,,,,,,207,2023-04-26_13h27.06.788,Main,2022.1.1,59.85196214442846,
negative,red,2,None,None,,,,,,,,,0,54,54,54,,,,,,,,,,,,,,,,,main,None,None,1,1.5008205999620259,357.83188110007904,None,None,1,,,,,,,,,,,,,,207,2023-04-26_13h27.06.788,Main,2022.1.1,59.85196214442846,
positive,yellow,1,None,k,,,,,,,,,0,55,55,55,,,,,,,,,,,,,,,,,main,k,k,1,0.5638619000092149,360.3316383000929,None,None,0,,,,,,,,,,,,,,207,2023-04-26_13h27.06.788,Main,2022.1.1,59.85196214442846,
negative,blue,2,None,k,,,,,,,,,0,56,56,56,,,,,,,,,,,,,,,,,main,k,k,1,0.6993716999422759,361.8957750000991,None,None,0,,,,,,,,,,,,,,207,2023-04-26_13h27.06.788,Main,2022.1.1,59.85196214442846,
positive,blue,1,k,None,,,,,,,,,0,57,57,57,,,,,,,,,,,,,,,,,main,None,None,1,1.501181700034067,363.59580080001615,None,None,1,,,,,,,,,,,,,,207,2023-04-26_13h27.06.788,Main,2022.1.1,59.85196214442846,
positive,blue,1,k,None,,,,,,,,,0,58,58,58,,,,,,,,,,,,,,,,,main,None,None,1,1.4990703000221401,366.09838059998583,None,None,1,,,,,,,,,,,,,,207,2023-04-26_13h27.06.788,Main,2022.1.1,59.85196214442846,
negative,yellow,2,k,None,,,,,,,,,0,59,59,59,,,,,,,,,,,,,,,,,main,None,k,0,0.6973910999950022,368.5981546000112,None,None,1,,,,,,,,,,,,,,207,2023-04-26_13h27.06.788,Main,2022.1.1,59.85196214442846,
positive,red,2,None,None,,,,,,,,,0,60,60,60,,,,,,,,,,,,,,,,,main,None,None,1,1.5012036999687552,371.2958016000921,None,None,1,,,,,,,,,,,,,,207,2023-04-26_13h27.06.788,Main,2022.1.1,59.85196214442846,
negative,yellow,1,k,None,,,,,,,,,0,61,61,61,,,,,,,,,,,,,,,,,main,None,None,1,1.4988052999833599,373.79801850009244,None,None,1,,,,,,,,,,,,,,207,2023-04-26_13h27.06.788,Main,2022.1.1,59.85196214442846,
negative,red,1,None,None,,,,,,,,,0,62,62,62,,,,,,,,,,,,,,,,,main,None,None,1,1.4967367000645027,376.29578050004784,None,None,1,,,,,,,,,,,,,,207,2023-04-26_13h27.06.788,Main,2022.1.1,59.85196214442846,
negative,blue,1,None,k,,,,,,,,,0,63,63,63,,,,,,,,,,,,,,,,,main,k,k,1,0.7854509999742731,378.7954781000735,None,None,0,,,,,,,,,,,,,,207,2023-04-26_13h27.06.788,Main,2022.1.1,59.85196214442846,
positive,blue,2,k,None,,,,,,,,,0,64,64,64,,,,,,,,,,,,,,,,,main,None,None,1,1.496212900034152,380.5813588000601,None,None,1,,,,,,,,,,,,,,207,2023-04-26_13h27.06.788,Main,2022.1.1,59.85196214442846,
negative,yellow,2,k,None,,,,,,,,,0,65,65,65,,,,,,,,,,,,,,,,,main,None,k,0,0.6498362999409437,383.0844010000583,None,None,1,,,,,,,,,,,,,,207,2023-04-26_13h27.06.788,Main,2022.1.1,59.85196214442846,
positive,yellow,2,None,k,,,,,,,,,0,66,66,66,,,,,,,,,,,,,,,,,main,k,k,1,0.7484364000847563,385.73122590000276,None,None,0,,,,,,,,,,,,,,207,2023-04-26_13h27.06.788,Main,2022.1.1,59.85196214442846,
positive,yellow,2,None,k,,,,,,,,,0,67,67,67,,,,,,,,,,,,,,,,,main,k,k,1,0.9182064000051469,387.47857300005853,None,None,0,,,,,,,,,,,,,,207,2023-04-26_13h27.06.788,Main,2022.1.1,59.85196214442846,
positive,red,1,None,None,,,,,,,,,0,68,68,68,,,,,,,,,,,,,,,,,main,None,None,1,1.499030200066045,389.3978261000011,None,None,1,,,,,,,,,,,,,,207,2023-04-26_13h27.06.788,Main,2022.1.1,59.85196214442846,
positive,yellow,1,None,k,,,,,,,,,0,69,69,69,,,,,,,,,,,,,,,,,main,k,k,1,0.796973199932836,391.89788300008513,None,None,0,,,,,,,,,,,,,,207,2023-04-26_13h27.06.788,Main,2022.1.1,59.85196214442846,
negative,yellow,2,k,None,,,,,,,,,0,70,70,70,,,,,,,,,,,,,,,,,main,None,None,1,1.5012802999699488,393.69511600001715,None,None,1,,,,,,,,,,,,,,207,2023-04-26_13h27.06.788,Main,2022.1.1,59.85196214442846,
positive,yellow,1,None,k,,,,,,,,,0,71,71,71,,,,,,,,,,,,,,,,,main,k,k,1,0.6330401999875903,396.19769830000587,None,None,0,,,,,,,,,,,,,,207,2023-04-26_13h27.06.788,Main,2022.1.1,59.85196214442846,
negative,blue,1,None,k,,,,,,,,,0,72,72,72,,,,,,,,,,,,,,,,,main,k,k,1,0.746405600104481,397.83104080008343,None,None,0,,,,,,,,,,,,,,207,2023-04-26_13h27.06.788,Main,2022.1.1,59.85196214442846,
negative,red,2,None,None,,,,,,,,,0,73,73,73,,,,,,,,,,,,,,,,,main,None,None,1,1.5015786999138072,399.5783141000429,None,None,1,,,,,,,,,,,,,,207,2023-04-26_13h27.06.788,Main,2022.1.1,59.85196214442846,
positive,blue,2,k,None,,,,,,,,,0,74,74,74,,,,,,,,,,,,,,,,,main,None,None,1,1.4991269999882206,402.08100630005356,None,None,1,,,,,,,,,,,,,,207,2023-04-26_13h27.06.788,Main,2022.1.1,59.85196214442846,
negative,blue,2,None,k,,,,,,,,,0,75,75,75,,,,,,,,,,,,,,,,,main,k,k,1,0.6027497999602929,404.58073310006876,None,None,0,,,,,,,,,,,,,,207,2023-04-26_13h27.06.788,Main,2022.1.1,59.85196214442846,
negative,blue,2,None,k,,,,,,,,,0,76,76,76,,,,,,,,,,,,,,,,,main,k,k,1,0.676791499950923,406.1822225000942,None,None,0,,,,,,,,,,,,,,207,2023-04-26_13h27.06.788,Main,2022.1.1,59.85196214442846,
negative,yellow,1,k,None,,,,,,,,,0,77,77,77,,,,,,,,,,,,,,,,,main,None,None,1,1.5016880000475794,407.86148560000584,None,None,1,,,,,,,,,,,,,,207,2023-04-26_13h27.06.788,Main,2022.1.1,59.85196214442846,
positive,blue,1,k,None,,,,,,,,,0,78,78,78,,,,,,,,,,,,,,,,,main,None,None,1,1.4991764000151306,410.36408630001824,None,None,1,,,,,,,,,,,,,,207,2023-04-26_13h27.06.788,Main,2022.1.1,59.85196214442846,
positive,blue,1,k,None,,,,,,,,,0,79,79,79,,,,,,,,,,,,,,,,,main,None,None,1,1.4962988999905065,412.863917700015,None,None,1,,,,,,,,,,,,,,207,2023-04-26_13h27.06.788,Main,2022.1.1,59.85196214442846,
positive,red,2,None,None,,,,,,,,,0,80,80,80,,,,,,,,,,,,,,,,,main,None,None,1,1.5017966000596061,415.36135800008196,None,None,1,,,,,,,,,,,,,,207,2023-04-26_13h27.06.788,Main,2022.1.1,59.85196214442846,
positive,yellow,2,None,k,,,,,,,,,0,81,81,81,,,,,,,,,,,,,,,,,main,k,k,1,0.7662232000147924,417.8617033000337,None,None,0,,,,,,,,,,,,,,207,2023-04-26_13h27.06.788,Main,2022.1.1,59.85196214442846,
positive,blue,1,k,None,,,,,,,,,0,82,82,82,,,,,,,,,,,,,,,,,main,None,None,1,1.4989651999203488,419.6305168000981,None,None,1,,,,,,,,,,,,,,207,2023-04-26_13h27.06.788,Main,2022.1.1,59.85196214442846,
negative,yellow,2,k,None,,,,,,,,,0,83,83,83,,,,,,,,,,,,,,,,,main,None,None,1,1.4969784000422806,422.1304834000766,None,None,1,,,,,,,,,,,,,,207,2023-04-26_13h27.06.788,Main,2022.1.1,59.85196214442846,
positive,blue,2,k,None,,,,,,,,,0,84,84,84,,,,,,,,,,,,,,,,,main,None,None,1,1.4989474000176415,424.6335983000463,None,None,1,,,,,,,,,,,,,,207,2023-04-26_13h27.06.788,Main,2022.1.1,59.85196214442846,
positive,yellow,1,None,k,,,,,,,,,0,85,85,85,,,,,,,,,,,,,,,,,main,k,k,1,0.7020250000059605,427.12803710007574,None,None,0,,,,,,,,,,,,,,207,2023-04-26_13h27.06.788,Main,2022.1.1,59.85196214442846,
positive,blue,2,k,None,,,,,,,,,0,86,86,86,,,,,,,,,,,,,,,,,main,None,None,1,1.4965415000915527,428.82801779999863,None,None,1,,,,,,,,,,,,,,207,2023-04-26_13h27.06.788,Main,2022.1.1,59.85196214442846,
positive,blue,1,k,None,,,,,,,,,0,87,87,87,,,,,,,,,,,,,,,,,main,None,None,1,1.5013766000047326,431.32790060003754,None,None,1,,,,,,,,,,,,,,207,2023-04-26_13h27.06.788,Main,2022.1.1,59.85196214442846,
negative,yellow,2,k,None,,,,,,,,,0,88,88,88,,,,,,,,,,,,,,,,,main,None,None,1,1.4989556000800803,433.8300667000003,None,None,1,,,,,,,,,,,,,,207,2023-04-26_13h27.06.788,Main,2022.1.1,59.85196214442846,
negative,blue,2,None,k,,,,,,,,,0,89,89,89,,,,,,,,,,,,,,,,,main,k,k,1,0.8470373000018299,436.3301198000554,None,None,0,,,,,,,,,,,,,,207,2023-04-26_13h27.06.788,Main,2022.1.1,59.85196214442846,
positive,yellow,2,None,k,,,,,,,,,0,90,90,90,,,,,,,,,,,,,,,,,main,k,k,1,0.6517585000256076,438.17775700008497,None,None,0,,,,,,,,,,,,,,207,2023-04-26_13h27.06.788,Main,2022.1.1,59.85196214442846,
negative,yellow,1,k,None,,,,,,,,,0,91,91,91,,,,,,,,,,,,,,,,,main,None,None,1,1.498964799917303,439.8277238000883,None,None,1,,,,,,,,,,,,,,207,2023-04-26_13h27.06.788,Main,2022.1.1,59.85196214442846,
negative,red,2,None,None,,,,,,,,,0,92,92,92,,,,,,,,,,,,,,,,,main,None,None,1,1.4965213000541553,442.32994140009396,None,None,1,,,,,,,,,,,,,,207,2023-04-26_13h27.06.788,Main,2022.1.1,59.85196214442846,
negative,blue,2,None,k,,,,,,,,,0,93,93,93,,,,,,,,,,,,,,,,,main,k,k,1,0.7828615000471473,444.8273912000004,None,None,0,,,,,,,,,,,,,,207,2023-04-26_13h27.06.788,Main,2022.1.1,59.85196214442846,
negative,blue,1,None,k,,,,,,,,,0,94,94,94,,,,,,,,,,,,,,,,,main,k,k,1,-0.7683294999878854,446.6107103000395,None,None,0,,,,,,,,,,,,,,207,2023-04-26_13h27.06.788,Main,2022.1.1,59.85196214442846,
negative,blue,1,None,k,,,,,,,,,0,95,95,95,,,,,,,,,,,,,,,,,main,k,k,1,0.7013188999844715,449.846683000098,None,None,0,,,,,,,,,,,,,,207,2023-04-26_13h27.06.788,Main,2022.1.1,59.85196214442846,
negative,red,1,None,None,,,,,,,,,0,96,96,96,,,,,,,,,,,,,,,,,main,None,None,1,1.49850610003341,451.54656960000284,None,None,1,,,,,,,,,,,,,,207,2023-04-26_13h27.06.788,Main,2022.1.1,59.85196214442846,
positive,yellow,1,None,k,,,,,,,,,0,97,97,97,,,,,,,,,,,,,,,,,main,k,k,1,0.6305240999208763,454.0464333000127,None,None,0,,,,,,,,,,,,,,207,2023-04-26_13h27.06.788,Main,2022.1.1,59.85196214442846,
negative,yellow,1,k,None,,,,,,,,,0,98,98,98,,,,,,,,,,,,,,,,,main,None,None,1,1.5017316000303254,455.67733830004,None,None,1,,,,,,,,,,,,,,207,2023-04-26_13h27.06.788,Main,2022.1.1,59.85196214442846,
positive,red,1,None,None,,,,,,,,,0,99,99,99,,,,,,,,,,,,,,,,,main,None,None,1,1.4989304000046104,458.17752630007453,None,None,1,,,,,,,,,,,,,,207,2023-04-26_13h27.06.788,Main,2022.1.1,59.85196214442846,
positive,blue,1,k,None,,,,,,,,,0,100,100,100,,,,,,,,,,,,,,,,,main,None,None,1,1.496564899920486,460.6797106000595,None,None,1,,,,,,,,,,,,,,207,2023-04-26_13h27.06.788,Main,2022.1.1,59.85196214442846,
negative,yellow,1,k,None,,,,,,,,,0,101,101,101,,,,,,,,,,,,,,,,,main,None,None,1,1.5017934000352398,463.1770663000643,None,None,1,,,,,,,,,,,,,,207,2023-04-26_13h27.06.788,Main,2022.1.1,59.85196214442846,
negative,blue,2,None,k,,,,,,,,,0,102,102,102,,,,,,,,,,,,,,,,,main,k,k,1,0.8637780999997631,465.67968920001294,None,None,0,,,,,,,,,,,,,,207,2023-04-26_13h27.06.788,Main,2022.1.1,59.85196214442846,
negative,yellow,2,k,None,,,,,,,,,0,103,103,103,,,,,,,,,,,,,,,,,main,None,None,1,1.5011527999304235,467.5461030000588,None,None,1,,,,,,,,,,,,,,207,2023-04-26_13h27.06.788,Main,2022.1.1,59.85196214442846,
positive,yellow,2,None,k,,,,,,,,,0,104,104,104,,,,,,,,,,,,,,,,,main,k,k,1,0.6305434999521822,470.04377840005327,None,None,0,,,,,,,,,,,,,,207,2023-04-26_13h27.06.788,Main,2022.1.1,59.85196214442846,
positive,blue,1,k,None,,,,,,,,,0,105,105,105,,,,,,,,,,,,,,,,,main,None,None,1,1.5009884999599308,471.6771088000387,None,None,1,,,,,,,,,,,,,,207,2023-04-26_13h27.06.788,Main,2022.1.1,59.85196214442846,
positive,blue,2,k,None,,,,,,,,,0,106,106,106,,,,,,,,,,,,,,,,,main,None,None,1,1.4968707000371069,474.17935049999505,None,None,1,,,,,,,,,,,,,,207,2023-04-26_13h27.06.788,Main,2022.1.1,59.85196214442846,
negative,blue,1,None,k,,,,,,,,,0,107,107,107,,,,,,,,,,,,,,,,,main,k,k,1,0.7851717000594363,476.6769271000521,None,None,0,,,,,,,,,,,,,,207,2023-04-26_13h27.06.788,Main,2022.1.1,59.85196214442846,
positive,yellow,2,None,k,,,,,,,,,0,108,108,108,,,,,,,,,,,,,,,,,main,k,k,1,0.7993190999841318,478.4626989000244,None,None,0,,,,,,,,,,,,,,207,2023-04-26_13h27.06.788,Main,2022.1.1,59.85196214442846,
negative,yellow,1,k,None,,,,,,,,,0,109,109,109,,,,,,,,,,,,,,,,,main,None,None,1,1.4988229000009596,480.26273930002935,None,None,1,,,,,,,,,,,,,,207,2023-04-26_13h27.06.788,Main,2022.1.1,59.85196214442846,
negative,blue,2,None,k,,,,,,,,,0,110,110,110,,,,,,,,,,,,,,,,,main,k,k,1,0.6971952999010682,482.7625357999932,None,None,0,,,,,,,,,,,,,,207,2023-04-26_13h27.06.788,Main,2022.1.1,59.85196214442846,
positive,blue,2,k,None,,,,,,,,,0,111,111,111,,,,,,,,,,,,,,,,,main,None,None,1,1.501376000000164,484.4623326000292,None,None,1,,,,,,,,,,,,,,207,2023-04-26_13h27.06.788,Main,2022.1.1,59.85196214442846,
negative,blue,1,None,k,,,,,,,,,0,112,112,112,,,,,,,,,,,,,,,,,main,k,k,1,0.8325789000373334,486.9623664000537,None,None,0,,,,,,,,,,,,,,207,2023-04-26_13h27.06.788,Main,2022.1.1,59.85196214442846,
positive,yellow,1,None,k,,,,,,,,,0,113,113,113,,,,,,,,,,,,,,,,,main,k,k,1,0.7191927999956533,488.7934443000704,None,None,0,,,,,,,,,,,,,,207,2023-04-26_13h27.06.788,Main,2022.1.1,59.85196214442846,
negative,red,1,None,None,,,,,,,,,0,114,114,114,,,,,,,,,,,,,,,,,main,None,None,1,1.4954223999520764,490.5100718000904,None,None,1,,,,,,,,,,,,,,207,2023-04-26_13h27.06.788,Main,2022.1.1,59.85196214442846,
positive,red,1,None,None,,,,,,,,,0,115,115,115,,,,,,,,,,,,,,,,,main,None,None,1,1.499472700059414,493.0100415000925,None,None,1,,,,,,,,,,,,,,207,2023-04-26_13h27.06.788,Main,2022.1.1,59.85196214442846,
negative,red,2,None,None,,,,,,,,,0,116,116,116,,,,,,,,,,,,,,,,,main,None,None,1,1.4966737000504509,495.5122215000447,None,None,1,,,,,,,,,,,,,,207,2023-04-26_13h27.06.788,Main,2022.1.1,59.85196214442846,
negative,yellow,2,k,None,,,,,,,,,0,117,117,117,,,,,,,,,,,,,,,,,main,None,None,1,1.5016927999677137,498.00975510000717,None,None,1,,,,,,,,,,,,,,207,2023-04-26_13h27.06.788,Main,2022.1.1,59.85196214442846,
positive,yellow,1,None,k,,,,,,,,,0,118,118,118,,,,,,,,,,,,,,,,,main,k,k,1,0.7493988000787795,500.51230880001094,None,None,0,,,,,,,,,,,,,,207,2023-04-26_13h27.06.788,Main,2022.1.1,59.85196214442846,
positive,red,2,None,None,,,,,,,,,0,119,119,119,,,,,,,,,,,,,,,,,main,None,None,1,1.4987141001038253,502.26223450002726,None,None,1,,,,,,,,,,,,,,207,2023-04-26_13h27.06.788,Main,2022.1.1,59.85196214442846,
positive,blue,2,k,None,,,,,,,,,0,120,120,120,,,,,,,,,,,,,,,,,main,None,None,1,1.497027499950491,504.75981130008586,None,None,1,,,,,,,,,,,,,,207,2023-04-26_13h27.06.788,Main,2022.1.1,59.85196214442846,
negative,red,1,None,None,,,,,,,,,0,121,121,121,,,,,,,,,,,,,,,,,main,None,None,1,1.5015599000034854,507.25967370008584,None,None,1,,,,,,,,,,,,,,207,2023-04-26_13h27.06.788,Main,2022.1.1,59.85196214442846,
positive,yellow,2,None,k,,,,,,,,,0,122,122,122,,,,,,,,,,,,,,,,,main,k,k,1,0.8328170001041144,509.7621167000616,None,None,0,,,,,,,,,,,,,,207,2023-04-26_13h27.06.788,Main,2022.1.1,59.85196214442846,
negative,red,2,None,None,,,,,,,,,0,123,123,123,,,,,,,,,,,,,,,,,main,None,None,1,1.4963512999238446,511.5953466000501,None,None,1,,,,,,,,,,,,,,207,2023-04-26_13h27.06.788,Main,2022.1.1,59.85196214442846,
negative,yellow,2,k,None,,,,,,,,,0,124,124,124,,,,,,,,,,,,,,,,,main,None,None,1,1.5018622000934556,514.092685700045,None,None,1,,,,,,,,,,,,,,207,2023-04-26_13h27.06.788,Main,2022.1.1,59.85196214442846,
positive,red,1,None,None,,,,,,,,,0,125,125,125,,,,,,,,,,,,,,,,,main,None,None,1,1.4964206999866292,516.5953378999839,None,None,1,,,,,,,,,,,,,,207,2023-04-26_13h27.06.788,Main,2022.1.1,59.85196214442846,
negative,blue,2,None,k,,,,,,,,,0,126,126,126,,,,,,,,,,,,,,,,,main,k,k,1,0.6854483999777585,519.0926896000747,None,None,0,,,,,,,,,,,,,,207,2023-04-26_13h27.06.788,Main,2022.1.1,59.85196214442846,
negative,blue,1,None,k,,,,,,,,,0,127,127,127,,,,,,,,,,,,,,,,,main,k,k,1,0.6801782998954877,520.7784273000434,None,None,0,,,,,,,,,,,,,,207,2023-04-26_13h27.06.788,Main,2022.1.1,59.85196214442846,
negative,yellow,1,k,None,,,,,,,,,0,128,128,128,,,,,,,,,,,,,,,,,main,None,None,1,1.5015118999872357,522.4593000999885,None,None,1,,,,,,,,,,,,,,207,2023-04-26_13h27.06.788,Main,2022.1.1,59.85196214442846,
negative,yellow,1,k,None,,,,,,,,,0,129,129,129,,,,,,,,,,,,,,,,,main,None,None,1,1.5019297000253573,524.9595052000368,None,None,1,,,,,,,,,,,,,,207,2023-04-26_13h27.06.788,Main,2022.1.1,59.85196214442846,
positive,blue,1,k,None,,,,,,,,,0,130,130,130,,,,,,,,,,,,,,,,,main,None,None,1,1.4960994999855757,527.4628528000321,None,None,1,,,,,,,,,,,,,,207,2023-04-26_13h27.06.788,Main,2022.1.1,59.85196214442846,
negative,blue,1,None,k,,,,,,,,,0,131,131,131,,,,,,,,,,,,,,,,,main,k,k,1,1.0304037999594584,529.9647789000301,None,None,0,,,,,,,,,,,,,,207,2023-04-26_13h27.06.788,Main,2022.1.1,59.85196214442846,
negative,blue,2,None,k,,,,,,,,,0,132,132,132,,,,,,,,,,,,,,,,,main,k,k,1,0.6493201999692246,531.9923202000791,None,None,0,,,,,,,,,,,,,,207,2023-04-26_13h27.06.788,Main,2022.1.1,59.85196214442846,
positive,blue,2,k,None,,,,,,,,,0,133,133,133,,,,,,,,,,,,,,,,,main,None,None,1,1.5012741000391543,533.6449607000686,None,None,1,,,,,,,,,,,,,,207,2023-04-26_13h27.06.788,Main,2022.1.1,59.85196214442846,
positive,red,2,None,None,,,,,,,,,0,134,134,134,,,,,,,,,,,,,,,,,main,None,None,1,1.4970206000143662,536.1448185000336,None,None,1,,,,,,,,,,,,,,207,2023-04-26_13h27.06.788,Main,2022.1.1,59.85196214442846,
negative,yellow,2,k,None,,,,,,,,,0,135,135,135,,,,,,,,,,,,,,,,,main,None,None,1,1.4985753999790177,538.6447530000005,None,None,1,,,,,,,,,,,,,,207,2023-04-26_13h27.06.788,Main,2022.1.1,59.85196214442846,
positive,yellow,2,None,k,,,,,,,,,0,136,136,136,,,,,,,,,,,,,,,,,main,k,k,1,0.8689363000448793,541.1420773999998,None,None,0,,,,,,,,,,,,,,207,2023-04-26_13h27.06.788,Main,2022.1.1,59.85196214442846,
positive,blue,1,k,None,,,,,,,,,0,137,137,137,,,,,,,,,,,,,,,,,main,None,None,1,1.5019410999957472,543.0113575999858,None,None,1,,,,,,,,,,,,,,207,2023-04-26_13h27.06.788,Main,2022.1.1,59.85196214442846,
positive,yellow,1,None,k,,,,,,,,,0,138,138,138,,,,,,,,,,,,,,,,,main,k,k,1,0.710326400003396,545.5130177000538,None,None,0,,,,,,,,,,,,,,207,2023-04-26_13h27.06.788,Main,2022.1.1,59.85196214442846,
positive,yellow,1,None,k,,,,,,,,,0,139,139,139,,,,,,,,,,,,,,,,,main,k,k,1,0.6656227000057697,547.2277797000716,None,None,0,,,,,,,,,,,,,,207,2023-04-26_13h27.06.788,Main,2022.1.1,59.85196214442846,
positive,yellow,1,None,k,,,,,,,,,0,140,140,140,,,,,,,,,,,,,,,,,main,k,k,1,0.61855320003815,548.891908199992,None,None,0,,,,,,,,,,,,,,207,2023-04-26_13h27.06.788,Main,2022.1.1,59.85196214442846,
positive,blue,1,k,None,,,,,,,,,0,141,141,141,,,,,,,,,,,,,,,,,main,None,None,1,1.4989091999595985,550.5112006000709,None,None,1,,,,,,,,,,,,,,207,2023-04-26_13h27.06.788,Main,2022.1.1,59.85196214442846,
positive,blue,2,k,None,,,,,,,,,0,142,142,142,,,,,,,,,,,,,,,,,main,None,None,1,1.499104000045918,553.011201400077,None,None,1,,,,,,,,,,,,,,207,2023-04-26_13h27.06.788,Main,2022.1.1,59.85196214442846,
positive,yellow,2,None,k,,,,,,,,,0,143,143,143,,,,,,,,,,,,,,,,,main,k,k,1,0.9808012000285089,555.5109883000841,None,None,0,,,,,,,,,,,,,,207,2023-04-26_13h27.06.788,Main,2022.1.1,59.85196214442846,
negative,yellow,2,k,None,,,,,,,,,0,144,144,144,,,,,,,,,,,,,,,,,main,None,None,1,1.501242500031367,557.4919860000955,None,None,1,,,,,,,,,,,,,,207,2023-04-26_13h27.06.788,Main,2022.1.1,59.85196214442846,
negative,blue,2,None,k,,,,,,,,,0,145,145,145,,,,,,,,,,,,,,,,,main,k,k,1,0.7801464999793097,559.9920282000676,None,None,0,,,,,,,,,,,,,,207,2023-04-26_13h27.06.788,Main,2022.1.1,59.85196214442846,
negative,red,1,None,None,,,,,,,,,0,146,146,146,,,,,,,,,,,,,,,,,main,None,None,1,1.4989362000487745,561.777493200032,None,None,1,,,,,,,,,,,,,,207,2023-04-26_13h27.06.788,Main,2022.1.1,59.85196214442846,
positive,blue,1,k,None,,,,,,,,,0,147,147,147,,,,,,,,,,,,,,,,,main,None,None,1,1.5014377000043169,564.2751744000707,None,None,1,,,,,,,,,,,,,,207,2023-04-26_13h27.06.788,Main,2022.1.1,59.85196214442846,
positive,yellow,1,None,k,,,,,,,,,0,148,148,148,,,,,,,,,,,,,,,,,main,k,k,1,0.6996596000390127,566.7751710000448,None,None,0,,,,,,,,,,,,,,207,2023-04-26_13h27.06.788,Main,2022.1.1,59.85196214442846,
negative,red,2,None,None,,,,,,,,,0,149,149,149,,,,,,,,,,,,,,,,,main,None,None,1,1.4965750999981537,568.4751579000149,None,None,1,,,,,,,,,,,,,,207,2023-04-26_13h27.06.788,Main,2022.1.1,59.85196214442846,
negative,blue,1,None,k,,,,,,,,,0,150,150,150,,,,,,,,,,,,,,,,,main,k,k,1,1.3352565999375656,570.974840400042,None,None,0,,,,,,,,,,,,,,207,2023-04-26_13h27.06.788,Main,2022.1.1,59.85196214442846,
negative,yellow,2,k,None,,,,,,,,,0,151,151,151,,,,,,,,,,,,,,,,,main,None,None,1,1.498996900045313,573.3108047000133,None,None,1,,,,,,,,,,,,,,207,2023-04-26_13h27.06.788,Main,2022.1.1,59.85196214442846,
negative,blue,2,None,k,,,,,,,,,0,152,152,152,,,,,,,,,,,,,,,,,main,k,k,1,0.6968303000321612,575.808470100048,None,None,0,,,,,,,,,,,,,,207,2023-04-26_13h27.06.788,Main,2022.1.1,59.85196214442846,
negative,yellow,1,k,None,,,,,,,,,0,153,153,153,,,,,,,,,,,,,,,,,main,None,None,1,1.4993071999633685,577.5079893000657,None,None,1,,,,,,,,,,,,,,207,2023-04-26_13h27.06.788,Main,2022.1.1,59.85196214442846,
negative,blue,1,None,k,,,,,,,,,0,154,154,154,,,,,,,,,,,,,,,,,main,k,k,1,0.6851119000930339,580.0105207000161,None,None,0,,,,,,,,,,,,,,207,2023-04-26_13h27.06.788,Main,2022.1.1,59.85196214442846,
positive,yellow,2,None,k,,,,,,,,,0,155,155,155,,,,,,,,,,,,,,,,,main,k,k,1,0.5302134000230581,581.6938614000101,None,None,0,,,,,,,,,,,,,,207,2023-04-26_13h27.06.788,Main,2022.1.1,59.85196214442846,
positive,red,2,None,None,,,,,,,,,0,156,156,156,,,,,,,,,,,,,,,,,main,None,None,1,1.498772699967958,583.227012700052,None,None,1,,,,,,,,,,,,,,207,2023-04-26_13h27.06.788,Main,2022.1.1,59.85196214442846,
positive,red,1,None,None,,,,,,,,,0,157,157,157,,,,,,,,,,,,,,,,,main,None,None,1,1.5017568999901414,585.7244884000393,None,None,1,,,,,,,,,,,,,,207,2023-04-26_13h27.06.788,Main,2022.1.1,59.85196214442846,
positive,blue,2,k,None,,,,,,,,,0,158,158,158,,,,,,,,,,,,,,,,,main,None,None,1,1.4992246000329033,588.2271107999841,None,None,1,,,,,,,,,,,,,,207,2023-04-26_13h27.06.788,Main,2022.1.1,59.85196214442846,
negative,yellow,1,k,None,,,,,,,,,0,159,159,159,,,,,,,,,,,,,,,,,main,None,None,1,1.4963205000385642,590.727023000014,None,None,1,,,,,,,,,,,,,,207,2023-04-26_13h27.06.788,Main,2022.1.1,59.85196214442846,
negative,red,2,None,None,,,,,,,,,0,160,160,160,,,,,,,,,,,,,,,,,main,None,None,1,1.5018219000194222,593.2243461000035,None,None,1,,,,,,,,,,,,,,207,2023-04-26_13h27.06.788,Main,2022.1.1,59.85196214442846,
negative,blue,1,None,k,,,,,,,,,0,161,161,161,,,,,,,,,,,,,,,,,main,k,k,1,0.7026291999500245,595.7269391000737,None,None,0,,,,,,,,,,,,,,207,2023-04-26_13h27.06.788,Main,2022.1.1,59.85196214442846,
negative,blue,1,None,k,,,,,,,,,0,162,162,162,,,,,,,,,,,,,,,,,main,k,k,1,0.6770219000754878,597.4283899000147,None,None,0,,,,,,,,,,,,,,207,2023-04-26_13h27.06.788,Main,2022.1.1,59.85196214442846,
negative,yellow,1,k,None,,,,,,,,,0,163,163,163,,,,,,,,,,,,,,,,,main,None,None,1,1.5014954999787733,599.1075394999934,None,None,1,,,,,,,,,,,,,,207,2023-04-26_13h27.06.788,Main,2022.1.1,59.85196214442846,
negative,yellow,1,k,None,,,,,,,,,0,164,164,164,,,,,,,,,,,,,,,,,main,None,None,1,1.499026900040917,601.6101243000012,None,None,1,,,,,,,,,,,,,,207,2023-04-26_13h27.06.788,Main,2022.1.1,59.85196214442846,
positive,yellow,1,None,k,,,,,,,,,0,165,165,165,,,,,,,,,,,,,,,,,main,k,k,1,0.6469093000050634,604.1100103000645,None,None,0,,,,,,,,,,,,,,207,2023-04-26_13h27.06.788,Main,2022.1.1,59.85196214442846,
negative,red,1,None,None,,,,,,,,,0,166,166,166,,,,,,,,,,,,,,,,,main,None,None,1,1.5015156000154093,605.7574763000011,None,None,1,,,,,,,,,,,,,,207,2023-04-26_13h27.06.788,Main,2022.1.1,59.85196214442846,
negative,yellow,2,k,None,,,,,,,,,0,167,167,167,,,,,,,,,,,,,,,,,main,None,None,1,1.4991510999388993,608.2600600000005,None,None,1,,,,,,,,,,,,,,207,2023-04-26_13h27.06.788,Main,2022.1.1,59.85196214442846,
positive,blue,2,k,None,,,,,,,,,0,168,168,168,,,,,,,,,,,,,,,,,main,None,None,1,1.499110099975951,610.7600466000149,None,None,1,,,,,,,,,,,,,,207,2023-04-26_13h27.06.788,Main,2022.1.1,59.85196214442846,
positive,red,2,None,None,,,,,,,,,0,169,169,169,,,,,,,,,,,,,,,,,main,None,None,1,1.4968702999176458,613.2597416000208,None,None,1,,,,,,,,,,,,,,207,2023-04-26_13h27.06.788,Main,2022.1.1,59.85196214442846,
positive,red,1,None,None,,,,,,,,,0,170,170,170,,,,,,,,,,,,,,,,,main,None,None,1,1.5017176000401378,615.7573758000508,None,None,1,,,,,,,,,,,,,,207,2023-04-26_13h27.06.788,Main,2022.1.1,59.85196214442846,
negative,blue,2,None,k,,,,,,,,,0,171,171,171,,,,,,,,,,,,,,,,,main,k,k,1,0.8662533999886364,618.2597682999913,None,None,0,,,,,,,,,,,,,,207,2023-04-26_13h27.06.788,Main,2022.1.1,59.85196214442846,
positive,blue,2,k,None,,,,,,,,,0,172,172,172,,,,,,,,,,,,,,,,,main,None,None,1,1.4967417999869213,620.1264627000783,None,None,1,,,,,,,,,,,,,,207,2023-04-26_13h27.06.788,Main,2022.1.1,59.85196214442846,
negative,yellow,2,k,None,,,,,,,,,0,173,173,173,,,,,,,,,,,,,,,,,main,None,None,1,1.4988281999249011,622.6240263000363,None,None,1,,,,,,,,,,,,,,207,2023-04-26_13h27.06.788,Main,2022.1.1,59.85196214442846,
positive,yellow,2,None,k,,,,,,,,,0,174,174,174,,,,,,,,,,,,,,,,,main,k,k,1,0.7019160999916494,625.1236833999865,None,None,0,,,,,,,,,,,,,,207,2023-04-26_13h27.06.788,Main,2022.1.1,59.85196214442846,
negative,blue,2,None,k,,,,,,,,,0,175,175,175,,,,,,,,,,,,,,,,,main,k,k,1,0.7826394999865443,626.8263248000294,None,None,0,,,,,,,,,,,,,,207,2023-04-26_13h27.06.788,Main,2022.1.1,59.85196214442846,
positive,blue,1,k,None,,,,,,,,,0,176,176,176,,,,,,,,,,,,,,,,,main,None,None,1,1.496275300043635,628.6096193999983,None,None,1,,,,,,,,,,,,,,207,2023-04-26_13h27.06.788,Main,2022.1.1,59.85196214442846,
positive,yellow,1,None,k,,,,,,,,,0,177,177,177,,,,,,,,,,,,,,,,,main,k,k,1,0.8499941000482067,631.1070609000744,None,None,0,,,,,,,,,,,,,,207,2023-04-26_13h27.06.788,Main,2022.1.1,59.85196214442846,
positive,blue,1,k,None,,,,,,,,,0,178,178,178,,,,,,,,,,,,,,,,,main,None,None,1,1.5008998999837786,632.9595023000147,None,None,1,,,,,,,,,,,,,,207,2023-04-26_13h27.06.788,Main,2022.1.1,59.85196214442846,
positive,yellow,2,None,k,,,,,,,,,0,179,179,179,,,,,,,,,,,,,,,,,main,k,k,1,0.7137465999694541,635.4594569000183,None,None,0,,,,,,,,,,,,,,207,2023-04-26_13h27.06.788,Main,2022.1.1,59.85196214442846,
positive,blue,1,k,None,,,,,,,,,0,180,180,180,,,,,,,,,,,,,,,,,main,None,None,1,1.4986482999520376,637.1759230000898,None,None,1,,,,,,,,,,,,,,207,2023-04-26_13h27.06.788,Main,2022.1.1,59.85196214442846,
negative,red,1,None,None,,,,,,,,,0,181,181,181,,,,,,,,,,,,,,,,,main,None,None,1,1.5019688999745995,639.6733842000831,None,None,1,,,,,,,,,,,,,,207,2023-04-26_13h27.06.788,Main,2022.1.1,59.85196214442846,
negative,blue,1,None,k,,,,,,,,,0,182,182,182,,,,,,,,,,,,,,,,,main,k,k,1,0.9495496000163257,642.176020200015,None,None,0,,,,,,,,,,,,,,207,2023-04-26_13h27.06.788,Main,2022.1.1,59.85196214442846,
negative,yellow,2,k,None,,,,,,,,,0,183,183,183,,,,,,,,,,,,,,,,,main,None,None,1,1.4963953000260517,644.1260335000698,None,None,1,,,,,,,,,,,,,,207,2023-04-26_13h27.06.788,Main,2022.1.1,59.85196214442846,
positive,yellow,2,None,k,,,,,,,,,0,184,184,184,,,,,,,,,,,,,,,,,main,k,k,1,0.6838518000440672,646.6235710000619,None,None,0,,,,,,,,,,,,,,207,2023-04-26_13h27.06.788,Main,2022.1.1,59.85196214442846,
positive,yellow,1,None,k,,,,,,,,,0,185,185,185,,,,,,,,,,,,,,,,,main,k,k,1,0.714930500020273,648.3068286000052,None,None,0,,,,,,,,,,,,,,207,2023-04-26_13h27.06.788,Main,2022.1.1,59.85196214442846,
positive,red,2,None,None,,,,,,,,,0,186,186,186,,,,,,,,,,,,,,,,,main,None,None,1,1.500828200019896,650.0256194000831,None,None,1,,,,,,,,,,,,,,207,2023-04-26_13h27.06.788,Main,2022.1.1,59.85196214442846,
positive,blue,1,k,None,,,,,,,,,0,187,187,187,,,,,,,,,,,,,,,,,main,None,None,1,1.496769499965012,652.5234126000432,None,None,1,,,,,,,,,,,,,,207,2023-04-26_13h27.06.788,Main,2022.1.1,59.85196214442846,
negative,yellow,1,k,None,,,,,,,,,0,188,188,188,,,,,,,,,,,,,,,,,main,None,None,1,1.5018028999911621,655.0232473000651,None,None,1,,,,,,,,,,,,,,207,2023-04-26_13h27.06.788,Main,2022.1.1,59.85196214442846,
positive,yellow,2,None,k,,,,,,,,,0,189,189,189,,,,,,,,,,,,,,,,,main,k,k,1,0.7661276999861002,657.525680800085,None,None,0,,,,,,,,,,,,,,207,2023-04-26_13h27.06.788,Main,2022.1.1,59.85196214442846,
negative,yellow,2,k,None,,,,,,,,,0,190,190,190,,,,,,,,,,,,,,,,,main,None,None,1,1.4988732000347227,659.2923088000389,None,None,1,,,,,,,,,,,,,,207,2023-04-26_13h27.06.788,Main,2022.1.1,59.85196214442846,
negative,yellow,1,k,None,,,,,,,,,0,191,191,191,,,,,,,,,,,,,,,,,main,None,None,1,1.496653200010769,661.7899000000907,None,None,1,,,,,,,,,,,,,,207,2023-04-26_13h27.06.788,Main,2022.1.1,59.85196214442846,
positive,blue,2,k,None,,,,,,,,,0,192,192,192,,,,,,,,,,,,,,,,,main,None,None,1,1.5018408000469208,664.2895365000004,None,None,1,,,,,,,,,,,,,,207,2023-04-26_13h27.06.788,Main,2022.1.1,59.85196214442846,
positive,yellow,1,None,k,,,,,,,,,0,193,193,193,,,,,,,,,,,,,,,,,main,k,k,1,0.8827576999319717,666.7922394000925,None,None,0,,,,,,,,,,,,,,207,2023-04-26_13h27.06.788,Main,2022.1.1,59.85196214442846,
negative,red,2,None,None,,,,,,,,,0,194,194,194,,,,,,,,,,,,,,,,,main,None,None,1,1.4965021000243723,668.6754577000393,None,None,1,,,,,,,,,,,,,,207,2023-04-26_13h27.06.788,Main,2022.1.1,59.85196214442846,
positive,red,1,None,None,,,,,,,,,0,195,195,195,,,,,,,,,,,,,,,,,main,None,None,1,1.501607200014405,671.1727447999874,None,None,1,,,,,,,,,,,,,,207,2023-04-26_13h27.06.788,Main,2022.1.1,59.85196214442846,
negative,blue,1,None,k,,,,,,,,,0,196,196,196,,,,,,,,,,,,,,,,,main,k,k,1,0.8190190999303013,673.6753774000099,None,None,0,,,,,,,,,,,,,,207,2023-04-26_13h27.06.788,Main,2022.1.1,59.85196214442846,
positive,blue,2,k,None,,,,,,,,,0,197,197,197,,,,,,,,,,,,,,,,,main,None,None,1,1.4934949999442324,675.4985695000505,None,None,1,,,,,,,,,,,,,,207,2023-04-26_13h27.06.788,Main,2022.1.1,59.85196214442846,
negative,blue,2,None,k,,,,,,,,,0,198,198,198,,,,,,,,,,,,,,,,,main,k,k,1,0.9326411000220105,677.9892772000749,None,None,0,,,,,,,,,,,,,,207,2023-04-26_13h27.06.788,Main,2022.1.1,59.85196214442846,
negative,blue,2,None,k,,,,,,,,,0,199,199,199,,,,,,,,,,,,,,,,,main,k,k,1,0.6684166999766603,679.9226262000157,None,None,0,,,,,,,,,,,,,,207,2023-04-26_13h27.06.788,Main,2022.1.1,59.85196214442846,
positive,blue,2,k,None,,,,,,,,,0,200,200,200,,,,,,,,,,,,,,,,,main,None,None,1,1.4988747999304906,681.5918962000869,None,None,1,,,,,,,,,,,,,,207,2023-04-26_13h27.06.788,Main,2022.1.1,59.85196214442846,
positive,blue,2,k,None,,,,,,,,,0,201,201,201,,,,,,,,,,,,,,,,,main,None,None,1,1.4966202999930829,684.091668200097,None,None,1,,,,,,,,,,,,,,207,2023-04-26_13h27.06.788,Main,2022.1.1,59.85196214442846,
negative,yellow,2,k,None,,,,,,,,,0,202,202,202,,,,,,,,,,,,,,,,,main,None,None,1,1.4991551999701187,686.5890908000292,None,None,1,,,,,,,,,,,,,,207,2023-04-26_13h27.06.788,Main,2022.1.1,59.85196214442846,
positive,red,1,None,None,,,,,,,,,0,203,203,203,,,,,,,,,,,,,,,,,main,None,None,1,1.5016744999447837,689.0891017999966,None,None,1,,,,,,,,,,,,,,207,2023-04-26_13h27.06.788,Main,2022.1.1,59.85196214442846,
negative,blue,2,None,k,,,,,,,,,0,204,204,204,,,,,,,,,,,,,,,,,main,k,k,1,1.8804919999092817,691.5916641000658,None,None,0,,,,,,,,,,,,,,207,2023-04-26_13h27.06.788,Main,2022.1.1,59.85196214442846,
negative,red,1,None,None,,,,,,,,,0,205,205,205,,,,,,,,,,,,,,,,,main,None,None,1,1.4954152000136673,695.474584700074,None,None,1,,,,,,,,,,,,,,207,2023-04-26_13h27.06.788,Main,2022.1.1,59.85196214442846,
negative,blue,2,None,k,,,,,,,,,0,206,206,206,,,,,,,,,,,,,,,,,main,k,k,1,0.7351898999186233,697.9722608000739,None,None,0,,,,,,,,,,,,,,207,2023-04-26_13h27.06.788,Main,2022.1.1,59.85196214442846,
negative,yellow,2,k,None,,,,,,,,,0,207,207,207,,,,,,,,,,,,,,,,,main,None,None,1,1.496657200041227,699.7081903000362,None,None,1,,,,,,,,,,,,,,207,2023-04-26_13h27.06.788,Main,2022.1.1,59.85196214442846,
positive,yellow,2,None,k,,,,,,,,,0,208,208,208,,,,,,,,,,,,,,,,,main,k,k,1,0.7326027000090107,702.2057401000056,None,None,0,,,,,,,,,,,,,,207,2023-04-26_13h27.06.788,Main,2022.1.1,59.85196214442846,
negative,yellow,1,k,None,,,,,,,,,0,209,209,209,,,,,,,,,,,,,,,,,main,None,None,1,1.5007174999918789,703.9387886000331,None,None,1,,,,,,,,,,,,,,207,2023-04-26_13h27.06.788,Main,2022.1.1,59.85196214442846,
negative,red,2,None,None,,,,,,,,,0,210,210,210,,,,,,,,,,,,,,,,,main,None,None,1,1.4992872000439093,706.4413346000947,None,None,1,,,,,,,,,,,,,,207,2023-04-26_13h27.06.788,Main,2022.1.1,59.85196214442846,
negative,blue,1,None,k,,,,,,,,,0,211,211,211,,,,,,,,,,,,,,,,,main,k,k,1,0.79718629992567,708.9413096000208,None,None,0,,,,,,,,,,,,,,207,2023-04-26_13h27.06.788,Main,2022.1.1,59.85196214442846,
negative,yellow,1,k,None,,,,,,,,,0,212,212,212,,,,,,,,,,,,,,,,,main,None,None,1,1.5010418000165373,710.7389069000492,None,None,1,,,,,,,,,,,,,,207,2023-04-26_13h27.06.788,Main,2022.1.1,59.85196214442846,
positive,blue,1,k,None,,,,,,,,,0,213,213,213,,,,,,,,,,,,,,,,,main,None,None,1,1.4992998999077827,713.2387684000423,None,None,1,,,,,,,,,,,,,,207,2023-04-26_13h27.06.788,Main,2022.1.1,59.85196214442846,
positive,blue,1,k,None,,,,,,,,,0,214,214,214,,,,,,,,,,,,,,,,,main,None,None,1,1.4993201000615954,715.7410168000497,None,None,1,,,,,,,,,,,,,,207,2023-04-26_13h27.06.788,Main,2022.1.1,59.85196214442846,
positive,yellow,1,None,k,,,,,,,,,0,215,215,215,,,,,,,,,,,,,,,,,main,k,k,1,0.8302809000015259,718.2410849999869,None,None,0,,,,,,,,,,,,,,207,2023-04-26_13h27.06.788,Main,2022.1.1,59.85196214442846,
positive,yellow,1,None,k,,,,,,,,,0,216,216,216,,,,,,,,,,,,,,,,,main,k,k,1,0.6492125999648124,720.0719199000159,None,None,0,,,,,,,,,,,,,,207,2023-04-26_13h27.06.788,Main,2022.1.1,59.85196214442846,
positive,yellow,2,None,k,,,,,,,,,0,217,217,217,,,,,,,,,,,,,,,,,main,k,k,1,0.7185184999834746,721.7217640000163,None,None,0,,,,,,,,,,,,,,207,2023-04-26_13h27.06.788,Main,2022.1.1,59.85196214442846,
negative,blue,1,None,k,,,,,,,,,0,218,218,218,,,,,,,,,,,,,,,,,main,k,k,1,0.6804082999005914,723.4410025000107,None,None,0,,,,,,,,,,,,,,207,2023-04-26_13h27.06.788,Main,2022.1.1,59.85196214442846,
positive,red,2,None,None,,,,,,,,,0,219,219,219,,,,,,,,,,,,,,,,,main,None,None,1,1.4985044000204653,725.1221021000529,None,None,1,,,,,,,,,,,,,,207,2023-04-26_13h27.06.788,Main,2022.1.1,59.85196214442846,
positive,yellow,1,None,k,,,,,,,,,0,220,220,220,,,,,,,,,,,,,,,,,main,k,k,1,0.7687300000106916,727.6216427000472,None,None,0,,,,,,,,,,,,,,207,2023-04-26_13h27.06.788,Main,2022.1.1,59.85196214442846,
positive,blue,1,k,None,,,,,,,,,0,221,221,221,,,,,,,,,,,,,,,,,main,None,None,1,1.4987293999874964,729.3908868000144,None,None,1,,,,,,,,,,,,,,207,2023-04-26_13h27.06.788,Main,2022.1.1,59.85196214442846,
positive,yellow,2,None,k,,,,,,,,,0,222,222,222,,,,,,,,,,,,,,,,,main,k,k,1,0.668442799942568,731.890722900047,None,None,0,,,,,,,,,,,,,,207,2023-04-26_13h27.06.788,Main,2022.1.1,59.85196214442846,
negative,yellow,1,k,None,,,,,,,,,0,223,223,223,,,,,,,,,,,,,,,,,main,None,None,1,1.4944888999452814,733.561887399992,None,None,1,,,,,,,,,,,,,,207,2023-04-26_13h27.06.788,Main,2022.1.1,59.85196214442846,
positive,yellow,2,None,k,,,,,,,,,0,224,224,224,,,,,,,,,,,,,,,,,main,k,k,1,0.6184123000130057,736.054810200003,None,None,0,,,,,,,,,,,,,,207,2023-04-26_13h27.06.788,Main,2022.1.1,59.85196214442846,
negative,yellow,2,k,None,,,,,,,,,0,225,225,225,,,,,,,,,,,,,,,,,main,None,None,1,1.4987749999854714,737.6740445999894,None,None,1,,,,,,,,,,,,,,207,2023-04-26_13h27.06.788,Main,2022.1.1,59.85196214442846,
negative,blue,2,None,k,,,,,,,,,0,226,226,226,,,,,,,,,,,,,,,,,main,k,k,1,0.7495420000050217,740.1738275000826,None,None,0,,,,,,,,,,,,,,207,2023-04-26_13h27.06.788,Main,2022.1.1,59.85196214442846,
positive,red,2,None,None,,,,,,,,,0,227,227,227,,,,,,,,,,,,,,,,,main,None,None,1,1.4966892000520602,741.9239047000883,None,None,1,,,,,,,,,,,,,,207,2023-04-26_13h27.06.788,Main,2022.1.1,59.85196214442846,
positive,blue,2,k,None,,,,,,,,,0,228,228,228,,,,,,,,,,,,,,,,,main,None,k,0,0.8163450000574812,744.4213055000873,None,None,1,,,,,,,,,,,,,,207,2023-04-26_13h27.06.788,Main,2022.1.1,59.85196214442846,
negative,blue,1,None,k,,,,,,,,,0,229,229,229,,,,,,,,,,,,,,,,,main,k,k,1,0.7348646000027657,747.2405010000803,None,None,0,,,,,,,,,,,,,,207,2023-04-26_13h27.06.788,Main,2022.1.1,59.85196214442846,
positive,yellow,1,None,k,,,,,,,,,0,230,230,230,,,,,,,,,,,,,,,,,main,k,k,1,0.963346500066109,748.9737610000884,None,None,0,,,,,,,,,,,,,,207,2023-04-26_13h27.06.788,Main,2022.1.1,59.85196214442846,
negative,blue,2,None,k,,,,,,,,,0,231,231,231,,,,,,,,,,,,,,,,,main,k,k,1,0.8322025000816211,750.9403425999917,None,None,0,,,,,,,,,,,,,,207,2023-04-26_13h27.06.788,Main,2022.1.1,59.85196214442846,
negative,red,1,None,None,,,,,,,,,0,232,232,232,,,,,,,,,,,,,,,,,main,None,None,1,1.5015068999491632,752.7710792000871,None,None,1,,,,,,,,,,,,,,207,2023-04-26_13h27.06.788,Main,2022.1.1,59.85196214442846,
positive,blue,2,k,None,,,,,,,,,0,233,233,233,,,,,,,,,,,,,,,,,main,None,None,1,1.499154799967073,755.2736550000263,None,None,1,,,,,,,,,,,,,,207,2023-04-26_13h27.06.788,Main,2022.1.1,59.85196214442846,
negative,yellow,1,k,None,,,,,,,,,0,234,234,234,,,,,,,,,,,,,,,,,main,None,None,1,1.5003855999093503,757.7712675000075,None,None,1,,,,,,,,,,,,,,207,2023-04-26_13h27.06.788,Main,2022.1.1,59.85196214442846,
negative,yellow,2,k,None,,,,,,,,,0,235,235,235,,,,,,,,,,,,,,,,,main,None,None,1,1.497818800038658,760.2711647000397,None,None,1,,,,,,,,,,,,,,207,2023-04-26_13h27.06.788,Main,2022.1.1,59.85196214442846,
positive,red,1,None,None,,,,,,,,,0,236,236,236,,,,,,,,,,,,,,,,,main,None,None,1,1.4970990000292659,762.7733359000413,None,None,1,,,,,,,,,,,,,,207,2023-04-26_13h27.06.788,Main,2022.1.1,59.85196214442846,
negative,red,2,None,None,,,,,,,,,0,237,237,237,,,,,,,,,,,,,,,,,main,None,None,1,1.4989144999999553,765.2711795000359,None,None,1,,,,,,,,,,,,,,207,2023-04-26_13h27.06.788,Main,2022.1.1,59.85196214442846,
negative,blue,1,None,k,,,,,,,,,0,238,238,238,,,,,,,,,,,,,,,,,main,k,k,1,0.7854699000017717,767.7708918000571,None,None,0,,,,,,,,,,,,,,207,2023-04-26_13h27.06.788,Main,2022.1.1,59.85196214442846,
positive,blue,1,k,None,,,,,,,,,0,239,239,239,,,,,,,,,,,,,,,,,main,None,None,1,1.4987990000518039,769.5568150000181,None,None,1,,,,,,,,,,,,,,207,2023-04-26_13h27.06.788,Main,2022.1.1,59.85196214442846,
,,,,,,,,,,,,,,,,,,,,,,,,,,,,,,,,,,,,,,,,,,,,,,,,,,,,,772.0567651999881,None,,,,,,
