distractor,target,set,ans1,ans2,rep_loop4.thisRepN,rep_loop4.thisTrialN,rep_loop4.thisN,rep_loop4.thisIndex,st2_prac_loop.thisRepN,st2_prac_loop.thisTrialN,st2_prac_loop.thisN,st2_prac_loop.thisIndex,st2_main_loop.thisRepN,st2_main_loop.thisTrialN,st2_main_loop.thisN,st2_main_loop.thisIndex,image_4.started,image_4.stopped,sound_2.started,sound_2.stopped,key_resp_3.keys,key_resp_3.rt,image_5.started,image_5.stopped,st_prac_back.started,st_prac_back.stopped,st_prac_text.started,st_prac_text.stopped,st_fix_back.started,st_fix_back.stopped,st_fix_2.started,st_fix_2.stopped,main_prac,st_ans,st_res,st_corr,st_rt,st_back.started,st_back.stopped,st2_resp.keys,st2_resp.corr,st_main_back.started,st_main_back.stopped,st_main_text.started,st_main_text.stopped,mouse_4.x,mouse_4.y,mouse_4.leftButton,mouse_4.midButton,mouse_4.rightButton,mouse_4.started,mouse_4.stopped,text_2.started,text_2.stopped,id*,date,expName,psychopyVersion,frameRate,
negative,yellow,1,k,None,,,,,0,0,0,0,,,,,94.05360690003727,None,97.35383683006512,None,space,14.897067200043239,112.27009260002524,None,119.83418630005326,None,119.83418630005326,None,121.83415140002035,None,121.83415140002035,None,prac,k,k,1,1.2997335999971256,123.84396170009859,None,None,0,,,,,,,,,,,,,,210,2023-04-25_19h10.38.372,Main,2022.1.1,60.330114332947836,
positive,red,2,None,None,,,,,0,1,1,1,,,,,,,,,,,,,,,,,,,,,prac,None,None,1,1.4983359000179917,126.15305279998574,None,None,1,,,,,,,,,,,,,,210,2023-04-25_19h10.38.372,Main,2022.1.1,60.330114332947836,
negative,blue,2,None,k,,,,,0,2,2,2,,,,,,,,,,,,,,,,,,,,,prac,None,None,1,1.500967099913396,128.6504957000725,None,None,1,,,,,,,,,,,,,,210,2023-04-25_19h10.38.372,Main,2022.1.1,60.330114332947836,
positive,yellow,1,None,k,,,,,0,3,3,3,,,,,,,,,,,,,,,,,,,,,prac,None,None,1,1.4991936000296846,131.15317820000928,None,None,1,,,,,,,,,,,,,,210,2023-04-25_19h10.38.372,Main,2022.1.1,60.330114332947836,
negative,blue,2,None,k,,,,,0,4,4,4,,,,,,,,,,,,,,,,,,,,,prac,None,None,1,1.4961908999830484,133.65302000008523,None,None,1,,,,,,,,,,,,,,210,2023-04-25_19h10.38.372,Main,2022.1.1,60.330114332947836,
negative,blue,1,None,k,,,,,0,5,5,5,,,,,,,,,,,,,,,,,,,,,prac,None,None,1,1.5018920000875369,136.1503663000185,None,None,1,,,,,,,,,,,,,,210,2023-04-25_19h10.38.372,Main,2022.1.1,60.330114332947836,
negative,yellow,2,k,None,,,,,0,6,6,6,,,,,,,,,,,,,,,,,,,,,prac,k,k,1,0.7160422999877483,138.65310760005377,None,None,0,,,,,,,,,,,,,,210,2023-04-25_19h10.38.372,Main,2022.1.1,60.330114332947836,
negative,red,1,None,None,,,,,0,7,7,7,,,,,,,,,,,,,,,,,,,,,prac,None,None,1,1.4961262000724673,140.36966229998507,None,None,1,,,,,,,,,,,,,,210,2023-04-25_19h10.38.372,Main,2022.1.1,60.330114332947836,
positive,yellow,2,None,k,,,,,0,8,8,8,,,,,,,,,,,,,,,,,,,,,prac,None,None,1,1.5017604000167921,142.86688099999446,None,None,1,,,,,,,,,,,,,,210,2023-04-25_19h10.38.372,Main,2022.1.1,60.330114332947836,
negative,yellow,1,k,None,,,,,0,9,9,9,,,,,,,,,,,,,,,,,,,,,prac,k,k,1,0.6858067000284791,145.3694757000776,None,None,0,,,,,,,,,,,,,,210,2023-04-25_19h10.38.372,Main,2022.1.1,60.330114332947836,
positive,yellow,2,None,k,,,,,0,10,10,10,,,,,,,,,,,,,,,,,,,,,prac,None,None,1,1.4933296999661252,147.05948420008644,None,None,1,,,,,,,,,,,,,,210,2023-04-25_19h10.38.372,Main,2022.1.1,60.330114332947836,
negative,yellow,2,k,None,,,,,0,11,11,11,,,,,,,,,,,,,,,,,,,,,prac,k,k,1,0.8044866999844089,149.55015580006875,None,None,0,,,,,,,,,,,,,,210,2023-04-25_19h10.38.372,Main,2022.1.1,60.330114332947836,
negative,red,2,None,None,,,,,0,12,12,12,,,,,,,,,,,,,,,,,,,,,prac,None,None,1,1.4959185000043362,151.34878240001854,None,None,1,,,,,,,,,,,,,,210,2023-04-25_19h10.38.372,Main,2022.1.1,60.330114332947836,
positive,red,1,None,None,,,,,0,13,13,13,,,,,,,,,,,,,,,,,,,,,prac,None,None,1,1.4967163999099284,153.85266420000698,None,None,1,,,,,,,,,,,,,,210,2023-04-25_19h10.38.372,Main,2022.1.1,60.330114332947836,
positive,blue,2,k,None,,,,,0,14,14,14,,,,,,,,,,,,,,,,,,,,,prac,k,k,1,0.9519070000387728,156.3499535000883,None,None,0,,,,,,,,,,,,,,210,2023-04-25_19h10.38.372,Main,2022.1.1,60.330114332947836,
positive,blue,1,k,None,,,,,0,15,15,15,,,,,,,,,,,,,,,,,,,,,prac,k,k,1,0.5821124999783933,158.30253320001066,None,None,0,,,,,,,,,,,,,,210,2023-04-25_19h10.38.372,Main,2022.1.1,60.330114332947836,
negative,blue,1,None,k,,,,,0,16,16,16,,,,,,,,,,,,,,,,,,,,,prac,None,None,1,1.4988664999837056,159.88583949999884,None,None,1,,,,,,,,,,,,,,210,2023-04-25_19h10.38.372,Main,2022.1.1,60.330114332947836,
positive,blue,2,k,None,,,,,0,17,17,17,,,,,,,,,,,,,,,,,,,,,prac,k,k,1,1.0967567999614403,162.38345950003713,None,None,0,,,,,,,,,,,,,,210,2023-04-25_19h10.38.372,Main,2022.1.1,60.330114332947836,
positive,blue,1,k,None,,,,,0,18,18,18,,,,,,,,,,,,,,,,,,,,,prac,k,k,1,0.732568999985233,164.48312520002946,None,None,0,,,,,,,,,,,,,,210,2023-04-25_19h10.38.372,Main,2022.1.1,60.330114332947836,
positive,yellow,1,None,k,,,,,0,19,19,19,,,,,,,,,,,,,,,,,,,,,prac,None,None,1,1.5013672999339178,166.21646380005404,None,None,1,,,,,,,,,,,,,,210,2023-04-25_19h10.38.372,Main,2022.1.1,60.330114332947836,
negative,yellow,1,k,None,,,,,1,0,20,0,,,,,,,,,,,,,,,,,,,,,prac,k,k,1,0.7634398000082001,168.7190970000811,None,None,0,,,,,,,,,,,,,,210,2023-04-25_19h10.38.372,Main,2022.1.1,60.330114332947836,
positive,red,2,None,None,,,,,1,1,21,1,,,,,,,,,,,,,,,,,,,,,prac,None,None,1,1.4985558999469504,170.48547300009523,None,None,1,,,,,,,,,,,,,,210,2023-04-25_19h10.38.372,Main,2022.1.1,60.330114332947836,
negative,blue,2,None,k,,,,,1,2,22,2,,,,,,,,,,,,,,,,,,,,,prac,None,None,1,1.5018577999435365,172.9829388000071,None,None,1,,,,,,,,,,,,,,210,2023-04-25_19h10.38.372,Main,2022.1.1,60.330114332947836,
positive,yellow,1,None,k,,,,,1,3,23,3,,,,,,,,,,,,,,,,,,,,,prac,None,None,1,1.4990450999466702,175.48561050009448,None,None,1,,,,,,,,,,,,,,210,2023-04-25_19h10.38.372,Main,2022.1.1,60.330114332947836,
negative,blue,2,None,k,,,,,1,4,24,4,,,,,,,,,,,,,,,,,,,,,prac,None,None,1,1.4988544000079855,177.98554870008957,None,None,1,,,,,,,,,,,,,,210,2023-04-25_19h10.38.372,Main,2022.1.1,60.330114332947836,
negative,blue,1,None,k,,,,,1,5,25,5,,,,,,,,,,,,,,,,,,,,,prac,None,None,1,1.498998999944888,180.4853949000826,None,None,1,,,,,,,,,,,,,,210,2023-04-25_19h10.38.372,Main,2022.1.1,60.330114332947836,
negative,yellow,2,k,None,,,,,1,6,26,6,,,,,,,,,,,,,,,,,,,,,prac,k,k,1,0.882844700012356,182.98301349999383,None,None,0,,,,,,,,,,,,,,210,2023-04-25_19h10.38.372,Main,2022.1.1,60.330114332947836,
negative,red,1,None,None,,,,,1,7,27,7,,,,,,,,,,,,,,,,,,,,,prac,None,None,1,1.4966791999759153,184.86631539999507,None,None,1,,,,,,,,,,,,,,210,2023-04-25_19h10.38.372,Main,2022.1.1,60.330114332947836,
positive,yellow,2,None,k,,,,,1,8,28,8,,,,,,,,,,,,,,,,,,,,,prac,None,None,1,1.4987264999654144,187.36861170001794,None,None,1,,,,,,,,,,,,,,210,2023-04-25_19h10.38.372,Main,2022.1.1,60.330114332947836,
negative,yellow,1,k,None,,,,,1,9,29,9,,,,,,,,,,,,,,,,,,,,,prac,k,k,1,0.8020777000347152,189.86594680009875,None,None,0,,,,,,,,,,,,,,210,2023-04-25_19h10.38.372,Main,2022.1.1,60.330114332947836,
positive,yellow,2,None,k,,,,,1,10,30,10,,,,,,,,,,,,,,,,,,,,,prac,None,None,1,1.4990026999730617,191.6685610000277,None,None,1,,,,,,,,,,,,,,210,2023-04-25_19h10.38.372,Main,2022.1.1,60.330114332947836,
negative,yellow,2,k,None,,,,,1,11,31,11,,,,,,,,,,,,,,,,,,,,,prac,k,k,1,0.699254099978134,194.1685429000063,None,None,0,,,,,,,,,,,,,,210,2023-04-25_19h10.38.372,Main,2022.1.1,60.330114332947836,
negative,red,2,None,None,,,,,1,12,32,12,,,,,,,,,,,,,,,,,,,,,prac,None,None,1,1.4988330999622121,195.86611850000918,None,None,1,,,,,,,,,,,,,,210,2023-04-25_19h10.38.372,Main,2022.1.1,60.330114332947836,
positive,red,1,None,None,,,,,1,13,33,13,,,,,,,,,,,,,,,,,,,,,prac,None,None,1,1.4993872999912128,198.36599960003514,None,None,1,,,,,,,,,,,,,,210,2023-04-25_19h10.38.372,Main,2022.1.1,60.330114332947836,
positive,blue,2,k,None,,,,,1,14,34,14,,,,,,,,,,,,,,,,,,,,,prac,k,k,1,0.6493550000013784,200.86599150008988,None,None,0,,,,,,,,,,,,,,210,2023-04-25_19h10.38.372,Main,2022.1.1,60.330114332947836,
positive,blue,1,k,None,,,,,1,15,35,15,,,,,,,,,,,,,,,,,,,,,prac,k,k,1,0.6356795999454334,202.51824350003153,None,None,0,,,,,,,,,,,,,,210,2023-04-25_19h10.38.372,Main,2022.1.1,60.330114332947836,
negative,blue,1,None,k,,,,,1,16,36,16,,,,,,,,,,,,,,,,,,,,,prac,None,None,1,1.4930126999970526,204.15822219999973,None,None,1,,,,,,,,,,,,,,210,2023-04-25_19h10.38.372,Main,2022.1.1,60.330114332947836,
positive,blue,2,k,None,,,,,1,17,37,17,,,,,,,,,,,,,,,,,,,,,prac,k,k,1,0.8020831000758335,206.649085400044,None,None,0,,,,,,,,,,,,,,210,2023-04-25_19h10.38.372,Main,2022.1.1,60.330114332947836,
positive,blue,1,k,None,,,,,1,18,38,18,,,,,,,,,,,,,,,,,,,,,prac,k,k,1,0.6488786999834701,208.45160610007588,None,None,0,,,,,,,,,,,,,,210,2023-04-25_19h10.38.372,Main,2022.1.1,60.330114332947836,
positive,yellow,1,None,k,,,,,1,19,39,19,,,,,,,,,,,,,,,,,,,,,prac,None,None,1,1.4989035000326112,210.10141160001513,None,None,1,,,,,,,,,,,,,,210,2023-04-25_19h10.38.372,Main,2022.1.1,60.330114332947836,
,,,,,,,,,,,,,,,,,,,,,,,,,,,,,,,,,,,,,,,,,,212.6012766000349,None,212.6012766000349,None,0.1537037,0.097222224,0,0,0,0.014177930075675249,None,,,210,2023-04-25_19h10.38.372,Main,2022.1.1,60.330114332947836,
negative,yellow,2,k,None,,,,,,,,,0,0,0,0,,,,,,,,,,,,,213.76567740004975,None,213.76567740004975,None,main,k,k,1,0.7805075999349356,215.79581590008456,None,None,0,,,,,,,,,,,,,,210,2023-04-25_19h10.38.372,Main,2022.1.1,60.330114332947836,
positive,red,1,None,None,,,,,,,,,0,1,1,1,,,,,,,,,,,,,,,,,main,None,None,1,1.4957226000260562,217.58237190009095,None,None,1,,,,,,,,,,,,,,210,2023-04-25_19h10.38.372,Main,2022.1.1,60.330114332947836,
positive,blue,2,k,None,,,,,,,,,0,2,2,2,,,,,,,,,,,,,,,,,main,k,k,1,0.7688355999998748,220.08199279999826,None,None,0,,,,,,,,,,,,,,210,2023-04-25_19h10.38.372,Main,2022.1.1,60.330114332947836,
positive,blue,1,k,None,,,,,,,,,0,3,3,3,,,,,,,,,,,,,,,,,main,k,k,1,0.6157789999851957,221.85128629999235,None,None,0,,,,,,,,,,,,,,210,2023-04-25_19h10.38.372,Main,2022.1.1,60.330114332947836,
negative,yellow,2,k,None,,,,,,,,,0,4,4,4,,,,,,,,,,,,,,,,,main,k,k,1,0.6992081999778748,223.46804569999222,None,None,0,,,,,,,,,,,,,,210,2023-04-25_19h10.38.372,Main,2022.1.1,60.330114332947836,
positive,yellow,2,None,k,,,,,,,,,0,5,5,5,,,,,,,,,,,,,,,,,main,None,None,1,1.4988403000170365,225.16773960005958,None,None,1,,,,,,,,,,,,,,210,2023-04-25_19h10.38.372,Main,2022.1.1,60.330114332947836,
negative,blue,2,None,k,,,,,,,,,0,6,6,6,,,,,,,,,,,,,,,,,main,None,None,1,1.4989530999446288,227.6654860000126,None,None,1,,,,,,,,,,,,,,210,2023-04-25_19h10.38.372,Main,2022.1.1,60.330114332947836,
positive,red,2,None,None,,,,,,,,,0,7,7,7,,,,,,,,,,,,,,,,,main,None,None,1,1.4991973000578582,230.16525250009727,None,None,1,,,,,,,,,,,,,,210,2023-04-25_19h10.38.372,Main,2022.1.1,60.330114332947836,
positive,yellow,1,None,k,,,,,,,,,0,8,8,8,,,,,,,,,,,,,,,,,main,None,None,1,1.4964184999698773,232.667624099995,None,None,1,,,,,,,,,,,,,,210,2023-04-25_19h10.38.372,Main,2022.1.1,60.330114332947836,
negative,red,1,None,None,,,,,,,,,0,9,9,9,,,,,,,,,,,,,,,,,main,None,None,1,1.5017019000370055,235.16501890006475,None,None,1,,,,,,,,,,,,,,210,2023-04-25_19h10.38.372,Main,2022.1.1,60.330114332947836,
positive,yellow,1,None,k,,,,,,,,,0,10,10,10,,,,,,,,,,,,,,,,,main,None,None,1,1.496763400034979,237.66766170004848,None,None,1,,,,,,,,,,,,,,210,2023-04-25_19h10.38.372,Main,2022.1.1,60.330114332947836,
negative,yellow,1,k,None,,,,,,,,,0,11,11,11,,,,,,,,,,,,,,,,,main,k,k,1,0.6517540999921039,240.1708109000465,None,None,0,,,,,,,,,,,,,,210,2023-04-25_19h10.38.372,Main,2022.1.1,60.330114332947836,
negative,yellow,1,k,None,,,,,,,,,0,12,12,12,,,,,,,,,,,,,,,,,main,k,k,1,0.5966114000184461,241.8174753000494,None,None,0,,,,,,,,,,,,,,210,2023-04-25_19h10.38.372,Main,2022.1.1,60.330114332947836,
negative,red,2,None,None,,,,,,,,,0,13,13,13,,,,,,,,,,,,,,,,,main,None,None,1,1.5011639000149444,243.41509080003016,None,None,1,,,,,,,,,,,,,,210,2023-04-25_19h10.38.372,Main,2022.1.1,60.330114332947836,
positive,yellow,2,None,k,,,,,,,,,0,14,14,14,,,,,,,,,,,,,,,,,main,None,None,1,1.499184700078331,245.91733249998651,None,None,1,,,,,,,,,,,,,,210,2023-04-25_19h10.38.372,Main,2022.1.1,60.330114332947836,
positive,blue,1,k,None,,,,,,,,,0,15,15,15,,,,,,,,,,,,,,,,,main,k,k,1,0.5637978999875486,248.4173561000498,None,None,0,,,,,,,,,,,,,,210,2023-04-25_19h10.38.372,Main,2022.1.1,60.330114332947836,
negative,blue,1,None,k,,,,,,,,,0,16,16,16,,,,,,,,,,,,,,,,,main,None,None,1,1.5011294999858364,249.98163350007962,None,None,1,,,,,,,,,,,,,,210,2023-04-25_19h10.38.372,Main,2022.1.1,60.330114332947836,
positive,blue,2,k,None,,,,,,,,,0,17,17,17,,,,,,,,,,,,,,,,,main,k,k,1,0.5826951999915764,252.48161580006126,None,None,0,,,,,,,,,,,,,,210,2023-04-25_19h10.38.372,Main,2022.1.1,60.330114332947836,
negative,blue,2,None,k,,,,,,,,,0,18,18,18,,,,,,,,,,,,,,,,,main,None,None,1,1.49875659996178,254.06495800008997,None,None,1,,,,,,,,,,,,,,210,2023-04-25_19h10.38.372,Main,2022.1.1,60.330114332947836,
negative,blue,1,None,k,,,,,,,,,0,19,19,19,,,,,,,,,,,,,,,,,main,None,None,1,1.4989503999240696,256.56481860007625,None,None,1,,,,,,,,,,,,,,210,2023-04-25_19h10.38.372,Main,2022.1.1,60.330114332947836,
negative,blue,1,None,k,,,,,,,,,0,20,20,20,,,,,,,,,,,,,,,,,main,None,None,1,1.499121299944818,259.0648104000138,None,None,1,,,,,,,,,,,,,,210,2023-04-25_19h10.38.372,Main,2022.1.1,60.330114332947836,
negative,blue,2,None,k,,,,,,,,,0,21,21,21,,,,,,,,,,,,,,,,,main,None,None,1,1.4964127000421286,261.5648252000101,None,None,1,,,,,,,,,,,,,,210,2023-04-25_19h10.38.372,Main,2022.1.1,60.330114332947836,
negative,red,1,None,None,,,,,,,,,0,22,22,22,,,,,,,,,,,,,,,,,main,None,None,1,1.5019258999964222,264.0644604000263,None,None,1,,,,,,,,,,,,,,210,2023-04-25_19h10.38.372,Main,2022.1.1,60.330114332947836,
positive,red,2,None,None,,,,,,,,,0,23,23,23,,,,,,,,,,,,,,,,,main,None,None,1,1.4989743999904022,266.5670657000737,None,None,1,,,,,,,,,,,,,,210,2023-04-25_19h10.38.372,Main,2022.1.1,60.330114332947836,
negative,red,2,None,None,,,,,,,,,0,24,24,24,,,,,,,,,,,,,,,,,main,None,None,1,1.4988600999349728,269.06715780007653,None,None,1,,,,,,,,,,,,,,210,2023-04-25_19h10.38.372,Main,2022.1.1,60.330114332947836,
positive,blue,2,k,None,,,,,,,,,0,25,25,25,,,,,,,,,,,,,,,,,main,k,k,1,0.6135178999975324,271.5646027000621,None,None,0,,,,,,,,,,,,,,210,2023-04-25_19h10.38.372,Main,2022.1.1,60.330114332947836,
negative,yellow,1,k,None,,,,,,,,,0,26,26,26,,,,,,,,,,,,,,,,,main,k,k,1,0.5002238999586552,273.1809046000708,None,None,0,,,,,,,,,,,,,,210,2023-04-25_19h10.38.372,Main,2022.1.1,60.330114332947836,
positive,blue,2,k,None,,,,,,,,,0,27,27,27,,,,,,,,,,,,,,,,,main,k,k,1,0.5174265999812633,274.68097270000726,None,None,0,,,,,,,,,,,,,,210,2023-04-25_19h10.38.372,Main,2022.1.1,60.330114332947836,
negative,blue,2,None,k,,,,,,,,,0,28,28,28,,,,,,,,,,,,,,,,,main,None,None,1,1.4988825999898836,276.2001859000884,None,None,1,,,,,,,,,,,,,,210,2023-04-25_19h10.38.372,Main,2022.1.1,60.330114332947836,
positive,red,1,None,None,,,,,,,,,0,29,29,29,,,,,,,,,,,,,,,,,main,None,None,1,1.4989381999475881,278.700161500019,None,None,1,,,,,,,,,,,,,,210,2023-04-25_19h10.38.372,Main,2022.1.1,60.330114332947836,
positive,blue,1,k,None,,,,,,,,,0,30,30,30,,,,,,,,,,,,,,,,,main,k,k,1,0.713474899996072,281.1977445000084,None,None,0,,,,,,,,,,,,,,210,2023-04-25_19h10.38.372,Main,2022.1.1,60.330114332947836,
positive,yellow,1,None,k,,,,,,,,,0,31,31,31,,,,,,,,,,,,,,,,,main,None,None,1,1.5016936999745667,282.91404629999306,None,None,1,,,,,,,,,,,,,,210,2023-04-25_19h10.38.372,Main,2022.1.1,60.330114332947836,
negative,yellow,2,k,None,,,,,,,,,0,32,32,32,,,,,,,,,,,,,,,,,main,k,k,1,0.6323687999974936,285.41670530010015,None,None,0,,,,,,,,,,,,,,210,2023-04-25_19h10.38.372,Main,2022.1.1,60.330114332947836,
negative,blue,1,None,k,,,,,,,,,0,33,33,33,,,,,,,,,,,,,,,,,main,None,None,1,1.4986983999842778,287.0499547000509,None,None,1,,,,,,,,,,,,,,210,2023-04-25_19h10.38.372,Main,2022.1.1,60.330114332947836,
positive,blue,1,k,None,,,,,,,,,0,34,34,34,,,,,,,,,,,,,,,,,main,k,k,1,0.5803811000660062,289.5498623000458,None,None,0,,,,,,,,,,,,,,210,2023-04-25_19h10.38.372,Main,2022.1.1,60.330114332947836,
negative,yellow,1,k,None,,,,,,,,,0,35,35,35,,,,,,,,,,,,,,,,,main,k,k,1,0.7326416000723839,291.13056770002004,None,None,0,,,,,,,,,,,,,,210,2023-04-25_19h10.38.372,Main,2022.1.1,60.330114332947836,
positive,yellow,2,None,k,,,,,,,,,0,36,36,36,,,,,,,,,,,,,,,,,main,None,None,1,1.5014611000660807,292.8639094000682,None,None,1,,,,,,,,,,,,,,210,2023-04-25_19h10.38.372,Main,2022.1.1,60.330114332947836,
positive,yellow,2,None,k,,,,,,,,,0,37,37,37,,,,,,,,,,,,,,,,,main,None,None,1,1.4989630000200123,295.3665117000928,None,None,1,,,,,,,,,,,,,,210,2023-04-25_19h10.38.372,Main,2022.1.1,60.330114332947836,
negative,yellow,2,k,None,,,,,,,,,0,38,38,38,,,,,,,,,,,,,,,,,main,k,k,1,0.9969035999383777,297.8663808000274,None,None,0,,,,,,,,,,,,,,210,2023-04-25_19h10.38.372,Main,2022.1.1,60.330114332947836,
positive,yellow,1,None,k,,,,,,,,,0,39,39,39,,,,,,,,,,,,,,,,,main,None,None,1,1.5012059999862686,299.86395900009666,None,None,1,,,,,,,,,,,,,,210,2023-04-25_19h10.38.372,Main,2022.1.1,60.330114332947836,
negative,yellow,2,k,None,,,,,,,,,0,40,40,40,,,,,,,,,,,,,,,,,main,k,k,1,0.6804443999426439,302.36396470002364,None,None,0,,,,,,,,,,,,,,210,2023-04-25_19h10.38.372,Main,2022.1.1,60.330114332947836,
positive,blue,2,k,None,,,,,,,,,0,41,41,41,,,,,,,,,,,,,,,,,main,k,k,1,0.7665168999228626,304.0475263000699,None,None,0,,,,,,,,,,,,,,210,2023-04-25_19h10.38.372,Main,2022.1.1,60.330114332947836,
positive,blue,2,k,None,,,,,,,,,0,42,42,42,,,,,,,,,,,,,,,,,main,k,k,1,0.5148598999949172,305.8136216000421,None,None,0,,,,,,,,,,,,,,210,2023-04-25_19h10.38.372,Main,2022.1.1,60.330114332947836,
negative,blue,2,None,k,,,,,,,,,0,43,43,43,,,,,,,,,,,,,,,,,main,None,None,1,1.5015662999358028,307.33029120007996,None,None,1,,,,,,,,,,,,,,210,2023-04-25_19h10.38.372,Main,2022.1.1,60.330114332947836,
negative,red,1,None,None,,,,,,,,,0,44,44,44,,,,,,,,,,,,,,,,,main,None,None,1,1.4990713000297546,309.8328825000208,None,None,1,,,,,,,,,,,,,,210,2023-04-25_19h10.38.372,Main,2022.1.1,60.330114332947836,
negative,yellow,1,k,None,,,,,,,,,0,45,45,45,,,,,,,,,,,,,,,,,main,k,k,1,0.7637196000432596,312.33263499999885,None,None,0,,,,,,,,,,,,,,210,2023-04-25_19h10.38.372,Main,2022.1.1,60.330114332947836,
negative,yellow,1,k,None,,,,,,,,,0,46,46,46,,,,,,,,,,,,,,,,,main,k,k,1,0.5820961000863463,314.09932360006496,None,None,0,,,,,,,,,,,,,,210,2023-04-25_19h10.38.372,Main,2022.1.1,60.330114332947836,
positive,red,1,None,None,,,,,,,,,0,47,47,47,,,,,,,,,,,,,,,,,main,None,None,1,1.5016631999751553,315.680083299987,None,None,1,,,,,,,,,,,,,,210,2023-04-25_19h10.38.372,Main,2022.1.1,60.330114332947836,
positive,yellow,1,None,k,,,,,,,,,0,48,48,48,,,,,,,,,,,,,,,,,main,None,None,1,1.4966243000235409,318.1826324000722,None,None,1,,,,,,,,,,,,,,210,2023-04-25_19h10.38.372,Main,2022.1.1,60.330114332947836,
negative,blue,1,None,k,,,,,,,,,0,49,49,49,,,,,,,,,,,,,,,,,main,None,None,1,1.498978800023906,320.6825586000923,None,None,1,,,,,,,,,,,,,,210,2023-04-25_19h10.38.372,Main,2022.1.1,60.330114332947836,
positive,yellow,2,None,k,,,,,,,,,0,50,50,50,,,,,,,,,,,,,,,,,main,None,None,1,1.5016711000353098,323.18016630003694,None,None,1,,,,,,,,,,,,,,210,2023-04-25_19h10.38.372,Main,2022.1.1,60.330114332947836,
negative,blue,1,None,k,,,,,,,,,0,51,51,51,,,,,,,,,,,,,,,,,main,None,None,1,1.4965464000124484,325.6823420000728,None,None,1,,,,,,,,,,,,,,210,2023-04-25_19h10.38.372,Main,2022.1.1,60.330114332947836,
positive,red,2,None,None,,,,,,,,,0,52,52,52,,,,,,,,,,,,,,,,,main,None,None,1,1.4987542999442667,328.18234450009186,None,None,1,,,,,,,,,,,,,,210,2023-04-25_19h10.38.372,Main,2022.1.1,60.330114332947836,
positive,yellow,2,None,k,,,,,,,,,0,53,53,53,,,,,,,,,,,,,,,,,main,None,None,1,1.5017532999627292,330.67984180001076,None,None,1,,,,,,,,,,,,,,210,2023-04-25_19h10.38.372,Main,2022.1.1,60.330114332947836,
negative,red,2,None,None,,,,,,,,,0,54,54,54,,,,,,,,,,,,,,,,,main,None,None,1,1.5020994000369683,333.18233930005226,None,None,1,,,,,,,,,,,,,,210,2023-04-25_19h10.38.372,Main,2022.1.1,60.330114332947836,
positive,yellow,1,None,k,,,,,,,,,0,55,55,55,,,,,,,,,,,,,,,,,main,None,None,1,1.4957528000231832,335.68354970007204,None,None,1,,,,,,,,,,,,,,210,2023-04-25_19h10.38.372,Main,2022.1.1,60.330114332947836,
negative,blue,2,None,k,,,,,,,,,0,56,56,56,,,,,,,,,,,,,,,,,main,None,None,1,1.4992251000367105,338.17985419998877,None,None,1,,,,,,,,,,,,,,210,2023-04-25_19h10.38.372,Main,2022.1.1,60.330114332947836,
positive,blue,1,k,None,,,,,,,,,0,57,57,57,,,,,,,,,,,,,,,,,main,k,k,1,1.2160931999096647,340.6798798000673,None,None,0,,,,,,,,,,,,,,210,2023-04-25_19h10.38.372,Main,2022.1.1,60.330114332947836,
positive,blue,1,k,None,,,,,,,,,0,58,58,58,,,,,,,,,,,,,,,,,main,k,k,1,0.6032679000636563,342.89874400000554,None,None,0,,,,,,,,,,,,,,210,2023-04-25_19h10.38.372,Main,2022.1.1,60.330114332947836,
negative,yellow,2,k,None,,,,,,,,,0,59,59,59,,,,,,,,,,,,,,,,,main,k,k,1,0.775854800012894,344.5064079000149,None,None,0,,,,,,,,,,,,,,210,2023-04-25_19h10.38.372,Main,2022.1.1,60.330114332947836,
positive,red,2,None,None,,,,,,,,,0,60,60,60,,,,,,,,,,,,,,,,,main,None,None,1,1.501274700043723,346.28196510009,None,None,1,,,,,,,,,,,,,,210,2023-04-25_19h10.38.372,Main,2022.1.1,60.330114332947836,
negative,yellow,1,k,None,,,,,,,,,0,61,61,61,,,,,,,,,,,,,,,,,main,k,k,1,0.7993191999848932,348.78188450005837,None,None,0,,,,,,,,,,,,,,210,2023-04-25_19h10.38.372,Main,2022.1.1,60.330114332947836,
negative,red,1,None,None,,,,,,,,,0,62,62,62,,,,,,,,,,,,,,,,,main,None,None,1,1.4962930000619963,350.5819503000239,None,None,1,,,,,,,,,,,,,,210,2023-04-25_19h10.38.372,Main,2022.1.1,60.330114332947836,
negative,blue,1,None,k,,,,,,,,,0,63,63,63,,,,,,,,,,,,,,,,,main,None,None,1,1.5017117999959737,353.0793113000691,None,None,1,,,,,,,,,,,,,,210,2023-04-25_19h10.38.372,Main,2022.1.1,60.330114332947836,
positive,blue,2,k,None,,,,,,,,,0,64,64,64,,,,,,,,,,,,,,,,,main,k,k,1,0.663907099980861,355.58194420009386,None,None,0,,,,,,,,,,,,,,210,2023-04-25_19h10.38.372,Main,2022.1.1,60.330114332947836,
negative,yellow,2,k,None,,,,,,,,,0,65,65,65,,,,,,,,,,,,,,,,,main,k,k,1,0.6988072999520227,357.2485988000408,None,None,0,,,,,,,,,,,,,,210,2023-04-25_19h10.38.372,Main,2022.1.1,60.330114332947836,
positive,yellow,2,None,k,,,,,,,,,0,66,66,66,,,,,,,,,,,,,,,,,main,None,None,1,1.501667800010182,358.945873000077,None,None,1,,,,,,,,,,,,,,210,2023-04-25_19h10.38.372,Main,2022.1.1,60.330114332947836,
positive,yellow,2,None,k,,,,,,,,,0,67,67,67,,,,,,,,,,,,,,,,,main,None,None,1,1.499227900058031,361.44854260003194,None,None,1,,,,,,,,,,,,,,210,2023-04-25_19h10.38.372,Main,2022.1.1,60.330114332947836,
positive,red,1,None,None,,,,,,,,,0,68,68,68,,,,,,,,,,,,,,,,,main,None,None,1,1.4962358999764547,363.9461997000035,None,None,1,,,,,,,,,,,,,,210,2023-04-25_19h10.38.372,Main,2022.1.1,60.330114332947836,
positive,yellow,1,None,k,,,,,,,,,0,69,69,69,,,,,,,,,,,,,,,,,main,None,None,1,1.5032443000236526,366.44571860006545,None,None,1,,,,,,,,,,,,,,210,2023-04-25_19h10.38.372,Main,2022.1.1,60.330114332947836,
negative,yellow,2,k,None,,,,,,,,,0,70,70,70,,,,,,,,,,,,,,,,,main,k,k,1,0.6005248998990282,368.94830170006026,None,None,0,,,,,,,,,,,,,,210,2023-04-25_19h10.38.372,Main,2022.1.1,60.330114332947836,
positive,yellow,1,None,k,,,,,,,,,0,71,71,71,,,,,,,,,,,,,,,,,main,None,None,1,1.49344230000861,370.5495135000674,None,None,1,,,,,,,,,,,,,,210,2023-04-25_19h10.38.372,Main,2022.1.1,60.330114332947836,
negative,blue,1,None,k,,,,,,,,,0,72,72,72,,,,,,,,,,,,,,,,,main,None,None,1,1.501735300058499,373.04563200008124,None,None,1,,,,,,,,,,,,,,210,2023-04-25_19h10.38.372,Main,2022.1.1,60.330114332947836,
negative,red,2,None,None,,,,,,,,,0,73,73,73,,,,,,,,,,,,,,,,,main,None,None,1,1.4989948000293225,375.54825570003595,None,None,1,,,,,,,,,,,,,,210,2023-04-25_19h10.38.372,Main,2022.1.1,60.330114332947836,
positive,blue,2,k,None,,,,,,,,,0,74,74,74,,,,,,,,,,,,,,,,,main,k,k,1,0.5976641000015661,378.0457749000052,None,None,0,,,,,,,,,,,,,,210,2023-04-25_19h10.38.372,Main,2022.1.1,60.330114332947836,
negative,blue,2,None,k,,,,,,,,,0,75,75,75,,,,,,,,,,,,,,,,,main,None,None,1,1.5006540999747813,379.6454627000494,None,None,1,,,,,,,,,,,,,,210,2023-04-25_19h10.38.372,Main,2022.1.1,60.330114332947836,
negative,blue,2,None,k,,,,,,,,,0,76,76,76,,,,,,,,,,,,,,,,,main,None,None,1,1.498911099974066,382.1480931000551,None,None,1,,,,,,,,,,,,,,210,2023-04-25_19h10.38.372,Main,2022.1.1,60.330114332947836,
negative,yellow,1,k,None,,,,,,,,,0,77,77,77,,,,,,,,,,,,,,,,,main,k,k,1,0.6632609000662342,384.6480067000957,None,None,0,,,,,,,,,,,,,,210,2023-04-25_19h10.38.372,Main,2022.1.1,60.330114332947836,
positive,blue,1,k,None,,,,,,,,,0,78,78,78,,,,,,,,,,,,,,,,,main,k,k,1,0.7026229000184685,386.31197730009444,None,None,0,,,,,,,,,,,,,,210,2023-04-25_19h10.38.372,Main,2022.1.1,60.330114332947836,
positive,blue,1,k,None,,,,,,,,,0,79,79,79,,,,,,,,,,,,,,,,,main,k,k,1,0.531657800078392,388.01459130004514,None,None,0,,,,,,,,,,,,,,210,2023-04-25_19h10.38.372,Main,2022.1.1,60.330114332947836,
positive,red,2,None,None,,,,,,,,,0,80,80,80,,,,,,,,,,,,,,,,,main,None,None,1,1.4987919999985024,389.54790850006975,None,None,1,,,,,,,,,,,,,,210,2023-04-25_19h10.38.372,Main,2022.1.1,60.330114332947836,
positive,yellow,2,None,k,,,,,,,,,0,81,81,81,,,,,,,,,,,,,,,,,main,None,None,1,1.4990682000061497,392.0455718000885,None,None,1,,,,,,,,,,,,,,210,2023-04-25_19h10.38.372,Main,2022.1.1,60.330114332947836,
positive,blue,1,k,None,,,,,,,,,0,82,82,82,,,,,,,,,,,,,,,,,main,k,k,1,0.4969947999343276,394.5453737000935,None,None,0,,,,,,,,,,,,,,210,2023-04-25_19h10.38.372,Main,2022.1.1,60.330114332947836,
negative,yellow,2,k,None,,,,,,,,,0,83,83,83,,,,,,,,,,,,,,,,,main,k,k,1,0.6325744000496343,396.0453811000334,None,None,0,,,,,,,,,,,,,,210,2023-04-25_19h10.38.372,Main,2022.1.1,60.330114332947836,
positive,blue,2,k,None,,,,,,,,,0,84,84,84,,,,,,,,,,,,,,,,,main,k,k,1,0.6158440000144765,397.68091610004194,None,None,0,,,,,,,,,,,,,,210,2023-04-25_19h10.38.372,Main,2022.1.1,60.330114332947836,
positive,yellow,1,None,k,,,,,,,,,0,85,85,85,,,,,,,,,,,,,,,,,main,None,None,1,1.4984441000269726,399.2976531999884,None,None,1,,,,,,,,,,,,,,210,2023-04-25_19h10.38.372,Main,2022.1.1,60.330114332947836,
positive,blue,2,k,None,,,,,,,,,0,86,86,86,,,,,,,,,,,,,,,,,main,k,k,1,0.8522388000274077,401.79497819999233,None,None,0,,,,,,,,,,,,,,210,2023-04-25_19h10.38.372,Main,2022.1.1,60.330114332947836,
positive,blue,1,k,None,,,,,,,,,0,87,87,87,,,,,,,,,,,,,,,,,main,k,k,1,1.1329258000478148,403.6476135000121,None,None,0,,,,,,,,,,,,,,210,2023-04-25_19h10.38.372,Main,2022.1.1,60.330114332947836,
negative,yellow,2,k,None,,,,,,,,,0,88,88,88,,,,,,,,,,,,,,,,,main,k,k,1,0.5957295000553131,405.7809853000799,None,None,0,,,,,,,,,,,,,,210,2023-04-25_19h10.38.372,Main,2022.1.1,60.330114332947836,
negative,blue,2,None,k,,,,,,,,,0,89,89,89,,,,,,,,,,,,,,,,,main,None,None,1,1.5014661999884993,407.3782224000897,None,None,1,,,,,,,,,,,,,,210,2023-04-25_19h10.38.372,Main,2022.1.1,60.330114332947836,
positive,yellow,2,None,k,,,,,,,,,0,90,90,90,,,,,,,,,,,,,,,,,main,None,None,1,1.496722999960184,409.88081990007777,None,None,1,,,,,,,,,,,,,,210,2023-04-25_19h10.38.372,Main,2022.1.1,60.330114332947836,
negative,yellow,1,k,None,,,,,,,,,0,91,91,91,,,,,,,,,,,,,,,,,main,k,k,1,0.7493663000641391,412.3783614001004,None,None,0,,,,,,,,,,,,,,210,2023-04-25_19h10.38.372,Main,2022.1.1,60.330114332947836,
negative,red,2,None,None,,,,,,,,,0,92,92,92,,,,,,,,,,,,,,,,,main,None,None,1,1.4986272000242025,414.1307158001,None,None,1,,,,,,,,,,,,,,210,2023-04-25_19h10.38.372,Main,2022.1.1,60.330114332947836,
negative,blue,2,None,k,,,,,,,,,0,93,93,93,,,,,,,,,,,,,,,,,main,None,None,1,1.5017773000290617,416.62807800003793,None,None,1,,,,,,,,,,,,,,210,2023-04-25_19h10.38.372,Main,2022.1.1,60.330114332947836,
negative,blue,1,None,k,,,,,,,,,0,94,94,94,,,,,,,,,,,,,,,,,main,None,None,1,1.4989894999889657,419.1283978000283,None,None,1,,,,,,,,,,,,,,210,2023-04-25_19h10.38.372,Main,2022.1.1,60.330114332947836,
negative,blue,1,None,k,,,,,,,,,0,95,95,95,,,,,,,,,,,,,,,,,main,None,None,1,1.4990336999762803,421.6283010999905,None,None,1,,,,,,,,,,,,,,210,2023-04-25_19h10.38.372,Main,2022.1.1,60.330114332947836,
negative,red,1,None,None,,,,,,,,,0,96,96,96,,,,,,,,,,,,,,,,,main,None,None,1,1.4967892999993637,424.1281096000457,None,None,1,,,,,,,,,,,,,,210,2023-04-25_19h10.38.372,Main,2022.1.1,60.330114332947836,
positive,yellow,1,None,k,,,,,,,,,0,97,97,97,,,,,,,,,,,,,,,,,main,None,None,1,1.4992524000117555,426.62810430000536,None,None,1,,,,,,,,,,,,,,210,2023-04-25_19h10.38.372,Main,2022.1.1,60.330114332947836,
negative,yellow,1,k,None,,,,,,,,,0,98,98,98,,,,,,,,,,,,,,,,,main,k,k,1,0.8822813000297174,429.12808060005773,None,None,0,,,,,,,,,,,,,,210,2023-04-25_19h10.38.372,Main,2022.1.1,60.330114332947836,
positive,red,1,None,None,,,,,,,,,0,99,99,99,,,,,,,,,,,,,,,,,main,None,None,1,1.5008920999243855,431.01106920000166,None,None,1,,,,,,,,,,,,,,210,2023-04-25_19h10.38.372,Main,2022.1.1,60.330114332947836,
positive,blue,1,k,None,,,,,,,,,0,100,100,100,,,,,,,,,,,,,,,,,main,k,k,1,0.965148700051941,433.5137643000344,None,None,0,,,,,,,,,,,,,,210,2023-04-25_19h10.38.372,Main,2022.1.1,60.330114332947836,
negative,yellow,1,k,None,,,,,,,,,0,101,101,101,,,,,,,,,,,,,,,,,main,k,k,1,0.7632970000850037,435.48031160002574,None,None,0,,,,,,,,,,,,,,210,2023-04-25_19h10.38.372,Main,2022.1.1,60.330114332947836,
negative,blue,2,None,k,,,,,,,,,0,102,102,102,,,,,,,,,,,,,,,,,main,None,None,1,1.4974328000098467,437.2445768000325,None,None,1,,,,,,,,,,,,,,210,2023-04-25_19h10.38.372,Main,2022.1.1,60.330114332947836,
negative,yellow,2,k,None,,,,,,,,,0,103,103,103,,,,,,,,,,,,,,,,,main,k,k,1,0.6986434999853373,439.74422490003053,None,None,0,,,,,,,,,,,,,,210,2023-04-25_19h10.38.372,Main,2022.1.1,60.330114332947836,
positive,yellow,2,None,k,,,,,,,,,0,104,104,104,,,,,,,,,,,,,,,,,main,None,None,1,1.5015929999062791,441.4442357000662,None,None,1,,,,,,,,,,,,,,210,2023-04-25_19h10.38.372,Main,2022.1.1,60.330114332947836,
positive,blue,1,k,None,,,,,,,,,0,105,105,105,,,,,,,,,,,,,,,,,main,k,k,1,0.6634006999665871,443.9468416000018,None,None,0,,,,,,,,,,,,,,210,2023-04-25_19h10.38.372,Main,2022.1.1,60.330114332947836,
positive,blue,2,k,None,,,,,,,,,0,106,106,106,,,,,,,,,,,,,,,,,main,k,k,1,0.6493427000241354,445.6133187999949,None,None,0,,,,,,,,,,,,,,210,2023-04-25_19h10.38.372,Main,2022.1.1,60.330114332947836,
negative,blue,1,None,k,,,,,,,,,0,107,107,107,,,,,,,,,,,,,,,,,main,None,None,1,1.4986883000237867,447.2610412000213,None,None,1,,,,,,,,,,,,,,210,2023-04-25_19h10.38.372,Main,2022.1.1,60.330114332947836,
positive,yellow,2,None,k,,,,,,,,,0,108,108,108,,,,,,,,,,,,,,,,,main,None,None,1,1.5017693999689072,449.7607524000341,None,None,1,,,,,,,,,,,,,,210,2023-04-25_19h10.38.372,Main,2022.1.1,60.330114332947836,
negative,yellow,1,k,None,,,,,,,,,0,109,109,109,,,,,,,,,,,,,,,,,main,k,k,1,0.6694486000342295,452.2633558000671,None,None,0,,,,,,,,,,,,,,210,2023-04-25_19h10.38.372,Main,2022.1.1,60.330114332947836,
negative,blue,2,None,k,,,,,,,,,0,110,110,110,,,,,,,,,,,,,,,,,main,None,None,1,1.492669300059788,453.93725429999176,None,None,1,,,,,,,,,,,,,,210,2023-04-25_19h10.38.372,Main,2022.1.1,60.330114332947836,
positive,blue,2,k,None,,,,,,,,,0,111,111,111,,,,,,,,,,,,,,,,,main,k,k,1,0.6520715000806376,456.4272793000564,None,None,0,,,,,,,,,,,,,,210,2023-04-25_19h10.38.372,Main,2022.1.1,60.330114332947836,
negative,blue,1,None,k,,,,,,,,,0,112,112,112,,,,,,,,,,,,,,,,,main,None,None,1,1.498910800088197,458.079853800009,None,None,1,,,,,,,,,,,,,,210,2023-04-25_19h10.38.372,Main,2022.1.1,60.330114332947836,
positive,yellow,1,None,k,,,,,,,,,0,113,113,113,,,,,,,,,,,,,,,,,main,None,None,1,1.4964507999829948,460.5798443000531,None,None,1,,,,,,,,,,,,,,210,2023-04-25_19h10.38.372,Main,2022.1.1,60.330114332947836,
negative,red,1,None,None,,,,,,,,,0,114,114,114,,,,,,,,,,,,,,,,,main,None,None,1,1.5018656000029296,463.07709340006113,None,None,1,,,,,,,,,,,,,,210,2023-04-25_19h10.38.372,Main,2022.1.1,60.330114332947836,
positive,red,1,None,None,,,,,,,,,0,115,115,115,,,,,,,,,,,,,,,,,main,None,None,1,1.4990797999780625,465.5796916000545,None,None,1,,,,,,,,,,,,,,210,2023-04-25_19h10.38.372,Main,2022.1.1,60.330114332947836,
negative,red,2,None,None,,,,,,,,,0,116,116,116,,,,,,,,,,,,,,,,,main,None,None,1,1.4963848000625148,468.0796331000747,None,None,1,,,,,,,,,,,,,,210,2023-04-25_19h10.38.372,Main,2022.1.1,60.330114332947836,
negative,yellow,2,k,None,,,,,,,,,0,117,117,117,,,,,,,,,,,,,,,,,main,k,k,1,0.9021742000477389,470.57693420001306,None,None,0,,,,,,,,,,,,,,210,2023-04-25_19h10.38.372,Main,2022.1.1,60.330114332947836,
positive,yellow,1,None,k,,,,,,,,,0,118,118,118,,,,,,,,,,,,,,,,,main,None,None,1,1.4990236000157893,472.4795831000665,None,None,1,,,,,,,,,,,,,,210,2023-04-25_19h10.38.372,Main,2022.1.1,60.330114332947836,
positive,red,2,None,None,,,,,,,,,0,119,119,119,,,,,,,,,,,,,,,,,main,None,None,1,1.4962145000463352,474.97949090006296,None,None,1,,,,,,,,,,,,,,210,2023-04-25_19h10.38.372,Main,2022.1.1,60.330114332947836,
positive,blue,2,k,None,,,,,,,,,0,120,120,120,,,,,,,,,,,,,,,,,main,k,k,1,0.6354670999571681,477.476788100088,None,None,0,,,,,,,,,,,,,,210,2023-04-25_19h10.38.372,Main,2022.1.1,60.330114332947836,
negative,red,1,None,None,,,,,,,,,0,121,121,121,,,,,,,,,,,,,,,,,main,None,None,1,1.4989155000075698,479.11280360003,None,None,1,,,,,,,,,,,,,,210,2023-04-25_19h10.38.372,Main,2022.1.1,60.330114332947836,
positive,yellow,2,None,k,,,,,,,,,0,122,122,122,,,,,,,,,,,,,,,,,main,None,None,1,1.496439400012605,481.61030759999994,None,None,1,,,,,,,,,,,,,,210,2023-04-25_19h10.38.372,Main,2022.1.1,60.330114332947836,
negative,red,2,None,None,,,,,,,,,0,123,123,123,,,,,,,,,,,,,,,,,main,None,None,1,1.501710000098683,484.11004940001294,None,None,1,,,,,,,,,,,,,,210,2023-04-25_19h10.38.372,Main,2022.1.1,60.330114332947836,
negative,yellow,2,k,None,,,,,,,,,0,124,124,124,,,,,,,,,,,,,,,,,main,k,k,1,0.7298587000695989,486.61273550009355,None,None,0,,,,,,,,,,,,,,210,2023-04-25_19h10.38.372,Main,2022.1.1,60.330114332947836,
positive,red,1,None,None,,,,,,,,,0,125,125,125,,,,,,,,,,,,,,,,,main,None,None,1,1.5017129000043496,488.3432443999918,None,None,1,,,,,,,,,,,,,,210,2023-04-25_19h10.38.372,Main,2022.1.1,60.330114332947836,
negative,blue,2,None,k,,,,,,,,,0,126,126,126,,,,,,,,,,,,,,,,,main,None,None,1,1.4994949999963865,490.84589130000677,None,None,1,,,,,,,,,,,,,,210,2023-04-25_19h10.38.372,Main,2022.1.1,60.330114332947836,
negative,blue,1,None,k,,,,,,,,,0,127,127,127,,,,,,,,,,,,,,,,,main,None,None,1,1.496048399945721,493.34577670006547,None,None,1,,,,,,,,,,,,,,210,2023-04-25_19h10.38.372,Main,2022.1.1,60.330114332947836,
negative,yellow,1,k,None,,,,,,,,,0,128,128,128,,,,,,,,,,,,,,,,,main,k,k,1,0.7520888999570161,495.8431585000362,None,None,0,,,,,,,,,,,,,,210,2023-04-25_19h10.38.372,Main,2022.1.1,60.330114332947836,
negative,yellow,1,k,None,,,,,,,,,0,129,129,129,,,,,,,,,,,,,,,,,main,k,k,1,0.5992267999099568,497.5956943000201,None,None,0,,,,,,,,,,,,,,210,2023-04-25_19h10.38.372,Main,2022.1.1,60.330114332947836,
positive,blue,1,k,None,,,,,,,,,0,130,130,130,,,,,,,,,,,,,,,,,main,k,k,1,0.5799525000620633,499.19570150005165,None,None,0,,,,,,,,,,,,,,210,2023-04-25_19h10.38.372,Main,2022.1.1,60.330114332947836,
negative,blue,1,None,k,,,,,,,,,0,131,131,131,,,,,,,,,,,,,,,,,main,None,None,1,1.4983311999822035,500.77887170005124,None,None,1,,,,,,,,,,,,,,210,2023-04-25_19h10.38.372,Main,2022.1.1,60.330114332947836,
negative,blue,2,None,k,,,,,,,,,0,132,132,132,,,,,,,,,,,,,,,,,main,None,None,1,1.5019123998936266,503.27629120007623,None,None,1,,,,,,,,,,,,,,210,2023-04-25_19h10.38.372,Main,2022.1.1,60.330114332947836,
positive,blue,2,k,None,,,,,,,,,0,133,133,133,,,,,,,,,,,,,,,,,main,k,k,1,0.6326442999998108,505.7790002000984,None,None,0,,,,,,,,,,,,,,210,2023-04-25_19h10.38.372,Main,2022.1.1,60.330114332947836,
positive,red,2,None,None,,,,,,,,,0,134,134,134,,,,,,,,,,,,,,,,,main,None,None,1,1.4990008000750095,507.4122695000842,None,None,1,,,,,,,,,,,,,,210,2023-04-25_19h10.38.372,Main,2022.1.1,60.330114332947836,
negative,yellow,2,k,None,,,,,,,,,0,135,135,135,,,,,,,,,,,,,,,,,main,k,k,1,0.6158243999816477,509.91198760003317,None,None,0,,,,,,,,,,,,,,210,2023-04-25_19h10.38.372,Main,2022.1.1,60.330114332947836,
positive,yellow,2,None,k,,,,,,,,,0,136,136,136,,,,,,,,,,,,,,,,,main,None,None,1,1.4963772000046447,511.52868590003345,None,None,1,,,,,,,,,,,,,,210,2023-04-25_19h10.38.372,Main,2022.1.1,60.330114332947836,
positive,blue,1,k,None,,,,,,,,,0,137,137,137,,,,,,,,,,,,,,,,,main,k,k,1,0.7356599000049755,514.0261239000829,None,None,0,,,,,,,,,,,,,,210,2023-04-25_19h10.38.372,Main,2022.1.1,60.330114332947836,
positive,yellow,1,None,k,,,,,,,,,0,138,138,138,,,,,,,,,,,,,,,,,main,None,None,1,1.4989322999026626,515.7619970000815,None,None,1,,,,,,,,,,,,,,210,2023-04-25_19h10.38.372,Main,2022.1.1,60.330114332947836,
positive,yellow,1,None,k,,,,,,,,,0,139,139,139,,,,,,,,,,,,,,,,,main,None,None,1,1.4965629000216722,518.2620170000009,None,None,1,,,,,,,,,,,,,,210,2023-04-25_19h10.38.372,Main,2022.1.1,60.330114332947836,
positive,yellow,1,None,k,,,,,,,,,0,140,140,140,,,,,,,,,,,,,,,,,main,None,None,1,1.5016295000677928,520.7593137000222,None,None,1,,,,,,,,,,,,,,210,2023-04-25_19h10.38.372,Main,2022.1.1,60.330114332947836,
positive,blue,1,k,None,,,,,,,,,0,141,141,141,,,,,,,,,,,,,,,,,main,k,k,1,0.76574039994739,523.2618898000801,None,None,0,,,,,,,,,,,,,,210,2023-04-25_19h10.38.372,Main,2022.1.1,60.330114332947836,
positive,blue,2,k,None,,,,,,,,,0,142,142,142,,,,,,,,,,,,,,,,,main,k,k,1,0.7300004999851808,525.0261370000662,None,None,0,,,,,,,,,,,,,,210,2023-04-25_19h10.38.372,Main,2022.1.1,60.330114332947836,
positive,yellow,2,None,k,,,,,,,,,0,143,143,143,,,,,,,,,,,,,,,,,main,None,None,1,1.4988892000401393,526.7591316000326,None,None,1,,,,,,,,,,,,,,210,2023-04-25_19h10.38.372,Main,2022.1.1,60.330114332947836,
negative,yellow,2,k,None,,,,,,,,,0,144,144,144,,,,,,,,,,,,,,,,,main,k,k,1,0.6187224999302998,529.2618219000287,None,None,0,,,,,,,,,,,,,,210,2023-04-25_19h10.38.372,Main,2022.1.1,60.330114332947836,
negative,blue,2,None,k,,,,,,,,,0,145,145,145,,,,,,,,,,,,,,,,,main,None,None,1,1.4987330000149086,530.8783462999854,None,None,1,,,,,,,,,,,,,,210,2023-04-25_19h10.38.372,Main,2022.1.1,60.330114332947836,
negative,red,1,None,None,,,,,,,,,0,146,146,146,,,,,,,,,,,,,,,,,main,None,None,1,1.4965924000134692,533.3759698000504,None,None,1,,,,,,,,,,,,,,210,2023-04-25_19h10.38.372,Main,2022.1.1,60.330114332947836,
positive,blue,1,k,None,,,,,,,,,0,147,147,147,,,,,,,,,,,,,,,,,main,k,k,1,0.6495701000094414,535.8756084000925,None,None,0,,,,,,,,,,,,,,210,2023-04-25_19h10.38.372,Main,2022.1.1,60.330114332947836,
positive,yellow,1,None,k,,,,,,,,,0,148,148,148,,,,,,,,,,,,,,,,,main,None,None,1,1.5014885999262333,537.525647600065,None,None,1,,,,,,,,,,,,,,210,2023-04-25_19h10.38.372,Main,2022.1.1,60.330114332947836,
negative,red,2,None,None,,,,,,,,,0,149,149,149,,,,,,,,,,,,,,,,,main,None,None,1,1.4963932000100613,540.0282981999917,None,None,1,,,,,,,,,,,,,,210,2023-04-25_19h10.38.372,Main,2022.1.1,60.330114332947836,
negative,blue,1,None,k,,,,,,,,,0,150,150,150,,,,,,,,,,,,,,,,,main,None,None,1,1.502377500059083,542.5255091000581,None,None,1,,,,,,,,,,,,,,210,2023-04-25_19h10.38.372,Main,2022.1.1,60.330114332947836,
negative,yellow,2,k,None,,,,,,,,,0,151,151,151,,,,,,,,,,,,,,,,,main,k,k,1,0.682093899929896,545.0281150999945,None,None,0,,,,,,,,,,,,,,210,2023-04-25_19h10.38.372,Main,2022.1.1,60.330114332947836,
negative,blue,2,None,k,,,,,,,,,0,152,152,152,,,,,,,,,,,,,,,,,main,None,None,1,1.4965143000008538,546.7114159000339,None,None,1,,,,,,,,,,,,,,210,2023-04-25_19h10.38.372,Main,2022.1.1,60.330114332947836,
negative,yellow,1,k,None,,,,,,,,,0,153,153,153,,,,,,,,,,,,,,,,,main,k,k,1,0.6851022999035195,549.2087448000675,None,None,0,,,,,,,,,,,,,,210,2023-04-25_19h10.38.372,Main,2022.1.1,60.330114332947836,
negative,blue,1,None,k,,,,,,,,,0,154,154,154,,,,,,,,,,,,,,,,,main,None,None,1,1.4989360000472516,550.8946397000691,None,None,1,,,,,,,,,,,,,,210,2023-04-25_19h10.38.372,Main,2022.1.1,60.330114332947836,
positive,yellow,2,None,k,,,,,,,,,0,155,155,155,,,,,,,,,,,,,,,,,main,None,None,1,1.4965426999842748,553.3922366000479,None,None,1,,,,,,,,,,,,,,210,2023-04-25_19h10.38.372,Main,2022.1.1,60.330114332947836,
positive,red,2,None,None,,,,,,,,,0,156,156,156,,,,,,,,,,,,,,,,,main,None,None,1,1.5014468999579549,555.8921221999917,None,None,1,,,,,,,,,,,,,,210,2023-04-25_19h10.38.372,Main,2022.1.1,60.330114332947836,
positive,red,1,None,None,,,,,,,,,0,157,157,157,,,,,,,,,,,,,,,,,main,None,None,1,1.4994523999048397,558.3943887000205,None,None,1,,,,,,,,,,,,,,210,2023-04-25_19h10.38.372,Main,2022.1.1,60.330114332947836,
positive,blue,2,k,None,,,,,,,,,0,158,158,158,,,,,,,,,,,,,,,,,main,k,k,1,0.7633156999945641,560.8943856999977,None,None,0,,,,,,,,,,,,,,210,2023-04-25_19h10.38.372,Main,2022.1.1,60.330114332947836,
negative,yellow,1,k,None,,,,,,,,,0,159,159,159,,,,,,,,,,,,,,,,,main,k,k,1,0.6657392999622971,562.658408200019,None,None,0,,,,,,,,,,,,,,210,2023-04-25_19h10.38.372,Main,2022.1.1,60.330114332947836,
negative,red,2,None,None,,,,,,,,,0,160,160,160,,,,,,,,,,,,,,,,,main,None,None,1,1.5015776999061927,564.3251113999868,None,None,1,,,,,,,,,,,,,,210,2023-04-25_19h10.38.372,Main,2022.1.1,60.330114332947836,
negative,blue,1,None,k,,,,,,,,,0,161,161,161,,,,,,,,,,,,,,,,,main,None,None,1,1.4966763999545947,566.8277599000139,None,None,1,,,,,,,,,,,,,,210,2023-04-25_19h10.38.372,Main,2022.1.1,60.330114332947836,
negative,blue,1,None,k,,,,,,,,,0,162,162,162,,,,,,,,,,,,,,,,,main,None,None,1,1.4991863999748603,569.3307955000782,None,None,1,,,,,,,,,,,,,,210,2023-04-25_19h10.38.372,Main,2022.1.1,60.330114332947836,
negative,yellow,1,k,None,,,,,,,,,0,163,163,163,,,,,,,,,,,,,,,,,main,k,k,1,0.7852786000585184,571.8251434999984,None,None,0,,,,,,,,,,,,,,210,2023-04-25_19h10.38.372,Main,2022.1.1,60.330114332947836,
negative,yellow,1,k,None,,,,,,,,,0,164,164,164,,,,,,,,,,,,,,,,,main,k,k,1,0.5465335000772029,573.6084591000108,None,None,0,,,,,,,,,,,,,,210,2023-04-25_19h10.38.372,Main,2022.1.1,60.330114332947836,
positive,yellow,1,None,k,,,,,,,,,0,165,165,165,,,,,,,,,,,,,,,,,main,None,None,1,1.5013165000127628,575.1607605000027,None,None,1,,,,,,,,,,,,,,210,2023-04-25_19h10.38.372,Main,2022.1.1,60.330114332947836,
negative,red,1,None,None,,,,,,,,,0,166,166,166,,,,,,,,,,,,,,,,,main,None,None,1,1.4965603000018746,577.6584466000786,None,None,1,,,,,,,,,,,,,,210,2023-04-25_19h10.38.372,Main,2022.1.1,60.330114332947836,
negative,yellow,2,k,None,,,,,,,,,0,167,167,167,,,,,,,,,,,,,,,,,main,k,k,1,0.8186223999364302,580.1581209000433,None,None,0,,,,,,,,,,,,,,210,2023-04-25_19h10.38.372,Main,2022.1.1,60.330114332947836,
positive,blue,2,k,None,,,,,,,,,0,168,168,168,,,,,,,,,,,,,,,,,main,k,k,1,0.532725099939853,581.9773708999855,None,None,0,,,,,,,,,,,,,,210,2023-04-25_19h10.38.372,Main,2022.1.1,60.330114332947836,
positive,red,2,None,None,,,,,,,,,0,169,169,169,,,,,,,,,,,,,,,,,main,None,None,1,1.4959737999597564,583.5107139000902,None,None,1,,,,,,,,,,,,,,210,2023-04-25_19h10.38.372,Main,2022.1.1,60.330114332947836,
positive,red,1,None,None,,,,,,,,,0,170,170,170,,,,,,,,,,,,,,,,,main,None,None,1,1.501870199921541,586.0079472000943,None,None,1,,,,,,,,,,,,,,210,2023-04-25_19h10.38.372,Main,2022.1.1,60.330114332947836,
negative,blue,2,None,k,,,,,,,,,0,171,171,171,,,,,,,,,,,,,,,,,main,None,None,1,1.4989043000387028,588.510605800082,None,None,1,,,,,,,,,,,,,,210,2023-04-25_19h10.38.372,Main,2022.1.1,60.330114332947836,
positive,blue,2,k,None,,,,,,,,,0,172,172,172,,,,,,,,,,,,,,,,,main,k,k,1,0.5636310001136735,591.0103495999938,None,None,0,,,,,,,,,,,,,,210,2023-04-25_19h10.38.372,Main,2022.1.1,60.330114332947836,
negative,yellow,2,k,None,,,,,,,,,0,173,173,173,,,,,,,,,,,,,,,,,main,k,k,1,0.6348700999515131,592.5747137999861,None,None,0,,,,,,,,,,,,,,210,2023-04-25_19h10.38.372,Main,2022.1.1,60.330114332947836,
positive,yellow,2,None,k,,,,,,,,,0,174,174,174,,,,,,,,,,,,,,,,,main,None,None,1,1.4965763000072911,594.2080313999904,None,None,1,,,,,,,,,,,,,,210,2023-04-25_19h10.38.372,Main,2022.1.1,60.330114332947836,
negative,blue,2,None,k,,,,,,,,,0,175,175,175,,,,,,,,,,,,,,,,,main,None,None,1,1.5042976000113413,596.7080430000788,None,None,1,,,,,,,,,,,,,,210,2023-04-25_19h10.38.372,Main,2022.1.1,60.330114332947836,
positive,blue,1,k,None,,,,,,,,,0,176,176,176,,,,,,,,,,,,,,,,,main,k,k,1,0.6104563999688253,599.2123468000209,None,None,0,,,,,,,,,,,,,,210,2023-04-25_19h10.38.372,Main,2022.1.1,60.330114332947836,
positive,yellow,1,None,k,,,,,,,,,0,177,177,177,,,,,,,,,,,,,,,,,main,None,None,1,1.5016200999962166,600.8243317999877,None,None,1,,,,,,,,,,,,,,210,2023-04-25_19h10.38.372,Main,2022.1.1,60.330114332947836,
positive,blue,1,k,None,,,,,,,,,0,178,178,178,,,,,,,,,,,,,,,,,main,k,k,1,0.7325711000012234,603.3270142000401,None,None,0,,,,,,,,,,,,,,210,2023-04-25_19h10.38.372,Main,2022.1.1,60.330114332947836,
positive,yellow,2,None,k,,,,,,,,,0,179,179,179,,,,,,,,,,,,,,,,,main,None,None,1,1.498844400048256,605.0602336000884,None,None,1,,,,,,,,,,,,,,210,2023-04-25_19h10.38.372,Main,2022.1.1,60.330114332947836,
positive,blue,1,k,None,,,,,,,,,0,180,180,180,,,,,,,,,,,,,,,,,main,k,k,1,0.6467155999271199,607.5578398000216,None,None,0,,,,,,,,,,,,,,210,2023-04-25_19h10.38.372,Main,2022.1.1,60.330114332947836,
negative,red,1,None,None,,,,,,,,,0,181,181,181,,,,,,,,,,,,,,,,,main,None,None,1,1.5015194999286905,609.2074864000315,None,None,1,,,,,,,,,,,,,,210,2023-04-25_19h10.38.372,Main,2022.1.1,60.330114332947836,
negative,blue,1,None,k,,,,,,,,,0,182,182,182,,,,,,,,,,,,,,,,,main,None,None,1,1.4992044999962673,611.7101336000487,None,None,1,,,,,,,,,,,,,,210,2023-04-25_19h10.38.372,Main,2022.1.1,60.330114332947836,
negative,yellow,2,k,None,,,,,,,,,0,183,183,183,,,,,,,,,,,,,,,,,main,k,k,1,0.9798618999775499,614.2100315000862,None,None,0,,,,,,,,,,,,,,210,2023-04-25_19h10.38.372,Main,2022.1.1,60.330114332947836,
positive,yellow,2,None,k,,,,,,,,,0,184,184,184,,,,,,,,,,,,,,,,,main,None,None,1,1.5017860000953078,616.1907021000516,None,None,1,,,,,,,,,,,,,,210,2023-04-25_19h10.38.372,Main,2022.1.1,60.330114332947836,
positive,yellow,1,None,k,,,,,,,,,0,185,185,185,,,,,,,,,,,,,,,,,main,None,None,1,1.4987640999024734,618.6933870000066,None,None,1,,,,,,,,,,,,,,210,2023-04-25_19h10.38.372,Main,2022.1.1,60.330114332947836,
positive,red,2,None,None,,,,,,,,,0,186,186,186,,,,,,,,,,,,,,,,,main,None,None,1,1.4988188000861555,621.1908785999985,None,None,1,,,,,,,,,,,,,,210,2023-04-25_19h10.38.372,Main,2022.1.1,60.330114332947836,
positive,blue,1,k,None,,,,,,,,,0,187,187,187,,,,,,,,,,,,,,,,,main,k,k,1,0.5972471999702975,623.690753800096,None,None,0,,,,,,,,,,,,,,210,2023-04-25_19h10.38.372,Main,2022.1.1,60.330114332947836,
negative,yellow,1,k,None,,,,,,,,,0,188,188,188,,,,,,,,,,,,,,,,,main,k,k,1,0.7658894999185577,625.2930063999956,None,None,0,,,,,,,,,,,,,,210,2023-04-25_19h10.38.372,Main,2022.1.1,60.330114332947836,
positive,yellow,2,None,k,,,,,,,,,0,189,189,189,,,,,,,,,,,,,,,,,main,None,None,1,1.5011995000531897,627.0596906000283,None,None,1,,,,,,,,,,,,,,210,2023-04-25_19h10.38.372,Main,2022.1.1,60.330114332947836,
negative,yellow,2,k,None,,,,,,,,,0,190,190,190,,,,,,,,,,,,,,,,,main,k,k,1,0.6635159000288695,629.5573990000412,None,None,0,,,,,,,,,,,,,,210,2023-04-25_19h10.38.372,Main,2022.1.1,60.330114332947836,
negative,yellow,1,k,None,,,,,,,,,0,191,191,191,,,,,,,,,,,,,,,,,main,k,k,1,0.651849800022319,631.2237081000349,None,None,0,,,,,,,,,,,,,,210,2023-04-25_19h10.38.372,Main,2022.1.1,60.330114332947836,
positive,blue,2,k,None,,,,,,,,,0,192,192,192,,,,,,,,,,,,,,,,,main,k,k,1,0.5159816000377759,632.8763385000639,None,None,0,,,,,,,,,,,,,,210,2023-04-25_19h10.38.372,Main,2022.1.1,60.330114332947836,
positive,yellow,1,None,k,,,,,,,,,0,193,193,193,,,,,,,,,,,,,,,,,main,None,None,1,1.498260400025174,634.39300130005,None,None,1,,,,,,,,,,,,,,210,2023-04-25_19h10.38.372,Main,2022.1.1,60.330114332947836,
negative,red,2,None,None,,,,,,,,,0,194,194,194,,,,,,,,,,,,,,,,,main,None,None,1,1.4966448000632226,636.8927979000146,None,None,1,,,,,,,,,,,,,,210,2023-04-25_19h10.38.372,Main,2022.1.1,60.330114332947836,
positive,red,1,None,None,,,,,,,,,0,195,195,195,,,,,,,,,,,,,,,,,main,None,None,1,1.501131199998781,639.3926829000702,None,None,1,,,,,,,,,,,,,,210,2023-04-25_19h10.38.372,Main,2022.1.1,60.330114332947836,
negative,blue,1,None,k,,,,,,,,,0,196,196,196,,,,,,,,,,,,,,,,,main,None,None,1,1.4993376999627799,641.8926762000192,None,None,1,,,,,,,,,,,,,,210,2023-04-25_19h10.38.372,Main,2022.1.1,60.330114332947836,
positive,blue,2,k,None,,,,,,,,,0,197,197,197,,,,,,,,,,,,,,,,,main,k,k,1,0.6468108999542892,644.3904395001009,None,None,0,,,,,,,,,,,,,,210,2023-04-25_19h10.38.372,Main,2022.1.1,60.330114332947836,
negative,blue,2,None,k,,,,,,,,,0,198,198,198,,,,,,,,,,,,,,,,,main,None,None,1,1.4993712999857962,646.0400728000095,None,None,1,,,,,,,,,,,,,,210,2023-04-25_19h10.38.372,Main,2022.1.1,60.330114332947836,
negative,blue,2,None,k,,,,,,,,,0,199,199,199,,,,,,,,,,,,,,,,,main,None,None,1,1.5013048000400886,648.5426226001,None,None,1,,,,,,,,,,,,,,210,2023-04-25_19h10.38.372,Main,2022.1.1,60.330114332947836,
positive,blue,2,k,None,,,,,,,,,0,200,200,200,,,,,,,,,,,,,,,,,main,k,k,1,0.6463495000498369,651.0426767000463,None,None,0,,,,,,,,,,,,,,210,2023-04-25_19h10.38.372,Main,2022.1.1,60.330114332947836,
positive,blue,2,k,None,,,,,,,,,0,201,201,201,,,,,,,,,,,,,,,,,main,k,k,1,0.5660108000738546,652.6899358000373,None,None,0,,,,,,,,,,,,,,210,2023-04-25_19h10.38.372,Main,2022.1.1,60.330114332947836,
negative,yellow,2,k,None,,,,,,,,,0,202,202,202,,,,,,,,,,,,,,,,,main,k,k,1,0.7183229000074789,654.2566376000177,None,None,0,,,,,,,,,,,,,,210,2023-04-25_19h10.38.372,Main,2022.1.1,60.330114332947836,
positive,red,1,None,None,,,,,,,,,0,203,203,203,,,,,,,,,,,,,,,,,main,None,None,1,1.4990292000584304,655.9758060000604,None,None,1,,,,,,,,,,,,,,210,2023-04-25_19h10.38.372,Main,2022.1.1,60.330114332947836,
negative,blue,2,None,k,,,,,,,,,0,204,204,204,,,,,,,,,,,,,,,,,main,None,None,1,1.4964593999320641,658.4758809000487,None,None,1,,,,,,,,,,,,,,210,2023-04-25_19h10.38.372,Main,2022.1.1,60.330114332947836,
negative,red,1,None,None,,,,,,,,,0,205,205,205,,,,,,,,,,,,,,,,,main,None,None,1,1.5017768000252545,660.9731557000196,None,None,1,,,,,,,,,,,,,,210,2023-04-25_19h10.38.372,Main,2022.1.1,60.330114332947836,
negative,blue,2,None,k,,,,,,,,,0,206,206,206,,,,,,,,,,,,,,,,,main,None,None,1,1.4988273000344634,663.4757817999925,None,None,1,,,,,,,,,,,,,,210,2023-04-25_19h10.38.372,Main,2022.1.1,60.330114332947836,
negative,yellow,2,k,None,,,,,,,,,0,207,207,207,,,,,,,,,,,,,,,,,main,k,k,1,0.7135056999977678,665.9755665000994,None,None,0,,,,,,,,,,,,,,210,2023-04-25_19h10.38.372,Main,2022.1.1,60.330114332947836,
positive,yellow,2,None,k,,,,,,,,,0,208,208,208,,,,,,,,,,,,,,,,,main,None,None,1,1.5015350999310613,667.6896357000805,None,None,1,,,,,,,,,,,,,,210,2023-04-25_19h10.38.372,Main,2022.1.1,60.330114332947836,
negative,yellow,1,k,None,,,,,,,,,0,209,209,209,,,,,,,,,,,,,,,,,main,k,k,1,0.73291220003739,670.1922604000429,None,None,0,,,,,,,,,,,,,,210,2023-04-25_19h10.38.372,Main,2022.1.1,60.330114332947836,
negative,red,2,None,None,,,,,,,,,0,210,210,210,,,,,,,,,,,,,,,,,main,None,None,1,1.4985029000090435,671.9255897999974,None,None,1,,,,,,,,,,,,,,210,2023-04-25_19h10.38.372,Main,2022.1.1,60.330114332947836,
negative,blue,1,None,k,,,,,,,,,0,211,211,211,,,,,,,,,,,,,,,,,main,None,None,1,1.497571500018239,674.4231361000566,None,None,1,,,,,,,,,,,,,,210,2023-04-25_19h10.38.372,Main,2022.1.1,60.330114332947836,
negative,yellow,1,k,None,,,,,,,,,0,212,212,212,,,,,,,,,,,,,,,,,main,k,k,1,0.6678040999686345,676.9227821000386,None,None,0,,,,,,,,,,,,,,210,2023-04-25_19h10.38.372,Main,2022.1.1,60.330114332947836,
positive,blue,1,k,None,,,,,,,,,0,213,213,213,,,,,,,,,,,,,,,,,main,k,k,1,0.7492338999873027,678.5921049000463,None,None,0,,,,,,,,,,,,,,210,2023-04-25_19h10.38.372,Main,2022.1.1,60.330114332947836,
positive,blue,1,k,None,,,,,,,,,0,214,214,214,,,,,,,,,,,,,,,,,main,k,k,1,0.5321756999474019,680.342035699985,None,None,0,,,,,,,,,,,,,,210,2023-04-25_19h10.38.372,Main,2022.1.1,60.330114332947836,
positive,yellow,1,None,k,,,,,,,,,0,215,215,215,,,,,,,,,,,,,,,,,main,None,None,1,1.4963345000287518,681.8753290000604,None,None,1,,,,,,,,,,,,,,210,2023-04-25_19h10.38.372,Main,2022.1.1,60.330114332947836,
positive,yellow,1,None,k,,,,,,,,,0,216,216,216,,,,,,,,,,,,,,,,,main,None,None,1,1.5019933000439778,684.3726451999974,None,None,1,,,,,,,,,,,,,,210,2023-04-25_19h10.38.372,Main,2022.1.1,60.330114332947836,
positive,yellow,2,None,k,,,,,,,,,0,217,217,217,,,,,,,,,,,,,,,,,main,None,None,1,1.4989820000482723,686.8753219000064,None,None,1,,,,,,,,,,,,,,210,2023-04-25_19h10.38.372,Main,2022.1.1,60.330114332947836,
negative,blue,1,None,k,,,,,,,,,0,218,218,218,,,,,,,,,,,,,,,,,main,None,None,1,1.4987437999807298,689.3752046000445,None,None,1,,,,,,,,,,,,,,210,2023-04-25_19h10.38.372,Main,2022.1.1,60.330114332947836,
positive,red,2,None,None,,,,,,,,,0,219,219,219,,,,,,,,,,,,,,,,,main,None,None,1,1.4964847000082955,691.8728068000637,None,None,1,,,,,,,,,,,,,,210,2023-04-25_19h10.38.372,Main,2022.1.1,60.330114332947836,
positive,yellow,1,None,k,,,,,,,,,0,220,220,220,,,,,,,,,,,,,,,,,main,None,None,1,1.5019060999620706,694.3724615999963,None,None,1,,,,,,,,,,,,,,210,2023-04-25_19h10.38.372,Main,2022.1.1,60.330114332947836,
positive,blue,1,k,None,,,,,,,,,0,221,221,221,,,,,,,,,,,,,,,,,main,k,k,1,0.8990983000257984,696.8750943000196,None,None,0,,,,,,,,,,,,,,210,2023-04-25_19h10.38.372,Main,2022.1.1,60.330114332947836,
positive,yellow,2,None,k,,,,,,,,,0,222,222,222,,,,,,,,,,,,,,,,,main,None,None,1,1.496615199954249,698.7750987000763,None,None,1,,,,,,,,,,,,,,210,2023-04-25_19h10.38.372,Main,2022.1.1,60.330114332947836,
negative,yellow,1,k,None,,,,,,,,,0,223,223,223,,,,,,,,,,,,,,,,,main,k,k,1,0.8822116999654099,701.2726137000136,None,None,0,,,,,,,,,,,,,,210,2023-04-25_19h10.38.372,Main,2022.1.1,60.330114332947836,
positive,yellow,2,None,k,,,,,,,,,0,224,224,224,,,,,,,,,,,,,,,,,main,None,None,1,1.5016024000942707,703.1556057000998,None,None,1,,,,,,,,,,,,,,210,2023-04-25_19h10.38.372,Main,2022.1.1,60.330114332947836,
negative,yellow,2,k,None,,,,,,,,,0,225,225,225,,,,,,,,,,,,,,,,,main,k,k,1,0.7826990999747068,705.6582596000517,None,None,0,,,,,,,,,,,,,,210,2023-04-25_19h10.38.372,Main,2022.1.1,60.330114332947836,
negative,blue,2,None,k,,,,,,,,,0,226,226,226,,,,,,,,,,,,,,,,,main,None,None,1,1.4962808000855148,707.4415662999963,None,None,1,,,,,,,,,,,,,,210,2023-04-25_19h10.38.372,Main,2022.1.1,60.330114332947836,
positive,red,2,None,None,,,,,,,,,0,227,227,227,,,,,,,,,,,,,,,,,main,None,None,1,1.501861400087364,709.9387921000598,None,None,1,,,,,,,,,,,,,,210,2023-04-25_19h10.38.372,Main,2022.1.1,60.330114332947836,
positive,blue,2,k,None,,,,,,,,,0,228,228,228,,,,,,,,,,,,,,,,,main,k,k,1,0.582689999951981,712.4413117000367,None,None,0,,,,,,,,,,,,,,210,2023-04-25_19h10.38.372,Main,2022.1.1,60.330114332947836,
negative,blue,1,None,k,,,,,,,,,0,229,229,229,,,,,,,,,,,,,,,,,main,None,None,1,1.49629050004296,714.0247966999887,None,None,1,,,,,,,,,,,,,,210,2023-04-25_19h10.38.372,Main,2022.1.1,60.330114332947836,
positive,yellow,1,None,k,,,,,,,,,0,230,230,230,,,,,,,,,,,,,,,,,main,None,None,1,1.5019923000363633,716.5220586000942,None,None,1,,,,,,,,,,,,,,210,2023-04-25_19h10.38.372,Main,2022.1.1,60.330114332947836,
negative,blue,2,None,k,,,,,,,,,0,231,231,231,,,,,,,,,,,,,,,,,main,None,None,1,1.4986263000173494,719.0246422000928,None,None,1,,,,,,,,,,,,,,210,2023-04-25_19h10.38.372,Main,2022.1.1,60.330114332947836,
negative,red,1,None,None,,,,,,,,,0,232,232,232,,,,,,,,,,,,,,,,,main,None,None,1,1.496949400054291,721.5221594000468,None,None,1,,,,,,,,,,,,,,210,2023-04-25_19h10.38.372,Main,2022.1.1,60.330114332947836,
positive,blue,2,k,None,,,,,,,,,0,233,233,233,,,,,,,,,,,,,,,,,main,k,k,1,0.7821196999866515,724.0218429000815,None,None,0,,,,,,,,,,,,,,210,2023-04-25_19h10.38.372,Main,2022.1.1,60.330114332947836,
negative,yellow,1,k,None,,,,,,,,,0,234,234,234,,,,,,,,,,,,,,,,,main,k,k,1,0.7018063999712467,725.8051969000371,None,None,0,,,,,,,,,,,,,,210,2023-04-25_19h10.38.372,Main,2022.1.1,60.330114332947836,
negative,yellow,2,k,None,,,,,,,,,0,235,235,235,,,,,,,,,,,,,,,,,main,k,k,1,0.802562199998647,727.507758700056,None,None,0,,,,,,,,,,,,,,210,2023-04-25_19h10.38.372,Main,2022.1.1,60.330114332947836,
positive,red,1,None,None,,,,,,,,,0,236,236,236,,,,,,,,,,,,,,,,,main,None,None,1,1.492834199918434,729.3096141000278,None,None,1,,,,,,,,,,,,,,210,2023-04-25_19h10.38.372,Main,2022.1.1,60.330114332947836,
negative,red,2,None,None,,,,,,,,,0,237,237,237,,,,,,,,,,,,,,,,,main,None,None,1,1.499159700004384,731.8108632999938,None,None,1,,,,,,,,,,,,,,210,2023-04-25_19h10.38.372,Main,2022.1.1,60.330114332947836,
negative,blue,1,None,k,,,,,,,,,0,238,238,238,,,,,,,,,,,,,,,,,main,None,None,1,1.5015861000865698,734.3049785000039,None,None,1,,,,,,,,,,,,,,210,2023-04-25_19h10.38.372,Main,2022.1.1,60.330114332947836,
positive,blue,1,k,None,,,,,,,,,0,239,239,239,,,,,,,,,,,,,,,,,main,k,k,1,0.5996731999330223,736.8076412000228,None,None,0,,,,,,,,,,,,,,210,2023-04-25_19h10.38.372,Main,2022.1.1,60.330114332947836,
,,,,,,,,,,,,,,,,,,,,,,,,,,,,,,,,,,,,,,,,,,,,,,,,,,,,,738.4075083000353,None,,,,,,
