target,distractor,set,ans1,ans2,rep_loop2.thisRepN,rep_loop2.thisTrialN,rep_loop2.thisN,rep_loop2.thisIndex,flanker_prac_loop.thisRepN,flanker_prac_loop.thisTrialN,flanker_prac_loop.thisN,flanker_prac_loop.thisIndex,flanker_main_loop.thisRepN,flanker_main_loop.thisTrialN,flanker_main_loop.thisN,flanker_main_loop.thisIndex,fl_inst_resp.keys,fl_inst_resp.rt,sound_1.started,sound_1.stopped,image_4.started,image_4.stopped,back_2.started,back_2.stopped,main_prac,fl_cold,fl_colt,fl_set,fl_dcond,fl_tcond,fl_ans,fl_res,fl_corr,fl_rt,fix_fl.started,fix_fl.stopped,targ.started,targ.stopped,j_button.started,j_button.stopped,k_button.started,k_button.stopped,l_button.started,l_button.stopped,j_button2.started,j_button2.stopped,k_button2.started,k_button2.stopped,l_button2.started,l_button2.stopped,mainback.started,mainback.stopped,key_resp.keys,key_resp.rt,mouse_6.x,mouse_6.y,mouse_6.leftButton,mouse_6.midButton,mouse_6.rightButton,mouse_6.started,mouse_6.stopped,text_2.started,text_2.stopped,id*,date,expName,psychopyVersion,frameRate,
,,,,,0,0,0,0,,,,,,,,,space,48.7909742999982,28.27522114000458,None,77.09106850000535,None,,,,,,,,,,,,,,,,,,,,,,,,,,,,,,,,,,,,,,,,,,101,2023-04-17_15h15.42.275,Main,2022.1.1,60.955539029549094,
positive,positive,2,l,j,,,,,0,0,0,11,,,,,,,,,,,85.0241937000028,None,prac,2,2,2,positive,positive,j,j,1,1.0142627000022912,87.02932030000375,88.038584300004,88.02215799999976,None,87.02932030000375,None,87.02932030000375,None,87.02932030000375,None,89.04067134000506,None,89.04067134000506,None,89.04067134000506,None,,,,,,,,,,,,,,101,2023-04-17_15h15.42.275,Main,2022.1.1,60.955539029549094,
neutral,positive,1,k,k,,,,,0,1,1,4,,,,,,,,,,,,,prac,1,1,1,positive,neutral,k,k,1,0.7795134999978472,89.04441940000106,90.05743920000532,90.04072770000494,None,89.04441940000106,None,89.04441940000106,None,89.04441940000106,None,90.82187373999913,None,90.82187373999913,None,90.82187373999913,None,,,,,,,,,,,,,,101,2023-04-17_15h15.42.275,Main,2022.1.1,60.955539029549094,
neutral,negative,2,k,k,,,,,0,2,2,16,,,,,,,,,,,,,prac,1,1,2,negative,neutral,k,k,1,0.6815244999961578,90.82541300000594,91.8406843000048,91.82412409999961,None,90.82541300000594,None,90.82541300000594,None,90.82541300000594,None,92.50480784000392,None,92.50480784000392,None,92.50480784000392,None,,,,,,,,,,,,,,101,2023-04-17_15h15.42.275,Main,2022.1.1,60.955539029549094,
negative,positive,1,j,l,,,,,0,3,3,6,,,,,,,,,,,,,prac,1,1,1,positive,negative,l,l,1,0.6488110999998753,92.50476410000556,93.50478860000294,93.50478860000294,None,92.50476410000556,None,92.50476410000556,None,92.50476410000556,None,94.15480444000131,None,94.15480444000131,None,94.15480444000131,None,,,,,,,,,,,,,,101,2023-04-17_15h15.42.275,Main,2022.1.1,60.955539029549094,
positive,negative,1,l,j,,,,,0,4,4,5,,,,,,,,,,,,,prac,1,1,1,negative,positive,j,j,1,0.5822489000056521,94.15672530000302,95.17144470000494,95.15477700000338,None,94.15672530000302,None,94.15672530000302,None,94.15672530000302,None,95.73813374000456,None,95.73813374000456,None,95.73813374000456,None,,,,,,,,,,,,,,101,2023-04-17_15h15.42.275,Main,2022.1.1,60.955539029549094,
negative,positive,2,j,l,,,,,0,5,5,15,,,,,,,,,,,,,prac,2,2,2,positive,negative,l,j,0,0.6347305999952368,95.74192970000149,96.75738850000198,96.74066190000303,None,95.74192970000149,None,95.74192970000149,None,95.74192970000149,None,97.37262770000234,None,97.37262770000234,None,97.37262770000234,None,,,,,,,,,,,,,,101,2023-04-17_15h15.42.275,Main,2022.1.1,60.955539029549094,
neutral,positive,2,k,k,,,,,0,6,6,13,,,,,,,,,,,,,prac,2,2,2,positive,neutral,k,k,1,0.9871249999996508,98.37264790000336,99.37388869999995,99.35735890000069,None,98.37264790000336,None,98.37264790000336,None,98.37264790000336,None,100.3571596400041,None,100.3571596400041,None,100.3571596400041,None,,,,,,,,,,,,,,101,2023-04-17_15h15.42.275,Main,2022.1.1,60.955539029549094,
negative,negative,1,j,l,,,,,0,7,7,0,,,,,,,,,,,,,prac,1,1,1,negative,negative,l,l,1,0.6486100000038277,100.3608075000011,101.37392380000529,101.35723130000406,None,100.3608075000011,None,100.3608075000011,None,100.3608075000011,None,102.00720404000167,None,102.00720404000167,None,102.00720404000167,None,,,,,,,,,,,,,,101,2023-04-17_15h15.42.275,Main,2022.1.1,60.955539029549094,
positive,positive,1,l,j,,,,,0,8,8,2,,,,,,,,,,,,,prac,2,2,1,positive,positive,j,j,1,1.8956942999939201,102.0110857000036,103.02392030000192,103.00717540000187,None,102.0110857000036,None,102.0110857000036,None,102.0110857000036,None,104.90130130000034,None,104.90130130000034,None,104.90130130000034,None,,,,,,,,,,,,,,101,2023-04-17_15h15.42.275,Main,2022.1.1,60.955539029549094,
positive,neutral,2,l,j,,,,,0,9,9,17,,,,,,,,,,,,,prac,1,1,2,neutral,positive,j,j,1,0.8704811000061454,105.90454200000386,106.90455340000335,106.88789390000602,None,105.90454200000386,None,105.90454200000386,None,105.90454200000386,None,107.77118304000469,None,107.77118304000469,None,107.77118304000469,None,,,,,,,,,,,,,,101,2023-04-17_15h15.42.275,Main,2022.1.1,60.955539029549094,
neutral,neutral,2,k,k,,,,,0,10,10,10,,,,,,,,,,,,,prac,2,2,2,neutral,neutral,k,k,1,0.8153699000031338,107.77454550000402,108.78787330000341,108.77120950000244,None,107.77454550000402,None,107.77454550000402,None,107.77454550000402,None,109.58819364000082,None,109.58819364000082,None,109.58819364000082,None,,,,,,,,,,,,,,101,2023-04-17_15h15.42.275,Main,2022.1.1,60.955539029549094,
negative,negative,2,j,l,,,,,0,11,11,9,,,,,,,,,,,,,prac,2,2,2,negative,negative,l,l,1,0.69832370000222,109.5939742000046,110.60696499999904,110.59047560000181,None,109.5939742000046,None,109.5939742000046,None,109.5939742000046,None,111.28781044000498,None,111.28781044000498,None,111.28781044000498,None,,,,,,,,,,,,,,101,2023-04-17_15h15.42.275,Main,2022.1.1,60.955539029549094,
positive,neutral,1,l,j,,,,,0,12,12,8,,,,,,,,,,,,,prac,2,2,1,neutral,positive,j,j,1,0.6652963000015006,111.29457019999973,112.3070704999991,112.290410900001,None,111.29457019999973,None,111.29457019999973,None,111.29457019999973,None,112.9547548400049,None,112.9547548400049,None,112.9547548400049,None,,,,,,,,,,,,,,101,2023-04-17_15h15.42.275,Main,2022.1.1,60.955539029549094,
negative,neutral,1,j,l,,,,,0,13,13,3,,,,,,,,,,,,,prac,2,2,1,neutral,negative,l,l,1,0.78310600000259,112.96095430000423,113.97144140000455,113.94022120000591,None,112.96095430000423,None,112.96095430000423,None,112.96095430000423,None,114.73808094000269,None,114.73808094000269,None,114.73808094000269,None,,,,,,,,,,,,,,101,2023-04-17_15h15.42.275,Main,2022.1.1,60.955539029549094,
neutral,negative,1,k,k,,,,,0,14,14,7,,,,,,,,,,,,,prac,2,2,1,negative,neutral,k,k,1,0.6641150000068592,114.74414719999913,115.75693080000201,115.74034570000367,None,114.74414719999913,None,114.74414719999913,None,114.74414719999913,None,116.40439414000575,None,116.40439414000575,None,116.40439414000575,None,,,,,,,,,,,,,,101,2023-04-17_15h15.42.275,Main,2022.1.1,60.955539029549094,
negative,neutral,2,j,l,,,,,0,15,15,12,,,,,,,,,,,,,prac,1,1,2,neutral,negative,l,l,1,0.7484774000040488,116.41062180000154,117.42092860000412,117.40426780000416,None,116.41062180000154,None,116.41062180000154,None,116.41062180000154,None,118.15431124000024,None,118.15431124000024,None,118.15431124000024,None,,,,,,,,,,,,,,101,2023-04-17_15h15.42.275,Main,2022.1.1,60.955539029549094,
positive,negative,2,l,j,,,,,0,16,16,14,,,,,,,,,,,,,prac,1,1,2,negative,positive,j,l,0,0.4653009000030579,118.15428030000476,119.15433699999994,119.15433699999994,None,118.15428030000476,None,118.15428030000476,None,118.15428030000476,None,119.62134650000371,None,119.62134650000371,None,119.62134650000371,None,,,,,,,,,,,,,,101,2023-04-17_15h15.42.275,Main,2022.1.1,60.955539029549094,
neutral,neutral,1,k,k,,,,,0,17,17,1,,,,,,,,,,,,,prac,2,2,1,neutral,neutral,k,j,0,-0.4464966000014101,120.62527820000105,None,None,None,120.62527820000105,None,120.62527820000105,None,120.62527820000105,None,121.17155679999996,None,121.17155679999996,None,121.17155679999996,None,,,,,,,,,,,,,,101,2023-04-17_15h15.42.275,Main,2022.1.1,60.955539029549094,
positive,negative,2,l,j,,,,,1,0,18,14,,,,,,,,,,,,,prac,2,2,2,negative,positive,j,j,1,-0.479896099997859,124.17124190000322,None,None,None,124.17124190000322,None,124.17124190000322,None,124.17124190000322,None,124.6901257999998,None,124.6901257999998,None,124.6901257999998,None,,,,,,,,,,,,,,101,2023-04-17_15h15.42.275,Main,2022.1.1,60.955539029549094,
neutral,negative,2,k,k,,,,,1,1,19,16,,,,,,,,,,,,,prac,1,1,2,negative,neutral,k,k,1,1.0061990000031074,127.70413390000613,128.70413390000613,128.68747319999966,None,127.70413390000613,None,127.70413390000613,None,127.70413390000613,None,129.70658044000157,None,129.70658044000157,None,129.70658044000157,None,,,,,,,,,,,,,,101,2023-04-17_15h15.42.275,Main,2022.1.1,60.955539029549094,
negative,positive,2,j,l,,,,,1,2,20,15,,,,,,,,,,,,,prac,2,2,2,positive,negative,l,l,1,0.6469597999966936,129.7107180000021,130.7210783000046,130.70662740000262,None,129.7107180000021,None,129.7107180000021,None,129.7107180000021,None,131.35446124000447,None,131.35446124000447,None,131.35446124000447,None,,,,,,,,,,,,,,101,2023-04-17_15h15.42.275,Main,2022.1.1,60.955539029549094,
positive,neutral,2,l,j,,,,,1,3,21,17,,,,,,,,,,,,,prac,2,2,2,neutral,positive,j,j,1,0.7481511000005412,131.35830800000258,132.3731396000003,132.3566174000007,None,131.35830800000258,None,131.35830800000258,None,131.35830800000258,None,133.1043851399998,None,133.1043851399998,None,133.1043851399998,None,,,,,,,,,,,,,,101,2023-04-17_15h15.42.275,Main,2022.1.1,60.955539029549094,
neutral,neutral,1,k,k,,,,,1,4,22,1,,,,,,,,,,,,,prac,2,2,1,neutral,neutral,k,k,1,0.7840156000020215,133.10964420000528,134.12321270000393,134.10650840000017,None,133.10964420000528,None,133.10964420000528,None,133.10964420000528,None,134.88983824000462,None,134.88983824000462,None,134.88983824000462,None,,,,,,,,,,,,,,101,2023-04-17_15h15.42.275,Main,2022.1.1,60.955539029549094,
positive,negative,1,l,j,,,,,1,5,23,5,,,,,,,,,,,,,prac,2,2,1,negative,positive,j,j,1,0.6989357999991626,134.89378769999894,135.906413100005,135.8876287000021,None,134.89378769999894,None,134.89378769999894,None,134.89378769999894,None,136.5896920400017,None,136.5896920400017,None,136.5896920400017,None,,,,,,,,,,,,,,101,2023-04-17_15h15.42.275,Main,2022.1.1,60.955539029549094,
negative,negative,2,j,l,,,,,1,6,24,9,,,,,,,,,,,,,prac,2,2,2,negative,negative,l,l,1,0.762645100003283,136.59249690000433,137.6039033000052,137.58730330000253,None,136.59249690000433,None,136.59249690000433,None,136.59249690000433,None,138.35388474000212,None,138.35388474000212,None,138.35388474000212,None,,,,,,,,,,,,,,101,2023-04-17_15h15.42.275,Main,2022.1.1,60.955539029549094,
neutral,neutral,2,k,k,,,,,1,7,25,10,,,,,,,,,,,,,prac,1,1,2,neutral,neutral,k,k,1,0.7344037000002572,138.35579359999974,139.35429000000295,139.35429000000295,None,138.35579359999974,None,138.35579359999974,None,138.35579359999974,None,140.08979124000035,None,140.08979124000035,None,140.08979124000035,None,,,,,,,,,,,,,,101,2023-04-17_15h15.42.275,Main,2022.1.1,60.955539029549094,
neutral,positive,2,k,k,,,,,1,8,26,13,,,,,,,,,,,,,prac,1,1,2,positive,neutral,k,k,1,0.7967428999982076,140.0935915000009,141.10632560000522,141.08753810000053,None,140.0935915000009,None,140.0935915000009,None,140.0935915000009,None,141.88754813999986,None,141.88754813999986,None,141.88754813999986,None,,,,,,,,,,,,,,101,2023-04-17_15h15.42.275,Main,2022.1.1,60.955539029549094,
neutral,negative,1,k,k,,,,,1,9,27,7,,,,,,,,,,,,,prac,2,2,1,negative,neutral,k,l,0,0.7322512000027928,141.8908150999996,142.90628290000313,142.88747220000369,None,141.8908150999996,None,141.8908150999996,None,141.8908150999996,None,143.6208587000001,None,143.6208587000001,None,143.6208587000001,None,,,,,,,,,,,,,,101,2023-04-17_15h15.42.275,Main,2022.1.1,60.955539029549094,
positive,neutral,1,l,j,,,,,1,10,28,8,,,,,,,,,,,,,prac,1,1,1,neutral,positive,j,j,1,0.8016859000053955,144.62119710000115,145.62077500000305,145.60409380000056,None,144.62119710000115,None,144.62119710000115,None,144.62119710000115,None,146.42105164000242,None,146.42105164000242,None,146.42105164000242,None,,,,,,,,,,,,,,101,2023-04-17_15h15.42.275,Main,2022.1.1,60.955539029549094,
negative,positive,1,j,l,,,,,1,11,29,6,,,,,,,,,,,,,prac,1,1,1,positive,negative,l,l,1,0.8830820000002859,146.43956350000371,147.45365870000387,147.420326200001,None,146.43956350000371,None,146.43956350000371,None,146.43956350000371,None,148.30361713999883,None,148.30361713999883,None,148.30361713999883,None,,,,,,,,,,,,,,101,2023-04-17_15h15.42.275,Main,2022.1.1,60.955539029549094,
positive,positive,1,l,j,,,,,1,12,30,2,,,,,,,,,,,,,prac,2,2,1,positive,positive,j,j,1,0.8659226000017952,148.30551689999993,149.32041120000213,149.30372820000048,None,148.30551689999993,None,148.30551689999993,None,148.30551689999993,None,150.17288454000374,None,150.17288454000374,None,150.17288454000374,None,,,,,,,,,,,,,,101,2023-04-17_15h15.42.275,Main,2022.1.1,60.955539029549094,
positive,positive,2,l,j,,,,,1,13,31,11,,,,,,,,,,,,,prac,1,1,2,positive,positive,j,j,1,0.8488510999959544,150.17556139999942,151.18952569999965,151.172959800002,None,150.17556139999942,None,150.17556139999942,None,150.17556139999942,None,152.02273983999913,None,152.02273983999913,None,152.02273983999913,None,,,,,,,,,,,,,,101,2023-04-17_15h15.42.275,Main,2022.1.1,60.955539029549094,
negative,neutral,2,j,l,,,,,1,14,32,12,,,,,,,,,,,,,prac,2,2,2,neutral,negative,l,l,1,0.746309400004975,152.02607770000031,153.03941760000453,153.02284950000467,None,152.02607770000031,None,152.02607770000031,None,152.02607770000031,None,153.77053633999896,None,153.77053633999896,None,153.77053633999896,None,,,,,,,,,,,,,,101,2023-04-17_15h15.42.275,Main,2022.1.1,60.955539029549094,
negative,neutral,1,j,l,,,,,1,15,33,3,,,,,,,,,,,,,prac,2,2,1,neutral,negative,l,l,1,0.7484799999947427,153.7767909000031,154.7894047000009,154.7727823000023,None,153.7767909000031,None,153.7767909000031,None,153.7767909000031,None,155.52027234000417,None,155.52027234000417,None,155.52027234000417,None,,,,,,,,,,,,,,101,2023-04-17_15h15.42.275,Main,2022.1.1,60.955539029549094,
negative,negative,1,j,l,,,,,1,16,34,0,,,,,,,,,,,,,prac,2,2,1,negative,negative,l,l,1,0.6651831999988644,155.5265081000034,156.53930219999893,156.50611290000234,None,155.5265081000034,None,155.5265081000034,None,155.5265081000034,None,157.18651054000367,None,157.18651054000367,None,157.18651054000367,None,,,,,,,,,,,,,,101,2023-04-17_15h15.42.275,Main,2022.1.1,60.955539029549094,
neutral,positive,1,k,k,,,,,1,17,35,4,,,,,,,,,,,,,prac,1,1,1,positive,neutral,k,k,1,0.6986390000020037,157.20266890000494,158.2035107000047,158.18685990000085,None,157.20266890000494,None,157.20266890000494,None,157.20266890000494,None,158.88680724000443,None,158.88680724000443,None,158.88680724000443,None,,,,,,,,,,,,,,101,2023-04-17_15h15.42.275,Main,2022.1.1,60.955539029549094,
,,,,,,,,,,,,,,,,,,,,,,,,,,,,,,,,,,,,,,,,,,,,,,,,,,,158.88682469999912,None,space,4.0119886999964365,,,,,,,,,,101,2023-04-17_15h15.42.275,Main,2022.1.1,60.955539029549094,
,,,,,,,,,,,,,,,,,,,,,,,,,,,,,,,,,,,,,,,,,,,,,,,,,,,,,,,0.61388886,-0.35,0,0,0,0.011073039997427259,None,,,101,2023-04-17_15h15.42.275,Main,2022.1.1,60.955539029549094,
negative,neutral,2,j,l,,,,,,,,,0,0,0,12,,,,,,,162.9225585000022,None,main,1,1,2,neutral,negative,l,l,1,0.8946580000047106,164.92756850000296,165.93929750000098,165.92041620000236,None,164.92756850000296,None,164.92756850000296,None,164.92756850000296,None,166.82008174000367,None,166.82008174000367,None,166.82008174000367,None,,,,,,,,,,,,,,101,2023-04-17_15h15.42.275,Main,2022.1.1,60.955539029549094,
positive,positive,2,l,j,,,,,,,,,0,1,1,11,,,,,,,,,main,2,2,2,positive,positive,j,j,1,0.763509200005501,166.82757839999977,167.83661420000135,167.81994880000275,None,166.82757839999977,None,166.82757839999977,None,166.82757839999977,None,168.5866094400015,None,168.5866094400015,None,168.5866094400015,None,,,,,,,,,,,,,,101,2023-04-17_15h15.42.275,Main,2022.1.1,60.955539029549094,
negative,negative,2,j,l,,,,,,,,,0,2,2,9,,,,,,,,,main,2,2,2,negative,negative,l,l,1,0.7987237999986974,168.5866260000039,169.58662370000093,169.58662370000093,None,168.5866260000039,None,168.5866260000039,None,168.5866260000039,None,170.38660814000178,None,170.38660814000178,None,170.38660814000178,None,,,,,,,,,,,,,,101,2023-04-17_15h15.42.275,Main,2022.1.1,60.955539029549094,
neutral,neutral,1,k,k,,,,,,,,,0,3,3,1,,,,,,,,,main,1,1,1,neutral,neutral,k,k,1,0.6324938000034308,170.39116550000472,171.40325819999998,171.38658850000502,None,170.39116550000472,None,170.39116550000472,None,170.39116550000472,None,172.0199878399988,None,172.0199878399988,None,172.0199878399988,None,,,,,,,,,,,,,,101,2023-04-17_15h15.42.275,Main,2022.1.1,60.955539029549094,
neutral,positive,2,k,k,,,,,,,,,0,4,4,13,,,,,,,,,main,2,2,2,positive,neutral,k,k,1,0.6668177000028663,172.02485620000516,173.03911200000584,173.02243230000022,None,172.02485620000516,None,172.02485620000516,None,172.02485620000516,None,173.68900234000176,None,173.68900234000176,None,173.68900234000176,None,,,,,,,,,,,,,,101,2023-04-17_15h15.42.275,Main,2022.1.1,60.955539029549094,
negative,neutral,1,j,l,,,,,,,,,0,5,5,3,,,,,,,,,main,2,2,1,neutral,negative,l,l,1,0.6963947000040207,173.69233220000024,174.70564260000538,174.68901729999925,None,173.69233220000024,None,173.69233220000024,None,173.69233220000024,None,175.38686854000554,None,175.38686854000554,None,175.38686854000554,None,,,,,,,,,,,,,,101,2023-04-17_15h15.42.275,Main,2022.1.1,60.955539029549094,
positive,positive,1,l,j,,,,,,,,,0,6,6,2,,,,,,,,,main,2,2,1,positive,positive,j,j,1,0.6984284999998636,175.39289160000044,176.40348549999908,176.38903120000032,None,175.39289160000044,None,175.39289160000044,None,175.39289160000044,None,177.086823940005,None,177.086823940005,None,177.086823940005,None,,,,,,,,,,,,,,101,2023-04-17_15h15.42.275,Main,2022.1.1,60.955539029549094,
positive,negative,2,l,j,,,,,,,,,0,7,7,14,,,,,,,,,main,1,1,2,negative,positive,j,j,1,0.8835323000021162,177.09272269999929,178.10344910000276,178.0889124000023,None,177.09272269999929,None,177.09272269999929,None,177.09272269999929,None,178.97222323999887,None,178.97222323999887,None,178.97222323999887,None,,,,,,,,,,,,,,101,2023-04-17_15h15.42.275,Main,2022.1.1,60.955539029549094,
neutral,negative,1,k,k,,,,,,,,,0,8,8,7,,,,,,,,,main,1,1,1,negative,neutral,k,k,1,0.6127986999999848,178.9762339000008,179.98679520000587,179.97241000000213,None,178.9762339000008,None,178.9762339000008,None,178.9762339000008,None,180.5862983400046,None,180.5862983400046,None,180.5862983400046,None,,,,,,,,,,,,,,101,2023-04-17_15h15.42.275,Main,2022.1.1,60.955539029549094,
negative,positive,1,j,l,,,,,,,,,0,9,9,6,,,,,,,,,main,1,1,1,positive,negative,l,l,1,0.6817671999961021,180.58658890000515,181.58636269999988,181.58636269999988,None,180.58658890000515,None,180.58658890000515,None,180.58658890000515,None,182.2697438400035,None,182.2697438400035,None,182.2697438400035,None,,,,,,,,,,,,,,101,2023-04-17_15h15.42.275,Main,2022.1.1,60.955539029549094,
negative,negative,1,j,l,,,,,,,,,0,10,10,0,,,,,,,,,main,2,2,1,negative,negative,l,l,1,0.6997673000005307,182.27588670000114,183.28894860000582,183.26986880000186,None,182.27588670000114,None,182.27588670000114,None,182.27588670000114,None,183.97002424000385,None,183.97002424000385,None,183.97002424000385,None,,,,,,,,,,,,,,101,2023-04-17_15h15.42.275,Main,2022.1.1,60.955539029549094,
positive,neutral,2,l,j,,,,,,,,,0,11,11,17,,,,,,,,,main,2,2,2,neutral,positive,j,j,1,0.7314336999988882,183.97621440000512,184.9888457000052,184.97002470000007,None,183.97621440000512,None,183.97621440000512,None,183.97621440000512,None,185.70328534000583,None,185.70328534000583,None,185.70328534000583,None,,,,,,,,,,,,,,101,2023-04-17_15h15.42.275,Main,2022.1.1,60.955539029549094,
positive,negative,1,l,j,,,,,,,,,0,12,12,5,,,,,,,,,main,1,1,1,negative,positive,j,j,1,0.6664210000017192,185.7098485000024,186.72204160000547,186.70544230000087,None,185.7098485000024,None,185.7098485000024,None,185.7098485000024,None,187.3722399400038,None,187.3722399400038,None,187.3722399400038,None,,,,,,,,,,,,,,101,2023-04-17_15h15.42.275,Main,2022.1.1,60.955539029549094,
neutral,positive,1,k,k,,,,,,,,,0,13,13,4,,,,,,,,,main,1,1,1,positive,neutral,k,k,1,0.6497729000038817,187.3756057999999,188.38884680000047,188.37211519999983,None,187.3756057999999,None,187.3756057999999,None,187.3756057999999,None,189.02368963999908,None,189.02368963999908,None,189.02368963999908,None,,,,,,,,,,,,,,101,2023-04-17_15h15.42.275,Main,2022.1.1,60.955539029549094,
neutral,negative,2,k,k,,,,,,,,,0,14,14,16,,,,,,,,,main,1,1,2,negative,neutral,k,k,1,0.7274946999968961,189.02716710000095,190.03866779999953,190.0221118000045,None,189.02716710000095,None,189.02716710000095,None,189.02716710000095,None,190.75283693999955,None,190.75283693999955,None,190.75283693999955,None,,,,,,,,,,,,,,101,2023-04-17_15h15.42.275,Main,2022.1.1,60.955539029549094,
positive,neutral,1,l,j,,,,,,,,,0,15,15,8,,,,,,,,,main,1,1,1,neutral,positive,j,j,1,0.7815441000057035,190.75295180000103,191.75282349999907,191.75282349999907,None,190.75295180000103,None,190.75295180000103,None,190.75295180000103,None,192.53619604000124,None,192.53619604000124,None,192.53619604000124,None,,,,,,,,,,,,,,101,2023-04-17_15h15.42.275,Main,2022.1.1,60.955539029549094,
neutral,neutral,2,k,k,,,,,,,,,0,16,16,10,,,,,,,,,main,1,1,2,neutral,neutral,k,k,1,0.6320587000009255,192.53951940000115,193.53873749999912,193.53873749999912,None,192.53951940000115,None,192.53951940000115,None,192.53951940000115,None,194.16981654000557,None,194.16981654000557,None,194.16981654000557,None,,,,,,,,,,,,,,101,2023-04-17_15h15.42.275,Main,2022.1.1,60.955539029549094,
negative,positive,2,j,l,,,,,,,,,0,17,17,15,,,,,,,,,main,2,2,2,positive,negative,l,l,1,0.7151486000002478,194.17361100000562,195.18871370000124,195.1720079000006,None,194.17361100000562,None,194.17361100000562,None,194.17361100000562,None,195.88644024000388,None,195.88644024000388,None,195.88644024000388,None,,,,,,,,,,,,,,101,2023-04-17_15h15.42.275,Main,2022.1.1,60.955539029549094,
positive,negative,1,l,j,,,,,,,,,1,0,18,5,,,,,,,,,main,1,1,1,negative,positive,j,j,1,0.8144084000014118,195.89248410000437,196.90526630000386,196.88858460000483,None,195.89248410000437,None,195.89248410000437,None,195.89248410000437,None,197.70275674000442,None,197.70275674000442,None,197.70275674000442,None,,,,,,,,,,,,,,101,2023-04-17_15h15.42.275,Main,2022.1.1,60.955539029549094,
neutral,positive,1,k,k,,,,,,,,,1,1,19,4,,,,,,,,,main,2,2,1,positive,neutral,k,k,1,0.7490016000010655,197.7093043000059,198.72193930000503,198.70530850000068,None,197.7093043000059,None,197.7093043000059,None,197.7093043000059,None,199.45305133999938,None,199.45305133999938,None,199.45305133999938,None,,,,,,,,,,,,,,101,2023-04-17_15h15.42.275,Main,2022.1.1,60.955539029549094,
negative,negative,2,j,l,,,,,,,,,1,2,20,9,,,,,,,,,main,2,2,2,negative,negative,l,l,1,0.7973684000025969,199.4591400999998,200.47189480000088,200.45525330000237,None,199.4591400999998,None,199.4591400999998,None,199.4591400999998,None,201.2522121400005,None,201.2522121400005,None,201.2522121400005,None,,,,,,,,,,,,,,101,2023-04-17_15h15.42.275,Main,2022.1.1,60.955539029549094,
negative,neutral,2,j,l,,,,,,,,,1,3,21,12,,,,,,,,,main,2,2,2,neutral,negative,l,l,1,0.8821070000049076,201.26796210000612,202.26929490000475,202.25260210000124,None,201.26796210000612,None,201.26796210000612,None,201.26796210000612,None,203.135920739999,None,203.135920739999,None,203.135920739999,None,,,,,,,,,,,,,,101,2023-04-17_15h15.42.275,Main,2022.1.1,60.955539029549094,
positive,positive,1,l,j,,,,,,,,,1,4,22,2,,,,,,,,,main,2,2,1,positive,positive,j,j,1,0.6984175000034156,203.13603460000013,204.13849019999907,204.13849019999907,None,203.13603460000013,None,203.13603460000013,None,203.13603460000013,None,204.8359595400005,None,204.8359595400005,None,204.8359595400005,None,,,,,,,,,,,,,,101,2023-04-17_15h15.42.275,Main,2022.1.1,60.955539029549094,
negative,negative,1,j,l,,,,,,,,,1,5,23,0,,,,,,,,,main,1,1,1,negative,negative,l,l,1,0.9845696999982465,204.84219400000438,205.85501070000464,205.8385156000004,None,204.84219400000438,None,204.84219400000438,None,204.84219400000438,None,206.82185614000338,None,206.82185614000338,None,206.82185614000338,None,,,,,,,,,,,,,,101,2023-04-17_15h15.42.275,Main,2022.1.1,60.955539029549094,
neutral,positive,2,k,k,,,,,,,,,1,6,24,13,,,,,,,,,main,2,2,2,positive,neutral,k,k,1,0.7126220000063768,206.82559440000477,207.8384270000024,207.82176810000237,None,206.82559440000477,None,206.82559440000477,None,206.82559440000477,None,208.53620494000353,None,208.53620494000353,None,208.53620494000353,None,,,,,,,,,,,,,,101,2023-04-17_15h15.42.275,Main,2022.1.1,60.955539029549094,
positive,negative,2,l,j,,,,,,,,,1,7,25,14,,,,,,,,,main,2,2,2,negative,positive,j,j,1,0.9481837999992422,208.54226870000275,209.55497780000587,209.53843010000128,None,208.54226870000275,None,208.54226870000275,None,208.54226870000275,None,210.48615744000273,None,210.48615744000273,None,210.48615744000273,None,,,,,,,,,,,,,,101,2023-04-17_15h15.42.275,Main,2022.1.1,60.955539029549094,
neutral,negative,1,k,k,,,,,,,,,1,8,26,7,,,,,,,,,main,2,2,1,negative,neutral,k,k,1,0.6980107000053977,210.4897551000031,211.497168599999,211.4749918000016,None,210.4897551000031,None,210.4897551000031,None,210.4897551000031,None,212.18573264000298,None,212.18573264000298,None,212.18573264000298,None,,,,,,,,,,,,,,101,2023-04-17_15h15.42.275,Main,2022.1.1,60.955539029549094,
neutral,negative,2,k,k,,,,,,,,,1,9,27,16,,,,,,,,,main,2,2,2,negative,neutral,k,k,1,1.4485876000035205,212.18583149999904,213.18572700000368,213.18572700000368,None,212.18583149999904,None,212.18583149999904,None,212.18583149999904,None,214.63605794000324,None,214.63605794000324,None,214.63605794000324,None,,,,,,,,,,,,,,101,2023-04-17_15h15.42.275,Main,2022.1.1,60.955539029549094,
neutral,neutral,1,k,k,,,,,,,,,1,10,28,1,,,,,,,,,main,2,2,1,neutral,neutral,k,k,1,0.7549841000000015,214.64160980000452,215.65487500000017,215.63826770000014,None,214.64160980000452,None,214.64160980000452,None,214.64160980000452,None,216.39205864000252,None,216.39205864000252,None,216.39205864000252,None,,,,,,,,,,,,,,101,2023-04-17_15h15.42.275,Main,2022.1.1,60.955539029549094,
negative,positive,1,j,l,,,,,,,,,1,11,29,6,,,,,,,,,main,2,2,1,positive,negative,l,l,1,0.7593259999994189,216.397578600001,217.4026673000044,217.38600230000156,None,216.397578600001,None,216.397578600001,None,216.397578600001,None,218.15233793999943,None,218.15233793999943,None,218.15233793999943,None,,,,,,,,,,,,,,101,2023-04-17_15h15.42.275,Main,2022.1.1,60.955539029549094,
neutral,neutral,2,k,k,,,,,,,,,1,12,30,10,,,,,,,,,main,1,1,2,neutral,neutral,k,k,1,0.6974590999961947,218.15946540000004,219.17149670000072,219.15489660000458,None,218.15946540000004,None,218.15946540000004,None,218.15946540000004,None,219.85264134000028,None,219.85264134000028,None,219.85264134000028,None,,,,,,,,,,,,,,101,2023-04-17_15h15.42.275,Main,2022.1.1,60.955539029549094,
negative,neutral,1,j,l,,,,,,,,,1,13,31,3,,,,,,,,,main,2,2,1,neutral,negative,l,l,1,0.847985599997628,219.85885560000315,220.87149850000424,220.85260320000089,None,219.85885560000315,None,219.85885560000315,None,219.85885560000315,None,221.7022533400057,None,221.7022533400057,None,221.7022533400057,None,,,,,,,,,,,,,,101,2023-04-17_15h15.42.275,Main,2022.1.1,60.955539029549094,
positive,neutral,1,l,j,,,,,,,,,1,14,32,8,,,,,,,,,main,1,1,1,neutral,positive,j,j,1,0.6982277999995858,221.70864460000303,222.71886060000543,222.70217660000344,None,221.70864460000303,None,221.70864460000303,None,221.70864460000303,None,223.4021687399989,None,223.4021687399989,None,223.4021687399989,None,,,,,,,,,,,,,,101,2023-04-17_15h15.42.275,Main,2022.1.1,60.955539029549094,
negative,positive,2,j,l,,,,,,,,,1,15,33,15,,,,,,,,,main,1,1,2,positive,negative,l,l,1,0.7651736999978311,223.40219150000485,224.40221140000358,224.40221140000358,None,223.40219150000485,None,223.40219150000485,None,223.40219150000485,None,225.16886704000063,None,225.16886704000063,None,225.16886704000063,None,,,,,,,,,,,,,,101,2023-04-17_15h15.42.275,Main,2022.1.1,60.955539029549094,
positive,positive,2,l,j,,,,,,,,,1,16,34,11,,,,,,,,,main,2,2,2,positive,positive,j,j,1,0.8152040999993915,225.17475270000432,226.18805560000328,226.17133130000002,None,225.17475270000432,None,225.17475270000432,None,225.17475270000432,None,226.98579164000404,None,226.98579164000404,None,226.98579164000404,None,,,,,,,,,,,,,,101,2023-04-17_15h15.42.275,Main,2022.1.1,60.955539029549094,
positive,neutral,2,l,j,,,,,,,,,1,17,35,17,,,,,,,,,main,2,2,2,neutral,positive,j,j,1,0.6986964999960037,226.99036070000147,228.00465619999886,227.9880811000039,None,226.99036070000147,None,226.99036070000147,None,226.99036070000147,None,228.68579154000037,None,228.68579154000037,None,228.68579154000037,None,,,,,,,,,,,,,,101,2023-04-17_15h15.42.275,Main,2022.1.1,60.955539029549094,
neutral,neutral,1,k,k,,,,,,,,,2,0,36,1,,,,,,,,,main,2,2,1,neutral,neutral,k,k,1,0.6315918000036618,228.68939089999913,229.70454840000457,229.68796600000496,None,228.68939089999913,None,228.68939089999913,None,228.68939089999913,None,230.31907704000042,None,230.31907704000042,None,230.31907704000042,None,,,,,,,,,,,,,,101,2023-04-17_15h15.42.275,Main,2022.1.1,60.955539029549094,
positive,positive,2,l,j,,,,,,,,,2,1,37,11,,,,,,,,,main,2,2,2,positive,positive,j,j,1,0.7338280000039958,230.32368320000387,231.3378970000049,231.3213268000036,None,230.32368320000387,None,230.32368320000387,None,230.32368320000387,None,232.05452873999894,None,232.05452873999894,None,232.05452873999894,None,,,,,,,,,,,,,,101,2023-04-17_15h15.42.275,Main,2022.1.1,60.955539029549094,
neutral,neutral,2,k,k,,,,,,,,,2,2,38,10,,,,,,,,,main,1,1,2,neutral,neutral,k,k,1,0.6957516000038595,232.05813180000405,233.06863330000488,233.05197150000458,None,232.05813180000405,None,232.05813180000405,None,232.05813180000405,None,233.75197144000123,None,233.75197144000123,None,233.75197144000123,None,,,,,,,,,,,,,,101,2023-04-17_15h15.42.275,Main,2022.1.1,60.955539029549094,
positive,neutral,2,l,j,,,,,,,,,2,3,39,17,,,,,,,,,main,2,2,2,neutral,positive,j,j,1,0.6485409000015352,233.75219820000348,234.75202430000354,234.75202430000354,None,233.75219820000348,None,233.75219820000348,None,233.75219820000348,None,235.4021681400016,None,235.4021681400016,None,235.4021681400016,None,,,,,,,,,,,,,,101,2023-04-17_15h15.42.275,Main,2022.1.1,60.955539029549094,
neutral,positive,2,k,k,,,,,,,,,2,4,40,13,,,,,,,,,main,1,1,2,positive,neutral,k,k,1,0.6840521000049193,235.4086135000034,236.42113190000237,236.40445660000114,None,235.4086135000034,None,235.4086135000034,None,235.4086135000034,None,237.08772124000535,None,237.08772124000535,None,237.08772124000535,None,,,,,,,,,,,,,,101,2023-04-17_15h15.42.275,Main,2022.1.1,60.955539029549094,
positive,neutral,1,l,j,,,,,,,,,2,5,41,8,,,,,,,,,main,1,1,1,neutral,positive,j,j,1,0.629454199995962,237.0909862000044,238.10446990000491,238.08773569999903,None,237.0909862000044,None,237.0909862000044,None,237.0909862000044,None,238.71893523999898,None,238.71893523999898,None,238.71893523999898,None,,,,,,,,,,,,,,101,2023-04-17_15h15.42.275,Main,2022.1.1,60.955539029549094,
positive,positive,1,l,j,,,,,,,,,2,6,42,2,,,,,,,,,main,2,2,1,positive,positive,j,j,1,0.6674083999969298,238.72514210000372,239.73766250000335,239.7210297999991,None,238.72514210000372,None,238.72514210000372,None,238.72514210000372,None,240.38759154000292,None,240.38759154000292,None,240.38759154000292,None,,,,,,,,,,,,,,101,2023-04-17_15h15.42.275,Main,2022.1.1,60.955539029549094,
neutral,negative,2,k,k,,,,,,,,,2,7,43,16,,,,,,,,,main,2,2,2,negative,neutral,k,k,1,0.6786389999979292,240.39205510000465,241.40428870000324,241.38768490000075,None,240.39205510000465,None,240.39205510000465,None,240.39205510000465,None,242.06882194000065,None,242.06882194000065,None,242.06882194000065,None,,,,,,,,,,,,,,101,2023-04-17_15h15.42.275,Main,2022.1.1,60.955539029549094,
neutral,positive,1,k,k,,,,,,,,,2,8,44,4,,,,,,,,,main,2,2,1,positive,neutral,k,k,1,0.6314184999937424,242.0724296000044,243.08509990000312,243.0517550000004,None,242.0724296000044,None,242.0724296000044,None,242.0724296000044,None,243.70174644000218,None,243.70174644000218,None,243.70174644000218,None,,,,,,,,,,,,,,101,2023-04-17_15h15.42.275,Main,2022.1.1,60.955539029549094,
positive,negative,1,l,j,,,,,,,,,2,9,45,5,,,,,,,,,main,1,1,1,negative,positive,j,j,1,0.7316089000014472,243.70220289999997,244.70177580000018,244.70177580000018,None,243.70220289999997,None,243.70220289999997,None,243.70220289999997,None,245.4350979400013,None,245.4350979400013,None,245.4350979400013,None,,,,,,,,,,,,,,101,2023-04-17_15h15.42.275,Main,2022.1.1,60.955539029549094,
negative,negative,1,j,l,,,,,,,,,2,10,46,0,,,,,,,,,main,2,2,1,negative,negative,l,l,1,0.8986048000006122,245.4360414000039,246.4351020000031,246.4351020000031,None,245.4360414000039,None,245.4360414000039,None,245.4360414000039,None,247.33509634000512,None,247.33509634000512,None,247.33509634000512,None,,,,,,,,,,,,,,101,2023-04-17_15h15.42.275,Main,2022.1.1,60.955539029549094,
positive,negative,2,l,j,,,,,,,,,2,11,47,14,,,,,,,,,main,2,2,2,negative,positive,j,j,1,0.7322954000046593,247.34089930000482,248.3542918000021,248.3376253000024,None,247.34089930000482,None,247.34089930000482,None,247.34089930000482,None,249.06924974000577,None,249.06924974000577,None,249.06924974000577,None,,,,,,,,,,,,,,101,2023-04-17_15h15.42.275,Main,2022.1.1,60.955539029549094,
negative,neutral,1,j,l,,,,,,,,,2,12,48,3,,,,,,,,,main,1,1,1,neutral,negative,l,l,1,0.7155984000055469,249.07549660000223,250.0874638000023,250.07091460000083,None,249.07549660000223,None,249.07549660000223,None,249.07549660000223,None,250.785108040004,None,250.785108040004,None,250.785108040004,None,,,,,,,,,,,,,,101,2023-04-17_15h15.42.275,Main,2022.1.1,60.955539029549094,
neutral,negative,1,k,k,,,,,,,,,2,13,49,7,,,,,,,,,main,1,1,1,negative,neutral,k,k,1,0.6807408000022406,250.79254260000016,251.80416400000104,251.78751780000312,None,250.79254260000016,None,250.79254260000016,None,250.79254260000016,None,252.4686529400031,None,252.4686529400031,None,252.4686529400031,None,,,,,,,,,,,,,,101,2023-04-17_15h15.42.275,Main,2022.1.1,60.955539029549094,
negative,neutral,2,j,l,,,,,,,,,2,14,50,12,,,,,,,,,main,2,2,2,neutral,negative,l,l,1,0.9172050999986823,252.47294189999957,253.48749820000376,253.4709168000045,None,252.47294189999957,None,252.47294189999957,None,252.47294189999957,None,254.3873995400034,None,254.3873995400034,None,254.3873995400034,None,,,,,,,,,,,,,,101,2023-04-17_15h15.42.275,Main,2022.1.1,60.955539029549094,
negative,positive,1,j,l,,,,,,,,,2,15,51,6,,,,,,,,,main,1,1,1,positive,negative,l,l,1,0.7624661999943783,254.39082930000586,255.40415320000466,255.38743670000258,None,254.39082930000586,None,254.39082930000586,None,254.39082930000586,None,256.1515182400006,None,256.1515182400006,None,256.1515182400006,None,,,,,,,,,,,,,,101,2023-04-17_15h15.42.275,Main,2022.1.1,60.955539029549094,
negative,positive,2,j,l,,,,,,,,,2,16,52,15,,,,,,,,,main,1,1,2,positive,negative,l,l,1,0.7315230000021984,256.1515214000028,257.15151690000494,257.15151690000494,None,256.1515214000028,None,256.1515214000028,None,256.1515214000028,None,257.88486824000285,None,257.88486824000285,None,257.88486824000285,None,,,,,,,,,,,,,,101,2023-04-17_15h15.42.275,Main,2022.1.1,60.955539029549094,
negative,negative,2,j,l,,,,,,,,,2,17,53,9,,,,,,,,,main,1,1,2,negative,negative,l,l,1,0.7010554000007687,257.88785170000483,258.8873010000025,258.87073310000414,None,257.88785170000483,None,257.88785170000483,None,257.88785170000483,None,259.58743763999956,None,259.58743763999956,None,259.58743763999956,None,,,,,,,,,,,,,,101,2023-04-17_15h15.42.275,Main,2022.1.1,60.955539029549094,
positive,negative,2,l,j,,,,,,,,,3,0,54,14,,,,,,,,,main,1,1,2,negative,positive,j,j,1,0.7629904999994324,259.5914163000052,260.6040084000051,260.58736730000237,None,259.5914163000052,None,259.5914163000052,None,259.5914163000052,None,261.3521656400015,None,261.3521656400015,None,261.3521656400015,None,,,,,,,,,,,,,,101,2023-04-17_15h15.42.275,Main,2022.1.1,60.955539029549094,
neutral,neutral,2,k,k,,,,,,,,,3,1,55,10,,,,,,,,,main,2,2,2,neutral,neutral,k,k,1,0.6339240000015707,261.3586606000026,262.3705893000006,262.35403110000334,None,261.3586606000026,None,261.3586606000026,None,261.3586606000026,None,262.98746444000136,None,262.98746444000136,None,262.98746444000136,None,,,,,,,,,,,,,,101,2023-04-17_15h15.42.275,Main,2022.1.1,60.955539029549094,
neutral,positive,1,k,k,,,,,,,,,3,2,56,4,,,,,,,,,main,1,1,1,positive,neutral,k,k,1,0.6792525999990175,262.9908983999994,264.0039792000025,263.98728730000585,None,262.9908983999994,None,262.9908983999994,None,262.9908983999994,None,264.6683944400036,None,264.6683944400036,None,264.6683944400036,None,,,,,,,,,,,,,,101,2023-04-17_15h15.42.275,Main,2022.1.1,60.955539029549094,
positive,neutral,2,l,j,,,,,,,,,3,3,57,17,,,,,,,,,main,2,2,2,neutral,positive,j,j,1,0.8306130999990273,264.6735689000052,265.68720510000276,265.670641100005,None,264.6735689000052,None,264.6735689000052,None,264.6735689000052,None,266.5012607400029,None,266.5012607400029,None,266.5012607400029,None,,,,,,,,,,,,,,101,2023-04-17_15h15.42.275,Main,2022.1.1,60.955539029549094,
neutral,positive,2,k,k,,,,,,,,,3,4,58,13,,,,,,,,,main,1,1,2,positive,neutral,k,k,1,0.7152461000005133,266.5012862000003,267.50130750000244,267.50130750000244,None,266.5012862000003,None,266.5012862000003,None,266.5012862000003,None,268.21800704000344,None,268.21800704000344,None,268.21800704000344,None,,,,,,,,,,,,,,101,2023-04-17_15h15.42.275,Main,2022.1.1,60.955539029549094,
negative,positive,2,j,l,,,,,,,,,3,5,59,15,,,,,,,,,main,2,2,2,positive,negative,l,l,1,0.7680934000018169,268.2214330000061,269.2205036000014,269.2205036000014,None,268.2214330000061,None,268.2214330000061,None,268.2214330000061,None,269.98729854000413,None,269.98729854000413,None,269.98729854000413,None,,,,,,,,,,,,,,101,2023-04-17_15h15.42.275,Main,2022.1.1,60.955539029549094,
negative,negative,1,j,l,,,,,,,,,3,6,60,0,,,,,,,,,main,1,1,1,negative,negative,l,l,1,0.7146979000026477,269.99499240000296,271.003801400002,270.98707950000244,None,269.99499240000296,None,269.99499240000296,None,269.99499240000296,None,271.70383873999964,None,271.70383873999964,None,271.70383873999964,None,,,,,,,,,,,,,,101,2023-04-17_15h15.42.275,Main,2022.1.1,60.955539029549094,
negative,negative,2,j,l,,,,,,,,,3,7,61,9,,,,,,,,,main,1,1,2,negative,negative,l,l,1,0.6814339999982622,271.70870339999965,272.7204564999993,272.7038332000011,None,271.70870339999965,None,271.70870339999965,None,271.70870339999965,None,273.38693684000174,None,273.38693684000174,None,273.38693684000174,None,,,,,,,,,,,,,,101,2023-04-17_15h15.42.275,Main,2022.1.1,60.955539029549094,
neutral,negative,2,k,k,,,,,,,,,3,8,62,16,,,,,,,,,main,1,1,2,negative,neutral,k,k,1,0.7841010999982245,273.38998880000145,274.4037543000013,274.38702600000397,None,273.38998880000145,None,273.38998880000145,None,273.38998880000145,None,275.16985914000253,None,275.16985914000253,None,275.16985914000253,None,,,,,,,,,,,,,,101,2023-04-17_15h15.42.275,Main,2022.1.1,60.955539029549094,
negative,neutral,1,j,l,,,,,,,,,3,9,63,3,,,,,,,,,main,1,1,1,neutral,negative,l,l,1,0.776440100002219,275.17697050000424,276.18344150000485,276.18344150000485,None,275.17697050000424,None,275.17697050000424,None,275.17697050000424,None,276.9511072400026,None,276.9511072400026,None,276.9511072400026,None,,,,,,,,,,,,,,101,2023-04-17_15h15.42.275,Main,2022.1.1,60.955539029549094,
neutral,neutral,1,k,k,,,,,,,,,3,10,64,1,,,,,,,,,main,1,1,1,neutral,neutral,k,k,1,0.7644219000067096,276.9516022000025,277.9511091000022,277.9511091000022,None,276.9516022000025,None,276.9516022000025,None,276.9516022000025,None,278.71778114000045,None,278.71778114000045,None,278.71778114000045,None,,,,,,,,,,,,,,101,2023-04-17_15h15.42.275,Main,2022.1.1,60.955539029549094,
positive,positive,2,l,j,,,,,,,,,3,11,65,11,,,,,,,,,main,2,2,2,positive,positive,j,j,1,0.781948800002283,278.71822280000197,279.71777710000606,279.71777710000606,None,278.71822280000197,None,278.71822280000197,None,278.71822280000197,None,280.5010582400035,None,280.5010582400035,None,280.5010582400035,None,,,,,,,,,,,,,,101,2023-04-17_15h15.42.275,Main,2022.1.1,60.955539029549094,
negative,neutral,2,j,l,,,,,,,,,3,12,66,12,,,,,,,,,main,2,2,2,neutral,negative,l,l,1,0.8820645999949193,280.50462849999894,281.50374400000146,281.50374400000146,None,280.50462849999894,None,280.50462849999894,None,280.50462849999894,None,282.38474134000427,None,282.38474134000427,None,282.38474134000427,None,,,,,,,,,,,,,,101,2023-04-17_15h15.42.275,Main,2022.1.1,60.955539029549094,
positive,neutral,1,l,j,,,,,,,,,3,13,67,8,,,,,,,,,main,2,2,1,neutral,positive,j,j,1,0.883749299995543,282.39116990000184,283.40346910000517,283.38696500000515,None,282.39116990000184,None,282.39116990000184,None,282.39116990000184,None,284.27007894000127,None,284.27007894000127,None,284.27007894000127,None,,,,,,,,,,,,,,101,2023-04-17_15h15.42.275,Main,2022.1.1,60.955539029549094,
positive,negative,1,l,j,,,,,,,,,3,14,68,5,,,,,,,,,main,1,1,1,negative,positive,j,j,1,0.7629428999935044,284.27351310000086,285.2866700000013,285.2701464999991,None,284.27351310000086,None,284.27351310000086,None,284.27351310000086,None,286.03458984000173,None,286.03458984000173,None,286.03458984000173,None,,,,,,,,,,,,,,101,2023-04-17_15h15.42.275,Main,2022.1.1,60.955539029549094,
neutral,negative,1,k,k,,,,,,,,,3,15,69,7,,,,,,,,,main,1,1,1,negative,neutral,k,k,1,0.6819545999969705,286.03799560000334,287.0533801000056,287.03683140000066,None,286.03799560000334,None,286.03799560000334,None,286.03799560000334,None,287.7178969400018,None,287.7178969400018,None,287.7178969400018,None,,,,,,,,,,,,,,101,2023-04-17_15h15.42.275,Main,2022.1.1,60.955539029549094,
positive,positive,1,l,j,,,,,,,,,3,16,70,2,,,,,,,,,main,2,2,1,positive,positive,j,j,1,0.8144842000037897,287.7367895999996,288.7508448000008,288.71750710000197,None,287.7367895999996,None,287.7367895999996,None,287.7367895999996,None,289.53417024000083,None,289.53417024000083,None,289.53417024000083,None,,,,,,,,,,,,,,101,2023-04-17_15h15.42.275,Main,2022.1.1,60.955539029549094,
negative,positive,1,j,l,,,,,,,,,3,17,71,6,,,,,,,,,main,1,1,1,positive,negative,l,l,1,0.8485203999953228,289.5360260000016,290.55087740000454,290.5341827000011,None,289.5360260000016,None,289.5360260000016,None,289.5360260000016,None,291.3842331400054,None,291.3842331400054,None,291.3842331400054,None,,,,,,,,,,,,,,101,2023-04-17_15h15.42.275,Main,2022.1.1,60.955539029549094,
positive,positive,2,l,j,,,,,,,,,4,0,72,11,,,,,,,,,main,1,1,2,positive,positive,j,j,1,0.800914899999043,291.38654959999985,292.4008498000039,292.3841800000009,None,291.38654959999985,None,291.38654959999985,None,291.38654959999985,None,293.186617340002,None,293.186617340002,None,293.186617340002,None,,,,,,,,,,,,,,101,2023-04-17_15h15.42.275,Main,2022.1.1,60.955539029549094,
negative,neutral,2,j,l,,,,,,,,,4,1,73,12,,,,,,,,,main,2,2,2,neutral,negative,l,l,1,0.7960101999997278,293.1903392000022,294.20338730000367,294.18671220000397,None,293.1903392000022,None,293.1903392000022,None,293.1903392000022,None,294.9845673400021,None,294.9845673400021,None,294.9845673400021,None,,,,,,,,,,,,,,101,2023-04-17_15h15.42.275,Main,2022.1.1,60.955539029549094,
negative,neutral,1,j,l,,,,,,,,,4,2,74,3,,,,,,,,,main,2,2,1,neutral,negative,l,l,1,0.6987412000016775,294.9904342000009,296.0033074000021,295.9866187000007,None,294.9904342000009,None,294.9904342000009,None,294.9904342000009,None,296.6844885400031,None,296.6844885400031,None,296.6844885400031,None,,,,,,,,,,,,,,101,2023-04-17_15h15.42.275,Main,2022.1.1,60.955539029549094,
neutral,positive,2,k,k,,,,,,,,,4,3,75,13,,,,,,,,,main,2,2,2,positive,neutral,k,k,1,0.783739999998943,296.69075840000005,297.7011085000049,297.6866741000049,None,296.69075840000005,None,296.69075840000005,None,296.69075840000005,None,298.46991074000545,None,298.46991074000545,None,298.46991074000545,None,,,,,,,,,,,,,,101,2023-04-17_15h15.42.275,Main,2022.1.1,60.955539029549094,
positive,positive,1,l,j,,,,,,,,,4,4,76,2,,,,,,,,,main,2,2,1,positive,positive,j,j,1,0.679683299997123,298.4744334999996,299.48649470000237,299.4676651000045,None,298.4744334999996,None,298.4744334999996,None,298.4744334999996,None,300.1521731400033,None,300.1521731400033,None,300.1521731400033,None,,,,,,,,,,,,,,101,2023-04-17_15h15.42.275,Main,2022.1.1,60.955539029549094,
positive,neutral,1,l,j,,,,,,,,,4,5,77,8,,,,,,,,,main,2,2,1,neutral,positive,j,j,1,0.580391099996632,300.1577690000049,301.1673047000004,301.1506312000056,None,300.1577690000049,None,300.1577690000049,None,300.1577690000049,None,301.73393153999933,None,301.73393153999933,None,301.73393153999933,None,,,,,,,,,,,,,,101,2023-04-17_15h15.42.275,Main,2022.1.1,60.955539029549094,
neutral,neutral,1,k,k,,,,,,,,,4,6,78,1,,,,,,,,,main,1,1,1,neutral,neutral,k,k,1,0.731715299996722,301.73394969999936,302.73397440000554,302.73397440000554,None,301.73394969999936,None,301.73394969999936,None,301.73394969999936,None,303.46724384000555,None,303.46724384000555,None,303.46724384000555,None,,,,,,,,,,,,,,101,2023-04-17_15h15.42.275,Main,2022.1.1,60.955539029549094,
neutral,negative,2,k,k,,,,,,,,,4,7,79,16,,,,,,,,,main,1,1,2,negative,neutral,k,k,1,0.648355299999821,303.4675817000025,304.467266700005,304.467266700005,None,303.4675817000025,None,303.4675817000025,None,303.4675817000025,None,305.1172597400044,None,305.1172597400044,None,305.1172597400044,None,,,,,,,,,,,,,,101,2023-04-17_15h15.42.275,Main,2022.1.1,60.955539029549094,
positive,negative,1,l,j,,,,,,,,,4,8,80,5,,,,,,,,,main,2,2,1,negative,positive,j,j,1,0.7514164000021992,305.13393240000005,306.1363236000034,306.11970600000495,None,305.13393240000005,None,305.13393240000005,None,305.13393240000005,None,306.8696959400011,None,306.8696959400011,None,306.8696959400011,None,,,,,,,,,,,,,,101,2023-04-17_15h15.42.275,Main,2022.1.1,60.955539029549094,
neutral,negative,1,k,k,,,,,,,,,4,9,81,7,,,,,,,,,main,1,1,1,negative,neutral,k,k,1,0.6618801000004169,306.8738149000055,307.8864670000039,307.86971760000597,None,306.8738149000055,None,306.8738149000055,None,306.8738149000055,None,308.53415464000574,None,308.53415464000574,None,308.53415464000574,None,,,,,,,,,,,,,,101,2023-04-17_15h15.42.275,Main,2022.1.1,60.955539029549094,
negative,positive,2,j,l,,,,,,,,,4,10,82,15,,,,,,,,,main,2,2,2,positive,negative,l,l,1,1.0152319999979227,308.5397011000023,309.55306440000277,309.5363689000005,None,308.5397011000023,None,308.5397011000023,None,308.5397011000023,None,310.5508096400052,None,310.5508096400052,None,310.5508096400052,None,,,,,,,,,,,,,,101,2023-04-17_15h15.42.275,Main,2022.1.1,60.955539029549094,
neutral,positive,1,k,k,,,,,,,,,4,11,83,4,,,,,,,,,main,1,1,1,positive,neutral,k,k,1,0.9473512999975355,310.5573869,311.56959890000144,311.5530343999999,None,310.5573869,None,310.5573869,None,310.5573869,None,312.500723740003,None,312.500723740003,None,312.500723740003,None,,,,,,,,,,,,,,101,2023-04-17_15h15.42.275,Main,2022.1.1,60.955539029549094,
positive,negative,2,l,j,,,,,,,,,4,12,84,14,,,,,,,,,main,2,2,2,negative,positive,j,j,1,0.9481320999984746,312.50677080000605,313.5170414000022,313.5003641000003,None,312.50677080000605,None,312.50677080000605,None,312.50677080000605,None,314.45034344000015,None,314.45034344000015,None,314.45034344000015,None,,,,,,,,,,,,,,101,2023-04-17_15h15.42.275,Main,2022.1.1,60.955539029549094,
positive,neutral,2,l,j,,,,,,,,,4,13,85,17,,,,,,,,,main,1,1,2,neutral,positive,j,j,1,0.699636899997131,314.45031780000136,315.4503765000045,315.4503765000045,None,314.45031780000136,None,314.45031780000136,None,314.45031780000136,None,316.1516924400028,None,316.1516924400028,None,316.1516924400028,None,,,,,,,,,,,,,,101,2023-04-17_15h15.42.275,Main,2022.1.1,60.955539029549094,
negative,negative,2,j,l,,,,,,,,,4,14,86,9,,,,,,,,,main,2,2,2,negative,negative,l,l,1,0.8478631000034511,316.15735600000335,317.1695056000026,317.1529088000025,None,316.15735600000335,None,316.15735600000335,None,316.15735600000335,None,318.0007277400044,None,318.0007277400044,None,318.0007277400044,None,,,,,,,,,,,,,,101,2023-04-17_15h15.42.275,Main,2022.1.1,60.955539029549094,
neutral,neutral,2,k,k,,,,,,,,,4,15,87,10,,,,,,,,,main,1,1,2,neutral,neutral,k,k,1,0.683368199999677,318.00658430000476,319.0195262000052,319.0029244000034,None,318.00658430000476,None,318.00658430000476,None,318.00658430000476,None,319.6860209400009,None,319.6860209400009,None,319.6860209400009,None,,,,,,,,,,,,,,101,2023-04-17_15h15.42.275,Main,2022.1.1,60.955539029549094,
negative,positive,1,j,l,,,,,,,,,4,16,88,6,,,,,,,,,main,1,1,1,positive,negative,l,l,1,0.7798126999987289,319.69017480000184,320.7027364000023,320.68600990000414,None,319.69017480000184,None,319.69017480000184,None,319.69017480000184,None,321.4672468399993,None,321.4672468399993,None,321.4672468399993,None,,,,,,,,,,,,,,101,2023-04-17_15h15.42.275,Main,2022.1.1,60.955539029549094,
negative,negative,1,j,l,,,,,,,,,4,17,89,0,,,,,,,,,main,2,2,1,negative,negative,l,l,1,0.7091572999997879,321.47305939999933,322.4860239000045,322.4693533000027,None,321.47305939999933,None,321.47305939999933,None,321.47305939999933,None,323.1769191399988,None,323.1769191399988,None,323.1769191399988,None,,,,,,,,,,,,,,101,2023-04-17_15h15.42.275,Main,2022.1.1,60.955539029549094,
neutral,positive,1,k,k,,,,,,,,,5,0,90,4,,,,,,,,,main,2,2,1,positive,neutral,k,k,1,0.6707098999977461,323.1938416000048,324.2001056000008,324.16677280000295,None,323.1938416000048,None,323.1938416000048,None,323.1938416000048,None,324.8501516400036,None,324.8501516400036,None,324.8501516400036,None,,,,,,,,,,,,,,101,2023-04-17_15h15.42.275,Main,2022.1.1,60.955539029549094,
negative,neutral,2,j,l,,,,,,,,,5,1,91,12,,,,,,,,,main,2,2,2,neutral,negative,l,l,1,0.7176809999946272,324.85045309999987,325.85266380000394,325.85266380000394,None,324.85045309999987,None,324.85045309999987,None,324.85045309999987,None,326.5695396400013,None,326.5695396400013,None,326.5695396400013,None,,,,,,,,,,,,,,101,2023-04-17_15h15.42.275,Main,2022.1.1,60.955539029549094,
positive,neutral,2,l,j,,,,,,,,,5,2,92,17,,,,,,,,,main,2,2,2,neutral,positive,j,j,1,0.5820594000033452,326.57406990000163,327.5838057000001,327.56934220000403,None,326.57406990000163,None,326.57406990000163,None,326.57406990000163,None,328.15262753999997,None,328.15262753999997,None,328.15262753999997,None,,,,,,,,,,,,,,101,2023-04-17_15h15.42.275,Main,2022.1.1,60.955539029549094,
neutral,positive,2,k,k,,,,,,,,,5,3,93,13,,,,,,,,,main,2,2,2,positive,neutral,k,k,1,0.596009500004584,328.1567260000011,329.1692043000003,329.1526821000007,None,328.1567260000011,None,328.1567260000011,None,328.1567260000011,None,329.7504896400031,None,329.7504896400031,None,329.7504896400031,None,,,,,,,,,,,,,,101,2023-04-17_15h15.42.275,Main,2022.1.1,60.955539029549094,
neutral,neutral,2,k,k,,,,,,,,,5,4,94,10,,,,,,,,,main,1,1,2,neutral,neutral,k,k,1,0.6646532000013394,329.7541685000033,330.769168800005,330.752602200002,None,329.7541685000033,None,329.7541685000033,None,329.7541685000033,None,331.4170196400053,None,331.4170196400053,None,331.4170196400053,None,,,,,,,,,,,,,,101,2023-04-17_15h15.42.275,Main,2022.1.1,60.955539029549094,
negative,positive,1,j,l,,,,,,,,,5,5,95,6,,,,,,,,,main,1,1,1,positive,negative,l,l,1,0.6162817000003997,331.42077260000224,332.435739200002,332.4192586999998,None,331.42077260000224,None,331.42077260000224,None,331.42077260000224,None,333.0336347400051,None,333.0336347400051,None,333.0336347400051,None,,,,,,,,,,,,,,101,2023-04-17_15h15.42.275,Main,2022.1.1,60.955539029549094,
positive,negative,1,l,j,,,,,,,,,5,6,96,5,,,,,,,,,main,1,1,1,negative,positive,j,j,1,0.7801657000018167,333.0398506999991,334.0498932000046,334.0332350000026,None,333.0398506999991,None,333.0398506999991,None,333.0398506999991,None,334.8165747400024,None,334.8165747400024,None,334.8165747400024,None,,,,,,,,,,,,,,101,2023-04-17_15h15.42.275,Main,2022.1.1,60.955539029549094,
negative,positive,2,j,l,,,,,,,,,5,7,97,15,,,,,,,,,main,1,1,2,positive,negative,l,l,1,1.465449000002991,334.8167695000011,335.8166033000016,335.8166033000016,None,334.8167695000011,None,334.8167695000011,None,334.8167695000011,None,337.2832506400053,None,337.2832506400053,None,337.2832506400053,None,,,,,,,,,,,,,,101,2023-04-17_15h15.42.275,Main,2022.1.1,60.955539029549094,
positive,negative,2,l,j,,,,,,,,,5,8,98,14,,,,,,,,,main,1,1,2,negative,positive,j,j,1,0.9814132999963476,337.2896758000061,338.3025545000055,338.28325710000354,None,337.2896758000061,None,337.2896758000061,None,337.2896758000061,None,339.26671554000205,None,339.26671554000205,None,339.26671554000205,None,,,,,,,,,,,,,,101,2023-04-17_15h15.42.275,Main,2022.1.1,60.955539029549094,
positive,positive,1,l,j,,,,,,,,,5,9,99,2,,,,,,,,,main,2,2,1,positive,positive,j,j,1,0.765254099998856,339.28563980000035,340.2856449000028,340.2691618000026,None,339.28563980000035,None,339.28563980000035,None,339.28563980000035,None,341.0334962400055,None,341.0334962400055,None,341.0334962400055,None,,,,,,,,,,,,,,101,2023-04-17_15h15.42.275,Main,2022.1.1,60.955539029549094,
positive,neutral,1,l,j,,,,,,,,,5,10,100,8,,,,,,,,,main,2,2,1,neutral,positive,j,j,1,0.5672286999979406,341.0374216000055,342.05233430000226,342.0356952000002,None,341.0374216000055,None,341.0374216000055,None,341.0374216000055,None,342.602460540006,None,342.602460540006,None,342.602460540006,None,,,,,,,,,,,,,,101,2023-04-17_15h15.42.275,Main,2022.1.1,60.955539029549094,
negative,negative,2,j,l,,,,,,,,,5,11,101,9,,,,,,,,,main,1,1,2,negative,negative,l,l,1,1.5459811999971862,342.6052229000052,343.6191120000003,343.6023478999996,None,342.6052229000052,None,342.6052229000052,None,342.6052229000052,None,345.1501239999998,None,345.1501239999998,None,345.1501239999998,None,,,,,,,,,,,,,,101,2023-04-17_15h15.42.275,Main,2022.1.1,60.955539029549094,
neutral,neutral,1,k,k,,,,,,,,,5,12,102,1,,,,,,,,,main,1,1,1,neutral,neutral,k,k,1,0.7713616000037291,346.1497185000044,347.149694300002,347.13302430000476,None,346.1497185000044,None,346.1497185000044,None,346.1497185000044,None,347.91635214000127,None,347.91635214000127,None,347.91635214000127,None,,,,,,,,,,,,,,101,2023-04-17_15h15.42.275,Main,2022.1.1,60.955539029549094,
negative,negative,1,j,l,,,,,,,,,5,13,103,0,,,,,,,,,main,1,1,1,negative,negative,l,l,1,0.8307452000008198,347.91836510000576,348.9330201000048,348.91635379999934,None,347.91836510000576,None,347.91836510000576,None,347.91836510000576,None,349.7496764400028,None,349.7496764400028,None,349.7496764400028,None,,,,,,,,,,,,,,101,2023-04-17_15h15.42.275,Main,2022.1.1,60.955539029549094,
neutral,negative,1,k,k,,,,,,,,,5,14,104,7,,,,,,,,,main,1,1,1,negative,neutral,k,k,1,0.7007020000019111,349.7559526000041,350.76882320000004,350.752298899999,None,349.7559526000041,None,349.7559526000041,None,349.7559526000041,None,351.4523155399991,None,351.4523155399991,None,351.4523155399991,None,,,,,,,,,,,,,,101,2023-04-17_15h15.42.275,Main,2022.1.1,60.955539029549094,
negative,neutral,1,j,l,,,,,,,,,5,15,105,3,,,,,,,,,main,2,2,1,neutral,negative,l,l,1,0.8649804000015138,351.45600790000026,352.46885140000086,352.4522272000031,None,351.45600790000026,None,351.45600790000026,None,351.45600790000026,None,353.31884244000395,None,353.31884244000395,None,353.31884244000395,None,,,,,,,,,,,,,,101,2023-04-17_15h15.42.275,Main,2022.1.1,60.955539029549094,
neutral,negative,2,k,k,,,,,,,,,5,16,106,16,,,,,,,,,main,1,1,2,negative,neutral,k,k,1,0.8293390999970143,353.3227117999995,354.3332679000014,354.31877290000557,None,353.3227117999995,None,353.3227117999995,None,353.3227117999995,None,355.14985074,None,355.14985074,None,355.14985074,None,,,,,,,,,,,,,,101,2023-04-17_15h15.42.275,Main,2022.1.1,60.955539029549094,
positive,positive,2,l,j,,,,,,,,,5,17,107,11,,,,,,,,,main,1,1,2,positive,positive,j,j,1,0.7151205999980448,355.15579110000544,356.1686362000037,356.1498668999993,None,355.15579110000544,None,355.15579110000544,None,355.15579110000544,None,356.86649224000286,None,356.86649224000286,None,356.86649224000286,None,,,,,,,,,,,,,,101,2023-04-17_15h15.42.275,Main,2022.1.1,60.955539029549094,
positive,neutral,2,l,j,,,,,,,,,6,0,108,17,,,,,,,,,main,2,2,2,neutral,positive,j,j,1,0.6478857999973116,356.8724132999996,357.88275770000473,357.8660846000057,None,356.8724132999996,None,356.8724132999996,None,356.8724132999996,None,358.5160912399995,None,358.5160912399995,None,358.5160912399995,None,,,,,,,,,,,,,,101,2023-04-17_15h15.42.275,Main,2022.1.1,60.955539029549094,
negative,neutral,1,j,l,,,,,,,,,6,1,109,3,,,,,,,,,main,1,1,1,neutral,negative,l,l,1,0.9319524000020465,358.5178169999999,359.5327815000055,359.51612880000175,None,358.5178169999999,None,358.5178169999999,None,358.5178169999999,None,360.44942764000444,None,360.44942764000444,None,360.44942764000444,None,,,,,,,,,,,,,,101,2023-04-17_15h15.42.275,Main,2022.1.1,60.955539029549094,
negative,negative,1,j,l,,,,,,,,,6,2,110,0,,,,,,,,,main,2,2,1,negative,negative,l,l,1,0.7679111000034027,360.45106189999933,361.4661354999989,361.4494677000039,None,360.45106189999933,None,360.45106189999933,None,360.45106189999933,None,362.2187739400004,None,362.2187739400004,None,362.2187739400004,None,,,,,,,,,,,,,,101,2023-04-17_15h15.42.275,Main,2022.1.1,60.955539029549094,
neutral,neutral,1,k,k,,,,,,,,,6,3,111,1,,,,,,,,,main,1,1,1,neutral,neutral,k,k,1,0.8458204999988084,362.22313199999917,363.23536330000206,363.21874180000304,None,362.22313199999917,None,362.22313199999917,None,362.22313199999917,None,364.0663475400041,None,364.0663475400041,None,364.0663475400041,None,,,,,,,,,,,,,,101,2023-04-17_15h15.42.275,Main,2022.1.1,60.955539029549094,
neutral,positive,2,k,k,,,,,,,,,6,4,112,13,,,,,,,,,main,1,1,2,positive,neutral,k,k,1,0.817274399996677,364.0723364000005,365.08507290000125,365.06852410000283,None,364.0723364000005,None,364.0723364000005,None,364.0723364000005,None,365.88526813999925,None,365.88526813999925,None,365.88526813999925,None,,,,,,,,,,,,,,101,2023-04-17_15h15.42.275,Main,2022.1.1,60.955539029549094,
positive,positive,2,l,j,,,,,,,,,6,5,113,11,,,,,,,,,main,2,2,2,positive,positive,j,j,1,0.8295725999996648,365.88831400000345,366.90186800000083,366.88525310000114,None,365.88831400000345,None,365.88831400000345,None,365.88831400000345,None,367.7163023400033,None,367.7163023400033,None,367.7163023400033,None,,,,,,,,,,,,,,101,2023-04-17_15h15.42.275,Main,2022.1.1,60.955539029549094,
neutral,negative,1,k,k,,,,,,,,,6,6,114,7,,,,,,,,,main,1,1,1,negative,neutral,k,k,1,0.6670255999997607,367.72003390000464,368.735124800005,368.7184707000051,None,367.72003390000464,None,367.72003390000464,None,367.72003390000464,None,369.3850157400055,None,369.3850157400055,None,369.3850157400055,None,,,,,,,,,,,,,,101,2023-04-17_15h15.42.275,Main,2022.1.1,60.955539029549094,
negative,negative,2,j,l,,,,,,,,,6,7,115,9,,,,,,,,,main,1,1,2,negative,negative,l,l,1,0.7633619999978691,369.38888040000165,370.3991826000056,370.38251180000225,None,369.38888040000165,None,369.38888040000165,None,369.38888040000165,None,371.14919664000337,None,371.14919664000337,None,371.14919664000337,None,,,,,,,,,,,,,,101,2023-04-17_15h15.42.275,Main,2022.1.1,60.955539029549094,
neutral,neutral,2,k,k,,,,,,,,,6,8,116,10,,,,,,,,,main,2,2,2,neutral,neutral,k,k,1,0.6642375000010361,371.15109010000015,372.16585979999945,372.1492192000005,None,371.15109010000015,None,371.15109010000015,None,371.15109010000015,None,372.8158712400007,None,372.8158712400007,None,372.8158712400007,None,,,,,,,,,,,,,,101,2023-04-17_15h15.42.275,Main,2022.1.1,60.955539029549094,
neutral,negative,2,k,k,,,,,,,,,6,9,117,16,,,,,,,,,main,2,2,2,negative,neutral,k,k,1,0.6670555999953649,372.81632090000494,373.81586719999905,373.81586719999905,None,372.81632090000494,None,372.81632090000494,None,372.81632090000494,None,374.4842129400029,None,374.4842129400029,None,374.4842129400029,None,,,,,,,,,,,,,,101,2023-04-17_15h15.42.275,Main,2022.1.1,60.955539029549094,
positive,neutral,1,l,j,,,,,,,,,6,10,118,8,,,,,,,,,main,2,2,1,neutral,positive,j,j,1,0.7155424000011408,374.48982909999904,375.501737700004,375.48501980000583,None,374.48982909999904,None,374.48982909999904,None,374.48982909999904,None,376.2016232400027,None,376.2016232400027,None,376.2016232400027,None,,,,,,,,,,,,,,101,2023-04-17_15h15.42.275,Main,2022.1.1,60.955539029549094,
positive,negative,1,l,j,,,,,,,,,6,11,119,5,,,,,,,,,main,2,2,1,negative,positive,j,j,1,0.715011800006323,376.20509550000133,377.2181777000005,377.19950190000236,None,376.20509550000133,None,376.20509550000133,None,376.20509550000133,None,377.9182755400005,None,377.9182755400005,None,377.9182755400005,None,,,,,,,,,,,,,,101,2023-04-17_15h15.42.275,Main,2022.1.1,60.955539029549094,
neutral,positive,1,k,k,,,,,,,,,6,12,120,4,,,,,,,,,main,2,2,1,positive,neutral,k,k,1,0.8461375000042608,377.9218259000045,378.9349438999998,378.9182187000042,None,377.9218259000045,None,377.9218259000045,None,377.9218259000045,None,379.766064940003,None,379.766064940003,None,379.766064940003,None,,,,,,,,,,,,,,101,2023-04-17_15h15.42.275,Main,2022.1.1,60.955539029549094,
positive,positive,1,l,j,,,,,,,,,6,13,121,2,,,,,,,,,main,1,1,1,positive,positive,j,j,1,0.7503779999969993,379.7699320000029,380.78494740000315,380.7683066000027,None,379.7699320000029,None,379.7699320000029,None,379.7699320000029,None,381.5181393400024,None,381.5181393400024,None,381.5181393400024,None,,,,,,,,,,,,,,101,2023-04-17_15h15.42.275,Main,2022.1.1,60.955539029549094,
negative,positive,1,j,l,,,,,,,,,6,14,122,6,,,,,,,,,main,2,2,1,positive,negative,l,l,1,0.8791622999997344,381.52162600000156,382.53230380000605,382.51563590000296,None,381.52162600000156,None,381.52162600000156,None,381.52162600000156,None,383.39892953999953,None,383.39892953999953,None,383.39892953999953,None,,,,,,,,,,,,,,101,2023-04-17_15h15.42.275,Main,2022.1.1,60.955539029549094,
negative,neutral,2,j,l,,,,,,,,,6,15,123,12,,,,,,,,,main,2,2,2,neutral,negative,l,l,1,0.8649812000003294,383.39906370000244,384.39895660000184,384.39895660000184,None,383.39906370000244,None,383.39906370000244,None,383.39906370000244,None,385.26559913999955,None,385.26559913999955,None,385.26559913999955,None,,,,,,,,,,,,,,101,2023-04-17_15h15.42.275,Main,2022.1.1,60.955539029549094,
negative,positive,2,j,l,,,,,,,,,6,16,124,15,,,,,,,,,main,1,1,2,positive,negative,l,l,1,0.6649827000001096,385.2685726000054,386.2682885000031,386.2682885000031,None,385.2685726000054,None,385.2685726000054,None,385.2685726000054,None,386.93265934000084,None,386.93265934000084,None,386.93265934000084,None,,,,,,,,,,,,,,101,2023-04-17_15h15.42.275,Main,2022.1.1,60.955539029549094,
positive,negative,2,l,j,,,,,,,,,6,17,125,14,,,,,,,,,main,2,2,2,negative,positive,j,j,1,0.8172522000022582,386.93878530000075,387.95146500000556,387.9348470000041,None,386.93878530000075,None,386.93878530000075,None,386.93878530000075,None,388.75155874000194,None,388.75155874000194,None,388.75155874000194,None,,,,,,,,,,,,,,101,2023-04-17_15h15.42.275,Main,2022.1.1,60.955539029549094,
positive,neutral,2,l,j,,,,,,,,,7,0,126,17,,,,,,,,,main,1,1,2,neutral,positive,j,j,1,0.8146514999971259,388.7562403000047,389.7681020000018,389.7514009000006,None,388.7562403000047,None,388.7562403000047,None,388.7562403000047,None,390.5679454400059,None,390.5679454400059,None,390.5679454400059,None,,,,,,,,,,,,,,101,2023-04-17_15h15.42.275,Main,2022.1.1,60.955539029549094,
positive,negative,2,l,j,,,,,,,,,7,1,127,14,,,,,,,,,main,2,2,2,negative,positive,j,j,1,0.7124463000000105,390.57132610000554,391.5846423000039,391.568079100005,None,390.57132610000554,None,390.57132610000554,None,390.57132610000554,None,392.2821547399988,None,392.2821547399988,None,392.2821547399988,None,,,,,,,,,,,,,,101,2023-04-17_15h15.42.275,Main,2022.1.1,60.955539029549094,
positive,negative,1,l,j,,,,,,,,,7,2,128,5,,,,,,,,,main,2,2,1,negative,positive,j,j,1,0.5859751000025426,392.28842330000043,393.30122150000534,393.2846172999998,None,392.28842330000043,None,392.28842330000043,None,392.28842330000043,None,393.869663140006,None,393.869663140006,None,393.869663140006,None,,,,,,,,,,,,,,101,2023-04-17_15h15.42.275,Main,2022.1.1,60.955539029549094,
positive,positive,1,l,j,,,,,,,,,7,3,129,2,,,,,,,,,main,1,1,1,positive,positive,j,j,1,0.6441604000065126,393.88224180000543,394.88202920000185,394.8653464000017,None,393.88224180000543,None,393.88224180000543,None,393.88224180000543,None,395.51531354000036,None,395.51531354000036,None,395.51531354000036,None,,,,,,,,,,,,,,101,2023-04-17_15h15.42.275,Main,2022.1.1,60.955539029549094,
negative,neutral,1,j,l,,,,,,,,,7,4,130,3,,,,,,,,,main,2,2,1,neutral,negative,l,l,1,0.7485168000057456,395.51590489999944,396.51539810000395,396.51539810000395,None,395.51590489999944,None,395.51590489999944,None,395.51590489999944,None,397.2653709400009,None,397.2653709400009,None,397.2653709400009,None,,,,,,,,,,,,,,101,2023-04-17_15h15.42.275,Main,2022.1.1,60.955539029549094,
neutral,negative,2,k,k,,,,,,,,,7,5,131,16,,,,,,,,,main,2,2,2,negative,neutral,k,k,1,1.1987942999985535,397.26763900000515,398.2820535999999,398.2653754000057,None,397.26763900000515,None,397.26763900000515,None,397.26763900000515,None,399.46568614000427,None,399.46568614000427,None,399.46568614000427,None,,,,,,,,,,,,,,101,2023-04-17_15h15.42.275,Main,2022.1.1,60.955539029549094,
negative,neutral,2,j,l,,,,,,,,,7,6,132,12,,,,,,,,,main,1,1,2,neutral,negative,l,l,1,0.7340428000024986,399.47172250000585,400.4844776000027,400.4678731000022,None,399.47172250000585,None,399.47172250000585,None,399.47172250000585,None,401.2013743399992,None,401.2013743399992,None,401.2013743399992,None,,,,,,,,,,,,,,101,2023-04-17_15h15.42.275,Main,2022.1.1,60.955539029549094,
negative,positive,2,j,l,,,,,,,,,7,7,133,15,,,,,,,,,main,2,2,2,positive,negative,l,l,1,0.8457691000003251,401.20531409999967,402.21786900000006,402.20116970000527,None,401.20531409999967,None,401.20531409999967,None,401.20531409999967,None,403.04891544000276,None,403.04891544000276,None,403.04891544000276,None,,,,,,,,,,,,,,101,2023-04-17_15h15.42.275,Main,2022.1.1,60.955539029549094,
negative,negative,1,j,l,,,,,,,,,7,8,134,0,,,,,,,,,main,1,1,1,negative,negative,l,l,1,0.6651481000008062,403.0550882000025,404.0677438000057,404.0511553000033,None,403.0550882000025,None,403.0550882000025,None,403.0550882000025,None,404.71551554000035,None,404.71551554000035,None,404.71551554000035,None,,,,,,,,,,,,,,101,2023-04-17_15h15.42.275,Main,2022.1.1,60.955539029549094,
negative,negative,2,j,l,,,,,,,,,7,9,135,9,,,,,,,,,main,2,2,2,negative,negative,l,l,1,0.79882070000167,404.72149139999965,405.7344140999994,405.7176521000001,None,404.72149139999965,None,404.72149139999965,None,404.72149139999965,None,406.51517013999984,None,406.51517013999984,None,406.51517013999984,None,,,,,,,,,,,,,,101,2023-04-17_15h15.42.275,Main,2022.1.1,60.955539029549094,
positive,neutral,1,l,j,,,,,,,,,7,10,136,8,,,,,,,,,main,2,2,1,neutral,positive,j,j,1,0.7651234000004479,406.51732540000376,407.531773900002,407.515140800002,None,406.51732540000376,None,406.51732540000376,None,406.51732540000376,None,408.28179363999953,None,408.28179363999953,None,408.28179363999953,None,,,,,,,,,,,,,,101,2023-04-17_15h15.42.275,Main,2022.1.1,60.955539029549094,
neutral,neutral,2,k,k,,,,,,,,,7,11,137,10,,,,,,,,,main,2,2,2,neutral,neutral,k,k,1,0.6805957999968086,408.2835960000011,409.29845580000256,409.2817735999997,None,408.2835960000011,None,408.2835960000011,None,408.2835960000011,None,409.96513864000445,None,409.96513864000445,None,409.96513864000445,None,,,,,,,,,,,,,,101,2023-04-17_15h15.42.275,Main,2022.1.1,60.955539029549094,
neutral,positive,2,k,k,,,,,,,,,7,12,138,13,,,,,,,,,main,2,2,2,positive,neutral,k,k,1,0.6510401000050479,409.9693668000036,410.98441170000297,410.9676452000058,None,409.9693668000036,None,409.9693668000036,None,409.9693668000036,None,411.6174820400018,None,411.6174820400018,None,411.6174820400018,None,,,,,,,,,,,,,,101,2023-04-17_15h15.42.275,Main,2022.1.1,60.955539029549094,
neutral,neutral,1,k,k,,,,,,,,,7,13,139,1,,,,,,,,,main,1,1,1,neutral,neutral,k,k,1,0.681546799998614,411.6208131000021,412.6342205000037,412.6176038000049,None,411.6208131000021,None,411.6208131000021,None,411.6208131000021,None,413.3008657400031,None,413.3008657400031,None,413.3008657400031,None,,,,,,,,,,,,,,101,2023-04-17_15h15.42.275,Main,2022.1.1,60.955539029549094,
neutral,positive,1,k,k,,,,,,,,,7,14,140,4,,,,,,,,,main,1,1,1,positive,neutral,k,k,1,0.6631618000028539,413.30399380000017,414.31760300000315,414.3009117000038,None,413.30399380000017,None,413.30399380000017,None,413.30399380000017,None,414.9653692399996,None,414.9653692399996,None,414.9653692399996,None,,,,,,,,,,,,,,101,2023-04-17_15h15.42.275,Main,2022.1.1,60.955539029549094,
positive,positive,2,l,j,,,,,,,,,7,15,141,11,,,,,,,,,main,1,1,2,positive,positive,j,j,1,0.7311793999979272,414.9691421000025,415.9840958000059,415.9675942000031,None,414.9691421000025,None,414.9691421000025,None,414.9691421000025,None,416.69830654000253,None,416.69830654000253,None,416.69830654000253,None,,,,,,,,,,,,,,101,2023-04-17_15h15.42.275,Main,2022.1.1,60.955539029549094,
negative,positive,1,j,l,,,,,,,,,7,16,142,6,,,,,,,,,main,2,2,1,positive,negative,l,l,1,0.7988929000057396,416.7046790000022,417.71744939999917,417.7008427000037,None,416.7046790000022,None,416.7046790000022,None,416.7046790000022,None,418.4985548400044,None,418.4985548400044,None,418.4985548400044,None,,,,,,,,,,,,,,101,2023-04-17_15h15.42.275,Main,2022.1.1,60.955539029549094,
neutral,negative,1,k,k,,,,,,,,,7,17,143,7,,,,,,,,,main,1,1,1,negative,neutral,k,k,1,0.7645053000014741,418.50448130000586,419.51489470000524,419.49822490000224,None,418.50448130000586,None,418.50448130000586,None,418.50448130000586,None,420.2648408400026,None,420.2648408400026,None,420.2648408400026,None,,,,,,,,,,,,,,101,2023-04-17_15h15.42.275,Main,2022.1.1,60.955539029549094,
negative,positive,2,j,l,,,,,,,,,8,0,144,15,,,,,,,,,main,2,2,2,positive,negative,l,l,1,0.7822016999998596,420.26515389999986,421.2648954000033,421.2648954000033,None,420.26515389999986,None,420.26515389999986,None,420.26515389999986,None,422.048557840001,None,422.048557840001,None,422.048557840001,None,,,,,,,,,,,,,,101,2023-04-17_15h15.42.275,Main,2022.1.1,60.955539029549094,
neutral,neutral,2,k,k,,,,,,,,,8,1,145,10,,,,,,,,,main,2,2,2,neutral,neutral,k,k,1,0.7503356999950483,422.054526800006,423.0674063000042,423.05077359999996,None,422.054526800006,None,422.054526800006,None,422.054526800006,None,423.8007289400019,None,423.8007289400019,None,423.8007289400019,None,,,,,,,,,,,,,,101,2023-04-17_15h15.42.275,Main,2022.1.1,60.955539029549094,
positive,neutral,2,l,j,,,,,,,,,8,2,146,17,,,,,,,,,main,1,1,2,neutral,positive,j,j,1,0.8317029000027105,423.80466380000144,424.81515930000023,424.8007467999996,None,423.80466380000144,None,423.80466380000144,None,423.80466380000144,None,425.63405404000224,None,425.63405404000224,None,425.63405404000224,None,,,,,,,,,,,,,,101,2023-04-17_15h15.42.275,Main,2022.1.1,60.955539029549094,
positive,positive,1,l,j,,,,,,,,,8,3,147,2,,,,,,,,,main,2,2,1,positive,positive,j,j,1,0.6295307000036701,425.63728640000045,426.6507120000024,426.6339470000021,None,425.63728640000045,None,425.63728640000045,None,425.63728640000045,None,427.2651172400045,None,427.2651172400045,None,427.2651172400045,None,,,,,,,,,,,,,,101,2023-04-17_15h15.42.275,Main,2022.1.1,60.955539029549094,
neutral,negative,1,k,k,,,,,,,,,8,4,148,7,,,,,,,,,main,2,2,1,negative,neutral,k,k,1,0.6844321000025957,427.2694266000035,428.2838386000003,428.26724470000045,None,427.2694266000035,None,427.2694266000035,None,427.2694266000035,None,428.9510942400055,None,428.9510942400055,None,428.9510942400055,None,,,,,,,,,,,,,,101,2023-04-17_15h15.42.275,Main,2022.1.1,60.955539029549094,
negative,negative,1,j,l,,,,,,,,,8,5,149,0,,,,,,,,,main,2,2,1,negative,negative,l,l,1,0.8158509999993839,428.9647999000008,429.9646192,429.9479735000059,None,428.9647999000008,None,428.9647999000008,None,428.9647999000008,None,430.764585239999,None,430.764585239999,None,430.764585239999,None,,,,,,,,,,,,,,101,2023-04-17_15h15.42.275,Main,2022.1.1,60.955539029549094,
negative,positive,1,j,l,,,,,,,,,8,6,150,6,,,,,,,,,main,2,2,1,positive,negative,l,l,1,0.7454156999956467,430.7703739999997,431.7816976000031,431.7672948000036,None,430.7703739999997,None,430.7703739999997,None,430.7703739999997,None,432.51510934000254,None,432.51510934000254,None,432.51510934000254,None,,,,,,,,,,,,,,101,2023-04-17_15h15.42.275,Main,2022.1.1,60.955539029549094,
neutral,neutral,1,k,k,,,,,,,,,8,7,151,1,,,,,,,,,main,2,2,1,neutral,neutral,k,k,1,0.7156000000031781,432.521264300005,433.53387340000336,433.5170575000011,None,432.521264300005,None,432.521264300005,None,432.521264300005,None,434.233417940003,None,434.233417940003,None,434.233417940003,None,,,,,,,,,,,,,,101,2023-04-17_15h15.42.275,Main,2022.1.1,60.955539029549094,
positive,neutral,1,l,j,,,,,,,,,8,8,152,8,,,,,,,,,main,1,1,1,neutral,positive,j,j,1,0.6951471000065794,434.2383132000032,435.2504904000016,435.2337564000045,None,434.2383132000032,None,434.2383132000032,None,434.2383132000032,None,435.9312508400006,None,435.9312508400006,None,435.9312508400006,None,,,,,,,,,,,,,,101,2023-04-17_15h15.42.275,Main,2022.1.1,60.955539029549094,
neutral,positive,2,k,k,,,,,,,,,8,9,153,13,,,,,,,,,main,2,2,2,positive,neutral,k,k,1,0.76595819999784,435.9353736000048,436.9504684000058,436.917137000004,None,435.9353736000048,None,435.9353736000048,None,435.9353736000048,None,437.6981941400052,None,437.6981941400052,None,437.6981941400052,None,,,,,,,,,,,,,,101,2023-04-17_15h15.42.275,Main,2022.1.1,60.955539029549094,
neutral,negative,2,k,k,,,,,,,,,8,10,154,16,,,,,,,,,main,1,1,2,negative,neutral,k,k,1,0.7632471999968402,437.7032585000052,438.7170146999997,438.70045630000095,None,437.7032585000052,None,437.7032585000052,None,437.7032585000052,None,439.4648257400011,None,439.4648257400011,None,439.4648257400011,None,,,,,,,,,,,,,,101,2023-04-17_15h15.42.275,Main,2022.1.1,60.955539029549094,
neutral,positive,1,k,k,,,,,,,,,8,11,155,4,,,,,,,,,main,1,1,1,positive,neutral,k,k,1,0.6478354999999283,439.46859360000235,440.48106640000333,440.4644019000043,None,439.46859360000235,None,439.46859360000235,None,439.46859360000235,None,441.1144330400028,None,441.1144330400028,None,441.1144330400028,None,,,,,,,,,,,,,,101,2023-04-17_15h15.42.275,Main,2022.1.1,60.955539029549094,
negative,negative,2,j,l,,,,,,,,,8,12,156,9,,,,,,,,,main,2,2,2,negative,negative,l,l,1,0.7322223000010126,441.1144401999991,442.11447740000585,442.11447740000585,None,441.1144401999991,None,441.1144401999991,None,441.1144401999991,None,442.84812964000304,None,442.84812964000304,None,442.84812964000304,None,,,,,,,,,,,,,,101,2023-04-17_15h15.42.275,Main,2022.1.1,60.955539029549094,
positive,positive,2,l,j,,,,,,,,,8,13,157,11,,,,,,,,,main,1,1,2,positive,positive,j,j,1,0.833434699998179,442.854076100004,443.8670342000041,443.8503353000051,None,442.854076100004,None,442.854076100004,None,442.854076100004,None,444.68141054000154,None,444.68141054000154,None,444.68141054000154,None,,,,,,,,,,,,,,101,2023-04-17_15h15.42.275,Main,2022.1.1,60.955539029549094,
negative,neutral,2,j,l,,,,,,,,,8,14,158,12,,,,,,,,,main,1,1,2,neutral,negative,l,l,1,0.899310400003742,444.6864535000059,445.7002613000004,445.6835960000026,None,444.6864535000059,None,444.6864535000059,None,444.6864535000059,None,446.5840382400027,None,446.5840382400027,None,446.5840382400027,None,,,,,,,,,,,,,,101,2023-04-17_15h15.42.275,Main,2022.1.1,60.955539029549094,
positive,negative,1,l,j,,,,,,,,,8,15,159,5,,,,,,,,,main,2,2,1,negative,positive,j,j,1,0.8456924999991315,446.5887161999999,447.6002618000057,447.5813658000043,None,446.5887161999999,None,446.5887161999999,None,446.5887161999999,None,448.43133473999916,None,448.43133473999916,None,448.43133473999916,None,,,,,,,,,,,,,,101,2023-04-17_15h15.42.275,Main,2022.1.1,60.955539029549094,
negative,neutral,1,j,l,,,,,,,,,8,16,160,3,,,,,,,,,main,2,2,1,neutral,negative,l,k,0,0.649844799998391,448.4371625999993,449.45011770000565,449.4335684000034,None,448.4371625999993,None,448.4371625999993,None,448.4371625999993,None,450.0833946999992,None,450.0833946999992,None,450.0833946999992,None,,,,,,,,,,,,,,101,2023-04-17_15h15.42.275,Main,2022.1.1,60.955539029549094,
positive,negative,2,l,j,,,,,,,,,8,17,161,14,,,,,,,,,main,2,2,2,negative,positive,j,j,1,0.7370452000031946,451.0975827000002,452.09754339999927,452.08087720000185,None,451.0975827000002,None,451.0975827000002,None,451.0975827000002,None,452.83090954000073,None,452.83090954000073,None,452.83090954000073,None,,,,,,,,,,,,,,101,2023-04-17_15h15.42.275,Main,2022.1.1,60.955539029549094,
positive,neutral,2,l,j,,,,,,,,,9,0,162,17,,,,,,,,,main,2,2,2,neutral,positive,j,j,1,0.6007552000010037,452.83489980000013,453.85016449999966,453.8334332000013,None,452.83489980000013,None,452.83489980000013,None,452.83489980000013,None,454.43349464000204,None,454.43349464000204,None,454.43349464000204,None,,,,,,,,,,,,,,101,2023-04-17_15h15.42.275,Main,2022.1.1,60.955539029549094,
neutral,positive,2,k,k,,,,,,,,,9,1,163,13,,,,,,,,,main,1,1,2,positive,neutral,k,k,1,1.1792912999953842,454.43689290000475,455.4500885000016,455.4334607000055,None,454.43689290000475,None,454.43689290000475,None,454.43689290000475,None,456.6145226400011,None,456.6145226400011,None,456.6145226400011,None,,,,,,,,,,,,,,101,2023-04-17_15h15.42.275,Main,2022.1.1,60.955539029549094,
positive,negative,1,l,j,,,,,,,,,9,2,164,5,,,,,,,,,main,2,2,1,negative,positive,j,j,1,0.7819094000005862,456.6333636999989,457.63320300000487,457.6166902000041,None,456.6333636999989,None,456.6333636999989,None,456.6333636999989,None,458.3978464400032,None,458.3978464400032,None,458.3978464400032,None,,,,,,,,,,,,,,101,2023-04-17_15h15.42.275,Main,2022.1.1,60.955539029549094,
neutral,negative,2,k,k,,,,,,,,,9,3,165,16,,,,,,,,,main,1,1,2,negative,neutral,k,k,1,0.6153560999955516,458.4013679999989,459.41656850000436,459.4000440000018,None,458.4013679999989,None,458.4013679999989,None,458.4013679999989,None,460.01490153999913,None,460.01490153999913,None,460.01490153999913,None,,,,,,,,,,,,,,101,2023-04-17_15h15.42.275,Main,2022.1.1,60.955539029549094,
neutral,neutral,1,k,k,,,,,,,,,9,4,166,1,,,,,,,,,main,1,1,1,neutral,neutral,k,k,1,0.5974633000005269,460.020907099999,461.013987600003,461.00439120000374,None,460.020907099999,None,460.020907099999,None,460.020907099999,None,461.6139448400034,None,461.6139448400034,None,461.6139448400034,None,,,,,,,,,,,,,,101,2023-04-17_15h15.42.275,Main,2022.1.1,60.955539029549094,
positive,neutral,1,l,j,,,,,,,,,9,5,167,8,,,,,,,,,main,1,1,1,neutral,positive,j,j,1,0.6318879999962519,461.61407700000564,462.61401650000334,462.61401650000334,None,461.61407700000564,None,461.61407700000564,None,461.61407700000564,None,463.24738634000533,None,463.24738634000533,None,463.24738634000533,None,,,,,,,,,,,,,,101,2023-04-17_15h15.42.275,Main,2022.1.1,60.955539029549094,
negative,negative,1,j,l,,,,,,,,,9,6,168,0,,,,,,,,,main,2,2,1,negative,negative,l,l,1,0.8489840000038384,463.2507188000018,464.2499362000017,464.2499362000017,None,463.2507188000018,None,463.2507188000018,None,463.2507188000018,None,465.097657040006,None,465.097657040006,None,465.097657040006,None,,,,,,,,,,,,,,101,2023-04-17_15h15.42.275,Main,2022.1.1,60.955539029549094,
neutral,negative,1,k,k,,,,,,,,,9,7,169,7,,,,,,,,,main,2,2,1,negative,neutral,k,k,1,0.7337439999973867,465.10355880000134,466.11645250000583,466.09990830000606,None,465.10355880000134,None,465.10355880000134,None,465.10355880000134,None,466.8314513400008,None,466.8314513400008,None,466.8314513400008,None,,,,,,,,,,,,,,101,2023-04-17_15h15.42.275,Main,2022.1.1,60.955539029549094,
positive,negative,2,l,j,,,,,,,,,9,8,170,14,,,,,,,,,main,1,1,2,negative,positive,j,j,1,0.7964006000038353,466.8376382999995,467.84760140000435,467.8332389000061,None,466.8376382999995,None,466.8376382999995,None,466.8376382999995,None,468.63089784000186,None,468.63089784000186,None,468.63089784000186,None,,,,,,,,,,,,,,101,2023-04-17_15h15.42.275,Main,2022.1.1,60.955539029549094,
negative,positive,1,j,l,,,,,,,,,9,9,171,6,,,,,,,,,main,2,2,1,positive,negative,l,l,1,0.8819030999948154,468.6347142000013,469.64977770000405,469.63313900000503,None,468.6347142000013,None,468.6347142000013,None,468.6347142000013,None,470.51421104000184,None,470.51421104000184,None,470.51421104000184,None,,,,,,,,,,,,,,101,2023-04-17_15h15.42.275,Main,2022.1.1,60.955539029549094,
neutral,neutral,2,k,k,,,,,,,,,9,10,172,10,,,,,,,,,main,2,2,2,neutral,neutral,k,k,1,0.7475141000031726,470.520130900004,471.5304385000054,471.51377030000003,None,470.520130900004,None,470.520130900004,None,470.520130900004,None,472.26371953999916,None,472.26371953999916,None,472.26371953999916,None,,,,,,,,,,,,,,101,2023-04-17_15h15.42.275,Main,2022.1.1,60.955539029549094,
positive,positive,1,l,j,,,,,,,,,9,11,173,2,,,,,,,,,main,2,2,1,positive,positive,j,j,1,0.5671885999981896,472.26376710000477,473.2638372000001,473.2638372000001,None,472.26376710000477,None,472.26376710000477,None,472.26376710000477,None,473.83230454000005,None,473.83230454000005,None,473.83230454000005,None,,,,,,,,,,,,,,101,2023-04-17_15h15.42.275,Main,2022.1.1,60.955539029549094,
positive,positive,2,l,j,,,,,,,,,9,12,174,11,,,,,,,,,main,1,1,2,positive,positive,j,k,0,0.5969987999997102,473.83750950000103,474.8496801000001,474.83294520000345,None,473.83750950000103,None,473.83750950000103,None,473.83750950000103,None,475.43080990000453,None,475.43080990000453,None,475.43080990000453,None,,,,,,,,,,,,,,101,2023-04-17_15h15.42.275,Main,2022.1.1,60.955539029549094,
negative,neutral,2,j,l,,,,,,,,,9,13,175,12,,,,,,,,,main,1,1,2,neutral,negative,l,l,1,0.9183472000004258,476.43100300000515,477.4329027999993,477.4163030999989,None,476.43100300000515,None,476.43100300000515,None,476.43100300000515,None,478.3474182399994,None,478.3474182399994,None,478.3474182399994,None,,,,,,,,,,,,,,101,2023-04-17_15h15.42.275,Main,2022.1.1,60.955539029549094,
neutral,positive,1,k,k,,,,,,,,,9,14,176,4,,,,,,,,,main,2,2,1,positive,neutral,k,k,1,0.6977655999944545,478.3535164000059,479.3660865999991,479.3495564000041,None,478.3535164000059,None,478.3535164000059,None,478.3535164000059,None,480.04735564000003,None,480.04735564000003,None,480.04735564000003,None,,,,,,,,,,,,,,101,2023-04-17_15h15.42.275,Main,2022.1.1,60.955539029549094,
negative,neutral,1,j,l,,,,,,,,,9,15,177,3,,,,,,,,,main,2,2,1,neutral,negative,l,l,1,0.700755100006063,480.0510555000001,481.06615160000365,481.04950150000514,None,480.0510555000001,None,480.0510555000001,None,480.0510555000001,None,481.7495202399994,None,481.7495202399994,None,481.7495202399994,None,,,,,,,,,,,,,,101,2023-04-17_15h15.42.275,Main,2022.1.1,60.955539029549094,
negative,positive,2,j,l,,,,,,,,,9,16,178,15,,,,,,,,,main,1,1,2,positive,negative,l,l,1,0.7623282999993535,481.75339990000066,482.7635373000012,482.7468758000032,None,481.75339990000066,None,481.75339990000066,None,481.75339990000066,None,483.5135049400022,None,483.5135049400022,None,483.5135049400022,None,,,,,,,,,,,,,,101,2023-04-17_15h15.42.275,Main,2022.1.1,60.955539029549094,
negative,negative,2,j,l,,,,,,,,,9,17,179,9,,,,,,,,,main,1,1,2,negative,negative,l,l,1,0.6820290999967256,483.5136516999992,484.51359700000467,484.51359700000467,None,483.5136516999992,None,483.5136516999992,None,483.5136516999992,None,485.19729304000504,None,485.19729304000504,None,485.19729304000504,None,,,,,,,,,,,,,,101,2023-04-17_15h15.42.275,Main,2022.1.1,60.955539029549094,
positive,neutral,1,l,j,,,,,,,,,10,0,180,8,,,,,,,,,main,1,1,1,neutral,positive,j,j,1,0.6993288000012399,485.20327250000264,486.21600610000314,486.19943810000404,None,485.20327250000264,None,485.20327250000264,None,485.20327250000264,None,486.8972364400004,None,486.8972364400004,None,486.8972364400004,None,,,,,,,,,,,,,,101,2023-04-17_15h15.42.275,Main,2022.1.1,60.955539029549094,
neutral,negative,2,k,k,,,,,,,,,10,1,181,16,,,,,,,,,main,1,1,2,negative,neutral,k,k,1,0.6972746000028565,486.901262600004,487.9159521000038,487.89938390000316,None,486.901262600004,None,486.901262600004,None,486.901262600004,None,488.59717754000013,None,488.59717754000013,None,488.59717754000013,None,,,,,,,,,,,,,,101,2023-04-17_15h15.42.275,Main,2022.1.1,60.955539029549094,
neutral,positive,1,k,k,,,,,,,,,10,2,182,4,,,,,,,,,main,2,2,1,positive,neutral,k,k,1,0.6650321999986772,488.6033258000025,489.6159297000049,489.59930590000295,None,488.6033258000025,None,488.6033258000025,None,488.6033258000025,None,490.26349774000556,None,490.26349774000556,None,490.26349774000556,None,,,,,,,,,,,,,,101,2023-04-17_15h15.42.275,Main,2022.1.1,60.955539029549094,
positive,neutral,2,l,j,,,,,,,,,10,3,183,17,,,,,,,,,main,2,2,2,neutral,positive,j,j,1,0.7316701000017929,490.2673085999995,491.2825310000044,491.2659457000045,None,490.2673085999995,None,490.2673085999995,None,490.2673085999995,None,491.99677444000264,None,491.99677444000264,None,491.99677444000264,None,,,,,,,,,,,,,,101,2023-04-17_15h15.42.275,Main,2022.1.1,60.955539029549094,
neutral,negative,1,k,k,,,,,,,,,10,4,184,7,,,,,,,,,main,1,1,1,negative,neutral,k,k,1,0.6483156000031158,492.00612840000394,493.0133707999994,492.9967142000023,None,492.00612840000394,None,492.00612840000394,None,492.00612840000394,None,493.6466939400023,None,493.6466939400023,None,493.6466939400023,None,,,,,,,,,,,,,,101,2023-04-17_15h15.42.275,Main,2022.1.1,60.955539029549094,
positive,positive,2,l,j,,,,,,,,,10,5,185,11,,,,,,,,,main,2,2,2,positive,positive,j,j,1,0.6321065999945858,493.64685499999905,494.64671900000394,494.64671900000394,None,493.64685499999905,None,493.64685499999905,None,493.64685499999905,None,495.2804055400018,None,495.2804055400018,None,495.2804055400018,None,,,,,,,,,,,,,,101,2023-04-17_15h15.42.275,Main,2022.1.1,60.955539029549094,
negative,neutral,1,j,l,,,,,,,,,10,6,186,3,,,,,,,,,main,2,2,1,neutral,negative,l,l,1,0.8330325000060839,495.28560149999976,496.29929450000054,496.2826362000051,None,495.28560149999976,None,495.28560149999976,None,495.28560149999976,None,497.11590004000465,None,497.11590004000465,None,497.11590004000465,None,,,,,,,,,,,,,,101,2023-04-17_15h15.42.275,Main,2022.1.1,60.955539029549094,
negative,negative,2,j,l,,,,,,,,,10,7,187,9,,,,,,,,,main,2,2,2,negative,negative,l,l,1,0.6794033000041964,497.11980150000454,498.13243879999936,498.1159217000022,None,497.11980150000454,None,497.11980150000454,None,497.11980150000454,None,498.79705534000533,None,498.79705534000533,None,498.79705534000533,None,,,,,,,,,,,,,,101,2023-04-17_15h15.42.275,Main,2022.1.1,60.955539029549094,
positive,negative,1,l,j,,,,,,,,,10,8,188,5,,,,,,,,,main,2,2,1,negative,positive,j,j,1,0.7505329000050551,498.80306670000573,499.815674700003,499.79916510000476,None,498.80306670000573,None,498.80306670000573,None,498.80306670000573,None,500.5489738400036,None,500.5489738400036,None,500.5489738400036,None,,,,,,,,,,,,,,101,2023-04-17_15h15.42.275,Main,2022.1.1,60.955539029549094,
neutral,neutral,2,k,k,,,,,,,,,10,9,189,10,,,,,,,,,main,1,1,2,neutral,neutral,k,k,1,0.7294967999987421,500.55237070000294,501.56579359999887,501.5491153000039,None,500.55237070000294,None,500.55237070000294,None,500.55237070000294,None,502.28022874000163,None,502.28022874000163,None,502.28022874000163,None,,,,,,,,,,,,,,101,2023-04-17_15h15.42.275,Main,2022.1.1,60.955539029549094,
neutral,positive,2,k,k,,,,,,,,,10,10,190,13,,,,,,,,,main,1,1,2,positive,neutral,k,k,1,1.0316615999981877,502.2841520000002,503.2964725999991,503.26312220000545,None,502.2841520000002,None,502.2841520000002,None,502.2841520000002,None,504.3131358400031,None,504.3131358400031,None,504.3131358400031,None,,,,,,,,,,,,,,101,2023-04-17_15h15.42.275,Main,2022.1.1,60.955539029549094,
neutral,neutral,1,k,k,,,,,,,,,10,11,191,1,,,,,,,,,main,2,2,1,neutral,neutral,k,k,1,0.6482426000002306,504.3132317999989,505.3131798000031,505.3131798000031,None,504.3132317999989,None,504.3132317999989,None,504.3132317999989,None,505.96317644000084,None,505.96317644000084,None,505.96317644000084,None,,,,,,,,,,,,,,101,2023-04-17_15h15.42.275,Main,2022.1.1,60.955539029549094,
negative,negative,1,j,l,,,,,,,,,10,12,192,0,,,,,,,,,main,2,2,1,negative,negative,l,l,1,0.8155149000012898,505.966854600003,506.98232370000187,506.96563090000564,None,505.966854600003,None,505.966854600003,None,505.966854600003,None,507.7801778399997,None,507.7801778399997,None,507.7801778399997,None,,,,,,,,,,,,,,101,2023-04-17_15h15.42.275,Main,2022.1.1,60.955539029549094,
negative,neutral,2,j,l,,,,,,,,,10,13,193,12,,,,,,,,,main,2,2,2,neutral,negative,l,l,1,0.748605900000257,507.7862504000004,508.79885210000066,508.78013869999995,None,507.7862504000004,None,507.7862504000004,None,507.7862504000004,None,509.530061440001,None,509.530061440001,None,509.530061440001,None,,,,,,,,,,,,,,101,2023-04-17_15h15.42.275,Main,2022.1.1,60.955539029549094,
negative,positive,2,j,l,,,,,,,,,10,14,194,15,,,,,,,,,main,2,2,2,positive,negative,l,l,1,0.6336307999954442,509.535758900005,510.5488792000033,510.53009790000215,None,509.535758900005,None,509.535758900005,None,509.535758900005,None,511.1654190400048,None,511.1654190400048,None,511.1654190400048,None,,,,,,,,,,,,,,101,2023-04-17_15h15.42.275,Main,2022.1.1,60.955539029549094,
positive,negative,2,l,j,,,,,,,,,10,15,195,14,,,,,,,,,main,1,1,2,negative,positive,j,j,1,0.7963216999996803,511.17413020000095,512.1822510000056,512.1656002000018,None,511.17413020000095,None,511.17413020000095,None,511.17413020000095,None,512.9636161400019,None,512.9636161400019,None,512.9636161400019,None,,,,,,,,,,,,,,101,2023-04-17_15h15.42.275,Main,2022.1.1,60.955539029549094,
positive,positive,1,l,j,,,,,,,,,10,16,196,2,,,,,,,,,main,2,2,1,positive,positive,j,j,1,0.7144785999989836,512.9699729000058,513.9795710000035,513.9629193000001,None,512.9699729000058,None,512.9699729000058,None,512.9699729000058,None,514.6795501400018,None,514.6795501400018,None,514.6795501400018,None,,,,,,,,,,,,,,101,2023-04-17_15h15.42.275,Main,2022.1.1,60.955539029549094,
negative,positive,1,j,l,,,,,,,,,10,17,197,6,,,,,,,,,main,1,1,1,positive,negative,l,l,1,0.782314200005203,514.6796008000019,515.6796324000024,515.6796324000024,None,514.6796008000019,None,514.6796008000019,None,514.6796008000019,None,516.46326234,None,516.46326234,None,516.46326234,None,,,,,,,,,,,,,,101,2023-04-17_15h15.42.275,Main,2022.1.1,60.955539029549094,
negative,negative,1,j,l,,,,,,,,,11,0,198,0,,,,,,,,,main,2,2,1,negative,negative,l,l,1,0.9980462000021362,516.4690050999998,517.4821193000025,517.4654501000041,None,516.4690050999998,None,516.4690050999998,None,516.4690050999998,None,518.4629709400003,None,518.4629709400003,None,518.4629709400003,None,,,,,,,,,,,,,,101,2023-04-17_15h15.42.275,Main,2022.1.1,60.955539029549094,
positive,neutral,2,l,j,,,,,,,,,11,1,199,17,,,,,,,,,main,1,1,2,neutral,positive,j,j,1,0.8170211000033305,518.4697268000018,519.4819239999997,519.463184500004,None,518.4697268000018,None,518.4697268000018,None,518.4697268000018,None,520.281993940004,None,520.281993940004,None,520.281993940004,None,,,,,,,,,,,,,,101,2023-04-17_15h15.42.275,Main,2022.1.1,60.955539029549094,
neutral,positive,2,k,k,,,,,,,,,11,2,200,13,,,,,,,,,main,1,1,2,positive,neutral,k,k,1,0.6965565999998944,520.2860700000019,521.2965043000004,521.2798547999992,None,520.2860700000019,None,520.2860700000019,None,520.2860700000019,None,521.979832239999,None,521.979832239999,None,521.979832239999,None,,,,,,,,,,,,,,101,2023-04-17_15h15.42.275,Main,2022.1.1,60.955539029549094,
negative,negative,2,j,l,,,,,,,,,11,3,201,9,,,,,,,,,main,2,2,2,negative,negative,l,l,1,0.6315284000011161,521.985522300005,522.9986610000051,522.9820030000046,None,521.985522300005,None,521.985522300005,None,521.985522300005,None,523.6130732400022,None,523.6130732400022,None,523.6130732400022,None,,,,,,,,,,,,,,101,2023-04-17_15h15.42.275,Main,2022.1.1,60.955539029549094,
positive,positive,1,l,j,,,,,,,,,11,4,202,2,,,,,,,,,main,1,1,1,positive,positive,j,j,1,0.6815134999997099,523.6187500000015,524.6293531000047,524.6126884000041,None,523.6187500000015,None,523.6187500000015,None,523.6187500000015,None,525.2960377400057,None,525.2960377400057,None,525.2960377400057,None,,,,,,,,,,,,,,101,2023-04-17_15h15.42.275,Main,2022.1.1,60.955539029549094,
negative,neutral,1,j,l,,,,,,,,,11,5,203,3,,,,,,,,,main,1,1,1,neutral,negative,l,l,1,0.631548199999088,525.2960235999999,526.2960883000051,526.2960883000051,None,525.2960235999999,None,525.2960235999999,None,525.2960235999999,None,526.9294033400045,None,526.9294033400045,None,526.9294033400045,None,,,,,,,,,,,,,,101,2023-04-17_15h15.42.275,Main,2022.1.1,60.955539029549094,
positive,negative,2,l,j,,,,,,,,,11,6,204,14,,,,,,,,,main,2,2,2,negative,positive,j,j,1,0.6324798999994528,526.9461124000009,527.9485621000058,527.9152281999995,None,526.9461124000009,None,526.9461124000009,None,526.9461124000009,None,528.5632852400056,None,528.5632852400056,None,528.5632852400056,None,,,,,,,,,,,,,,101,2023-04-17_15h15.42.275,Main,2022.1.1,60.955539029549094,
negative,positive,1,j,l,,,,,,,,,11,7,205,6,,,,,,,,,main,1,1,1,positive,negative,l,l,1,0.7648616000005859,528.5697074000054,529.581829499999,529.5652216000017,None,528.5697074000054,None,528.5697074000054,None,528.5697074000054,None,530.3295425400036,None,530.3295425400036,None,530.3295425400036,None,,,,,,,,,,,,,,101,2023-04-17_15h15.42.275,Main,2022.1.1,60.955539029549094,
neutral,negative,2,k,k,,,,,,,,,11,8,206,16,,,,,,,,,main,1,1,2,negative,neutral,k,k,1,0.6652833999978611,530.3360220000031,531.3484516000026,531.3318125000005,None,530.3360220000031,None,530.3360220000031,None,530.3360220000031,None,531.996307240003,None,531.996307240003,None,531.996307240003,None,,,,,,,,,,,,,,101,2023-04-17_15h15.42.275,Main,2022.1.1,60.955539029549094,
neutral,neutral,2,k,k,,,,,,,,,11,9,207,10,,,,,,,,,main,1,1,2,neutral,neutral,k,k,1,0.7982019999981276,532.0023233000029,533.0151025000014,532.9984088000056,None,532.0023233000029,None,532.0023233000029,None,532.0023233000029,None,533.796213639999,None,533.796213639999,None,533.796213639999,None,,,,,,,,,,,,,,101,2023-04-17_15h15.42.275,Main,2022.1.1,60.955539029549094,
neutral,positive,1,k,k,,,,,,,,,11,10,208,4,,,,,,,,,main,2,2,1,positive,neutral,k,k,1,0.6979433000014978,533.800110300006,534.8124975000028,534.7958281000028,None,533.800110300006,None,533.800110300006,None,533.800110300006,None,535.495785640004,None,535.495785640004,None,535.495785640004,None,,,,,,,,,,,,,,101,2023-04-17_15h15.42.275,Main,2022.1.1,60.955539029549094,
positive,negative,1,l,j,,,,,,,,,11,11,209,5,,,,,,,,,main,1,1,1,negative,positive,j,j,1,0.6841899999999441,535.4958241000058,536.4958815999998,536.4958815999998,None,535.4958241000058,None,535.4958241000058,None,535.4958241000058,None,537.1815407400034,None,537.1815407400034,None,537.1815407400034,None,,,,,,,,,,,,,,101,2023-04-17_15h15.42.275,Main,2022.1.1,60.955539029549094,
negative,positive,2,j,l,,,,,,,,,11,12,210,15,,,,,,,,,main,2,2,2,positive,negative,l,l,1,0.7317068999982439,537.185263899999,538.1983699000048,538.1817477000004,None,537.185263899999,None,537.185263899999,None,537.185263899999,None,538.9149077400041,None,538.9149077400041,None,538.9149077400041,None,,,,,,,,,,,,,,101,2023-04-17_15h15.42.275,Main,2022.1.1,60.955539029549094,
negative,neutral,2,j,l,,,,,,,,,11,13,211,12,,,,,,,,,main,2,2,2,neutral,negative,l,l,1,0.9138953000001493,538.9188611999998,539.9316945000028,539.9149589000008,None,538.9188611999998,None,538.9188611999998,None,538.9188611999998,None,540.8294491400054,None,540.8294491400054,None,540.8294491400054,None,,,,,,,,,,,,,,101,2023-04-17_15h15.42.275,Main,2022.1.1,60.955539029549094,
neutral,neutral,1,k,k,,,,,,,,,11,14,212,1,,,,,,,,,main,2,2,1,neutral,neutral,k,k,1,0.7973835000011604,540.8357706000024,541.848181500005,541.8315724999993,None,540.8357706000024,None,540.8357706000024,None,540.8357706000024,None,542.6294003400005,None,542.6294003400005,None,542.6294003400005,None,,,,,,,,,,,,,,101,2023-04-17_15h15.42.275,Main,2022.1.1,60.955539029549094,
positive,neutral,1,l,j,,,,,,,,,11,15,213,8,,,,,,,,,main,1,1,1,neutral,positive,j,j,1,0.7813357999984873,542.635420999999,543.6482726000031,543.631592800004,None,542.635420999999,None,542.635420999999,None,542.635420999999,None,544.4123775400046,None,544.4123775400046,None,544.4123775400046,None,,,,,,,,,,,,,,101,2023-04-17_15h15.42.275,Main,2022.1.1,60.955539029549094,
neutral,negative,1,k,k,,,,,,,,,11,16,214,7,,,,,,,,,main,1,1,1,negative,neutral,k,k,1,0.714944799998193,544.4161157000053,545.4289858000047,545.412307700004,None,544.4161157000053,None,544.4161157000053,None,544.4161157000053,None,546.1289684400006,None,546.1289684400006,None,546.1289684400006,None,,,,,,,,,,,,,,101,2023-04-17_15h15.42.275,Main,2022.1.1,60.955539029549094,
positive,positive,2,l,j,,,,,,,,,11,17,215,11,,,,,,,,,main,1,1,2,positive,positive,j,j,1,0.7317677999963053,546.1290527000019,547.1289642000047,547.1289642000047,None,546.1290527000019,None,546.1290527000019,None,546.1290527000019,None,547.8622655400002,None,547.8622655400002,None,547.8622655400002,None,,,,,,,,,,,,,,101,2023-04-17_15h15.42.275,Main,2022.1.1,60.955539029549094,
neutral,neutral,1,k,k,,,,,,,,,12,0,216,1,,,,,,,,,main,1,1,1,neutral,neutral,k,k,1,0.6819854000059422,547.8632847000044,548.8789743000016,548.8622952000005,None,547.8632847000044,None,547.8632847000044,None,547.8632847000044,None,549.5459655400016,None,549.5459655400016,None,549.5459655400016,None,,,,,,,,,,,,,,101,2023-04-17_15h15.42.275,Main,2022.1.1,60.955539029549094,
neutral,positive,1,k,k,,,,,,,,,12,1,217,4,,,,,,,,,main,1,1,1,positive,neutral,k,k,1,0.71750289999909,549.5521458000003,550.5647243000058,550.5481522000046,None,549.5521458000003,None,549.5521458000003,None,549.5521458000003,None,551.2648460400058,None,551.2648460400058,None,551.2648460400058,None,,,,,,,,,,,,,,101,2023-04-17_15h15.42.275,Main,2022.1.1,60.955539029549094,
positive,negative,1,l,j,,,,,,,,,12,2,218,5,,,,,,,,,main,2,2,1,negative,positive,j,j,1,0.7124690000055125,551.2688238000046,552.2813285000011,552.2646911000047,None,551.2688238000046,None,551.2688238000046,None,551.2688238000046,None,552.97900774,None,552.97900774,None,552.97900774,None,,,,,,,,,,,,,,101,2023-04-17_15h15.42.275,Main,2022.1.1,60.955539029549094,
positive,neutral,1,l,j,,,,,,,,,12,3,219,8,,,,,,,,,main,1,1,1,neutral,positive,j,j,1,0.6979645999963395,552.985803100004,553.9980214000025,553.981388500004,None,552.985803100004,None,552.985803100004,None,552.985803100004,None,554.6788531400059,None,554.6788531400059,None,554.6788531400059,None,,,,,,,,,,,,,,101,2023-04-17_15h15.42.275,Main,2022.1.1,60.955539029549094,
negative,positive,2,j,l,,,,,,,,,12,4,220,15,,,,,,,,,main,2,2,2,positive,negative,l,l,1,0.8005234000011114,554.6856324000037,555.6978966000024,555.6791211000018,None,554.6856324000037,None,554.6856324000037,None,554.6856324000037,None,556.4814215400008,None,556.4814215400008,None,556.4814215400008,None,,,,,,,,,,,,,,101,2023-04-17_15h15.42.275,Main,2022.1.1,60.955539029549094,
positive,positive,2,l,j,,,,,,,,,12,5,221,11,,,,,,,,,main,2,2,2,positive,positive,j,j,1,0.861980699999549,556.4850695000059,557.4953561000002,557.4786731999993,None,556.4850695000059,None,556.4850695000059,None,556.4850695000059,None,558.3453867399992,None,558.3453867399992,None,558.3453867399992,None,,,,,,,,,,,,,,101,2023-04-17_15h15.42.275,Main,2022.1.1,60.955539029549094,
neutral,neutral,2,k,k,,,,,,,,,12,6,222,10,,,,,,,,,main,2,2,2,neutral,neutral,k,k,1,0.6320201000053203,558.3453627000054,559.3453918000014,559.3453918000014,None,558.3453627000054,None,558.3453627000054,None,558.3453627000054,None,559.9787051400024,None,559.9787051400024,None,559.9787051400024,None,,,,,,,,,,,,,,101,2023-04-17_15h15.42.275,Main,2022.1.1,60.955539029549094,
negative,neutral,2,j,l,,,,,,,,,12,7,223,12,,,,,,,,,main,2,2,2,neutral,negative,l,l,1,0.8151205000031041,559.9792891000034,560.9787190999996,560.9787190999996,None,559.9792891000034,None,559.9792891000034,None,559.9792891000034,None,561.7953659400052,None,561.7953659400052,None,561.7953659400052,None,,,,,,,,,,,,,,101,2023-04-17_15h15.42.275,Main,2022.1.1,60.955539029549094,
