target,distractor,set,ans1,ans2,rep_loop2.thisRepN,rep_loop2.thisTrialN,rep_loop2.thisN,rep_loop2.thisIndex,flanker_prac_loop.thisRepN,flanker_prac_loop.thisTrialN,flanker_prac_loop.thisN,flanker_prac_loop.thisIndex,flanker_main_loop.thisRepN,flanker_main_loop.thisTrialN,flanker_main_loop.thisN,flanker_main_loop.thisIndex,fl_inst_resp.keys,fl_inst_resp.rt,sound_1.started,sound_1.stopped,image_4.started,image_4.stopped,back_2.started,back_2.stopped,main_prac,fl_cold,fl_colt,fl_set,fl_dcond,fl_tcond,fl_ans,fl_res,fl_corr,fl_rt,fix_fl.started,fix_fl.stopped,targ.started,targ.stopped,j_button.started,j_button.stopped,k_button.started,k_button.stopped,l_button.started,l_button.stopped,j_button2.started,j_button2.stopped,k_button2.started,k_button2.stopped,l_button2.started,l_button2.stopped,mainback.started,mainback.stopped,key_resp.keys,key_resp.rt,mouse_6.x,mouse_6.y,mouse_6.leftButton,mouse_6.midButton,mouse_6.rightButton,mouse_6.started,mouse_6.stopped,text_2.started,text_2.stopped,id*,date,expName,psychopyVersion,frameRate,
,,,,,0,0,0,0,,,,,,,,,space,49.813114700024016,27.98242127998383,None,77.82435499998974,None,,,,,,,,,,,,,,,,,,,,,,,,,,,,,,,,,,,,,,,,,,102,2023-04-21_17h14.01.631,Main,2022.1.1,60.08427420118477,
neutral,neutral,2,k,k,,,,,0,0,0,10,,,,,,,,,,,83.53130939998664,None,prac,2,2,2,neutral,neutral,k,k,1,1.2733187000267208,85.55527019995498,86.56208209996112,86.54546479997225,None,85.55527019995498,None,85.55527019995498,None,85.55527019995498,None,87.82908247997402,None,87.82908247997402,None,87.82908247997402,None,,,,,,,,,,,,,,102,2023-04-21_17h14.01.631,Main,2022.1.1,60.08427420118477,
negative,neutral,1,j,l,,,,,0,1,1,3,,,,,,,,,,,,,prac,1,1,1,neutral,negative,j,j,1,1.0669637999963015,87.83497189998161,88.84773219999624,88.83116549998522,None,87.83497189998161,None,87.83497189998161,None,87.83497189998161,None,89.89781507999287,None,89.89781507999287,None,89.89781507999287,None,,,,,,,,,,,,,,102,2023-04-21_17h14.01.631,Main,2022.1.1,60.08427420118477,
neutral,neutral,1,k,k,,,,,0,2,2,1,,,,,,,,,,,,,prac,1,1,1,neutral,neutral,k,k,1,0.7319260999793187,89.90109349996783,90.91443389997585,90.89779419999104,None,89.90109349996783,None,89.90109349996783,None,89.90109349996783,None,91.63099238001159,None,91.63099238001159,None,91.63099238001159,None,,,,,,,,,,,,,,102,2023-04-21_17h14.01.631,Main,2022.1.1,60.08427420118477,
positive,neutral,2,l,j,,,,,0,3,3,17,,,,,,,,,,,,,prac,1,1,2,neutral,positive,l,l,1,0.7634296999895014,91.63407589995768,92.64560379995964,92.63116019999143,None,91.63407589995768,None,91.63407589995768,None,91.63407589995768,None,93.39563118001097,None,93.39563118001097,None,93.39563118001097,None,,,,,,,,,,,,,,102,2023-04-21_17h14.01.631,Main,2022.1.1,60.08427420118477,
negative,positive,2,j,l,,,,,0,4,4,15,,,,,,,,,,,,,prac,1,1,2,positive,negative,j,j,1,0.7832335000275634,93.3995552000124,94.41211809997912,94.39543069998035,None,93.3995552000124,None,93.3995552000124,None,93.3995552000124,None,95.17877947997185,None,95.17877947997185,None,95.17877947997185,None,,,,,,,,,,,,,,102,2023-04-21_17h14.01.631,Main,2022.1.1,60.08427420118477,
neutral,negative,1,k,k,,,,,0,5,5,7,,,,,,,,,,,,,prac,1,1,1,negative,neutral,k,k,1,0.613965000025928,95.18074729997898,96.19520289998036,96.17847260000417,None,95.18074729997898,None,95.18074729997898,None,95.18074729997898,None,96.79514767996152,None,96.79514767996152,None,96.79514767996152,None,,,,,,,,,,,,,,102,2023-04-21_17h14.01.631,Main,2022.1.1,60.08427420118477,
positive,positive,2,l,j,,,,,0,6,6,11,,,,,,,,,,,,,prac,1,1,2,positive,positive,l,l,1,0.6342478999868035,96.79514209995978,97.7953603999922,97.7953603999922,None,96.79514209995978,None,96.79514209995978,None,96.79514209995978,None,98.42964467998245,None,98.42964467998245,None,98.42964467998245,None,,,,,,,,,,,,,,102,2023-04-21_17h14.01.631,Main,2022.1.1,60.08427420118477,
positive,negative,1,l,j,,,,,0,7,7,5,,,,,,,,,,,,,prac,2,2,1,negative,positive,l,l,1,0.7632547999965027,98.432038799976,99.44503780000377,99.42838639998809,None,98.432038799976,None,98.432038799976,None,98.432038799976,None,100.19502138001262,None,100.19502138001262,None,100.19502138001262,None,,,,,,,,,,,,,,102,2023-04-21_17h14.01.631,Main,2022.1.1,60.08427420118477,
negative,negative,2,j,l,,,,,0,8,8,9,,,,,,,,,,,,,prac,1,1,2,negative,negative,j,j,1,0.6819454999640584,100.19503080000868,101.19755609997083,101.19755609997083,None,100.19503080000868,None,100.19503080000868,None,100.19503080000868,None,101.87844887996907,None,101.87844887996907,None,101.87844887996907,None,,,,,,,,,,,,,,102,2023-04-21_17h14.01.631,Main,2022.1.1,60.08427420118477,
negative,positive,1,j,l,,,,,0,9,9,6,,,,,,,,,,,,,prac,2,2,1,positive,negative,j,j,1,0.7844100000220351,101.884822299995,102.89741489995504,102.87873609998496,None,101.884822299995,None,101.884822299995,None,101.884822299995,None,103.6641496799828,None,103.6641496799828,None,103.6641496799828,None,,,,,,,,,,,,,,102,2023-04-21_17h14.01.631,Main,2022.1.1,60.08427420118477,
positive,neutral,1,l,j,,,,,0,10,10,8,,,,,,,,,,,,,prac,2,2,1,neutral,positive,l,l,1,0.7155313999974169,103.667161499965,104.68079730001045,104.6642453999957,None,103.667161499965,None,103.667161499965,None,103.667161499965,None,105.38084347998374,None,105.38084347998374,None,105.38084347998374,None,,,,,,,,,,,,,,102,2023-04-21_17h14.01.631,Main,2022.1.1,60.08427420118477,
positive,positive,1,l,j,,,,,0,11,11,2,,,,,,,,,,,,,prac,1,1,1,positive,positive,l,l,1,0.6962005000095814,105.38413560000481,106.39745809999295,106.380900499993,None,105.38413560000481,None,105.38413560000481,None,105.38413560000481,None,107.0783438799961,None,107.0783438799961,None,107.0783438799961,None,,,,,,,,,,,,,,102,2023-04-21_17h14.01.631,Main,2022.1.1,60.08427420118477,
negative,neutral,2,j,l,,,,,0,12,12,12,,,,,,,,,,,,,prac,1,1,2,neutral,negative,j,j,1,0.698519799974747,107.08406009996543,108.09739589999663,108.0641309999628,None,107.08406009996543,None,107.08406009996543,None,107.08406009996543,None,108.77817797996686,None,108.77817797996686,None,108.77817797996686,None,,,,,,,,,,,,,,102,2023-04-21_17h14.01.631,Main,2022.1.1,60.08427420118477,
neutral,negative,2,k,k,,,,,0,13,13,16,,,,,,,,,,,,,prac,2,2,2,negative,neutral,k,k,1,0.56546030001482,108.77817800000776,109.77821650000988,109.77821650000988,None,108.77817800000776,None,108.77817800000776,None,108.77817800000776,None,110.34493278000154,None,110.34493278000154,None,110.34493278000154,None,,,,,,,,,,,,,,102,2023-04-21_17h14.01.631,Main,2022.1.1,60.08427420118477,
positive,negative,2,l,j,,,,,0,14,14,14,,,,,,,,,,,,,prac,2,2,2,negative,positive,l,l,1,0.6335115999681875,110.34810730000027,111.34731459995965,111.33073349995539,None,110.34810730000027,None,110.34810730000027,None,110.34810730000027,None,111.97939817995648,None,111.97939817995648,None,111.97939817995648,None,,,,,,,,,,,,,,102,2023-04-21_17h14.01.631,Main,2022.1.1,60.08427420118477,
neutral,positive,2,k,k,,,,,0,15,15,13,,,,,,,,,,,,,prac,1,1,2,positive,neutral,k,k,1,0.6665373999858275,111.98516280000331,112.99733429995831,112.98079120001057,None,111.98516280000331,None,111.98516280000331,None,111.98516280000331,None,113.64745048001059,None,113.64745048001059,None,113.64745048001059,None,,,,,,,,,,,,,,102,2023-04-21_17h14.01.631,Main,2022.1.1,60.08427420118477,
negative,negative,1,j,l,,,,,0,16,16,0,,,,,,,,,,,,,prac,2,2,1,negative,negative,j,j,1,0.7829851999995299,113.65119209996192,114.66393169999355,114.64733680000063,None,113.65119209996192,None,113.65119209996192,None,113.65119209996192,None,115.43067777999094,None,115.43067777999094,None,115.43067777999094,None,,,,,,,,,,,,,,102,2023-04-21_17h14.01.631,Main,2022.1.1,60.08427420118477,
neutral,positive,1,k,k,,,,,0,17,17,4,,,,,,,,,,,,,prac,2,2,1,positive,neutral,k,k,1,0.6146270000026561,115.43456689995946,116.44724899996072,116.43064819998108,None,115.43456689995946,None,115.43456689995946,None,115.43456689995946,None,117.0473036799638,None,117.0473036799638,None,117.0473036799638,None,,,,,,,,,,,,,,102,2023-04-21_17h14.01.631,Main,2022.1.1,60.08427420118477,
negative,neutral,2,j,l,,,,,1,0,18,12,,,,,,,,,,,,,prac,2,2,2,neutral,negative,j,j,1,1.3460823000059463,117.05047539999941,118.06037349998951,118.04425109998556,None,117.05047539999941,None,117.05047539999941,None,117.05047539999941,None,119.39467157998006,None,119.39467157998006,None,119.39467157998006,None,,,,,,,,,,,,,,102,2023-04-21_17h14.01.631,Main,2022.1.1,60.08427420118477,
negative,negative,1,j,l,,,,,1,1,19,0,,,,,,,,,,,,,prac,2,2,1,negative,negative,j,j,1,1.1152077000006102,119.39463930000784,120.39470469998196,120.39470469998196,None,119.39463930000784,None,119.39463930000784,None,119.39463930000784,None,121.5113298799668,None,121.5113298799668,None,121.5113298799668,None,,,,,,,,,,,,,,102,2023-04-21_17h14.01.631,Main,2022.1.1,60.08427420118477,
positive,negative,1,l,j,,,,,1,2,20,5,,,,,,,,,,,,,prac,1,1,1,negative,positive,l,l,1,0.7511163000017405,121.51218670001253,122.51132950000465,122.51132950000465,None,121.51218670001253,None,121.51218670001253,None,121.51218670001253,None,123.26375487998011,None,123.26375487998011,None,123.26375487998011,None,,,,,,,,,,,,,,102,2023-04-21_17h14.01.631,Main,2022.1.1,60.08427420118477,
neutral,neutral,2,k,k,,,,,1,3,21,10,,,,,,,,,,,,,prac,2,2,2,neutral,neutral,k,k,1,0.5955260999617167,123.2676872999873,124.28042999998434,124.26384939998388,None,123.2676872999873,None,123.2676872999873,None,123.2676872999873,None,124.86129537997185,None,124.86129537997185,None,124.86129537997185,None,,,,,,,,,,,,,,102,2023-04-21_17h14.01.631,Main,2022.1.1,60.08427420118477,
neutral,positive,1,k,k,,,,,1,4,22,4,,,,,,,,,,,,,prac,2,2,1,positive,neutral,k,k,1,0.7668011999921873,124.86732689995551,125.88036149996333,125.84711699996842,None,124.86732689995551,None,124.86732689995551,None,124.86732689995551,None,126.62907398001407,None,126.62907398001407,None,126.62907398001407,None,,,,,,,,,,,,,,102,2023-04-21_17h14.01.631,Main,2022.1.1,60.08427420118477,
positive,positive,1,l,j,,,,,1,5,23,2,,,,,,,,,,,,,prac,2,2,1,positive,positive,l,l,1,0.6330738000106066,126.63503939996008,127.64695039996877,127.63040319998981,None,126.63503939996008,None,126.63503939996008,None,126.63503939996008,None,128.26361378001167,None,128.26361378001167,None,128.26361378001167,None,,,,,,,,,,,,,,102,2023-04-21_17h14.01.631,Main,2022.1.1,60.08427420118477,
neutral,negative,2,k,k,,,,,1,6,24,16,,,,,,,,,,,,,prac,2,2,2,negative,neutral,k,k,1,0.612645200046245,128.26644989999477,129.28033159999177,129.26372429996263,None,128.26644989999477,None,128.26644989999477,None,128.26644989999477,None,129.87787617997384,None,129.87787617997384,None,129.87787617997384,None,,,,,,,,,,,,,,102,2023-04-21_17h14.01.631,Main,2022.1.1,60.08427420118477,
positive,neutral,1,l,j,,,,,1,7,25,8,,,,,,,,,,,,,prac,2,2,1,neutral,positive,l,l,1,0.698862100020051,129.8832923999871,130.89440260000993,130.87773389997892,None,129.8832923999871,None,129.8832923999871,None,129.8832923999871,None,131.57771898001084,None,131.57771898001084,None,131.57771898001084,None,,,,,,,,,,,,,,102,2023-04-21_17h14.01.631,Main,2022.1.1,60.08427420118477,
negative,positive,1,j,l,,,,,1,8,26,6,,,,,,,,,,,,,prac,1,1,1,positive,negative,j,l,0,0.6989521000068635,131.57771019998472,132.57777360000182,132.57777360000182,None,131.57771019998472,None,131.57771019998472,None,131.57771019998472,None,133.2777920999797,None,133.2777920999797,None,133.2777920999797,None,,,,,,,,,,,,,,102,2023-04-21_17h14.01.631,Main,2022.1.1,60.08427420118477,
neutral,positive,2,k,k,,,,,1,9,27,13,,,,,,,,,,,,,prac,1,1,2,positive,neutral,k,k,1,0.7369281999999657,134.27958390000276,135.28016460000072,135.2635944999638,None,134.27958390000276,None,134.27958390000276,None,134.27958390000276,None,136.01352557998035,None,136.01352557998035,None,136.01352557998035,None,,,,,,,,,,,,,,102,2023-04-21_17h14.01.631,Main,2022.1.1,60.08427420118477,
positive,neutral,2,l,j,,,,,1,10,28,17,,,,,,,,,,,,,prac,2,2,2,neutral,positive,l,l,1,0.7961183000006713,136.01757279998856,137.0301446999656,137.01355599996168,None,136.01757279998856,None,136.01757279998856,None,136.01757279998856,None,137.81106427997003,None,137.81106427997003,None,137.81106427997003,None,,,,,,,,,,,,,,102,2023-04-21_17h14.01.631,Main,2022.1.1,60.08427420118477,
negative,neutral,1,j,l,,,,,1,11,29,3,,,,,,,,,,,,,prac,2,2,1,neutral,negative,j,j,1,0.7489164999569766,137.81931369996164,138.83010309998645,138.81353789998684,None,137.81931369996164,None,137.81931369996164,None,137.81931369996164,None,139.56129547998427,None,139.56129547998427,None,139.56129547998427,None,,,,,,,,,,,,,,102,2023-04-21_17h14.01.631,Main,2022.1.1,60.08427420118477,
neutral,neutral,1,k,k,,,,,1,12,30,1,,,,,,,,,,,,,prac,1,1,1,neutral,neutral,k,k,1,0.5345924999564886,139.56463529996108,140.58008759998484,140.54680549999466,None,139.56463529996108,None,139.56463529996108,None,139.56463529996108,None,141.09418747997262,None,141.09418747997262,None,141.09418747997262,None,,,,,,,,,,,,,,102,2023-04-21_17h14.01.631,Main,2022.1.1,60.08427420118477,
negative,positive,2,j,l,,,,,1,13,31,15,,,,,,,,,,,,,prac,1,1,2,positive,negative,j,j,1,0.7791416000109166,141.09683759999461,142.11090929998318,142.09420029999455,None,141.09683759999461,None,141.09683759999461,None,141.09683759999461,None,142.87758248000756,None,142.87758248000756,None,142.87758248000756,None,,,,,,,,,,,,,,102,2023-04-21_17h14.01.631,Main,2022.1.1,60.08427420118477,
positive,negative,2,l,j,,,,,1,14,32,14,,,,,,,,,,,,,prac,1,1,2,negative,positive,l,l,1,0.7491243000258692,142.88248609995935,143.8966773999855,143.8634478999884,None,142.88248609995935,None,142.88248609995935,None,142.88248609995935,None,144.62791657999043,None,144.62791657999043,None,144.62791657999043,None,,,,,,,,,,,,,,102,2023-04-21_17h14.01.631,Main,2022.1.1,60.08427420118477,
positive,positive,2,l,j,,,,,1,15,33,11,,,,,,,,,,,,,prac,2,2,2,positive,positive,l,l,1,0.6342806000029668,144.63354640000034,145.64662419998785,145.6300562999677,None,144.63354640000034,None,144.63354640000034,None,144.63354640000034,None,146.26330977996696,None,146.26330977996696,None,146.26330977996696,None,,,,,,,,,,,,,,102,2023-04-21_17h14.01.631,Main,2022.1.1,60.08427420118477,
neutral,negative,1,k,k,,,,,1,16,34,7,,,,,,,,,,,,,prac,2,2,1,negative,neutral,k,k,1,1.1483962000347674,146.2662454000092,147.27993169997353,147.26335809996817,None,146.2662454000092,None,146.2662454000092,None,146.2662454000092,None,148.41320057997365,None,148.41320057997365,None,148.41320057997365,None,,,,,,,,,,,,,,102,2023-04-21_17h14.01.631,Main,2022.1.1,60.08427420118477,
negative,negative,2,j,l,,,,,1,17,35,9,,,,,,,,,,,,,prac,2,2,2,negative,negative,j,j,1,0.6468142000376247,148.41587789996993,149.42988959996728,149.41329549998045,None,148.41587789996993,None,148.41587789996993,None,148.41587789996993,None,150.06110217996758,None,150.06110217996758,None,150.06110217996758,None,,,,,,,,,,,,,,102,2023-04-21_17h14.01.631,Main,2022.1.1,60.08427420118477,
,,,,,,,,,,,,,,,,,,,,,,,,,,,,,,,,,,,,,,,,,,,,,,,,,,,150.06320669996785,None,space,5.7883519000024535,,,,,,,,,,102,2023-04-21_17h14.01.631,Main,2022.1.1,60.08427420118477,
,,,,,,,,,,,,,,,,,,,,,,,,,,,,,,,,,,,,,,,,,,,,,,,,,,,,,,,0.70555556,-0.25555557,0,0,0,0.010402079962659627,None,,,102,2023-04-21_17h14.01.631,Main,2022.1.1,60.08427420118477,
neutral,negative,2,k,k,,,,,,,,,0,0,0,16,,,,,,,155.8773225999903,None,main,1,1,2,negative,neutral,k,k,1,0.7790815999615006,157.88367139996262,158.8963614999666,158.87976819998585,None,157.88367139996262,None,157.88367139996262,None,157.88367139996262,None,159.66093357999927,None,159.66093357999927,None,159.66093357999927,None,,,,,,,,,,,,,,102,2023-04-21_17h14.01.631,Main,2022.1.1,60.08427420118477,
positive,negative,1,l,j,,,,,,,,,0,1,1,5,,,,,,,,,main,1,1,1,negative,positive,l,l,1,0.7498477000044659,159.66516499995487,160.67967589996988,160.66307740000775,None,159.66516499995487,None,159.66516499995487,None,159.66516499995487,None,161.41327438001173,None,161.41327438001173,None,161.41327438001173,None,,,,,,,,,,,,,,102,2023-04-21_17h14.01.631,Main,2022.1.1,60.08427420118477,
positive,neutral,2,l,j,,,,,,,,,0,2,2,17,,,,,,,,,main,2,2,2,neutral,positive,l,l,1,1.2125325000379235,161.41693119995762,162.42955699999584,162.41302969999379,None,161.41693119995762,None,161.41693119995762,None,161.41693119995762,None,163.62715657996597,None,163.62715657996597,None,163.62715657996597,None,,,,,,,,,,,,,,102,2023-04-21_17h14.01.631,Main,2022.1.1,60.08427420118477,
positive,positive,2,l,j,,,,,,,,,0,3,3,11,,,,,,,,,main,2,2,2,positive,positive,l,l,1,0.5813893000013195,163.63400789996376,164.64370039995993,164.62704699998721,None,163.63400789996376,None,163.63400789996376,None,163.63400789996376,None,165.21036787998747,None,165.21036787998747,None,165.21036787998747,None,,,,,,,,,,,,,,102,2023-04-21_17h14.01.631,Main,2022.1.1,60.08427420118477,
positive,neutral,1,l,j,,,,,,,,,0,4,4,8,,,,,,,,,main,2,2,1,neutral,positive,l,l,1,1.2341735000372864,165.21105350001017,166.21046799997566,166.21046799997566,None,165.21105350001017,None,165.21105350001017,None,165.21105350001017,None,167.4462340799917,None,167.4462340799917,None,167.4462340799917,None,,,,,,,,,,,,,,102,2023-04-21_17h14.01.631,Main,2022.1.1,60.08427420118477,
positive,negative,2,l,j,,,,,,,,,0,5,5,14,,,,,,,,,main,2,2,2,negative,positive,l,l,1,0.5798640000284649,167.45007219997933,168.46273109997855,168.44616529997438,None,167.45007219997933,None,167.45007219997933,None,167.45007219997933,None,169.0273835799715,None,169.0273835799715,None,169.0273835799715,None,,,,,,,,,,,,,,102,2023-04-21_17h14.01.631,Main,2022.1.1,60.08427420118477,
neutral,neutral,1,k,k,,,,,,,,,0,6,6,1,,,,,,,,,main,1,1,1,neutral,neutral,k,k,1,0.7504456000169739,169.03305869997712,170.046143799962,170.02954019996105,None,169.03305869997712,None,169.03305869997712,None,169.03305869997712,None,170.7794135800039,None,170.7794135800039,None,170.7794135800039,None,,,,,,,,,,,,,,102,2023-04-21_17h14.01.631,Main,2022.1.1,60.08427420118477,
negative,positive,2,j,l,,,,,,,,,0,7,7,15,,,,,,,,,main,2,2,2,positive,negative,j,j,1,1.029371300013736,170.78251950000413,171.796054299979,171.77946679998422,None,170.78251950000413,None,170.78251950000413,None,170.78251950000413,None,172.8102798799926,None,172.8102798799926,None,172.8102798799926,None,,,,,,,,,,,,,,102,2023-04-21_17h14.01.631,Main,2022.1.1,60.08427420118477,
positive,positive,1,l,j,,,,,,,,,0,8,8,2,,,,,,,,,main,2,2,1,positive,positive,l,l,1,0.7649742000503466,172.81595929997275,173.8268184000044,173.81015159998788,None,172.81595929997275,None,172.81595929997275,None,172.81595929997275,None,174.57681887996733,None,174.57681887996733,None,174.57681887996733,None,,,,,,,,,,,,,,102,2023-04-21_17h14.01.631,Main,2022.1.1,60.08427420118477,
neutral,neutral,2,k,k,,,,,,,,,0,9,9,10,,,,,,,,,main,2,2,2,neutral,neutral,k,k,1,0.6653900999808684,174.5935368000064,175.59357679996174,175.57691659999546,None,174.5935368000064,None,174.5935368000064,None,174.5935368000064,None,176.24357287997265,None,176.24357287997265,None,176.24357287997265,None,,,,,,,,,,,,,,102,2023-04-21_17h14.01.631,Main,2022.1.1,60.08427420118477,
negative,negative,1,j,l,,,,,,,,,0,10,10,0,,,,,,,,,main,2,2,1,negative,negative,j,j,1,0.7983925999724306,176.2493056000094,177.26261669996893,177.24600290000672,None,176.2493056000094,None,176.2493056000094,None,176.2493056000094,None,178.04394558000496,None,178.04394558000496,None,178.04394558000496,None,,,,,,,,,,,,,,102,2023-04-21_17h14.01.631,Main,2022.1.1,60.08427420118477,
neutral,positive,2,k,k,,,,,,,,,0,11,11,13,,,,,,,,,main,1,1,2,positive,neutral,k,k,1,0.615458199987188,178.0628489999799,179.06262089998927,179.04603029997088,None,178.0628489999799,None,178.0628489999799,None,178.0628489999799,None,179.66048697997468,None,179.66048697997468,None,179.66048697997468,None,,,,,,,,,,,,,,102,2023-04-21_17h14.01.631,Main,2022.1.1,60.08427420118477,
neutral,negative,1,k,k,,,,,,,,,0,12,12,7,,,,,,,,,main,1,1,1,negative,neutral,k,k,1,0.6503344000084326,179.6664049999672,180.67929800000275,180.66264890000457,None,179.6664049999672,None,179.6664049999672,None,179.6664049999672,None,181.31259957996082,None,181.31259957996082,None,181.31259957996082,None,,,,,,,,,,,,,,102,2023-04-21_17h14.01.631,Main,2022.1.1,60.08427420118477,
neutral,positive,1,k,k,,,,,,,,,0,13,13,4,,,,,,,,,main,2,2,1,positive,neutral,k,k,1,0.5484088999801315,181.3157743999618,182.32921379996696,182.31261480000103,None,181.3157743999618,None,181.3157743999618,None,181.3157743999618,None,182.8625697800133,None,182.8625697800133,None,182.8625697800133,None,,,,,,,,,,,,,,102,2023-04-21_17h14.01.631,Main,2022.1.1,60.08427420118477,
negative,positive,1,j,l,,,,,,,,,0,14,14,6,,,,,,,,,main,2,2,1,positive,negative,j,j,1,0.8454487000126392,182.8659658000106,183.87581379996845,183.85913200001232,None,182.8659658000106,None,182.8659658000106,None,182.8659658000106,None,184.70991007999402,None,184.70991007999402,None,184.70991007999402,None,,,,,,,,,,,,,,102,2023-04-21_17h14.01.631,Main,2022.1.1,60.08427420118477,
negative,neutral,2,j,l,,,,,,,,,0,15,15,12,,,,,,,,,main,1,1,2,neutral,negative,j,j,1,0.6846960000111721,184.71118099999148,185.7266760999919,185.71001859998796,None,184.71118099999148,None,184.71118099999148,None,184.71118099999148,None,186.3960365800129,None,186.3960365800129,None,186.3960365800129,None,,,,,,,,,,,,,,102,2023-04-21_17h14.01.631,Main,2022.1.1,60.08427420118477,
negative,negative,2,j,l,,,,,,,,,0,16,16,9,,,,,,,,,main,2,2,2,negative,negative,j,j,1,0.7314228999894112,186.39985509996768,187.41244539996842,187.39587030000985,None,186.39985509996768,None,186.39985509996768,None,186.39985509996768,None,188.1292102800042,None,188.1292102800042,None,188.1292102800042,None,,,,,,,,,,,,,,102,2023-04-21_17h14.01.631,Main,2022.1.1,60.08427420118477,
negative,neutral,1,j,l,,,,,,,,,0,17,17,3,,,,,,,,,main,2,2,1,neutral,negative,j,j,1,0.8129618999664672,188.13319739996223,189.14577989996178,189.12917619996006,None,188.13319739996223,None,188.13319739996223,None,188.13319739996223,None,189.94360227997532,None,189.94360227997532,None,189.94360227997532,None,,,,,,,,,,,,,,102,2023-04-21_17h14.01.631,Main,2022.1.1,60.08427420118477,
positive,negative,2,l,j,,,,,,,,,1,0,18,14,,,,,,,,,main,2,2,2,negative,positive,l,l,1,0.7148262999835424,189.9492723000003,190.9623314999626,190.9435414999607,None,189.9492723000003,None,189.9492723000003,None,189.9492723000003,None,191.6599202799669,None,191.6599202799669,None,191.6599202799669,None,,,,,,,,,,,,,,102,2023-04-21_17h14.01.631,Main,2022.1.1,60.08427420118477,
positive,neutral,1,l,j,,,,,,,,,1,1,19,8,,,,,,,,,main,2,2,1,neutral,positive,l,l,1,1.0011147999903187,191.66362539998954,192.678981199977,192.66239650000352,None,191.66362539998954,None,191.66362539998954,None,191.66362539998954,None,193.66230907999562,None,193.66230907999562,None,193.66230907999562,None,,,,,,,,,,,,,,102,2023-04-21_17h14.01.631,Main,2022.1.1,60.08427420118477,
neutral,negative,1,k,k,,,,,,,,,1,2,20,7,,,,,,,,,main,2,2,1,negative,neutral,k,k,1,0.6456776999984868,193.66584319999674,194.67639849998523,194.65972359996522,None,193.66584319999674,None,193.66584319999674,None,193.66584319999674,None,195.30970737999888,None,195.30970737999888,None,195.30970737999888,None,,,,,,,,,,,,,,102,2023-04-21_17h14.01.631,Main,2022.1.1,60.08427420118477,
positive,positive,1,l,j,,,,,,,,,1,3,21,2,,,,,,,,,main,2,2,1,positive,positive,l,l,1,0.7343036999809556,195.31131560000358,196.32649879995733,196.30980779998936,None,195.31131560000358,None,195.31131560000358,None,195.31131560000358,None,197.0457218799682,None,197.0457218799682,None,197.0457218799682,None,,,,,,,,,,,,,,102,2023-04-21_17h14.01.631,Main,2022.1.1,60.08427420118477,
negative,negative,2,j,l,,,,,,,,,1,4,22,9,,,,,,,,,main,1,1,2,negative,negative,j,j,1,0.6629467000020668,197.0495113999932,198.06220859999303,198.0456317999633,None,197.0495113999932,None,197.0495113999932,None,197.0495113999932,None,198.71003527995782,None,198.71003527995782,None,198.71003527995782,None,,,,,,,,,,,,,,102,2023-04-21_17h14.01.631,Main,2022.1.1,60.08427420118477,
positive,neutral,2,l,j,,,,,,,,,1,5,23,17,,,,,,,,,main,2,2,2,neutral,positive,l,l,1,0.7146797000314109,198.7163358000107,199.7288574000122,199.712251799996,None,198.7163358000107,None,198.7163358000107,None,198.7163358000107,None,200.42673588001054,None,200.42673588001054,None,200.42673588001054,None,,,,,,,,,,,,,,102,2023-04-21_17h14.01.631,Main,2022.1.1,60.08427420118477,
negative,positive,1,j,l,,,,,,,,,1,6,24,6,,,,,,,,,main,1,1,1,positive,negative,j,j,1,0.6648597999592312,200.4325389000005,201.44546449999325,201.42895929998485,None,200.4325389000005,None,200.4325389000005,None,200.4325389000005,None,202.09329788000906,None,202.09329788000906,None,202.09329788000906,None,,,,,,,,,,,,,,102,2023-04-21_17h14.01.631,Main,2022.1.1,60.08427420118477,
negative,neutral,1,j,l,,,,,,,,,1,7,25,3,,,,,,,,,main,1,1,1,neutral,negative,j,j,1,0.7645839999895543,202.09953939996194,203.11209839995718,203.09547070000554,None,202.09953939996194,None,202.09953939996194,None,202.09953939996194,None,203.85953237999348,None,203.85953237999348,None,203.85953237999348,None,,,,,,,,,,,,,,102,2023-04-21_17h14.01.631,Main,2022.1.1,60.08427420118477,
positive,positive,2,l,j,,,,,,,,,1,8,26,11,,,,,,,,,main,2,2,2,positive,positive,l,l,1,0.6811681999824941,203.86116269999184,204.87623599998187,204.85955900000408,None,203.86116269999184,None,203.86116269999184,None,203.86116269999184,None,205.54287287998596,None,205.54287287998596,None,205.54287287998596,None,,,,,,,,,,,,,,102,2023-04-21_17h14.01.631,Main,2022.1.1,60.08427420118477,
negative,neutral,2,j,l,,,,,,,,,1,9,27,12,,,,,,,,,main,1,1,2,neutral,negative,j,j,1,0.6310935999499634,205.54354729998158,206.54540149995591,206.54540149995591,None,205.54354729998158,None,205.54354729998158,None,205.54354729998158,None,207.1765571799886,None,207.1765571799886,None,207.1765571799886,None,,,,,,,,,,,,,,102,2023-04-21_17h14.01.631,Main,2022.1.1,60.08427420118477,
neutral,neutral,1,k,k,,,,,,,,,1,10,28,1,,,,,,,,,main,2,2,1,neutral,neutral,k,k,1,0.5986135000130162,207.1826626000111,208.19529219996184,208.17876519996207,None,207.1826626000111,None,207.1826626000111,None,207.1826626000111,None,208.77642957998324,None,208.77642957998324,None,208.77642957998324,None,,,,,,,,,,,,,,102,2023-04-21_17h14.01.631,Main,2022.1.1,60.08427420118477,
negative,negative,1,j,l,,,,,,,,,1,11,29,0,,,,,,,,,main,2,2,1,negative,negative,j,j,1,0.6651212999713607,208.7829603999853,209.7952784000081,209.77870059997076,None,208.7829603999853,None,208.7829603999853,None,208.7829603999853,None,210.44319677997265,None,210.44319677997265,None,210.44319677997265,None,,,,,,,,,,,,,,102,2023-04-21_17h14.01.631,Main,2022.1.1,60.08427420118477,
neutral,neutral,2,k,k,,,,,,,,,1,12,30,10,,,,,,,,,main,2,2,2,neutral,neutral,k,k,1,0.6171744000166655,210.44898039998952,211.46194139996078,211.4453055000049,None,210.44898039998952,None,210.44898039998952,None,210.44898039998952,None,212.06195707995795,None,212.06195707995795,None,212.06195707995795,None,,,,,,,,,,,,,,102,2023-04-21_17h14.01.631,Main,2022.1.1,60.08427420118477,
neutral,positive,2,k,k,,,,,,,,,1,13,31,13,,,,,,,,,main,1,1,2,positive,neutral,k,k,1,0.5984045999939553,212.06481189996703,213.07857539999532,213.0620276000118,None,212.06481189996703,None,212.06481189996703,None,212.06481189996703,None,213.66187667996275,None,213.66187667996275,None,213.66187667996275,None,,,,,,,,,,,,,,102,2023-04-21_17h14.01.631,Main,2022.1.1,60.08427420118477,
negative,positive,2,j,l,,,,,,,,,1,14,32,15,,,,,,,,,main,2,2,2,positive,negative,j,j,1,0.6801377999945544,213.66524699999718,214.67598269996233,214.65931859996635,None,213.66524699999718,None,213.66524699999718,None,213.66524699999718,None,215.34268477999723,None,215.34268477999723,None,215.34268477999723,None,,,,,,,,,,,,,,102,2023-04-21_17h14.01.631,Main,2022.1.1,60.08427420118477,
neutral,negative,2,k,k,,,,,,,,,1,15,33,16,,,,,,,,,main,1,1,2,negative,neutral,k,k,1,0.5331533999997191,215.35934149997775,216.35935439995956,216.3427044999553,None,215.35934149997775,None,215.35934149997775,None,215.35934149997775,None,216.87856068000548,None,216.87856068000548,None,216.87856068000548,None,,,,,,,,,,,,,,102,2023-04-21_17h14.01.631,Main,2022.1.1,60.08427420118477,
positive,negative,1,l,j,,,,,,,,,1,16,34,5,,,,,,,,,main,1,1,1,negative,positive,l,j,0,0.7317611000034958,216.8816600999562,217.89512820000527,217.8785413999576,None,216.8816600999562,None,216.8816600999562,None,216.8816600999562,None,218.61177169997245,None,218.61177169997245,None,218.61177169997245,None,,,,,,,,,,,,,,102,2023-04-21_17h14.01.631,Main,2022.1.1,60.08427420118477,
neutral,positive,1,k,k,,,,,,,,,1,17,35,4,,,,,,,,,main,1,1,1,positive,neutral,k,k,1,0.671762099955231,219.61012669996126,220.60934540000744,220.5951417000033,None,219.61012669996126,None,219.61012669996126,None,219.61012669996126,None,221.27997017999297,None,221.27997017999297,None,221.27997017999297,None,,,,,,,,,,,,,,102,2023-04-21_17h14.01.631,Main,2022.1.1,60.08427420118477,
neutral,negative,2,k,k,,,,,,,,,2,0,36,16,,,,,,,,,main,2,2,2,negative,neutral,k,k,1,0.6629262000205927,221.28396989998873,222.29496450000443,222.27845049998723,None,221.28396989998873,None,221.28396989998873,None,221.28396989998873,None,222.94513797996916,None,222.94513797996916,None,222.94513797996916,None,,,,,,,,,,,,,,102,2023-04-21_17h14.01.631,Main,2022.1.1,60.08427420118477,
negative,neutral,1,j,l,,,,,,,,,2,1,37,3,,,,,,,,,main,1,1,1,neutral,negative,j,j,1,0.7960361000150442,222.9488699999638,223.9591007999843,223.94244409998646,None,222.9488699999638,None,222.9488699999638,None,222.9488699999638,None,224.7424213799939,None,224.7424213799939,None,224.7424213799939,None,,,,,,,,,,,,,,102,2023-04-21_17h14.01.631,Main,2022.1.1,60.08427420118477,
negative,neutral,2,j,l,,,,,,,,,2,2,38,12,,,,,,,,,main,2,2,2,neutral,negative,j,j,1,0.7316282999818213,224.74251640000148,225.74247769999783,225.74247769999783,None,224.74251640000148,None,224.74251640000148,None,224.74251640000148,None,226.47581138000243,None,226.47581138000243,None,226.47581138000243,None,,,,,,,,,,,,,,102,2023-04-21_17h14.01.631,Main,2022.1.1,60.08427420118477,
positive,positive,1,l,j,,,,,,,,,2,3,39,2,,,,,,,,,main,2,2,1,positive,positive,l,l,1,0.8031940999790095,226.47639269998763,227.47580189997097,227.47580189997097,None,226.47639269998763,None,226.47639269998763,None,226.47639269998763,None,228.2774896799645,None,228.2774896799645,None,228.2774896799645,None,,,,,,,,,,,,,,102,2023-04-21_17h14.01.631,Main,2022.1.1,60.08427420118477,
positive,neutral,2,l,j,,,,,,,,,2,4,40,17,,,,,,,,,main,2,2,2,neutral,positive,l,l,1,0.7794973999843933,228.2837024999899,229.29485040000873,229.27831029996742,None,228.2837024999899,None,228.2837024999899,None,228.2837024999899,None,230.06156197997626,None,230.06156197997626,None,230.06156197997626,None,,,,,,,,,,,,,,102,2023-04-21_17h14.01.631,Main,2022.1.1,60.08427420118477,
positive,neutral,1,l,j,,,,,,,,,2,5,41,8,,,,,,,,,main,1,1,1,neutral,positive,l,l,1,0.7961365999653935,230.06462819996523,231.07820549997268,231.06158949999372,None,230.06462819996523,None,230.06462819996523,None,230.06462819996523,None,231.8593876799976,None,231.8593876799976,None,231.8593876799976,None,,,,,,,,,,,,,,102,2023-04-21_17h14.01.631,Main,2022.1.1,60.08427420118477,
neutral,positive,1,k,k,,,,,,,,,2,6,42,4,,,,,,,,,main,2,2,1,positive,neutral,k,k,1,0.6340330999810249,231.8782663999591,232.87823109998135,232.8615540000028,None,231.8782663999591,None,231.8782663999591,None,231.8782663999591,None,233.49481548000477,None,233.49481548000477,None,233.49481548000477,None,,,,,,,,,,,,,,102,2023-04-21_17h14.01.631,Main,2022.1.1,60.08427420118477,
neutral,neutral,1,k,k,,,,,,,,,2,7,43,1,,,,,,,,,main,2,2,1,neutral,neutral,k,k,1,0.5992651999695227,233.497729900002,234.51146949996473,234.49490609997883,None,233.497729900002,None,233.497729900002,None,233.497729900002,None,235.0948102800001,None,235.0948102800001,None,235.0948102800001,None,,,,,,,,,,,,,,102,2023-04-21_17h14.01.631,Main,2022.1.1,60.08427420118477,
positive,negative,1,l,j,,,,,,,,,2,8,44,5,,,,,,,,,main,1,1,1,negative,positive,l,l,1,1.0453034000238404,235.09913970000343,236.10885709995637,236.09218849998433,None,235.09913970000343,None,235.09913970000343,None,235.09913970000343,None,237.14222178001074,None,237.14222178001074,None,237.14222178001074,None,,,,,,,,,,,,,,102,2023-04-21_17h14.01.631,Main,2022.1.1,60.08427420118477,
negative,positive,2,j,l,,,,,,,,,2,9,45,15,,,,,,,,,main,2,2,2,positive,negative,j,j,1,0.6659417999908328,237.14254109998,238.14225589996204,238.14225589996204,None,237.14254109998,None,237.14254109998,None,237.14254109998,None,238.8088897800015,None,238.8088897800015,None,238.8088897800015,None,,,,,,,,,,,,,,102,2023-04-21_17h14.01.631,Main,2022.1.1,60.08427420118477,
neutral,neutral,2,k,k,,,,,,,,,2,10,46,10,,,,,,,,,main,1,1,2,neutral,neutral,k,k,1,0.5473027999978513,238.82554960000562,239.82556639995892,239.8089295999962,None,238.82554960000562,None,238.82554960000562,None,238.82554960000562,None,240.35889057999594,None,240.35889057999594,None,240.35889057999594,None,,,,,,,,,,,,,,102,2023-04-21_17h14.01.631,Main,2022.1.1,60.08427420118477,
negative,positive,1,j,l,,,,,,,,,2,11,47,6,,,,,,,,,main,2,2,1,positive,negative,j,j,1,0.7320622999686748,240.36247499997262,241.37802689999808,241.36130940000294,None,240.36247499997262,None,240.36247499997262,None,240.36247499997262,None,242.0925070799829,None,242.0925070799829,None,242.0925070799829,None,,,,,,,,,,,,,,102,2023-04-21_17h14.01.631,Main,2022.1.1,60.08427420118477,
negative,negative,1,j,l,,,,,,,,,2,12,48,0,,,,,,,,,main,2,2,1,negative,negative,j,j,1,0.6495390000054613,242.09817740001017,243.11125640000682,243.09467630001018,None,242.09817740001017,None,242.09817740001017,None,242.09817740001017,None,243.7425018799666,None,243.7425018799666,None,243.7425018799666,None,,,,,,,,,,,,,,102,2023-04-21_17h14.01.631,Main,2022.1.1,60.08427420118477,
neutral,negative,1,k,k,,,,,,,,,2,13,49,7,,,,,,,,,main,1,1,1,negative,neutral,k,k,1,0.615990000020247,243.7487259999616,244.76125959999627,244.74461569997948,None,243.7487259999616,None,243.7487259999616,None,243.7487259999616,None,245.36114517999232,None,245.36114517999232,None,245.36114517999232,None,,,,,,,,,,,,,,102,2023-04-21_17h14.01.631,Main,2022.1.1,60.08427420118477,
neutral,positive,2,k,k,,,,,,,,,2,14,50,13,,,,,,,,,main,2,2,2,positive,neutral,k,k,1,0.5488918000482954,245.36422909999965,246.377861499961,246.36130469996715,None,245.36422909999965,None,245.36422909999965,None,245.36422909999965,None,246.91127357996885,None,246.91127357996885,None,246.91127357996885,None,,,,,,,,,,,,,,102,2023-04-21_17h14.01.631,Main,2022.1.1,60.08427420118477,
positive,positive,2,l,j,,,,,,,,,2,15,51,11,,,,,,,,,main,2,2,2,positive,positive,l,l,1,0.6624793000519276,246.9157775999629,247.92530020000413,247.90863069996703,None,246.9157775999629,None,246.9157775999629,None,246.9157775999629,None,248.57531387997443,None,248.57531387997443,None,248.57531387997443,None,,,,,,,,,,,,,,102,2023-04-21_17h14.01.631,Main,2022.1.1,60.08427420118477,
negative,negative,2,j,l,,,,,,,,,2,16,52,9,,,,,,,,,main,1,1,2,negative,negative,j,j,1,0.6981299000326544,248.57525930000702,249.57528479996836,249.57528479996836,None,248.57525930000702,None,248.57525930000702,None,248.57525930000702,None,250.27531437998988,None,250.27531437998988,None,250.27531437998988,None,,,,,,,,,,,,,,102,2023-04-21_17h14.01.631,Main,2022.1.1,60.08427420118477,
positive,negative,2,l,j,,,,,,,,,2,17,53,14,,,,,,,,,main,1,1,2,negative,positive,l,l,1,0.7152843000367284,250.2754496000125,251.27528780000284,251.27528780000284,None,250.2754496000125,None,250.2754496000125,None,250.2754496000125,None,251.99198718000554,None,251.99198718000554,None,251.99198718000554,None,,,,,,,,,,,,,,102,2023-04-21_17h14.01.631,Main,2022.1.1,60.08427420118477,
neutral,negative,2,k,k,,,,,,,,,3,0,54,16,,,,,,,,,main,1,1,2,negative,neutral,k,k,1,0.5486122999573126,251.99517879995983,252.994520200009,252.994520200009,None,251.99517879995983,None,251.99517879995983,None,251.99517879995983,None,253.54230807999267,None,253.54230807999267,None,253.54230807999267,None,,,,,,,,,,,,,,102,2023-04-21_17h14.01.631,Main,2022.1.1,60.08427420118477,
neutral,negative,1,k,k,,,,,,,,,3,1,55,7,,,,,,,,,main,1,1,1,negative,neutral,k,k,1,0.6007913000066765,253.54778590000933,254.5610531999846,254.54446740000276,None,253.54778590000933,None,253.54778590000933,None,253.54778590000933,None,255.14445247999976,None,255.14445247999976,None,255.14445247999976,None,,,,,,,,,,,,,,102,2023-04-21_17h14.01.631,Main,2022.1.1,60.08427420118477,
negative,positive,1,j,l,,,,,,,,,3,2,56,6,,,,,,,,,main,2,2,1,positive,negative,j,j,1,0.7317155999480747,255.14791349996813,256.1610029999865,256.1444220999838,None,255.14791349996813,None,255.14791349996813,None,255.14791349996813,None,256.8776627799787,None,256.8776627799787,None,256.8776627799787,None,,,,,,,,,,,,,,102,2023-04-21_17h14.01.631,Main,2022.1.1,60.08427420118477,
positive,negative,2,l,j,,,,,,,,,3,3,57,14,,,,,,,,,main,1,1,2,negative,positive,l,l,1,0.6463158999686129,256.8806755999685,257.8942410000018,257.8776030999725,None,256.8806755999685,None,256.8806755999685,None,256.8806755999685,None,258.52550768000657,None,258.52550768000657,None,258.52550768000657,None,,,,,,,,,,,,,,102,2023-04-21_17h14.01.631,Main,2022.1.1,60.08427420118477,
positive,neutral,2,l,j,,,,,,,,,3,4,58,17,,,,,,,,,main,2,2,2,neutral,positive,l,l,1,0.6139731999719515,258.52982299996074,259.5442594999913,259.5277117000078,None,258.52982299996074,None,258.52982299996074,None,258.52982299996074,None,260.1417338799627,None,260.1417338799627,None,260.1417338799627,None,,,,,,,,,,,,,,102,2023-04-21_17h14.01.631,Main,2022.1.1,60.08427420118477,
positive,neutral,1,l,j,,,,,,,,,3,5,59,8,,,,,,,,,main,1,1,1,neutral,positive,l,l,1,0.6815957999788225,260.14171279995935,261.1417248999933,261.1417248999933,None,260.14171279995935,None,260.14171279995935,None,260.14171279995935,None,261.8250958800025,None,261.8250958800025,None,261.8250958800025,None,,,,,,,,,,,,,,102,2023-04-21_17h14.01.631,Main,2022.1.1,60.08427420118477,
neutral,neutral,2,k,k,,,,,,,,,3,6,60,10,,,,,,,,,main,1,1,2,neutral,neutral,k,k,1,0.6150219000410289,261.8251552999718,262.82502280001063,262.82502280001063,None,261.8251552999718,None,261.8251552999718,None,261.8251552999718,None,263.44171377997264,None,263.44171377997264,None,263.44171377997264,None,,,,,,,,,,,,,,102,2023-04-21_17h14.01.631,Main,2022.1.1,60.08427420118477,
neutral,positive,1,k,k,,,,,,,,,3,7,61,4,,,,,,,,,main,1,1,1,positive,neutral,k,k,1,0.6679585999809206,263.4429300999618,264.4583814999787,264.4417022999842,None,263.4429300999618,None,263.4429300999618,None,263.4429300999618,None,265.11102757996997,None,265.11102757996997,None,265.11102757996997,None,,,,,,,,,,,,,,102,2023-04-21_17h14.01.631,Main,2022.1.1,60.08427420118477,
negative,negative,2,j,l,,,,,,,,,3,8,62,9,,,,,,,,,main,1,1,2,negative,negative,j,j,1,0.6314717000350356,265.1138829999836,266.1274751999881,266.1108654999989,None,265.1138829999836,None,265.1138829999836,None,265.1138829999836,None,266.7441139799601,None,266.7441139799601,None,266.7441139799601,None,,,,,,,,,,,,,,102,2023-04-21_17h14.01.631,Main,2022.1.1,60.08427420118477,
negative,neutral,2,j,l,,,,,,,,,3,9,63,12,,,,,,,,,main,1,1,2,neutral,negative,j,j,1,0.6958676999784075,266.74737379996805,267.7607578999596,267.7441869999748,None,266.74737379996805,None,266.74737379996805,None,266.74737379996805,None,268.4416393799882,None,268.4416393799882,None,268.4416393799882,None,,,,,,,,,,,,,,102,2023-04-21_17h14.01.631,Main,2022.1.1,60.08427420118477,
negative,neutral,1,j,l,,,,,,,,,3,10,64,3,,,,,,,,,main,1,1,1,neutral,negative,j,j,1,0.6508584000403062,268.44487249996746,269.4440698999679,269.4274562000064,None,268.44487249996746,None,268.44487249996746,None,268.44487249996746,None,270.0940527799947,None,270.0940527799947,None,270.0940527799947,None,,,,,,,,,,,,,,102,2023-04-21_17h14.01.631,Main,2022.1.1,60.08427420118477,
positive,positive,2,l,j,,,,,,,,,3,11,65,11,,,,,,,,,main,2,2,2,positive,positive,l,l,1,0.6987170999636874,270.09685219998937,271.1106558999745,271.09408109996,None,270.09685219998937,None,270.09685219998937,None,270.09685219998937,None,271.7940957799845,None,271.7940957799845,None,271.7940957799845,None,,,,,,,,,,,,,,102,2023-04-21_17h14.01.631,Main,2022.1.1,60.08427420118477,
positive,positive,1,l,j,,,,,,,,,3,12,66,2,,,,,,,,,main,1,1,1,positive,positive,l,l,1,0.6957539999857545,271.79934909997974,272.8081007999717,272.7914252000046,None,271.79934909997974,None,271.79934909997974,None,271.79934909997974,None,273.4914136800042,None,273.4914136800042,None,273.4914136800042,None,,,,,,,,,,,,,,102,2023-04-21_17h14.01.631,Main,2022.1.1,60.08427420118477,
negative,negative,1,j,l,,,,,,,,,3,13,67,0,,,,,,,,,main,2,2,1,negative,negative,j,j,1,0.8484435999998823,273.4914179999614,274.49149059999036,274.49149059999036,None,273.4914179999614,None,273.4914179999614,None,273.4914179999614,None,275.34149067998516,None,275.34149067998516,None,275.34149067998516,None,,,,,,,,,,,,,,102,2023-04-21_17h14.01.631,Main,2022.1.1,60.08427420118477,
negative,positive,2,j,l,,,,,,,,,3,14,68,15,,,,,,,,,main,1,1,2,positive,negative,j,j,1,0.6324480999610387,275.34182109998073,276.34144119999837,276.34144119999837,None,275.34182109998073,None,275.34182109998073,None,275.34182109998073,None,276.97516417996377,None,276.97516417996377,None,276.97516417996377,None,,,,,,,,,,,,,,102,2023-04-21_17h14.01.631,Main,2022.1.1,60.08427420118477,
neutral,neutral,1,k,k,,,,,,,,,3,15,69,1,,,,,,,,,main,1,1,1,neutral,neutral,k,k,1,0.6168058000039309,276.9786737000104,277.99390369997127,277.97730470000533,None,276.9786737000104,None,276.9786737000104,None,276.9786737000104,None,278.59383937999957,None,278.59383937999957,None,278.59383937999957,None,,,,,,,,,,,,,,102,2023-04-21_17h14.01.631,Main,2022.1.1,60.08427420118477,
positive,negative,1,l,j,,,,,,,,,3,16,70,5,,,,,,,,,main,1,1,1,negative,positive,l,l,1,0.7487977999844588,278.59686599997804,279.61043900001096,279.59390849998454,None,278.59686599997804,None,278.59686599997804,None,278.59686599997804,None,280.34394857995795,None,280.34394857995795,None,280.34394857995795,None,,,,,,,,,,,,,,102,2023-04-21_17h14.01.631,Main,2022.1.1,60.08427420118477,
neutral,positive,2,k,k,,,,,,,,,3,17,71,13,,,,,,,,,main,2,2,2,positive,neutral,k,k,1,0.662993700010702,280.34749879996525,281.36042759998236,281.34389859996736,None,280.34749879996525,None,280.34749879996525,None,280.34749879996525,None,282.00825967998827,None,282.00825967998827,None,282.00825967998827,None,,,,,,,,,,,,,,102,2023-04-21_17h14.01.631,Main,2022.1.1,60.08427420118477,
neutral,positive,2,k,k,,,,,,,,,4,0,72,13,,,,,,,,,main,2,2,2,positive,neutral,k,k,1,0.6336615000036545,282.01467889995547,283.0271589999902,283.0104772999766,None,282.01467889995547,None,282.01467889995547,None,282.01467889995547,None,283.6438295799715,None,283.6438295799715,None,283.6438295799715,None,,,,,,,,,,,,,,102,2023-04-21_17h14.01.631,Main,2022.1.1,60.08427420118477,
positive,positive,2,l,j,,,,,,,,,4,1,73,11,,,,,,,,,main,1,1,2,positive,positive,l,l,1,0.6295044000144117,283.64674060000107,284.65792169998167,284.64126179995947,None,283.64674060000107,None,283.64674060000107,None,283.64674060000107,None,285.27455797999284,None,285.27455797999284,None,285.27455797999284,None,,,,,,,,,,,,,,102,2023-04-21_17h14.01.631,Main,2022.1.1,60.08427420118477,
neutral,positive,1,k,k,,,,,,,,,4,2,74,4,,,,,,,,,main,1,1,1,positive,neutral,k,k,1,0.5480678000021726,285.27474189997884,286.27455139998347,286.27455139998347,None,285.27474189997884,None,285.27474189997884,None,285.27474189997884,None,286.82454648001004,None,286.82454648001004,None,286.82454648001004,None,,,,,,,,,,,,,,102,2023-04-21_17h14.01.631,Main,2022.1.1,60.08427420118477,
positive,neutral,2,l,j,,,,,,,,,4,3,75,17,,,,,,,,,main,1,1,2,neutral,positive,l,l,1,0.6651346000144258,286.82472729997244,287.8245234999922,287.8245234999922,None,286.82472729997244,None,286.82472729997244,None,286.82472729997244,None,288.4912053799897,None,288.4912053799897,None,288.4912053799897,None,,,,,,,,,,,,,,102,2023-04-21_17h14.01.631,Main,2022.1.1,60.08427420118477,
negative,negative,2,j,l,,,,,,,,,4,4,76,9,,,,,,,,,main,1,1,2,negative,negative,j,j,1,0.7151761000277475,288.4945232999744,289.49374899995746,289.49374899995746,None,288.4945232999744,None,288.4945232999744,None,288.4945232999744,None,290.20783887999715,None,290.20783887999715,None,290.20783887999715,None,,,,,,,,,,,,,,102,2023-04-21_17h14.01.631,Main,2022.1.1,60.08427420118477,
neutral,neutral,2,k,k,,,,,,,,,4,5,77,10,,,,,,,,,main,2,2,2,neutral,neutral,k,k,1,0.5845200999756344,290.2139670999604,291.2269192999811,291.21031950000906,None,290.2139670999604,None,290.2139670999604,None,290.2139670999604,None,291.7940083799593,None,291.7940083799593,None,291.7940083799593,None,,,,,,,,,,,,,,102,2023-04-21_17h14.01.631,Main,2022.1.1,60.08427420118477,
negative,neutral,2,j,l,,,,,,,,,4,6,78,12,,,,,,,,,main,1,1,2,neutral,negative,j,j,1,0.6977765999617986,291.7966990999994,292.81022260000464,292.7936641999986,None,291.7966990999994,None,291.7966990999994,None,291.7966990999994,None,293.49362797998475,None,293.49362797998475,None,293.49362797998475,None,,,,,,,,,,,,,,102,2023-04-21_17h14.01.631,Main,2022.1.1,60.08427420118477,
positive,negative,2,l,j,,,,,,,,,4,7,79,14,,,,,,,,,main,2,2,2,negative,positive,l,l,1,0.7154794000089169,293.49628659995506,294.5101586999954,294.49357099999906,None,293.49628659995506,None,293.49628659995506,None,293.49628659995506,None,295.21034647999915,None,295.21034647999915,None,295.21034647999915,None,,,,,,,,,,,,,,102,2023-04-21_17h14.01.631,Main,2022.1.1,60.08427420118477,
neutral,negative,2,k,k,,,,,,,,,4,8,80,16,,,,,,,,,main,2,2,2,negative,neutral,k,k,1,0.5792400999926031,295.21329509996576,296.2242595999851,296.20758659997955,None,295.21329509996576,None,295.21329509996576,None,295.21329509996576,None,296.7909411800036,None,296.7909411800036,None,296.7909411800036,None,,,,,,,,,,,,,,102,2023-04-21_17h14.01.631,Main,2022.1.1,60.08427420118477,
neutral,negative,1,k,k,,,,,,,,,4,9,81,7,,,,,,,,,main,1,1,1,negative,neutral,k,k,1,0.9483271000208333,296.7910233999719,297.79093919997104,297.79093919997104,None,296.7910233999719,None,296.7910233999719,None,296.7910233999719,None,298.74096177999746,None,298.74096177999746,None,298.74096177999746,None,,,,,,,,,,,,,,102,2023-04-21_17h14.01.631,Main,2022.1.1,60.08427420118477,
positive,positive,1,l,j,,,,,,,,,4,10,82,2,,,,,,,,,main,2,2,1,positive,positive,l,l,1,1.0145255000097677,298.74289009999484,299.75762429996394,299.7409573000041,None,298.74289009999484,None,298.74289009999484,None,298.74289009999484,None,300.75761968000444,None,300.75761968000444,None,300.75761968000444,None,,,,,,,,,,,,,,102,2023-04-21_17h14.01.631,Main,2022.1.1,60.08427420118477,
positive,neutral,1,l,j,,,,,,,,,4,11,83,8,,,,,,,,,main,2,2,1,neutral,positive,l,l,1,0.6150584000279196,300.76187899999786,301.77677810000023,301.76014299999224,None,300.76187899999786,None,300.76187899999786,None,300.76187899999786,None,302.3745906799857,None,302.3745906799857,None,302.3745906799857,None,,,,,,,,,,,,,,102,2023-04-21_17h14.01.631,Main,2022.1.1,60.08427420118477,
positive,negative,1,l,j,,,,,,,,,4,12,84,5,,,,,,,,,main,1,1,1,negative,positive,l,l,1,0.5312546999775805,302.3780555999838,303.3910176999634,303.3767194999964,None,302.3780555999838,None,302.3780555999838,None,302.3780555999838,None,303.9076223799901,None,303.9076223799901,None,303.9076223799901,None,,,,,,,,,,,,,,102,2023-04-21_17h14.01.631,Main,2022.1.1,60.08427420118477,
negative,neutral,1,j,l,,,,,,,,,4,13,85,3,,,,,,,,,main,2,2,1,neutral,negative,j,j,1,0.750700099975802,303.91977819998283,304.92665199999465,304.91006789996754,None,303.91977819998283,None,303.91977819998283,None,303.91977819998283,None,305.65997898000643,None,305.65997898000643,None,305.65997898000643,None,,,,,,,,,,,,,,102,2023-04-21_17h14.01.631,Main,2022.1.1,60.08427420118477,
negative,positive,1,j,l,,,,,,,,,4,14,86,6,,,,,,,,,main,1,1,1,positive,negative,j,j,1,0.6144224000163376,305.66388879995793,306.67658829997526,306.6600058999611,None,305.66388879995793,None,305.66388879995793,None,305.66388879995793,None,307.2765787800134,None,307.2765787800134,None,307.2765787800134,None,,,,,,,,,,,,,,102,2023-04-21_17h14.01.631,Main,2022.1.1,60.08427420118477,
negative,positive,2,j,l,,,,,,,,,4,15,87,15,,,,,,,,,main,1,1,2,positive,negative,j,j,1,0.7791863000020385,307.2796522999997,308.29068380000535,308.2740156999789,None,307.2796522999997,None,307.2796522999997,None,307.2796522999997,None,309.0573507799825,None,309.0573507799825,None,309.0573507799825,None,,,,,,,,,,,,,,102,2023-04-21_17h14.01.631,Main,2022.1.1,60.08427420118477,
neutral,neutral,1,k,k,,,,,,,,,4,16,88,1,,,,,,,,,main,1,1,1,neutral,neutral,k,k,1,0.6151640000171028,309.057324399997,310.05741099995794,310.05741099995794,None,309.057324399997,None,309.057324399997,None,309.057324399997,None,310.67403267997435,None,310.67403267997435,None,310.67403267997435,None,,,,,,,,,,,,,,102,2023-04-21_17h14.01.631,Main,2022.1.1,60.08427420118477,
negative,negative,1,j,l,,,,,,,,,4,17,89,0,,,,,,,,,main,1,1,1,negative,negative,j,j,1,0.73128030000953,310.67520419997163,311.6907057999633,311.67402229999425,None,310.67520419997163,None,310.67520419997163,None,310.67520419997163,None,312.407390279969,None,312.407390279969,None,312.407390279969,None,,,,,,,,,,,,,,102,2023-04-21_17h14.01.631,Main,2022.1.1,60.08427420118477,
negative,neutral,1,j,l,,,,,,,,,5,0,90,3,,,,,,,,,main,2,2,1,neutral,negative,j,j,1,0.6337437000474893,312.41098559997045,313.426521699992,313.4098651999957,None,312.41098559997045,None,312.41098559997045,None,312.41098559997045,None,314.0431540799735,None,314.0431540799735,None,314.0431540799735,None,,,,,,,,,,,,,,102,2023-04-21_17h14.01.631,Main,2022.1.1,60.08427420118477,
positive,positive,1,l,j,,,,,,,,,5,1,91,2,,,,,,,,,main,1,1,1,positive,positive,l,l,1,0.698534200026188,314.0470772999688,315.0596952000051,315.0431304000085,None,314.0470772999688,None,314.0470772999688,None,314.0470772999688,None,315.74310328000576,None,315.74310328000576,None,315.74310328000576,None,,,,,,,,,,,,,,102,2023-04-21_17h14.01.631,Main,2022.1.1,60.08427420118477,
neutral,positive,2,k,k,,,,,,,,,5,2,92,13,,,,,,,,,main,1,1,2,positive,neutral,k,k,1,0.5332616000087,315.74601880001137,316.7597642999608,316.74314519995824,None,315.74601880001137,None,315.74601880001137,None,315.74601880001137,None,317.2764837799885,None,317.2764837799885,None,317.2764837799885,None,,,,,,,,,,,,,,102,2023-04-21_17h14.01.631,Main,2022.1.1,60.08427420118477,
neutral,neutral,2,k,k,,,,,,,,,5,3,93,10,,,,,,,,,main,2,2,2,neutral,neutral,k,k,1,0.6137346999603324,317.2809386999579,318.2930453000008,318.27647019998403,None,317.2809386999579,None,317.2809386999579,None,317.2809386999579,None,318.89299867998926,None,318.89299867998926,None,318.89299867998926,None,,,,,,,,,,,,,,102,2023-04-21_17h14.01.631,Main,2022.1.1,60.08427420118477,
neutral,neutral,1,k,k,,,,,,,,,5,4,94,1,,,,,,,,,main,1,1,1,neutral,neutral,k,k,1,0.5623787000076845,318.89597069995943,319.90963449998526,319.8930868000025,None,318.89597069995943,None,318.89597069995943,None,318.89597069995943,None,320.4571070800128,None,320.4571070800128,None,320.4571070800128,None,,,,,,,,,,,,,,102,2023-04-21_17h14.01.631,Main,2022.1.1,60.08427420118477,
positive,negative,1,l,j,,,,,,,,,5,5,95,5,,,,,,,,,main,2,2,1,negative,positive,l,l,1,0.7492653999943286,320.4575502999942,321.45709059998626,321.45709059998626,None,320.4575502999942,None,320.4575502999942,None,320.4575502999942,None,322.2071383799601,None,322.2071383799601,None,322.2071383799601,None,,,,,,,,,,,,,,102,2023-04-21_17h14.01.631,Main,2022.1.1,60.08427420118477,
negative,negative,1,j,l,,,,,,,,,5,6,96,0,,,,,,,,,main,2,2,1,negative,negative,j,k,0,0.49705860001267865,322.20934100000886,323.22377409995534,323.2071105999639,None,322.20934100000886,None,322.20934100000886,None,322.20934100000886,None,323.7071250999579,None,323.7071250999579,None,323.7071250999579,None,,,,,,,,,,,,,,102,2023-04-21_17h14.01.631,Main,2022.1.1,60.08427420118477,
positive,negative,2,l,j,,,,,,,,,5,7,97,14,,,,,,,,,main,1,1,2,negative,positive,l,l,1,0.7703443999635056,324.7079405999975,325.70956019998994,325.6929644999909,None,324.7079405999975,None,324.7079405999975,None,324.7079405999975,None,326.47636577997474,None,326.47636577997474,None,326.47636577997474,None,,,,,,,,,,,,,,102,2023-04-21_17h14.01.631,Main,2022.1.1,60.08427420118477,
positive,neutral,2,l,j,,,,,,,,,5,8,98,17,,,,,,,,,main,1,1,2,neutral,positive,l,l,1,0.6811862000031397,326.4799502000096,327.49278530001175,327.476187399996,None,326.4799502000096,None,326.4799502000096,None,326.4799502000096,None,328.15953548000545,None,328.15953548000545,None,328.15953548000545,None,,,,,,,,,,,,,,102,2023-04-21_17h14.01.631,Main,2022.1.1,60.08427420118477,
positive,neutral,1,l,j,,,,,,,,,5,9,99,8,,,,,,,,,main,2,2,1,neutral,positive,l,l,1,0.7796164999599569,328.16270280000754,329.1761162999901,329.1594984999974,None,328.16270280000754,None,328.16270280000754,None,328.16270280000754,None,329.94069227999427,None,329.94069227999427,None,329.94069227999427,None,,,,,,,,,,,,,,102,2023-04-21_17h14.01.631,Main,2022.1.1,60.08427420118477,
neutral,negative,1,k,k,,,,,,,,,5,10,100,7,,,,,,,,,main,2,2,1,negative,neutral,k,k,1,0.6840089000179432,329.94408389995806,330.959423399996,330.9428382999613,None,329.94408389995806,None,329.94408389995806,None,329.94408389995806,None,331.6261076800118,None,331.6261076800118,None,331.6261076800118,None,,,,,,,,,,,,,,102,2023-04-21_17h14.01.631,Main,2022.1.1,60.08427420118477,
neutral,negative,2,k,k,,,,,,,,,5,11,101,16,,,,,,,,,main,2,2,2,negative,neutral,k,k,1,0.6622715000412427,331.62918419996276,332.6401595000061,332.62350779998815,None,331.62918419996276,None,331.62918419996276,None,331.62918419996276,None,333.2901615800045,None,333.2901615800045,None,333.2901615800045,None,,,,,,,,,,,,,,102,2023-04-21_17h14.01.631,Main,2022.1.1,60.08427420118477,
neutral,positive,1,k,k,,,,,,,,,5,12,102,4,,,,,,,,,main,1,1,1,positive,neutral,k,k,1,0.6321690000477247,333.2911049000104,334.29021730000386,334.29021730000386,None,333.2911049000104,None,333.2911049000104,None,333.2911049000104,None,334.9235249800084,None,334.9235249800084,None,334.9235249800084,None,,,,,,,,,,,,,,102,2023-04-21_17h14.01.631,Main,2022.1.1,60.08427420118477,
negative,negative,2,j,l,,,,,,,,,5,13,103,9,,,,,,,,,main,1,1,2,negative,negative,j,j,1,0.6649489999981597,334.92392480000854,335.92351130000316,335.92351130000316,None,334.92392480000854,None,334.92392480000854,None,334.92392480000854,None,336.5901925799961,None,336.5901925799961,None,336.5901925799961,None,,,,,,,,,,,,,,102,2023-04-21_17h14.01.631,Main,2022.1.1,60.08427420118477,
negative,positive,2,j,l,,,,,,,,,5,14,104,15,,,,,,,,,main,2,2,2,positive,negative,j,j,1,0.7010272999759763,336.5936174999806,337.5927064999705,337.5927064999705,None,336.5936174999806,None,336.5936174999806,None,336.5936174999806,None,338.2926515799889,None,338.2926515799889,None,338.2926515799889,None,,,,,,,,,,,,,,102,2023-04-21_17h14.01.631,Main,2022.1.1,60.08427420118477,
negative,neutral,2,j,l,,,,,,,,,5,15,105,12,,,,,,,,,main,1,1,2,neutral,negative,j,j,1,0.614962599996943,338.2960804000031,339.3092713999795,339.29265009996016,None,338.2960804000031,None,338.2960804000031,None,338.2960804000031,None,339.9092734799895,None,339.9092734799895,None,339.9092734799895,None,,,,,,,,,,,,,,102,2023-04-21_17h14.01.631,Main,2022.1.1,60.08427420118477,
negative,positive,1,j,l,,,,,,,,,5,16,106,6,,,,,,,,,main,2,2,1,positive,negative,j,j,1,0.9472682999912649,339.91219279996585,340.92586519999895,340.9092592999805,None,339.91219279996585,None,339.91219279996585,None,339.91219279996585,None,341.85778037998244,None,341.85778037998244,None,341.85778037998244,None,,,,,,,,,,,,,,102,2023-04-21_17h14.01.631,Main,2022.1.1,60.08427420118477,
positive,positive,2,l,j,,,,,,,,,5,17,107,11,,,,,,,,,main,1,1,2,positive,positive,l,l,1,0.7476626000134274,341.8637347999611,342.87585620000027,342.85919609997654,None,341.8637347999611,None,341.8637347999611,None,341.8637347999611,None,343.6070338800026,None,343.6070338800026,None,343.6070338800026,None,,,,,,,,,,,,,,102,2023-04-21_17h14.01.631,Main,2022.1.1,60.08427420118477,
positive,neutral,1,l,j,,,,,,,,,6,0,108,8,,,,,,,,,main,1,1,1,neutral,positive,l,l,1,1.6990501999971457,343.6123076999793,344.62325090001104,344.60657679999713,None,343.6123076999793,None,343.6123076999793,None,343.6123076999793,None,346.30662889999803,None,346.30662889999803,None,346.30662889999803,None,,,,,,,,,,,,,,102,2023-04-21_17h14.01.631,Main,2022.1.1,60.08427420118477,
neutral,negative,2,k,k,,,,,,,,,6,1,109,16,,,,,,,,,main,2,2,2,negative,neutral,k,k,1,0.7035171000170521,347.3066002000123,348.3065932999598,348.2899076999747,None,347.3066002000123,None,347.3066002000123,None,347.3066002000123,None,349.00661447997555,None,349.00661447997555,None,349.00661447997555,None,,,,,,,,,,,,,,102,2023-04-21_17h14.01.631,Main,2022.1.1,60.08427420118477,
negative,neutral,2,j,l,,,,,,,,,6,2,110,12,,,,,,,,,main,2,2,2,neutral,negative,j,j,1,0.7339680999866687,349.0102485999814,350.025715900003,350.0091177999857,None,349.0102485999814,None,349.0102485999814,None,349.0102485999814,None,350.7423623800103,None,350.7423623800103,None,350.7423623800103,None,,,,,,,,,,,,,,102,2023-04-21_17h14.01.631,Main,2022.1.1,60.08427420118477,
neutral,neutral,2,k,k,,,,,,,,,6,3,111,10,,,,,,,,,main,1,1,2,neutral,neutral,k,k,1,0.5292741000303067,350.74511279998114,351.7589988000109,351.7423939,None,350.74511279998114,None,350.74511279998114,None,350.74511279998114,None,352.27316838000553,None,352.27316838000553,None,352.27316838000553,None,,,,,,,,,,,,,,102,2023-04-21_17h14.01.631,Main,2022.1.1,60.08427420118477,
negative,positive,2,j,l,,,,,,,,,6,4,112,15,,,,,,,,,main,1,1,2,positive,negative,j,j,1,0.7676093999762088,352.27659799996763,353.27564539999,353.27564539999,None,352.27659799996763,None,352.27659799996763,None,352.27659799996763,None,354.0423250800057,None,354.0423250800057,None,354.0423250800057,None,,,,,,,,,,,,,,102,2023-04-21_17h14.01.631,Main,2022.1.1,60.08427420118477,
negative,negative,1,j,l,,,,,,,,,6,5,113,0,,,,,,,,,main,1,1,1,negative,negative,j,j,1,0.8984324999619275,354.04544509999687,355.05893279996235,355.0423562999931,None,354.04544509999687,None,354.04544509999687,None,354.04544509999687,None,355.9423765800137,None,355.9423765800137,None,355.9423765800137,None,,,,,,,,,,,,,,102,2023-04-21_17h14.01.631,Main,2022.1.1,60.08427420118477,
neutral,positive,2,k,k,,,,,,,,,6,6,114,13,,,,,,,,,main,2,2,2,positive,neutral,k,k,1,0.696961400040891,355.9455106999958,356.9563481999794,356.93969769997057,None,355.9455106999958,None,355.9455106999958,None,355.9455106999958,None,357.6396462799574,None,357.6396462799574,None,357.6396462799574,None,,,,,,,,,,,,,,102,2023-04-21_17h14.01.631,Main,2022.1.1,60.08427420118477,
negative,neutral,1,j,l,,,,,,,,,6,7,115,3,,,,,,,,,main,1,1,1,neutral,negative,j,j,1,0.7807488000253215,357.64042799995514,358.6397059999872,358.6397059999872,None,357.64042799995514,None,357.64042799995514,None,357.64042799995514,None,359.423023979977,None,359.423023979977,None,359.423023979977,None,,,,,,,,,,,,,,102,2023-04-21_17h14.01.631,Main,2022.1.1,60.08427420118477,
negative,positive,1,j,l,,,,,,,,,6,8,116,6,,,,,,,,,main,2,2,1,positive,negative,j,j,1,0.7869669999927282,359.4235458999756,360.42298639996443,360.42298639996443,None,359.4235458999756,None,359.4235458999756,None,359.4235458999756,None,361.20855707999436,None,361.20855707999436,None,361.20855707999436,None,,,,,,,,,,,,,,102,2023-04-21_17h14.01.631,Main,2022.1.1,60.08427420118477,
positive,neutral,2,l,j,,,,,,,,,6,9,117,17,,,,,,,,,main,2,2,2,neutral,positive,l,l,1,0.7125744000077248,361.2147280999925,362.22548299998743,362.2088388999691,None,361.2147280999925,None,361.2147280999925,None,361.2147280999925,None,362.9254632799828,None,362.9254632799828,None,362.9254632799828,None,,,,,,,,,,,,,,102,2023-04-21_17h14.01.631,Main,2022.1.1,60.08427420118477,
neutral,negative,1,k,k,,,,,,,,,6,10,118,7,,,,,,,,,main,2,2,1,negative,neutral,k,k,1,0.6472896999912336,362.92866849998245,363.94209769996814,363.9254401999642,None,362.92866849998245,None,362.92866849998245,None,362.92866849998245,None,364.57327327997774,None,364.57327327997774,None,364.57327327997774,None,,,,,,,,,,,,,,102,2023-04-21_17h14.01.631,Main,2022.1.1,60.08427420118477,
positive,negative,1,l,j,,,,,,,,,6,11,119,5,,,,,,,,,main,1,1,1,negative,positive,l,l,1,1.1140837999992073,364.57937579997815,365.59202539996477,365.5754355000099,None,364.57937579997815,None,364.57937579997815,None,364.57937579997815,None,366.6899154799583,None,366.6899154799583,None,366.6899154799583,None,,,,,,,,,,,,,,102,2023-04-21_17h14.01.631,Main,2022.1.1,60.08427420118477,
positive,negative,2,l,j,,,,,,,,,6,12,120,14,,,,,,,,,main,2,2,2,negative,positive,l,l,1,0.6645917000132613,366.6956336000003,367.70862689998467,367.6920434999629,None,366.6956336000003,None,366.6956336000003,None,366.6956336000003,None,368.3561114799639,None,368.3561114799639,None,368.3561114799639,None,,,,,,,,,,,,,,102,2023-04-21_17h14.01.631,Main,2022.1.1,60.08427420118477,
positive,positive,1,l,j,,,,,,,,,6,13,121,2,,,,,,,,,main,2,2,1,positive,positive,l,l,1,0.6319942999980412,368.3561002999777,369.3561066999682,369.3561066999682,None,368.3561002999777,None,368.3561002999777,None,368.3561002999777,None,369.989483079972,None,369.989483079972,None,369.989483079972,None,,,,,,,,,,,,,,102,2023-04-21_17h14.01.631,Main,2022.1.1,60.08427420118477,
positive,positive,2,l,j,,,,,,,,,6,14,122,11,,,,,,,,,main,2,2,2,positive,positive,l,l,1,0.5320647000335157,369.9931877999916,371.00866299995687,370.9919224999612,None,369.9931877999916,None,369.9931877999916,None,369.9931877999916,None,371.52307567999816,None,371.52307567999816,None,371.52307567999816,None,,,,,,,,,,,,,,102,2023-04-21_17h14.01.631,Main,2022.1.1,60.08427420118477,
neutral,neutral,1,k,k,,,,,,,,,6,15,123,1,,,,,,,,,main,2,2,1,neutral,neutral,k,k,1,0.5817009000456892,371.5266676999745,372.54182789998595,372.52524819999235,None,371.5266676999745,None,371.5266676999745,None,371.5266676999745,None,373.10643267996494,None,373.10643267996494,None,373.10643267996494,None,,,,,,,,,,,,,,102,2023-04-21_17h14.01.631,Main,2022.1.1,60.08427420118477,
neutral,positive,1,k,k,,,,,,,,,6,16,124,4,,,,,,,,,main,2,2,1,positive,neutral,k,k,1,0.5483507000026293,373.10997230000794,374.1251885999809,374.108574999962,None,373.10997230000794,None,373.10997230000794,None,373.10997230000794,None,374.65627037999803,None,374.65627037999803,None,374.65627037999803,None,,,,,,,,,,,,,,102,2023-04-21_17h14.01.631,Main,2022.1.1,60.08427420118477,
negative,negative,2,j,l,,,,,,,,,6,17,125,9,,,,,,,,,main,1,1,2,negative,negative,j,j,1,0.5987440000171773,374.6621057000011,375.6751227999921,375.6585073999595,None,374.6621057000011,None,374.6621057000011,None,374.6621057000011,None,376.25643257998746,None,376.25643257998746,None,376.25643257998746,None,,,,,,,,,,,,,,102,2023-04-21_17h14.01.631,Main,2022.1.1,60.08427420118477,
positive,neutral,2,l,j,,,,,,,,,7,0,126,17,,,,,,,,,main,1,1,2,neutral,positive,l,l,1,0.7644299999810755,376.2622602999909,377.27502229996026,377.2584339999594,None,376.2622602999909,None,376.2622602999909,None,376.2622602999909,None,378.0225448799727,None,378.0225448799727,None,378.0225448799727,None,,,,,,,,,,,,,,102,2023-04-21_17h14.01.631,Main,2022.1.1,60.08427420118477,
negative,positive,2,j,l,,,,,,,,,7,1,127,15,,,,,,,,,main,2,2,2,positive,negative,j,j,1,0.7485874000121839,378.0225578999962,379.0226173999836,379.0226173999836,None,378.0225578999962,None,378.0225578999962,None,378.0225578999962,None,379.77259857997416,None,379.77259857997416,None,379.77259857997416,None,,,,,,,,,,,,,,102,2023-04-21_17h14.01.631,Main,2022.1.1,60.08427420118477,
positive,positive,2,l,j,,,,,,,,,7,2,128,11,,,,,,,,,main,1,1,2,positive,positive,l,l,1,0.6484662999864668,379.7734646999743,380.77257089997875,380.77257089997875,None,379.7734646999743,None,379.7734646999743,None,379.7734646999743,None,381.422544879996,None,381.422544879996,None,381.422544879996,None,,,,,,,,,,,,,,102,2023-04-21_17h14.01.631,Main,2022.1.1,60.08427420118477,
negative,neutral,1,j,l,,,,,,,,,7,3,129,3,,,,,,,,,main,1,1,1,neutral,negative,j,j,1,1.100891500012949,381.4230927999597,382.42255089996615,382.42255089996615,None,381.4230927999597,None,381.4230927999597,None,381.4230927999597,None,383.52506757997327,None,383.52506757997327,None,383.52506757997327,None,,,,,,,,,,,,,,102,2023-04-21_17h14.01.631,Main,2022.1.1,60.08427420118477,
neutral,neutral,1,k,k,,,,,,,,,7,4,130,1,,,,,,,,,main,2,2,1,neutral,neutral,k,k,1,0.6151748000411317,383.5287265999941,384.5416375999921,384.5250412999885,None,383.5287265999941,None,383.5287265999941,None,383.5287265999941,None,385.1417996799981,None,385.1417996799981,None,385.1417996799981,None,,,,,,,,,,,,,,102,2023-04-21_17h14.01.631,Main,2022.1.1,60.08427420118477,
negative,neutral,2,j,l,,,,,,,,,7,5,131,12,,,,,,,,,main,1,1,2,neutral,negative,j,j,1,0.6960389000014402,385.14472879999084,386.15828480001073,386.14165720000165,None,385.14472879999084,None,385.14472879999084,None,385.14472879999084,None,386.8394753800065,None,386.8394753800065,None,386.8394753800065,None,,,,,,,,,,,,,,102,2023-04-21_17h14.01.631,Main,2022.1.1,60.08427420118477,
negative,negative,1,j,l,,,,,,,,,7,6,132,0,,,,,,,,,main,2,2,1,negative,negative,j,j,1,1.2485352999647148,386.8432848000084,387.85817829996813,387.8417197999661,None,386.8432848000084,None,386.8432848000084,None,386.8432848000084,None,389.08943177996554,None,389.08943177996554,None,389.08943177996554,None,,,,,,,,,,,,,,102,2023-04-21_17h14.01.631,Main,2022.1.1,60.08427420118477,
positive,positive,1,l,j,,,,,,,,,7,7,133,2,,,,,,,,,main,1,1,1,positive,positive,l,l,1,0.9812035000068136,389.0931401999551,390.1056391999591,390.0889775999822,None,389.0931401999551,None,389.0931401999551,None,389.0931401999551,None,391.07231318000123,None,391.07231318000123,None,391.07231318000123,None,,,,,,,,,,,,,,102,2023-04-21_17h14.01.631,Main,2022.1.1,60.08427420118477,
positive,negative,2,l,j,,,,,,,,,7,8,134,14,,,,,,,,,main,2,2,2,negative,positive,l,l,1,0.6818027999834158,391.07226859999355,392.07234099996276,392.07234099996276,None,391.07226859999355,None,391.07226859999355,None,391.07226859999355,None,392.7556480800093,None,392.7556480800093,None,392.7556480800093,None,,,,,,,,,,,,,,102,2023-04-21_17h14.01.631,Main,2022.1.1,60.08427420118477,
negative,negative,2,j,l,,,,,,,,,7,9,135,9,,,,,,,,,main,2,2,2,negative,negative,j,j,1,0.7317417999729514,392.75576430000365,393.7556474999874,393.7556474999874,None,392.75576430000365,None,392.75576430000365,None,392.75576430000365,None,394.4889697799634,None,394.4889697799634,None,394.4889697799634,None,,,,,,,,,,,,,,102,2023-04-21_17h14.01.631,Main,2022.1.1,60.08427420118477,
neutral,neutral,2,k,k,,,,,,,,,7,10,136,10,,,,,,,,,main,1,1,2,neutral,neutral,k,k,1,0.5341991999885067,394.4921682999702,395.49148599995533,395.49148599995533,None,394.4921682999702,None,394.4921682999702,None,394.4921682999702,None,396.02469018000994,None,396.02469018000994,None,396.02469018000994,None,,,,,,,,,,,,,,102,2023-04-21_17h14.01.631,Main,2022.1.1,60.08427420118477,
neutral,negative,2,k,k,,,,,,,,,7,11,137,16,,,,,,,,,main,2,2,2,negative,neutral,k,k,1,0.6652990999864414,396.0278156999848,397.0414269999601,397.024793199962,None,396.0278156999848,None,396.0278156999848,None,396.0278156999848,None,397.6913599800144,None,397.6913599800144,None,397.6913599800144,None,,,,,,,,,,,,,,102,2023-04-21_17h14.01.631,Main,2022.1.1,60.08427420118477,
neutral,positive,2,k,k,,,,,,,,,7,12,138,13,,,,,,,,,main,2,2,2,positive,neutral,k,k,1,0.5629577999934554,397.69484229997033,398.7080511999666,398.6914245999651,None,397.69484229997033,None,397.69484229997033,None,397.69484229997033,None,399.25583577998333,None,399.25583577998333,None,399.25583577998333,None,,,,,,,,,,,,,,102,2023-04-21_17h14.01.631,Main,2022.1.1,60.08427420118477,
negative,positive,1,j,l,,,,,,,,,7,13,139,6,,,,,,,,,main,2,2,1,positive,negative,j,j,1,0.7006192000117153,399.25966669997433,400.2747390999575,400.2579659000039,None,399.25966669997433,None,399.25966669997433,None,399.25966669997433,None,400.95813387997333,None,400.95813387997333,None,400.95813387997333,None,,,,,,,,,,,,,,102,2023-04-21_17h14.01.631,Main,2022.1.1,60.08427420118477,
neutral,negative,1,k,k,,,,,,,,,7,14,140,7,,,,,,,,,main,2,2,1,negative,neutral,k,k,1,0.5956208999850787,400.9628348000115,401.97206800000276,401.95541100000264,None,400.9628348000115,None,400.9628348000115,None,400.9628348000115,None,402.55538027999575,None,402.55538027999575,None,402.55538027999575,None,,,,,,,,,,,,,,102,2023-04-21_17h14.01.631,Main,2022.1.1,60.08427420118477,
positive,neutral,1,l,j,,,,,,,,,7,15,141,8,,,,,,,,,main,1,1,1,neutral,positive,l,j,0,0.7662154999561608,402.55590909998864,403.555366399989,403.555366399989,None,402.55590909998864,None,402.55590909998864,None,402.55590909998864,None,404.32206340000266,None,404.32206340000266,None,404.32206340000266,None,,,,,,,,,,,,,,102,2023-04-21_17h14.01.631,Main,2022.1.1,60.08427420118477,
positive,negative,1,l,j,,,,,,,,,7,16,142,5,,,,,,,,,main,2,2,1,negative,positive,l,j,0,0.7562341999728233,405.3220430999645,406.32203759998083,406.3053842000081,None,405.3220430999645,None,405.3220430999645,None,405.3220430999645,None,407.074592399993,None,407.074592399993,None,407.074592399993,None,,,,,,,,,,,,,,102,2023-04-21_17h14.01.631,Main,2022.1.1,60.08427420118477,
neutral,positive,1,k,k,,,,,,,,,7,17,143,4,,,,,,,,,main,1,1,1,positive,neutral,k,k,1,0.7706401000032201,408.0726583999931,409.07446539995726,409.05786689999513,None,408.0726583999931,None,408.0726583999931,None,408.0726583999931,None,409.84122807996465,None,409.84122807996465,None,409.84122807996465,None,,,,,,,,,,,,,,102,2023-04-21_17h14.01.631,Main,2022.1.1,60.08427420118477,
negative,positive,1,j,l,,,,,,,,,8,0,144,6,,,,,,,,,main,1,1,1,positive,negative,j,j,1,0.8450411999947391,409.8452772999881,410.8577804999659,410.84113309998065,None,409.8452772999881,None,409.8452772999881,None,409.8452772999881,None,411.6886300800077,None,411.6886300800077,None,411.6886300800077,None,,,,,,,,,,,,,,102,2023-04-21_17h14.01.631,Main,2022.1.1,60.08427420118477,
neutral,negative,2,k,k,,,,,,,,,8,1,145,16,,,,,,,,,main,1,1,2,negative,neutral,k,k,1,0.5651311000110582,411.69431009999244,412.70771359995706,412.67445930000395,None,411.69431009999244,None,411.69431009999244,None,411.69431009999244,None,413.2552573800029,None,413.2552573800029,None,413.2552573800029,None,,,,,,,,,,,,,,102,2023-04-21_17h14.01.631,Main,2022.1.1,60.08427420118477,
negative,neutral,2,j,l,,,,,,,,,8,2,146,12,,,,,,,,,main,2,2,2,neutral,negative,j,j,1,0.6819289000122808,413.2613704999676,414.2718337000115,414.2551801999798,None,413.2613704999676,None,413.2613704999676,None,413.2613704999676,None,414.9385111799755,None,414.9385111799755,None,414.9385111799755,None,,,,,,,,,,,,,,102,2023-04-21_17h14.01.631,Main,2022.1.1,60.08427420118477,
neutral,positive,2,k,k,,,,,,,,,8,3,147,13,,,,,,,,,main,2,2,2,positive,neutral,k,k,1,0.5983180000330321,414.939634499955,415.9551657999982,415.9385098000057,None,414.939634499955,None,414.939634499955,None,414.939634499955,None,416.5384884800122,None,416.5384884800122,None,416.5384884800122,None,,,,,,,,,,,,,,102,2023-04-21_17h14.01.631,Main,2022.1.1,60.08427420118477,
neutral,neutral,1,k,k,,,,,,,,,8,4,148,1,,,,,,,,,main,2,2,1,neutral,neutral,k,k,1,0.7842594999819994,416.53880079998635,417.5384650999913,417.5384650999913,None,416.53880079998635,None,416.53880079998635,None,416.53880079998635,None,418.3243828799867,None,418.3243828799867,None,418.3243828799867,None,,,,,,,,,,,,,,102,2023-04-21_17h14.01.631,Main,2022.1.1,60.08427420118477,
positive,negative,1,l,j,,,,,,,,,8,5,149,5,,,,,,,,,main,1,1,1,negative,positive,l,l,1,0.898455299960915,418.32722789997933,419.3409372000024,419.3243149999762,None,418.32722789997933,None,418.32722789997933,None,418.32722789997933,None,420.2242272799893,None,420.2242272799893,None,420.2242272799893,None,,,,,,,,,,,,,,102,2023-04-21_17h14.01.631,Main,2022.1.1,60.08427420118477,
negative,negative,1,j,l,,,,,,,,,8,6,150,0,,,,,,,,,main,2,2,1,negative,negative,j,j,1,0.8148639999562874,420.22790800000075,421.2408686999697,421.22431899997173,None,420.22790800000075,None,420.22790800000075,None,420.22790800000075,None,422.0408598799666,None,422.0408598799666,None,422.0408598799666,None,,,,,,,,,,,,,,102,2023-04-21_17h14.01.631,Main,2022.1.1,60.08427420118477,
positive,neutral,2,l,j,,,,,,,,,8,7,151,17,,,,,,,,,main,2,2,2,neutral,positive,l,l,1,0.6984189000213519,422.04392460000236,423.057494699955,423.0408939999761,None,422.04392460000236,None,422.04392460000236,None,422.04392460000236,None,423.7407768799865,None,423.7407768799865,None,423.7407768799865,None,,,,,,,,,,,,,,102,2023-04-21_17h14.01.631,Main,2022.1.1,60.08427420118477,
positive,positive,1,l,j,,,,,,,,,8,8,152,2,,,,,,,,,main,1,1,1,positive,positive,l,k,0,0.9823348000063561,423.7438633000129,424.75745299999835,424.7408371999627,None,423.7438633000129,None,423.7438633000129,None,423.7438633000129,None,425.7323829999659,None,425.7323829999659,None,425.7323829999659,None,,,,,,,,,,,,,,102,2023-04-21_17h14.01.631,Main,2022.1.1,60.08427420118477,
neutral,positive,1,k,k,,,,,,,,,8,9,153,4,,,,,,,,,main,1,1,1,positive,neutral,k,k,1,0.6703277000342496,426.73823919997085,427.7382151999627,427.7215141999768,None,426.73823919997085,None,426.73823919997085,None,426.73823919997085,None,428.404910080001,None,428.404910080001,None,428.404910080001,None,,,,,,,,,,,,,,102,2023-04-21_17h14.01.631,Main,2022.1.1,60.08427420118477,
negative,negative,2,j,l,,,,,,,,,8,10,154,9,,,,,,,,,main,2,2,2,negative,negative,j,j,1,0.6978781999787316,428.4059867999749,429.42153910000343,429.4049124000012,None,428.4059867999749,None,428.4059867999749,None,428.4059867999749,None,430.10490978001036,None,430.10490978001036,None,430.10490978001036,None,,,,,,,,,,,,,,102,2023-04-21_17h14.01.631,Main,2022.1.1,60.08427420118477,
negative,neutral,1,j,l,,,,,,,,,8,11,155,3,,,,,,,,,main,1,1,1,neutral,negative,j,j,1,0.7019671999732964,430.1102632000111,431.12402059999295,431.0907580999774,None,430.1102632000111,None,430.1102632000111,None,430.1102632000111,None,431.80730808000664,None,431.80730808000664,None,431.80730808000664,None,,,,,,,,,,,,,,102,2023-04-21_17h14.01.631,Main,2022.1.1,60.08427420118477,
neutral,neutral,2,k,k,,,,,,,,,8,12,156,10,,,,,,,,,main,1,1,2,neutral,neutral,k,k,1,0.6804831000044942,431.81175029999577,432.8239715999807,432.80736209999304,None,431.81175029999577,None,431.81175029999577,None,431.81175029999577,None,433.4905800800014,None,433.4905800800014,None,433.4905800800014,None,,,,,,,,,,,,,,102,2023-04-21_17h14.01.631,Main,2022.1.1,60.08427420118477,
positive,positive,2,l,j,,,,,,,,,8,13,157,11,,,,,,,,,main,1,1,2,positive,positive,l,l,1,0.6654091999516822,433.4946875000023,434.5072421999648,434.49063449999085,None,433.4946875000023,None,433.4946875000023,None,433.4946875000023,None,435.15722788001295,None,435.15722788001295,None,435.15722788001295,None,,,,,,,,,,,,,,102,2023-04-21_17h14.01.631,Main,2022.1.1,60.08427420118477,
negative,positive,2,j,l,,,,,,,,,8,14,158,15,,,,,,,,,main,1,1,2,positive,negative,j,j,1,0.7793588999775238,435.16042079997715,436.1739169000066,436.157335099997,None,435.16042079997715,None,435.16042079997715,None,435.16042079997715,None,436.9384094799578,None,436.9384094799578,None,436.9384094799578,None,,,,,,,,,,,,,,102,2023-04-21_17h14.01.631,Main,2022.1.1,60.08427420118477,
positive,negative,2,l,j,,,,,,,,,8,15,159,14,,,,,,,,,main,2,2,2,negative,positive,l,l,1,0.731520300032571,436.95716069999617,437.9723001999664,437.93708329997025,None,436.95716069999617,None,436.95716069999617,None,436.95716069999617,None,438.6713238800119,None,438.6713238800119,None,438.6713238800119,None,,,,,,,,,,,,,,102,2023-04-21_17h14.01.631,Main,2022.1.1,60.08427420118477,
positive,neutral,1,l,j,,,,,,,,,8,16,160,8,,,,,,,,,main,1,1,1,neutral,positive,l,l,1,0.6986246000160463,438.67199750000145,439.6712985999766,439.6712985999766,None,438.67199750000145,None,438.67199750000145,None,438.67199750000145,None,440.37131667996874,None,440.37131667996874,None,440.37131667996874,None,,,,,,,,,,,,,,102,2023-04-21_17h14.01.631,Main,2022.1.1,60.08427420118477,
neutral,negative,1,k,k,,,,,,,,,8,17,161,7,,,,,,,,,main,1,1,1,negative,neutral,k,k,1,0.5983071000082418,440.37172130000545,441.3712805999676,441.3712805999676,None,440.37172130000545,None,440.37172130000545,None,440.37172130000545,None,441.9712748799764,None,441.9712748799764,None,441.9712748799764,None,,,,,,,,,,,,,,102,2023-04-21_17h14.01.631,Main,2022.1.1,60.08427420118477,
positive,neutral,1,l,j,,,,,,,,,9,0,162,8,,,,,,,,,main,2,2,1,neutral,positive,l,l,1,0.7009205999784172,441.97740249999333,442.9904436999932,442.97383309999714,None,441.97740249999333,None,441.97740249999333,None,441.97740249999333,None,443.6737108799687,None,443.6737108799687,None,443.6737108799687,None,,,,,,,,,,,,,,102,2023-04-21_17h14.01.631,Main,2022.1.1,60.08427420118477,
neutral,neutral,1,k,k,,,,,,,,,9,1,163,1,,,,,,,,,main,2,2,1,neutral,neutral,k,k,1,0.6317130000097677,443.67649799998617,444.6903741999995,444.673767899978,None,443.67649799998617,None,443.67649799998617,None,443.67649799998617,None,445.3070388799941,None,445.3070388799941,None,445.3070388799941,None,,,,,,,,,,,,,,102,2023-04-21_17h14.01.631,Main,2022.1.1,60.08427420118477,
positive,positive,2,l,j,,,,,,,,,9,2,164,11,,,,,,,,,main,2,2,2,positive,positive,l,l,1,0.6299721000250429,445.3100407999591,446.32369489996927,446.3070237999782,None,445.3100407999591,None,445.3100407999591,None,445.3100407999591,None,446.9381814799679,None,446.9381814799679,None,446.9381814799679,None,,,,,,,,,,,,,,102,2023-04-21_17h14.01.631,Main,2022.1.1,60.08427420118477,
negative,neutral,2,j,l,,,,,,,,,9,3,165,12,,,,,,,,,main,2,2,2,neutral,negative,j,j,1,0.7337936999974772,446.9417996999691,447.95695580000756,447.94035309995525,None,446.9417996999691,None,446.9417996999691,None,446.9417996999691,None,448.6736333799607,None,448.6736333799607,None,448.6736333799607,None,,,,,,,,,,,,,,102,2023-04-21_17h14.01.631,Main,2022.1.1,60.08427420118477,
positive,negative,1,l,j,,,,,,,,,9,4,166,5,,,,,,,,,main,2,2,1,negative,positive,l,l,1,0.796090199961327,448.6768404999748,449.6902129999944,449.6735621999833,None,448.6768404999748,None,448.6768404999748,None,448.6768404999748,None,450.4710153799795,None,450.4710153799795,None,450.4710153799795,None,,,,,,,,,,,,,,102,2023-04-21_17h14.01.631,Main,2022.1.1,60.08427420118477,
neutral,neutral,2,k,k,,,,,,,,,9,5,167,10,,,,,,,,,main,2,2,2,neutral,neutral,k,k,1,0.6317055000108667,450.4709874999826,451.47100439999485,451.47100439999485,None,450.4709874999826,None,450.4709874999826,None,450.4709874999826,None,452.10440677996377,None,452.10440677996377,None,452.10440677996377,None,,,,,,,,,,,,,,102,2023-04-21_17h14.01.631,Main,2022.1.1,60.08427420118477,
positive,negative,2,l,j,,,,,,,,,9,6,168,14,,,,,,,,,main,1,1,2,negative,positive,l,l,1,0.7316325000138022,452.1061023999937,453.12105089996476,453.1043919000076,None,452.1061023999937,None,452.1061023999937,None,452.1061023999937,None,453.83769207998995,None,453.83769207998995,None,453.83769207998995,None,,,,,,,,,,,,,,102,2023-04-21_17h14.01.631,Main,2022.1.1,60.08427420118477,
negative,positive,1,j,l,,,,,,,,,9,7,169,6,,,,,,,,,main,2,2,1,positive,negative,j,j,1,0.8319815999711864,453.83869329997106,454.85435199999483,454.83767779998016,None,453.83869329997106,None,453.83869329997106,None,453.83869329997106,None,455.6713640799688,None,455.6713640799688,None,455.6713640799688,None,,,,,,,,,,,,,,102,2023-04-21_17h14.01.631,Main,2022.1.1,60.08427420118477,
negative,neutral,1,j,l,,,,,,,,,9,8,170,3,,,,,,,,,main,2,2,1,neutral,negative,j,j,1,0.7319572999840602,455.67692960001295,456.6901332999696,456.6735348000075,None,455.67692960001295,None,455.67692960001295,None,455.67692960001295,None,457.4046697799757,None,457.4046697799757,None,457.4046697799757,None,,,,,,,,,,,,,,102,2023-04-21_17h14.01.631,Main,2022.1.1,60.08427420118477,
positive,positive,1,l,j,,,,,,,,,9,9,171,2,,,,,,,,,main,1,1,1,positive,positive,l,l,1,0.7659089000080712,457.408830499975,458.42344769998454,458.4068064999883,None,457.408830499975,None,457.408830499975,None,457.408830499975,None,459.17126037999407,None,459.17126037999407,None,459.17126037999407,None,,,,,,,,,,,,,,102,2023-04-21_17h14.01.631,Main,2022.1.1,60.08427420118477,
negative,negative,2,j,l,,,,,,,,,9,10,172,9,,,,,,,,,main,2,2,2,negative,negative,j,j,1,0.6309186000144109,459.1753146999981,460.19003800000064,460.1734332999913,None,459.1753146999981,None,459.1753146999981,None,459.1753146999981,None,460.80458257997526,None,460.80458257997526,None,460.80458257997526,None,,,,,,,,,,,,,,102,2023-04-21_17h14.01.631,Main,2022.1.1,60.08427420118477,
neutral,negative,2,k,k,,,,,,,,,9,11,173,16,,,,,,,,,main,1,1,2,negative,neutral,k,k,1,0.6814015999552794,460.80793209996773,461.82334639999317,461.8068130000029,None,460.80793209996773,None,460.80793209996773,None,460.80793209996773,None,462.4874219799938,None,462.4874219799938,None,462.4874219799938,None,,,,,,,,,,,,,,102,2023-04-21_17h14.01.631,Main,2022.1.1,60.08427420118477,
neutral,positive,1,k,k,,,,,,,,,9,12,174,4,,,,,,,,,main,1,1,1,positive,neutral,k,k,1,0.664957000000868,462.48754429997643,463.48745209997287,463.48745209997287,None,462.48754429997643,None,462.48754429997643,None,462.48754429997643,None,464.15412187999465,None,464.15412187999465,None,464.15412187999465,None,,,,,,,,,,,,,,102,2023-04-21_17h14.01.631,Main,2022.1.1,60.08427420118477,
positive,neutral,2,l,j,,,,,,,,,9,13,175,17,,,,,,,,,main,2,2,2,neutral,positive,l,l,1,0.5484483999898657,464.15466519998154,465.15412419999484,465.15412419999484,None,464.15466519998154,None,464.15466519998154,None,464.15466519998154,None,465.7041158799955,None,465.7041158799955,None,465.7041158799955,None,,,,,,,,,,,,,,102,2023-04-21_17h14.01.631,Main,2022.1.1,60.08427420118477,
neutral,positive,2,k,k,,,,,,,,,9,14,176,13,,,,,,,,,main,1,1,2,positive,neutral,k,k,1,0.7820166000165045,465.70780450000893,466.7232398999622,466.7066412999993,None,465.70780450000893,None,465.70780450000893,None,465.70780450000893,None,467.4877645799832,None,467.4877645799832,None,467.4877645799832,None,,,,,,,,,,,,,,102,2023-04-21_17h14.01.631,Main,2022.1.1,60.08427420118477,
negative,negative,1,j,l,,,,,,,,,9,15,177,0,,,,,,,,,main,2,2,1,negative,negative,j,j,1,0.8174366999883205,467.49131859996123,468.50644339999417,468.48988700000336,None,467.49131859996123,None,467.49131859996123,None,467.49131859996123,None,469.30658928000486,None,469.30658928000486,None,469.30658928000486,None,,,,,,,,,,,,,,102,2023-04-21_17h14.01.631,Main,2022.1.1,60.08427420118477,
neutral,negative,1,k,k,,,,,,,,,9,16,178,7,,,,,,,,,main,2,2,1,negative,neutral,k,k,1,0.6147967000142671,469.3105776999728,470.3231600999716,470.30656979995547,None,469.3105776999728,None,469.3105776999728,None,469.3105776999728,None,470.9231109799992,None,470.9231109799992,None,470.9231109799992,None,,,,,,,,,,,,,,102,2023-04-21_17h14.01.631,Main,2022.1.1,60.08427420118477,
negative,positive,2,j,l,,,,,,,,,9,17,179,15,,,,,,,,,main,2,2,2,positive,negative,j,j,1,0.6463872999884188,470.9261767999851,471.93974870000966,471.9231899000006,None,470.9261767999851,None,470.9261767999851,None,470.9261767999851,None,472.57097937997315,None,472.57097937997315,None,472.57097937997315,None,,,,,,,,,,,,,,102,2023-04-21_17h14.01.631,Main,2022.1.1,60.08427420118477,
neutral,positive,1,k,k,,,,,,,,,10,0,180,4,,,,,,,,,main,2,2,1,positive,neutral,k,k,1,0.6586952999932691,472.57453969999915,473.5897482999717,473.5731441999669,None,472.57453969999915,None,472.57453969999915,None,472.57453969999915,None,474.23039158001194,None,474.23039158001194,None,474.23039158001194,None,,,,,,,,,,,,,,102,2023-04-21_17h14.01.631,Main,2022.1.1,60.08427420118477,
positive,negative,2,l,j,,,,,,,,,10,1,181,14,,,,,,,,,main,1,1,2,negative,positive,l,l,1,0.7711214000009932,474.23115969996434,475.2371857999824,475.2205423999694,None,474.23115969996434,None,474.23115969996434,None,474.23115969996434,None,476.0038382799656,None,476.0038382799656,None,476.0038382799656,None,,,,,,,,,,,,,,102,2023-04-21_17h14.01.631,Main,2022.1.1,60.08427420118477,
negative,neutral,2,j,l,,,,,,,,,10,2,182,12,,,,,,,,,main,2,2,2,neutral,negative,j,j,1,0.7316916999989189,476.0038551999605,477.0038707999629,477.0038707999629,None,476.0038551999605,None,476.0038551999605,None,476.0038551999605,None,477.7371928799956,None,477.7371928799956,None,477.7371928799956,None,,,,,,,,,,,,,,102,2023-04-21_17h14.01.631,Main,2022.1.1,60.08427420118477,
negative,negative,1,j,l,,,,,,,,,10,3,183,0,,,,,,,,,main,2,2,1,negative,negative,j,j,1,0.7323401999892667,477.73961119999876,478.7538767000078,478.737174400012,None,477.73961119999876,None,477.73961119999876,None,477.73961119999876,None,479.47090097998154,None,479.47090097998154,None,479.47090097998154,None,,,,,,,,,,,,,,102,2023-04-21_17h14.01.631,Main,2022.1.1,60.08427420118477,
neutral,negative,1,k,k,,,,,,,,,10,4,184,7,,,,,,,,,main,2,2,1,negative,neutral,k,k,1,0.6840897999936715,479.4770673000021,480.4895763999666,480.4729433999746,None,479.4770673000021,None,479.4770673000021,None,479.4770673000021,None,481.1562520799751,None,481.1562520799751,None,481.1562520799751,None,,,,,,,,,,,,,,102,2023-04-21_17h14.01.631,Main,2022.1.1,60.08427420118477,
neutral,neutral,2,k,k,,,,,,,,,10,5,185,10,,,,,,,,,main,2,2,2,neutral,neutral,k,k,1,0.5991242000018246,481.1603215999785,482.1729103999678,482.1563107999973,None,481.1603215999785,None,481.1603215999785,None,481.1603215999785,None,482.75625928000665,None,482.75625928000665,None,482.75625928000665,None,,,,,,,,,,,,,,102,2023-04-21_17h14.01.631,Main,2022.1.1,60.08427420118477,
neutral,negative,2,k,k,,,,,,,,,10,6,186,16,,,,,,,,,main,1,1,2,negative,neutral,k,k,1,0.5609379999805242,482.7608667999739,483.7728783999919,483.7562727999757,None,482.7608667999739,None,482.7608667999739,None,482.7608667999739,None,484.32059537995957,None,484.32059537995957,None,484.32059537995957,None,,,,,,,,,,,,,,102,2023-04-21_17h14.01.631,Main,2022.1.1,60.08427420118477,
neutral,positive,2,k,k,,,,,,,,,10,7,187,13,,,,,,,,,main,2,2,2,positive,neutral,k,k,1,0.5331192000303417,484.33949689997826,485.33949199999915,485.3061986999819,None,484.33949689997826,None,484.33949689997826,None,484.33949689997826,None,485.85478917996517,None,485.85478917996517,None,485.85478917996517,None,,,,,,,,,,,,,,102,2023-04-21_17h14.01.631,Main,2022.1.1,60.08427420118477,
negative,neutral,1,j,l,,,,,,,,,10,8,188,3,,,,,,,,,main,1,1,1,neutral,negative,j,j,1,0.7471614999813028,485.8607785999775,486.8702494999743,486.8535806,None,485.8607785999775,None,485.8607785999775,None,485.8607785999775,None,487.60360218000716,None,487.60360218000716,None,487.60360218000716,None,,,,,,,,,,,,,,102,2023-04-21_17h14.01.631,Main,2022.1.1,60.08427420118477,
positive,positive,2,l,j,,,,,,,,,10,9,189,11,,,,,,,,,main,1,1,2,positive,positive,l,l,1,0.748453599982895,487.60355449997587,488.60361349995947,488.60361349995947,None,487.60355449997587,None,487.60355449997587,None,487.60355449997587,None,489.3536126799707,None,489.3536126799707,None,489.3536126799707,None,,,,,,,,,,,,,,102,2023-04-21_17h14.01.631,Main,2022.1.1,60.08427420118477,
positive,neutral,1,l,j,,,,,,,,,10,10,190,8,,,,,,,,,main,1,1,1,neutral,positive,l,l,1,0.80091219994938,489.354011599964,490.35361200000625,490.35361200000625,None,489.354011599964,None,489.354011599964,None,489.354011599964,None,491.1561482799996,None,491.1561482799996,None,491.1561482799996,None,,,,,,,,,,,,,,102,2023-04-21_17h14.01.631,Main,2022.1.1,60.08427420118477,
negative,negative,2,j,l,,,,,,,,,10,11,191,9,,,,,,,,,main,1,1,2,negative,negative,j,j,1,0.7481249999837019,491.1592530999915,492.17273180000484,492.15612719999626,None,491.1592530999915,None,491.1592530999915,None,491.1592530999915,None,492.90601577998024,None,492.90601577998024,None,492.90601577998024,None,,,,,,,,,,,,,,102,2023-04-21_17h14.01.631,Main,2022.1.1,60.08427420118477,
positive,neutral,2,l,j,,,,,,,,,10,12,192,17,,,,,,,,,main,1,1,2,neutral,positive,l,l,1,0.7151465000351891,492.9091557000065,493.9226307999925,493.90597169997636,None,492.9091557000065,None,492.9091557000065,None,492.9091557000065,None,494.6226297800138,None,494.6226297800138,None,494.6226297800138,None,,,,,,,,,,,,,,102,2023-04-21_17h14.01.631,Main,2022.1.1,60.08427420118477,
positive,negative,1,l,j,,,,,,,,,10,13,193,5,,,,,,,,,main,2,2,1,negative,positive,l,l,1,0.8794220999698155,494.6259415000095,495.6392710999935,495.62270159996115,None,494.6259415000095,None,494.6259415000095,None,494.6259415000095,None,496.50347047995893,None,496.50347047995893,None,496.50347047995893,None,,,,,,,,,,,,,,102,2023-04-21_17h14.01.631,Main,2022.1.1,60.08427420118477,
negative,positive,1,j,l,,,,,,,,,10,14,194,6,,,,,,,,,main,1,1,1,positive,negative,j,j,1,0.8172020000056364,496.5072624000022,497.5225629999768,497.5059680999839,None,496.5072624000022,None,496.5072624000022,None,496.5072624000022,None,498.3225871799921,None,498.3225871799921,None,498.3225871799921,None,,,,,,,,,,,,,,102,2023-04-21_17h14.01.631,Main,2022.1.1,60.08427420118477,
positive,positive,1,l,j,,,,,,,,,10,15,195,2,,,,,,,,,main,2,2,1,positive,positive,l,l,1,0.6960730999708176,498.3256270000129,499.3366493000067,499.31998249999015,None,498.3256270000129,None,498.3256270000129,None,498.3256270000129,None,500.019945979974,None,500.019945979974,None,500.019945979974,None,,,,,,,,,,,,,,102,2023-04-21_17h14.01.631,Main,2022.1.1,60.08427420118477,
negative,positive,2,j,l,,,,,,,,,10,16,196,15,,,,,,,,,main,1,1,2,positive,negative,j,j,1,0.748664100014139,500.01993499998935,501.0200245999731,501.0200245999731,None,500.01993499998935,None,500.01993499998935,None,500.01993499998935,None,501.77041698000977,None,501.77041698000977,None,501.77041698000977,None,,,,,,,,,,,,,,102,2023-04-21_17h14.01.631,Main,2022.1.1,60.08427420118477,
neutral,neutral,1,k,k,,,,,,,,,10,17,197,1,,,,,,,,,main,2,2,1,neutral,neutral,k,k,1,0.5646712000016123,501.77612990001217,502.7891351999715,502.7725126000005,None,501.77612990001217,None,501.77612990001217,None,501.77612990001217,None,503.3368370799988,None,503.3368370799988,None,503.3368370799988,None,,,,,,,,,,,,,,102,2023-04-21_17h14.01.631,Main,2022.1.1,60.08427420118477,
negative,negative,2,j,l,,,,,,,,,11,0,198,9,,,,,,,,,main,2,2,2,negative,negative,j,j,1,0.6153762000030838,503.3422438999987,504.3558348999941,504.32248279999476,None,503.3422438999987,None,503.3422438999987,None,503.3422438999987,None,504.95362088000985,None,504.95362088000985,None,504.95362088000985,None,,,,,,,,,,,,,,102,2023-04-21_17h14.01.631,Main,2022.1.1,60.08427420118477,
positive,neutral,2,l,j,,,,,,,,,11,1,199,17,,,,,,,,,main,1,1,2,neutral,positive,l,l,1,0.7007148000411689,504.9568486000062,505.97238439996727,505.95576849998906,None,504.9568486000062,None,504.9568486000062,None,504.9568486000062,None,506.65568047998823,None,506.65568047998823,None,506.65568047998823,None,,,,,,,,,,,,,,102,2023-04-21_17h14.01.631,Main,2022.1.1,60.08427420118477,
negative,negative,1,j,l,,,,,,,,,11,2,200,0,,,,,,,,,main,1,1,1,negative,negative,j,j,1,0.8191177999833599,506.6588452999713,507.6723651000066,507.6557550999569,None,506.6588452999713,None,506.6588452999713,None,506.6588452999713,None,508.47243567996776,None,508.47243567996776,None,508.47243567996776,None,,,,,,,,,,,,,,102,2023-04-21_17h14.01.631,Main,2022.1.1,60.08427420118477,
negative,neutral,1,j,l,,,,,,,,,11,3,201,3,,,,,,,,,main,1,1,1,neutral,negative,j,j,1,0.7750606000190601,508.47946529998444,509.48645679996116,509.46982359996764,None,508.47946529998444,None,508.47946529998444,None,508.47946529998444,None,510.25312087997446,None,510.25312087997446,None,510.25312087997446,None,,,,,,,,,,,,,,102,2023-04-21_17h14.01.631,Main,2022.1.1,60.08427420118477,
neutral,negative,2,k,k,,,,,,,,,11,4,202,16,,,,,,,,,main,2,2,2,negative,neutral,k,k,1,0.6676899999729358,510.2530756999622,511.25315449998016,511.25315449998016,None,510.2530756999622,None,510.2530756999622,None,510.2530756999622,None,511.9222816799709,None,511.9222816799709,None,511.9222816799709,None,,,,,,,,,,,,,,102,2023-04-21_17h14.01.631,Main,2022.1.1,60.08427420118477,
positive,negative,1,l,j,,,,,,,,,11,5,203,5,,,,,,,,,main,1,1,1,negative,positive,l,l,1,0.7320094999740832,511.92541659995914,512.9389122999855,512.9222589999554,None,511.92541659995914,None,511.92541659995914,None,511.92541659995914,None,513.6556435799982,None,513.6556435799982,None,513.6556435799982,None,,,,,,,,,,,,,,102,2023-04-21_17h14.01.631,Main,2022.1.1,60.08427420118477,
positive,positive,2,l,j,,,,,,,,,11,6,204,11,,,,,,,,,main,1,1,2,positive,positive,l,l,1,0.748354300041683,513.6589147999766,514.6722158999764,514.6556355999783,None,513.6589147999766,None,513.6589147999766,None,513.6589147999766,None,515.4056206799985,None,515.4056206799985,None,515.4056206799985,None,,,,,,,,,,,,,,102,2023-04-21_17h14.01.631,Main,2022.1.1,60.08427420118477,
neutral,positive,2,k,k,,,,,,,,,11,7,205,13,,,,,,,,,main,1,1,2,positive,neutral,k,k,1,0.7148286000010557,515.4090966999647,516.4221970000071,516.4056161000044,None,515.4090966999647,None,515.4090966999647,None,515.4090966999647,None,517.122173679975,None,517.122173679975,None,517.122173679975,None,,,,,,,,,,,,,,102,2023-04-21_17h14.01.631,Main,2022.1.1,60.08427420118477,
negative,neutral,2,j,l,,,,,,,,,11,8,206,12,,,,,,,,,main,1,1,2,neutral,negative,j,j,1,0.6627918999874964,517.1252509999904,518.1387978999992,518.1222170999972,None,517.1252509999904,None,517.1252509999904,None,517.1252509999904,None,518.7866359799925,None,518.7866359799925,None,518.7866359799925,None,,,,,,,,,,,,,,102,2023-04-21_17h14.01.631,Main,2022.1.1,60.08427420118477,
neutral,neutral,2,k,k,,,,,,,,,11,9,207,10,,,,,,,,,main,1,1,2,neutral,neutral,k,k,1,0.5813689999631606,518.7898888000054,519.8028690000065,519.7862364999601,None,518.7898888000054,None,518.7898888000054,None,518.7898888000054,None,520.3695490800135,None,520.3695490800135,None,520.3695490800135,None,,,,,,,,,,,,,,102,2023-04-21_17h14.01.631,Main,2022.1.1,60.08427420118477,
negative,positive,2,j,l,,,,,,,,,11,10,208,15,,,,,,,,,main,2,2,2,positive,negative,j,j,1,0.6817030999809504,520.3695332999923,521.3696043000091,521.3696043000091,None,520.3695332999923,None,520.3695332999923,None,520.3695332999923,None,522.0528938799805,None,522.0528938799805,None,522.0528938799805,None,,,,,,,,,,,,,,102,2023-04-21_17h14.01.631,Main,2022.1.1,60.08427420118477,
positive,neutral,1,l,j,,,,,,,,,11,11,209,8,,,,,,,,,main,1,1,1,neutral,positive,l,l,1,0.8152274999883957,522.053125299979,523.0529030999751,523.0529030999751,None,522.053125299979,None,522.053125299979,None,522.053125299979,None,523.8695810799661,None,523.8695810799661,None,523.8695810799661,None,,,,,,,,,,,,,,102,2023-04-21_17h14.01.631,Main,2022.1.1,60.08427420118477,
positive,negative,2,l,j,,,,,,,,,11,12,210,14,,,,,,,,,main,2,2,2,negative,positive,l,l,1,0.6675633999984711,523.8731132000103,524.8887439999962,524.8721084999852,None,523.8731132000103,None,523.8731132000103,None,523.8731132000103,None,525.538741279958,None,525.538741279958,None,525.538741279958,None,,,,,,,,,,,,,,102,2023-04-21_17h14.01.631,Main,2022.1.1,60.08427420118477,
positive,positive,1,l,j,,,,,,,,,11,13,211,2,,,,,,,,,main,2,2,1,positive,positive,l,l,1,1.2803114000125788,525.5419225000078,526.5552967999829,526.5386738000088,None,525.5419225000078,None,525.5419225000078,None,525.5419225000078,None,527.8198541799618,None,527.8198541799618,None,527.8198541799618,None,,,,,,,,,,,,,,102,2023-04-21_17h14.01.631,Main,2022.1.1,60.08427420118477,
neutral,neutral,1,k,k,,,,,,,,,11,14,212,1,,,,,,,,,main,2,2,1,neutral,neutral,k,k,1,0.5831569000147283,527.8238924999605,528.8385724999825,528.8219900999684,None,527.8238924999605,None,527.8238924999605,None,527.8238924999605,None,529.4052690799988,None,529.4052690799988,None,529.4052690799988,None,,,,,,,,,,,,,,102,2023-04-21_17h14.01.631,Main,2022.1.1,60.08427420118477,
negative,positive,1,j,l,,,,,,,,,11,15,213,6,,,,,,,,,main,2,2,1,positive,negative,j,j,1,0.7292951000272296,529.4085481999791,530.4219186999835,530.4053038000129,None,529.4085481999791,None,529.4085481999791,None,529.4085481999791,None,531.1361144799564,None,531.1361144799564,None,531.1361144799564,None,,,,,,,,,,,,,,102,2023-04-21_17h14.01.631,Main,2022.1.1,60.08427420118477,
neutral,negative,1,k,k,,,,,,,,,11,16,214,7,,,,,,,,,main,1,1,1,negative,neutral,k,k,1,0.5816925999824889,531.1425664999988,532.1526657000068,532.1359856000054,None,531.1425664999988,None,531.1425664999988,None,531.1425664999988,None,532.7193848799623,None,532.7193848799623,None,532.7193848799623,None,,,,,,,,,,,,,,102,2023-04-21_17h14.01.631,Main,2022.1.1,60.08427420118477,
neutral,positive,1,k,k,,,,,,,,,11,17,215,4,,,,,,,,,main,1,1,1,positive,neutral,k,k,1,0.5160701000131667,532.7202175999992,533.7193265999667,533.7193265999667,None,532.7202175999992,None,532.7202175999992,None,532.7202175999992,None,534.2359790800081,None,534.2359790800081,None,534.2359790800081,None,,,,,,,,,,,,,,102,2023-04-21_17h14.01.631,Main,2022.1.1,60.08427420118477,
negative,negative,2,j,l,,,,,,,,,12,0,216,9,,,,,,,,,main,2,2,2,negative,negative,j,j,1,0.630838599987328,534.237582599977,535.2526393999578,535.2359733000048,None,534.237582599977,None,534.237582599977,None,534.237582599977,None,535.8693107800034,None,535.8693107800034,None,535.8693107800034,None,,,,,,,,,,,,,,102,2023-04-21_17h14.01.631,Main,2022.1.1,60.08427420118477,
positive,negative,1,l,j,,,,,,,,,12,1,217,5,,,,,,,,,main,2,2,1,negative,positive,l,l,1,0.8480951999663375,535.8733076999779,536.888443999982,536.8717692999635,None,535.8733076999779,None,535.8733076999779,None,535.8733076999779,None,537.7192842800112,None,537.7192842800112,None,537.7192842800112,None,,,,,,,,,,,,,,102,2023-04-21_17h14.01.631,Main,2022.1.1,60.08427420118477,
negative,negative,1,j,l,,,,,,,,,12,2,218,0,,,,,,,,,main,2,2,1,negative,negative,j,j,1,0.7484834999777377,537.7256738999858,538.7383842999698,538.7217960999697,None,537.7256738999858,None,537.7256738999858,None,537.7256738999858,None,539.4692350799858,None,539.4692350799858,None,539.4692350799858,None,,,,,,,,,,,,,,102,2023-04-21_17h14.01.631,Main,2022.1.1,60.08427420118477,
negative,neutral,1,j,l,,,,,,,,,12,3,219,3,,,,,,,,,main,1,1,1,neutral,negative,j,j,1,0.798568099969998,539.4729031999595,540.4883242999786,540.4716923999949,None,539.4729031999595,None,539.4729031999595,None,539.4729031999595,None,541.2695421799842,None,541.2695421799842,None,541.2695421799842,None,,,,,,,,,,,,,,102,2023-04-21_17h14.01.631,Main,2022.1.1,60.08427420118477,
negative,positive,1,j,l,,,,,,,,,12,4,220,6,,,,,,,,,main,1,1,1,positive,negative,j,j,1,0.6819406999857165,541.2769354999764,542.2883055999991,542.2716943999985,None,541.2769354999764,None,541.2769354999764,None,541.2769354999764,None,542.9528167799988,None,542.9528167799988,None,542.9528167799988,None,,,,,,,,,,,,,,102,2023-04-21_17h14.01.631,Main,2022.1.1,60.08427420118477,
positive,positive,1,l,j,,,,,,,,,12,5,221,2,,,,,,,,,main,2,2,1,positive,positive,l,l,1,0.7315898000379093,542.9563229999621,543.9690465999884,543.952387599973,None,542.9563229999621,None,542.9563229999621,None,542.9563229999621,None,544.6857274799665,None,544.6857274799665,None,544.6857274799665,None,,,,,,,,,,,,,,102,2023-04-21_17h14.01.631,Main,2022.1.1,60.08427420118477,
negative,positive,2,j,l,,,,,,,,,12,6,222,15,,,,,,,,,main,2,2,2,positive,negative,j,j,1,0.6825878000236116,544.6860361999716,545.6857503000065,545.6857503000065,None,544.6860361999716,None,544.6860361999716,None,544.6860361999716,None,546.3690735800017,None,546.3690735800017,None,546.3690735800017,None,,,,,,,,,,,,,,102,2023-04-21_17h14.01.631,Main,2022.1.1,60.08427420118477,
positive,negative,2,l,j,,,,,,,,,12,7,223,14,,,,,,,,,main,2,2,2,negative,positive,l,l,1,0.7165981999714859,546.3706826000125,547.3857291999739,547.3690455000033,None,546.3706826000125,None,546.3706826000125,None,546.3706826000125,None,548.0882876799849,None,548.0882876799849,None,548.0882876799849,None,,,,,,,,,,,,,,102,2023-04-21_17h14.01.631,Main,2022.1.1,60.08427420118477,
