target,distractor,set,ans1,ans2,rep_loop2.thisRepN,rep_loop2.thisTrialN,rep_loop2.thisN,rep_loop2.thisIndex,flanker_prac_loop.thisRepN,flanker_prac_loop.thisTrialN,flanker_prac_loop.thisN,flanker_prac_loop.thisIndex,flanker_main_loop.thisRepN,flanker_main_loop.thisTrialN,flanker_main_loop.thisN,flanker_main_loop.thisIndex,fl_inst_resp.keys,fl_inst_resp.rt,sound_1.started,sound_1.stopped,image_4.started,image_4.stopped,back_2.started,back_2.stopped,main_prac,fl_cold,fl_colt,fl_set,fl_dcond,fl_tcond,fl_ans,fl_res,fl_corr,fl_rt,fix_fl.started,fix_fl.stopped,targ.started,targ.stopped,j_button.started,j_button.stopped,k_button.started,k_button.stopped,l_button.started,l_button.stopped,j_button2.started,j_button2.stopped,k_button2.started,k_button2.stopped,l_button2.started,l_button2.stopped,mainback.started,mainback.stopped,key_resp.keys,key_resp.rt,mouse_6.x,mouse_6.y,mouse_6.leftButton,mouse_6.midButton,mouse_6.rightButton,mouse_6.started,mouse_6.stopped,text_2.started,text_2.stopped,id*,date,expName,psychopyVersion,frameRate,
,,,,,0,0,0,0,,,,,,,,,space,7.410704099980649,44.701632420008536,None,52.134562299994286,None,,,,,,,,,,,,,,,,,,,,,,,,,,,,,,,,,,,,,,,,,,103,2023-04-20_14h26.25.157,Main,2022.1.1,59.9982600441946,
neutral,negative,2,k,k,,,,,0,0,0,16,,,,,,,,,,,56.284645200008526,None,prac,2,2,2,negative,neutral,k,k,1,1.037280099990312,58.29842619999545,59.30121619999409,59.2824791999883,None,58.29842619999545,None,58.29842619999545,None,58.29842619999545,None,60.332475220027845,None,60.332475220027845,None,60.332475220027845,None,,,,,,,,,,,,,,103,2023-04-20_14h26.25.157,Main,2022.1.1,59.9982600441946,
negative,negative,1,j,l,,,,,0,1,1,0,,,,,,,,,,,,,prac,1,1,1,negative,negative,l,l,1,0.901177000021562,60.33682090003276,61.35126189998118,61.334600000001956,None,60.33682090003276,None,60.33682090003276,None,60.33682090003276,None,62.23455892002676,None,62.23455892002676,None,62.23455892002676,None,,,,,,,,,,,,,,103,2023-04-20_14h26.25.157,Main,2022.1.1,59.9982600441946,
positive,neutral,2,l,j,,,,,0,2,2,17,,,,,,,,,,,,,prac,2,2,2,neutral,positive,j,j,1,0.6783121000044048,62.239239200018346,63.24896100000478,63.2345943999826,None,62.239239200018346,None,62.239239200018346,None,62.239239200018346,None,63.915292920020875,None,63.915292920020875,None,63.915292920020875,None,,,,,,,,,,,,,,103,2023-04-20_14h26.25.157,Main,2022.1.1,59.9982600441946,
positive,negative,2,l,j,,,,,0,3,3,14,,,,,,,,,,,,,prac,2,2,2,negative,positive,j,j,1,0.5152913000201806,63.91528399998788,64.9153013000032,64.9153013000032,None,63.91528399998788,None,63.91528399998788,None,63.91528399998788,None,65.43203731998801,None,65.43203731998801,None,65.43203731998801,None,,,,,,,,,,,,,,103,2023-04-20_14h26.25.157,Main,2022.1.1,59.9982600441946,
positive,positive,1,l,j,,,,,0,4,4,2,,,,,,,,,,,,,prac,2,2,1,positive,positive,j,j,1,0.6650985999731347,65.4362501000287,66.45115059998352,66.4345874999999,None,65.4362501000287,None,65.4362501000287,None,65.4362501000287,None,67.09888802003115,None,67.09888802003115,None,67.09888802003115,None,,,,,,,,,,,,,,103,2023-04-20_14h26.25.157,Main,2022.1.1,59.9982600441946,
positive,neutral,1,l,j,,,,,0,5,5,8,,,,,,,,,,,,,prac,1,1,1,neutral,positive,j,j,1,0.6674356000148691,67.10485579998931,68.11774710001191,68.10114480002085,None,67.10485579998931,None,67.10485579998931,None,67.10485579998931,None,68.76772892003646,None,68.76772892003646,None,68.76772892003646,None,,,,,,,,,,,,,,103,2023-04-20_14h26.25.157,Main,2022.1.1,59.9982600441946,
neutral,neutral,1,k,k,,,,,0,6,6,1,,,,,,,,,,,,,prac,1,1,1,neutral,neutral,k,l,0,0.48231290001422167,68.77040009998018,69.78435929998523,69.76774219999788,None,68.77040009998018,None,68.77040009998018,None,68.77040009998018,None,70.24988429999212,None,70.24988429999212,None,70.24988429999212,None,,,,,,,,,,,,,,103,2023-04-20_14h26.25.157,Main,2022.1.1,59.9982600441946,
positive,negative,1,l,j,,,,,0,7,7,5,,,,,,,,,,,,,prac,2,2,1,negative,positive,j,j,1,0.6684479999821633,71.2498237999971,72.25099319999572,72.23439669999061,None,71.2498237999971,None,71.2498237999971,None,71.2498237999971,None,72.91555521998089,None,72.91555521998089,None,72.91555521998089,None,,,,,,,,,,,,,,103,2023-04-20_14h26.25.157,Main,2022.1.1,59.9982600441946,
neutral,negative,1,k,k,,,,,0,8,8,7,,,,,,,,,,,,,prac,1,1,1,negative,neutral,k,k,1,0.5644029999966733,72.92630649998318,73.93178099999204,73.91512980003608,None,72.92630649998318,None,72.92630649998318,None,72.92630649998318,None,74.48178842000198,None,74.48178842000198,None,74.48178842000198,None,,,,,,,,,,,,,,103,2023-04-20_14h26.25.157,Main,2022.1.1,59.9982600441946,
negative,positive,2,j,l,,,,,0,9,9,15,,,,,,,,,,,,,prac,2,2,2,positive,negative,l,l,1,0.6495119999744929,74.48245589999715,75.4818157000118,75.4818157000118,None,74.48245589999715,None,74.48245589999715,None,74.48245589999715,None,76.1321161200176,None,76.1321161200176,None,76.1321161200176,None,,,,,,,,,,,,,,103,2023-04-20_14h26.25.157,Main,2022.1.1,59.9982600441946,
neutral,positive,1,k,k,,,,,0,10,10,4,,,,,,,,,,,,,prac,2,2,1,positive,neutral,k,k,1,0.5483455999637954,76.13603069999954,77.15085680002812,77.13434330001473,None,76.13603069999954,None,76.13603069999954,None,76.13603069999954,None,77.68211272003828,None,77.68211272003828,None,77.68211272003828,None,,,,,,,,,,,,,,103,2023-04-20_14h26.25.157,Main,2022.1.1,59.9982600441946,
neutral,positive,2,k,k,,,,,0,11,11,13,,,,,,,,,,,,,prac,1,1,2,positive,neutral,k,k,1,0.5186084000160918,77.6885392999975,78.70095510000829,78.68435990001308,None,77.6885392999975,None,77.6885392999975,None,77.6885392999975,None,79.20084361999761,None,79.20084361999761,None,79.20084361999761,None,,,,,,,,,,,,,,103,2023-04-20_14h26.25.157,Main,2022.1.1,59.9982600441946,
negative,negative,2,j,l,,,,,0,12,12,9,,,,,,,,,,,,,prac,1,1,2,negative,negative,l,l,1,0.6841493000392802,79.20511290000286,80.21742499998072,80.20089770003688,None,79.20511290000286,None,79.20511290000286,None,79.20511290000286,None,80.88417741999729,None,80.88417741999729,None,80.88417741999729,None,,,,,,,,,,,,,,103,2023-04-20_14h26.25.157,Main,2022.1.1,59.9982600441946,
positive,positive,2,l,j,,,,,0,13,13,11,,,,,,,,,,,,,prac,2,2,2,positive,positive,j,j,1,0.5934120999881998,80.89144199999282,81.90077840001322,81.88420929998392,None,80.89144199999282,None,80.89144199999282,None,80.89144199999282,None,82.48201621999033,None,82.48201621999033,None,82.48201621999033,None,,,,,,,,,,,,,,103,2023-04-20_14h26.25.157,Main,2022.1.1,59.9982600441946,
neutral,neutral,2,k,k,,,,,0,14,14,10,,,,,,,,,,,,,prac,2,2,2,neutral,neutral,k,k,1,0.5480289999977686,82.48583840002539,83.49822150002001,83.48155470000347,None,82.48583840002539,None,82.48583840002539,None,82.48583840002539,None,84.03153312002541,None,84.03153312002541,None,84.03153312002541,None,,,,,,,,,,,,,,103,2023-04-20_14h26.25.157,Main,2022.1.1,59.9982600441946,
negative,positive,1,j,l,,,,,0,15,15,6,,,,,,,,,,,,,prac,1,1,1,positive,negative,l,l,1,0.6490534000331536,84.03153670002939,85.03157190000638,85.03157190000638,None,84.03153670002939,None,84.03153670002939,None,84.03153670002939,None,85.68161001999397,None,85.68161001999397,None,85.68161001999397,None,,,,,,,,,,,,,,103,2023-04-20_14h26.25.157,Main,2022.1.1,59.9982600441946,
negative,neutral,2,j,l,,,,,0,16,16,12,,,,,,,,,,,,,prac,1,1,2,neutral,negative,l,l,1,0.6176799000240862,85.68499149999116,86.68419719999656,86.68419719999656,None,85.68499149999116,None,85.68499149999116,None,85.68499149999116,None,87.30070622003404,None,87.30070622003404,None,87.30070622003404,None,,,,,,,,,,,,,,103,2023-04-20_14h26.25.157,Main,2022.1.1,59.9982600441946,
negative,neutral,1,j,l,,,,,0,17,17,3,,,,,,,,,,,,,prac,2,2,1,neutral,negative,l,l,1,0.5504016999620944,87.30466850002995,88.31735979998484,88.30070970003726,None,87.30466850002995,None,87.30466850002995,None,87.30466850002995,None,88.85066772002028,None,88.85066772002028,None,88.85066772002028,None,,,,,,,,,,,,,,103,2023-04-20_14h26.25.157,Main,2022.1.1,59.9982600441946,
positive,neutral,2,l,j,,,,,1,0,18,17,,,,,,,,,,,,,prac,2,2,2,neutral,positive,j,j,1,0.580557300010696,88.85578280000482,89.86739090003539,89.85074610001175,None,88.85578280000482,None,88.85578280000482,None,88.85578280000482,None,90.43413042003522,None,90.43413042003522,None,90.43413042003522,None,,,,,,,,,,,,,,103,2023-04-20_14h26.25.157,Main,2022.1.1,59.9982600441946,
neutral,positive,2,k,k,,,,,1,1,19,13,,,,,,,,,,,,,prac,1,1,2,positive,neutral,k,k,1,0.48189920000731945,90.43736410001293,91.45053989998996,91.43391570000676,None,90.43736410001293,None,90.43736410001293,None,90.43736410001293,None,91.91733841999667,None,91.91733841999667,None,91.91733841999667,None,,,,,,,,,,,,,,103,2023-04-20_14h26.25.157,Main,2022.1.1,59.9982600441946,
neutral,neutral,1,k,k,,,,,1,2,20,1,,,,,,,,,,,,,prac,2,2,1,neutral,neutral,k,k,1,0.5371312000206672,91.92044539999915,92.93384329997934,92.91729280003347,None,91.92044539999915,None,91.92044539999915,None,91.92044539999915,None,93.4561284200172,None,93.4561284200172,None,93.4561284200172,None,,,,,,,,,,,,,,103,2023-04-20_14h26.25.157,Main,2022.1.1,59.9982600441946,
negative,positive,1,j,l,,,,,1,3,21,6,,,,,,,,,,,,,prac,1,1,1,positive,negative,l,l,1,0.674420099996496,93.47277100000065,94.48369580000872,94.45045479998225,None,93.47277100000065,None,93.47277100000065,None,93.47277100000065,None,95.13161671999842,None,95.13161671999842,None,95.13161671999842,None,,,,,,,,,,,,,,103,2023-04-20_14h26.25.157,Main,2022.1.1,59.9982600441946,
positive,positive,2,l,j,,,,,1,4,22,11,,,,,,,,,,,,,prac,2,2,2,positive,positive,j,j,1,0.548437700024806,95.13551190000726,96.14825860003475,96.13159659999656,None,95.13551190000726,None,95.13551190000726,None,95.13551190000726,None,96.68158292002045,None,96.68158292002045,None,96.68158292002045,None,,,,,,,,,,,,,,103,2023-04-20_14h26.25.157,Main,2022.1.1,59.9982600441946,
negative,neutral,2,j,l,,,,,1,5,23,12,,,,,,,,,,,,,prac,2,2,2,neutral,negative,l,l,1,0.7007575000170618,96.68558320001466,97.69825040001888,97.6815837000031,None,96.68558320001466,None,96.68558320001466,None,96.68558320001466,None,98.38372932001948,None,98.38372932001948,None,98.38372932001948,None,,,,,,,,,,,,,,103,2023-04-20_14h26.25.157,Main,2022.1.1,59.9982600441946,
neutral,positive,1,k,k,,,,,1,6,24,4,,,,,,,,,,,,,prac,1,1,1,positive,neutral,k,k,1,0.5150389999616891,98.38646260002861,99.40029520000098,99.38364469999215,None,98.38646260002861,None,98.38646260002861,None,98.38646260002861,None,99.90028582001105,None,99.90028582001105,None,99.90028582001105,None,,,,,,,,,,,,,,103,2023-04-20_14h26.25.157,Main,2022.1.1,59.9982600441946,
positive,positive,1,l,j,,,,,1,7,25,2,,,,,,,,,,,,,prac,1,1,1,positive,positive,j,j,1,0.7470230999751948,99.90397729998222,100.91487650002819,100.90031549998093,None,99.90397729998222,None,99.90397729998222,None,99.90397729998222,None,101.64816902001621,None,101.64816902001621,None,101.64816902001621,None,,,,,,,,,,,,,,103,2023-04-20_14h26.25.157,Main,2022.1.1,59.9982600441946,
positive,negative,2,l,j,,,,,1,8,26,14,,,,,,,,,,,,,prac,2,2,2,negative,positive,j,j,1,0.5828098999918438,101.65247289999388,102.66691090003587,102.65029600000707,None,101.65247289999388,None,101.65247289999388,None,101.65247289999388,None,103.23356851999415,None,103.23356851999415,None,103.23356851999415,None,,,,,,,,,,,,,,103,2023-04-20_14h26.25.157,Main,2022.1.1,59.9982600441946,
neutral,neutral,2,k,k,,,,,1,9,27,10,,,,,,,,,,,,,prac,2,2,2,neutral,neutral,k,k,1,1.0468203999917023,103.2366117000347,104.24815190001391,104.23149799997918,None,103.2366117000347,None,103.2366117000347,None,103.2366117000347,None,105.28166272002272,None,105.28166272002272,None,105.28166272002272,None,,,,,,,,,,,,,,103,2023-04-20_14h26.25.157,Main,2022.1.1,59.9982600441946,
negative,negative,1,j,l,,,,,1,10,28,0,,,,,,,,,,,,,prac,2,2,1,negative,negative,l,l,1,0.6320248999982141,105.28501870000036,106.29779420001432,106.28113130002748,None,105.28501870000036,None,105.28501870000036,None,105.28501870000036,None,106.91500882001128,None,106.91500882001128,None,106.91500882001128,None,,,,,,,,,,,,,,103,2023-04-20_14h26.25.157,Main,2022.1.1,59.9982600441946,
negative,neutral,1,j,l,,,,,1,11,29,3,,,,,,,,,,,,,prac,2,2,1,neutral,negative,l,l,1,0.7150961000006646,106.91454349999549,107.91448209999362,107.91448209999362,None,106.91454349999549,None,106.91454349999549,None,106.91454349999549,None,108.63114261999726,None,108.63114261999726,None,108.63114261999726,None,,,,,,,,,,,,,,103,2023-04-20_14h26.25.157,Main,2022.1.1,59.9982600441946,
neutral,negative,2,k,k,,,,,1,12,30,16,,,,,,,,,,,,,prac,2,2,2,negative,neutral,k,k,1,0.5508066999609582,108.63486200000625,109.65029510000022,109.63363100000424,None,108.63486200000625,None,108.63486200000625,None,108.63486200000625,None,110.18350192002254,None,110.18350192002254,None,110.18350192002254,None,,,,,,,,,,,,,,103,2023-04-20_14h26.25.157,Main,2022.1.1,59.9982600441946,
positive,negative,1,l,j,,,,,1,13,31,5,,,,,,,,,,,,,prac,1,1,1,negative,positive,j,j,1,0.546251299965661,110.18661480001174,111.20024889998604,111.18359780003084,None,110.18661480001174,None,110.18661480001174,None,110.18661480001174,None,111.73140272003366,None,111.73140272003366,None,111.73140272003366,None,,,,,,,,,,,,,,103,2023-04-20_14h26.25.157,Main,2022.1.1,59.9982600441946,
positive,neutral,1,l,j,,,,,1,14,32,8,,,,,,,,,,,,,prac,2,2,1,neutral,positive,j,j,1,0.5846832999959588,111.73517689999426,112.74808869999833,112.71690470003523,None,111.73517689999426,None,111.73517689999426,None,111.73517689999426,None,113.31680031999713,None,113.31680031999713,None,113.31680031999713,None,,,,,,,,,,,,,,103,2023-04-20_14h26.25.157,Main,2022.1.1,59.9982600441946,
negative,positive,2,j,l,,,,,1,15,33,15,,,,,,,,,,,,,prac,2,2,2,positive,negative,l,l,1,0.6484516999917105,113.32022639998468,114.33347250003135,114.316953200032,None,113.32022639998468,None,113.32022639998468,None,113.32022639998468,None,114.96687931998167,None,114.96687931998167,None,114.96687931998167,None,,,,,,,,,,,,,,103,2023-04-20_14h26.25.157,Main,2022.1.1,59.9982600441946,
neutral,negative,1,k,k,,,,,1,16,34,7,,,,,,,,,,,,,prac,2,2,1,negative,neutral,k,k,1,0.5288014999823645,114.97151539998595,115.98097460001009,115.96430150000378,None,114.97151539998595,None,114.97151539998595,None,114.97151539998595,None,116.49759591999464,None,116.49759591999464,None,116.49759591999464,None,,,,,,,,,,,,,,103,2023-04-20_14h26.25.157,Main,2022.1.1,59.9982600441946,
negative,negative,2,j,l,,,,,1,17,35,9,,,,,,,,,,,,,prac,1,1,2,negative,negative,l,l,1,0.6011041000019759,116.49755470000673,117.49766340001952,117.49766340001952,None,116.49755470000673,None,116.49755470000673,None,116.49755470000673,None,118.10015502001625,None,118.10015502001625,None,118.10015502001625,None,,,,,,,,,,,,,,103,2023-04-20_14h26.25.157,Main,2022.1.1,59.9982600441946,
,,,,,,,,,,,,,,,,,,,,,,,,,,,,,,,,,,,,,,,,,,,,,,,,,,,118.10017859999789,None,space,3.8769114000024274,,,,,,,,,,103,2023-04-20_14h26.25.157,Main,2022.1.1,59.9982600441946,
,,,,,,,,,,,,,,,,,,,,,,,,,,,,,,,,,,,,,,,,,,,,,,,,,,,,,,,0.7916667,-0.20833333,0,0,0,0.010910920042078942,None,,,103,2023-04-20_14h26.25.157,Main,2022.1.1,59.9982600441946,
negative,neutral,2,j,l,,,,,,,,,0,0,0,12,,,,,,,121.99998160003452,None,main,1,1,2,neutral,negative,l,l,1,0.6281133000156842,124.00457190000452,125.0140967000043,124.99743430002127,None,124.00457190000452,None,124.00457190000452,None,124.00457190000452,None,125.63075851998292,None,125.63075851998292,None,125.63075851998292,None,,,,,,,,,,,,,,103,2023-04-20_14h26.25.157,Main,2022.1.1,59.9982600441946,
neutral,neutral,2,k,k,,,,,,,,,0,1,1,10,,,,,,,,,main,2,2,2,neutral,neutral,k,k,1,0.46659660001751035,125.63197719998425,126.64744770003017,126.63078429998131,None,125.63197719998425,None,125.63197719998425,None,125.63197719998425,None,127.09990492003271,None,127.09990492003271,None,127.09990492003271,None,,,,,,,,,,,,,,103,2023-04-20_14h26.25.157,Main,2022.1.1,59.9982600441946,
negative,negative,1,j,l,,,,,,,,,0,2,2,0,,,,,,,,,main,1,1,1,negative,negative,l,l,1,0.632335799979046,127.10352350003086,128.1165800000308,128.0999597000191,None,127.10352350003086,None,127.10352350003086,None,127.10352350003086,None,128.7332481199992,None,128.7332481199992,None,128.7332481199992,None,,,,,,,,,,,,,,103,2023-04-20_14h26.25.157,Main,2022.1.1,59.9982600441946,
positive,negative,2,l,j,,,,,,,,,0,3,3,14,,,,,,,,,main,1,1,2,negative,positive,j,j,1,0.5804999000392854,128.7375905000372,129.74977920000674,129.7331779000233,None,128.7375905000372,None,128.7375905000372,None,128.7375905000372,None,130.316418219998,None,130.316418219998,None,130.316418219998,None,,,,,,,,,,,,,,103,2023-04-20_14h26.25.157,Main,2022.1.1,59.9982600441946,
positive,positive,1,l,j,,,,,,,,,0,4,4,2,,,,,,,,,main,1,1,1,positive,positive,j,j,1,0.5131262000068091,130.32118430000264,131.3330977000296,131.31657580001047,None,130.32118430000264,None,130.32118430000264,None,130.32118430000264,None,131.83095342002343,None,131.83095342002343,None,131.83095342002343,None,,,,,,,,,,,,,,103,2023-04-20_14h26.25.157,Main,2022.1.1,59.9982600441946,
neutral,negative,2,k,k,,,,,,,,,0,5,5,16,,,,,,,,,main,2,2,2,negative,neutral,k,k,1,0.48385389999020845,131.83466009999393,132.8497786000371,132.83312379999552,None,131.83466009999393,None,131.83466009999393,None,131.83466009999393,None,133.3164208200178,None,133.3164208200178,None,133.3164208200178,None,,,,,,,,,,,,,,103,2023-04-20_14h26.25.157,Main,2022.1.1,59.9982600441946,
neutral,positive,1,k,k,,,,,,,,,0,6,6,4,,,,,,,,,main,2,2,1,positive,neutral,k,k,1,0.6459160000085831,133.3197097000084,134.33301669999491,134.31647210003575,None,133.3197097000084,None,133.3197097000084,None,133.3197097000084,None,134.96389191999333,None,134.96389191999333,None,134.96389191999333,None,,,,,,,,,,,,,,103,2023-04-20_14h26.25.157,Main,2022.1.1,59.9982600441946,
positive,negative,1,l,j,,,,,,,,,0,7,7,5,,,,,,,,,main,2,2,1,negative,positive,j,j,1,0.5815110999974422,134.9644544000039,135.9639302000287,135.9639302000287,None,134.9644544000039,None,134.9644544000039,None,134.9644544000039,None,136.54725162003888,None,136.54725162003888,None,136.54725162003888,None,,,,,,,,,,,,,,103,2023-04-20_14h26.25.157,Main,2022.1.1,59.9982600441946,
negative,positive,1,j,l,,,,,,,,,0,8,8,6,,,,,,,,,main,2,2,1,positive,negative,l,l,1,0.7511416000197642,136.55124499998055,137.5663268000353,137.54978910001228,None,136.55124499998055,None,136.55124499998055,None,136.55124499998055,None,138.29966232000152,None,138.29966232000152,None,138.29966232000152,None,,,,,,,,,,,,,,103,2023-04-20_14h26.25.157,Main,2022.1.1,59.9982600441946,
negative,neutral,1,j,l,,,,,,,,,0,9,9,3,,,,,,,,,main,2,2,1,neutral,negative,l,l,1,0.5485031999996863,138.30365279997932,139.31625969999004,139.29748680000193,None,138.30365279997932,None,138.30365279997932,None,138.30365279997932,None,139.84958122001262,None,139.84958122001262,None,139.84958122001262,None,,,,,,,,,,,,,,103,2023-04-20_14h26.25.157,Main,2022.1.1,59.9982600441946,
positive,neutral,2,l,j,,,,,,,,,0,10,10,17,,,,,,,,,main,1,1,2,neutral,positive,j,j,1,0.6995054999715649,139.85306729999138,140.86628720001318,140.8497468000278,None,139.85306729999138,None,139.85306729999138,None,139.85306729999138,None,141.54965032002656,None,141.54965032002656,None,141.54965032002656,None,,,,,,,,,,,,,,103,2023-04-20_14h26.25.157,Main,2022.1.1,59.9982600441946,
neutral,neutral,1,k,k,,,,,,,,,0,11,11,1,,,,,,,,,main,2,2,1,neutral,neutral,k,k,1,0.49622790003195405,141.55443080002442,142.5640826000017,142.5496479999856,None,141.55443080002442,None,141.55443080002442,None,141.55443080002442,None,143.04853061999893,None,143.04853061999893,None,143.04853061999893,None,,,,,,,,,,,,,,103,2023-04-20_14h26.25.157,Main,2022.1.1,59.9982600441946,
positive,neutral,1,l,j,,,,,,,,,0,12,12,8,,,,,,,,,main,1,1,1,neutral,positive,j,j,1,0.5490161000052467,143.0540935000172,144.06621720001567,144.04743879998568,None,143.0540935000172,None,143.0540935000172,None,143.0540935000172,None,144.59953492000932,None,144.59953492000932,None,144.59953492000932,None,,,,,,,,,,,,,,103,2023-04-20_14h26.25.157,Main,2022.1.1,59.9982600441946,
positive,positive,2,l,j,,,,,,,,,0,13,13,11,,,,,,,,,main,1,1,2,positive,positive,j,j,1,0.5290946000022814,144.60288110002875,145.6136603000341,145.5969899999909,None,144.60288110002875,None,144.60288110002875,None,144.60288110002875,None,146.13027652003802,None,146.13027652003802,None,146.13027652003802,None,,,,,,,,,,,,,,103,2023-04-20_14h26.25.157,Main,2022.1.1,59.9982600441946,
neutral,negative,1,k,k,,,,,,,,,0,14,14,7,,,,,,,,,main,2,2,1,negative,neutral,k,k,1,0.4847073000273667,146.13028470001882,147.1303401000332,147.1303401000332,None,146.13028470001882,None,146.13028470001882,None,146.13028470001882,None,147.61641572002554,None,147.61641572002554,None,147.61641572002554,None,,,,,,,,,,,,,,103,2023-04-20_14h26.25.157,Main,2022.1.1,59.9982600441946,
neutral,positive,2,k,k,,,,,,,,,0,15,15,13,,,,,,,,,main,1,1,2,positive,neutral,k,k,1,0.5490819999831729,147.6195946999942,148.6327623000252,148.61628760001622,None,147.6195946999942,None,147.6195946999942,None,147.6195946999942,None,149.1662061199895,None,149.1662061199895,None,149.1662061199895,None,,,,,,,,,,,,,,103,2023-04-20_14h26.25.157,Main,2022.1.1,59.9982600441946,
negative,positive,2,j,l,,,,,,,,,0,16,16,15,,,,,,,,,main,2,2,2,positive,negative,l,l,1,0.5472450999659486,149.1709014000371,150.1827285999898,150.16617899999255,None,149.1709014000371,None,149.1709014000371,None,149.1709014000371,None,150.71608232002473,None,150.71608232002473,None,150.71608232002473,None,,,,,,,,,,,,,,103,2023-04-20_14h26.25.157,Main,2022.1.1,59.9982600441946,
negative,negative,2,j,l,,,,,,,,,0,17,17,9,,,,,,,,,main,2,2,2,negative,negative,l,l,1,0.5318348999717273,150.7192320000031,151.73269849998178,151.71611420001136,None,150.7192320000031,None,150.7192320000031,None,150.7192320000031,None,152.24936791998334,None,152.24936791998334,None,152.24936791998334,None,,,,,,,,,,,,,,103,2023-04-20_14h26.25.157,Main,2022.1.1,59.9982600441946,
positive,negative,1,l,j,,,,,,,,,1,0,18,5,,,,,,,,,main,1,1,1,negative,positive,j,j,1,0.5992011000053026,152.25284790003207,153.26604429999134,153.24937059998047,None,152.25284790003207,None,152.25284790003207,None,152.25284790003207,None,153.8493316200329,None,153.8493316200329,None,153.8493316200329,None,,,,,,,,,,,,,,103,2023-04-20_14h26.25.157,Main,2022.1.1,59.9982600441946,
positive,positive,1,l,j,,,,,,,,,1,1,19,2,,,,,,,,,main,2,2,1,positive,positive,j,j,1,0.49492900003679097,153.85367979999864,154.86398199998075,154.84940900001675,None,153.85367979999864,None,153.85367979999864,None,153.85367979999864,None,155.34675771999173,None,155.34675771999173,None,155.34675771999173,None,,,,,,,,,,,,,,103,2023-04-20_14h26.25.157,Main,2022.1.1,59.9982600441946,
neutral,neutral,1,k,k,,,,,,,,,1,2,20,1,,,,,,,,,main,2,2,1,neutral,neutral,k,k,1,0.5318290999857709,155.3467655000277,156.34680030000163,156.34680030000163,None,155.3467655000277,None,155.3467655000277,None,155.3467655000277,None,156.8801208200166,None,156.8801208200166,None,156.8801208200166,None,,,,,,,,,,,,,,103,2023-04-20_14h26.25.157,Main,2022.1.1,59.9982600441946,
negative,negative,1,j,l,,,,,,,,,1,3,21,0,,,,,,,,,main,1,1,1,negative,negative,l,l,1,0.6987431000452489,156.88010549999308,157.88011120003648,157.88011120003648,None,156.88010549999308,None,156.88010549999308,None,156.88010549999308,None,158.58012772002257,None,158.58012772002257,None,158.58012772002257,None,,,,,,,,,,,,,,103,2023-04-20_14h26.25.157,Main,2022.1.1,59.9982600441946,
negative,neutral,2,j,l,,,,,,,,,1,4,22,12,,,,,,,,,main,2,2,2,neutral,negative,l,l,1,0.5650211000465788,158.58096769999247,159.58011219999753,159.58011219999753,None,158.58096769999247,None,158.58096769999247,None,158.58096769999247,None,160.14676502003567,None,160.14676502003567,None,160.14676502003567,None,,,,,,,,,,,,,,103,2023-04-20_14h26.25.157,Main,2022.1.1,59.9982600441946,
neutral,positive,1,k,k,,,,,,,,,1,5,23,4,,,,,,,,,main,2,2,1,positive,neutral,k,k,1,0.5321112999808975,160.15054140001303,161.1659385000239,161.14929720002692,None,160.15054140001303,None,160.15054140001303,None,160.15054140001303,None,161.68063572002575,None,161.68063572002575,None,161.68063572002575,None,,,,,,,,,,,,,,103,2023-04-20_14h26.25.157,Main,2022.1.1,59.9982600441946,
neutral,negative,2,k,k,,,,,,,,,1,6,24,16,,,,,,,,,main,1,1,2,negative,neutral,k,k,1,0.5181470999959856,161.68729750002967,162.6991242999793,162.68251780001447,None,161.68729750002967,None,161.68729750002967,None,161.68729750002967,None,163.1991614199942,None,163.1991614199942,None,163.1991614199942,None,,,,,,,,,,,,,,103,2023-04-20_14h26.25.157,Main,2022.1.1,59.9982600441946,
positive,neutral,2,l,j,,,,,,,,,1,7,25,17,,,,,,,,,main,2,2,2,neutral,positive,j,j,1,0.5138826000038534,163.2037216000026,164.21583689999534,164.19917600002373,None,163.2037216000026,None,163.2037216000026,None,163.2037216000026,None,164.71581141999923,None,164.71581141999923,None,164.71581141999923,None,,,,,,,,,,,,,,103,2023-04-20_14h26.25.157,Main,2022.1.1,59.9982600441946,
negative,negative,2,j,l,,,,,,,,,1,8,26,9,,,,,,,,,main,2,2,2,negative,negative,l,l,1,0.6330528000253253,164.71885370003292,165.73241759999655,165.71362729999237,None,164.71885370003292,None,164.71885370003292,None,164.71885370003292,None,166.34907002002,None,166.34907002002,None,166.34907002002,None,,,,,,,,,,,,,,103,2023-04-20_14h26.25.157,Main,2022.1.1,59.9982600441946,
neutral,positive,2,k,k,,,,,,,,,1,9,27,13,,,,,,,,,main,1,1,2,positive,neutral,k,k,1,0.54932709998684,166.35454480000772,167.36363330000313,167.3491972000338,None,166.35454480000772,None,166.35454480000772,None,166.35454480000772,None,167.89906152000185,None,167.89906152000185,None,167.89906152000185,None,,,,,,,,,,,,,,103,2023-04-20_14h26.25.157,Main,2022.1.1,59.9982600441946,
positive,positive,2,l,j,,,,,,,,,1,10,28,11,,,,,,,,,main,2,2,2,positive,positive,j,j,1,0.5770560000091791,167.90499399998225,168.91317730001174,168.89650400000392,None,167.90499399998225,None,167.90499399998225,None,167.90499399998225,None,169.48012751998613,None,169.48012751998613,None,169.48012751998613,None,,,,,,,,,,,,,,103,2023-04-20_14h26.25.157,Main,2022.1.1,59.9982600441946,
positive,negative,2,l,j,,,,,,,,,1,11,29,14,,,,,,,,,main,1,1,2,negative,positive,j,j,1,0.4982212000177242,169.4809352000011,170.49658670002827,170.4798962000059,None,169.4809352000011,None,169.4809352000011,None,169.4809352000011,None,170.97989091998897,None,170.97989091998897,None,170.97989091998897,None,,,,,,,,,,,,,,103,2023-04-20_14h26.25.157,Main,2022.1.1,59.9982600441946,
negative,neutral,1,j,l,,,,,,,,,1,12,30,3,,,,,,,,,main,2,2,1,neutral,negative,l,l,1,0.5514206999796443,170.98010530002648,171.97984749998432,171.97984749998432,None,170.98010530002648,None,170.98010530002648,None,170.98010530002648,None,172.52984322002158,None,172.52984322002158,None,172.52984322002158,None,,,,,,,,,,,,,,103,2023-04-20_14h26.25.157,Main,2022.1.1,59.9982600441946,
negative,positive,1,j,l,,,,,,,,,1,13,31,6,,,,,,,,,main,2,2,1,positive,negative,l,l,1,0.5125083000166342,172.5361733000027,173.54897110001184,173.53240500000538,None,172.5361733000027,None,172.5361733000027,None,172.5361733000027,None,174.04649132001214,None,174.04649132001214,None,174.04649132001214,None,,,,,,,,,,,,,,103,2023-04-20_14h26.25.157,Main,2022.1.1,59.9982600441946,
neutral,negative,1,k,k,,,,,,,,,1,14,32,7,,,,,,,,,main,1,1,1,negative,neutral,k,k,1,0.5980885000317357,174.05049960000906,175.06558180000866,175.04895640001632,None,174.05049960000906,None,174.05049960000906,None,174.05049960000906,None,175.64646472001914,None,175.64646472001914,None,175.64646472001914,None,,,,,,,,,,,,,,103,2023-04-20_14h26.25.157,Main,2022.1.1,59.9982600441946,
neutral,neutral,2,k,k,,,,,,,,,1,15,33,10,,,,,,,,,main,2,2,2,neutral,neutral,k,k,1,0.4843375000054948,175.6530686999904,176.6655401000171,176.64897999999812,None,175.6530686999904,None,175.6530686999904,None,175.6530686999904,None,177.1322584199952,None,177.1322584199952,None,177.1322584199952,None,,,,,,,,,,,,,,103,2023-04-20_14h26.25.157,Main,2022.1.1,59.9982600441946,
negative,positive,2,j,l,,,,,,,,,1,16,34,15,,,,,,,,,main,2,2,2,positive,negative,l,l,1,0.5961089000338688,177.13582040002802,178.148866500007,178.13005460001295,None,177.13582040002802,None,177.13582040002802,None,177.13582040002802,None,178.73007112002233,None,178.73007112002233,None,178.73007112002233,None,,,,,,,,,,,,,,103,2023-04-20_14h26.25.157,Main,2022.1.1,59.9982600441946,
positive,neutral,1,l,j,,,,,,,,,1,17,35,8,,,,,,,,,main,2,2,1,neutral,positive,j,j,1,0.9501315000234172,178.73374470003182,179.74670469999546,179.73223090003012,None,178.73374470003182,None,178.73374470003182,None,178.73374470003182,None,180.68107862002216,None,180.68107862002216,None,180.68107862002216,None,,,,,,,,,,,,,,103,2023-04-20_14h26.25.157,Main,2022.1.1,59.9982600441946,
positive,positive,2,l,j,,,,,,,,,2,0,36,11,,,,,,,,,main,2,2,2,positive,positive,j,j,1,0.5961671000113711,180.68668129999423,181.69628149998607,181.67962210002588,None,180.68668129999423,None,180.68668129999423,None,180.68668129999423,None,182.2795958200004,None,182.2795958200004,None,182.2795958200004,None,,,,,,,,,,,,,,103,2023-04-20_14h26.25.157,Main,2022.1.1,59.9982600441946,
negative,neutral,2,j,l,,,,,,,,,2,1,37,12,,,,,,,,,main,1,1,2,neutral,negative,l,l,1,0.5508432000060566,182.27981630002614,183.27963310002815,183.27963310002815,None,182.27981630002614,None,182.27981630002614,None,182.27981630002614,None,183.83210762002273,None,183.83210762002273,None,183.83210762002273,None,,,,,,,,,,,,,,103,2023-04-20_14h26.25.157,Main,2022.1.1,59.9982600441946,
neutral,neutral,1,k,k,,,,,,,,,2,2,38,1,,,,,,,,,main,2,2,1,neutral,neutral,k,k,1,0.49799160001566634,183.83530020003673,184.8488388999831,184.83217539999168,None,183.83530020003673,None,183.83530020003673,None,183.83530020003673,None,185.3320590200019,None,185.3320590200019,None,185.3320590200019,None,,,,,,,,,,,,,,103,2023-04-20_14h26.25.157,Main,2022.1.1,59.9982600441946,
negative,positive,2,j,l,,,,,,,,,2,3,39,15,,,,,,,,,main,2,2,2,positive,negative,l,l,1,0.6462363000027835,185.33606410003267,186.34877229999984,186.33214700000826,None,185.33606410003267,None,185.33606410003267,None,185.33606410003267,None,186.9795760200359,None,186.9795760200359,None,186.9795760200359,None,,,,,,,,,,,,,,103,2023-04-20_14h26.25.157,Main,2022.1.1,59.9982600441946,
negative,neutral,1,j,l,,,,,,,,,2,4,40,3,,,,,,,,,main,2,2,1,neutral,negative,l,l,1,0.5849113000440411,186.98633799998788,187.9987213999848,187.9820717999828,None,186.98633799998788,None,186.98633799998788,None,186.98633799998788,None,188.56530302000465,None,188.56530302000465,None,188.56530302000465,None,,,,,,,,,,,,,,103,2023-04-20_14h26.25.157,Main,2022.1.1,59.9982600441946,
positive,neutral,2,l,j,,,,,,,,,2,5,41,17,,,,,,,,,main,2,2,2,neutral,positive,j,j,1,0.5474590000230819,188.57176200003596,189.5820434000343,189.56542860000627,None,188.57176200003596,None,188.57176200003596,None,188.57176200003596,None,190.1152505200007,None,190.1152505200007,None,190.1152505200007,None,,,,,,,,,,,,,,103,2023-04-20_14h26.25.157,Main,2022.1.1,59.9982600441946,
neutral,positive,1,k,k,,,,,,,,,2,6,42,4,,,,,,,,,main,2,2,1,positive,neutral,k,k,1,0.5957464000093751,190.1189206999843,191.1319004999823,191.11532839998836,None,190.1189206999843,None,190.1189206999843,None,190.1189206999843,None,191.71269452001434,None,191.71269452001434,None,191.71269452001434,None,,,,,,,,,,,,,,103,2023-04-20_14h26.25.157,Main,2022.1.1,59.9982600441946,
positive,negative,1,l,j,,,,,,,,,2,7,43,5,,,,,,,,,main,2,2,1,negative,positive,j,j,1,0.6486256999778561,191.71309560001828,192.7127169999876,192.7127169999876,None,191.71309560001828,None,191.71309560001828,None,191.71309560001828,None,193.36272802000167,None,193.36272802000167,None,193.36272802000167,None,,,,,,,,,,,,,,103,2023-04-20_14h26.25.157,Main,2022.1.1,59.9982600441946,
negative,negative,2,j,l,,,,,,,,,2,8,44,9,,,,,,,,,main,2,2,2,negative,negative,l,l,1,0.6153546999557875,193.36324959999183,194.3627360999817,194.3627360999817,None,193.36324959999183,None,193.36324959999183,None,193.36324959999183,None,194.97958611999638,None,194.97958611999638,None,194.97958611999638,None,,,,,,,,,,,,,,103,2023-04-20_14h26.25.157,Main,2022.1.1,59.9982600441946,
neutral,negative,2,k,k,,,,,,,,,2,9,45,16,,,,,,,,,main,2,2,2,negative,neutral,k,k,1,0.5338766999775544,194.98638279997976,195.99860980000813,195.98194110003533,None,194.98638279997976,None,194.98638279997976,None,194.98638279997976,None,196.51512892002938,None,196.51512892002938,None,196.51512892002938,None,,,,,,,,,,,,,,103,2023-04-20_14h26.25.157,Main,2022.1.1,59.9982600441946,
neutral,neutral,2,k,k,,,,,,,,,2,10,46,10,,,,,,,,,main,2,2,2,neutral,neutral,k,k,1,0.5155349000124261,196.51837529998738,197.5317826999817,197.51526399998693,None,196.51837529998738,None,196.51837529998738,None,196.51837529998738,None,198.03177782002604,None,198.03177782002604,None,198.03177782002604,None,,,,,,,,,,,,,,103,2023-04-20_14h26.25.157,Main,2022.1.1,59.9982600441946,
negative,positive,1,j,l,,,,,,,,,2,11,47,6,,,,,,,,,main,2,2,1,positive,negative,l,l,1,0.5315186999505386,198.03548040002352,199.0484252999886,199.03181369998492,None,198.03548040002352,None,198.03548040002352,None,198.03548040002352,None,199.56504091998795,None,199.56504091998795,None,199.56504091998795,None,,,,,,,,,,,,,,103,2023-04-20_14h26.25.157,Main,2022.1.1,59.9982600441946,
negative,negative,1,j,l,,,,,,,,,2,12,48,0,,,,,,,,,main,1,1,1,negative,negative,l,l,1,0.5314524999703281,199.56842840003083,200.58172100002412,200.56508239998948,None,199.56842840003083,None,199.56842840003083,None,199.56842840003083,None,201.09847111999989,None,201.09847111999989,None,201.09847111999989,None,,,,,,,,,,,,,,103,2023-04-20_14h26.25.157,Main,2022.1.1,59.9982600441946,
neutral,negative,1,k,k,,,,,,,,,2,13,49,7,,,,,,,,,main,2,2,1,negative,neutral,k,k,1,0.5154910999699496,201.1027177000069,202.1150137000368,202.09844550001435,None,201.1027177000069,None,201.1027177000069,None,201.1027177000069,None,202.61578782001743,None,202.61578782001743,None,202.61578782001743,None,,,,,,,,,,,,,,103,2023-04-20_14h26.25.157,Main,2022.1.1,59.9982600441946,
positive,positive,1,l,j,,,,,,,,,2,14,50,2,,,,,,,,,main,2,2,1,positive,positive,j,j,1,0.5279087999952026,202.61993670003721,203.62916280003265,203.61249740002677,None,202.61993670003721,None,202.61993670003721,None,202.61993670003721,None,204.14580391999334,None,204.14580391999334,None,204.14580391999334,None,,,,,,,,,,,,,,103,2023-04-20_14h26.25.157,Main,2022.1.1,59.9982600441946,
neutral,positive,2,k,k,,,,,,,,,2,15,51,13,,,,,,,,,main,1,1,2,positive,neutral,k,j,0,0.5014614000101574,204.1457521999837,205.14596009999514,205.14596009999514,None,204.1457521999837,None,204.1457521999837,None,204.1457521999837,None,205.64620279998053,None,205.64620279998053,None,205.64620279998053,None,,,,,,,,,,,,,,103,2023-04-20_14h26.25.157,Main,2022.1.1,59.9982600441946,
positive,neutral,1,l,j,,,,,,,,,2,16,52,8,,,,,,,,,main,2,2,1,neutral,positive,j,j,1,0.6047970000072382,206.64645340002608,207.64836049999576,207.63172800000757,None,206.64645340002608,None,206.64645340002608,None,206.64645340002608,None,208.24828072002856,None,208.24828072002856,None,208.24828072002856,None,,,,,,,,,,,,,,103,2023-04-20_14h26.25.157,Main,2022.1.1,59.9982600441946,
positive,negative,2,l,j,,,,,,,,,2,17,53,14,,,,,,,,,main,1,1,2,negative,positive,j,j,1,0.611595300026238,208.25287189998198,209.26497419999214,209.2483030000003,None,208.25287189998198,None,208.25287189998198,None,208.25287189998198,None,209.86286732001463,None,209.86286732001463,None,209.86286732001463,None,,,,,,,,,,,,,,103,2023-04-20_14h26.25.157,Main,2022.1.1,59.9982600441946,
negative,negative,1,j,l,,,,,,,,,3,0,54,0,,,,,,,,,main,2,2,1,negative,negative,l,l,1,0.6837754999869503,209.86663870001212,210.88151380000636,210.86488060001284,None,209.86663870001212,None,209.86663870001212,None,209.86663870001212,None,211.5481131200213,None,211.5481131200213,None,211.5481131200213,None,,,,,,,,,,,,,,103,2023-04-20_14h26.25.157,Main,2022.1.1,59.9982600441946,
neutral,neutral,2,k,k,,,,,,,,,3,1,55,10,,,,,,,,,main,1,1,2,neutral,neutral,k,k,1,0.5167682000319473,211.55172089999542,212.56489340000553,212.54824000003282,None,211.55172089999542,None,211.55172089999542,None,211.55172089999542,None,213.0666754200356,None,213.0666754200356,None,213.0666754200356,None,,,,,,,,,,,,,,103,2023-04-20_14h26.25.157,Main,2022.1.1,59.9982600441946,
negative,neutral,2,j,l,,,,,,,,,3,2,56,12,,,,,,,,,main,2,2,2,neutral,negative,l,l,1,0.49432070000329986,213.0791516000172,214.08127160003642,214.062528999988,None,213.0791516000172,None,213.0791516000172,None,213.0791516000172,None,214.56251682003494,None,214.56251682003494,None,214.56251682003494,None,,,,,,,,,,,,,,103,2023-04-20_14h26.25.157,Main,2022.1.1,59.9982600441946,
neutral,neutral,1,k,k,,,,,,,,,3,3,57,1,,,,,,,,,main,1,1,1,neutral,neutral,k,k,1,0.598858300014399,214.56622789998073,215.57902569998987,215.5625524999923,None,214.56622789998073,None,214.56622789998073,None,214.56622789998073,None,216.16249352000887,None,216.16249352000887,None,216.16249352000887,None,,,,,,,,,,,,,,103,2023-04-20_14h26.25.157,Main,2022.1.1,59.9982600441946,
neutral,negative,1,k,k,,,,,,,,,3,4,58,7,,,,,,,,,main,1,1,1,negative,neutral,k,k,1,0.5312286000116728,216.1671310000238,217.1812282000319,217.16460509999888,None,216.1671310000238,None,216.1671310000238,None,216.1671310000238,None,217.69581702002324,None,217.69581702002324,None,217.69581702002324,None,,,,,,,,,,,,,,103,2023-04-20_14h26.25.157,Main,2022.1.1,59.9982600441946,
neutral,positive,1,k,k,,,,,,,,,3,5,59,4,,,,,,,,,main,1,1,1,positive,neutral,k,k,1,0.49828239995986223,217.7146872000303,218.71456880000187,218.69794440001715,None,217.7146872000303,None,217.7146872000303,None,217.7146872000303,None,219.1957845200086,None,219.1957845200086,None,219.1957845200086,None,,,,,,,,,,,,,,103,2023-04-20_14h26.25.157,Main,2022.1.1,59.9982600441946,
negative,positive,2,j,l,,,,,,,,,3,6,60,15,,,,,,,,,main,2,2,2,positive,negative,l,l,1,0.583602000027895,219.1995023000054,220.21248350001406,220.1957760999794,None,219.1995023000054,None,219.1995023000054,None,219.1995023000054,None,220.7812051200308,None,220.7812051200308,None,220.7812051200308,None,,,,,,,,,,,,,,103,2023-04-20_14h26.25.157,Main,2022.1.1,59.9982600441946,
positive,positive,2,l,j,,,,,,,,,3,7,61,11,,,,,,,,,main,1,1,2,positive,positive,j,j,1,0.5151829000096768,220.78381440002704,221.7978138999897,221.7790904000285,None,220.78381440002704,None,220.78381440002704,None,220.78381440002704,None,222.29794861999108,None,222.29794861999108,None,222.29794861999108,None,,,,,,,,,,,,,,103,2023-04-20_14h26.25.157,Main,2022.1.1,59.9982600441946,
positive,negative,2,l,j,,,,,,,,,3,8,62,14,,,,,,,,,main,2,2,2,negative,positive,j,j,1,0.547613300033845,222.30202669999562,223.3144653000054,223.29780749999918,None,222.30202669999562,None,222.30202669999562,None,222.30202669999562,None,223.84788392001064,None,223.84788392001064,None,223.84788392001064,None,,,,,,,,,,,,,,103,2023-04-20_14h26.25.157,Main,2022.1.1,59.9982600441946,
positive,positive,1,l,j,,,,,,,,,3,9,63,2,,,,,,,,,main,2,2,1,positive,positive,j,j,1,0.6805694999638945,223.8513246999937,224.86239090003073,224.8479687999934,None,223.8513246999937,None,223.8513246999937,None,223.8513246999937,None,225.52998692000983,None,225.52998692000983,None,225.52998692000983,None,,,,,,,,,,,,,,103,2023-04-20_14h26.25.157,Main,2022.1.1,59.9982600441946,
negative,positive,1,j,l,,,,,,,,,3,10,64,6,,,,,,,,,main,2,2,1,positive,negative,l,l,1,0.6303977000061423,225.53566120000323,226.54489449999528,226.52825440000743,None,225.53566120000323,None,225.53566120000323,None,225.53566120000323,None,227.16197071998613,None,227.16197071998613,None,227.16197071998613,None,,,,,,,,,,,,,,103,2023-04-20_14h26.25.157,Main,2022.1.1,59.9982600441946,
neutral,positive,2,k,k,,,,,,,,,3,11,65,13,,,,,,,,,main,1,1,2,positive,neutral,k,k,1,0.4980121999979019,227.16734809998889,228.17861340002855,228.1619597999961,None,227.16734809998889,None,227.16734809998889,None,227.16734809998889,None,228.66198182001244,None,228.66198182001244,None,228.66198182001244,None,,,,,,,,,,,,,,103,2023-04-20_14h26.25.157,Main,2022.1.1,59.9982600441946,
positive,neutral,2,l,j,,,,,,,,,3,12,66,17,,,,,,,,,main,1,1,2,neutral,positive,j,j,1,0.5500299999839626,228.6634112999891,229.6645589999971,229.64789979998022,None,228.6634112999891,None,228.6634112999891,None,228.6634112999891,None,230.2135383200366,None,230.2135383200366,None,230.2135383200366,None,,,,,,,,,,,,,,103,2023-04-20_14h26.25.157,Main,2022.1.1,59.9982600441946,
neutral,negative,2,k,k,,,,,,,,,3,13,67,16,,,,,,,,,main,2,2,2,negative,neutral,k,k,1,0.6139919999986887,230.2191399000003,231.23106010002084,231.21451379999053,None,230.2191399000003,None,230.2191399000003,None,230.2191399000003,None,231.829266619985,None,231.829266619985,None,231.829266619985,None,,,,,,,,,,,,,,103,2023-04-20_14h26.25.157,Main,2022.1.1,59.9982600441946,
negative,neutral,1,j,l,,,,,,,,,3,14,68,3,,,,,,,,,main,2,2,1,neutral,negative,l,l,1,0.6045569999841973,231.8353920999798,232.84781830001157,232.83113930001855,None,231.8353920999798,None,231.8353920999798,None,231.8353920999798,None,233.4310914200032,None,233.4310914200032,None,233.4310914200032,None,,,,,,,,,,,,,,103,2023-04-20_14h26.25.157,Main,2022.1.1,59.9982600441946,
positive,negative,1,l,j,,,,,,,,,3,15,69,5,,,,,,,,,main,2,2,1,negative,positive,j,j,1,0.6439210000098683,233.43894120003097,234.44768410001416,234.43111609999323,None,233.43894120003097,None,233.43894120003097,None,233.43894120003097,None,235.08107492001727,None,235.08107492001727,None,235.08107492001727,None,,,,,,,,,,,,,,103,2023-04-20_14h26.25.157,Main,2022.1.1,59.9982600441946,
negative,negative,2,j,l,,,,,,,,,3,16,70,9,,,,,,,,,main,2,2,2,negative,negative,l,l,1,0.6151076999958605,235.08515240001725,236.0976754000294,236.08106420002878,None,235.08515240001725,None,235.08515240001725,None,235.08515240001725,None,236.69766632001847,None,236.69766632001847,None,236.69766632001847,None,,,,,,,,,,,,,,103,2023-04-20_14h26.25.157,Main,2022.1.1,59.9982600441946,
positive,neutral,1,l,j,,,,,,,,,3,17,71,8,,,,,,,,,main,2,2,1,neutral,positive,j,j,1,0.6624952999991365,236.70156970003154,237.71176400000695,237.6951009000186,None,236.70156970003154,None,236.70156970003154,None,236.70156970003154,None,238.3617807200062,None,238.3617807200062,None,238.3617807200062,None,,,,,,,,,,,,,,103,2023-04-20_14h26.25.157,Main,2022.1.1,59.9982600441946,
neutral,positive,2,k,k,,,,,,,,,4,0,72,13,,,,,,,,,main,1,1,2,positive,neutral,k,k,1,0.5151030000415631,238.3617623000173,239.36181410000427,239.36181410000427,None,238.3617623000173,None,238.3617623000173,None,238.3617623000173,None,239.87848662002943,None,239.87848662002943,None,239.87848662002943,None,,,,,,,,,,,,,,103,2023-04-20_14h26.25.157,Main,2022.1.1,59.9982600441946,
positive,neutral,2,l,j,,,,,,,,,4,1,73,17,,,,,,,,,main,2,2,2,neutral,positive,j,j,1,0.568559399980586,239.8820803000126,240.89765649999026,240.88094740000088,None,239.8820803000126,None,239.8820803000126,None,239.8820803000126,None,241.44751872000052,None,241.44751872000052,None,241.44751872000052,None,,,,,,,,,,,,,,103,2023-04-20_14h26.25.157,Main,2022.1.1,59.9982600441946,
negative,positive,1,j,l,,,,,,,,,4,2,74,6,,,,,,,,,main,1,1,1,positive,negative,l,l,1,0.5975424000062048,241.4515680000186,242.46429169998737,242.44768899999326,None,241.4515680000186,None,241.4515680000186,None,241.4515680000186,None,243.0475136199966,None,243.0475136199966,None,243.0475136199966,None,,,,,,,,,,,,,,103,2023-04-20_14h26.25.157,Main,2022.1.1,59.9982600441946,
neutral,neutral,1,k,k,,,,,,,,,4,3,75,1,,,,,,,,,main,2,2,1,neutral,neutral,k,k,1,0.4648400999722071,243.05101350002224,244.06415980000747,244.04757450002944,None,243.05101350002224,None,243.05101350002224,None,243.05101350002224,None,244.5141726200236,None,244.5141726200236,None,244.5141726200236,None,,,,,,,,,,,,,,103,2023-04-20_14h26.25.157,Main,2022.1.1,59.9982600441946,
neutral,negative,2,k,k,,,,,,,,,4,4,76,16,,,,,,,,,main,2,2,2,negative,neutral,k,k,1,0.5136345999781042,244.51754380000057,245.53090130002238,245.51420420000795,None,244.51754380000057,None,244.51754380000057,None,244.51754380000057,None,246.02952812000876,None,246.02952812000876,None,246.02952812000876,None,,,,,,,,,,,,,,103,2023-04-20_14h26.25.157,Main,2022.1.1,59.9982600441946,
negative,positive,2,j,l,,,,,,,,,4,5,77,15,,,,,,,,,main,2,2,2,positive,negative,l,l,1,0.5351296000299044,246.0354895000346,247.04741980001563,247.0307987999986,None,246.0354895000346,None,246.0354895000346,None,246.0354895000346,None,247.5660343199852,None,247.5660343199852,None,247.5660343199852,None,,,,,,,,,,,,,,103,2023-04-20_14h26.25.157,Main,2022.1.1,59.9982600441946,
positive,negative,2,l,j,,,,,,,,,4,6,78,14,,,,,,,,,main,1,1,2,negative,positive,j,j,1,0.5434641999891028,247.57845860003727,248.57821509998757,248.56161680002697,None,247.57845860003727,None,247.57845860003727,None,247.57845860003727,None,249.1115758200176,None,249.1115758200176,None,249.1115758200176,None,,,,,,,,,,,,,,103,2023-04-20_14h26.25.157,Main,2022.1.1,59.9982600441946,
positive,positive,2,l,j,,,,,,,,,4,7,79,11,,,,,,,,,main,2,2,2,positive,positive,j,j,1,0.5011197999701835,249.11210149998078,250.1116396000143,250.1116396000143,None,249.11210149998078,None,249.11210149998078,None,249.11210149998078,None,250.61401861999184,None,250.61401861999184,None,250.61401861999184,None,,,,,,,,,,,,,,103,2023-04-20_14h26.25.157,Main,2022.1.1,59.9982600441946,
negative,negative,2,j,l,,,,,,,,,4,8,80,9,,,,,,,,,main,2,2,2,negative,negative,l,l,1,0.5623571999603882,250.6182273000013,251.63074689998757,251.61409149999963,None,250.6182273000013,None,250.6182273000013,None,250.6182273000013,None,252.1788040199899,None,252.1788040199899,None,252.1788040199899,None,,,,,,,,,,,,,,103,2023-04-20_14h26.25.157,Main,2022.1.1,59.9982600441946,
positive,neutral,1,l,j,,,,,,,,,4,9,81,8,,,,,,,,,main,1,1,1,neutral,positive,j,j,1,0.5834657999803312,252.1851645000279,253.19738780002808,253.18076860002475,None,252.1851645000279,None,252.1851645000279,None,252.1851645000279,None,253.76394152001012,None,253.76394152001012,None,253.76394152001012,None,,,,,,,,,,,,,,103,2023-04-20_14h26.25.157,Main,2022.1.1,59.9982600441946,
neutral,positive,1,k,k,,,,,,,,,4,10,82,4,,,,,,,,,main,2,2,1,positive,neutral,k,k,1,0.446468600013759,253.76716430002125,254.7806860000128,254.7640032999916,None,253.76716430002125,None,253.76716430002125,None,253.76716430002125,None,255.21194652002305,None,255.21194652002305,None,255.21194652002305,None,,,,,,,,,,,,,,103,2023-04-20_14h26.25.157,Main,2022.1.1,59.9982600441946,
neutral,negative,1,k,k,,,,,,,,,4,11,83,7,,,,,,,,,main,2,2,1,negative,neutral,k,k,1,0.500149900035467,255.2156414000201,256.23059510003077,256.21404160000384,None,255.2156414000201,None,255.2156414000201,None,255.2156414000201,None,256.7138627200038,None,256.7138627200038,None,256.7138627200038,None,,,,,,,,,,,,,,103,2023-04-20_14h26.25.157,Main,2022.1.1,59.9982600441946,
positive,positive,1,l,j,,,,,,,,,4,12,84,2,,,,,,,,,main,1,1,1,positive,positive,j,j,1,0.6791750999982469,256.71831080003176,257.72739730001194,257.72739730001194,None,256.71831080003176,None,256.71831080003176,None,256.71831080003176,None,258.3946587200044,None,258.3946587200044,None,258.3946587200044,None,,,,,,,,,,,,,,103,2023-04-20_14h26.25.157,Main,2022.1.1,59.9982600441946,
positive,negative,1,l,j,,,,,,,,,4,13,85,5,,,,,,,,,main,1,1,1,negative,positive,j,j,1,0.6650531999766827,258.39467389998026,259.3947066999972,259.3947066999972,None,258.39467389998026,None,258.39467389998026,None,258.39467389998026,None,260.06138492003083,None,260.06138492003083,None,260.06138492003083,None,,,,,,,,,,,,,,103,2023-04-20_14h26.25.157,Main,2022.1.1,59.9982600441946,
neutral,neutral,2,k,k,,,,,,,,,4,14,86,10,,,,,,,,,main,1,1,2,neutral,neutral,k,k,1,0.4983940999954939,260.0618092000368,261.0613722000271,261.0613722000271,None,260.0618092000368,None,260.0618092000368,None,260.0618092000368,None,261.56138902000384,None,261.56138902000384,None,261.56138902000384,None,,,,,,,,,,,,,,103,2023-04-20_14h26.25.157,Main,2022.1.1,59.9982600441946,
negative,neutral,2,j,l,,,,,,,,,4,15,87,12,,,,,,,,,main,1,1,2,neutral,negative,l,l,1,0.619873000017833,261.5646863000002,262.56386980001116,262.56386980001116,None,261.5646863000002,None,261.5646863000002,None,261.5646863000002,None,263.17975502001354,None,263.17975502001354,None,263.17975502001354,None,,,,,,,,,,,,,,103,2023-04-20_14h26.25.157,Main,2022.1.1,59.9982600441946,
negative,neutral,1,j,l,,,,,,,,,4,16,88,3,,,,,,,,,main,2,2,1,neutral,negative,l,l,1,0.5628680000081658,263.1860464999918,264.1971061999793,264.1805851000245,None,263.1860464999918,None,263.1860464999918,None,263.1860464999918,None,264.7470517199836,None,264.7470517199836,None,264.7470517199836,None,,,,,,,,,,,,,,103,2023-04-20_14h26.25.157,Main,2022.1.1,59.9982600441946,
negative,negative,1,j,l,,,,,,,,,4,17,89,0,,,,,,,,,main,2,2,1,negative,negative,l,l,1,0.6157165999757126,264.75077909999527,265.76370740000857,265.747146299982,None,264.75077909999527,None,264.75077909999527,None,264.75077909999527,None,266.36367842002073,None,266.36367842002073,None,266.36367842002073,None,,,,,,,,,,,,,,103,2023-04-20_14h26.25.157,Main,2022.1.1,59.9982600441946,
negative,positive,2,j,l,,,,,,,,,5,0,90,15,,,,,,,,,main,2,2,2,positive,negative,l,l,1,0.7465785999665968,266.3679957999848,267.38031229999615,267.3637388999923,None,266.3679957999848,None,266.3679957999848,None,266.3679957999848,None,268.11251742002787,None,268.11251742002787,None,268.11251742002787,None,,,,,,,,,,,,,,103,2023-04-20_14h26.25.157,Main,2022.1.1,59.9982600441946,
neutral,negative,1,k,k,,,,,,,,,5,1,91,7,,,,,,,,,main,1,1,1,negative,neutral,k,k,1,0.5636257999576628,268.1183556999895,269.1281727000023,269.1136024000007,None,268.1183556999895,None,268.1183556999895,None,268.1183556999895,None,269.6778672200162,None,269.6778672200162,None,269.6778672200162,None,,,,,,,,,,,,,,103,2023-04-20_14h26.25.157,Main,2022.1.1,59.9982600441946,
negative,negative,2,j,l,,,,,,,,,5,2,92,9,,,,,,,,,main,2,2,2,negative,negative,l,l,1,0.5649018000112846,269.68427169998176,270.69447119999677,270.6778027000255,None,269.68427169998176,None,269.68427169998176,None,269.68427169998176,None,271.2444621199975,None,271.2444621199975,None,271.2444621199975,None,,,,,,,,,,,,,,103,2023-04-20_14h26.25.157,Main,2022.1.1,59.9982600441946,
neutral,positive,1,k,k,,,,,,,,,5,3,93,4,,,,,,,,,main,1,1,1,positive,neutral,k,k,1,0.4816580999759026,271.24441270000534,272.24445980001474,272.24445980001474,None,271.24441270000534,None,271.24441270000534,None,271.24441270000534,None,272.72778961999575,None,272.72778961999575,None,272.72778961999575,None,,,,,,,,,,,,,,103,2023-04-20_14h26.25.157,Main,2022.1.1,59.9982600441946,
positive,negative,1,l,j,,,,,,,,,5,4,94,5,,,,,,,,,main,1,1,1,negative,positive,j,j,1,0.6010020999819972,272.7444689000258,273.7470481999917,273.7136603000108,None,272.7444689000258,None,272.7444689000258,None,272.7444689000258,None,274.330266820034,None,274.330266820034,None,274.330266820034,None,,,,,,,,,,,,,,103,2023-04-20_14h26.25.157,Main,2022.1.1,59.9982600441946,
positive,neutral,1,l,j,,,,,,,,,5,5,95,8,,,,,,,,,main,2,2,1,neutral,positive,j,j,1,0.646477100031916,274.3337376000127,275.34689939999953,275.3303829000215,None,274.3337376000127,None,274.3337376000127,None,274.3337376000127,None,275.9778145200107,None,275.9778145200107,None,275.9778145200107,None,,,,,,,,,,,,,,103,2023-04-20_14h26.25.157,Main,2022.1.1,59.9982600441946,
positive,neutral,2,l,j,,,,,,,,,5,6,96,17,,,,,,,,,main,1,1,2,neutral,positive,j,j,1,0.5979612999944948,275.984595499991,276.99692000000505,276.98022540000966,None,275.984595499991,None,275.984595499991,None,275.984595499991,None,277.57825121999485,None,277.57825121999485,None,277.57825121999485,None,,,,,,,,,,,,,,103,2023-04-20_14h26.25.157,Main,2022.1.1,59.9982600441946,
neutral,positive,2,k,k,,,,,,,,,5,7,97,13,,,,,,,,,main,1,1,2,positive,neutral,k,k,1,0.5670066999737173,277.58441609999863,278.5968839999987,278.58019290002994,None,277.58441609999863,None,277.58441609999863,None,277.58441609999863,None,279.1467351199826,None,279.1467351199826,None,279.1467351199826,None,,,,,,,,,,,,,,103,2023-04-20_14h26.25.157,Main,2022.1.1,59.9982600441946,
negative,negative,1,j,l,,,,,,,,,5,8,98,0,,,,,,,,,main,2,2,1,negative,negative,l,l,1,0.531097500002943,279.15095239999937,280.16344119998394,280.14460930001223,None,279.15095239999937,None,279.15095239999937,None,279.15095239999937,None,280.67925022001145,None,280.67925022001145,None,280.67925022001145,None,,,,,,,,,,,,,,103,2023-04-20_14h26.25.157,Main,2022.1.1,59.9982600441946,
negative,neutral,1,j,l,,,,,,,,,5,9,99,3,,,,,,,,,main,2,2,1,neutral,negative,l,l,1,0.5628208999987692,280.6846967000165,281.69418150000274,281.67751670000143,None,280.6846967000165,None,280.6846967000165,None,280.6846967000165,None,282.2441757200286,None,282.2441757200286,None,282.2441757200286,None,,,,,,,,,,,,,,103,2023-04-20_14h26.25.157,Main,2022.1.1,59.9982600441946,
neutral,neutral,2,k,k,,,,,,,,,5,10,100,10,,,,,,,,,main,1,1,2,neutral,neutral,k,k,1,0.564527399954386,282.24477079999633,283.24427580001066,283.24427580001066,None,282.24477079999633,None,282.24477079999633,None,282.24477079999633,None,283.81091812002705,None,283.81091812002705,None,283.81091812002705,None,,,,,,,,,,,,,,103,2023-04-20_14h26.25.157,Main,2022.1.1,59.9982600441946,
positive,positive,2,l,j,,,,,,,,,5,11,101,11,,,,,,,,,main,2,2,2,positive,positive,j,j,1,0.5824192999862134,283.8151355999871,284.8300509999972,284.8133810000145,None,283.8151355999871,None,283.8151355999871,None,283.8151355999871,None,285.3945440200041,None,285.3945440200041,None,285.3945440200041,None,,,,,,,,,,,,,,103,2023-04-20_14h26.25.157,Main,2022.1.1,59.9982600441946,
negative,neutral,2,j,l,,,,,,,,,5,12,102,12,,,,,,,,,main,1,1,2,neutral,negative,l,l,1,0.5823666000505909,285.3982615999994,286.41341480001574,286.396698800032,None,285.3982615999994,None,285.3982615999994,None,285.3982615999994,None,286.9784914199845,None,286.9784914199845,None,286.9784914199845,None,,,,,,,,,,,,,,103,2023-04-20_14h26.25.157,Main,2022.1.1,59.9982600441946,
positive,negative,2,l,j,,,,,,,,,5,13,103,14,,,,,,,,,main,1,1,2,negative,positive,j,j,1,0.5979836999904364,286.98426019999897,287.996578100021,287.97995330003323,None,286.98426019999897,None,286.98426019999897,None,286.98426019999897,None,288.5782948200358,None,288.5782948200358,None,288.5782948200358,None,,,,,,,,,,,,,,103,2023-04-20_14h26.25.157,Main,2022.1.1,59.9982600441946,
positive,positive,1,l,j,,,,,,,,,5,14,104,2,,,,,,,,,main,1,1,1,positive,positive,j,j,1,0.5312342999968678,288.59668230003444,289.59652439999627,289.5799912000075,None,288.59668230003444,None,288.59668230003444,None,288.59668230003444,None,290.11111331998836,None,290.11111331998836,None,290.11111331998836,None,,,,,,,,,,,,,,103,2023-04-20_14h26.25.157,Main,2022.1.1,59.9982600441946,
neutral,negative,2,k,k,,,,,,,,,5,15,105,16,,,,,,,,,main,2,2,2,negative,neutral,k,k,1,0.5347390999668278,290.11490719998255,291.1298791000154,291.1133314000326,None,290.11490719998255,None,290.11490719998255,None,290.11490719998255,None,291.6474999199854,None,291.6474999199854,None,291.6474999199854,None,,,,,,,,,,,,,,103,2023-04-20_14h26.25.157,Main,2022.1.1,59.9982600441946,
negative,positive,1,j,l,,,,,,,,,5,16,106,6,,,,,,,,,main,2,2,1,positive,negative,l,l,1,0.5793033000081778,291.65219280001475,292.66069679998327,292.64401960000396,None,291.65219280001475,None,291.65219280001475,None,291.65219280001475,None,293.22733942000195,None,293.22733942000195,None,293.22733942000195,None,,,,,,,,,,,,,,103,2023-04-20_14h26.25.157,Main,2022.1.1,59.9982600441946,
neutral,neutral,1,k,k,,,,,,,,,5,17,107,1,,,,,,,,,main,2,2,1,neutral,neutral,k,k,1,0.5331978999893181,293.2297997000278,294.24400980002247,294.227350000001,None,293.2297997000278,None,293.2297997000278,None,293.2297997000278,None,294.7631457200041,None,294.7631457200041,None,294.7631457200041,None,,,,,,,,,,,,,,103,2023-04-20_14h26.25.157,Main,2022.1.1,59.9982600441946,
neutral,negative,2,k,k,,,,,,,,,6,0,108,16,,,,,,,,,main,2,2,2,negative,neutral,k,k,1,0.49844659998780116,294.7664367000107,295.7798521000077,295.7631918999832,None,294.7664367000107,None,294.7664367000107,None,294.7664367000107,None,296.26317692000885,None,296.26317692000885,None,296.26317692000885,None,,,,,,,,,,,,,,103,2023-04-20_14h26.25.157,Main,2022.1.1,59.9982600441946,
neutral,positive,1,k,k,,,,,,,,,6,1,109,4,,,,,,,,,main,1,1,1,positive,neutral,k,k,1,0.5126811999944039,296.2664655999979,297.27973790001124,297.26312560000224,None,296.2664655999979,None,296.2664655999979,None,296.2664655999979,None,297.7772859199904,None,297.7772859199904,None,297.7772859199904,None,,,,,,,,,,,,,,103,2023-04-20_14h26.25.157,Main,2022.1.1,59.9982600441946,
positive,negative,1,l,j,,,,,,,,,6,2,110,5,,,,,,,,,main,2,2,1,negative,positive,j,j,1,0.6155984000070021,297.781258300005,298.79640990000917,298.77755990001606,None,297.781258300005,None,297.781258300005,None,297.781258300005,None,299.39390612003626,None,299.39390612003626,None,299.39390612003626,None,,,,,,,,,,,,,,103,2023-04-20_14h26.25.157,Main,2022.1.1,59.9982600441946,
negative,positive,2,j,l,,,,,,,,,6,3,111,15,,,,,,,,,main,2,2,2,positive,negative,l,l,1,1.048144800006412,299.39820510003483,300.4130493000266,300.3964568999945,None,299.39820510003483,None,299.39820510003483,None,299.39820510003483,None,301.4442937200074,None,301.4442937200074,None,301.4442937200074,None,,,,,,,,,,,,,,103,2023-04-20_14h26.25.157,Main,2022.1.1,59.9982600441946,
positive,neutral,2,l,j,,,,,,,,,6,4,112,17,,,,,,,,,main,2,2,2,neutral,positive,j,j,1,0.5986387000302784,301.44859819998965,302.4604873000062,302.4438178000273,None,301.44859819998965,None,301.44859819998965,None,301.44859819998965,None,303.04383601999143,None,303.04383601999143,None,303.04383601999143,None,,,,,,,,,,,,,,103,2023-04-20_14h26.25.157,Main,2022.1.1,59.9982600441946,
negative,positive,1,j,l,,,,,,,,,6,5,113,6,,,,,,,,,main,2,2,1,positive,negative,l,l,1,0.5668387999758124,303.04488140001195,304.0605169000337,304.0438443000312,None,303.04488140001195,None,303.04488140001195,None,303.04488140001195,None,304.61293941998156,None,304.61293941998156,None,304.61293941998156,None,,,,,,,,,,,,,,103,2023-04-20_14h26.25.157,Main,2022.1.1,59.9982600441946,
positive,negative,2,l,j,,,,,,,,,6,6,114,14,,,,,,,,,main,2,2,2,negative,positive,j,j,1,0.5123347000335343,304.6164542000042,305.6295574000105,305.6130857000244,None,304.6164542000042,None,304.6164542000042,None,304.6164542000042,None,306.12711442,None,306.12711442,None,306.12711442,None,,,,,,,,,,,,,,103,2023-04-20_14h26.25.157,Main,2022.1.1,59.9982600441946,
positive,positive,2,l,j,,,,,,,,,6,7,115,11,,,,,,,,,main,2,2,2,positive,positive,j,j,1,0.5316308999899775,306.1309500000207,307.146261100017,307.12963909999235,None,306.1309500000207,None,306.1309500000207,None,306.1309500000207,None,307.6604239200242,None,307.6604239200242,None,307.6604239200242,None,,,,,,,,,,,,,,103,2023-04-20_14h26.25.157,Main,2022.1.1,59.9982600441946,
negative,negative,1,j,l,,,,,,,,,6,8,116,0,,,,,,,,,main,1,1,1,negative,negative,l,l,1,0.6178515999927185,307.66617540002335,308.67953580000903,308.6462596000056,None,307.66617540002335,None,307.66617540002335,None,307.66617540002335,None,309.27949531999184,None,309.27949531999184,None,309.27949531999184,None,,,,,,,,,,,,,,103,2023-04-20_14h26.25.157,Main,2022.1.1,59.9982600441946,
neutral,negative,1,k,k,,,,,,,,,6,9,117,7,,,,,,,,,main,2,2,1,negative,neutral,k,k,1,0.4791395000065677,309.2829003999941,310.296079199994,310.279498399992,None,309.2829003999941,None,309.2829003999941,None,309.2829003999941,None,310.7603491200134,None,310.7603491200134,None,310.7603491200134,None,,,,,,,,,,,,,,103,2023-04-20_14h26.25.157,Main,2022.1.1,59.9982600441946,
neutral,positive,2,k,k,,,,,,,,,6,10,118,13,,,,,,,,,main,2,2,2,positive,neutral,k,k,1,0.49857620004331693,310.76671589998296,311.77945480000926,311.762861300027,None,310.76671589998296,None,310.76671589998296,None,310.76671589998296,None,312.260224919999,None,312.260224919999,None,312.260224919999,None,,,,,,,,,,,,,,103,2023-04-20_14h26.25.157,Main,2022.1.1,59.9982600441946,
negative,negative,2,j,l,,,,,,,,,6,11,119,9,,,,,,,,,main,2,2,2,negative,negative,l,l,1,0.5814812000025995,312.26024340000004,313.2602605000138,313.2602605000138,None,312.26024340000004,None,312.26024340000004,None,312.26024340000004,None,313.8435804200126,None,313.8435804200126,None,313.8435804200126,None,,,,,,,,,,,,,,103,2023-04-20_14h26.25.157,Main,2022.1.1,59.9982600441946,
positive,neutral,1,l,j,,,,,,,,,6,12,120,8,,,,,,,,,main,1,1,1,neutral,positive,j,j,1,0.4827487000147812,313.84411340003135,314.84357369999634,314.84357369999634,None,313.84411340003135,None,313.84411340003135,None,313.84411340003135,None,315.32695452001644,None,315.32695452001644,None,315.32695452001644,None,,,,,,,,,,,,,,103,2023-04-20_14h26.25.157,Main,2022.1.1,59.9982600441946,
negative,neutral,1,j,l,,,,,,,,,6,13,121,3,,,,,,,,,main,2,2,1,neutral,negative,l,l,1,0.6660264999954961,315.3318836999824,316.34615729999496,316.32953879999695,None,315.3318836999824,None,315.3318836999824,None,315.3318836999824,None,316.99597601999994,None,316.99597601999994,None,316.99597601999994,None,,,,,,,,,,,,,,103,2023-04-20_14h26.25.157,Main,2022.1.1,59.9982600441946,
neutral,neutral,1,k,k,,,,,,,,,6,14,122,1,,,,,,,,,main,2,2,1,neutral,neutral,k,k,1,0.9625207000062801,316.9991550000268,318.0126240000245,317.9960836999817,None,316.9991550000268,None,316.9991550000268,None,316.9991550000268,None,318.9602489200188,None,318.9602489200188,None,318.9602489200188,None,,,,,,,,,,,,,,103,2023-04-20_14h26.25.157,Main,2022.1.1,59.9982600441946,
neutral,neutral,2,k,k,,,,,,,,,6,15,123,10,,,,,,,,,main,1,1,2,neutral,neutral,k,k,1,0.517227099975571,318.96641739999177,319.97936280001886,319.96274739998626,None,318.96641739999177,None,318.96641739999177,None,318.96641739999177,None,320.47925322002266,None,320.47925322002266,None,320.47925322002266,None,,,,,,,,,,,,,,103,2023-04-20_14h26.25.157,Main,2022.1.1,59.9982600441946,
positive,positive,1,l,j,,,,,,,,,6,16,124,2,,,,,,,,,main,2,2,1,positive,positive,j,j,1,0.5160250999615528,320.48360490001505,321.4937675999827,321.4793105000281,None,320.48360490001505,None,320.48360490001505,None,320.48360490001505,None,321.9959854200133,None,321.9959854200133,None,321.9959854200133,None,,,,,,,,,,,,,,103,2023-04-20_14h26.25.157,Main,2022.1.1,59.9982600441946,
negative,neutral,2,j,l,,,,,,,,,6,17,125,12,,,,,,,,,main,1,1,2,neutral,negative,l,l,1,0.5083768999902532,322.00027130002854,323.012640800036,322.9960048000212,None,322.00027130002854,None,322.00027130002854,None,322.00027130002854,None,323.5067120200256,None,323.5067120200256,None,323.5067120200256,None,,,,,,,,,,,,,,103,2023-04-20_14h26.25.157,Main,2022.1.1,59.9982600441946,
positive,negative,2,l,j,,,,,,,,,7,0,126,14,,,,,,,,,main,1,1,2,negative,positive,j,j,1,0.5184375999961048,323.51750740001444,324.52693900000304,324.4936053000274,None,323.51750740001444,None,323.51750740001444,None,323.51750740001444,None,325.0269025199814,None,325.0269025199814,None,325.0269025199814,None,,,,,,,,,,,,,,103,2023-04-20_14h26.25.157,Main,2022.1.1,59.9982600441946,
neutral,negative,1,k,k,,,,,,,,,7,1,127,7,,,,,,,,,main,1,1,1,negative,neutral,k,k,1,0.5319730000337586,325.0303259000066,326.0436140000238,326.02691439999035,None,325.0303259000066,None,325.0303259000066,None,325.0303259000066,None,326.5604002199834,None,326.5604002199834,None,326.5604002199834,None,,,,,,,,,,,,,,103,2023-04-20_14h26.25.157,Main,2022.1.1,59.9982600441946,
negative,positive,1,j,l,,,,,,,,,7,2,128,6,,,,,,,,,main,2,2,1,positive,negative,l,l,1,0.5150358999962918,326.5642253999831,327.5768991000368,327.5602361999918,None,326.5642253999831,None,326.5642253999831,None,326.5642253999831,None,328.076900820015,None,328.076900820015,None,328.076900820015,None,,,,,,,,,,,,,,103,2023-04-20_14h26.25.157,Main,2022.1.1,59.9982600441946,
positive,neutral,2,l,j,,,,,,,,,7,3,129,17,,,,,,,,,main,2,2,2,neutral,positive,j,j,1,0.6651536999852397,328.0803964000079,329.0955854000058,329.0767166999867,None,328.0803964000079,None,328.0803964000079,None,328.0803964000079,None,329.7435598199954,None,329.7435598199954,None,329.7435598199954,None,,,,,,,,,,,,,,103,2023-04-20_14h26.25.157,Main,2022.1.1,59.9982600441946,
positive,negative,1,l,j,,,,,,,,,7,4,130,5,,,,,,,,,main,2,2,1,negative,positive,j,j,1,0.731764399970416,329.74729570001364,330.76019190001534,330.7456952999928,None,329.74729570001364,None,329.74729570001364,None,329.74729570001364,None,331.47686052002246,None,331.47686052002246,None,331.47686052002246,None,,,,,,,,,,,,,,103,2023-04-20_14h26.25.157,Main,2022.1.1,59.9982600441946,
neutral,neutral,2,k,k,,,,,,,,,7,5,131,10,,,,,,,,,main,2,2,2,neutral,neutral,k,k,1,0.5005445999559015,331.4807528000092,332.4956211000099,332.4790073999902,None,331.4807528000092,None,331.4807528000092,None,331.4807528000092,None,332.9789744199952,None,332.9789744199952,None,332.9789744199952,None,,,,,,,,,,,,,,103,2023-04-20_14h26.25.157,Main,2022.1.1,59.9982600441946,
neutral,positive,2,k,k,,,,,,,,,7,6,132,13,,,,,,,,,main,1,1,2,positive,neutral,k,k,1,0.4957410999923013,332.9823425000068,333.9934954000055,333.97680820000824,None,332.9823425000068,None,332.9823425000068,None,332.9823425000068,None,334.47654592001345,None,334.47654592001345,None,334.47654592001345,None,,,,,,,,,,,,,,103,2023-04-20_14h26.25.157,Main,2022.1.1,59.9982600441946,
negative,negative,1,j,l,,,,,,,,,7,7,133,0,,,,,,,,,main,1,1,1,negative,negative,l,l,1,0.6482836999930441,334.4803184000193,335.4931719999877,335.47649800003273,None,334.4803184000193,None,334.4803184000193,None,334.4803184000193,None,336.12645812000846,None,336.12645812000846,None,336.12645812000846,None,,,,,,,,,,,,,,103,2023-04-20_14h26.25.157,Main,2022.1.1,59.9982600441946,
neutral,negative,2,k,k,,,,,,,,,7,8,134,16,,,,,,,,,main,1,1,2,negative,neutral,k,k,1,0.49850899999728426,336.1269353000098,337.1264849000145,337.1264849000145,None,336.1269353000098,None,336.1269353000098,None,336.1269353000098,None,337.6264754200238,None,337.6264754200238,None,337.6264754200238,None,,,,,,,,,,,,,,103,2023-04-20_14h26.25.157,Main,2022.1.1,59.9982600441946,
neutral,neutral,1,k,k,,,,,,,,,7,9,135,1,,,,,,,,,main,1,1,1,neutral,neutral,k,k,1,0.46490179997636005,337.6299691000022,338.6268145000213,338.6268145000213,None,337.6299691000022,None,337.6299691000022,None,337.6299691000022,None,339.093100720027,None,339.093100720027,None,339.093100720027,None,,,,,,,,,,,,,,103,2023-04-20_14h26.25.157,Main,2022.1.1,59.9982600441946,
positive,positive,2,l,j,,,,,,,,,7,10,136,11,,,,,,,,,main,1,1,2,positive,positive,j,j,1,0.5508237999747507,339.09967650001636,340.1121857999824,340.0955610999954,None,339.09967650001636,None,339.09967650001636,None,339.09967650001636,None,340.6455698200152,None,340.6455698200152,None,340.6455698200152,None,,,,,,,,,,,,,,103,2023-04-20_14h26.25.157,Main,2022.1.1,59.9982600441946,
negative,neutral,1,j,l,,,,,,,,,7,11,137,3,,,,,,,,,main,2,2,1,neutral,negative,l,l,1,0.664162100001704,340.64999000000535,341.6622722999891,341.6456833999837,None,340.64999000000535,None,340.64999000000535,None,340.64999000000535,None,342.31211912003346,None,342.31211912003346,None,342.31211912003346,None,,,,,,,,,,,,,,103,2023-04-20_14h26.25.157,Main,2022.1.1,59.9982600441946,
negative,positive,2,j,l,,,,,,,,,7,12,138,15,,,,,,,,,main,2,2,2,positive,negative,l,l,1,0.6641152999945916,342.3159506000229,343.32878819998587,343.31229760003043,None,342.3159506000229,None,342.3159506000229,None,342.3159506000229,None,343.9767887199996,None,343.9767887199996,None,343.9767887199996,None,,,,,,,,,,,,,,103,2023-04-20_14h26.25.157,Main,2022.1.1,59.9982600441946,
neutral,positive,1,k,k,,,,,,,,,7,13,139,4,,,,,,,,,main,1,1,1,positive,neutral,k,k,1,0.5468839000095613,343.9814323000028,344.99541159998626,344.97880400001304,None,343.9814323000028,None,343.9814323000028,None,343.9814323000028,None,345.52620891999686,None,345.52620891999686,None,345.52620891999686,None,,,,,,,,,,,,,,103,2023-04-20_14h26.25.157,Main,2022.1.1,59.9982600441946,
positive,positive,1,l,j,,,,,,,,,7,14,140,2,,,,,,,,,main,2,2,1,positive,positive,j,j,1,0.748364600003697,345.5263708999846,346.5262594000087,346.5262594000087,None,345.5263708999846,None,345.5263708999846,None,345.5263708999846,None,347.2762562200078,None,347.2762562200078,None,347.2762562200078,None,,,,,,,,,,,,,,103,2023-04-20_14h26.25.157,Main,2022.1.1,59.9982600441946,
positive,neutral,1,l,j,,,,,,,,,7,15,141,8,,,,,,,,,main,2,2,1,neutral,positive,j,j,1,0.5650049999821931,347.2767860000022,348.2762387000257,348.2762387000257,None,347.2767860000022,None,347.2767860000022,None,347.2767860000022,None,348.8428675199975,None,348.8428675199975,None,348.8428675199975,None,,,,,,,,,,,,,,103,2023-04-20_14h26.25.157,Main,2022.1.1,59.9982600441946,
negative,neutral,2,j,l,,,,,,,,,7,16,142,12,,,,,,,,,main,2,2,2,neutral,negative,l,l,1,0.7509551999974065,348.84323759999825,349.84286720003,349.84286720003,None,348.84323759999825,None,348.84323759999825,None,348.84323759999825,None,350.59542061999673,None,350.59542061999673,None,350.59542061999673,None,,,,,,,,,,,,,,103,2023-04-20_14h26.25.157,Main,2022.1.1,59.9982600441946,
negative,negative,2,j,l,,,,,,,,,7,17,143,9,,,,,,,,,main,1,1,2,negative,negative,l,l,1,0.6625219999696128,350.59943980001844,351.6120318000321,351.5954868000117,None,350.59943980001844,None,350.59943980001844,None,350.59943980001844,None,352.2595313200145,None,352.2595313200145,None,352.2595313200145,None,,,,,,,,,,,,,,103,2023-04-20_14h26.25.157,Main,2022.1.1,59.9982600441946,
neutral,neutral,2,k,k,,,,,,,,,8,0,144,10,,,,,,,,,main,2,2,2,neutral,neutral,k,k,1,0.5319523999933153,352.26585510000587,353.2787152000237,353.26200839999365,None,352.26585510000587,None,352.26585510000587,None,352.26585510000587,None,353.7931554199895,None,353.7931554199895,None,353.7931554199895,None,,,,,,,,,,,,,,103,2023-04-20_14h26.25.157,Main,2022.1.1,59.9982600441946,
neutral,negative,1,k,k,,,,,,,,,8,1,145,7,,,,,,,,,main,2,2,1,negative,neutral,k,k,1,0.5841648000059649,353.7977373999893,354.81190010003047,354.79530080000404,None,353.7977373999893,None,353.7977373999893,None,353.7977373999893,None,355.3785633200314,None,355.3785633200314,None,355.3785633200314,None,,,,,,,,,,,,,,103,2023-04-20_14h26.25.157,Main,2022.1.1,59.9982600441946,
positive,neutral,2,l,j,,,,,,,,,8,2,146,17,,,,,,,,,main,2,2,2,neutral,positive,j,j,1,0.6311224999953993,355.3824995000032,356.3952968000085,356.37868080002954,None,355.3824995000032,None,355.3824995000032,None,355.3824995000032,None,357.01177802000893,None,357.01177802000893,None,357.01177802000893,None,,,,,,,,,,,,,,103,2023-04-20_14h26.25.157,Main,2022.1.1,59.9982600441946,
positive,positive,2,l,j,,,,,,,,,8,3,147,11,,,,,,,,,main,2,2,2,positive,positive,j,j,1,0.5294970000395551,357.01628390001133,358.02601640002104,358.0083274000208,None,357.01628390001133,None,357.01628390001133,None,357.01628390001133,None,358.54267431999324,None,358.54267431999324,None,358.54267431999324,None,,,,,,,,,,,,,,103,2023-04-20_14h26.25.157,Main,2022.1.1,59.9982600441946,
positive,negative,2,l,j,,,,,,,,,8,4,148,14,,,,,,,,,main,1,1,2,negative,positive,j,j,1,0.5815508000086993,358.5430137999938,359.5426498000161,359.5426498000161,None,358.5430137999938,None,358.5430137999938,None,358.5430137999938,None,360.12600491999183,None,360.12600491999183,None,360.12600491999183,None,,,,,,,,,,,,,,103,2023-04-20_14h26.25.157,Main,2022.1.1,59.9982600441946,
neutral,negative,2,k,k,,,,,,,,,8,5,149,16,,,,,,,,,main,2,2,2,negative,neutral,k,k,1,0.48354819999076426,360.130080300034,361.14523750002263,361.12850950000575,None,360.130080300034,None,360.130080300034,None,360.130080300034,None,361.6117313200375,None,361.6117313200375,None,361.6117313200375,None,,,,,,,,,,,,,,103,2023-04-20_14h26.25.157,Main,2022.1.1,59.9982600441946,
positive,neutral,1,l,j,,,,,,,,,8,6,150,8,,,,,,,,,main,2,2,1,neutral,positive,j,j,1,0.6460746999946423,361.61469920002855,362.62841140001547,362.61180690000765,None,361.61469920002855,None,361.61469920002855,None,361.61469920002855,None,363.2592796200188,None,363.2592796200188,None,363.2592796200188,None,,,,,,,,,,,,,,103,2023-04-20_14h26.25.157,Main,2022.1.1,59.9982600441946,
negative,neutral,2,j,l,,,,,,,,,8,7,151,12,,,,,,,,,main,1,1,2,neutral,negative,l,l,1,0.9817320999572985,363.2653891000082,364.27846679999493,364.2618743000203,None,363.2653891000082,None,363.2653891000082,None,363.2653891000082,None,365.24256521998905,None,365.24256521998905,None,365.24256521998905,None,,,,,,,,,,,,,,103,2023-04-20_14h26.25.157,Main,2022.1.1,59.9982600441946,
negative,negative,2,j,l,,,,,,,,,8,8,152,9,,,,,,,,,main,1,1,2,negative,negative,l,l,1,0.5509065000223927,365.24617490003584,366.2616279000067,366.2451253000181,None,365.24617490003584,None,365.24617490003584,None,365.24617490003584,None,366.7950899199932,None,366.7950899199932,None,366.7950899199932,None,,,,,,,,,,,,,,103,2023-04-20_14h26.25.157,Main,2022.1.1,59.9982600441946,
negative,positive,2,j,l,,,,,,,,,8,9,153,15,,,,,,,,,main,2,2,2,positive,negative,l,l,1,0.5959859000286087,366.7984568999964,367.81160080002155,367.79507619998185,None,366.7984568999964,None,366.7984568999964,None,366.7984568999964,None,368.39240161998896,None,368.39240161998896,None,368.39240161998896,None,,,,,,,,,,,,,,103,2023-04-20_14h26.25.157,Main,2022.1.1,59.9982600441946,
negative,negative,1,j,l,,,,,,,,,8,10,154,0,,,,,,,,,main,2,2,1,negative,negative,l,l,1,0.5817079999833368,368.3928482999909,369.3924470000202,369.3924470000202,None,368.3928482999909,None,368.3928482999909,None,368.3928482999909,None,369.97576191998087,None,369.97576191998087,None,369.97576191998087,None,,,,,,,,,,,,,,103,2023-04-20_14h26.25.157,Main,2022.1.1,59.9982600441946,
neutral,neutral,1,k,k,,,,,,,,,8,11,155,1,,,,,,,,,main,1,1,1,neutral,neutral,k,k,1,0.5173148000030778,369.9761962000048,370.97829450003337,370.97829450003337,None,369.9761962000048,None,369.9761962000048,None,369.9761962000048,None,371.4949236200191,None,371.4949236200191,None,371.4949236200191,None,,,,,,,,,,,,,,103,2023-04-20_14h26.25.157,Main,2022.1.1,59.9982600441946,
positive,negative,1,l,j,,,,,,,,,8,12,156,5,,,,,,,,,main,2,2,1,negative,positive,j,j,1,0.4979995000176132,371.4983158999821,372.5115347999963,372.49495630001184,None,371.4983158999821,None,371.4983158999821,None,371.4983158999821,None,372.99485262000235,None,372.99485262000235,None,372.99485262000235,None,,,,,,,,,,,,,,103,2023-04-20_14h26.25.157,Main,2022.1.1,59.9982600441946,
neutral,positive,2,k,k,,,,,,,,,8,13,157,13,,,,,,,,,main,1,1,2,positive,neutral,k,k,1,0.6484134000493214,372.99766560003627,374.0115990000195,373.9949995999923,None,372.99766560003627,None,372.99766560003627,None,372.99766560003627,None,374.64475842000684,None,374.64475842000684,None,374.64475842000684,None,,,,,,,,,,,,,,103,2023-04-20_14h26.25.157,Main,2022.1.1,59.9982600441946,
positive,positive,1,l,j,,,,,,,,,8,14,158,2,,,,,,,,,main,2,2,1,positive,positive,j,j,1,0.5292216999805532,374.64812690002145,375.6614700999926,375.64493840001523,None,374.64812690002145,None,374.64812690002145,None,374.64812690002145,None,376.1756879200111,None,376.1756879200111,None,376.1756879200111,None,,,,,,,,,,,,,,103,2023-04-20_14h26.25.157,Main,2022.1.1,59.9982600441946,
negative,positive,1,j,l,,,,,,,,,8,15,159,6,,,,,,,,,main,2,2,1,positive,negative,l,l,1,0.5844782000058331,376.18195230001584,377.19483430002583,377.17819190002047,None,376.18195230001584,None,376.18195230001584,None,376.18195230001584,None,377.76156091998564,None,377.76156091998564,None,377.76156091998564,None,,,,,,,,,,,,,,103,2023-04-20_14h26.25.157,Main,2022.1.1,59.9982600441946,
negative,neutral,1,j,l,,,,,,,,,8,16,160,3,,,,,,,,,main,2,2,1,neutral,negative,l,l,1,0.5455484999692999,377.76519360003294,378.77558379998663,378.75890140002593,None,377.76519360003294,None,377.76519360003294,None,377.76519360003294,None,379.308903319994,None,379.308903319994,None,379.308903319994,None,,,,,,,,,,,,,,103,2023-04-20_14h26.25.157,Main,2022.1.1,59.9982600441946,
neutral,positive,1,k,k,,,,,,,,,8,17,161,4,,,,,,,,,main,2,2,1,positive,neutral,k,k,1,0.5149710000259802,379.30910280003445,380.3088996000006,380.3088996000006,None,379.30910280003445,None,379.30910280003445,None,379.30910280003445,None,380.8255344200297,None,380.8255344200297,None,380.8255344200297,None,,,,,,,,,,,,,,103,2023-04-20_14h26.25.157,Main,2022.1.1,59.9982600441946,
neutral,neutral,2,k,k,,,,,,,,,9,0,162,10,,,,,,,,,main,2,2,2,neutral,neutral,k,k,1,0.5648689999943599,380.8262940000277,381.8255314999842,381.8255314999842,None,380.8262940000277,None,380.8262940000277,None,380.8262940000277,None,382.3922312200302,None,382.3922312200302,None,382.3922312200302,None,,,,,,,,,,,,,,103,2023-04-20_14h26.25.157,Main,2022.1.1,59.9982600441946,
positive,neutral,2,l,j,,,,,,,,,9,1,163,17,,,,,,,,,main,1,1,2,neutral,positive,j,j,1,0.6503495000069961,382.3937187999836,383.40888790000463,383.3922070999979,None,382.3937187999836,None,382.3937187999836,None,382.3937187999836,None,384.04466542002046,None,384.04466542002046,None,384.04466542002046,None,,,,,,,,,,,,,,103,2023-04-20_14h26.25.157,Main,2022.1.1,59.9982600441946,
neutral,negative,1,k,k,,,,,,,,,9,2,164,7,,,,,,,,,main,1,1,1,negative,neutral,k,k,1,0.47954670002218336,384.04789970000274,385.061265300028,385.0447001000284,None,384.04789970000274,None,384.04789970000274,None,384.04789970000274,None,385.5258479199838,None,385.5258479199838,None,385.5258479199838,None,,,,,,,,,,,,,,103,2023-04-20_14h26.25.157,Main,2022.1.1,59.9982600441946,
negative,positive,1,j,l,,,,,,,,,9,3,165,6,,,,,,,,,main,2,2,1,positive,negative,l,l,1,0.5482342999894172,385.5297262999811,386.5445267999894,386.52799299999606,None,385.5297262999811,None,385.5297262999811,None,385.5297262999811,None,387.07581221999135,None,387.07581221999135,None,387.07581221999135,None,,,,,,,,,,,,,,103,2023-04-20_14h26.25.157,Main,2022.1.1,59.9982600441946,
positive,neutral,1,l,j,,,,,,,,,9,4,166,8,,,,,,,,,main,2,2,1,neutral,positive,j,j,1,0.6663158999872394,387.0803851999808,388.09455550002167,388.0779587000143,None,387.0803851999808,None,387.0803851999808,None,387.0803851999808,None,388.7445529199904,None,388.7445529199904,None,388.7445529199904,None,,,,,,,,,,,,,,103,2023-04-20_14h26.25.157,Main,2022.1.1,59.9982600441946,
neutral,neutral,1,k,k,,,,,,,,,9,5,167,1,,,,,,,,,main,1,1,1,neutral,neutral,k,k,1,0.5147263000253588,388.7475502000307,389.76130670000566,389.7445927000372,None,388.7475502000307,None,388.7475502000307,None,388.7475502000307,None,390.2612386200344,None,390.2612386200344,None,390.2612386200344,None,,,,,,,,,,,,,,103,2023-04-20_14h26.25.157,Main,2022.1.1,59.9982600441946,
negative,neutral,1,j,l,,,,,,,,,9,6,168,3,,,,,,,,,main,1,1,1,neutral,negative,l,l,1,0.6157216000137851,390.2651917000185,391.2777698999853,391.25905300001614,None,390.2651917000185,None,390.2651917000185,None,390.2651917000185,None,391.8783767200075,None,391.8783767200075,None,391.8783767200075,None,,,,,,,,,,,,,,103,2023-04-20_14h26.25.157,Main,2022.1.1,59.9982600441946,
positive,negative,2,l,j,,,,,,,,,9,7,169,14,,,,,,,,,main,1,1,2,negative,positive,j,j,1,0.5451811999664642,391.87837859999854,392.89196249999804,392.87530100002186,None,391.87837859999854,None,391.87837859999854,None,391.87837859999854,None,393.4252610200201,None,393.4252610200201,None,393.4252610200201,None,,,,,,,,,,,,,,103,2023-04-20_14h26.25.157,Main,2022.1.1,59.9982600441946,
positive,positive,2,l,j,,,,,,,,,9,8,170,11,,,,,,,,,main,1,1,2,positive,positive,j,j,1,0.5983926000189967,393.4252212999854,394.42528460000176,394.42528460000176,None,393.4252212999854,None,393.4252212999854,None,393.4252212999854,None,395.0252820199821,None,395.0252820199821,None,395.0252820199821,None,,,,,,,,,,,,,,103,2023-04-20_14h26.25.157,Main,2022.1.1,59.9982600441946,
positive,negative,1,l,j,,,,,,,,,9,9,171,5,,,,,,,,,main,2,2,1,negative,positive,j,j,1,0.6151964999735355,395.0259102000273,396.02528619999066,396.02528619999066,None,395.0259102000273,None,395.0259102000273,None,395.0259102000273,None,396.64196152001387,None,396.64196152001387,None,396.64196152001387,None,,,,,,,,,,,,,,103,2023-04-20_14h26.25.157,Main,2022.1.1,59.9982600441946,
neutral,negative,2,k,k,,,,,,,,,9,10,172,16,,,,,,,,,main,2,2,2,negative,neutral,k,k,1,0.5007540000369772,396.6482829999877,397.6610713999835,397.64449929998955,None,396.6482829999877,None,396.6482829999877,None,396.6482829999877,None,398.1444693200174,None,398.1444693200174,None,398.1444693200174,None,,,,,,,,,,,,,,103,2023-04-20_14h26.25.157,Main,2022.1.1,59.9982600441946,
positive,positive,1,l,j,,,,,,,,,9,11,173,2,,,,,,,,,main,2,2,1,positive,positive,j,j,1,0.5630459999665618,398.1485677000019,399.161123900034,399.1443682999816,None,398.1485677000019,None,398.1485677000019,None,398.1485677000019,None,399.70886821998283,None,399.70886821998283,None,399.70886821998283,None,,,,,,,,,,,,,,103,2023-04-20_14h26.25.157,Main,2022.1.1,59.9982600441946,
negative,negative,1,j,l,,,,,,,,,9,12,174,0,,,,,,,,,main,2,2,1,negative,negative,l,l,1,0.5816631999914534,399.7127642999985,400.72766480001155,400.7110505999881,None,399.7127642999985,None,399.7127642999985,None,399.7127642999985,None,401.29218732001027,None,401.29218732001027,None,401.29218732001027,None,,,,,,,,,,,,,,103,2023-04-20_14h26.25.157,Main,2022.1.1,59.9982600441946,
negative,positive,2,j,l,,,,,,,,,9,13,175,15,,,,,,,,,main,2,2,2,positive,negative,l,l,1,0.9982032999978401,401.29604590003146,402.3109304999816,402.2942824999918,None,401.29604590003146,None,401.29604590003146,None,401.29604590003146,None,403.29209142003674,None,403.29209142003674,None,403.29209142003674,None,,,,,,,,,,,,,,103,2023-04-20_14h26.25.157,Main,2022.1.1,59.9982600441946,
neutral,positive,2,k,k,,,,,,,,,9,14,176,13,,,,,,,,,main,1,1,2,positive,neutral,k,k,1,0.5310445000068285,403.29820379999,404.31093839998357,404.2943532000063,None,403.29820379999,None,403.29820379999,None,403.29820379999,None,404.8250066200271,None,404.8250066200271,None,404.8250066200271,None,,,,,,,,,,,,,,103,2023-04-20_14h26.25.157,Main,2022.1.1,59.9982600441946,
negative,neutral,2,j,l,,,,,,,,,9,15,177,12,,,,,,,,,main,2,2,2,neutral,negative,l,l,1,0.5480005999561399,404.8417123000254,405.8416935999994,405.82502280001063,None,404.8417123000254,None,404.8417123000254,None,404.8417123000254,None,406.3750704200356,None,406.3750704200356,None,406.3750704200356,None,,,,,,,,,,,,,,103,2023-04-20_14h26.25.157,Main,2022.1.1,59.9982600441946,
neutral,positive,1,k,k,,,,,,,,,9,16,178,4,,,,,,,,,main,2,2,1,positive,neutral,k,k,1,0.5486229999805801,406.3788798000314,407.39427470002556,407.37765390001005,None,406.3788798000314,None,406.3788798000314,None,406.3788798000314,None,407.9253332199878,None,407.9253332199878,None,407.9253332199878,None,,,,,,,,,,,,,,103,2023-04-20_14h26.25.157,Main,2022.1.1,59.9982600441946,
negative,negative,2,j,l,,,,,,,,,9,17,179,9,,,,,,,,,main,2,2,2,negative,negative,l,l,1,0.4504787999903783,407.9291408000281,408.9440504999948,408.9275414000149,None,407.9291408000281,None,407.9291408000281,None,407.9291408000281,None,409.37749252002686,None,409.37749252002686,None,409.37749252002686,None,,,,,,,,,,,,,,103,2023-04-20_14h26.25.157,Main,2022.1.1,59.9982600441946,
negative,negative,2,j,l,,,,,,,,,10,0,180,9,,,,,,,,,main,2,2,2,negative,negative,l,l,1,0.5004173000343144,409.38076820003334,410.39402300002985,410.3775009000092,None,409.38076820003334,None,409.38076820003334,None,409.38076820003334,None,410.8795345200342,None,410.8795345200342,None,410.8795345200342,None,,,,,,,,,,,,,,103,2023-04-20_14h26.25.157,Main,2022.1.1,59.9982600441946,
neutral,negative,2,k,k,,,,,,,,,10,1,181,16,,,,,,,,,main,2,2,2,negative,neutral,k,k,1,0.5295506000402384,410.882826999994,411.89399449998746,411.8774762999965,None,410.882826999994,None,410.882826999994,None,410.882826999994,None,412.4107524200226,None,412.4107524200226,None,412.4107524200226,None,,,,,,,,,,,,,,103,2023-04-20_14h26.25.157,Main,2022.1.1,59.9982600441946,
positive,positive,1,l,j,,,,,,,,,10,2,182,2,,,,,,,,,main,1,1,1,positive,positive,j,j,1,0.4791976000415161,412.41376070003025,413.42740230000345,413.4107451000018,None,412.41376070003025,None,412.41376070003025,None,412.41376070003025,None,413.8918585199863,None,413.8918585199863,None,413.8918585199863,None,,,,,,,,,,,,,,103,2023-04-20_14h26.25.157,Main,2022.1.1,59.9982600441946,
neutral,neutral,1,k,k,,,,,,,,,10,3,183,1,,,,,,,,,main,2,2,1,neutral,neutral,k,k,1,0.6009046999970451,413.89849560003495,414.9104596999823,414.89384520001477,None,413.89849560003495,None,413.89849560003495,None,413.89849560003495,None,415.4938323200331,None,415.4938323200331,None,415.4938323200331,None,,,,,,,,,,,,,,103,2023-04-20_14h26.25.157,Main,2022.1.1,59.9982600441946,
negative,positive,1,j,l,,,,,,,,,10,4,184,6,,,,,,,,,main,2,2,1,positive,negative,l,l,1,0.49634700000751764,415.49722010002006,416.5104544000351,416.49385949998396,None,415.49722010002006,None,415.49722010002006,None,415.49722010002006,None,416.9917108200025,None,416.9917108200025,None,416.9917108200025,None,,,,,,,,,,,,,,103,2023-04-20_14h26.25.157,Main,2022.1.1,59.9982600441946,
positive,positive,2,l,j,,,,,,,,,10,5,185,11,,,,,,,,,main,1,1,2,positive,positive,j,j,1,0.5812237999634817,416.9957051000092,418.0104735000059,417.99391520000063,None,416.9957051000092,None,416.9957051000092,None,416.9957051000092,None,418.57499952003127,None,418.57499952003127,None,418.57499952003127,None,,,,,,,,,,,,,,103,2023-04-20_14h26.25.157,Main,2022.1.1,59.9982600441946,
neutral,positive,1,k,k,,,,,,,,,10,6,186,4,,,,,,,,,main,2,2,1,positive,neutral,k,k,1,0.44868899998255074,418.5780463999836,419.5772503000335,419.5772503000335,None,418.5780463999836,None,418.5780463999836,None,418.5780463999836,None,420.02501022000797,None,420.02501022000797,None,420.02501022000797,None,,,,,,,,,,,,,,103,2023-04-20_14h26.25.157,Main,2022.1.1,59.9982600441946,
neutral,neutral,2,k,k,,,,,,,,,10,7,187,10,,,,,,,,,main,1,1,2,neutral,neutral,k,k,1,0.5494653999921866,420.0281339000212,421.0436771999812,421.027072100027,None,420.0281339000212,None,420.0281339000212,None,420.0281339000212,None,421.5749769200338,None,421.5749769200338,None,421.5749769200338,None,,,,,,,,,,,,,,103,2023-04-20_14h26.25.157,Main,2022.1.1,59.9982600441946,
positive,negative,1,l,j,,,,,,,,,10,8,188,5,,,,,,,,,main,1,1,1,negative,positive,j,j,1,1.047351399960462,421.57919319998473,422.5916215000325,422.57712780003203,None,421.57919319998473,None,421.57919319998473,None,421.57919319998473,None,423.62494871998206,None,423.62494871998206,None,423.62494871998206,None,,,,,,,,,,,,,,103,2023-04-20_14h26.25.157,Main,2022.1.1,59.9982600441946,
positive,neutral,1,l,j,,,,,,,,,10,9,189,8,,,,,,,,,main,1,1,1,neutral,positive,j,j,1,0.564983399992343,423.62879590003286,424.6437147000106,424.624939500005,None,423.62879590003286,None,423.62879590003286,None,423.62879590003286,None,425.1915965200169,None,425.1915965200169,None,425.1915965200169,None,,,,,,,,,,,,,,103,2023-04-20_14h26.25.157,Main,2022.1.1,59.9982600441946,
positive,neutral,2,l,j,,,,,,,,,10,10,190,17,,,,,,,,,main,2,2,2,neutral,positive,j,j,1,0.6658719999832101,425.1950541000115,426.20825540000806,426.1915750000044,None,425.1950541000115,None,425.1950541000115,None,425.1950541000115,None,426.8589668200002,None,426.8589668200002,None,426.8589668200002,None,,,,,,,,,,,,,,103,2023-04-20_14h26.25.157,Main,2022.1.1,59.9982600441946,
negative,neutral,1,j,l,,,,,,,,,10,11,191,3,,,,,,,,,main,1,1,1,neutral,negative,l,l,1,0.716557500010822,426.86449380003614,427.8770033000037,427.86039480002364,None,426.86449380003614,None,426.86449380003614,None,426.86449380003614,None,428.5771399200312,None,428.5771399200312,None,428.5771399200312,None,,,,,,,,,,,,,,103,2023-04-20_14h26.25.157,Main,2022.1.1,59.9982600441946,
negative,positive,2,j,l,,,,,,,,,10,12,192,15,,,,,,,,,main,2,2,2,positive,negative,l,l,1,0.6469411000143737,428.58087930001784,429.5911481999792,429.57455469999695,None,428.58087930001784,None,428.58087930001784,None,428.58087930001784,None,430.224521820026,None,430.224521820026,None,430.224521820026,None,,,,,,,,,,,,,,103,2023-04-20_14h26.25.157,Main,2022.1.1,59.9982600441946,
positive,negative,2,l,j,,,,,,,,,10,13,193,14,,,,,,,,,main,1,1,2,negative,positive,j,j,1,0.6472823999938555,430.24117140000453,431.24112200003583,431.22446360002505,None,430.24117140000453,None,430.24117140000453,None,430.24117140000453,None,431.8745501200319,None,431.8745501200319,None,431.8745501200319,None,,,,,,,,,,,,,,103,2023-04-20_14h26.25.157,Main,2022.1.1,59.9982600441946,
neutral,positive,2,k,k,,,,,,,,,10,14,194,13,,,,,,,,,main,2,2,2,positive,neutral,k,k,1,0.48442849999992177,431.87764429999515,432.8769532000297,432.86035750003066,None,431.87764429999515,None,431.87764429999515,None,431.87764429999515,None,433.3602832200122,None,433.3602832200122,None,433.3602832200122,None,,,,,,,,,,,,,,103,2023-04-20_14h26.25.157,Main,2022.1.1,59.9982600441946,
negative,negative,1,j,l,,,,,,,,,10,15,195,0,,,,,,,,,main,1,1,1,negative,negative,l,l,1,0.5651098000234924,433.36331009998685,434.37479189998703,434.3604034000309,None,433.36331009998685,None,433.36331009998685,None,433.36331009998685,None,434.9270493200165,None,434.9270493200165,None,434.9270493200165,None,,,,,,,,,,,,,,103,2023-04-20_14h26.25.157,Main,2022.1.1,59.9982600441946,
negative,neutral,2,j,l,,,,,,,,,10,16,196,12,,,,,,,,,main,2,2,2,neutral,negative,l,l,1,0.6482486000168137,434.93046740000136,435.9435083999997,435.9270659000031,None,434.93046740000136,None,434.93046740000136,None,434.93046740000136,None,436.5770115199848,None,436.5770115199848,None,436.5770115199848,None,,,,,,,,,,,,,,103,2023-04-20_14h26.25.157,Main,2022.1.1,59.9982600441946,
neutral,negative,1,k,k,,,,,,,,,10,17,197,7,,,,,,,,,main,2,2,1,negative,neutral,k,k,1,0.5483116999967024,436.58124870003667,437.59350620000623,437.5769622999942,None,436.58124870003667,None,436.58124870003667,None,436.58124870003667,None,438.1268389199977,None,438.1268389199977,None,438.1268389199977,None,,,,,,,,,,,,,,103,2023-04-20_14h26.25.157,Main,2022.1.1,59.9982600441946,
negative,positive,2,j,l,,,,,,,,,11,0,198,15,,,,,,,,,main,1,1,2,positive,negative,l,l,1,0.6788927000015974,438.1302728999872,439.1435491000302,439.1268972000107,None,438.1302728999872,None,438.1302728999872,None,438.1302728999872,None,439.8076065200148,None,439.8076065200148,None,439.8076065200148,None,,,,,,,,,,,,,,103,2023-04-20_14h26.25.157,Main,2022.1.1,59.9982600441946,
positive,neutral,2,l,j,,,,,,,,,11,1,199,17,,,,,,,,,main,1,1,2,neutral,positive,j,j,1,0.6644075000076555,439.80820319999475,440.80763579998165,440.80763579998165,None,439.80820319999475,None,439.80820319999475,None,439.80820319999475,None,441.47431771998527,None,441.47431771998527,None,441.47431771998527,None,,,,,,,,,,,,,,103,2023-04-20_14h26.25.157,Main,2022.1.1,59.9982600441946,
positive,negative,1,l,j,,,,,,,,,11,2,200,5,,,,,,,,,main,2,2,1,negative,positive,j,j,1,0.565843699965626,441.47730030003004,442.476808300009,442.4601878999965,None,441.47730030003004,None,441.47730030003004,None,441.47730030003004,None,443.041620820004,None,443.041620820004,None,443.041620820004,None,,,,,,,,,,,,,,103,2023-04-20_14h26.25.157,Main,2022.1.1,59.9982600441946,
neutral,neutral,2,k,k,,,,,,,,,11,3,201,10,,,,,,,,,main,2,2,2,neutral,neutral,k,k,1,0.4671082000131719,443.0480176000274,444.06002490001265,444.04350369999884,None,443.0480176000274,None,443.0480176000274,None,443.0480176000274,None,444.51004322001245,None,444.51004322001245,None,444.51004322001245,None,,,,,,,,,,,,,,103,2023-04-20_14h26.25.157,Main,2022.1.1,59.9982600441946,
neutral,neutral,1,k,k,,,,,,,,,11,4,202,1,,,,,,,,,main,1,1,1,neutral,neutral,k,k,1,0.5315008999896236,444.51339590002317,445.5267219999805,445.5101022000308,None,444.51339590002317,None,444.51339590002317,None,444.51339590002317,None,446.04337801999645,None,446.04337801999645,None,446.04337801999645,None,,,,,,,,,,,,,,103,2023-04-20_14h26.25.157,Main,2022.1.1,59.9982600441946,
positive,negative,2,l,j,,,,,,,,,11,5,203,14,,,,,,,,,main,2,2,2,negative,positive,j,j,1,0.649028499959968,446.046787600033,447.05999720003456,447.04349120002007,None,446.046787600033,None,446.046787600033,None,446.046787600033,None,447.6933528200025,None,447.6933528200025,None,447.6933528200025,None,,,,,,,,,,,,,,103,2023-04-20_14h26.25.157,Main,2022.1.1,59.9982600441946,
neutral,negative,2,k,k,,,,,,,,,11,6,204,16,,,,,,,,,main,1,1,2,negative,neutral,k,k,1,0.5477339000208303,447.6974302000017,448.71004660002654,448.6934096000041,None,447.6974302000017,None,447.6974302000017,None,447.6974302000017,None,449.243273220025,None,449.243273220025,None,449.243273220025,None,,,,,,,,,,,,,,103,2023-04-20_14h26.25.157,Main,2022.1.1,59.9982600441946,
neutral,negative,1,k,k,,,,,,,,,11,7,205,7,,,,,,,,,main,1,1,1,negative,neutral,k,k,1,0.5126153000164777,449.24695860000793,450.25742919999175,450.24077989999205,None,449.24695860000793,None,449.24695860000793,None,449.24695860000793,None,450.7574191199965,None,450.7574191199965,None,450.7574191199965,None,,,,,,,,,,,,,,103,2023-04-20_14h26.25.157,Main,2022.1.1,59.9982600441946,
neutral,positive,1,k,k,,,,,,,,,11,8,206,4,,,,,,,,,main,1,1,1,positive,neutral,k,k,1,0.4817832999979146,450.7573849000037,451.7574653000338,451.7574653000338,None,450.7573849000037,None,450.7573849000037,None,450.7573849000037,None,452.24078932002885,None,452.24078932002885,None,452.24078932002885,None,,,,,,,,,,,,,,103,2023-04-20_14h26.25.157,Main,2022.1.1,59.9982600441946,
negative,neutral,1,j,l,,,,,,,,,11,9,207,3,,,,,,,,,main,2,2,1,neutral,negative,l,l,1,0.6014750999747775,452.2448868000065,453.25987680000253,453.2432864999864,None,452.2448868000065,None,452.2448868000065,None,452.2448868000065,None,453.84320251998724,None,453.84320251998724,None,453.84320251998724,None,,,,,,,,,,,,,,103,2023-04-20_14h26.25.157,Main,2022.1.1,59.9982600441946,
positive,positive,2,l,j,,,,,,,,,11,10,208,11,,,,,,,,,main,2,2,2,positive,positive,j,j,1,0.7474960999679752,453.84786049998365,454.85773689998314,454.84333310002694,None,453.84786049998365,None,453.84786049998365,None,453.84786049998365,None,455.59319962002337,None,455.59319962002337,None,455.59319962002337,None,,,,,,,,,,,,,,103,2023-04-20_14h26.25.157,Main,2022.1.1,59.9982600441946,
neutral,positive,2,k,k,,,,,,,,,11,11,209,13,,,,,,,,,main,2,2,2,positive,neutral,k,k,1,0.5319247999577783,455.59646550001344,456.6098187000025,456.5932724000304,None,455.59646550001344,None,455.59646550001344,None,455.59646550001344,None,457.12645942001836,None,457.12645942001836,None,457.12645942001836,None,,,,,,,,,,,,,,103,2023-04-20_14h26.25.157,Main,2022.1.1,59.9982600441946,
negative,positive,1,j,l,,,,,,,,,11,12,210,6,,,,,,,,,main,2,2,1,positive,negative,l,l,1,0.6313825999968685,457.1301763000083,458.1430939999991,458.12650080001913,None,457.1301763000083,None,457.1301763000083,None,457.1301763000083,None,458.7597476200317,None,458.7597476200317,None,458.7597476200317,None,,,,,,,,,,,,,,103,2023-04-20_14h26.25.157,Main,2022.1.1,59.9982600441946,
negative,negative,1,j,l,,,,,,,,,11,13,211,0,,,,,,,,,main,2,2,1,negative,negative,l,l,1,0.5815780999837443,458.7639561999822,459.7742617999902,459.7598339000251,None,458.7639561999822,None,458.7639561999822,None,458.7639561999822,None,460.3405812199926,None,460.3405812199926,None,460.3405812199926,None,,,,,,,,,,,,,,103,2023-04-20_14h26.25.157,Main,2022.1.1,59.9982600441946,
negative,neutral,2,j,l,,,,,,,,,11,14,212,12,,,,,,,,,main,1,1,2,neutral,negative,l,l,1,0.5786469000158831,460.343581299996,461.3571921000257,461.3405583000276,None,460.343581299996,None,460.343581299996,None,460.343581299996,None,461.9238825200009,None,461.9238825200009,None,461.9238825200009,None,,,,,,,,,,,,,,103,2023-04-20_14h26.25.157,Main,2022.1.1,59.9982600441946,
positive,neutral,1,l,j,,,,,,,,,11,15,213,8,,,,,,,,,main,1,1,1,neutral,positive,j,j,1,0.6983305999892764,461.92486080003437,462.9238793000113,462.9238793000113,None,461.92486080003437,None,461.92486080003437,None,461.92486080003437,None,463.6238519200124,None,463.6238519200124,None,463.6238519200124,None,,,,,,,,,,,,,,103,2023-04-20_14h26.25.157,Main,2022.1.1,59.9982600441946,
negative,negative,2,j,l,,,,,,,,,11,16,214,9,,,,,,,,,main,2,2,2,negative,negative,l,l,1,0.6152852000086568,463.6239765000064,464.62386490002973,464.62386490002973,None,463.6239765000064,None,463.6239765000064,None,463.6239765000064,None,465.24052511999616,None,465.24052511999616,None,465.24052511999616,None,,,,,,,,,,,,,,103,2023-04-20_14h26.25.157,Main,2022.1.1,59.9982600441946,
positive,positive,1,l,j,,,,,,,,,11,17,215,2,,,,,,,,,main,2,2,1,positive,positive,j,j,1,0.6174279999686405,465.2473151999875,466.2596357000293,466.2430339999846,None,465.2473151999875,None,465.2473151999875,None,465.2473151999875,None,466.8595810200204,None,466.8595810200204,None,466.8595810200204,None,,,,,,,,,,,,,,103,2023-04-20_14h26.25.157,Main,2022.1.1,59.9982600441946,
negative,neutral,1,j,l,,,,,,,,,12,0,216,3,,,,,,,,,main,1,1,1,neutral,negative,l,l,1,0.5985027000424452,466.8638802000205,467.87626270001056,467.8596505000023,None,466.8638802000205,None,466.8638802000205,None,466.8638802000205,None,468.45955952000804,None,468.45955952000804,None,468.45955952000804,None,,,,,,,,,,,,,,103,2023-04-20_14h26.25.157,Main,2022.1.1,59.9982600441946,
neutral,negative,2,k,k,,,,,,,,,12,1,217,16,,,,,,,,,main,1,1,2,negative,neutral,k,k,1,0.529496899980586,468.46296710002935,469.4762153000338,469.45954310003435,None,468.46296710002935,None,468.46296710002935,None,468.46296710002935,None,469.9907301199855,None,469.9907301199855,None,469.9907301199855,None,,,,,,,,,,,,,,103,2023-04-20_14h26.25.157,Main,2022.1.1,59.9982600441946,
negative,positive,2,j,l,,,,,,,,,12,2,218,15,,,,,,,,,main,1,1,2,positive,negative,l,l,1,0.5317997999954969,469.994486599986,471.00955100002466,470.99286140000913,None,469.994486599986,None,469.994486599986,None,469.994486599986,None,471.52406871999847,None,471.52406871999847,None,471.52406871999847,None,,,,,,,,,,,,,,103,2023-04-20_14h26.25.157,Main,2022.1.1,59.9982600441946,
positive,negative,2,l,j,,,,,,,,,12,3,219,14,,,,,,,,,main,2,2,2,negative,positive,j,j,1,0.6142816999927163,471.528453100007,472.5428389000008,472.5262004000251,None,471.528453100007,None,471.528453100007,None,471.528453100007,None,473.14024802000495,None,473.14024802000495,None,473.14024802000495,None,,,,,,,,,,,,,,103,2023-04-20_14h26.25.157,Main,2022.1.1,59.9982600441946,
negative,negative,2,j,l,,,,,,,,,12,4,220,9,,,,,,,,,main,2,2,2,negative,negative,l,l,1,0.5818188000121154,473.14025210001273,474.140289700008,474.140289700008,None,473.14025210001273,None,473.14025210001273,None,473.14025210001273,None,474.7236563200131,None,474.7236563200131,None,474.7236563200131,None,,,,,,,,,,,,,,103,2023-04-20_14h26.25.157,Main,2022.1.1,59.9982600441946,
positive,positive,1,l,j,,,,,,,,,12,5,221,2,,,,,,,,,main,1,1,1,positive,positive,j,j,1,0.5323867999832146,474.72775299998466,475.7427539000055,475.70959019998554,None,474.72775299998466,None,474.72775299998466,None,474.72775299998466,None,476.2570980199962,None,476.2570980199962,None,476.2570980199962,None,,,,,,,,,,,,,,103,2023-04-20_14h26.25.157,Main,2022.1.1,59.9982600441946,
positive,positive,2,l,j,,,,,,,,,12,6,222,11,,,,,,,,,main,2,2,2,positive,positive,j,j,1,0.5671216999762692,476.26394440000877,477.27617239998654,477.25946169998497,None,476.26394440000877,None,476.26394440000877,None,476.26394440000877,None,477.8261192200007,None,477.8261192200007,None,477.8261192200007,None,,,,,,,,,,,,,,103,2023-04-20_14h26.25.157,Main,2022.1.1,59.9982600441946,
neutral,positive,1,k,k,,,,,,,,,12,7,223,4,,,,,,,,,main,1,1,1,positive,neutral,k,k,1,0.6301445999997668,477.82932770001935,478.84267199999886,478.8261556000216,None,477.82932770001935,None,477.82932770001935,None,477.82932770001935,None,479.4572303200257,None,479.4572303200257,None,479.4572303200257,None,,,,,,,,,,,,,,103,2023-04-20_14h26.25.157,Main,2022.1.1,59.9982600441946,
