target,distractor,set,ans1,ans2,rep_loop2.thisRepN,rep_loop2.thisTrialN,rep_loop2.thisN,rep_loop2.thisIndex,flanker_prac_loop.thisRepN,flanker_prac_loop.thisTrialN,flanker_prac_loop.thisN,flanker_prac_loop.thisIndex,flanker_main_loop.thisRepN,flanker_main_loop.thisTrialN,flanker_main_loop.thisN,flanker_main_loop.thisIndex,fl_inst_resp.keys,fl_inst_resp.rt,sound_1.started,sound_1.stopped,image_4.started,image_4.stopped,back_2.started,back_2.stopped,main_prac,fl_cold,fl_colt,fl_set,fl_dcond,fl_tcond,fl_ans,fl_res,fl_corr,fl_rt,fix_fl.started,fix_fl.stopped,targ.started,targ.stopped,j_button.started,j_button.stopped,k_button.started,k_button.stopped,l_button.started,l_button.stopped,j_button2.started,j_button2.stopped,k_button2.started,k_button2.stopped,l_button2.started,l_button2.stopped,mainback.started,mainback.stopped,key_resp.keys,mouse_6.x,mouse_6.y,mouse_6.leftButton,mouse_6.midButton,mouse_6.rightButton,mouse_6.started,mouse_6.stopped,text_2.started,text_2.stopped,id*,date,expName,psychopyVersion,frameRate,
,,,,,0,0,0,0,,,,,,,,,space,53.638715999986744,29.178934569991544,None,82.84442049998324,None,,,,,,,,,,,,,,,,,,,,,,,,,,,,,,,,,,,,,,,,,104,2023-04-18_15h16.42.320,Main,2022.1.1,59.98321669037557,
positive,negative,2,l,j,,,,,0,0,0,14,,,,,,,,,,,86.1612516999885,None,prac,1,1,2,negative,positive,l,l,1,0.9872699000115972,88.1746293999895,89.17533050000202,89.15864929999225,None,88.1746293999895,None,88.1746293999895,None,88.1746293999895,None,90.15859706999326,None,90.15859706999326,None,90.15859706999326,None,,,,,,,,,,,,,104,2023-04-18_15h16.42.320,Main,2022.1.1,59.98321669037557,
positive,positive,2,l,j,,,,,0,1,1,11,,,,,,,,,,,,,prac,1,1,2,positive,positive,l,l,1,0.6813581000023987,90.1598097999813,91.1753100999922,91.15866379998624,None,90.1598097999813,None,90.1598097999813,None,90.1598097999813,None,91.84195926997636,None,91.84195926997636,None,91.84195926997636,None,,,,,,,,,,,,,104,2023-04-18_15h16.42.320,Main,2022.1.1,59.98321669037557,
neutral,negative,2,k,k,,,,,0,2,2,16,,,,,,,,,,,,,prac,2,2,2,negative,neutral,k,k,1,0.5818064000050072,91.84899079997558,92.86112069999217,92.84447009998257,None,91.84899079997558,None,91.84899079997558,None,91.84899079997558,None,93.42525746999017,None,93.42525746999017,None,93.42525746999017,None,,,,,,,,,,,,,104,2023-04-18_15h16.42.320,Main,2022.1.1,59.98321669037557,
negative,negative,2,j,l,,,,,0,3,3,9,,,,,,,,,,,,,prac,1,1,2,negative,negative,j,j,1,0.8823440999840386,93.43143810000038,94.44444619998103,94.42782349998015,None,93.43143810000038,None,93.43143810000038,None,93.43143810000038,None,95.3088812699978,None,95.3088812699978,None,95.3088812699978,None,,,,,,,,,,,,,104,2023-04-18_15h16.42.320,Main,2022.1.1,59.98321669037557,
positive,negative,1,l,j,,,,,0,4,4,5,,,,,,,,,,,,,prac,1,1,1,negative,positive,l,l,1,0.6175033999898005,95.31267109999317,96.32755829999223,96.3110130999994,None,95.31267109999317,None,95.31267109999317,None,95.31267109999317,None,96.92763736998022,None,96.92763736998022,None,96.92763736998022,None,,,,,,,,,,,,,104,2023-04-18_15h16.42.320,Main,2022.1.1,59.98321669037557,
neutral,neutral,1,k,k,,,,,0,5,5,1,,,,,,,,,,,,,prac,2,2,1,neutral,neutral,k,k,1,0.5476009000267368,96.93055979997735,97.94423860000097,97.9277578999754,None,96.93055979997735,None,96.93055979997735,None,96.93055979997735,None,98.47558746998838,None,98.47558746998838,None,98.47558746998838,None,,,,,,,,,,,,,104,2023-04-18_15h16.42.320,Main,2022.1.1,59.98321669037557,
positive,neutral,2,l,j,,,,,0,6,6,17,,,,,,,,,,,,,prac,2,2,2,neutral,positive,l,l,1,0.6138025000109337,98.48022109997692,99.49179999998887,99.47513079998316,None,98.48022109997692,None,98.48022109997692,None,98.48022109997692,None,100.09172076999384,None,100.09172076999384,None,100.09172076999384,None,,,,,,,,,,,,,104,2023-04-18_15h16.42.320,Main,2022.1.1,59.98321669037557,
positive,neutral,1,l,j,,,,,0,7,7,8,,,,,,,,,,,,,prac,2,2,1,neutral,positive,l,l,1,0.7844667000172194,100.09172719999333,101.09179859998403,101.09179859998403,None,100.09172719999333,None,100.09172719999333,None,100.09172719999333,None,101.87750456999929,None,101.87750456999929,None,101.87750456999929,None,,,,,,,,,,,,,104,2023-04-18_15h16.42.320,Main,2022.1.1,59.98321669037557,
neutral,neutral,2,k,k,,,,,0,8,8,10,,,,,,,,,,,,,prac,2,2,2,neutral,neutral,k,k,1,0.6322279000014532,101.88110420000157,102.89206159999594,102.87756490000174,None,101.88110420000157,None,101.88110420000157,None,101.88110420000157,None,103.5108484700002,None,103.5108484700002,None,103.5108484700002,None,,,,,,,,,,,,,104,2023-04-18_15h16.42.320,Main,2022.1.1,59.98321669037557,
negative,positive,1,j,l,,,,,0,9,9,6,,,,,,,,,,,,,prac,1,1,1,positive,negative,j,j,1,0.5984653999912553,103.51446509998641,104.52756449999288,104.51084559998708,None,103.51446509998641,None,103.51446509998641,None,103.51446509998641,None,105.11077936997462,None,105.11077936997462,None,105.11077936997462,None,,,,,,,,,,,,,104,2023-04-18_15h16.42.320,Main,2022.1.1,59.98321669037557,
neutral,positive,2,k,k,,,,,0,10,10,13,,,,,,,,,,,,,prac,2,2,2,positive,neutral,k,k,1,0.6151468000025488,105.11498879999272,106.12750209998921,106.11087009997573,None,105.11498879999272,None,105.11498879999272,None,105.11498879999272,None,106.72767096999159,None,106.72767096999159,None,106.72767096999159,None,,,,,,,,,,,,,104,2023-04-18_15h16.42.320,Main,2022.1.1,59.98321669037557,
neutral,negative,1,k,k,,,,,0,11,11,7,,,,,,,,,,,,,prac,1,1,1,negative,neutral,k,k,1,0.6459191000030842,106.7314355999988,107.74411439997493,107.7275189999782,None,106.7314355999988,None,106.7314355999988,None,106.7314355999988,None,108.37496006997826,None,108.37496006997826,None,108.37496006997826,None,,,,,,,,,,,,,104,2023-04-18_15h16.42.320,Main,2022.1.1,59.98321669037557,
negative,neutral,2,j,l,,,,,0,12,12,12,,,,,,,,,,,,,prac,1,1,2,neutral,negative,j,j,1,0.698153800010914,108.37892989997636,109.3915695999749,109.37487869997858,None,108.37892989997636,None,108.37892989997636,None,108.37892989997636,None,110.07482436997525,None,110.07482436997525,None,110.07482436997525,None,,,,,,,,,,,,,104,2023-04-18_15h16.42.320,Main,2022.1.1,59.98321669037557,
negative,neutral,1,j,l,,,,,0,13,13,3,,,,,,,,,,,,,prac,2,2,1,neutral,negative,j,j,1,0.5821774999785703,110.07487369998125,111.07491480000317,111.07491480000317,None,110.07487369998125,None,110.07487369998125,None,110.07487369998125,None,111.65823686998628,None,111.65823686998628,None,111.65823686998628,None,,,,,,,,,,,,,104,2023-04-18_15h16.42.320,Main,2022.1.1,59.98321669037557,
negative,negative,1,j,l,,,,,0,14,14,0,,,,,,,,,,,,,prac,1,1,1,negative,negative,j,j,1,0.6348064999911003,111.66168029999244,112.67728740000166,112.66069799999241,None,111.66168029999244,None,111.66168029999244,None,111.66168029999244,None,113.29446067000099,None,113.29446067000099,None,113.29446067000099,None,,,,,,,,,,,,,104,2023-04-18_15h16.42.320,Main,2022.1.1,59.98321669037557,
neutral,positive,1,k,k,,,,,0,15,15,4,,,,,,,,,,,,,prac,1,1,1,positive,neutral,k,k,1,1.1317387000017334,113.29891519999364,114.31061169999884,114.29399779997766,None,113.29891519999364,None,113.29891519999364,None,113.29891519999364,None,115.42745356997766,None,115.42745356997766,None,115.42745356997766,None,,,,,,,,,,,,,104,2023-04-18_15h16.42.320,Main,2022.1.1,59.98321669037557,
positive,positive,1,l,j,,,,,0,16,16,2,,,,,,,,,,,,,prac,2,2,1,positive,positive,l,l,1,0.6789012999797706,115.43184019997716,116.44393379997928,116.42733340000268,None,115.43184019997716,None,115.43184019997716,None,115.43184019997716,None,117.10845206997764,None,117.10845206997764,None,117.10845206997764,None,,,,,,,,,,,,,104,2023-04-18_15h16.42.320,Main,2022.1.1,59.98321669037557,
negative,positive,2,j,l,,,,,0,17,17,15,,,,,,,,,,,,,prac,2,2,2,positive,negative,j,j,1,0.8148856000043452,117.1145145999908,118.12732299999334,118.11064149998128,None,117.1145145999908,None,117.1145145999908,None,117.1145145999908,None,118.92475656998867,None,118.92475656998867,None,118.92475656998867,None,,,,,,,,,,,,,104,2023-04-18_15h16.42.320,Main,2022.1.1,59.98321669037557,
neutral,negative,1,k,k,,,,,1,0,18,7,,,,,,,,,,,,,prac,1,1,1,negative,neutral,k,k,1,0.548526500002481,118.93091609998373,119.9413324999914,119.92467429998214,None,118.93091609998373,None,118.93091609998373,None,118.93091609998373,None,120.47467356998531,None,120.47467356998531,None,120.47467356998531,None,,,,,,,,,,,,,104,2023-04-18_15h16.42.320,Main,2022.1.1,59.98321669037557,
neutral,neutral,1,k,k,,,,,1,1,19,1,,,,,,,,,,,,,prac,2,2,1,neutral,neutral,k,k,1,0.6514416999998502,120.47469559998717,121.47476929999539,121.47476929999539,None,120.47469559998717,None,120.47469559998717,None,120.47469559998717,None,122.12723806997819,None,122.12723806997819,None,122.12723806997819,None,,,,,,,,,,,,,104,2023-04-18_15h16.42.320,Main,2022.1.1,59.98321669037557,
positive,negative,1,l,j,,,,,1,2,20,5,,,,,,,,,,,,,prac,2,2,1,negative,positive,l,l,1,0.7490245999942999,122.13075599999866,123.14389569999184,123.12726949999342,None,122.13075599999866,None,122.13075599999866,None,122.13075599999866,None,123.87544286998745,None,123.87544286998745,None,123.87544286998745,None,,,,,,,,,,,,,104,2023-04-18_15h16.42.320,Main,2022.1.1,59.98321669037557,
neutral,negative,2,k,k,,,,,1,3,21,16,,,,,,,,,,,,,prac,1,1,2,negative,neutral,k,k,1,0.6153370000247378,123.88174309997703,124.8937697999936,124.87717189997784,None,123.88174309997703,None,123.88174309997703,None,123.88174309997703,None,125.4913632700016,None,125.4913632700016,None,125.4913632700016,None,,,,,,,,,,,,,104,2023-04-18_15h16.42.320,Main,2022.1.1,59.98321669037557,
neutral,neutral,2,k,k,,,,,1,4,22,10,,,,,,,,,,,,,prac,2,2,2,neutral,neutral,k,k,1,0.5622461999882944,125.49837369998568,126.51046140000108,126.49388829999953,None,125.49837369998568,None,125.49837369998568,None,125.49837369998568,None,127.05796156997967,None,127.05796156997967,None,127.05796156997967,None,,,,,,,,,,,,,104,2023-04-18_15h16.42.320,Main,2022.1.1,59.98321669037557,
positive,neutral,2,l,j,,,,,1,5,23,17,,,,,,,,,,,,,prac,1,1,2,neutral,positive,l,l,1,0.6490280999860261,127.0637472999806,128.07706699997652,128.04386219999287,None,127.0637472999806,None,127.0637472999806,None,127.0637472999806,None,128.70824437000266,None,128.70824437000266,None,128.70824437000266,None,,,,,,,,,,,,,104,2023-04-18_15h16.42.320,Main,2022.1.1,59.98321669037557,
positive,neutral,1,l,j,,,,,1,6,24,8,,,,,,,,,,,,,prac,1,1,1,neutral,positive,l,l,1,0.6648283000104129,128.71374169999035,129.72351789998356,129.70760080000036,None,128.71374169999035,None,128.71374169999035,None,128.71374169999035,None,130.37443356998557,None,130.37443356998557,None,130.37443356998557,None,,,,,,,,,,,,,104,2023-04-18_15h16.42.320,Main,2022.1.1,59.98321669037557,
positive,positive,2,l,j,,,,,1,7,25,11,,,,,,,,,,,,,prac,2,2,2,positive,positive,l,l,1,0.6321835999842733,130.37447239999892,131.37449329998344,131.37449329998344,None,130.37447239999892,None,130.37447239999892,None,130.37447239999892,None,132.00778926998902,None,132.00778926998902,None,132.00778926998902,None,,,,,,,,,,,,,104,2023-04-18_15h16.42.320,Main,2022.1.1,59.98321669037557,
negative,negative,2,j,l,,,,,1,8,26,9,,,,,,,,,,,,,prac,2,2,2,negative,negative,j,j,1,0.7852745999989565,132.0080926999799,133.00783149999916,133.00783149999916,None,132.0080926999799,None,132.0080926999799,None,132.0080926999799,None,133.79113046999265,None,133.79113046999265,None,133.79113046999265,None,,,,,,,,,,,,,104,2023-04-18_15h16.42.320,Main,2022.1.1,59.98321669037557,
positive,negative,2,l,j,,,,,1,9,27,14,,,,,,,,,,,,,prac,2,2,2,negative,positive,l,l,1,0.7479000999883283,133.79755639997893,134.81033879998722,134.79371549998177,None,133.79755639997893,None,133.79755639997893,None,133.79755639997893,None,135.54355087000005,None,135.54355087000005,None,135.54355087000005,None,,,,,,,,,,,,,104,2023-04-18_15h16.42.320,Main,2022.1.1,59.98321669037557,
negative,positive,2,j,l,,,,,1,10,28,15,,,,,,,,,,,,,prac,2,2,2,positive,negative,j,j,1,0.8132514999888372,135.5469292999769,136.56038769998122,136.54110699999728,None,135.5469292999769,None,135.5469292999769,None,135.5469292999769,None,137.35809046998912,None,137.35809046998912,None,137.35809046998912,None,,,,,,,,,,,,,104,2023-04-18_15h16.42.320,Main,2022.1.1,59.98321669037557,
negative,positive,1,j,l,,,,,1,11,29,6,,,,,,,,,,,,,prac,1,1,1,positive,negative,j,j,1,0.6672552000090946,137.3614765999955,138.37684250000166,138.36025479997625,None,137.3614765999955,None,137.3614765999955,None,137.3614765999955,None,139.02680306997792,None,139.02680306997792,None,139.02680306997792,None,,,,,,,,,,,,,104,2023-04-18_15h16.42.320,Main,2022.1.1,59.98321669037557,
neutral,positive,1,k,k,,,,,1,12,30,4,,,,,,,,,,,,,prac,1,1,1,positive,neutral,k,k,1,0.5991510000021663,139.03029329999117,140.04351199997473,140.026882199978,None,139.03029329999117,None,139.03029329999117,None,139.03029329999117,None,140.62677076999972,None,140.62677076999972,None,140.62677076999972,None,,,,,,,,,,,,,104,2023-04-18_15h16.42.320,Main,2022.1.1,59.98321669037557,
neutral,positive,2,k,k,,,,,1,13,31,13,,,,,,,,,,,,,prac,2,2,2,positive,neutral,k,k,1,0.564427400007844,140.6310854999756,141.64384489998338,141.62686679998296,None,140.6310854999756,None,140.6310854999756,None,140.6310854999756,None,142.190880869978,None,142.190880869978,None,142.190880869978,None,,,,,,,,,,,,,104,2023-04-18_15h16.42.320,Main,2022.1.1,59.98321669037557,
positive,positive,1,l,j,,,,,1,14,32,2,,,,,,,,,,,,,prac,2,2,1,positive,positive,l,l,1,0.6628838000178803,142.19354700000258,143.2076213999826,143.1909588999988,None,142.19354700000258,None,142.19354700000258,None,142.19354700000258,None,143.85755786997908,None,143.85755786997908,None,143.85755786997908,None,,,,,,,,,,,,,104,2023-04-18_15h16.42.320,Main,2022.1.1,59.98321669037557,
negative,neutral,1,j,l,,,,,1,15,33,3,,,,,,,,,,,,,prac,2,2,1,neutral,negative,j,j,1,0.6816227000090294,143.85996039997553,144.87426489999052,144.8576092000003,None,143.85996039997553,None,143.85996039997553,None,143.85996039997553,None,145.5409047699912,None,145.5409047699912,None,145.5409047699912,None,,,,,,,,,,,,,104,2023-04-18_15h16.42.320,Main,2022.1.1,59.98321669037557,
negative,negative,1,j,l,,,,,1,16,34,0,,,,,,,,,,,,,prac,1,1,1,negative,negative,j,j,1,0.7004619000072125,145.54741309999372,146.5600562999898,146.54346349998377,None,145.54741309999372,None,145.54741309999372,None,145.54741309999372,None,147.24350436997776,None,147.24350436997776,None,147.24350436997776,None,,,,,,,,,,,,,104,2023-04-18_15h16.42.320,Main,2022.1.1,59.98321669037557,
negative,neutral,2,j,l,,,,,1,17,35,12,,,,,,,,,,,,,prac,1,1,2,neutral,negative,j,j,1,0.7296724000188988,147.2474944999849,148.26001209998503,148.24341339999228,None,147.2474944999849,None,147.2474944999849,None,147.2474944999849,None,148.97449786998624,None,148.97449786998624,None,148.97449786998624,None,,,,,,,,,,,,,104,2023-04-18_15h16.42.320,Main,2022.1.1,59.98321669037557,
,,,,,,,,,,,,,,,,,,,,,,,,,,,,,,,,,,,,,,,,,,,,,,,,,,,148.9768910999992,None,None,,,,,,,,,,104,2023-04-18_15h16.42.320,Main,2022.1.1,59.98321669037557,
,,,,,,,,,,,,,,,,,,,,,,,,,,,,,,,,,,,,,,,,,,,,,,,,,,,,,,0.36296296,-0.18611111,1,0,0,0.011245769972447306,None,,,104,2023-04-18_15h16.42.320,Main,2022.1.1,59.98321669037557,
neutral,negative,2,k,k,,,,,,,,,0,0,0,16,,,,,,,155.80987379999715,None,main,1,1,2,negative,neutral,k,k,1,0.7123186999815516,157.8160321000032,158.82639709999785,158.8098115999892,None,157.8160321000032,None,157.8160321000032,None,157.8160321000032,None,159.5243076699815,None,159.5243076699815,None,159.5243076699815,None,,,,,,,,,,,,,104,2023-04-18_15h16.42.320,Main,2022.1.1,59.98321669037557,
negative,neutral,1,j,l,,,,,,,,,0,1,1,3,,,,,,,,,main,1,1,1,neutral,negative,j,j,1,0.7638726999866776,159.52877699999954,160.54305789998034,160.52644849999342,None,159.52877699999954,None,159.52877699999954,None,159.52877699999954,None,161.29069366998448,None,161.29069366998448,None,161.29069366998448,None,,,,,,,,,,,,,104,2023-04-18_15h16.42.320,Main,2022.1.1,59.98321669037557,
negative,negative,1,j,l,,,,,,,,,0,2,2,0,,,,,,,,,main,1,1,1,negative,negative,j,j,1,0.6172158000117633,161.29749269998865,162.3097486999759,162.2909560999833,None,161.29749269998865,None,161.29749269998865,None,161.29749269998865,None,162.9098691699881,None,162.9098691699881,None,162.9098691699881,None,,,,,,,,,,,,,104,2023-04-18_15h16.42.320,Main,2022.1.1,59.98321669037557,
neutral,positive,1,k,k,,,,,,,,,0,3,3,4,,,,,,,,,main,1,1,1,positive,neutral,k,k,1,0.5627008999872487,162.9139212000009,163.92378240000107,163.90711599998758,None,162.9139212000009,None,162.9139212000009,None,162.9139212000009,None,164.47378166997515,None,164.47378166997515,None,164.47378166997515,None,,,,,,,,,,,,,104,2023-04-18_15h16.42.320,Main,2022.1.1,59.98321669037557,
neutral,neutral,2,k,k,,,,,,,,,0,4,4,10,,,,,,,,,main,2,2,2,neutral,neutral,k,k,1,0.5650686000008136,164.47401469998294,165.47387159999926,165.47387159999926,None,164.47401469998294,None,164.47401469998294,None,164.47401469998294,None,166.04050467000053,None,166.04050467000053,None,166.04050467000053,None,,,,,,,,,,,,,104,2023-04-18_15h16.42.320,Main,2022.1.1,59.98321669037557,
positive,positive,1,l,j,,,,,,,,,0,5,5,2,,,,,,,,,main,2,2,1,positive,positive,l,l,1,0.5824562999769114,166.04424389998894,167.05974139997852,167.04303749999963,None,166.04424389998894,None,166.04424389998894,None,166.04424389998894,None,167.62425436998893,None,167.62425436998893,None,167.62425436998893,None,,,,,,,,,,,,,104,2023-04-18_15h16.42.320,Main,2022.1.1,59.98321669037557,
positive,negative,2,l,j,,,,,,,,,0,6,6,14,,,,,,,,,main,2,2,2,negative,positive,l,l,1,0.7475714000174776,167.63006440000026,168.64293159998488,168.62640909999027,None,167.63006440000026,None,167.63006440000026,None,167.63006440000026,None,169.37378706998135,None,169.37378706998135,None,169.37378706998135,None,,,,,,,,,,,,,104,2023-04-18_15h16.42.320,Main,2022.1.1,59.98321669037557,
neutral,negative,1,k,k,,,,,,,,,0,7,7,7,,,,,,,,,main,1,1,1,negative,neutral,k,k,1,0.5841618000122253,169.38062329997774,170.3929524999985,170.37636879997444,None,169.38062329997774,None,169.38062329997774,None,169.38062329997774,None,170.9595143699815,None,170.9595143699815,None,170.9595143699815,None,,,,,,,,,,,,,104,2023-04-18_15h16.42.320,Main,2022.1.1,59.98321669037557,
neutral,positive,2,k,k,,,,,,,,,0,8,8,13,,,,,,,,,main,2,2,2,positive,neutral,k,k,1,0.5961818000068888,170.96337620000122,171.97618739999598,171.95960439997725,None,170.96337620000122,None,170.96337620000122,None,170.96337620000122,None,172.55724987000286,None,172.55724987000286,None,172.55724987000286,None,,,,,,,,,,,,,104,2023-04-18_15h16.42.320,Main,2022.1.1,59.98321669037557,
neutral,neutral,1,k,k,,,,,,,,,0,9,9,1,,,,,,,,,main,1,1,1,neutral,neutral,k,k,1,0.5809981999918818,172.56393379997462,173.57612379998318,173.55949119999423,None,172.56393379997462,None,172.56393379997462,None,172.56393379997462,None,174.14025216997544,None,174.14025216997544,None,174.14025216997544,None,,,,,,,,,,,,,104,2023-04-18_15h16.42.320,Main,2022.1.1,59.98321669037557,
positive,neutral,2,l,j,,,,,,,,,0,10,10,17,,,,,,,,,main,2,2,2,neutral,positive,l,l,1,0.7655173999955878,174.14029219999793,175.14031369998702,175.14031369998702,None,174.14029219999793,None,174.14029219999793,None,174.14029219999793,None,175.9070148699946,None,175.9070148699946,None,175.9070148699946,None,,,,,,,,,,,,,104,2023-04-18_15h16.42.320,Main,2022.1.1,59.98321669037557,
positive,positive,2,l,j,,,,,,,,,0,11,11,11,,,,,,,,,main,1,1,2,positive,positive,l,l,1,0.665389600006165,175.91070459998446,176.92620309998165,176.90950099998736,None,175.91070459998446,None,175.91070459998446,None,175.91070459998446,None,177.57396936998413,None,177.57396936998413,None,177.57396936998413,None,,,,,,,,,,,,,104,2023-04-18_15h16.42.320,Main,2022.1.1,59.98321669037557,
positive,negative,1,l,j,,,,,,,,,0,12,12,5,,,,,,,,,main,2,2,1,negative,positive,l,l,1,0.6348362000135239,177.57787979999557,178.5927331999992,178.57614589997684,None,177.57787979999557,None,177.57787979999557,None,177.57787979999557,None,179.2095769699925,None,179.2095769699925,None,179.2095769699925,None,,,,,,,,,,,,,104,2023-04-18_15h16.42.320,Main,2022.1.1,59.98321669037557,
negative,negative,2,j,l,,,,,,,,,0,13,13,9,,,,,,,,,main,2,2,2,negative,negative,j,j,1,0.6280053999798838,179.21422749999329,180.2260457999946,180.20946369998273,None,179.21422749999329,None,179.21422749999329,None,179.21422749999329,None,180.84031466999733,None,180.84031466999733,None,180.84031466999733,None,,,,,,,,,,,,,104,2023-04-18_15h16.42.320,Main,2022.1.1,59.98321669037557,
negative,positive,1,j,l,,,,,,,,,0,14,14,6,,,,,,,,,main,2,2,1,positive,negative,j,j,1,0.717592600005446,180.84690109998337,181.859330199979,181.84276069997577,None,180.84690109998337,None,180.84690109998337,None,180.84690109998337,None,182.55936727000227,None,182.55936727000227,None,182.55936727000227,None,,,,,,,,,,,,,104,2023-04-18_15h16.42.320,Main,2022.1.1,59.98321669037557,
negative,positive,2,j,l,,,,,,,,,0,15,15,15,,,,,,,,,main,1,1,2,positive,negative,j,j,1,0.6788309999974445,182.56341219999013,183.57610739997472,183.55938279998372,None,182.56341219999013,None,182.56341219999013,None,182.56341219999013,None,184.24007736998902,None,184.24007736998902,None,184.24007736998902,None,,,,,,,,,,,,,104,2023-04-18_15h16.42.320,Main,2022.1.1,59.98321669037557,
negative,neutral,2,j,l,,,,,,,,,0,16,16,12,,,,,,,,,main,2,2,2,neutral,negative,j,j,1,0.7152566000004299,184.24011449998943,185.24011929999688,185.24011929999688,None,184.24011449998943,None,184.24011449998943,None,184.24011449998943,None,185.9567397699837,None,185.9567397699837,None,185.9567397699837,None,,,,,,,,,,,,,104,2023-04-18_15h16.42.320,Main,2022.1.1,59.98321669037557,
positive,neutral,1,l,j,,,,,,,,,0,17,17,8,,,,,,,,,main,2,2,1,neutral,positive,l,l,1,0.7651189000171144,185.95725379997748,186.9567683999776,186.9567683999776,None,185.95725379997748,None,185.95725379997748,None,185.95725379997748,None,187.72340216999584,None,187.72340216999584,None,187.72340216999584,None,,,,,,,,,,,,,104,2023-04-18_15h16.42.320,Main,2022.1.1,59.98321669037557,
negative,neutral,2,j,l,,,,,,,,,1,0,18,12,,,,,,,,,main,2,2,2,neutral,negative,j,j,1,0.7820930000161752,187.72915410000132,188.7426531999954,188.72598599997582,None,187.72915410000132,None,187.72915410000132,None,187.72915410000132,None,189.50693066999958,None,189.50693066999958,None,189.50693066999958,None,,,,,,,,,,,,,104,2023-04-18_15h16.42.320,Main,2022.1.1,59.98321669037557,
neutral,positive,2,k,k,,,,,,,,,1,1,19,13,,,,,,,,,main,2,2,2,positive,neutral,k,k,1,0.5684174000052735,189.51342949998798,190.52353330000187,190.50919270000304,None,189.51342949998798,None,189.51342949998798,None,189.51342949998798,None,191.0758526699763,None,191.0758526699763,None,191.0758526699763,None,,,,,,,,,,,,,104,2023-04-18_15h16.42.320,Main,2022.1.1,59.98321669037557,
negative,positive,2,j,l,,,,,,,,,1,2,20,15,,,,,,,,,main,2,2,2,positive,negative,j,j,1,0.6805059999751393,191.0806576999894,192.0924283999775,192.07581660000142,None,191.0806576999894,None,191.0806576999894,None,191.0806576999894,None,192.7590899699979,None,192.7590899699979,None,192.7590899699979,None,,,,,,,,,,,,,104,2023-04-18_15h16.42.320,Main,2022.1.1,59.98321669037557,
negative,positive,1,j,l,,,,,,,,,1,3,21,6,,,,,,,,,main,1,1,1,positive,negative,j,j,1,0.6484577000082936,192.76326739997603,193.77574929999537,193.7591218999878,None,192.76326739997603,None,192.76326739997603,None,192.76326739997603,None,194.40912746998657,None,194.40912746998657,None,194.40912746998657,None,,,,,,,,,,,,,104,2023-04-18_15h16.42.320,Main,2022.1.1,59.98321669037557,
neutral,negative,2,k,k,,,,,,,,,1,4,22,16,,,,,,,,,main,1,1,2,negative,neutral,k,k,1,0.6087190000107512,194.41323409997858,195.42581479999353,195.40914939998765,None,194.41323409997858,None,194.41323409997858,None,194.41323409997858,None,196.0183034699847,None,196.0183034699847,None,196.0183034699847,None,,,,,,,,,,,,,104,2023-04-18_15h16.42.320,Main,2022.1.1,59.98321669037557,
negative,neutral,1,j,l,,,,,,,,,1,5,23,3,,,,,,,,,main,2,2,1,neutral,negative,j,j,1,0.7854654999973718,196.0355195000011,197.03985849997844,197.0231919999933,None,196.0355195000011,None,196.0355195000011,None,196.0355195000011,None,197.8064743699768,None,197.8064743699768,None,197.8064743699768,None,,,,,,,,,,,,,104,2023-04-18_15h16.42.320,Main,2022.1.1,59.98321669037557,
negative,negative,1,j,l,,,,,,,,,1,6,24,0,,,,,,,,,main,2,2,1,negative,negative,j,j,1,0.6651320999953896,197.80669440000202,198.8065282999887,198.8065282999887,None,197.80669440000202,None,197.80669440000202,None,197.80669440000202,None,199.47318117000106,None,199.47318117000106,None,199.47318117000106,None,,,,,,,,,,,,,104,2023-04-18_15h16.42.320,Main,2022.1.1,59.98321669037557,
positive,positive,1,l,j,,,,,,,,,1,7,25,2,,,,,,,,,main,2,2,1,positive,positive,l,j,0,0.5480139999999665,199.47992949999752,200.49228569999104,200.47568350000074,None,199.47992949999752,None,199.47992949999752,None,199.47992949999752,None,201.0235282999929,None,201.0235282999929,None,201.0235282999929,None,,,,,,,,,,,,,104,2023-04-18_15h16.42.320,Main,2022.1.1,59.98321669037557,
positive,neutral,1,l,j,,,,,,,,,1,8,26,8,,,,,,,,,main,1,1,1,neutral,positive,l,l,1,0.7513859000173397,202.02393679998931,203.02553829998942,203.00661439998657,None,202.02393679998931,None,202.02393679998931,None,202.02393679998931,None,203.7734277699754,None,203.7734277699754,None,203.7734277699754,None,,,,,,,,,,,,,104,2023-04-18_15h16.42.320,Main,2022.1.1,59.98321669037557,
positive,negative,2,l,j,,,,,,,,,1,9,27,14,,,,,,,,,main,1,1,2,negative,positive,l,l,1,0.581496300001163,203.77732009999454,204.79221319998032,204.77562169998419,None,203.77732009999454,None,203.77732009999454,None,203.77732009999454,None,205.35674667000131,None,205.35674667000131,None,205.35674667000131,None,,,,,,,,,,,,,104,2023-04-18_15h16.42.320,Main,2022.1.1,59.98321669037557,
positive,neutral,2,l,j,,,,,,,,,1,10,28,17,,,,,,,,,main,2,2,2,neutral,positive,l,l,1,0.6825704000075348,205.36064239998814,206.3755331999855,206.35891849998734,None,205.36064239998814,None,205.36064239998814,None,205.36064239998814,None,207.04090016998526,None,207.04090016998526,None,207.04090016998526,None,,,,,,,,,,,,,104,2023-04-18_15h16.42.320,Main,2022.1.1,59.98321669037557,
neutral,negative,1,k,k,,,,,,,,,1,11,29,7,,,,,,,,,main,2,2,1,negative,neutral,k,k,1,0.6137904000061098,207.0468714000017,208.0562863999803,208.0396206000005,None,207.0468714000017,None,207.0468714000017,None,207.0468714000017,None,208.65622676998902,None,208.65622676998902,None,208.65622676998902,None,,,,,,,,,,,,,104,2023-04-18_15h16.42.320,Main,2022.1.1,59.98321669037557,
neutral,neutral,1,k,k,,,,,,,,,1,12,30,1,,,,,,,,,main,2,2,1,neutral,neutral,k,k,1,0.5817408000002615,208.65640579999308,209.6563697999809,209.6563697999809,None,208.65640579999308,None,208.65640579999308,None,208.65640579999308,None,210.23997197000136,None,210.23997197000136,None,210.23997197000136,None,,,,,,,,,,,,,104,2023-04-18_15h16.42.320,Main,2022.1.1,59.98321669037557,
negative,negative,2,j,l,,,,,,,,,1,13,31,9,,,,,,,,,main,1,1,2,negative,negative,j,j,1,0.7186174999806099,210.24597749998793,211.25876319999225,211.24210689999745,None,210.24597749998793,None,210.24597749998793,None,210.24597749998793,None,211.96002466999636,None,211.96002466999636,None,211.96002466999636,None,,,,,,,,,,,,,104,2023-04-18_15h16.42.320,Main,2022.1.1,59.98321669037557,
neutral,positive,1,k,k,,,,,,,,,1,14,32,4,,,,,,,,,main,2,2,1,positive,neutral,k,k,1,0.6786832000070717,211.96340119998786,212.97547619999386,212.95876759997918,None,211.96340119998786,None,211.96340119998786,None,211.96340119998786,None,213.64028637000303,None,213.64028637000303,None,213.64028637000303,None,,,,,,,,,,,,,104,2023-04-18_15h16.42.320,Main,2022.1.1,59.98321669037557,
positive,negative,1,l,j,,,,,,,,,1,15,33,5,,,,,,,,,main,1,1,1,negative,positive,l,l,1,0.6144700000004377,213.64637219998986,214.65863399999216,214.64216769998893,None,213.64637219998986,None,213.64637219998986,None,213.64637219998986,None,215.25636356998876,None,215.25636356998876,None,215.25636356998876,None,,,,,,,,,,,,,104,2023-04-18_15h16.42.320,Main,2022.1.1,59.98321669037557,
neutral,neutral,2,k,k,,,,,,,,,1,16,34,10,,,,,,,,,main,2,2,2,neutral,neutral,k,k,1,0.5821817999822088,215.2628506999754,216.27531859997544,216.2587966999854,None,215.2628506999754,None,215.2628506999754,None,215.2628506999754,None,216.84018547000306,None,216.84018547000306,None,216.84018547000306,None,,,,,,,,,,,,,104,2023-04-18_15h16.42.320,Main,2022.1.1,59.98321669037557,
positive,positive,2,l,j,,,,,,,,,1,17,35,11,,,,,,,,,main,2,2,2,positive,positive,l,l,1,0.5978099999774713,216.84622579999268,217.85565699997824,217.8387756999873,None,216.84622579999268,None,216.84622579999268,None,216.84622579999268,None,218.43941227000033,None,218.43941227000033,None,218.43941227000033,None,,,,,,,,,,,,,104,2023-04-18_15h16.42.320,Main,2022.1.1,59.98321669037557,
positive,negative,1,l,j,,,,,,,,,2,0,36,5,,,,,,,,,main,2,2,1,negative,positive,l,l,1,0.5983139000018127,218.43992379997508,219.43944789998932,219.43944789998932,None,218.43992379997508,None,218.43992379997508,None,218.43992379997508,None,220.03943376999524,None,220.03943376999524,None,220.03943376999524,None,,,,,,,,,,,,,104,2023-04-18_15h16.42.320,Main,2022.1.1,59.98321669037557,
positive,positive,1,l,j,,,,,,,,,2,1,37,2,,,,,,,,,main,1,1,1,positive,positive,l,l,1,0.614911899989238,220.0445658999961,221.05856929998845,221.04203589999815,None,220.0445658999961,None,220.0445658999961,None,220.0445658999961,None,221.6561504699901,None,221.6561504699901,None,221.6561504699901,None,,,,,,,,,,,,,104,2023-04-18_15h16.42.320,Main,2022.1.1,59.98321669037557,
neutral,neutral,1,k,k,,,,,,,,,2,2,38,1,,,,,,,,,main,1,1,1,neutral,neutral,k,k,1,0.6173665999958757,221.66251989998273,222.67520189998322,222.65866019998793,None,221.66251989998273,None,221.66251989998273,None,221.66251989998273,None,223.27507966998093,None,223.27507966998093,None,223.27507966998093,None,,,,,,,,,,,,,104,2023-04-18_15h16.42.320,Main,2022.1.1,59.98321669037557,
neutral,positive,2,k,k,,,,,,,,,2,3,39,13,,,,,,,,,main,1,1,2,positive,neutral,k,k,1,0.5984446999791544,223.27831949997926,224.29171719998703,224.2751132999838,None,223.27831949997926,None,223.27831949997926,None,223.27831949997926,None,224.87509966999352,None,224.87509966999352,None,224.87509966999352,None,,,,,,,,,,,,,104,2023-04-18_15h16.42.320,Main,2022.1.1,59.98321669037557,
negative,positive,1,j,l,,,,,,,,,2,4,40,6,,,,,,,,,main,2,2,1,positive,negative,j,j,1,0.7128051000181586,224.87879709998379,225.89176020000014,225.875251999998,None,224.87879709998379,None,224.87879709998379,None,224.87879709998379,None,226.5896034699952,None,226.5896034699952,None,226.5896034699952,None,,,,,,,,,,,,,104,2023-04-18_15h16.42.320,Main,2022.1.1,59.98321669037557,
neutral,neutral,2,k,k,,,,,,,,,2,5,41,10,,,,,,,,,main,2,2,2,neutral,neutral,k,k,1,0.5317042999959085,226.59572919999482,227.60842849998153,227.5918591999798,None,226.59572919999482,None,226.59572919999482,None,226.59572919999482,None,228.1227080700017,None,228.1227080700017,None,228.1227080700017,None,,,,,,,,,,,,,104,2023-04-18_15h16.42.320,Main,2022.1.1,59.98321669037557,
positive,positive,2,l,j,,,,,,,,,2,6,42,11,,,,,,,,,main,1,1,2,positive,positive,l,l,1,0.6819462999992538,228.13884010000038,229.13956789998338,229.1228232999856,None,228.13884010000038,None,228.13884010000038,None,228.13884010000038,None,229.80609416999215,None,229.80609416999215,None,229.80609416999215,None,,,,,,,,,,,,,104,2023-04-18_15h16.42.320,Main,2022.1.1,59.98321669037557,
negative,neutral,2,j,l,,,,,,,,,2,7,43,12,,,,,,,,,main,1,1,2,neutral,negative,j,j,1,0.7313538000162225,229.80994849998388,230.82280129997525,230.80620459999773,None,229.80994849998388,None,229.80994849998388,None,229.80994849998388,None,231.53942416998035,None,231.53942416998035,None,231.53942416998035,None,,,,,,,,,,,,,104,2023-04-18_15h16.42.320,Main,2022.1.1,59.98321669037557,
positive,neutral,1,l,j,,,,,,,,,2,8,44,8,,,,,,,,,main,1,1,1,neutral,positive,l,l,1,0.7652293000137433,231.542910499993,232.55818490000092,232.53952109999955,None,231.542910499993,None,231.542910499993,None,231.542910499993,None,233.3060940699914,None,233.3060940699914,None,233.3060940699914,None,,,,,,,,,,,,,104,2023-04-18_15h16.42.320,Main,2022.1.1,59.98321669037557,
negative,neutral,1,j,l,,,,,,,,,2,9,45,3,,,,,,,,,main,1,1,1,neutral,negative,j,j,1,0.7150999000004958,233.31155349998153,234.32274259999394,234.30608509999,None,233.31155349998153,None,233.31155349998153,None,233.31155349998153,None,235.02272656999122,None,235.02272656999122,None,235.02272656999122,None,,,,,,,,,,,,,104,2023-04-18_15h16.42.320,Main,2022.1.1,59.98321669037557,
positive,neutral,2,l,j,,,,,,,,,2,10,46,17,,,,,,,,,main,2,2,2,neutral,positive,l,l,1,0.7982625000004191,235.04157579998719,236.0560563999752,236.02274809998926,None,235.04157579998719,None,235.04157579998719,None,235.04157579998719,None,236.82267536999717,None,236.82267536999717,None,236.82267536999717,None,,,,,,,,,,,,,104,2023-04-18_15h16.42.320,Main,2022.1.1,59.98321669037557,
negative,negative,1,j,l,,,,,,,,,2,11,47,0,,,,,,,,,main,1,1,1,negative,negative,j,j,1,0.715081200003624,236.82852309997543,237.8414710999932,237.82484939999995,None,236.82852309997543,None,236.82852309997543,None,236.82852309997543,None,238.53931237000216,None,238.53931237000216,None,238.53931237000216,None,,,,,,,,,,,,,104,2023-04-18_15h16.42.320,Main,2022.1.1,59.98321669037557,
positive,negative,2,l,j,,,,,,,,,2,12,48,14,,,,,,,,,main,1,1,2,negative,positive,l,l,1,0.6815291999955662,238.54490549999173,239.55572019997635,239.53897389999474,None,238.54490549999173,None,238.54490549999173,None,238.54490549999173,None,240.22224716999045,None,240.22224716999045,None,240.22224716999045,None,,,,,,,,,,,,,104,2023-04-18_15h16.42.320,Main,2022.1.1,59.98321669037557,
negative,positive,2,j,l,,,,,,,,,2,13,49,15,,,,,,,,,main,1,1,2,positive,negative,j,j,1,0.7821832000045106,240.2224241999793,241.22236869999324,241.22236869999324,None,240.2224241999793,None,240.2224241999793,None,240.2224241999793,None,242.00602396999312,None,242.00602396999312,None,242.00602396999312,None,,,,,,,,,,,,,104,2023-04-18_15h16.42.320,Main,2022.1.1,59.98321669037557,
neutral,positive,1,k,k,,,,,,,,,2,14,50,4,,,,,,,,,main,1,1,1,positive,neutral,k,k,1,0.6170145000214688,242.0099422999774,243.02479080000194,243.00814169997466,None,242.0099422999774,None,242.0099422999774,None,242.0099422999774,None,243.62471426999838,None,243.62471426999838,None,243.62471426999838,None,,,,,,,,,,,,,104,2023-04-18_15h16.42.320,Main,2022.1.1,59.98321669037557,
negative,negative,2,j,l,,,,,,,,,2,15,51,9,,,,,,,,,main,2,2,2,negative,negative,j,j,1,0.9960136000008788,243.62936299998546,244.64149859998724,244.62484019997646,None,243.62936299998546,None,243.62936299998546,None,243.62936299998546,None,245.622655269978,None,245.622655269978,None,245.622655269978,None,,,,,,,,,,,,,104,2023-04-18_15h16.42.320,Main,2022.1.1,59.98321669037557,
neutral,negative,1,k,k,,,,,,,,,2,16,52,7,,,,,,,,,main,1,1,1,negative,neutral,k,k,1,0.6340103999827988,245.62677879998228,246.6413641999825,246.62476229999447,None,245.62677879998228,None,245.62677879998228,None,245.62677879998228,None,247.25795346998785,None,247.25795346998785,None,247.25795346998785,None,,,,,,,,,,,,,104,2023-04-18_15h16.42.320,Main,2022.1.1,59.98321669037557,
neutral,negative,2,k,k,,,,,,,,,2,17,53,16,,,,,,,,,main,2,2,2,negative,neutral,k,k,1,0.7153553000243846,247.26109369998449,248.27464479999617,248.25809469999513,None,247.26109369998449,None,247.26109369998449,None,247.26109369998449,None,248.97474437000056,None,248.97474437000056,None,248.97474437000056,None,,,,,,,,,,,,,104,2023-04-18_15h16.42.320,Main,2022.1.1,59.98321669037557,
negative,negative,2,j,l,,,,,,,,,3,0,54,9,,,,,,,,,main,2,2,2,negative,negative,j,j,1,0.679035200009821,248.9781393999874,249.98886059998767,249.97216669999762,None,248.9781393999874,None,248.9781393999874,None,248.9781393999874,None,250.65544656998537,None,250.65544656998537,None,250.65544656998537,None,,,,,,,,,,,,,104,2023-04-18_15h16.42.320,Main,2022.1.1,59.98321669037557,
positive,positive,2,l,j,,,,,,,,,3,1,55,11,,,,,,,,,main,1,1,2,positive,positive,l,l,1,0.7987606000097003,250.65578149998328,251.655520100001,251.655520100001,None,250.65578149998328,None,250.65578149998328,None,250.65578149998328,None,252.4558026699786,None,252.4558026699786,None,252.4558026699786,None,,,,,,,,,,,,,104,2023-04-18_15h16.42.320,Main,2022.1.1,59.98321669037557,
neutral,neutral,2,k,k,,,,,,,,,3,2,56,10,,,,,,,,,main,1,1,2,neutral,neutral,k,k,1,0.6338662999914959,252.46155829998315,253.47462689998792,253.45801869998104,None,252.46155829998315,None,252.46155829998315,None,252.46155829998315,None,254.09126446998272,None,254.09126446998272,None,254.09126446998272,None,,,,,,,,,,,,,104,2023-04-18_15h16.42.320,Main,2022.1.1,59.98321669037557,
neutral,negative,2,k,k,,,,,,,,,3,3,57,16,,,,,,,,,main,2,2,2,negative,neutral,k,k,1,0.6127780999813695,254.0947483999771,255.10797129999264,255.09135439997772,None,254.0947483999771,None,254.0947483999771,None,254.0947483999771,None,255.70568836998137,None,255.70568836998137,None,255.70568836998137,None,,,,,,,,,,,,,104,2023-04-18_15h16.42.320,Main,2022.1.1,59.98321669037557,
neutral,positive,1,k,k,,,,,,,,,3,4,58,4,,,,,,,,,main,2,2,1,positive,neutral,k,k,1,0.5659607999841683,255.70907949999673,256.72450759998173,256.70791079997434,None,255.70907949999673,None,255.70907949999673,None,255.70907949999673,None,257.2730932699895,None,257.2730932699895,None,257.2730932699895,None,,,,,,,,,,,,,104,2023-04-18_15h16.42.320,Main,2022.1.1,59.98321669037557,
positive,neutral,2,l,j,,,,,,,,,3,5,59,17,,,,,,,,,main,2,2,2,neutral,positive,l,l,1,0.7153474000224378,257.2790225999779,258.28905510000186,258.2745737999794,None,257.2790225999779,None,257.2790225999779,None,257.2790225999779,None,258.98996366999637,None,258.98996366999637,None,258.98996366999637,None,,,,,,,,,,,,,104,2023-04-18_15h16.42.320,Main,2022.1.1,59.98321669037557,
neutral,neutral,1,k,k,,,,,,,,,3,6,60,1,,,,,,,,,main,1,1,1,neutral,neutral,k,k,1,0.5635337999847252,258.99612289998913,260.0052893999964,259.988607199979,None,258.99612289998913,None,258.99612289998913,None,258.99612289998913,None,260.5552544700011,None,260.5552544700011,None,260.5552544700011,None,,,,,,,,,,,,,104,2023-04-18_15h16.42.320,Main,2022.1.1,59.98321669037557,
negative,neutral,1,j,l,,,,,,,,,3,7,61,3,,,,,,,,,main,2,2,1,neutral,negative,j,j,1,0.7484467999893241,260.55532559999847,261.55529409999144,261.55529409999144,None,260.55532559999847,None,260.55532559999847,None,260.55532559999847,None,262.3052202700026,None,262.3052202700026,None,262.3052202700026,None,,,,,,,,,,,,,104,2023-04-18_15h16.42.320,Main,2022.1.1,59.98321669037557,
negative,positive,1,j,l,,,,,,,,,3,8,62,6,,,,,,,,,main,2,2,1,positive,negative,j,j,1,0.6816592999966815,262.3062579999969,263.3219545999891,263.3052828999935,None,262.3062579999969,None,262.3062579999969,None,262.3062579999969,None,263.98856706998487,None,263.98856706998487,None,263.98856706998487,None,,,,,,,,,,,,,104,2023-04-18_15h16.42.320,Main,2022.1.1,59.98321669037557,
positive,neutral,1,l,j,,,,,,,,,3,9,63,8,,,,,,,,,main,2,2,1,neutral,positive,l,l,1,0.6486922999902163,263.9924927999964,265.0077663999982,264.99112189997686,None,263.9924927999964,None,263.9924927999964,None,263.9924927999964,None,265.63889326998907,None,265.63889326998907,None,265.63889326998907,None,,,,,,,,,,,,,104,2023-04-18_15h16.42.320,Main,2022.1.1,59.98321669037557,
negative,negative,1,j,l,,,,,,,,,3,10,64,0,,,,,,,,,main,2,2,1,negative,negative,j,j,1,0.6973009000066668,265.643505199987,266.6576599999971,266.6410505999811,None,265.643505199987,None,265.643505199987,None,265.643505199987,None,267.3388096699753,None,267.3388096699753,None,267.3388096699753,None,,,,,,,,,,,,,104,2023-04-18_15h16.42.320,Main,2022.1.1,59.98321669037557,
positive,positive,1,l,j,,,,,,,,,3,11,65,2,,,,,,,,,main,2,2,1,positive,positive,l,l,1,0.7826987000007648,267.34311079999316,268.35750579999876,268.3409929999907,None,267.34311079999316,None,267.34311079999316,None,267.34311079999316,None,269.1219383699907,None,269.1219383699907,None,269.1219383699907,None,,,,,,,,,,,,,104,2023-04-18_15h16.42.320,Main,2022.1.1,59.98321669037557,
positive,negative,1,l,j,,,,,,,,,3,12,66,5,,,,,,,,,main,1,1,1,negative,positive,l,l,1,0.7154362000001129,269.1288578999811,270.140971899993,270.1243704999797,None,269.1288578999811,None,269.1288578999811,None,269.1288578999811,None,270.8391238699813,None,270.8391238699813,None,270.8391238699813,None,,,,,,,,,,,,,104,2023-04-18_15h16.42.320,Main,2022.1.1,59.98321669037557,
neutral,negative,1,k,k,,,,,,,,,3,13,67,7,,,,,,,,,main,1,1,1,negative,neutral,k,k,1,0.6466605999739841,270.8455576999986,271.8550211999973,271.8383571000013,None,270.8455576999986,None,270.8455576999986,None,270.8455576999986,None,272.4883333699807,None,272.4883333699807,None,272.4883333699807,None,,,,,,,,,,,,,104,2023-04-18_15h16.42.320,Main,2022.1.1,59.98321669037557,
positive,negative,2,l,j,,,,,,,,,3,14,68,14,,,,,,,,,main,1,1,2,negative,positive,l,l,1,1.0150869000062812,272.48837759997696,273.48838279998745,273.48838279998745,None,272.48837759997696,None,272.48837759997696,None,272.48837759997696,None,274.5050232699985,None,274.5050232699985,None,274.5050232699985,None,,,,,,,,,,,,,104,2023-04-18_15h16.42.320,Main,2022.1.1,59.98321669037557,
negative,neutral,2,j,l,,,,,,,,,3,15,69,12,,,,,,,,,main,2,2,2,neutral,negative,j,j,1,0.698370199999772,274.5080131999857,275.52172180000343,275.50505929999053,None,274.5080131999857,None,274.5080131999857,None,274.5080131999857,None,276.20498856997875,None,276.20498856997875,None,276.20498856997875,None,,,,,,,,,,,,,104,2023-04-18_15h16.42.320,Main,2022.1.1,59.98321669037557,
neutral,positive,2,k,k,,,,,,,,,3,16,70,13,,,,,,,,,main,2,2,2,positive,neutral,k,k,1,0.6845022999914363,276.21175159999984,277.22417639999185,277.20754469998064,None,276.21175159999984,None,276.21175159999984,None,276.21175159999984,None,277.8907611699804,None,277.8907611699804,None,277.8907611699804,None,,,,,,,,,,,,,104,2023-04-18_15h16.42.320,Main,2022.1.1,59.98321669037557,
negative,positive,2,j,l,,,,,,,,,3,17,71,15,,,,,,,,,main,2,2,2,positive,negative,j,j,1,0.696125899994513,277.8941760000016,278.9074445999868,278.89086419998785,None,277.8941760000016,None,277.8941760000016,None,277.8941760000016,None,279.588593469988,None,279.588593469988,None,279.588593469988,None,,,,,,,,,,,,,104,2023-04-18_15h16.42.320,Main,2022.1.1,59.98321669037557,
positive,positive,2,l,j,,,,,,,,,4,0,72,11,,,,,,,,,main,1,1,2,positive,positive,l,l,1,0.7673773000133224,279.5946047999896,280.6074137999967,280.5907693999761,None,279.5946047999896,None,279.5946047999896,None,279.5946047999896,None,281.357419069999,None,281.357419069999,None,281.357419069999,None,,,,,,,,,,,,,104,2023-04-18_15h16.42.320,Main,2022.1.1,59.98321669037557,
positive,neutral,1,l,j,,,,,,,,,4,1,73,8,,,,,,,,,main,2,2,1,neutral,positive,l,l,1,0.7148635000048671,281.3608918999962,282.3719177999883,282.3574277999869,None,281.3608918999962,None,281.3608918999962,None,281.3608918999962,None,283.0739016699925,None,283.0739016699925,None,283.0739016699925,None,,,,,,,,,,,,,104,2023-04-18_15h16.42.320,Main,2022.1.1,59.98321669037557,
negative,negative,2,j,l,,,,,,,,,4,2,74,9,,,,,,,,,main,2,2,2,negative,negative,j,j,1,0.7289026000071317,283.0775609999837,284.0881299999892,284.0714596999751,None,283.0775609999837,None,283.0775609999837,None,283.0775609999837,None,284.8047810699762,None,284.8047810699762,None,284.8047810699762,None,,,,,,,,,,,,,104,2023-04-18_15h16.42.320,Main,2022.1.1,59.98321669037557,
neutral,positive,2,k,k,,,,,,,,,4,3,75,13,,,,,,,,,main,1,1,2,positive,neutral,k,k,1,0.5653115000168327,284.8048038999841,285.80483039998217,285.80483039998217,None,284.8048038999841,None,284.8048038999841,None,284.8048038999841,None,286.3714236700005,None,286.3714236700005,None,286.3714236700005,None,,,,,,,,,,,,,104,2023-04-18_15h16.42.320,Main,2022.1.1,59.98321669037557,
neutral,neutral,1,k,k,,,,,,,,,4,4,76,1,,,,,,,,,main,2,2,1,neutral,neutral,k,k,1,0.7008127000008244,286.3881332000019,287.3881341999804,287.37146639998537,None,286.3881332000019,None,286.3881332000019,None,286.3881332000019,None,288.0738778699859,None,288.0738778699859,None,288.0738778699859,None,,,,,,,,,,,,,104,2023-04-18_15h16.42.320,Main,2022.1.1,59.98321669037557,
negative,positive,1,j,l,,,,,,,,,4,5,77,6,,,,,,,,,main,2,2,1,positive,negative,j,j,1,0.7483940999954939,288.07723460000125,289.0907122999779,289.0739672999771,None,288.07723460000125,None,288.07723460000125,None,288.07723460000125,None,289.82383326999553,None,289.82383326999553,None,289.82383326999553,None,,,,,,,,,,,,,104,2023-04-18_15h16.42.320,Main,2022.1.1,59.98321669037557,
negative,positive,2,j,l,,,,,,,,,4,6,78,15,,,,,,,,,main,1,1,2,positive,negative,j,j,1,1.0462007000169251,289.82810289997724,290.84053389998735,290.8238675999746,None,289.82810289997724,None,289.82810289997724,None,289.82810289997724,None,291.8716915700032,None,291.8716915700032,None,291.8716915700032,None,,,,,,,,,,,,,104,2023-04-18_15h16.42.320,Main,2022.1.1,59.98321669037557,
neutral,positive,1,k,k,,,,,,,,,4,7,79,4,,,,,,,,,main,2,2,1,positive,neutral,k,k,1,0.5987724000005983,291.8753028999781,292.89046450000023,292.87383919997956,None,291.8753028999781,None,291.8753028999781,None,291.8753028999781,None,293.47173176999496,None,293.47173176999496,None,293.47173176999496,None,,,,,,,,,,,,,104,2023-04-18_15h16.42.320,Main,2022.1.1,59.98321669037557,
negative,negative,1,j,l,,,,,,,,,4,8,80,0,,,,,,,,,main,2,2,1,negative,negative,j,j,1,0.6311738999793306,293.47763269999996,294.4904384999827,294.47385069998563,None,293.47763269999996,None,293.47763269999996,None,293.47763269999996,None,295.1046064700029,None,295.1046064700029,None,295.1046064700029,None,,,,,,,,,,,,,104,2023-04-18_15h16.42.320,Main,2022.1.1,59.98321669037557,
neutral,neutral,2,k,k,,,,,,,,,4,9,81,10,,,,,,,,,main,2,2,2,neutral,neutral,k,k,1,0.5649013000074774,295.12374949999503,296.1378640999901,296.10452399999485,None,295.12374949999503,None,295.12374949999503,None,295.12374949999503,None,296.67114257000213,None,296.67114257000213,None,296.67114257000213,None,,,,,,,,,,,,,104,2023-04-18_15h16.42.320,Main,2022.1.1,59.98321669037557,
positive,neutral,2,l,j,,,,,,,,,4,10,82,17,,,,,,,,,main,2,2,2,neutral,positive,l,l,1,0.6317769000015687,296.6712069999776,297.6712226999807,297.6712226999807,None,296.6712069999776,None,296.6712069999776,None,296.6712069999776,None,298.3045277699974,None,298.3045277699974,None,298.3045277699974,None,,,,,,,,,,,,,104,2023-04-18_15h16.42.320,Main,2022.1.1,59.98321669037557,
neutral,negative,2,k,k,,,,,,,,,4,11,83,16,,,,,,,,,main,1,1,2,negative,neutral,k,k,1,0.9674037999939173,298.30554429997574,299.3212128999876,299.30455209998763,None,298.30554429997574,None,298.30554429997574,None,298.30554429997574,None,300.2736471699871,None,300.2736471699871,None,300.2736471699871,None,,,,,,,,,,,,,104,2023-04-18_15h16.42.320,Main,2022.1.1,59.98321669037557,
negative,neutral,2,j,l,,,,,,,,,4,12,84,12,,,,,,,,,main,1,1,2,neutral,negative,j,j,1,0.7290401999780443,300.27708069997607,301.2903834999888,301.2736677999783,None,300.27708069997607,None,300.27708069997607,None,300.27708069997607,None,302.0044835699926,None,302.0044835699926,None,302.0044835699926,None,,,,,,,,,,,,,104,2023-04-18_15h16.42.320,Main,2022.1.1,59.98321669037557,
positive,positive,1,l,j,,,,,,,,,4,13,85,2,,,,,,,,,main,2,2,1,positive,positive,l,l,1,0.7986360999930184,302.00846129999263,303.0235761999793,303.0070173999993,None,302.00846129999263,None,302.00846129999263,None,302.00846129999263,None,303.80459196999146,None,303.80459196999146,None,303.80459196999146,None,,,,,,,,,,,,,104,2023-04-18_15h16.42.320,Main,2022.1.1,59.98321669037557,
negative,neutral,1,j,l,,,,,,,,,4,14,86,3,,,,,,,,,main,2,2,1,neutral,negative,j,j,1,0.7314617999945767,303.81112959998427,304.8234818999772,304.80694159999257,None,303.81112959998427,None,303.81112959998427,None,303.81112959998427,None,305.5377612699784,None,305.5377612699784,None,305.5377612699784,None,,,,,,,,,,,,,104,2023-04-18_15h16.42.320,Main,2022.1.1,59.98321669037557,
positive,negative,1,l,j,,,,,,,,,4,15,87,5,,,,,,,,,main,1,1,1,negative,positive,l,l,1,0.8317853000189643,305.54428089997964,306.55682699999306,306.54023409998626,None,305.54428089997964,None,305.54428089997964,None,305.54428089997964,None,307.37107896999515,None,307.37107896999515,None,307.37107896999515,None,,,,,,,,,,,,,104,2023-04-18_15h16.42.320,Main,2022.1.1,59.98321669037557,
positive,negative,2,l,j,,,,,,,,,4,16,88,14,,,,,,,,,main,1,1,2,negative,positive,l,l,1,0.6150330000091344,307.3781675999926,308.3876152999874,308.37096999998903,None,307.3781675999926,None,307.3781675999926,None,307.3781675999926,None,308.98763126998966,None,308.98763126998966,None,308.98763126998966,None,,,,,,,,,,,,,104,2023-04-18_15h16.42.320,Main,2022.1.1,59.98321669037557,
neutral,negative,1,k,k,,,,,,,,,4,17,89,7,,,,,,,,,main,1,1,1,negative,neutral,k,k,1,0.49815010000020266,308.9877991999965,309.98766590000014,309.98766590000014,None,308.9877991999965,None,308.9877991999965,None,308.9877991999965,None,310.4876189699833,None,310.4876189699833,None,310.4876189699833,None,,,,,,,,,,,,,104,2023-04-18_15h16.42.320,Main,2022.1.1,59.98321669037557,
negative,positive,1,j,l,,,,,,,,,5,0,90,6,,,,,,,,,main,2,2,1,positive,negative,j,j,1,0.7844858999887947,310.48832099998253,311.4876749999821,311.4876749999821,None,310.48832099998253,None,310.48832099998253,None,310.48832099998253,None,312.27357586999716,None,312.27357586999716,None,312.27357586999716,None,,,,,,,,,,,,,104,2023-04-18_15h16.42.320,Main,2022.1.1,59.98321669037557,
negative,neutral,1,j,l,,,,,,,,,5,1,91,3,,,,,,,,,main,1,1,1,neutral,negative,j,j,1,0.7315332999860402,312.27641659998335,313.290190300002,313.27337759998045,None,312.27641659998335,None,312.27641659998335,None,312.27641659998335,None,314.00667766999396,None,314.00667766999396,None,314.00667766999396,None,,,,,,,,,,,,,104,2023-04-18_15h16.42.320,Main,2022.1.1,59.98321669037557,
positive,negative,2,l,j,,,,,,,,,5,2,92,14,,,,,,,,,main,1,1,2,negative,positive,l,l,1,0.714989100000821,314.01051189997816,315.0234477999911,315.0067610999977,None,314.01051189997816,None,314.01051189997816,None,314.01051189997816,None,315.7232884700032,None,315.7232884700032,None,315.7232884700032,None,,,,,,,,,,,,,104,2023-04-18_15h16.42.320,Main,2022.1.1,59.98321669037557,
neutral,negative,2,k,k,,,,,,,,,5,3,93,16,,,,,,,,,main,2,2,2,negative,neutral,k,k,1,0.5487329000025056,315.7270953999832,316.73998459998984,316.7233226999815,None,315.7270953999832,None,315.7270953999832,None,315.7270953999832,None,317.2732790699782,None,317.2732790699782,None,317.2732790699782,None,,,,,,,,,,,,,104,2023-04-18_15h16.42.320,Main,2022.1.1,59.98321669037557,
positive,neutral,1,l,j,,,,,,,,,5,4,94,8,,,,,,,,,main,2,2,1,neutral,positive,l,l,1,0.6291980000096373,317.2769667999819,318.2899367999926,318.2733579999767,None,317.2769667999819,None,317.2769667999819,None,317.2769667999819,None,318.90440736998863,None,318.90440736998863,None,318.90440736998863,None,,,,,,,,,,,,,104,2023-04-18_15h16.42.320,Main,2022.1.1,59.98321669037557,
positive,positive,1,l,j,,,,,,,,,5,5,95,2,,,,,,,,,main,1,1,1,positive,positive,l,l,1,0.6647621000010986,318.90812619999633,319.92038149997825,319.9029695999925,None,318.90812619999633,None,318.90812619999633,None,318.90812619999633,None,320.5706491699937,None,320.5706491699937,None,320.5706491699937,None,,,,,,,,,,,,,104,2023-04-18_15h16.42.320,Main,2022.1.1,59.98321669037557,
positive,neutral,2,l,j,,,,,,,,,5,6,96,17,,,,,,,,,main,1,1,2,neutral,positive,l,l,1,0.6483288999879733,320.570854199992,321.57073119998677,321.57073119998677,None,320.570854199992,None,320.570854199992,None,320.570854199992,None,322.22072536998604,None,322.22072536998604,None,322.22072536998604,None,,,,,,,,,,,,,104,2023-04-18_15h16.42.320,Main,2022.1.1,59.98321669037557,
negative,neutral,2,j,l,,,,,,,,,5,7,97,12,,,,,,,,,main,1,1,2,neutral,negative,j,j,1,0.7650145999796223,322.2211965000024,323.2207186000014,323.2207186000014,None,322.2211965000024,None,322.2211965000024,None,322.2211965000024,None,323.98737926999166,None,323.98737926999166,None,323.98737926999166,None,,,,,,,,,,,,,104,2023-04-18_15h16.42.320,Main,2022.1.1,59.98321669037557,
positive,negative,1,l,j,,,,,,,,,5,8,98,5,,,,,,,,,main,2,2,1,negative,positive,l,l,1,0.8156918000022415,323.99318449999555,325.00652229998377,324.989918199979,None,323.99318449999555,None,323.99318449999555,None,323.99318449999555,None,325.80438376997773,None,325.80438376997773,None,325.80438376997773,None,,,,,,,,,,,,,104,2023-04-18_15h16.42.320,Main,2022.1.1,59.98321669037557,
negative,negative,2,j,l,,,,,,,,,5,9,99,9,,,,,,,,,main,1,1,2,negative,negative,j,j,1,0.7815297000051942,325.8079246999987,326.82313919998705,326.8065456999757,None,325.8079246999987,None,325.8079246999987,None,325.8079246999987,None,327.58764096998203,None,327.58764096998203,None,327.58764096998203,None,,,,,,,,,,,,,104,2023-04-18_15h16.42.320,Main,2022.1.1,59.98321669037557,
neutral,neutral,2,k,k,,,,,,,,,5,10,100,10,,,,,,,,,main,2,2,2,neutral,neutral,k,k,1,0.6306486999965273,327.5921260000032,328.6064216999803,328.587618199992,None,327.5921260000032,None,327.5921260000032,None,327.5921260000032,None,329.2206452699873,None,329.2206452699873,None,329.2206452699873,None,,,,,,,,,,,,,104,2023-04-18_15h16.42.320,Main,2022.1.1,59.98321669037557,
positive,positive,2,l,j,,,,,,,,,5,11,101,11,,,,,,,,,main,2,2,2,positive,positive,l,l,1,0.7011511999880895,329.2274747999909,330.23973589998786,330.22316009999486,None,329.2274747999909,None,329.2274747999909,None,329.2274747999909,None,330.9229813699756,None,330.9229813699756,None,330.9229813699756,None,,,,,,,,,,,,,104,2023-04-18_15h16.42.320,Main,2022.1.1,59.98321669037557,
neutral,positive,2,k,k,,,,,,,,,5,12,102,13,,,,,,,,,main,1,1,2,positive,neutral,k,k,1,0.6128466999798547,330.92679559998214,331.9367067999847,331.9195311999938,None,330.92679559998214,None,330.92679559998214,None,330.92679559998214,None,332.5371180699993,None,332.5371180699993,None,332.5371180699993,None,,,,,,,,,,,,,104,2023-04-18_15h16.42.320,Main,2022.1.1,59.98321669037557,
neutral,negative,1,k,k,,,,,,,,,5,13,103,7,,,,,,,,,main,2,2,1,negative,neutral,k,k,1,0.6976011000224389,332.5382596999989,333.55381669997587,333.53714929998387,None,332.5382596999989,None,332.5382596999989,None,332.5382596999989,None,334.23713066999045,None,334.23713066999045,None,334.23713066999045,None,,,,,,,,,,,,,104,2023-04-18_15h16.42.320,Main,2022.1.1,59.98321669037557,
neutral,neutral,1,k,k,,,,,,,,,5,14,104,1,,,,,,,,,main,1,1,1,neutral,neutral,k,k,1,0.5984618999937084,334.24002879997715,335.2538503999822,335.23719259997597,None,334.24002879997715,None,334.24002879997715,None,334.24002879997715,None,335.8371395699767,None,335.8371395699767,None,335.8371395699767,None,,,,,,,,,,,,,104,2023-04-18_15h16.42.320,Main,2022.1.1,59.98321669037557,
negative,negative,1,j,l,,,,,,,,,5,15,105,0,,,,,,,,,main,1,1,1,negative,negative,j,j,1,0.71538400001009,335.8411634999793,336.8563021000009,336.8396212999942,None,335.8411634999793,None,335.8411634999793,None,335.8411634999793,None,337.5540902699839,None,337.5540902699839,None,337.5540902699839,None,,,,,,,,,,,,,104,2023-04-18_15h16.42.320,Main,2022.1.1,59.98321669037557,
negative,positive,2,j,l,,,,,,,,,5,16,106,15,,,,,,,,,main,2,2,2,positive,negative,j,j,1,0.7147305000107735,337.558008699998,338.57301480000024,338.55628339998657,None,337.558008699998,None,337.558008699998,None,337.558008699998,None,339.2704642699944,None,339.2704642699944,None,339.2704642699944,None,,,,,,,,,,,,,104,2023-04-18_15h16.42.320,Main,2022.1.1,59.98321669037557,
neutral,positive,1,k,k,,,,,,,,,5,17,107,4,,,,,,,,,main,2,2,1,positive,neutral,k,k,1,0.7485339999839198,339.2772722999798,340.2895079999871,340.2730006999918,None,339.2772722999798,None,339.2772722999798,None,339.2772722999798,None,341.0205559699942,None,341.0205559699942,None,341.0205559699942,None,,,,,,,,,,,,,104,2023-04-18_15h16.42.320,Main,2022.1.1,59.98321669037557,
negative,negative,2,j,l,,,,,,,,,6,0,108,9,,,,,,,,,main,2,2,2,negative,negative,j,j,1,0.7672794999962207,341.0270339999988,342.0394880999811,342.0228905999975,None,341.0270339999988,None,341.0270339999988,None,341.0270339999988,None,342.7893533699942,None,342.7893533699942,None,342.7893533699942,None,,,,,,,,,,,,,104,2023-04-18_15h16.42.320,Main,2022.1.1,59.98321669037557,
neutral,positive,2,k,k,,,,,,,,,6,1,109,13,,,,,,,,,main,2,2,2,positive,neutral,k,k,1,0.6625689000065904,342.79284879998886,343.806194099976,343.7895367000019,None,342.79284879998886,None,342.79284879998886,None,342.79284879998886,None,344.45351096999076,None,344.45351096999076,None,344.45351096999076,None,,,,,,,,,,,,,104,2023-04-18_15h16.42.320,Main,2022.1.1,59.98321669037557,
negative,neutral,1,j,l,,,,,,,,,6,2,110,3,,,,,,,,,main,2,2,1,neutral,negative,j,j,1,0.781727099994896,344.45355179999024,345.45358489998034,345.45358489998034,None,344.45355179999024,None,344.45355179999024,None,344.45355179999024,None,346.2368924699811,None,346.2368924699811,None,346.2368924699811,None,,,,,,,,,,,,,104,2023-04-18_15h16.42.320,Main,2022.1.1,59.98321669037557,
positive,negative,2,l,j,,,,,,,,,6,3,111,14,,,,,,,,,main,2,2,2,negative,positive,l,l,1,0.7652135000098497,346.2373050999886,347.23690649998025,347.23690649998025,None,346.2373050999886,None,346.2373050999886,None,346.2373050999886,None,348.00354736999435,None,348.00354736999435,None,348.00354736999435,None,,,,,,,,,,,,,104,2023-04-18_15h16.42.320,Main,2022.1.1,59.98321669037557,
neutral,negative,1,k,k,,,,,,,,,6,4,112,7,,,,,,,,,main,1,1,1,negative,neutral,k,k,1,0.6360014000092633,348.00941829997464,349.02269329997944,349.0061182999925,None,348.00941829997464,None,348.00941829997464,None,348.00941829997464,None,349.64097916998145,None,349.64097916998145,None,349.64097916998145,None,,,,,,,,,,,,,104,2023-04-18_15h16.42.320,Main,2022.1.1,59.98321669037557,
negative,neutral,2,j,l,,,,,,,,,6,5,113,12,,,,,,,,,main,1,1,2,neutral,negative,j,j,1,0.6630485999921802,349.64437769999495,350.65601989999413,350.63940960000036,None,349.64437769999495,None,349.64437769999495,None,349.64437769999495,None,351.3059190699976,None,351.3059190699976,None,351.3059190699976,None,,,,,,,,,,,,,104,2023-04-18_15h16.42.320,Main,2022.1.1,59.98321669037557,
neutral,neutral,2,k,k,,,,,,,,,6,6,114,10,,,,,,,,,main,1,1,2,neutral,neutral,k,k,1,0.5796475999813993,351.31007609999506,352.32255449998775,352.3059357999882,None,351.31007609999506,None,351.31007609999506,None,351.31007609999506,None,352.8870779699908,None,352.8870779699908,None,352.8870779699908,None,,,,,,,,,,,,,104,2023-04-18_15h16.42.320,Main,2022.1.1,59.98321669037557,
positive,negative,1,l,j,,,,,,,,,6,7,115,5,,,,,,,,,main,2,2,1,negative,positive,l,l,1,0.6839814999839291,352.891091700003,353.9060391999956,353.88929239998106,None,352.891091700003,None,352.891091700003,None,352.891091700003,None,354.5703671700001,None,354.5703671700001,None,354.5703671700001,None,,,,,,,,,,,,,104,2023-04-18_15h16.42.320,Main,2022.1.1,59.98321669037557,
negative,positive,1,j,l,,,,,,,,,6,8,116,6,,,,,,,,,main,1,1,1,positive,negative,j,j,1,0.7625449000042863,354.5759322999802,355.5891896999965,355.57261869998183,None,354.5759322999802,None,354.5759322999802,None,354.5759322999802,None,356.33666056999647,None,356.33666056999647,None,356.33666056999647,None,,,,,,,,,,,,,104,2023-04-18_15h16.42.320,Main,2022.1.1,59.98321669037557,
positive,neutral,1,l,j,,,,,,,,,6,9,117,8,,,,,,,,,main,1,1,1,neutral,positive,l,l,1,0.7984659999783617,356.336701799999,357.3366761999787,357.3366761999787,None,356.336701799999,None,356.336701799999,None,356.336701799999,None,358.1366481699777,None,358.1366481699777,None,358.1366481699777,None,,,,,,,,,,,,,104,2023-04-18_15h16.42.320,Main,2022.1.1,59.98321669037557,
positive,positive,2,l,j,,,,,,,,,6,10,118,11,,,,,,,,,main,1,1,2,positive,positive,l,l,1,0.7820844000088982,358.1370775999967,359.13666899999953,359.13666899999953,None,358.1370775999967,None,358.1370775999967,None,358.1370775999967,None,359.9199685699976,None,359.9199685699976,None,359.9199685699976,None,,,,,,,,,,,,,104,2023-04-18_15h16.42.320,Main,2022.1.1,59.98321669037557,
negative,positive,2,j,l,,,,,,,,,6,11,119,15,,,,,,,,,main,1,1,2,positive,negative,j,j,1,0.7862610000011045,359.9235077999765,360.9225189999852,360.9225189999852,None,359.9235077999765,None,359.9235077999765,None,359.9235077999765,None,361.7058297699812,None,361.7058297699812,None,361.7058297699812,None,,,,,,,,,,,,,104,2023-04-18_15h16.42.320,Main,2022.1.1,59.98321669037557,
negative,negative,1,j,l,,,,,,,,,6,12,120,0,,,,,,,,,main,2,2,1,negative,negative,j,j,1,0.8635837000038009,361.711521899997,362.72240849997615,362.7058110999933,None,361.711521899997,None,361.711521899997,None,361.711521899997,None,363.57301336998063,None,363.57301336998063,None,363.57301336998063,None,,,,,,,,,,,,,104,2023-04-18_15h16.42.320,Main,2022.1.1,59.98321669037557,
neutral,positive,1,k,k,,,,,,,,,6,13,121,4,,,,,,,,,main,2,2,1,positive,neutral,k,k,1,0.5489892000041436,363.5772556999873,364.58898800000316,364.5723747999873,None,363.5772556999873,None,363.5772556999873,None,363.5772556999873,None,365.11997036999384,None,365.11997036999384,None,365.11997036999384,None,,,,,,,,,,,,,104,2023-04-18_15h16.42.320,Main,2022.1.1,59.98321669037557,
neutral,negative,2,k,k,,,,,,,,,6,14,122,16,,,,,,,,,main,1,1,2,negative,neutral,k,k,1,1.0471342999953777,365.1283039999835,366.1368884999829,366.1223107999831,None,365.1283039999835,None,365.1283039999835,None,365.1283039999835,None,367.17246176997725,None,367.17246176997725,None,367.17246176997725,None,,,,,,,,,,,,,104,2023-04-18_15h16.42.320,Main,2022.1.1,59.98321669037557,
positive,neutral,2,l,j,,,,,,,,,6,15,123,17,,,,,,,,,main,1,1,2,neutral,positive,l,l,1,0.7121928999840748,367.1758989999944,368.1859865000006,368.16884179998306,None,367.1758989999944,None,367.1758989999944,None,367.1758989999944,None,368.8864148699766,None,368.8864148699766,None,368.8864148699766,None,,,,,,,,,,,,,104,2023-04-18_15h16.42.320,Main,2022.1.1,59.98321669037557,
neutral,neutral,1,k,k,,,,,,,,,6,16,124,1,,,,,,,,,main,1,1,1,neutral,neutral,k,k,1,0.5818985000078101,368.8864646999864,369.8865225999907,369.8865225999907,None,368.8864646999864,None,368.8864646999864,None,368.8864646999864,None,370.46974636998203,None,370.46974636998203,None,370.46974636998203,None,,,,,,,,,,,,,104,2023-04-18_15h16.42.320,Main,2022.1.1,59.98321669037557,
positive,positive,1,l,j,,,,,,,,,6,17,125,2,,,,,,,,,main,2,2,1,positive,positive,l,l,1,0.6651452999794856,370.4702583999897,371.469711999991,371.469711999991,None,370.4702583999897,None,370.4702583999897,None,370.4702583999897,None,372.1363491700002,None,372.1363491700002,None,372.1363491700002,None,,,,,,,,,,,,,104,2023-04-18_15h16.42.320,Main,2022.1.1,59.98321669037557,
neutral,negative,2,k,k,,,,,,,,,7,0,126,16,,,,,,,,,main,2,2,2,negative,neutral,k,k,1,0.7157827999908477,372.1399525000015,373.15560739999637,373.13902589998906,None,372.1399525000015,None,372.1399525000015,None,372.1399525000015,None,373.85367336999917,None,373.85367336999917,None,373.85367336999917,None,,,,,,,,,,,,,104,2023-04-18_15h16.42.320,Main,2022.1.1,59.98321669037557,
negative,neutral,2,j,l,,,,,,,,,7,1,127,12,,,,,,,,,main,2,2,2,neutral,negative,j,j,1,0.5811147000058554,373.8602836999926,374.8720797999995,374.85551669998677,None,373.8602836999926,None,373.8602836999926,None,373.8602836999926,None,375.43697626999057,None,375.43697626999057,None,375.43697626999057,None,,,,,,,,,,,,,104,2023-04-18_15h16.42.320,Main,2022.1.1,59.98321669037557,
neutral,neutral,1,k,k,,,,,,,,,7,2,128,1,,,,,,,,,main,1,1,1,neutral,neutral,k,k,1,0.5814397000067402,375.4433719999797,376.45539359998656,376.4388657999807,None,375.4433719999797,None,375.4433719999797,None,375.4433719999797,None,377.0199502699805,None,377.0199502699805,None,377.0199502699805,None,,,,,,,,,,,,,104,2023-04-18_15h16.42.320,Main,2022.1.1,59.98321669037557,
neutral,positive,2,k,k,,,,,,,,,7,3,129,13,,,,,,,,,main,1,1,2,positive,neutral,k,k,1,0.6982692999881692,377.0238550999784,378.03871199997957,378.02220629999647,None,377.0238550999784,None,377.0238550999784,None,377.0238550999784,None,378.7199498699891,None,378.7199498699891,None,378.7199498699891,None,,,,,,,,,,,,,104,2023-04-18_15h16.42.320,Main,2022.1.1,59.98321669037557,
negative,positive,1,j,l,,,,,,,,,7,4,130,6,,,,,,,,,main,2,2,1,positive,negative,j,j,1,0.6977325000043493,378.7366212999914,379.7388594999793,379.7220934999932,None,378.7366212999914,None,378.7366212999914,None,378.7366212999914,None,380.4194327699923,None,380.4194327699923,None,380.4194327699923,None,,,,,,,,,,,,,104,2023-04-18_15h16.42.320,Main,2022.1.1,59.98321669037557,
positive,positive,2,l,j,,,,,,,,,7,5,131,11,,,,,,,,,main,2,2,2,positive,positive,l,l,1,0.6486581999924965,380.42071109998506,381.43621269997675,381.41971499999636,None,380.42071109998506,None,380.42071109998506,None,380.42071109998506,None,382.0694546699786,None,382.0694546699786,None,382.0694546699786,None,,,,,,,,,,,,,104,2023-04-18_15h16.42.320,Main,2022.1.1,59.98321669037557,
neutral,positive,1,k,k,,,,,,,,,7,6,132,4,,,,,,,,,main,2,2,1,positive,neutral,k,k,1,0.6649090000137221,382.0697683999897,383.0695183999778,383.0695183999778,None,382.0697683999897,None,382.0697683999897,None,382.0697683999897,None,383.73615676999617,None,383.73615676999617,None,383.73615676999617,None,,,,,,,,,,,,,104,2023-04-18_15h16.42.320,Main,2022.1.1,59.98321669037557,
negative,negative,1,j,l,,,,,,,,,7,7,133,0,,,,,,,,,main,2,2,1,negative,negative,j,j,1,0.7177482999977656,383.7398756999755,384.7553747999773,384.7388110999891,None,383.7398756999755,None,383.7398756999755,None,383.7398756999755,None,385.45543696998794,None,385.45543696998794,None,385.45543696998794,None,,,,,,,,,,,,,104,2023-04-18_15h16.42.320,Main,2022.1.1,59.98321669037557,
negative,neutral,1,j,l,,,,,,,,,7,8,134,3,,,,,,,,,main,1,1,1,neutral,negative,j,j,1,0.648298199987039,385.45940569997765,386.4719394999847,386.4553394999821,None,385.45940569997765,None,385.45940569997765,None,385.45940569997765,None,387.10533086998913,None,387.10533086998913,None,387.10533086998913,None,,,,,,,,,,,,,104,2023-04-18_15h16.42.320,Main,2022.1.1,59.98321669037557,
neutral,negative,1,k,k,,,,,,,,,7,9,135,7,,,,,,,,,main,1,1,1,negative,neutral,k,k,1,0.628683999995701,387.10966389998794,388.12198259998695,388.10527559998445,None,387.10966389998794,None,387.10966389998794,None,387.10966389998794,None,388.7363809699862,None,388.7363809699862,None,388.7363809699862,None,,,,,,,,,,,,,104,2023-04-18_15h16.42.320,Main,2022.1.1,59.98321669037557,
positive,neutral,1,l,j,,,,,,,,,7,10,136,8,,,,,,,,,main,1,1,1,neutral,positive,l,l,1,0.7484933000232559,388.74027179999393,389.7550867999962,389.73849709998467,None,388.74027179999393,None,388.74027179999393,None,388.74027179999393,None,390.48646836998233,None,390.48646836998233,None,390.48646836998233,None,,,,,,,,,,,,,104,2023-04-18_15h16.42.320,Main,2022.1.1,59.98321669037557,
positive,negative,1,l,j,,,,,,,,,7,11,137,5,,,,,,,,,main,2,2,1,negative,positive,l,l,1,0.7041238000092562,390.4924686999875,391.5052117999876,391.4886278999911,None,390.4924686999875,None,390.4924686999875,None,390.4924686999875,None,392.19230996997504,None,392.19230996997504,None,392.19230996997504,None,,,,,,,,,,,,,104,2023-04-18_15h16.42.320,Main,2022.1.1,59.98321669037557,
negative,positive,2,j,l,,,,,,,,,7,12,138,15,,,,,,,,,main,1,1,2,positive,negative,j,j,1,1.008514400018612,392.20282029997907,393.20258849998936,393.18590459998813,None,392.20282029997907,None,392.20282029997907,None,392.20282029997907,None,394.20255856998557,None,394.20255856998557,None,394.20255856998557,None,,,,,,,,,,,,,104,2023-04-18_15h16.42.320,Main,2022.1.1,59.98321669037557,
negative,negative,2,j,l,,,,,,,,,7,13,139,9,,,,,,,,,main,2,2,2,negative,negative,j,j,1,0.64822770000319,394.20495739998296,395.21928099999786,395.2026106999838,None,394.20495739998296,None,394.20495739998296,None,394.20495739998296,None,395.8525948699942,None,395.8525948699942,None,395.8525948699942,None,,,,,,,,,,,,,104,2023-04-18_15h16.42.320,Main,2022.1.1,59.98321669037557,
positive,neutral,2,l,j,,,,,,,,,7,14,140,17,,,,,,,,,main,1,1,2,neutral,positive,l,l,1,0.6998907999950461,395.85588930000085,396.8550920999842,396.8550920999842,None,395.85588930000085,None,395.85588930000085,None,395.85588930000085,None,397.5538392699935,None,397.5538392699935,None,397.5538392699935,None,,,,,,,,,,,,,104,2023-04-18_15h16.42.320,Main,2022.1.1,59.98321669037557,
neutral,neutral,2,k,k,,,,,,,,,7,15,141,10,,,,,,,,,main,2,2,2,neutral,neutral,k,k,1,0.5642515999788884,397.5598669999745,398.5717757999955,398.5550685999915,None,397.5598669999745,None,397.5598669999745,None,397.5598669999745,None,399.1195101699821,None,399.1195101699821,None,399.1195101699821,None,,,,,,,,,,,,,104,2023-04-18_15h16.42.320,Main,2022.1.1,59.98321669037557,
positive,positive,1,l,j,,,,,,,,,7,16,142,2,,,,,,,,,main,1,1,1,positive,positive,l,l,1,0.6670624999969732,399.12591519998387,400.13824739999836,400.12166509998497,None,399.12591519998387,None,399.12591519998387,None,399.12591519998387,None,400.78824156999764,None,400.78824156999764,None,400.78824156999764,None,,,,,,,,,,,,,104,2023-04-18_15h16.42.320,Main,2022.1.1,59.98321669037557,
positive,negative,2,l,j,,,,,,,,,7,17,143,14,,,,,,,,,main,2,2,2,negative,positive,l,l,1,0.6314249999995809,400.7918197999825,401.8049119999923,401.7883623999951,None,400.7918197999825,None,400.7918197999825,None,400.7918197999825,None,402.4215552700014,None,402.4215552700014,None,402.4215552700014,None,,,,,,,,,,,,,104,2023-04-18_15h16.42.320,Main,2022.1.1,59.98321669037557,
positive,neutral,2,l,j,,,,,,,,,8,0,144,17,,,,,,,,,main,1,1,2,neutral,positive,l,l,1,0.6970201000222005,402.42582539998693,403.4382241999847,403.42160029997467,None,402.42582539998693,None,402.42582539998693,None,402.42582539998693,None,404.1202912699926,None,404.1202912699926,None,404.1202912699926,None,,,,,,,,,,,,,104,2023-04-18_15h16.42.320,Main,2022.1.1,59.98321669037557,
negative,neutral,1,j,l,,,,,,,,,8,1,145,3,,,,,,,,,main,2,2,1,neutral,negative,j,j,1,0.6978384999965783,404.1382074999856,405.15236459998414,405.11904109999887,None,404.1382074999856,None,404.1382074999856,None,404.1382074999856,None,405.8190044699848,None,405.8190044699848,None,405.8190044699848,None,,,,,,,,,,,,,104,2023-04-18_15h16.42.320,Main,2022.1.1,59.98321669037557,
neutral,neutral,2,k,k,,,,,,,,,8,2,146,10,,,,,,,,,main,1,1,2,neutral,neutral,k,k,1,0.5310219000093639,405.8191553999786,406.81904619999113,406.81904619999113,None,405.8191553999786,None,405.8191553999786,None,405.8191553999786,None,407.352320169998,None,407.352320169998,None,407.352320169998,None,,,,,,,,,,,,,104,2023-04-18_15h16.42.320,Main,2022.1.1,59.98321669037557,
negative,positive,2,j,l,,,,,,,,,8,3,147,15,,,,,,,,,main,2,2,2,positive,negative,j,j,1,0.6502597999933641,407.36902329997974,408.36904530000174,408.3524103999953,None,407.36902329997974,None,407.36902329997974,None,407.36902329997974,None,409.0048260699812,None,409.0048260699812,None,409.0048260699812,None,,,,,,,,,,,,,104,2023-04-18_15h16.42.320,Main,2022.1.1,59.98321669037557,
positive,positive,2,l,j,,,,,,,,,8,4,148,11,,,,,,,,,main,1,1,2,positive,positive,l,l,1,0.9465789000096265,409.0078328999807,410.0213960999972,410.0048730999988,None,409.0078328999807,None,409.0078328999807,None,409.0078328999807,None,410.9526986699755,None,410.9526986699755,None,410.9526986699755,None,,,,,,,,,,,,,104,2023-04-18_15h16.42.320,Main,2022.1.1,59.98321669037557,
negative,negative,2,j,l,,,,,,,,,8,5,149,9,,,,,,,,,main,1,1,2,negative,negative,j,j,1,0.700130299985176,410.9564252999844,411.9714062999992,411.9547906999942,None,410.9564252999844,None,410.9564252999844,None,410.9564252999844,None,412.65467256999983,None,412.65467256999983,None,412.65467256999983,None,,,,,,,,,,,,,104,2023-04-18_15h16.42.320,Main,2022.1.1,59.98321669037557,
neutral,neutral,1,k,k,,,,,,,,,8,6,150,1,,,,,,,,,main,2,2,1,neutral,neutral,k,k,1,0.4983551999903284,412.6576300000015,413.67135899999994,413.6547467999917,None,412.6576300000015,None,412.6576300000015,None,412.6576300000015,None,414.15460966998654,None,414.15460966998654,None,414.15460966998654,None,,,,,,,,,,,,,104,2023-04-18_15h16.42.320,Main,2022.1.1,59.98321669037557,
neutral,negative,2,k,k,,,,,,,,,8,7,151,16,,,,,,,,,main,2,2,2,negative,neutral,k,k,1,0.5797678999952041,414.1575909999956,415.1714399999764,415.15471360000083,None,414.1575909999956,None,414.1575909999956,None,414.1575909999956,None,415.7358348699898,None,415.7358348699898,None,415.7358348699898,None,,,,,,,,,,,,,104,2023-04-18_15h16.42.320,Main,2022.1.1,59.98321669037557,
neutral,positive,1,k,k,,,,,,,,,8,8,152,4,,,,,,,,,main,1,1,1,positive,neutral,k,k,1,0.5812567999819294,415.7396271999751,416.75207409998984,416.7354623999854,None,415.7396271999751,None,415.7396271999751,None,415.7396271999751,None,417.3187705699791,None,417.3187705699791,None,417.3187705699791,None,,,,,,,,,,,,,104,2023-04-18_15h16.42.320,Main,2022.1.1,59.98321669037557,
positive,negative,2,l,j,,,,,,,,,8,9,153,14,,,,,,,,,main,1,1,2,negative,positive,l,l,1,0.6819765999971423,417.31873279999127,418.31879979997757,418.31879979997757,None,417.31873279999127,None,417.31873279999127,None,417.31873279999127,None,419.00210086998123,None,419.00210086998123,None,419.00210086998123,None,,,,,,,,,,,,,104,2023-04-18_15h16.42.320,Main,2022.1.1,59.98321669037557,
negative,positive,1,j,l,,,,,,,,,8,10,154,6,,,,,,,,,main,2,2,1,positive,negative,j,j,1,0.6486090999969747,419.00327349998406,420.01880179997534,420.00211760000093,None,419.00327349998406,None,419.00327349998406,None,419.00327349998406,None,420.6522159699787,None,420.6522159699787,None,420.6522159699787,None,,,,,,,,,,,,,104,2023-04-18_15h16.42.320,Main,2022.1.1,59.98321669037557,
negative,neutral,2,j,l,,,,,,,,,8,11,155,12,,,,,,,,,main,2,2,2,neutral,negative,j,j,1,0.6315460999903735,420.65633579998394,421.67126839997945,421.6545710999926,None,420.65633579998394,None,420.65633579998394,None,420.65633579998394,None,422.28572436998076,None,422.28572436998076,None,422.28572436998076,None,,,,,,,,,,,,,104,2023-04-18_15h16.42.320,Main,2022.1.1,59.98321669037557,
negative,negative,1,j,l,,,,,,,,,8,12,156,0,,,,,,,,,main,1,1,1,negative,negative,j,j,1,0.46491000000969507,422.28928869997617,423.3045127999794,423.2879197000002,None,422.28928869997617,None,422.28928869997617,None,422.28928869997617,None,423.7523604699789,None,423.7523604699789,None,423.7523604699789,None,,,,,,,,,,,,,104,2023-04-18_15h16.42.320,Main,2022.1.1,59.98321669037557,
positive,neutral,1,l,j,,,,,,,,,8,13,157,8,,,,,,,,,main,2,2,1,neutral,positive,l,l,1,0.6006559999950696,423.75581159998546,424.77112759999,424.7521676000033,None,423.75581159998546,None,423.75581159998546,None,423.75581159998546,None,425.35444026998886,None,425.35444026998886,None,425.35444026998886,None,,,,,,,,,,,,,104,2023-04-18_15h16.42.320,Main,2022.1.1,59.98321669037557,
neutral,positive,2,k,k,,,,,,,,,8,14,158,13,,,,,,,,,main,2,2,2,positive,neutral,k,k,1,0.5649130999809131,425.3582657999941,426.37108969999827,426.3544783999969,None,425.3582657999941,None,425.3582657999941,None,425.3582657999941,None,426.92103306998325,None,426.92103306998325,None,426.92103306998325,None,,,,,,,,,,,,,104,2023-04-18_15h16.42.320,Main,2022.1.1,59.98321669037557,
neutral,negative,1,k,k,,,,,,,,,8,15,159,7,,,,,,,,,main,2,2,1,negative,neutral,k,k,1,0.5289621000119951,426.9243835999805,427.9377834999759,427.9212065000029,None,426.9243835999805,None,426.9243835999805,None,426.9243835999805,None,428.4515620699938,None,428.4515620699938,None,428.4515620699938,None,,,,,,,,,,,,,104,2023-04-18_15h16.42.320,Main,2022.1.1,59.98321669037557,
positive,positive,1,l,j,,,,,,,,,8,16,160,2,,,,,,,,,main,2,2,1,positive,positive,l,l,1,0.7828567999822553,428.4672262999811,429.46853769998415,429.45187419999274,None,428.4672262999811,None,428.4672262999811,None,428.4672262999811,None,430.2351341699803,None,430.2351341699803,None,430.2351341699803,None,,,,,,,,,,,,,104,2023-04-18_15h16.42.320,Main,2022.1.1,59.98321669037557,
positive,negative,1,l,j,,,,,,,,,8,17,161,5,,,,,,,,,main,2,2,1,negative,positive,l,l,1,0.6143991000135429,430.23648679998587,431.2518405999872,431.23519169999054,None,430.23648679998587,None,430.23648679998587,None,430.23648679998587,None,431.8518590699794,None,431.8518590699794,None,431.8518590699794,None,,,,,,,,,,,,,104,2023-04-18_15h16.42.320,Main,2022.1.1,59.98321669037557,
positive,negative,2,l,j,,,,,,,,,9,0,162,14,,,,,,,,,main,1,1,2,negative,positive,l,l,1,0.717285599996103,431.8558220999839,432.8709959999833,432.8544182999758,None,431.8558220999839,None,431.8558220999839,None,431.8558220999839,None,433.5709327699995,None,433.5709327699995,None,433.5709327699995,None,,,,,,,,,,,,,104,2023-04-18_15h16.42.320,Main,2022.1.1,59.98321669037557,
negative,positive,2,j,l,,,,,,,,,9,1,163,15,,,,,,,,,main,2,2,2,positive,negative,j,j,1,0.6789680999936536,433.5748346999753,434.58771789999446,434.5710167999787,None,433.5748346999753,None,433.5748346999753,None,433.5748346999753,None,435.2517465699901,None,435.2517465699901,None,435.2517465699901,None,,,,,,,,,,,,,104,2023-04-18_15h16.42.320,Main,2022.1.1,59.98321669037557,
neutral,positive,2,k,k,,,,,,,,,9,2,164,13,,,,,,,,,main,1,1,2,positive,neutral,k,k,1,0.7320134000037797,435.25826669999515,436.27093319999403,436.2543607999978,None,435.25826669999515,None,435.25826669999515,None,435.25826669999515,None,436.98535006999447,None,436.98535006999447,None,436.98535006999447,None,,,,,,,,,,,,,104,2023-04-18_15h16.42.320,Main,2022.1.1,59.98321669037557,
positive,positive,1,l,j,,,,,,,,,9,3,165,2,,,,,,,,,main,2,2,1,positive,positive,l,l,1,0.6827504000102635,436.9920180999907,438.00423629998113,437.9876527999877,None,436.9920180999907,None,436.9920180999907,None,436.9920180999907,None,438.6696373699786,None,438.6696373699786,None,438.6696373699786,None,,,,,,,,,,,,,104,2023-04-18_15h16.42.320,Main,2022.1.1,59.98321669037557,
positive,neutral,2,l,j,,,,,,,,,9,4,166,17,,,,,,,,,main,2,2,2,neutral,positive,l,l,1,0.7137456000200473,438.6754888999858,439.68746210000245,439.67088599997805,None,438.6754888999858,None,438.6754888999858,None,438.6754888999858,None,440.3848973699758,None,440.3848973699758,None,440.3848973699758,None,,,,,,,,,,,,,104,2023-04-18_15h16.42.320,Main,2022.1.1,59.98321669037557,
negative,negative,2,j,l,,,,,,,,,9,5,167,9,,,,,,,,,main,2,2,2,negative,negative,j,j,1,0.7311407000233885,440.3854260999942,441.3849629999895,441.3849629999895,None,440.3854260999942,None,440.3854260999942,None,440.3854260999942,None,442.118306569985,None,442.118306569985,None,442.118306569985,None,,,,,,,,,,,,,104,2023-04-18_15h16.42.320,Main,2022.1.1,59.98321669037557,
neutral,positive,1,k,k,,,,,,,,,9,6,168,4,,,,,,,,,main,1,1,1,positive,neutral,k,k,1,0.681794300006004,442.1217086999968,443.13739160000114,443.12081989998114,None,442.1217086999968,None,442.1217086999968,None,442.1217086999968,None,443.80159776998045,None,443.80159776998045,None,443.80159776998045,None,,,,,,,,,,,,,104,2023-04-18_15h16.42.320,Main,2022.1.1,59.98321669037557,
neutral,negative,1,k,k,,,,,,,,,9,7,169,7,,,,,,,,,main,2,2,1,negative,neutral,k,k,1,0.5820096999814268,443.80624459998216,444.8208141999785,444.804181399988,None,443.80624459998216,None,443.80624459998216,None,443.80624459998216,None,445.38524346999185,None,445.38524346999185,None,445.38524346999185,None,,,,,,,,,,,,,104,2023-04-18_15h16.42.320,Main,2022.1.1,59.98321669037557,
negative,neutral,1,j,l,,,,,,,,,9,8,170,3,,,,,,,,,main,2,2,1,neutral,negative,j,j,1,0.7315898000088055,445.3912728999858,446.40198349999264,446.3875171999971,None,445.3912728999858,None,445.3912728999858,None,445.3912728999858,None,447.11855276999705,None,447.11855276999705,None,447.11855276999705,None,,,,,,,,,,,,,104,2023-04-18_15h16.42.320,Main,2022.1.1,59.98321669037557,
positive,negative,1,l,j,,,,,,,,,9,9,171,5,,,,,,,,,main,1,1,1,negative,positive,l,l,1,0.6172213000245392,447.1244377999974,448.1373158999777,448.1206597999844,None,447.1244377999974,None,447.1244377999974,None,447.1244377999974,None,448.73733506997525,None,448.73733506997525,None,448.73733506997525,None,,,,,,,,,,,,,104,2023-04-18_15h16.42.320,Main,2022.1.1,59.98321669037557,
negative,neutral,2,j,l,,,,,,,,,9,10,172,12,,,,,,,,,main,1,1,2,neutral,negative,j,j,1,0.7288023000000976,448.7417033999809,449.7540286000003,449.73742499999935,None,448.7417033999809,None,448.7417033999809,None,448.7417033999809,None,450.4680893699959,None,450.4680893699959,None,450.4680893699959,None,,,,,,,,,,,,,104,2023-04-18_15h16.42.320,Main,2022.1.1,59.98321669037557,
positive,neutral,1,l,j,,,,,,,,,9,11,173,8,,,,,,,,,main,2,2,1,neutral,positive,l,l,1,0.6821748999936972,450.4686296999862,451.4680974999792,451.4680974999792,None,450.4686296999862,None,450.4686296999862,None,450.4686296999862,None,452.15142236998946,None,452.15142236998946,None,452.15142236998946,None,,,,,,,,,,,,,104,2023-04-18_15h16.42.320,Main,2022.1.1,59.98321669037557,
neutral,neutral,1,k,k,,,,,,,,,9,12,174,1,,,,,,,,,main,2,2,1,neutral,neutral,k,k,1,0.6653563999861944,452.1567810999986,453.1706079999858,453.15391459999955,None,452.1567810999986,None,452.1567810999986,None,452.1567810999986,None,453.8184026700008,None,453.8184026700008,None,453.8184026700008,None,,,,,,,,,,,,,104,2023-04-18_15h16.42.320,Main,2022.1.1,59.98321669037557,
positive,positive,2,l,j,,,,,,,,,9,13,175,11,,,,,,,,,main,2,2,2,positive,positive,l,k,0,0.7004666999855544,453.8223256999918,454.83718079997925,454.8206175999949,None,453.8223256999918,None,453.8223256999918,None,453.8223256999918,None,455.5205852999934,None,455.5205852999934,None,455.5205852999934,None,,,,,,,,,,,,,104,2023-04-18_15h16.42.320,Main,2022.1.1,59.98321669037557,
neutral,neutral,2,k,k,,,,,,,,,9,14,176,10,,,,,,,,,main,2,2,2,neutral,neutral,k,k,1,0.6848951999854762,456.5191327999928,457.5205919999862,457.50393589999294,None,456.5191327999928,None,456.5191327999928,None,456.5191327999928,None,458.2017100699857,None,458.2017100699857,None,458.2017100699857,None,,,,,,,,,,,,,104,2023-04-18_15h16.42.320,Main,2022.1.1,59.98321669037557,
neutral,negative,2,k,k,,,,,,,,,9,15,177,16,,,,,,,,,main,1,1,2,negative,neutral,k,k,1,0.6145775999757461,458.220410799986,459.2203519999748,459.20376259999466,None,458.220410799986,None,458.220410799986,None,458.220410799986,None,459.81827836998565,None,459.81827836998565,None,459.81827836998565,None,,,,,,,,,,,,,104,2023-04-18_15h16.42.320,Main,2022.1.1,59.98321669037557,
negative,negative,1,j,l,,,,,,,,,9,16,178,0,,,,,,,,,main,1,1,1,negative,negative,j,j,1,0.6980637999949977,459.8222834999906,460.83451849999256,460.8178540999943,None,459.8222834999906,None,459.8222834999906,None,459.8222834999906,None,461.5178462699958,None,461.5178462699958,None,461.5178462699958,None,,,,,,,,,,,,,104,2023-04-18_15h16.42.320,Main,2022.1.1,59.98321669037557,
negative,positive,1,j,l,,,,,,,,,9,17,179,6,,,,,,,,,main,1,1,1,positive,negative,j,j,1,0.7507583999831695,461.51785219999147,462.5179372999992,462.5179372999992,None,461.51785219999147,None,461.51785219999147,None,461.51785219999147,None,463.27037367000304,None,463.27037367000304,None,463.27037367000304,None,,,,,,,,,,,,,104,2023-04-18_15h16.42.320,Main,2022.1.1,59.98321669037557,
positive,positive,1,l,j,,,,,,,,,10,0,180,2,,,,,,,,,main,1,1,1,positive,positive,l,l,1,0.6484611000050791,463.27448829999776,464.2870319999929,464.27043899998534,None,463.27448829999776,None,463.27448829999776,None,463.27448829999776,None,464.92028896999255,None,464.92028896999255,None,464.92028896999255,None,,,,,,,,,,,,,104,2023-04-18_15h16.42.320,Main,2022.1.1,59.98321669037557,
positive,neutral,2,l,j,,,,,,,,,10,1,181,17,,,,,,,,,main,2,2,2,neutral,positive,l,l,1,0.748489099991275,464.9270298999909,465.93696999998065,465.92045549998875,None,464.9270298999909,None,464.9270298999909,None,464.9270298999909,None,466.6702428699908,None,466.6702428699908,None,466.6702428699908,None,,,,,,,,,,,,,104,2023-04-18_15h16.42.320,Main,2022.1.1,59.98321669037557,
neutral,positive,1,k,k,,,,,,,,,10,2,182,4,,,,,,,,,main,2,2,1,positive,neutral,k,k,1,0.6627451000094879,466.6740674999892,467.68692989999545,467.6703112999967,None,466.6740674999892,None,466.6740674999892,None,466.6740674999892,None,468.33477376997763,None,468.33477376997763,None,468.33477376997763,None,,,,,,,,,,,,,104,2023-04-18_15h16.42.320,Main,2022.1.1,59.98321669037557,
negative,negative,2,j,l,,,,,,,,,10,3,183,9,,,,,,,,,main,1,1,2,negative,negative,j,j,1,0.767102599987993,468.33836009999504,469.35360859998036,469.33698959997855,None,468.33836009999504,None,468.33836009999504,None,468.33836009999504,None,470.1035513700015,None,470.1035513700015,None,470.1035513700015,None,,,,,,,,,,,,,104,2023-04-18_15h16.42.320,Main,2022.1.1,59.98321669037557,
positive,negative,2,l,j,,,,,,,,,10,4,184,14,,,,,,,,,main,2,2,2,negative,positive,l,l,1,0.7126426000031643,470.10687659998075,471.1176531999954,471.10099189999164,None,470.10687659998075,None,470.10687659998075,None,470.10687659998075,None,471.8176132699853,None,471.8176132699853,None,471.8176132699853,None,,,,,,,,,,,,,104,2023-04-18_15h16.42.320,Main,2022.1.1,59.98321669037557,
neutral,positive,2,k,k,,,,,,,,,10,5,185,13,,,,,,,,,main,1,1,2,positive,neutral,k,k,1,0.7482487999950536,471.8180050999799,472.8176936999953,472.8176936999953,None,471.8180050999799,None,471.8180050999799,None,471.8180050999799,None,473.5676474699838,None,473.5676474699838,None,473.5676474699838,None,,,,,,,,,,,,,104,2023-04-18_15h16.42.320,Main,2022.1.1,59.98321669037557,
positive,positive,2,l,j,,,,,,,,,10,6,186,11,,,,,,,,,main,1,1,2,positive,positive,l,l,1,0.9823549999855459,473.5684457999887,474.56768369997735,474.56768369997735,None,473.5684457999887,None,473.5684457999887,None,473.5684457999887,None,475.5513880699844,None,475.5513880699844,None,475.5513880699844,None,,,,,,,,,,,,,104,2023-04-18_15h16.42.320,Main,2022.1.1,59.98321669037557,
positive,neutral,1,l,j,,,,,,,,,10,7,187,8,,,,,,,,,main,2,2,1,neutral,positive,l,l,1,0.7647501000028569,475.55521669998416,476.5700986000011,476.5535174999968,None,475.55521669998416,None,475.55521669998416,None,475.55521669998416,None,477.31792236998155,None,477.31792236998155,None,477.31792236998155,None,,,,,,,,,,,,,104,2023-04-18_15h16.42.320,Main,2022.1.1,59.98321669037557,
neutral,neutral,1,k,k,,,,,,,,,10,8,188,1,,,,,,,,,main,1,1,1,neutral,neutral,k,k,1,0.5980900000140537,477.3212568000017,478.3368139999802,478.32012789999135,None,477.3212568000017,None,477.3212568000017,None,477.3212568000017,None,478.917545770001,None,478.917545770001,None,478.917545770001,None,,,,,,,,,,,,,104,2023-04-18_15h16.42.320,Main,2022.1.1,59.98321669037557,
neutral,negative,2,k,k,,,,,,,,,10,9,189,16,,,,,,,,,main,2,2,2,negative,neutral,k,k,1,0.7010998000041582,478.92119470000034,479.9367170999758,479.9201133000024,None,478.92119470000034,None,478.92119470000034,None,478.92119470000034,None,480.61996357000027,None,480.61996357000027,None,480.61996357000027,None,,,,,,,,,,,,,104,2023-04-18_15h16.42.320,Main,2022.1.1,59.98321669037557,
negative,neutral,2,j,l,,,,,,,,,10,10,190,12,,,,,,,,,main,1,1,2,neutral,negative,j,j,1,0.7282309999864083,480.6244882999745,481.63658540000324,481.6200215999852,None,480.6244882999745,None,480.6244882999745,None,480.6244882999745,None,482.35109496998194,None,482.35109496998194,None,482.35109496998194,None,,,,,,,,,,,,,104,2023-04-18_15h16.42.320,Main,2022.1.1,59.98321669037557,
negative,negative,1,j,l,,,,,,,,,10,11,191,0,,,,,,,,,main,1,1,1,negative,negative,j,j,1,0.6974815999856219,482.35709939998924,483.3673940000008,483.3507353999885,None,482.35709939998924,None,482.35709939998924,None,482.35709939998924,None,484.05067976997526,None,484.05067976997526,None,484.05067976997526,None,,,,,,,,,,,,,104,2023-04-18_15h16.42.320,Main,2022.1.1,59.98321669037557,
neutral,negative,1,k,k,,,,,,,,,10,12,192,7,,,,,,,,,main,1,1,1,negative,neutral,k,k,1,0.66530849999981,484.051387399988,485.05076149999513,485.05076149999513,None,484.051387399988,None,484.051387399988,None,484.051387399988,None,485.7174002699874,None,485.7174002699874,None,485.7174002699874,None,,,,,,,,,,,,,104,2023-04-18_15h16.42.320,Main,2022.1.1,59.98321669037557,
negative,positive,1,j,l,,,,,,,,,10,13,193,6,,,,,,,,,main,1,1,1,positive,negative,j,j,1,0.7842545000021346,485.7183502999833,486.71744119998766,486.71744119998766,None,485.7183502999833,None,485.7183502999833,None,485.7183502999833,None,487.5034506699856,None,487.5034506699856,None,487.5034506699856,None,,,,,,,,,,,,,104,2023-04-18_15h16.42.320,Main,2022.1.1,59.98321669037557,
negative,neutral,1,j,l,,,,,,,,,10,14,194,3,,,,,,,,,main,2,2,1,neutral,negative,j,j,1,0.6985152999986894,487.5082168999943,488.51996679999866,488.50325650000013,None,487.5082168999943,None,487.5082168999943,None,487.5082168999943,None,489.20344686999744,None,489.20344686999744,None,489.20344686999744,None,,,,,,,,,,,,,104,2023-04-18_15h16.42.320,Main,2022.1.1,59.98321669037557,
neutral,neutral,2,k,k,,,,,,,,,10,15,195,10,,,,,,,,,main,2,2,2,neutral,neutral,k,k,1,0.7969042000186164,489.20722620000015,490.21991600000183,490.20330599998124,None,489.20722620000015,None,489.20722620000015,None,489.20722620000015,None,491.00101006999904,None,491.00101006999904,None,491.00101006999904,None,,,,,,,,,,,,,104,2023-04-18_15h16.42.320,Main,2022.1.1,59.98321669037557,
positive,negative,1,l,j,,,,,,,,,10,16,196,5,,,,,,,,,main,2,2,1,negative,positive,l,l,1,0.7317636999941897,491.0078355000005,492.0198841999809,492.003173199977,None,491.0078355000005,None,491.0078355000005,None,491.0078355000005,None,492.7343072699994,None,492.7343072699994,None,492.7343072699994,None,,,,,,,,,,,,,104,2023-04-18_15h16.42.320,Main,2022.1.1,59.98321669037557,
negative,positive,2,j,l,,,,,,,,,10,17,197,15,,,,,,,,,main,1,1,2,positive,negative,j,j,1,0.7471133999933954,492.73911110000336,493.7531602999952,493.73646849999204,None,492.73911110000336,None,492.73911110000336,None,492.73911110000336,None,494.4842672699859,None,494.4842672699859,None,494.4842672699859,None,,,,,,,,,,,,,104,2023-04-18_15h16.42.320,Main,2022.1.1,59.98321669037557,
positive,positive,1,l,j,,,,,,,,,11,0,198,2,,,,,,,,,main,2,2,1,positive,positive,l,l,1,0.8647148000018205,494.4880506999907,495.5005011999747,495.4838324000011,None,494.4880506999907,None,494.4880506999907,None,494.4880506999907,None,496.35044246999024,None,496.35044246999024,None,496.35044246999024,None,,,,,,,,,,,,,104,2023-04-18_15h16.42.320,Main,2022.1.1,59.98321669037557,
positive,negative,2,l,j,,,,,,,,,11,1,199,14,,,,,,,,,main,1,1,2,negative,positive,l,l,1,1.0317765999934636,496.3504863999842,497.35052119998727,497.35052119998727,None,496.3504863999842,None,496.3504863999842,None,496.3504863999842,None,498.38380676999515,None,498.38380676999515,None,498.38380676999515,None,,,,,,,,,,,,,104,2023-04-18_15h16.42.320,Main,2022.1.1,59.98321669037557,
positive,positive,2,l,j,,,,,,,,,11,2,200,11,,,,,,,,,main,2,2,2,positive,positive,l,l,1,0.6821425000089221,498.40053669997724,499.40306929999497,499.38638229999924,None,498.40053669997724,None,498.40053669997724,None,498.40053669997724,None,500.0674818700034,None,500.0674818700034,None,500.0674818700034,None,,,,,,,,,,,,,104,2023-04-18_15h16.42.320,Main,2022.1.1,59.98321669037557,
negative,negative,1,j,l,,,,,,,,,11,3,201,0,,,,,,,,,main,2,2,1,negative,negative,j,j,1,0.8159543999936432,500.07109839998884,501.0862492999877,501.06964789997437,None,500.07109839998884,None,500.07109839998884,None,500.07109839998884,None,501.8841098699748,None,501.8841098699748,None,501.8841098699748,None,,,,,,,,,,,,,104,2023-04-18_15h16.42.320,Main,2022.1.1,59.98321669037557,
negative,neutral,1,j,l,,,,,,,,,11,4,202,3,,,,,,,,,main,1,1,1,neutral,negative,j,j,1,0.7661174999957439,501.8888850999938,502.90291069998057,502.88627339998493,None,501.8888850999938,None,501.8888850999938,None,501.8888850999938,None,503.65280576998776,None,503.65280576998776,None,503.65280576998776,None,,,,,,,,,,,,,104,2023-04-18_15h16.42.320,Main,2022.1.1,59.98321669037557,
neutral,positive,2,k,k,,,,,,,,,11,5,203,13,,,,,,,,,main,2,2,2,positive,neutral,k,k,1,0.6153730000078212,503.6564356999879,504.6696186999907,504.6529496999865,None,503.6564356999879,None,503.6564356999879,None,503.6564356999879,None,505.2694997699844,None,505.2694997699844,None,505.2694997699844,None,,,,,,,,,,,,,104,2023-04-18_15h16.42.320,Main,2022.1.1,59.98321669037557,
neutral,negative,1,k,k,,,,,,,,,11,6,204,7,,,,,,,,,main,2,2,1,negative,neutral,k,k,1,0.6333893999981228,505.27282189999823,506.2862266000011,506.2696259999939,None,505.27282189999823,None,505.27282189999823,None,505.27282189999823,None,506.9046415699966,None,506.9046415699966,None,506.9046415699966,None,,,,,,,,,,,,,104,2023-04-18_15h16.42.320,Main,2022.1.1,59.98321669037557,
positive,neutral,1,l,j,,,,,,,,,11,7,205,8,,,,,,,,,main,2,2,1,neutral,positive,l,l,1,0.9272664000163786,506.9170974000008,507.9169565999764,507.90028959998745,None,506.9170974000008,None,506.9170974000008,None,506.9170974000008,None,508.83357836998476,None,508.83357836998476,None,508.83357836998476,None,,,,,,,,,,,,,104,2023-04-18_15h16.42.320,Main,2022.1.1,59.98321669037557,
positive,negative,1,l,j,,,,,,,,,11,8,206,5,,,,,,,,,main,2,2,1,negative,positive,l,l,1,0.5150188999832608,508.83403830000316,509.83361269999295,509.83361269999295,None,508.83403830000316,None,508.83403830000316,None,508.83403830000316,None,510.3502322699904,None,510.3502322699904,None,510.3502322699904,None,,,,,,,,,,,,,104,2023-04-18_15h16.42.320,Main,2022.1.1,59.98321669037557,
negative,neutral,2,j,l,,,,,,,,,11,9,207,12,,,,,,,,,main,1,1,2,neutral,negative,j,j,1,0.7507954999746289,510.35139809999964,511.3669243999757,511.35025859999587,None,510.35139809999964,None,510.35139809999964,None,510.35139809999964,None,512.1028697699919,None,512.1028697699919,None,512.1028697699919,None,,,,,,,,,,,,,104,2023-04-18_15h16.42.320,Main,2022.1.1,59.98321669037557,
negative,positive,2,j,l,,,,,,,,,11,10,208,15,,,,,,,,,main,2,2,2,positive,negative,j,j,1,0.5315532999811694,512.1076474000001,513.119469199999,513.1028388999985,None,512.1076474000001,None,512.1076474000001,None,512.1076474000001,None,513.6359128699958,None,513.6359128699958,None,513.6359128699958,None,,,,,,,,,,,,,104,2023-04-18_15h16.42.320,Main,2022.1.1,59.98321669037557,
negative,negative,2,j,l,,,,,,,,,11,11,209,9,,,,,,,,,main,2,2,2,negative,negative,j,j,1,0.729566199996043,513.6391811999783,514.6526543999789,514.636045399995,None,513.6391811999783,None,513.6391811999783,None,513.6391811999783,None,515.3671178699849,None,515.3671178699849,None,515.3671178699849,None,,,,,,,,,,,,,104,2023-04-18_15h16.42.320,Main,2022.1.1,59.98321669037557,
negative,positive,1,j,l,,,,,,,,,11,12,210,6,,,,,,,,,main,1,1,1,positive,negative,j,j,1,0.7506544000061695,515.3729776999971,516.3858870999829,516.3692974000005,None,515.3729776999971,None,515.3729776999971,None,515.3729776999971,None,517.1192421699786,None,517.1192421699786,None,517.1192421699786,None,,,,,,,,,,,,,104,2023-04-18_15h16.42.320,Main,2022.1.1,59.98321669037557,
neutral,neutral,1,k,k,,,,,,,,,11,13,211,1,,,,,,,,,main,1,1,1,neutral,neutral,k,k,1,0.7128594000241719,517.1232861999888,518.1359041999967,518.1193571999902,None,517.1232861999888,None,517.1232861999888,None,517.1232861999888,None,518.8337122699857,None,518.8337122699857,None,518.8337122699857,None,,,,,,,,,,,,,104,2023-04-18_15h16.42.320,Main,2022.1.1,59.98321669037557,
neutral,neutral,2,k,k,,,,,,,,,11,14,212,10,,,,,,,,,main,2,2,2,neutral,neutral,k,k,1,0.5649631999840494,518.8396605000016,519.8500203999865,519.8333436999819,None,518.8396605000016,None,518.8396605000016,None,518.8396605000016,None,520.399997169993,None,520.399997169993,None,520.399997169993,None,,,,,,,,,,,,,104,2023-04-18_15h16.42.320,Main,2022.1.1,59.98321669037557,
neutral,negative,2,k,k,,,,,,,,,11,15,213,16,,,,,,,,,main,2,2,2,negative,neutral,k,k,1,1.0979468000005,520.4005873999849,521.4000220999878,521.4000220999878,None,520.4005873999849,None,520.4005873999849,None,520.4005873999849,None,522.4999810699926,None,522.4999810699926,None,522.4999810699926,None,,,,,,,,,,,,,104,2023-04-18_15h16.42.320,Main,2022.1.1,59.98321669037557,
positive,neutral,2,l,j,,,,,,,,,11,16,214,17,,,,,,,,,main,2,2,2,neutral,positive,l,l,1,0.7174884999985807,522.5005526999885,523.5025236999791,523.5025236999791,None,522.5005526999885,None,522.5005526999885,None,522.5005526999885,None,524.2190460699755,None,524.2190460699755,None,524.2190460699755,None,,,,,,,,,,,,,104,2023-04-18_15h16.42.320,Main,2022.1.1,59.98321669037557,
neutral,positive,1,k,k,,,,,,,,,11,17,215,4,,,,,,,,,main,2,2,1,positive,neutral,k,k,1,0.7971142000169493,524.2221489999793,525.235777599999,525.2191684999852,None,524.2221489999793,None,524.2221489999793,None,524.2221489999793,None,526.0166995699954,None,526.0166995699954,None,526.0166995699954,None,,,,,,,,,,,,,104,2023-04-18_15h16.42.320,Main,2022.1.1,59.98321669037557,
negative,neutral,1,j,l,,,,,,,,,12,0,216,3,,,,,,,,,main,1,1,1,neutral,negative,j,j,1,0.8641317999863531,526.0213087000011,527.035768599977,527.0190727000008,None,526.0213087000011,None,526.0213087000011,None,526.0213087000011,None,527.8835715699795,None,527.8835715699795,None,527.8835715699795,None,,,,,,,,,,,,,104,2023-04-18_15h16.42.320,Main,2022.1.1,59.98321669037557,
negative,negative,1,j,l,,,,,,,,,12,1,217,0,,,,,,,,,main,1,1,1,negative,negative,j,j,1,0.6341564000176731,527.8873371999944,528.9024296999851,528.8857841999852,None,527.8873371999944,None,527.8873371999944,None,527.8873371999944,None,529.5191272700001,None,529.5191272700001,None,529.5191272700001,None,,,,,,,,,,,,,104,2023-04-18_15h16.42.320,Main,2022.1.1,59.98321669037557,
negative,positive,1,j,l,,,,,,,,,12,2,218,6,,,,,,,,,main,2,2,1,positive,negative,j,j,1,0.6121618000033777,529.5229606999783,530.5327183999761,530.5156318999943,None,529.5229606999783,None,529.5229606999783,None,529.5229606999783,None,531.1330726699932,None,531.1330726699932,None,531.1330726699932,None,,,,,,,,,,,,,104,2023-04-18_15h16.42.320,Main,2022.1.1,59.98321669037557,
positive,positive,2,l,j,,,,,,,,,12,3,219,11,,,,,,,,,main,2,2,2,positive,positive,l,l,1,0.7485752000065986,531.1330990999995,532.1331138999958,532.1331138999958,None,531.1330990999995,None,531.1330990999995,None,531.1330990999995,None,532.8831153699982,None,532.8831153699982,None,532.8831153699982,None,,,,,,,,,,,,,104,2023-04-18_15h16.42.320,Main,2022.1.1,59.98321669037557,
neutral,negative,2,k,k,,,,,,,,,12,4,220,16,,,,,,,,,main,2,2,2,negative,neutral,k,k,1,0.665279599983478,532.8923186999746,533.9022503999877,533.8856522999995,None,532.8923186999746,None,532.8923186999746,None,532.8923186999746,None,534.5500146699749,None,534.5500146699749,None,534.5500146699749,None,,,,,,,,,,,,,104,2023-04-18_15h16.42.320,Main,2022.1.1,59.98321669037557,
positive,neutral,2,l,j,,,,,,,,,12,5,221,17,,,,,,,,,main,2,2,2,neutral,positive,l,l,1,0.8005448000039905,534.5564962999779,535.5689017999975,535.5522802999767,None,534.5564962999779,None,534.5564962999779,None,534.5564962999779,None,536.3521484700002,None,536.3521484700002,None,536.3521484700002,None,,,,,,,,,,,,,104,2023-04-18_15h16.42.320,Main,2022.1.1,59.98321669037557,
neutral,neutral,1,k,k,,,,,,,,,12,6,222,1,,,,,,,,,main,2,2,1,neutral,neutral,k,k,1,0.7799864000116941,536.356229899975,537.3690084999835,537.352264599991,None,536.356229899975,None,536.356229899975,None,536.356229899975,None,538.1336520699813,None,538.1336520699813,None,538.1336520699813,None,,,,,,,,,,,,,104,2023-04-18_15h16.42.320,Main,2022.1.1,59.98321669037557,
positive,positive,1,l,j,,,,,,,,,12,7,223,2,,,,,,,,,main,2,2,1,positive,positive,l,l,1,0.7317281999858096,538.1521172999928,539.1521387999819,539.1354683999962,None,538.1521172999928,None,538.1521172999928,None,538.1521172999928,None,539.8666616699745,None,539.8666616699745,None,539.8666616699745,None,,,,,,,,,,,,,104,2023-04-18_15h16.42.320,Main,2022.1.1,59.98321669037557,
positive,neutral,1,l,j,,,,,,,,,12,8,224,8,,,,,,,,,main,1,1,1,neutral,positive,l,l,1,0.6474940999760292,539.8855023999931,540.882893699978,540.8653369999956,None,539.8855023999931,None,539.8855023999931,None,539.8855023999931,None,541.5162333699961,None,541.5162333699961,None,541.5162333699961,None,,,,,,,,,,,,,104,2023-04-18_15h16.42.320,Main,2022.1.1,59.98321669037557,
