target,distractor,set,ans1,ans2,rep_loop2.thisRepN,rep_loop2.thisTrialN,rep_loop2.thisN,rep_loop2.thisIndex,flanker_prac_loop.thisRepN,flanker_prac_loop.thisTrialN,flanker_prac_loop.thisN,flanker_prac_loop.thisIndex,flanker_main_loop.thisRepN,flanker_main_loop.thisTrialN,flanker_main_loop.thisN,flanker_main_loop.thisIndex,fl_inst_resp.keys,fl_inst_resp.rt,sound_1.started,sound_1.stopped,image_4.started,image_4.stopped,back_2.started,back_2.stopped,main_prac,fl_cold,fl_colt,fl_set,fl_dcond,fl_tcond,fl_ans,fl_res,fl_corr,fl_rt,fix_fl.started,fix_fl.stopped,targ.started,targ.stopped,j_button.started,j_button.stopped,k_button.started,k_button.stopped,l_button.started,l_button.stopped,j_button2.started,j_button2.stopped,k_button2.started,k_button2.stopped,l_button2.started,l_button2.stopped,mainback.started,mainback.stopped,key_resp.keys,key_resp.rt,mouse_6.x,mouse_6.y,mouse_6.leftButton,mouse_6.midButton,mouse_6.rightButton,mouse_6.started,mouse_6.stopped,text_2.started,text_2.stopped,id*,date,expName,psychopyVersion,frameRate,
,,,,,0,0,0,0,,,,,,,,,space,10.310455800005002,29.826160600004368,None,40.15681359998416,None,,,,,,,,,,,,,,,,,,,,,,,,,,,,,,,,,,,,,,,,,,105,2023-04-19_12h59.41.150,Main,2022.1.1,59.97666907263266,
positive,negative,1,l,j,,,,,0,0,0,5,,,,,,,,,,,46.47585309998249,None,prac,2,2,1,negative,positive,j,j,1,1.125167699996382,48.501083399984054,49.506607799994526,49.489949599985266,None,48.501083399984054,None,48.501083399984054,None,48.501083399984054,None,50.62580310000631,None,50.62580310000631,None,50.62580310000631,None,,,,,,,,,,,,,,105,2023-04-19_12h59.41.150,Main,2022.1.1,59.97666907263266,
neutral,positive,2,k,k,,,,,0,1,1,13,,,,,,,,,,,,,prac,2,2,2,positive,neutral,k,k,1,0.6140199000074062,50.63082839999697,51.642399000003934,51.62581929998123,None,50.63082839999697,None,50.63082839999697,None,50.63082839999697,None,52.24243349998433,None,52.24243349998433,None,52.24243349998433,None,,,,,,,,,,,,,,105,2023-04-19_12h59.41.150,Main,2022.1.1,59.97666907263266,
negative,positive,1,j,l,,,,,0,2,2,6,,,,,,,,,,,,,prac,2,2,1,positive,negative,l,l,1,0.5988844000094105,52.245536700007506,53.259048699983396,53.24243809998734,None,52.245536700007506,None,52.245536700007506,None,52.245536700007506,None,53.84241039998888,None,53.84241039998888,None,53.84241039998888,None,,,,,,,,,,,,,,105,2023-04-19_12h59.41.150,Main,2022.1.1,59.97666907263266,
neutral,negative,2,k,k,,,,,0,3,3,16,,,,,,,,,,,,,prac,2,2,2,negative,neutral,k,k,1,0.581825100001879,53.845770999992965,54.85897420000401,54.84242689999519,None,53.845770999992965,None,53.845770999992965,None,53.845770999992965,None,55.42569809998095,None,55.42569809998095,None,55.42569809998095,None,,,,,,,,,,,,,,105,2023-04-19_12h59.41.150,Main,2022.1.1,59.97666907263266,
neutral,negative,1,k,k,,,,,0,4,4,7,,,,,,,,,,,,,prac,1,1,1,negative,neutral,k,k,1,0.5320451000006869,55.42880920000607,56.44241069999407,56.425743700005114,None,55.42880920000607,None,55.42880920000607,None,55.42880920000607,None,56.9589592999866,None,56.9589592999866,None,56.9589592999866,None,,,,,,,,,,,,,,105,2023-04-19_12h59.41.150,Main,2022.1.1,59.97666907263266,
negative,negative,2,j,l,,,,,0,5,5,9,,,,,,,,,,,,,prac,1,1,2,negative,negative,l,l,1,0.5628297999792267,56.96191139999428,57.973165999981575,57.95645639998838,None,56.96191139999428,None,56.96191139999428,None,56.96191139999428,None,58.52310599998164,None,58.52310599998164,None,58.52310599998164,None,,,,,,,,,,,,,,105,2023-04-19_12h59.41.150,Main,2022.1.1,59.97666907263266,
negative,neutral,2,j,l,,,,,0,6,6,12,,,,,,,,,,,,,prac,2,2,2,neutral,negative,l,l,1,0.5331383000011556,58.52307229998405,59.52314859998296,59.52314859998296,None,58.52307229998405,None,58.52307229998405,None,58.52307229998405,None,60.05644119999779,None,60.05644119999779,None,60.05644119999779,None,,,,,,,,,,,,,,105,2023-04-19_12h59.41.150,Main,2022.1.1,59.97666907263266,
negative,neutral,1,j,l,,,,,0,7,7,3,,,,,,,,,,,,,prac,1,1,1,neutral,negative,l,l,1,0.53090399998473,60.07309439999517,61.073099900007946,61.05643249998684,None,60.07309439999517,None,60.07309439999517,None,60.07309439999517,None,61.58974800000142,None,61.58974800000142,None,61.58974800000142,None,,,,,,,,,,,,,,105,2023-04-19_12h59.41.150,Main,2022.1.1,59.97666907263266,
positive,negative,2,l,j,,,,,0,8,8,14,,,,,,,,,,,,,prac,2,2,2,negative,positive,j,j,1,0.6491321999928914,61.58983169999556,62.592260500008706,62.592260500008706,None,61.58983169999556,None,61.58983169999556,None,61.58983169999556,None,63.24013500000292,None,63.24013500000292,None,63.24013500000292,None,,,,,,,,,,,,,,105,2023-04-19_12h59.41.150,Main,2022.1.1,59.97666907263266,
negative,negative,1,j,l,,,,,0,9,9,0,,,,,,,,,,,,,prac,2,2,1,negative,negative,l,l,1,0.6004145999904722,63.24402209999971,64.25887809999404,64.24227109999629,None,63.24402209999971,None,63.24402209999971,None,63.24402209999971,None,64.84215129999502,None,64.84215129999502,None,64.84215129999502,None,,,,,,,,,,,,,,105,2023-04-19_12h59.41.150,Main,2022.1.1,59.97666907263266,
neutral,neutral,2,k,k,,,,,0,10,10,10,,,,,,,,,,,,,prac,2,2,2,neutral,neutral,k,k,1,0.5524458000145387,64.84543889999622,65.85887239998556,65.84225539999898,None,64.84543889999622,None,64.84543889999622,None,64.84543889999622,None,66.39404069999291,None,66.39404069999291,None,66.39404069999291,None,,,,,,,,,,,,,,105,2023-04-19_12h59.41.150,Main,2022.1.1,59.97666907263266,
negative,positive,2,j,l,,,,,0,11,11,15,,,,,,,,,,,,,prac,2,2,2,positive,negative,l,l,1,0.5924839999934193,66.39892839998356,67.40880449998076,67.39220070000738,None,66.39892839998356,None,66.39892839998356,None,66.39892839998356,None,67.98999199999089,None,67.98999199999089,None,67.98999199999089,None,,,,,,,,,,,,,,105,2023-04-19_12h59.41.150,Main,2022.1.1,59.97666907263266,
neutral,neutral,1,k,k,,,,,0,12,12,1,,,,,,,,,,,,,prac,2,2,1,neutral,neutral,k,k,1,0.5176175000087824,67.99546720000217,69.00872429998708,68.99214059999213,None,67.99546720000217,None,67.99546720000217,None,67.99546720000217,None,69.50886360000295,None,69.50886360000295,None,69.50886360000295,None,,,,,,,,,,,,,,105,2023-04-19_12h59.41.150,Main,2022.1.1,59.97666907263266,
positive,neutral,2,l,j,,,,,0,13,13,17,,,,,,,,,,,,,prac,2,2,2,neutral,positive,j,j,1,0.6462262999848463,69.51182329998119,70.52284530000179,70.50620340000023,None,69.51182329998119,None,69.51182329998119,None,69.51182329998119,None,71.15619409998472,None,71.15619409998472,None,71.15619409998472,None,,,,,,,,,,,,,,105,2023-04-19_12h59.41.150,Main,2022.1.1,59.97666907263266,
positive,neutral,1,l,j,,,,,0,14,14,8,,,,,,,,,,,,,prac,2,2,1,neutral,positive,j,j,1,0.5819660999986809,71.15620040000067,72.15622450000956,72.15622450000956,None,71.15620040000067,None,71.15620040000067,None,71.15620040000067,None,72.73954969999905,None,72.73954969999905,None,72.73954969999905,None,,,,,,,,,,,,,,105,2023-04-19_12h59.41.150,Main,2022.1.1,59.97666907263266,
positive,positive,2,l,j,,,,,0,15,15,11,,,,,,,,,,,,,prac,2,2,2,positive,positive,j,j,1,0.6156006999954116,72.74003190000076,73.73951489999308,73.73951489999308,None,72.74003190000076,None,72.74003190000076,None,72.74003190000076,None,74.35620059998764,None,74.35620059998764,None,74.35620059998764,None,,,,,,,,,,,,,,105,2023-04-19_12h59.41.150,Main,2022.1.1,59.97666907263266,
positive,positive,1,l,j,,,,,0,16,16,2,,,,,,,,,,,,,prac,1,1,1,positive,positive,j,j,1,0.5174950000073295,74.35998589999508,75.37529949998134,75.35869399999501,None,74.35998589999508,None,74.35998589999508,None,74.35998589999508,None,75.87526899998484,None,75.87526899998484,None,75.87526899998484,None,,,,,,,,,,,,,,105,2023-04-19_12h59.41.150,Main,2022.1.1,59.97666907263266,
neutral,positive,1,k,k,,,,,0,17,17,4,,,,,,,,,,,,,prac,2,2,1,positive,neutral,k,k,1,0.4822523999901023,75.87868930000695,76.89198339998256,76.8753097000008,None,75.87868930000695,None,75.87868930000695,None,75.87868930000695,None,77.35869619998557,None,77.35869619998557,None,77.35869619998557,None,,,,,,,,,,,,,,105,2023-04-19_12h59.41.150,Main,2022.1.1,59.97666907263266,
neutral,neutral,2,k,k,,,,,1,0,18,10,,,,,,,,,,,,,prac,2,2,2,neutral,neutral,k,k,1,0.43002509998041205,77.36180179999792,78.3753560000041,78.35866080000415,None,77.36180179999792,None,77.36180179999792,None,77.36180179999792,None,78.79003879998636,None,78.79003879998636,None,78.79003879998636,None,,,,,,,,,,,,,,105,2023-04-19_12h59.41.150,Main,2022.1.1,59.97666907263266,
negative,negative,2,j,l,,,,,1,1,19,9,,,,,,,,,,,,,prac,1,1,2,negative,negative,l,l,1,0.5003050000232179,78.79595400000107,79.80855929999962,79.7919724000094,None,78.79595400000107,None,78.79595400000107,None,78.79595400000107,None,80.29176639998623,None,80.29176639998623,None,80.29176639998623,None,,,,,,,,,,,,,,105,2023-04-19_12h59.41.150,Main,2022.1.1,59.97666907263266,
neutral,positive,1,k,k,,,,,1,2,20,4,,,,,,,,,,,,,prac,2,2,1,positive,neutral,k,k,1,0.49958129998412915,80.29463439999381,81.30844180000713,81.29194429999916,None,80.29463439999381,None,80.29463439999381,None,80.29463439999381,None,81.79242709998216,None,81.79242709998216,None,81.79242709998216,None,,,,,,,,,,,,,,105,2023-04-19_12h59.41.150,Main,2022.1.1,59.97666907263266,
negative,neutral,2,j,l,,,,,1,3,21,12,,,,,,,,,,,,,prac,1,1,2,neutral,negative,l,l,1,0.5288417999981903,81.80613819998689,82.80592270000488,82.78927809998277,None,81.80613819998689,None,81.80613819998689,None,81.80613819998689,None,83.32256829997932,None,83.32256829997932,None,83.32256829997932,None,,,,,,,,,,,,,,105,2023-04-19_12h59.41.150,Main,2022.1.1,59.97666907263266,
neutral,negative,1,k,k,,,,,1,4,22,7,,,,,,,,,,,,,prac,1,1,1,negative,neutral,k,k,1,0.4655085999984294,83.32258259999799,84.32263549999334,84.32263549999334,None,83.32258259999799,None,83.32258259999799,None,83.32258259999799,None,84.7892804000032,None,84.7892804000032,None,84.7892804000032,None,,,,,,,,,,,,,,105,2023-04-19_12h59.41.150,Main,2022.1.1,59.97666907263266,
positive,neutral,2,l,j,,,,,1,5,23,17,,,,,,,,,,,,,prac,1,1,2,neutral,positive,j,j,1,0.4845336999860592,84.78987400000915,85.78930869998294,85.78930869998294,None,84.78987400000915,None,84.78987400000915,None,84.78987400000915,None,86.27516569997825,None,86.27516569997825,None,86.27516569997825,None,,,,,,,,,,,,,,105,2023-04-19_12h59.41.150,Main,2022.1.1,59.97666907263266,
positive,neutral,1,l,j,,,,,1,6,24,8,,,,,,,,,,,,,prac,2,2,1,neutral,positive,j,j,1,0.46538979999604635,86.27791770000476,87.29169909999473,87.27511489999597,None,86.27791770000476,None,86.27791770000476,None,86.27791770000476,None,87.74179479998129,None,87.74179479998129,None,87.74179479998129,None,,,,,,,,,,,,,,105,2023-04-19_12h59.41.150,Main,2022.1.1,59.97666907263266,
negative,neutral,1,j,l,,,,,1,7,25,3,,,,,,,,,,,,,prac,1,1,1,neutral,negative,l,l,1,0.5818666999984998,87.74451869999757,88.75832989998162,88.74177550000604,None,87.74451869999757,None,87.74451869999757,None,87.74451869999757,None,89.3251030999847,None,89.3251030999847,None,89.3251030999847,None,,,,,,,,,,,,,,105,2023-04-19_12h59.41.150,Main,2022.1.1,59.97666907263266,
neutral,neutral,1,k,k,,,,,1,8,26,1,,,,,,,,,,,,,prac,1,1,1,neutral,neutral,k,k,1,0.4626062999886926,89.32862749998458,90.34168310000678,90.32504940000945,None,89.32862749998458,None,89.32862749998458,None,89.32862749998458,None,90.7891980999877,None,90.7891980999877,None,90.7891980999877,None,,,,,,,,,,,,,,105,2023-04-19_12h59.41.150,Main,2022.1.1,59.97666907263266,
positive,negative,2,l,j,,,,,1,9,27,14,,,,,,,,,,,,,prac,2,2,2,negative,positive,j,j,1,0.6348835999961011,90.79562620000797,91.80827829998452,91.77499459998216,None,90.79562620000797,None,90.79562620000797,None,90.79562620000797,None,92.42490269997798,None,92.42490269997798,None,92.42490269997798,None,,,,,,,,,,,,,,105,2023-04-19_12h59.41.150,Main,2022.1.1,59.97666907263266,
neutral,positive,2,k,k,,,,,1,10,28,13,,,,,,,,,,,,,prac,2,2,2,positive,neutral,k,k,1,0.529469600005541,92.42838949998259,93.43906639999477,93.42240069998661,None,92.42838949998259,None,92.42838949998259,None,92.42838949998259,None,93.95570059999882,None,93.95570059999882,None,93.95570059999882,None,,,,,,,,,,,,,,105,2023-04-19_12h59.41.150,Main,2022.1.1,59.97666907263266,
neutral,negative,2,k,k,,,,,1,11,29,16,,,,,,,,,,,,,prac,2,2,2,negative,neutral,k,k,1,0.48192560000461526,93.95571789998212,94.9557339999883,94.9557339999883,None,93.95571789998212,None,93.95571789998212,None,93.95571789998212,None,95.43911459998635,None,95.43911459998635,None,95.43911459998635,None,,,,,,,,,,,,,,105,2023-04-19_12h59.41.150,Main,2022.1.1,59.97666907263266,
positive,positive,2,l,j,,,,,1,12,30,11,,,,,,,,,,,,,prac,1,1,2,positive,positive,j,j,1,0.5844571999914479,95.44191389999469,96.44152819999726,96.42492230000789,None,95.44191389999469,None,95.44191389999469,None,95.44191389999469,None,97.02483719997981,None,97.02483719997981,None,97.02483719997981,None,,,,,,,,,,,,,,105,2023-04-19_12h59.41.150,Main,2022.1.1,59.97666907263266,
negative,negative,1,j,l,,,,,1,13,31,0,,,,,,,,,,,,,prac,2,2,1,negative,negative,l,l,1,0.5965087000222411,97.02783959999215,98.04153399998904,98.02491979999468,None,97.02783959999215,None,97.02783959999215,None,97.02783959999215,None,98.62273559999012,None,98.62273559999012,None,98.62273559999012,None,,,,,,,,,,,,,,105,2023-04-19_12h59.41.150,Main,2022.1.1,59.97666907263266,
positive,negative,1,l,j,,,,,1,14,32,5,,,,,,,,,,,,,prac,1,1,1,negative,positive,j,j,1,0.5844168000039645,98.62758100000792,99.64150209998479,99.6081864000007,None,98.62758100000792,None,98.62758100000792,None,98.62758100000792,None,100.20827279999794,None,100.20827279999794,None,100.20827279999794,None,,,,,,,,,,,,,,105,2023-04-19_12h59.41.150,Main,2022.1.1,59.97666907263266,
negative,positive,1,j,l,,,,,1,15,33,6,,,,,,,,,,,,,prac,2,2,1,positive,negative,l,l,1,0.5653341999859549,100.2110277999891,101.22476479999023,101.20814529998461,None,100.2110277999891,None,100.2110277999891,None,100.2110277999891,None,101.77484879998083,None,101.77484879998083,None,101.77484879998083,None,,,,,,,,,,,,,,105,2023-04-19_12h59.41.150,Main,2022.1.1,59.97666907263266,
negative,positive,2,j,l,,,,,1,16,34,15,,,,,,,,,,,,,prac,2,2,2,positive,negative,l,l,1,0.5294510000094306,101.77826970000751,102.79429200000595,102.77480479999213,None,101.77826970000751,None,101.77826970000751,None,101.77826970000751,None,103.30551639999904,None,103.30551639999904,None,103.30551639999904,None,,,,,,,,,,,,,,105,2023-04-19_12h59.41.150,Main,2022.1.1,59.97666907263266,
positive,positive,1,l,j,,,,,1,17,35,2,,,,,,,,,,,,,prac,2,2,1,positive,positive,j,j,1,0.6151939000119455,103.3055311999924,104.30554040000425,104.30554040000425,None,103.3055311999924,None,103.3055311999924,None,103.3055311999924,None,104.92222859998874,None,104.92222859998874,None,104.92222859998874,None,,,,,,,,,,,,,,105,2023-04-19_12h59.41.150,Main,2022.1.1,59.97666907263266,
,,,,,,,,,,,,,,,,,,,,,,,,,,,,,,,,,,,,,,,,,,,,,,,,,,,104.92222670000046,None,space,4.7827751000004355,,,,,,,,,,105,2023-04-19_12h59.41.150,Main,2022.1.1,59.97666907263266,
,,,,,,,,,,,,,,,,,,,,,,,,,,,,,,,,,,,,,,,,,,,,,,,,,,,,,,,0.5935185,-0.2962963,0,0,0,0.011280500009888783,None,,,105,2023-04-19_12h59.41.150,Main,2022.1.1,59.97666907263266,
neutral,positive,1,k,k,,,,,,,,,0,0,0,4,,,,,,,109.7246293000062,None,main,1,1,1,positive,neutral,k,k,1,0.5311662000021897,111.72804670000914,112.74127919998136,112.7245935999963,None,111.72804670000914,None,111.72804670000914,None,111.72804670000914,None,113.2578727999964,None,113.2578727999964,None,113.2578727999964,None,,,,,,,,,,,,,,105,2023-04-19_12h59.41.150,Main,2022.1.1,59.97666907263266,
negative,neutral,1,j,l,,,,,,,,,0,1,1,3,,,,,,,,,main,2,2,1,neutral,negative,l,l,1,0.6282399999909103,113.26219019998098,114.27733579999767,114.25555319999694,None,113.26219019998098,None,113.26219019998098,None,113.26219019998098,None,114.88861649998871,None,114.88861649998871,None,114.88861649998871,None,,,,,,,,,,,,,,105,2023-04-19_12h59.41.150,Main,2022.1.1,59.97666907263266,
negative,positive,2,j,l,,,,,,,,,0,2,2,15,,,,,,,,,main,1,1,2,positive,negative,l,l,1,0.631636600010097,114.88904989999719,115.88867610000307,115.88867610000307,None,114.88904989999719,None,114.88904989999719,None,114.88904989999719,None,116.52202750000579,None,116.52202750000579,None,116.52202750000579,None,,,,,,,,,,,,,,105,2023-04-19_12h59.41.150,Main,2022.1.1,59.97666907263266,
positive,negative,1,l,j,,,,,,,,,0,3,3,5,,,,,,,,,main,2,2,1,negative,positive,j,j,1,0.5342706000083126,116.52507879998302,117.52445699999225,117.52445699999225,None,116.52507879998302,None,116.52507879998302,None,116.52507879998302,None,118.05776020000049,None,118.05776020000049,None,118.05776020000049,None,,,,,,,,,,,,,,105,2023-04-19_12h59.41.150,Main,2022.1.1,59.97666907263266,
neutral,positive,2,k,k,,,,,,,,,0,4,4,13,,,,,,,,,main,1,1,2,positive,neutral,k,k,1,0.5476340999884997,118.06201940000756,119.07437909999862,119.05781399999978,None,118.06201940000756,None,118.06201940000756,None,118.06201940000756,None,119.607738599999,None,119.607738599999,None,119.607738599999,None,,,,,,,,,,,,,,105,2023-04-19_12h59.41.150,Main,2022.1.1,59.97666907263266,
negative,neutral,2,j,l,,,,,,,,,0,5,5,12,,,,,,,,,main,1,1,2,neutral,negative,l,l,1,0.5462778999935836,119.61086119999527,120.62432139998418,120.60775799999828,None,119.61086119999527,None,119.61086119999527,None,119.61086119999527,None,121.15558140000503,None,121.15558140000503,None,121.15558140000503,None,,,,,,,,,,,,,,105,2023-04-19_12h59.41.150,Main,2022.1.1,59.97666907263266,
neutral,neutral,1,k,k,,,,,,,,,0,6,6,1,,,,,,,,,main,1,1,1,neutral,neutral,k,k,1,0.5334396999969613,121.1590876999835,122.17432819999522,122.15774059999967,None,121.1590876999835,None,121.1590876999835,None,121.1590876999835,None,122.69098729998514,None,122.69098729998514,None,122.69098729998514,None,,,,,,,,,,,,,,105,2023-04-19_12h59.41.150,Main,2022.1.1,59.97666907263266,
positive,positive,1,l,j,,,,,,,,,0,7,7,2,,,,,,,,,main,2,2,1,positive,positive,j,j,1,0.5470493999891914,122.69355569998152,123.70762470000773,123.69104569999035,None,122.69355569998152,None,122.69355569998152,None,122.69355569998152,None,124.23843749999942,None,124.23843749999942,None,124.23843749999942,None,,,,,,,,,,,,,,105,2023-04-19_12h59.41.150,Main,2022.1.1,59.97666907263266,
positive,neutral,1,l,j,,,,,,,,,0,8,8,8,,,,,,,,,main,2,2,1,neutral,positive,j,j,1,0.5977745999989565,124.23899089999031,125.23847439998644,125.23847439998644,None,124.23899089999031,None,124.23899089999031,None,124.23899089999031,None,125.83844080000127,None,125.83844080000127,None,125.83844080000127,None,,,,,,,,,,,,,,105,2023-04-19_12h59.41.150,Main,2022.1.1,59.97666907263266,
neutral,neutral,2,k,k,,,,,,,,,0,9,9,10,,,,,,,,,main,2,2,2,neutral,neutral,k,k,1,0.5316669000021648,125.83842469999217,126.83847580000293,126.83847580000293,None,125.83842469999217,None,125.83842469999217,None,125.83842469999217,None,127.37179839998426,None,127.37179839998426,None,127.37179839998426,None,,,,,,,,,,,,,,105,2023-04-19_12h59.41.150,Main,2022.1.1,59.97666907263266,
negative,positive,1,j,l,,,,,,,,,0,10,10,6,,,,,,,,,main,2,2,1,positive,negative,l,l,1,0.6177951999998186,127.3719640999916,128.37179629999446,128.37179629999446,None,127.3719640999916,None,127.3719640999916,None,127.3719640999916,None,128.9909187000041,None,128.9909187000041,None,128.9909187000041,None,,,,,,,,,,,,,,105,2023-04-19_12h59.41.150,Main,2022.1.1,59.97666907263266,
negative,negative,2,j,l,,,,,,,,,0,11,11,9,,,,,,,,,main,1,1,2,negative,negative,l,l,1,0.6981632999959402,128.9940876000037,130.00752640000428,129.99089960000128,None,128.9940876000037,None,128.9940876000037,None,128.9940876000037,None,130.69085819999162,None,130.69085819999162,None,130.69085819999162,None,,,,,,,,,,,,,,105,2023-04-19_12h59.41.150,Main,2022.1.1,59.97666907263266,
positive,neutral,2,l,j,,,,,,,,,0,12,12,17,,,,,,,,,main,2,2,2,neutral,positive,j,j,1,0.579666300007375,130.6941000999941,131.70746559998952,131.6908970999939,None,130.6941000999941,None,130.6941000999941,None,130.6941000999941,None,132.272090799993,None,132.272090799993,None,132.272090799993,None,,,,,,,,,,,,,,105,2023-04-19_12h59.41.150,Main,2022.1.1,59.97666907263266,
neutral,negative,2,k,k,,,,,,,,,0,13,13,16,,,,,,,,,main,2,2,2,negative,neutral,k,k,1,0.5005210999806877,132.2754719000077,133.29078270000173,133.27419160000863,None,132.2754719000077,None,132.2754719000077,None,132.2754719000077,None,133.7742292000068,None,133.7742292000068,None,133.7742292000068,None,,,,,,,,,,,,,,105,2023-04-19_12h59.41.150,Main,2022.1.1,59.97666907263266,
positive,positive,2,l,j,,,,,,,,,0,14,14,11,,,,,,,,,main,2,2,2,positive,positive,j,j,1,0.6297066999832168,133.77713929998572,134.79079020000063,134.77411229998688,None,133.77713929998572,None,133.77713929998572,None,133.77713929998572,None,135.4053433999972,None,135.4053433999972,None,135.4053433999972,None,,,,,,,,,,,,,,105,2023-04-19_12h59.41.150,Main,2022.1.1,59.97666907263266,
neutral,negative,1,k,k,,,,,,,,,0,15,15,7,,,,,,,,,main,2,2,1,negative,neutral,k,k,1,0.5479295999975875,135.40893979999237,136.42153490000055,136.4048710000061,None,135.40893979999237,None,135.40893979999237,None,135.40893979999237,None,136.954860800007,None,136.954860800007,None,136.954860800007,None,,,,,,,,,,,,,,105,2023-04-19_12h59.41.150,Main,2022.1.1,59.97666907263266,
negative,negative,1,j,l,,,,,,,,,0,16,16,0,,,,,,,,,main,2,2,1,negative,negative,l,l,1,0.6152289000165183,136.9548375000013,137.95489870000165,137.95489870000165,None,136.9548375000013,None,136.9548375000013,None,136.9548375000013,None,138.5715779000049,None,138.5715779000049,None,138.5715779000049,None,,,,,,,,,,,,,,105,2023-04-19_12h59.41.150,Main,2022.1.1,59.97666907263266,
positive,negative,2,l,j,,,,,,,,,0,17,17,14,,,,,,,,,main,1,1,2,negative,positive,j,j,1,0.5648017000057735,138.57222589998855,139.57159669999965,139.57159669999965,None,138.57222589998855,None,138.57222589998855,None,138.57222589998855,None,140.1382168000011,None,140.1382168000011,None,140.1382168000011,None,,,,,,,,,,,,,,105,2023-04-19_12h59.41.150,Main,2022.1.1,59.97666907263266,
negative,neutral,2,j,l,,,,,,,,,1,0,18,12,,,,,,,,,main,2,2,2,neutral,negative,l,l,1,0.5342105999880005,140.13872809999157,141.14074309999705,141.14074309999705,None,140.13872809999157,None,140.13872809999157,None,140.13872809999157,None,141.67407250000105,None,141.67407250000105,None,141.67407250000105,None,,,,,,,,,,,,,,105,2023-04-19_12h59.41.150,Main,2022.1.1,59.97666907263266,
neutral,positive,1,k,k,,,,,,,,,1,1,19,4,,,,,,,,,main,2,2,1,positive,neutral,k,k,1,0.4650275999738369,141.67826799998875,142.69065999999293,142.67401479999535,None,141.67826799998875,None,141.67826799998875,None,141.67826799998875,None,143.1406989999843,None,143.1406989999843,None,143.1406989999843,None,,,,,,,,,,,,,,105,2023-04-19_12h59.41.150,Main,2022.1.1,59.97666907263266,
positive,neutral,1,l,j,,,,,,,,,1,2,20,8,,,,,,,,,main,2,2,1,neutral,positive,j,j,1,0.6297794000129215,143.14459119999083,144.1572302999848,144.1406377000094,None,143.14459119999083,None,143.14459119999083,None,143.14459119999083,None,144.77179060000634,None,144.77179060000634,None,144.77179060000634,None,,,,,,,,,,,,,,105,2023-04-19_12h59.41.150,Main,2022.1.1,59.97666907263266,
negative,positive,1,j,l,,,,,,,,,1,3,21,6,,,,,,,,,main,2,2,1,positive,negative,l,l,1,0.5671082000189926,144.7754423999868,145.790568299999,145.77393799999845,None,144.7754423999868,None,144.7754423999868,None,144.7754423999868,None,146.34053229997807,None,146.34053229997807,None,146.34053229997807,None,,,,,,,,,,,,,,105,2023-04-19_12h59.41.150,Main,2022.1.1,59.97666907263266,
positive,neutral,2,l,j,,,,,,,,,1,4,22,17,,,,,,,,,main,2,2,2,neutral,positive,j,j,1,0.5485284999886062,146.34437159998924,147.35726719998638,147.34058389998972,None,146.34437159998924,None,146.34437159998924,None,146.34437159998924,None,147.89049910000466,None,147.89049910000466,None,147.89049910000466,None,,,,,,,,,,,,,,105,2023-04-19_12h59.41.150,Main,2022.1.1,59.97666907263266,
neutral,negative,2,k,k,,,,,,,,,1,5,23,16,,,,,,,,,main,1,1,2,negative,neutral,k,k,1,0.5123968999832869,147.8937447000062,148.9046662999899,148.88801279998734,None,147.8937447000062,None,147.8937447000062,None,147.8937447000062,None,149.40465429998875,None,149.40465429998875,None,149.40465429998875,None,,,,,,,,,,,,,,105,2023-04-19_12h59.41.150,Main,2022.1.1,59.97666907263266,
negative,negative,1,j,l,,,,,,,,,1,6,24,0,,,,,,,,,main,2,2,1,negative,negative,l,l,1,0.515459699992789,149.4046119999839,150.40467709998484,150.40467709998484,None,149.4046119999839,None,149.4046119999839,None,149.4046119999839,None,150.92134010000444,None,150.92134010000444,None,150.92134010000444,None,,,,,,,,,,,,,,105,2023-04-19_12h59.41.150,Main,2022.1.1,59.97666907263266,
neutral,neutral,1,k,k,,,,,,,,,1,7,25,1,,,,,,,,,main,1,1,1,neutral,neutral,k,k,1,1.014694800018333,150.92230249999557,151.92133109999122,151.92133109999122,None,150.92230249999557,None,150.92230249999557,None,150.92230249999557,None,152.93798570000507,None,152.93798570000507,None,152.93798570000507,None,,,,,,,,,,,,,,105,2023-04-19_12h59.41.150,Main,2022.1.1,59.97666907263266,
neutral,positive,2,k,k,,,,,,,,,1,8,26,13,,,,,,,,,main,2,2,2,positive,neutral,k,k,1,0.4674286999797914,152.9413949000009,153.9404256999842,153.9404256999842,None,152.9413949000009,None,152.9413949000009,None,152.9413949000009,None,154.40702260000688,None,154.40702260000688,None,154.40702260000688,None,,,,,,,,,,,,,,105,2023-04-19_12h59.41.150,Main,2022.1.1,59.97666907263266,
negative,negative,2,j,l,,,,,,,,,1,9,27,9,,,,,,,,,main,2,2,2,negative,negative,l,l,1,0.5149823999963701,154.41316850000294,155.42371889998321,155.4071350999875,None,154.41316850000294,None,154.41316850000294,None,154.41316850000294,None,155.9237069999828,None,155.9237069999828,None,155.9237069999828,None,,,,,,,,,,,,,,105,2023-04-19_12h59.41.150,Main,2022.1.1,59.97666907263266,
neutral,negative,1,k,k,,,,,,,,,1,10,28,7,,,,,,,,,main,1,1,1,negative,neutral,k,k,1,0.5954329000087455,155.92806780000683,156.9403423999902,156.92372560000513,None,155.92806780000683,None,155.92806780000683,None,155.92806780000683,None,157.52123580000188,None,157.52123580000188,None,157.52123580000188,None,,,,,,,,,,,,,,105,2023-04-19_12h59.41.150,Main,2022.1.1,59.97666907263266,
positive,negative,2,l,j,,,,,,,,,1,11,29,14,,,,,,,,,main,2,2,2,negative,positive,j,j,1,0.6341240999754518,157.5276334999944,158.54027939998196,158.52367309998954,None,157.5276334999944,None,157.5276334999944,None,157.5276334999944,None,159.1569382000045,None,159.1569382000045,None,159.1569382000045,None,,,,,,,,,,,,,,105,2023-04-19_12h59.41.150,Main,2022.1.1,59.97666907263266,
positive,positive,2,l,j,,,,,,,,,1,12,30,11,,,,,,,,,main,2,2,2,positive,positive,j,j,1,0.5292053000011947,159.16018889998668,160.17107119999127,160.1544048000069,None,159.16018889998668,None,159.16018889998668,None,159.16018889998668,None,160.68771919998397,None,160.68771919998397,None,160.68771919998397,None,,,,,,,,,,,,,,105,2023-04-19_12h59.41.150,Main,2022.1.1,59.97666907263266,
neutral,neutral,2,k,k,,,,,,,,,1,13,31,10,,,,,,,,,main,2,2,2,neutral,neutral,k,k,1,0.5676557999977376,160.68772240000544,161.6878163999936,161.6878163999936,None,160.68772240000544,None,160.68772240000544,None,160.68772240000544,None,162.25688410000583,None,162.25688410000583,None,162.25688410000583,None,,,,,,,,,,,,,,105,2023-04-19_12h59.41.150,Main,2022.1.1,59.97666907263266,
positive,positive,1,l,j,,,,,,,,,1,14,32,2,,,,,,,,,main,2,2,1,positive,positive,j,j,1,0.5324874999932945,162.26032430000487,163.27357789999223,163.25699510000413,None,162.26032430000487,None,162.26032430000487,None,162.26032430000487,None,163.79017820000007,None,163.79017820000007,None,163.79017820000007,None,,,,,,,,,,,,,,105,2023-04-19_12h59.41.150,Main,2022.1.1,59.97666907263266,
negative,positive,2,j,l,,,,,,,,,1,15,33,15,,,,,,,,,main,2,2,2,positive,negative,l,l,1,0.5953753000067081,163.79412000000593,164.8068188999896,164.79025689998525,None,163.79412000000593,None,163.79412000000593,None,163.79412000000593,None,165.38778249998285,None,165.38778249998285,None,165.38778249998285,None,,,,,,,,,,,,,,105,2023-04-19_12h59.41.150,Main,2022.1.1,59.97666907263266,
positive,negative,1,l,j,,,,,,,,,1,16,34,5,,,,,,,,,main,1,1,1,negative,positive,j,j,1,0.583905399980722,165.39427319998504,166.40685219998704,166.39017289999174,None,165.39427319998504,None,165.39427319998504,None,165.39427319998504,None,166.97351759998418,None,166.97351759998418,None,166.97351759998418,None,,,,,,,,,,,,,,105,2023-04-19_12h59.41.150,Main,2022.1.1,59.97666907263266,
negative,neutral,1,j,l,,,,,,,,,1,17,35,3,,,,,,,,,main,2,2,1,neutral,negative,l,l,1,0.5983619000180624,166.9764520000026,167.99008489999687,167.97352100000717,None,166.9764520000026,None,166.9764520000026,None,166.9764520000026,None,168.57347710000175,None,168.57347710000175,None,168.57347710000175,None,,,,,,,,,,,,,,105,2023-04-19_12h59.41.150,Main,2022.1.1,59.97666907263266,
negative,negative,1,j,l,,,,,,,,,2,0,36,0,,,,,,,,,main,2,2,1,negative,negative,l,l,1,0.5458635999821126,168.57672779998393,169.58756509999512,169.57090079999762,None,168.57672779998393,None,168.57672779998393,None,168.57672779998393,None,170.1209178000019,None,170.1209178000019,None,170.1209178000019,None,,,,,,,,,,,,,,105,2023-04-19_12h59.41.150,Main,2022.1.1,59.97666907263266,
negative,negative,2,j,l,,,,,,,,,2,1,37,9,,,,,,,,,main,2,2,2,negative,negative,l,l,1,0.6150435000017751,170.12087630000315,171.120891700004,171.120891700004,None,170.12087630000315,None,170.12087630000315,None,170.12087630000315,None,171.7375764999917,None,171.7375764999917,None,171.7375764999917,None,,,,,,,,,,,,,,105,2023-04-19_12h59.41.150,Main,2022.1.1,59.97666907263266,
neutral,neutral,2,k,k,,,,,,,,,2,2,38,10,,,,,,,,,main,2,2,2,neutral,neutral,k,k,1,0.5815977999882307,171.73816149999038,172.73756219999632,172.73756219999632,None,171.73816149999038,None,171.73816149999038,None,171.73816149999038,None,173.32088729998503,None,173.32088729998503,None,173.32088729998503,None,,,,,,,,,,,,,,105,2023-04-19_12h59.41.150,Main,2022.1.1,59.97666907263266,
negative,neutral,1,j,l,,,,,,,,,2,3,39,3,,,,,,,,,main,1,1,1,neutral,negative,l,l,1,0.6010899000102654,173.32123939998564,174.32344999999623,174.32344999999623,None,173.32123939998564,None,173.32123939998564,None,173.32123939998564,None,174.9233031999931,None,174.9233031999931,None,174.9233031999931,None,,,,,,,,,,,,,,105,2023-04-19_12h59.41.150,Main,2022.1.1,59.97666907263266,
neutral,negative,1,k,k,,,,,,,,,2,4,40,7,,,,,,,,,main,1,1,1,negative,neutral,k,k,1,0.5131938999984413,174.92663410000387,175.9400117000041,175.92343969998183,None,174.92663410000387,None,174.92663410000387,None,174.92663410000387,None,176.43815309999917,None,176.43815309999917,None,176.43815309999917,None,,,,,,,,,,,,,,105,2023-04-19_12h59.41.150,Main,2022.1.1,59.97666907263266,
neutral,negative,2,k,k,,,,,,,,,2,5,41,16,,,,,,,,,main,2,2,2,negative,neutral,k,k,1,0.5336496999952942,176.44430699999793,177.45665330000338,177.4400447999942,None,176.44430699999793,None,176.44430699999793,None,176.44430699999793,None,177.97330729998356,None,177.97330729998356,None,177.97330729998356,None,,,,,,,,,,,,,,105,2023-04-19_12h59.41.150,Main,2022.1.1,59.97666907263266,
positive,negative,2,l,j,,,,,,,,,2,6,42,14,,,,,,,,,main,2,2,2,negative,positive,j,j,1,0.5810618000105023,177.97638700000243,178.98992530000396,178.97330089999014,None,177.97638700000243,None,177.97638700000243,None,177.97638700000243,None,179.55614499998336,None,179.55614499998336,None,179.55614499998336,None,,,,,,,,,,,,,,105,2023-04-19_12h59.41.150,Main,2022.1.1,59.97666907263266,
positive,neutral,1,l,j,,,,,,,,,2,7,43,8,,,,,,,,,main,2,2,1,neutral,positive,j,j,1,0.6489990999980364,179.5612347999995,180.57323259999976,180.55664669998805,None,179.5612347999995,None,179.5612347999995,None,179.5612347999995,None,181.20655509998613,None,181.20655509998613,None,181.20655509998613,None,,,,,,,,,,,,,,105,2023-04-19_12h59.41.150,Main,2022.1.1,59.97666907263266,
positive,negative,1,l,j,,,,,,,,,2,8,44,5,,,,,,,,,main,1,1,1,negative,positive,j,j,1,0.529072700010147,181.20945609998307,182.22063520000665,182.2039769999974,None,181.20945609998307,None,181.20945609998307,None,181.20945609998307,None,182.73733879998616,None,182.73733879998616,None,182.73733879998616,None,,,,,,,,,,,,,,105,2023-04-19_12h59.41.150,Main,2022.1.1,59.97666907263266,
negative,neutral,2,j,l,,,,,,,,,2,9,45,12,,,,,,,,,main,1,1,2,neutral,negative,l,l,1,0.5819360000023153,182.73755220000749,183.73734859999968,183.73734859999968,None,182.73755220000749,None,182.73755220000749,None,182.73755220000749,None,184.32070769998535,None,184.32070769998535,None,184.32070769998535,None,,,,,,,,,,,,,,105,2023-04-19_12h59.41.150,Main,2022.1.1,59.97666907263266,
negative,positive,1,j,l,,,,,,,,,2,10,46,6,,,,,,,,,main,1,1,1,positive,negative,l,l,1,0.6150745000049938,184.3213864999998,185.3206467999844,185.3206467999844,None,184.3213864999998,None,184.3213864999998,None,184.3213864999998,None,185.93733980000542,None,185.93733980000542,None,185.93733980000542,None,,,,,,,,,,,,,,105,2023-04-19_12h59.41.150,Main,2022.1.1,59.97666907263266,
positive,neutral,2,l,j,,,,,,,,,2,11,47,17,,,,,,,,,main,2,2,2,neutral,positive,j,j,1,0.6507074999972247,185.9418853999814,186.95641539999633,186.93976740000653,None,185.9418853999814,None,185.9418853999814,None,185.9418853999814,None,187.58977449999946,None,187.58977449999946,None,187.58977449999946,None,,,,,,,,,,,,,,105,2023-04-19_12h59.41.150,Main,2022.1.1,59.97666907263266,
positive,positive,2,l,j,,,,,,,,,2,12,48,11,,,,,,,,,main,2,2,2,positive,positive,j,j,1,0.5316928999964148,187.59298119999585,188.60642349999398,188.58979790000012,None,187.59298119999585,None,187.59298119999585,None,187.59298119999585,None,189.12307340000115,None,189.12307340000115,None,189.12307340000115,None,,,,,,,,,,,,,,105,2023-04-19_12h59.41.150,Main,2022.1.1,59.97666907263266,
negative,positive,2,j,l,,,,,,,,,2,13,49,15,,,,,,,,,main,1,1,2,positive,negative,l,l,1,0.5821601999923587,189.12566689998494,190.1396889000025,190.12307810000493,None,189.12566689998494,None,189.12566689998494,None,189.12566689998494,None,190.70650959998892,None,190.70650959998892,None,190.70650959998892,None,,,,,,,,,,,,,,105,2023-04-19_12h59.41.150,Main,2022.1.1,59.97666907263266,
neutral,neutral,1,k,k,,,,,,,,,2,14,50,1,,,,,,,,,main,2,2,1,neutral,neutral,k,k,1,0.4815807999984827,190.70964889999595,191.72299710000516,191.70650179998484,None,190.70964889999595,None,190.70964889999595,None,190.70964889999595,None,192.1897790999821,None,192.1897790999821,None,192.1897790999821,None,,,,,,,,,,,,,,105,2023-04-19_12h59.41.150,Main,2022.1.1,59.97666907263266,
neutral,positive,1,k,k,,,,,,,,,2,15,51,4,,,,,,,,,main,2,2,1,positive,neutral,k,k,1,0.4958924000093248,192.19290629998432,193.2062345999875,193.18963469998562,None,192.19290629998432,None,192.19290629998432,None,192.19290629998432,None,193.68706719999608,None,193.68706719999608,None,193.68706719999608,None,,,,,,,,,,,,,,105,2023-04-19_12h59.41.150,Main,2022.1.1,59.97666907263266,
neutral,positive,2,k,k,,,,,,,,,2,16,52,13,,,,,,,,,main,1,1,2,positive,neutral,k,k,1,0.4318351999972947,193.6870637999964,194.68709849999868,194.68709849999868,None,193.6870637999964,None,193.6870637999964,None,193.6870637999964,None,195.12039599998678,None,195.12039599998678,None,195.12039599998678,None,,,,,,,,,,,,,,105,2023-04-19_12h59.41.150,Main,2022.1.1,59.97666907263266,
positive,positive,1,l,j,,,,,,,,,2,17,53,2,,,,,,,,,main,2,2,1,positive,positive,j,j,1,0.5651657000125851,195.12040280000656,196.12043909999193,196.12043909999193,None,195.12040280000656,None,195.12040280000656,None,195.12040280000656,None,196.68710909999498,None,196.68710909999498,None,196.68710909999498,None,,,,,,,,,,,,,,105,2023-04-19_12h59.41.150,Main,2022.1.1,59.97666907263266,
negative,neutral,2,j,l,,,,,,,,,3,0,54,12,,,,,,,,,main,2,2,2,neutral,negative,l,l,1,0.584241699980339,196.68761940000695,197.6871004999848,197.6871004999848,None,196.68761940000695,None,196.68761940000695,None,196.68761940000695,None,198.2729119999887,None,198.2729119999887,None,198.2729119999887,None,,,,,,,,,,,,,,105,2023-04-19_12h59.41.150,Main,2022.1.1,59.97666907263266,
positive,positive,2,l,j,,,,,,,,,3,1,55,11,,,,,,,,,main,1,1,2,positive,positive,j,j,1,0.5808369999867864,198.2769284999813,199.2895453000092,199.27295359998243,None,198.2769284999813,None,198.2769284999813,None,198.2769284999813,None,199.85613740000116,None,199.85613740000116,None,199.85613740000116,None,,,,,,,,,,,,,,105,2023-04-19_12h59.41.150,Main,2022.1.1,59.97666907263266,
negative,positive,2,j,l,,,,,,,,,3,2,56,15,,,,,,,,,main,2,2,2,positive,negative,l,l,1,0.5798866999975871,199.85913789999904,200.8728289999999,200.85624789999565,None,199.85913789999904,None,199.85913789999904,None,199.85913789999904,None,201.43738209997827,None,201.43738209997827,None,201.43738209997827,None,,,,,,,,,,,,,,105,2023-04-19_12h59.41.150,Main,2022.1.1,59.97666907263266,
positive,negative,1,l,j,,,,,,,,,3,3,57,5,,,,,,,,,main,2,2,1,negative,positive,j,j,1,0.5315104000037536,201.4433963999909,202.4560658999835,202.4394561999943,None,201.4433963999909,None,201.4433963999909,None,201.4433963999909,None,202.97030590000503,None,202.97030590000503,None,202.97030590000503,None,,,,,,,,,,,,,,105,2023-04-19_12h59.41.150,Main,2022.1.1,59.97666907263266,
neutral,negative,2,k,k,,,,,,,,,3,4,58,16,,,,,,,,,main,2,2,2,negative,neutral,k,k,1,0.7162034000211861,202.97617839998566,203.98940479999874,203.97274920000928,None,202.97617839998566,None,202.97617839998566,None,202.97617839998566,None,204.6872635000065,None,204.6872635000065,None,204.6872635000065,None,,,,,,,,,,,,,,105,2023-04-19_12h59.41.150,Main,2022.1.1,59.97666907263266,
negative,negative,1,j,l,,,,,,,,,3,5,59,0,,,,,,,,,main,2,2,1,negative,negative,l,l,1,0.5638482999929693,204.69356630000402,205.70349789998727,205.686833499989,None,204.69356630000402,None,204.69356630000402,None,204.69356630000402,None,206.25348769998817,None,206.25348769998817,None,206.25348769998817,None,,,,,,,,,,,,,,105,2023-04-19_12h59.41.150,Main,2022.1.1,59.97666907263266,
negative,positive,1,j,l,,,,,,,,,3,6,60,6,,,,,,,,,main,2,2,1,positive,negative,l,l,1,0.5650686000008136,206.25350130000152,207.25351129999035,207.25351129999035,None,206.25350130000152,None,206.25350130000152,None,206.25350130000152,None,207.82018799998622,None,207.82018799998622,None,207.82018799998622,None,,,,,,,,,,,,,,105,2023-04-19_12h59.41.150,Main,2022.1.1,59.97666907263266,
positive,negative,2,l,j,,,,,,,,,3,7,61,14,,,,,,,,,main,2,2,2,negative,positive,j,j,1,0.5327702999929897,207.8202597000054,208.82021320000058,208.82021320000058,None,207.8202597000054,None,207.8202597000054,None,207.8202597000054,None,209.35352509998773,None,209.35352509998773,None,209.35352509998773,None,,,,,,,,,,,,,,105,2023-04-19_12h59.41.150,Main,2022.1.1,59.97666907263266,
positive,positive,1,l,j,,,,,,,,,3,8,62,2,,,,,,,,,main,2,2,1,positive,positive,j,j,1,0.5499506000196561,209.35783190000802,210.37266850000015,210.3560785999871,None,209.35783190000802,None,209.35783190000802,None,209.35783190000802,None,210.90601259999966,None,210.90601259999966,None,210.90601259999966,None,,,,,,,,,,,,,,105,2023-04-19_12h59.41.150,Main,2022.1.1,59.97666907263266,
neutral,neutral,2,k,k,,,,,,,,,3,9,63,10,,,,,,,,,main,2,2,2,neutral,neutral,k,k,1,0.5652768999862019,210.9097288000048,211.9225874999829,211.90606079998543,None,210.9097288000048,None,210.9097288000048,None,210.9097288000048,None,212.47274119998036,None,212.47274119998036,None,212.47274119998036,None,,,,,,,,,,,,,,105,2023-04-19_12h59.41.150,Main,2022.1.1,59.97666907263266,
neutral,neutral,1,k,k,,,,,,,,,3,10,64,1,,,,,,,,,main,2,2,1,neutral,neutral,k,k,1,0.5289102999959141,212.47617449998506,213.48919600000954,213.47256789999665,None,212.47617449998506,None,212.47617449998506,None,212.47617449998506,None,214.00379459999675,None,214.00379459999675,None,214.00379459999675,None,,,,,,,,,,,,,,105,2023-04-19_12h59.41.150,Main,2022.1.1,59.97666907263266,
positive,neutral,1,l,j,,,,,,,,,3,11,65,8,,,,,,,,,main,2,2,1,neutral,positive,j,j,1,0.4672265000117477,214.00792460000957,215.02251449998585,215.00591669999994,None,214.00792460000957,None,214.00792460000957,None,214.00792460000957,None,215.47259659998525,None,215.47259659998525,None,215.47259659998525,None,,,,,,,,,,,,,,105,2023-04-19_12h59.41.150,Main,2022.1.1,59.97666907263266,
negative,negative,2,j,l,,,,,,,,,3,12,66,9,,,,,,,,,main,1,1,2,negative,negative,l,l,1,0.4600792000128422,215.47665870000492,216.48919550000574,216.4725921000063,None,215.47665870000492,None,215.47665870000492,None,215.47665870000492,None,216.93428109999803,None,216.93428109999803,None,216.93428109999803,None,,,,,,,,,,,,,,105,2023-04-19_12h59.41.150,Main,2022.1.1,59.97666907263266,
positive,neutral,2,l,j,,,,,,,,,3,13,67,17,,,,,,,,,main,2,2,2,neutral,positive,j,j,1,0.4839759999886155,216.94980619999114,217.95327460000408,217.93660270000692,None,216.94980619999114,None,216.94980619999114,None,216.94980619999114,None,218.41992580000368,None,218.41992580000368,None,218.41992580000368,None,,,,,,,,,,,,,,105,2023-04-19_12h59.41.150,Main,2022.1.1,59.97666907263266,
negative,neutral,1,j,l,,,,,,,,,3,14,68,3,,,,,,,,,main,2,2,1,neutral,negative,l,l,1,0.5653180000081193,218.43664689999423,219.43665180000244,219.41999229998328,None,218.43664689999423,None,218.43664689999423,None,218.43664689999423,None,219.986746999991,None,219.986746999991,None,219.986746999991,None,,,,,,,,,,,,,,105,2023-04-19_12h59.41.150,Main,2022.1.1,59.97666907263266,
neutral,negative,1,k,k,,,,,,,,,3,15,69,7,,,,,,,,,main,1,1,1,negative,neutral,k,k,1,0.6849980999832042,219.9931214999815,221.0057749999978,220.98918979999144,None,219.9931214999815,None,219.9931214999815,None,219.9931214999815,None,221.67241269999357,None,221.67241269999357,None,221.67241269999357,None,,,,,,,,,,,,,,105,2023-04-19_12h59.41.150,Main,2022.1.1,59.97666907263266,
neutral,positive,2,k,k,,,,,,,,,3,16,70,13,,,,,,,,,main,2,2,2,positive,neutral,k,k,1,0.5641831000102684,221.6766093999904,222.68905149999773,222.67242419999093,None,221.6766093999904,None,221.6766093999904,None,221.6766093999904,None,223.23903780000109,None,223.23903780000109,None,223.23903780000109,None,,,,,,,,,,,,,,105,2023-04-19_12h59.41.150,Main,2022.1.1,59.97666907263266,
neutral,positive,1,k,k,,,,,,,,,3,17,71,4,,,,,,,,,main,1,1,1,positive,neutral,k,k,1,0.5152513999782968,223.24205299999448,224.2556412999984,224.23908490000758,None,223.24205299999448,None,223.24205299999448,None,223.24205299999448,None,224.7558181999804,None,224.7558181999804,None,224.7558181999804,None,,,,,,,,,,,,,,105,2023-04-19_12h59.41.150,Main,2022.1.1,59.97666907263266,
positive,positive,2,l,j,,,,,,,,,4,0,72,11,,,,,,,,,main,1,1,2,positive,positive,j,j,1,0.5291590999986511,224.758797699993,225.7722628999909,225.75567660000524,None,224.758797699993,None,224.758797699993,None,224.758797699993,None,226.28680449998063,None,226.28680449998063,None,226.28680449998063,None,,,,,,,,,,,,,,105,2023-04-19_12h59.41.150,Main,2022.1.1,59.97666907263266,
neutral,neutral,1,k,k,,,,,,,,,4,1,73,1,,,,,,,,,main,2,2,1,neutral,neutral,k,k,1,0.7150255999877118,226.2923185999971,227.30314489998273,227.28639429999748,None,226.2923185999971,None,226.2923185999971,None,226.2923185999971,None,228.00308810000132,None,228.00308810000132,None,228.00308810000132,None,,,,,,,,,,,,,,105,2023-04-19_12h59.41.150,Main,2022.1.1,59.97666907263266,
negative,positive,1,j,l,,,,,,,,,4,2,74,6,,,,,,,,,main,2,2,1,positive,negative,l,l,1,0.5652639000036288,228.00306660000933,229.0031178999925,229.0031178999925,None,228.00306660000933,None,228.00306660000933,None,228.00306660000933,None,229.56974929999268,None,229.56974929999268,None,229.56974929999268,None,,,,,,,,,,,,,,105,2023-04-19_12h59.41.150,Main,2022.1.1,59.97666907263266,
neutral,negative,2,k,k,,,,,,,,,4,3,75,16,,,,,,,,,main,2,2,2,negative,neutral,k,k,1,0.5816974999906961,229.5702437,230.56975719999173,230.56975719999173,None,229.5702437,None,229.5702437,None,229.5702437,None,231.15308689998636,None,231.15308689998636,None,231.15308689998636,None,,,,,,,,,,,,,,105,2023-04-19_12h59.41.150,Main,2022.1.1,59.97666907263266,
negative,negative,1,j,l,,,,,,,,,4,4,76,0,,,,,,,,,main,2,2,1,negative,negative,l,l,1,0.6156184999854304,231.15640529998927,232.15558540000347,232.15558540000347,None,231.15640529998927,None,231.15640529998927,None,231.15640529998927,None,232.77008219997805,None,232.77008219997805,None,232.77008219997805,None,,,,,,,,,,,,,,105,2023-04-19_12h59.41.150,Main,2022.1.1,59.97666907263266,
neutral,positive,1,k,k,,,,,,,,,4,5,77,4,,,,,,,,,main,2,2,1,positive,neutral,k,k,1,0.4839634000090882,232.77658869998413,233.78886719999718,233.77222349998192,None,232.77658869998413,None,232.77658869998413,None,232.77658869998413,None,234.25552049998367,None,234.25552049998367,None,234.25552049998367,None,,,,,,,,,,,,,,105,2023-04-19_12h59.41.150,Main,2022.1.1,59.97666907263266,
negative,negative,2,j,l,,,,,,,,,4,6,78,9,,,,,,,,,main,1,1,2,negative,negative,l,l,1,0.61280689999694,234.25852339999983,235.27228919998743,235.25555050000548,None,234.25852339999983,None,234.25852339999983,None,234.25852339999983,None,235.8700088999787,None,235.8700088999787,None,235.8700088999787,None,,,,,,,,,,,,,,105,2023-04-19_12h59.41.150,Main,2022.1.1,59.97666907263266,
negative,neutral,1,j,l,,,,,,,,,4,7,79,3,,,,,,,,,main,2,2,1,neutral,negative,l,l,1,0.4839106999861542,235.87540349998744,236.88882950000698,236.87221780000255,None,235.87540349998744,None,235.87540349998744,None,235.87540349998744,None,237.35537659999972,None,237.35537659999972,None,237.35537659999972,None,,,,,,,,,,,,,,105,2023-04-19_12h59.41.150,Main,2022.1.1,59.97666907263266,
neutral,neutral,2,k,k,,,,,,,,,4,8,80,10,,,,,,,,,main,1,1,2,neutral,neutral,k,k,1,0.6790807000070345,237.3596290999849,238.37208509998163,238.35548539998126,None,237.3596290999849,None,237.3596290999849,None,237.3596290999849,None,239.03616099999925,None,239.03616099999925,None,239.03616099999925,None,,,,,,,,,,,,,,105,2023-04-19_12h59.41.150,Main,2022.1.1,59.97666907263266,
negative,neutral,2,j,l,,,,,,,,,4,9,81,12,,,,,,,,,main,2,2,2,neutral,negative,l,l,1,0.548464999999851,239.03617129998747,240.0361988999939,240.0361988999939,None,239.03617129998747,None,239.03617129998747,None,239.03617129998747,None,240.5861992999882,None,240.5861992999882,None,240.5861992999882,None,,,,,,,,,,,,,,105,2023-04-19_12h59.41.150,Main,2022.1.1,59.97666907263266,
negative,positive,2,j,l,,,,,,,,,4,10,82,15,,,,,,,,,main,2,2,2,positive,negative,l,l,1,0.5477942999859806,240.5871821999899,241.58621029998176,241.58621029998176,None,240.5871821999899,None,240.5871821999899,None,240.5871821999899,None,242.13617509999602,None,242.13617509999602,None,242.13617509999602,None,,,,,,,,,,,,,,105,2023-04-19_12h59.41.150,Main,2022.1.1,59.97666907263266,
positive,negative,1,l,j,,,,,,,,,4,11,83,5,,,,,,,,,main,2,2,1,negative,positive,j,j,1,0.4158542000222951,242.13720559998183,243.1528541999869,243.13618119998137,None,242.13720559998183,None,242.13720559998183,None,242.13720559998183,None,243.55284490000048,None,243.55284490000048,None,243.55284490000048,None,,,,,,,,,,,,,,105,2023-04-19_12h59.41.150,Main,2022.1.1,59.97666907263266,
positive,positive,1,l,j,,,,,,,,,4,12,84,2,,,,,,,,,main,2,2,1,positive,positive,j,j,1,0.5810721000016201,243.55751089999103,244.57194009999512,244.5553418000054,None,243.55751089999103,None,243.55751089999103,None,243.55751089999103,None,245.13648180000308,None,245.13648180000308,None,245.13648180000308,None,,,,,,,,,,,,,,105,2023-04-19_12h59.41.150,Main,2022.1.1,59.97666907263266,
positive,neutral,1,l,j,,,,,,,,,4,13,85,8,,,,,,,,,main,1,1,1,neutral,positive,j,j,1,0.4488666000252124,245.142150700005,246.15521540000918,246.13866699999198,None,245.142150700005,None,245.142150700005,None,245.142150700005,None,246.58677609998557,None,246.58677609998557,None,246.58677609998557,None,,,,,,,,,,,,,,105,2023-04-19_12h59.41.150,Main,2022.1.1,59.97666907263266,
positive,negative,2,l,j,,,,,,,,,4,14,86,14,,,,,,,,,main,1,1,2,negative,positive,j,j,1,0.49990160000743344,246.59281889998238,247.60516999999527,247.58865499999956,None,246.59281889998238,None,246.59281889998238,None,246.59281889998238,None,248.08851319999957,None,248.08851319999957,None,248.08851319999957,None,,,,,,,,,,,,,,105,2023-04-19_12h59.41.150,Main,2022.1.1,59.97666907263266,
positive,neutral,2,l,j,,,,,,,,,4,15,87,17,,,,,,,,,main,1,1,2,neutral,positive,j,j,1,0.6295575999829452,248.09149920000345,249.10516819998156,249.08855419998872,None,248.09149920000345,None,248.09149920000345,None,248.09149920000345,None,249.71941349999105,None,249.71941349999105,None,249.71941349999105,None,,,,,,,,,,,,,,105,2023-04-19_12h59.41.150,Main,2022.1.1,59.97666907263266,
neutral,negative,1,k,k,,,,,,,,,4,16,88,7,,,,,,,,,main,2,2,1,negative,neutral,k,k,1,0.6147847000102047,249.7258149999834,250.73557429999346,250.7161788000085,None,249.7258149999834,None,249.7258149999834,None,249.7258149999834,None,251.33590039998234,None,251.33590039998234,None,251.33590039998234,None,,,,,,,,,,,,,,105,2023-04-19_12h59.41.150,Main,2022.1.1,59.97666907263266,
neutral,positive,2,k,k,,,,,,,,,4,17,89,13,,,,,,,,,main,1,1,2,positive,neutral,k,k,1,0.4652694000105839,251.33592680000584,252.33593090000795,252.33593090000795,None,251.33592680000584,None,251.33592680000584,None,251.33592680000584,None,252.80263639998446,None,252.80263639998446,None,252.80263639998446,None,,,,,,,,,,,,,,105,2023-04-19_12h59.41.150,Main,2022.1.1,59.97666907263266,
negative,negative,2,j,l,,,,,,,,,5,0,90,9,,,,,,,,,main,1,1,2,negative,negative,l,l,1,0.6151928000035696,252.8026409999875,253.80261419998715,253.80261419998715,None,252.8026409999875,None,252.8026409999875,None,252.8026409999875,None,254.41927649997814,None,254.41927649997814,None,254.41927649997814,None,,,,,,,,,,,,,,105,2023-04-19_12h59.41.150,Main,2022.1.1,59.97666907263266,
negative,negative,1,j,l,,,,,,,,,5,1,91,0,,,,,,,,,main,1,1,1,negative,negative,l,l,1,0.5008402000239585,254.4227011000039,255.4217798000027,255.4217798000027,None,254.4227011000039,None,254.4227011000039,None,254.4227011000039,None,255.92170519999053,None,255.92170519999053,None,255.92170519999053,None,,,,,,,,,,,,,,105,2023-04-19_12h59.41.150,Main,2022.1.1,59.97666907263266,
positive,neutral,1,l,j,,,,,,,,,5,2,92,8,,,,,,,,,main,2,2,1,neutral,positive,j,j,1,0.646069600014016,255.92486709999503,256.93835340000805,256.9217432999867,None,255.92486709999503,None,255.92486709999503,None,255.92486709999503,None,257.5694043999858,None,257.5694043999858,None,257.5694043999858,None,,,,,,,,,,,,,,105,2023-04-19_12h59.41.150,Main,2022.1.1,59.97666907263266,
neutral,neutral,2,k,k,,,,,,,,,5,3,93,10,,,,,,,,,main,1,1,2,neutral,neutral,k,k,1,0.6330654000048526,257.5764441000065,258.58837379998295,258.5717718999949,None,257.5764441000065,None,257.5764441000065,None,257.5764441000065,None,259.20500789999204,None,259.20500789999204,None,259.20500789999204,None,,,,,,,,,,,,,,105,2023-04-19_12h59.41.150,Main,2022.1.1,59.97666907263266,
negative,neutral,2,j,l,,,,,,,,,5,4,94,12,,,,,,,,,main,1,1,2,neutral,negative,l,l,1,0.5826945000153501,259.2076662000036,260.2216758999857,260.20504050000454,None,259.2076662000036,None,259.2076662000036,None,259.2076662000036,None,260.7882096999994,None,260.7882096999994,None,260.7882096999994,None,,,,,,,,,,,,,,105,2023-04-19_12h59.41.150,Main,2022.1.1,59.97666907263266,
neutral,negative,2,k,k,,,,,,,,,5,5,95,16,,,,,,,,,main,2,2,2,negative,neutral,k,k,1,0.5785215999931097,260.79236289998516,261.804939499998,261.78830899999593,None,260.79236289998516,None,260.79236289998516,None,260.79236289998516,None,262.36912629998113,None,262.36912629998113,None,262.36912629998113,None,,,,,,,,,,,,,,105,2023-04-19_12h59.41.150,Main,2022.1.1,59.97666907263266,
neutral,positive,2,k,k,,,,,,,,,5,6,96,13,,,,,,,,,main,2,2,2,positive,neutral,k,k,1,0.5150598000036553,262.3727837000042,263.3857183000073,263.36906050000107,None,262.3727837000042,None,262.3727837000042,None,262.3727837000042,None,263.8857143999805,None,263.8857143999805,None,263.8857143999805,None,,,,,,,,,,,,,,105,2023-04-19_12h59.41.150,Main,2022.1.1,59.97666907263266,
positive,negative,2,l,j,,,,,,,,,5,7,97,14,,,,,,,,,main,2,2,2,negative,positive,j,j,1,0.6986624000128359,263.88568059998215,264.8857171999989,264.8857171999989,None,263.88568059998215,None,263.88568059998215,None,263.88568059998215,None,265.58573249998443,None,265.58573249998443,None,265.58573249998443,None,,,,,,,,,,,,,,105,2023-04-19_12h59.41.150,Main,2022.1.1,59.97666907263266,
negative,positive,2,j,l,,,,,,,,,5,8,98,15,,,,,,,,,main,1,1,2,positive,negative,l,l,1,0.5149011999892537,265.5864632999874,266.58569619999616,266.58569619999616,None,265.5864632999874,None,265.5864632999874,None,265.5864632999874,None,267.1023751999921,None,267.1023751999921,None,267.1023751999921,None,,,,,,,,,,,,,,105,2023-04-19_12h59.41.150,Main,2022.1.1,59.97666907263266,
positive,positive,2,l,j,,,,,,,,,5,9,99,11,,,,,,,,,main,2,2,2,positive,positive,j,j,1,0.4982314000080805,267.1061141999962,268.12146359999315,268.104877100006,None,267.1061141999962,None,267.1061141999962,None,267.1061141999962,None,268.60234610000333,None,268.60234610000333,None,268.60234610000333,None,,,,,,,,,,,,,,105,2023-04-19_12h59.41.150,Main,2022.1.1,59.97666907263266,
negative,positive,1,j,l,,,,,,,,,5,10,100,6,,,,,,,,,main,1,1,1,positive,negative,l,l,1,0.5824229000136256,268.60568290000083,269.6048303999996,269.6048303999996,None,268.60568290000083,None,268.60568290000083,None,268.60568290000083,None,270.18598549999587,None,270.18598549999587,None,270.18598549999587,None,,,,,,,,,,,,,,105,2023-04-19_12h59.41.150,Main,2022.1.1,59.97666907263266,
neutral,negative,1,k,k,,,,,,,,,5,11,101,7,,,,,,,,,main,2,2,1,negative,neutral,k,k,1,0.5003303999837954,270.1920545999892,271.204716999986,271.18808639998315,None,270.1920545999892,None,270.1920545999892,None,270.1920545999892,None,271.6881027999945,None,271.6881027999945,None,271.6881027999945,None,,,,,,,,,,,,,,105,2023-04-19_12h59.41.150,Main,2022.1.1,59.97666907263266,
negative,neutral,1,j,l,,,,,,,,,5,12,102,3,,,,,,,,,main,2,2,1,neutral,negative,l,l,1,0.4792907000228297,271.69131299998844,272.70474139999715,272.6880897000083,None,271.69131299998844,None,271.69131299998844,None,271.69131299998844,None,273.16903249998285,None,273.16903249998285,None,273.16903249998285,None,,,,,,,,,,,,,,105,2023-04-19_12h59.41.150,Main,2022.1.1,59.97666907263266,
positive,negative,1,l,j,,,,,,,,,5,13,103,5,,,,,,,,,main,2,2,1,negative,positive,j,j,1,0.5339160000148695,273.17566049998277,274.18813349999255,274.16902709999704,None,273.17566049998277,None,273.17566049998277,None,273.17566049998277,None,274.7046153000003,None,274.7046153000003,None,274.7046153000003,None,,,,,,,,,,,,,,105,2023-04-19_12h59.41.150,Main,2022.1.1,59.97666907263266,
positive,neutral,2,l,j,,,,,,,,,5,14,104,17,,,,,,,,,main,1,1,2,neutral,positive,j,j,1,0.5798165999876801,274.7087387999927,275.7187675999885,275.70210190000944,None,274.7087387999927,None,274.7087387999927,None,274.7087387999927,None,276.2854620000027,None,276.2854620000027,None,276.2854620000027,None,,,,,,,,,,,,,,105,2023-04-19_12h59.41.150,Main,2022.1.1,59.97666907263266,
neutral,neutral,1,k,k,,,,,,,,,5,15,105,1,,,,,,,,,main,1,1,1,neutral,neutral,k,k,1,0.6976502000179607,276.28590640000766,277.285478899983,277.285478899983,None,276.28590640000766,None,276.28590640000766,None,276.28590640000766,None,277.9854652999813,None,277.9854652999813,None,277.9854652999813,None,,,,,,,,,,,,,,105,2023-04-19_12h59.41.150,Main,2022.1.1,59.97666907263266,
positive,positive,1,l,j,,,,,,,,,5,16,106,2,,,,,,,,,main,1,1,1,positive,positive,j,j,1,0.48181019999901764,277.98730489998707,279.00210769998375,278.9854461000068,None,277.98730489998707,None,277.98730489998707,None,277.98730489998707,None,279.46878949998353,None,279.46878949998353,None,279.46878949998353,None,,,,,,,,,,,,,,105,2023-04-19_12h59.41.150,Main,2022.1.1,59.97666907263266,
neutral,positive,1,k,k,,,,,,,,,5,17,107,4,,,,,,,,,main,2,2,1,positive,neutral,k,k,1,0.6335552999807987,279.4730634999869,280.4878667999874,280.4712794999941,None,279.4730634999869,None,279.4730634999869,None,279.4730634999869,None,281.1046149999922,None,281.1046149999922,None,281.1046149999922,None,,,,,,,,,,,,,,105,2023-04-19_12h59.41.150,Main,2022.1.1,59.97666907263266,
neutral,positive,1,k,k,,,,,,,,,6,0,108,4,,,,,,,,,main,1,1,1,positive,neutral,k,k,1,0.6314298000070266,281.10790979999,282.12123769999016,282.1046122999978,None,281.10790979999,None,281.10790979999,None,281.10790979999,None,282.73777889999036,None,282.73777889999036,None,282.73777889999036,None,,,,,,,,,,,,,,105,2023-04-19_12h59.41.150,Main,2022.1.1,59.97666907263266,
neutral,negative,2,k,k,,,,,,,,,6,1,109,16,,,,,,,,,main,1,1,2,negative,neutral,k,k,1,0.5484389999764971,282.7409665999876,283.7545026000007,283.7378572000016,None,282.7409665999876,None,282.7409665999876,None,282.7409665999876,None,284.28788079999794,None,284.28788079999794,None,284.28788079999794,None,,,,,,,,,,,,,,105,2023-04-19_12h59.41.150,Main,2022.1.1,59.97666907263266,
negative,negative,1,j,l,,,,,,,,,6,2,110,0,,,,,,,,,main,2,2,1,negative,negative,l,l,1,0.49831350002205,284.2911020999891,285.30443930000183,285.2878400000045,None,284.2911020999891,None,284.2911020999891,None,284.2911020999891,None,285.7877362000028,None,285.7877362000028,None,285.7877362000028,None,,,,,,,,,,,,,,105,2023-04-19_12h59.41.150,Main,2022.1.1,59.97666907263266,
positive,positive,1,l,j,,,,,,,,,6,3,111,2,,,,,,,,,main,2,2,1,positive,positive,j,j,1,0.4792349000053946,285.79081959999166,286.80446590000065,286.7878366000077,None,285.79081959999166,None,285.79081959999166,None,285.79081959999166,None,287.2685599999997,None,287.2685599999997,None,287.2685599999997,None,,,,,,,,,,,,,,105,2023-04-19_12h59.41.150,Main,2022.1.1,59.97666907263266,
positive,neutral,1,l,j,,,,,,,,,6,4,112,8,,,,,,,,,main,2,2,1,neutral,positive,j,j,1,0.44854359998134896,287.26853889998165,288.2685467999836,288.2685467999836,None,287.26853889998165,None,287.26853889998165,None,287.26853889998165,None,288.7185479000065,None,288.7185479000065,None,288.7185479000065,None,,,,,,,,,,,,,,105,2023-04-19_12h59.41.150,Main,2022.1.1,59.97666907263266,
positive,negative,2,l,j,,,,,,,,,6,5,113,14,,,,,,,,,main,2,2,2,negative,positive,j,j,1,0.4984633000276517,288.7185339999851,289.71856119998847,289.71856119998847,None,288.7185339999851,None,288.7185339999851,None,288.7185339999851,None,290.21855299998714,None,290.21855299998714,None,290.21855299998714,None,,,,,,,,,,,,,,105,2023-04-19_12h59.41.150,Main,2022.1.1,59.97666907263266,
neutral,neutral,1,k,k,,,,,,,,,6,6,114,1,,,,,,,,,main,2,2,1,neutral,neutral,k,k,1,0.5844373999862,290.21898449998116,291.21855950000463,291.21855950000463,None,290.21898449998116,None,290.21898449998116,None,290.21898449998116,None,291.80444099998857,None,291.80444099998857,None,291.80444099998857,None,,,,,,,,,,,,,,105,2023-04-19_12h59.41.150,Main,2022.1.1,59.97666907263266,
positive,positive,2,l,j,,,,,,,,,6,7,115,11,,,,,,,,,main,2,2,2,positive,positive,j,j,1,0.5479903999948874,291.8080914999882,292.82101119999425,292.8043795999838,None,291.8080914999882,None,291.8080914999882,None,291.8080914999882,None,293.3542811999825,None,293.3542811999825,None,293.3542811999825,None,,,,,,,,,,,,,,105,2023-04-19_12h59.41.150,Main,2022.1.1,59.97666907263266,
negative,negative,2,j,l,,,,,,,,,6,8,116,9,,,,,,,,,main,2,2,2,negative,negative,l,l,1,0.43167270001140423,293.35734930000035,294.37088349999976,294.3542726000014,None,293.35734930000035,None,293.35734930000035,None,293.35734930000035,None,294.7875276999868,None,294.7875276999868,None,294.7875276999868,None,,,,,,,,,,,,,,105,2023-04-19_12h59.41.150,Main,2022.1.1,59.97666907263266,
neutral,negative,1,k,k,,,,,,,,,6,9,117,7,,,,,,,,,main,2,2,1,negative,neutral,k,k,1,0.6293863000173587,294.7907881999854,295.80422120000003,295.7876541999867,None,294.7907881999854,None,294.7907881999854,None,294.7907881999854,None,296.4185846999782,None,296.4185846999782,None,296.4185846999782,None,,,,,,,,,,,,,,105,2023-04-19_12h59.41.150,Main,2022.1.1,59.97666907263266,
neutral,positive,2,k,k,,,,,,,,,6,10,118,13,,,,,,,,,main,2,2,2,positive,neutral,k,k,1,0.667542000010144,296.4377345999819,297.4374900999828,297.42088550000335,None,296.4377345999819,None,296.4377345999819,None,296.4377345999819,None,298.0876444999914,None,298.0876444999914,None,298.0876444999914,None,,,,,,,,,,,,,,105,2023-04-19_12h59.41.150,Main,2022.1.1,59.97666907263266,
negative,neutral,1,j,l,,,,,,,,,6,11,119,3,,,,,,,,,main,2,2,1,neutral,negative,l,l,1,0.6457305999938399,298.0908014999877,299.10162729999865,299.08495339998626,None,298.0908014999877,None,298.0908014999877,None,298.0908014999877,None,299.7349397999962,None,299.7349397999962,None,299.7349397999962,None,,,,,,,,,,,,,,105,2023-04-19_12h59.41.150,Main,2022.1.1,59.97666907263266,
positive,negative,1,l,j,,,,,,,,,6,12,120,5,,,,,,,,,main,2,2,1,negative,positive,j,j,1,0.5174393999914173,299.73502249998273,300.73503229999915,300.73503229999915,None,299.73502249998273,None,299.73502249998273,None,299.73502249998273,None,301.25410969998046,None,301.25410969998046,None,301.25410969998046,None,,,,,,,,,,,,,,105,2023-04-19_12h59.41.150,Main,2022.1.1,59.97666907263266,
positive,neutral,2,l,j,,,,,,,,,6,13,121,17,,,,,,,,,main,1,1,2,neutral,positive,j,j,1,0.6983160000236239,301.2571372000093,302.27073550000205,302.2541719999863,None,301.2571372000093,None,301.2571372000093,None,301.2571372000093,None,302.95407879998965,None,302.95407879998965,None,302.95407879998965,None,,,,,,,,,,,,,,105,2023-04-19_12h59.41.150,Main,2022.1.1,59.97666907263266,
negative,positive,2,j,l,,,,,,,,,6,14,122,15,,,,,,,,,main,1,1,2,positive,negative,l,l,1,0.5318003999709617,302.95717029998195,303.97067690000404,303.95409849999123,None,302.95717029998195,None,302.95717029998195,None,302.95717029998195,None,304.4873755000037,None,304.4873755000037,None,304.4873755000037,None,,,,,,,,,,,,,,105,2023-04-19_12h59.41.150,Main,2022.1.1,59.97666907263266,
neutral,neutral,2,k,k,,,,,,,,,6,15,123,10,,,,,,,,,main,1,1,2,neutral,neutral,k,k,1,0.5823672999977134,304.49048879998736,305.50403680000454,305.4874343999836,None,304.49048879998736,None,304.49048879998736,None,304.49048879998736,None,306.0707916999847,None,306.0707916999847,None,306.0707916999847,None,,,,,,,,,,,,,,105,2023-04-19_12h59.41.150,Main,2022.1.1,59.97666907263266,
negative,neutral,2,j,l,,,,,,,,,6,16,124,12,,,,,,,,,main,1,1,2,neutral,negative,l,l,1,0.5144077999866568,306.07507629998145,307.087389399996,307.07076050000614,None,306.07507629998145,None,306.07507629998145,None,306.07507629998145,None,307.58729470000543,None,307.58729470000543,None,307.58729470000543,None,,,,,,,,,,,,,,105,2023-04-19_12h59.41.150,Main,2022.1.1,59.97666907263266,
negative,positive,1,j,l,,,,,,,,,6,17,125,6,,,,,,,,,main,2,2,1,positive,negative,l,l,1,0.5292916999896988,307.5908247999905,308.60142500000075,308.5847617999825,None,307.5908247999905,None,307.5908247999905,None,307.5908247999905,None,309.11808180000224,None,309.11808180000224,None,309.11808180000224,None,,,,,,,,,,,,,,105,2023-04-19_12h59.41.150,Main,2022.1.1,59.97666907263266,
neutral,negative,1,k,k,,,,,,,,,7,0,126,7,,,,,,,,,main,2,2,1,negative,neutral,k,k,1,0.6148579000146128,309.11819559999276,310.1181310999964,310.1181310999964,None,309.11819559999276,None,309.11819559999276,None,309.11819559999276,None,310.7348003999825,None,310.7348003999825,None,310.7348003999825,None,,,,,,,,,,,,,,105,2023-04-19_12h59.41.150,Main,2022.1.1,59.97666907263266,
neutral,neutral,2,k,k,,,,,,,,,7,1,127,10,,,,,,,,,main,2,2,2,neutral,neutral,k,k,1,0.4642003999906592,310.7363849999965,311.7514525000006,311.73478649999015,None,310.7363849999965,None,310.7363849999965,None,310.7363849999965,None,312.2014488999877,None,312.2014488999877,None,312.2014488999877,None,,,,,,,,,,,,,,105,2023-04-19_12h59.41.150,Main,2022.1.1,59.97666907263266,
negative,neutral,1,j,l,,,,,,,,,7,2,128,3,,,,,,,,,main,1,1,1,neutral,negative,l,l,1,0.5144077999866568,312.20273779999116,313.20396320000873,313.20396320000873,None,312.20273779999116,None,312.20273779999116,None,312.20273779999116,None,313.71811499999893,None,313.71811499999893,None,313.71811499999893,None,,,,,,,,,,,,,,105,2023-04-19_12h59.41.150,Main,2022.1.1,59.97666907263266,
neutral,positive,2,k,k,,,,,,,,,7,3,129,13,,,,,,,,,main,1,1,2,positive,neutral,k,k,1,0.5676754000014625,313.7241578999965,314.73718309999094,314.7205891000049,None,313.7241578999965,None,313.7241578999965,None,313.7241578999965,None,315.2872543000005,None,315.2872543000005,None,315.2872543000005,None,,,,,,,,,,,,,,105,2023-04-19_12h59.41.150,Main,2022.1.1,59.97666907263266,
negative,positive,1,j,l,,,,,,,,,7,4,130,6,,,,,,,,,main,2,2,1,positive,negative,l,l,1,0.4960459000139963,315.2904303999967,316.3037551000016,316.28720369999064,None,315.2904303999967,None,315.2904303999967,None,315.2904303999967,None,316.78469589999,None,316.78469589999,None,316.78469589999,None,,,,,,,,,,,,,,105,2023-04-19_12h59.41.150,Main,2022.1.1,59.97666907263266,
negative,neutral,2,j,l,,,,,,,,,7,5,131,12,,,,,,,,,main,2,2,2,neutral,negative,l,l,1,0.5505907999759074,316.788616899983,317.80381909999414,317.78717890000553,None,316.788616899983,None,316.788616899983,None,316.788616899983,None,318.33706079999973,None,318.33706079999973,None,318.33706079999973,None,,,,,,,,,,,,,,105,2023-04-19_12h59.41.150,Main,2022.1.1,59.97666907263266,
neutral,positive,1,k,k,,,,,,,,,7,6,132,4,,,,,,,,,main,2,2,1,positive,neutral,k,k,1,0.5651805000088643,318.34116340000764,319.35369689998333,319.3371807000076,None,318.34116340000764,None,318.34116340000764,None,318.34116340000764,None,319.9037923000025,None,319.9037923000025,None,319.9037923000025,None,,,,,,,,,,,,,,105,2023-04-19_12h59.41.150,Main,2022.1.1,59.97666907263266,
neutral,neutral,1,k,k,,,,,,,,,7,7,133,1,,,,,,,,,main,2,2,1,neutral,neutral,k,k,1,0.5791484000219498,319.9067811999994,320.9178466000012,320.90118059999077,None,319.9067811999994,None,319.9067811999994,None,319.9067811999994,None,321.48450349999183,None,321.48450349999183,None,321.48450349999183,None,,,,,,,,,,,,,,105,2023-04-19_12h59.41.150,Main,2022.1.1,59.97666907263266,
positive,negative,2,l,j,,,,,,,,,7,8,134,14,,,,,,,,,main,2,2,2,negative,positive,j,j,1,0.5988740999891888,321.4845032999874,322.4845673000091,322.4845673000091,None,321.4845032999874,None,321.4845032999874,None,321.4845032999874,None,323.084559299986,None,323.084559299986,None,323.084559299986,None,,,,,,,,,,,,,,105,2023-04-19_12h59.41.150,Main,2022.1.1,59.97666907263266,
negative,negative,1,j,l,,,,,,,,,7,9,135,0,,,,,,,,,main,1,1,1,negative,negative,l,l,1,0.5145386999938637,323.08582790000946,324.10119859999395,324.08453299998655,None,323.08582790000946,None,323.08582790000946,None,323.08582790000946,None,324.60122369998425,None,324.60122369998425,None,324.60122369998425,None,,,,,,,,,,,,,,105,2023-04-19_12h59.41.150,Main,2022.1.1,59.97666907263266,
positive,positive,2,l,j,,,,,,,,,7,10,136,11,,,,,,,,,main,1,1,2,positive,positive,j,j,1,0.5652670999988914,324.6043906999985,325.6036996000039,325.58702710000216,None,324.6043906999985,None,324.6043906999985,None,324.6043906999985,None,326.16784260000276,None,326.16784260000276,None,326.16784260000276,None,,,,,,,,,,,,,,105,2023-04-19_12h59.41.150,Main,2022.1.1,59.97666907263266,
positive,neutral,1,l,j,,,,,,,,,7,11,137,8,,,,,,,,,main,1,1,1,neutral,positive,j,j,1,0.48409909999463707,326.17094290000387,327.17028059999575,327.1536812999984,None,326.17094290000387,None,326.17094290000387,None,326.17094290000387,None,327.6535648999881,None,327.6535648999881,None,327.6535648999881,None,,,,,,,,,,,,,,105,2023-04-19_12h59.41.150,Main,2022.1.1,59.97666907263266,
positive,negative,1,l,j,,,,,,,,,7,12,138,5,,,,,,,,,main,2,2,1,negative,positive,j,j,1,0.4826760000141803,327.6571627999947,328.6702209000068,328.65365900000324,None,327.6571627999947,None,327.6571627999947,None,327.6571627999947,None,329.13688859998655,None,329.13688859998655,None,329.13688859998655,None,,,,,,,,,,,,,,105,2023-04-19_12h59.41.150,Main,2022.1.1,59.97666907263266,
negative,positive,2,j,l,,,,,,,,,7,13,139,15,,,,,,,,,main,2,2,2,positive,negative,l,l,1,0.5475075999856927,329.14121219998924,330.1535397999978,330.1369105000049,None,329.14121219998924,None,329.14121219998924,None,329.14121219998924,None,330.686871999994,None,330.686871999994,None,330.686871999994,None,,,,,,,,,,,,,,105,2023-04-19_12h59.41.150,Main,2022.1.1,59.97666907263266,
positive,neutral,2,l,j,,,,,,,,,7,14,140,17,,,,,,,,,main,2,2,2,neutral,positive,j,j,1,0.5861774999939371,330.6908187000081,331.7035472999851,331.68695859998115,None,330.6908187000081,None,330.6908187000081,None,330.6908187000081,None,332.27163919998856,None,332.27163919998856,None,332.27163919998856,None,,,,,,,,,,,,,,105,2023-04-19_12h59.41.150,Main,2022.1.1,59.97666907263266,
negative,negative,2,j,l,,,,,,,,,7,15,141,9,,,,,,,,,main,1,1,2,negative,negative,l,l,1,0.5416652999992948,332.284247899981,333.2843031999946,333.267637699988,None,332.284247899981,None,332.284247899981,None,332.284247899981,None,333.8176217000029,None,333.8176217000029,None,333.8176217000029,None,,,,,,,,,,,,,,105,2023-04-19_12h59.41.150,Main,2022.1.1,59.97666907263266,
neutral,negative,2,k,k,,,,,,,,,7,16,142,16,,,,,,,,,main,2,2,2,negative,neutral,k,k,1,0.9649558000091929,333.81760189999477,334.8176574999816,334.8176574999816,None,333.81760189999477,None,333.81760189999477,None,333.81760189999477,None,335.7843047999806,None,335.7843047999806,None,335.7843047999806,None,,,,,,,,,,,,,,105,2023-04-19_12h59.41.150,Main,2022.1.1,59.97666907263266,
positive,positive,1,l,j,,,,,,,,,7,17,143,2,,,,,,,,,main,1,1,1,positive,positive,j,j,1,0.550902099988889,335.7874982999929,336.78674179999507,336.77017999999225,None,335.7874982999929,None,335.7874982999929,None,335.7874982999929,None,337.33684779997856,None,337.33684779997856,None,337.33684779997856,None,,,,,,,,,,,,,,105,2023-04-19_12h59.41.150,Main,2022.1.1,59.97666907263266,
positive,neutral,1,l,j,,,,,,,,,8,0,144,8,,,,,,,,,main,2,2,1,neutral,positive,j,j,1,0.4649446999828797,337.34076600000844,338.3534440000076,338.33672849999857,None,337.34076600000844,None,337.34076600000844,None,337.34076600000844,None,338.8033770999784,None,338.8033770999784,None,338.8033770999784,None,,,,,,,,,,,,,,105,2023-04-19_12h59.41.150,Main,2022.1.1,59.97666907263266,
positive,neutral,2,l,j,,,,,,,,,8,1,145,17,,,,,,,,,main,1,1,2,neutral,positive,j,j,1,0.5819648000178859,338.8067588999984,339.819975099992,339.80344889999833,None,338.8067588999984,None,338.8067588999984,None,338.8067588999984,None,340.3866566999961,None,340.3866566999961,None,340.3866566999961,None,,,,,,,,,,,,,,105,2023-04-19_12h59.41.150,Main,2022.1.1,59.97666907263266,
neutral,neutral,1,k,k,,,,,,,,,8,2,146,1,,,,,,,,,main,1,1,1,neutral,neutral,k,l,0,0.5650125999818556,340.38976879999973,341.4033517999924,341.386688700004,None,340.38976879999973,None,340.38976879999973,None,340.38976879999973,None,341.95166489999974,None,341.95166489999974,None,341.95166489999974,None,,,,,,,,,,,,,,105,2023-04-19_12h59.41.150,Main,2022.1.1,59.97666907263266,
positive,positive,2,l,j,,,,,,,,,8,3,147,11,,,,,,,,,main,2,2,2,positive,positive,j,j,1,0.6168388000223786,342.9530034000054,343.9673744000029,343.9340458000079,None,342.9530034000054,None,342.9530034000054,None,342.9530034000054,None,344.5673695000034,None,344.5673695000034,None,344.5673695000034,None,,,,,,,,,,,,,,105,2023-04-19_12h59.41.150,Main,2022.1.1,59.97666907263266,
neutral,positive,2,k,k,,,,,,,,,8,4,148,13,,,,,,,,,main,1,1,2,positive,neutral,k,k,1,0.5315025000018068,344.5676420000091,345.56739859998925,345.56739859998925,None,344.5676420000091,None,344.5676420000091,None,344.5676420000091,None,346.1007934999972,None,346.1007934999972,None,346.1007934999972,None,,,,,,,,,,,,,,105,2023-04-19_12h59.41.150,Main,2022.1.1,59.97666907263266,
neutral,negative,1,k,k,,,,,,,,,8,5,149,7,,,,,,,,,main,2,2,1,negative,neutral,k,k,1,0.4840605999925174,346.1040084999986,347.1032472999941,347.1032472999941,None,346.1040084999986,None,346.1040084999986,None,346.1040084999986,None,347.5865036000061,None,347.5865036000061,None,347.5865036000061,None,,,,,,,,,,,,,,105,2023-04-19_12h59.41.150,Main,2022.1.1,59.97666907263266,
neutral,negative,2,k,k,,,,,,,,,8,6,150,16,,,,,,,,,main,2,2,2,negative,neutral,k,k,1,0.5629497000190895,347.5892569999851,348.6031495000061,348.586596499983,None,347.5892569999851,None,347.5892569999851,None,347.5892569999851,None,349.1510619999928,None,349.1510619999928,None,349.1510619999928,None,,,,,,,,,,,,,,105,2023-04-19_12h59.41.150,Main,2022.1.1,59.97666907263266,
positive,positive,1,l,j,,,,,,,,,8,7,151,2,,,,,,,,,main,1,1,1,positive,positive,j,j,1,0.5816849000111688,349.1548487999826,350.16980450000847,350.15323389999685,None,349.1548487999826,None,349.1548487999826,None,349.1548487999826,None,350.73403569998044,None,350.73403569998044,None,350.73403569998044,None,,,,,,,,,,,,,,105,2023-04-19_12h59.41.150,Main,2022.1.1,59.97666907263266,
neutral,positive,1,k,k,,,,,,,,,8,8,152,4,,,,,,,,,main,2,2,1,positive,neutral,k,k,1,0.5339419000083581,350.7376346999954,351.75309859999106,351.73657839998486,None,350.7376346999954,None,350.7376346999954,None,350.7376346999954,None,352.2696689000033,None,352.2696689000033,None,352.2696689000033,None,,,,,,,,,,,,,,105,2023-04-19_12h59.41.150,Main,2022.1.1,59.97666907263266,
negative,positive,2,j,l,,,,,,,,,8,9,153,15,,,,,,,,,main,1,1,2,positive,negative,l,l,1,1.2967366999946535,352.2734640999988,353.2887270000065,353.2697902999935,None,352.2734640999988,None,352.2734640999988,None,352.2734640999988,None,354.56722889998053,None,354.56722889998053,None,354.56722889998053,None,,,,,,,,,,,,,,105,2023-04-19_12h59.41.150,Main,2022.1.1,59.97666907263266,
neutral,neutral,2,k,k,,,,,,,,,8,10,154,10,,,,,,,,,main,2,2,2,neutral,neutral,k,k,1,0.5478662999812514,354.5679559999844,355.56722269998863,355.56722269998863,None,354.5679559999844,None,354.5679559999844,None,354.5679559999844,None,356.1172217000014,None,356.1172217000014,None,356.1172217000014,None,,,,,,,,,,,,,,105,2023-04-19_12h59.41.150,Main,2022.1.1,59.97666907263266,
positive,negative,2,l,j,,,,,,,,,8,11,155,14,,,,,,,,,main,1,1,2,negative,positive,j,j,1,0.6148131999943871,356.118107199989,357.1172288999951,357.1172288999951,None,356.118107199989,None,356.118107199989,None,356.118107199989,None,357.733872999993,None,357.733872999993,None,357.733872999993,None,,,,,,,,,,,,,,105,2023-04-19_12h59.41.150,Main,2022.1.1,59.97666907263266,
negative,positive,1,j,l,,,,,,,,,8,12,156,6,,,,,,,,,main,2,2,1,positive,negative,l,l,1,0.6177136999904178,357.7381483000063,358.7530285999819,358.7364082999993,None,357.7381483000063,None,357.7381483000063,None,357.7381483000063,None,359.35293209998343,None,359.35293209998343,None,359.35293209998343,None,,,,,,,,,,,,,,105,2023-04-19_12h59.41.150,Main,2022.1.1,59.97666907263266,
negative,negative,2,j,l,,,,,,,,,8,13,157,9,,,,,,,,,main,2,2,2,negative,negative,l,l,1,0.5151828000089154,359.35590299998876,360.3695700999815,360.3529664000089,None,359.35590299998876,None,359.35590299998876,None,359.35590299998876,None,360.8696292999986,None,360.8696292999986,None,360.8696292999986,None,,,,,,,,,,,,,,105,2023-04-19_12h59.41.150,Main,2022.1.1,59.97666907263266,
negative,neutral,2,j,l,,,,,,,,,8,14,158,12,,,,,,,,,main,2,2,2,neutral,negative,l,l,1,0.6152035999984946,360.8727625999891,361.88620139998966,361.86961759999394,None,360.8727625999891,None,360.8727625999891,None,360.8727625999891,None,362.4861905000027,None,362.4861905000027,None,362.4861905000027,None,,,,,,,,,,,,,,105,2023-04-19_12h59.41.150,Main,2022.1.1,59.97666907263266,
negative,neutral,1,j,l,,,,,,,,,8,15,159,3,,,,,,,,,main,1,1,1,neutral,negative,l,l,1,0.5651012999878731,362.4893015999987,363.50289040000644,363.48624080000445,None,362.4893015999987,None,362.4893015999987,None,362.4893015999987,None,364.05291559998585,None,364.05291559998585,None,364.05291559998585,None,,,,,,,,,,,,,,105,2023-04-19_12h59.41.150,Main,2022.1.1,59.97666907263266,
negative,negative,1,j,l,,,,,,,,,8,16,160,0,,,,,,,,,main,1,1,1,negative,negative,l,l,1,0.6627098000026308,364.0559200999851,365.0669765000057,365.05029879999347,None,364.0559200999851,None,364.0559200999851,None,364.0559200999851,None,365.7169668999879,None,365.7169668999879,None,365.7169668999879,None,,,,,,,,,,,,,,105,2023-04-19_12h59.41.150,Main,2022.1.1,59.97666907263266,
positive,negative,1,l,j,,,,,,,,,8,17,161,5,,,,,,,,,main,2,2,1,negative,positive,j,j,1,0.6482686999952421,365.717378500005,366.71699240000453,366.71699240000453,None,365.717378500005,None,365.717378500005,None,365.717378500005,None,367.3670274000062,None,367.3670274000062,None,367.3670274000062,None,,,,,,,,,,,,,,105,2023-04-19_12h59.41.150,Main,2022.1.1,59.97666907263266,
negative,neutral,1,j,l,,,,,,,,,9,0,162,3,,,,,,,,,main,1,1,1,neutral,negative,l,l,1,0.5815176999894902,367.37118240000564,368.38615740000387,368.36950989998877,None,367.37118240000564,None,367.37118240000564,None,367.37118240000564,None,368.95065659997925,None,368.95065659997925,None,368.95065659997925,None,,,,,,,,,,,,,,105,2023-04-19_12h59.41.150,Main,2022.1.1,59.97666907263266,
positive,negative,2,l,j,,,,,,,,,9,1,163,14,,,,,,,,,main,1,1,2,negative,positive,j,j,1,0.6002530999830924,368.95643749999,369.9693275000027,369.95274269999936,None,368.95643749999,None,368.95643749999,None,368.95643749999,None,370.5527330999932,None,370.5527330999932,None,370.5527330999932,None,,,,,,,,,,,,,,105,2023-04-19_12h59.41.150,Main,2022.1.1,59.97666907263266,
negative,positive,1,j,l,,,,,,,,,9,2,164,6,,,,,,,,,main,1,1,1,positive,negative,l,l,1,0.5968865000177175,370.55649689998245,371.56938719999744,371.5528387000086,None,370.55649689998245,None,370.55649689998245,None,370.55649689998245,None,372.15059619999664,None,372.15059619999664,None,372.15059619999664,None,,,,,,,,,,,,,,105,2023-04-19_12h59.41.150,Main,2022.1.1,59.97666907263266,
neutral,positive,2,k,k,,,,,,,,,9,3,165,13,,,,,,,,,main,1,1,2,positive,neutral,k,k,1,0.4645204999833368,372.15450219999184,373.1693769999838,373.15282849999494,None,372.15450219999184,None,372.15450219999184,None,372.15450219999184,None,373.6169791999884,None,373.6169791999884,None,373.6169791999884,None,,,,,,,,,,,,,,105,2023-04-19_12h59.41.150,Main,2022.1.1,59.97666907263266,
neutral,neutral,1,k,k,,,,,,,,,9,4,166,1,,,,,,,,,main,2,2,1,neutral,neutral,k,k,1,0.44826519998605363,373.6232095999876,374.63266699999804,374.6158483999898,None,373.6232095999876,None,373.6232095999876,None,373.6232095999876,None,375.06673910000535,None,375.06673910000535,None,375.06673910000535,None,,,,,,,,,,,,,,105,2023-04-19_12h59.41.150,Main,2022.1.1,59.97666907263266,
neutral,negative,1,k,k,,,,,,,,,9,5,167,7,,,,,,,,,main,2,2,1,negative,neutral,k,k,1,0.5317341999907512,375.0667671999836,376.06678619998274,376.06678619998274,None,375.0667671999836,None,375.0667671999836,None,375.0667671999836,None,376.6001144000067,None,376.6001144000067,None,376.6001144000067,None,,,,,,,,,,,,,,105,2023-04-19_12h59.41.150,Main,2022.1.1,59.97666907263266,
negative,neutral,2,j,l,,,,,,,,,9,6,168,12,,,,,,,,,main,2,2,2,neutral,negative,l,l,1,0.5989605000067968,376.6004794999899,377.6001227000088,377.6001227000088,None,376.6004794999899,None,376.6004794999899,None,376.6004794999899,None,378.2001773999975,None,378.2001773999975,None,378.2001773999975,None,,,,,,,,,,,,,,105,2023-04-19_12h59.41.150,Main,2022.1.1,59.97666907263266,
positive,positive,1,l,j,,,,,,,,,9,7,169,2,,,,,,,,,main,1,1,1,positive,positive,j,j,1,0.5332573999767192,378.20499289999134,379.2192484999832,379.20265709998785,None,378.20499289999134,None,378.20499289999134,None,378.20499289999134,None,379.73598229998896,None,379.73598229998896,None,379.73598229998896,None,,,,,,,,,,,,,,105,2023-04-19_12h59.41.150,Main,2022.1.1,59.97666907263266,
neutral,positive,1,k,k,,,,,,,,,9,8,170,4,,,,,,,,,main,2,2,1,positive,neutral,k,k,1,0.5815041000023484,379.7399153999868,380.7525428000081,380.7359815000091,None,379.7399153999868,None,379.7399153999868,None,379.7399153999868,None,381.3192211999878,None,381.3192211999878,None,381.3192211999878,None,,,,,,,,,,,,,,105,2023-04-19_12h59.41.150,Main,2022.1.1,59.97666907263266,
negative,negative,1,j,l,,,,,,,,,9,9,171,0,,,,,,,,,main,2,2,1,negative,negative,l,l,1,0.5630095000087749,381.3223525999929,382.3357834999915,382.31918689998565,None,381.3223525999929,None,381.3223525999929,None,381.3223525999929,None,382.88370769998,None,382.88370769998,None,382.88370769998,None,,,,,,,,,,,,,,105,2023-04-19_12h59.41.150,Main,2022.1.1,59.97666907263266,
positive,neutral,2,l,j,,,,,,,,,9,10,172,17,,,,,,,,,main,2,2,2,neutral,positive,j,j,1,0.5832472000038251,382.88987069998984,383.9024195999955,383.88579209998716,None,382.88987069998984,None,382.88987069998984,None,382.88987069998984,None,384.4691696999973,None,384.4691696999973,None,384.4691696999973,None,,,,,,,,,,,,,,105,2023-04-19_12h59.41.150,Main,2022.1.1,59.97666907263266,
neutral,neutral,2,k,k,,,,,,,,,9,11,173,10,,,,,,,,,main,2,2,2,neutral,neutral,k,k,1,0.5815345000009984,384.472732299997,385.4857293999812,385.4691222999827,None,384.472732299997,None,384.472732299997,None,384.472732299997,None,386.0523263999814,None,386.0523263999814,None,386.0523263999814,None,,,,,,,,,,,,,,105,2023-04-19_12h59.41.150,Main,2022.1.1,59.97666907263266,
neutral,negative,2,k,k,,,,,,,,,9,12,174,16,,,,,,,,,main,2,2,2,negative,neutral,k,k,1,0.47975339999538846,386.0565316999855,387.066593800002,387.04990720000933,None,386.0565316999855,None,386.0565316999855,None,386.0565316999855,None,387.5333642999787,None,387.5333642999787,None,387.5333642999787,None,,,,,,,,,,,,,,105,2023-04-19_12h59.41.150,Main,2022.1.1,59.97666907263266,
positive,negative,1,l,j,,,,,,,,,9,13,175,5,,,,,,,,,main,2,2,1,negative,positive,j,j,1,0.5983080000150949,387.5348820000072,388.54990169999655,388.53323889998137,None,387.5348820000072,None,387.5348820000072,None,387.5348820000072,None,389.1332475999981,None,389.1332475999981,None,389.1332475999981,None,,,,,,,,,,,,,,105,2023-04-19_12h59.41.150,Main,2022.1.1,59.97666907263266,
positive,positive,2,l,j,,,,,,,,,9,14,176,11,,,,,,,,,main,2,2,2,positive,positive,j,j,1,0.5483018000086304,389.1342747999879,390.14987870000186,390.13321880000876,None,389.1342747999879,None,389.1342747999879,None,389.1342747999879,None,390.68320159998547,None,390.68320159998547,None,390.68320159998547,None,,,,,,,,,,,,,,105,2023-04-19_12h59.41.150,Main,2022.1.1,59.97666907263266,
positive,neutral,1,l,j,,,,,,,,,9,15,177,8,,,,,,,,,main,1,1,1,neutral,positive,j,j,1,0.48195610000402667,390.686558699992,391.68572159999167,391.68572159999167,None,390.686558699992,None,390.686558699992,None,390.686558699992,None,392.1666285999847,None,392.1666285999847,None,392.1666285999847,None,,,,,,,,,,,,,,105,2023-04-19_12h59.41.150,Main,2022.1.1,59.97666907263266,
negative,positive,2,j,l,,,,,,,,,9,16,178,15,,,,,,,,,main,1,1,2,positive,negative,l,l,1,0.5685609000211116,392.17282599999453,393.18564379998134,393.16901670000516,None,392.17282599999453,None,392.17282599999453,None,392.17282599999453,None,393.73562090000195,None,393.73562090000195,None,393.73562090000195,None,,,,,,,,,,,,,,105,2023-04-19_12h59.41.150,Main,2022.1.1,59.97666907263266,
negative,negative,2,j,l,,,,,,,,,9,17,179,9,,,,,,,,,main,1,1,2,negative,negative,l,l,1,0.5642320000042673,393.7400251000072,394.7522272999922,394.73574249999365,None,393.7400251000072,None,393.7400251000072,None,393.7400251000072,None,395.30239040000305,None,395.30239040000305,None,395.30239040000305,None,,,,,,,,,,,,,,105,2023-04-19_12h59.41.150,Main,2022.1.1,59.97666907263266,
neutral,neutral,1,k,k,,,,,,,,,10,0,180,1,,,,,,,,,main,2,2,1,neutral,neutral,k,k,1,0.5480218000011519,395.3056794999866,396.3189116999856,396.3022576000076,None,395.3056794999866,None,395.3056794999866,None,395.3056794999866,None,396.8521939999802,None,396.8521939999802,None,396.8521939999802,None,,,,,,,,,,,,,,105,2023-04-19_12h59.41.150,Main,2022.1.1,59.97666907263266,
neutral,neutral,2,k,k,,,,,,,,,10,1,181,10,,,,,,,,,main,2,2,2,neutral,neutral,k,k,1,0.6652978000056464,396.8551988999825,397.86883749999106,397.85232609999366,None,396.8551988999825,None,396.8551988999825,None,396.8551988999825,None,398.51884599999465,None,398.51884599999465,None,398.51884599999465,None,,,,,,,,,,,,,,105,2023-04-19_12h59.41.150,Main,2022.1.1,59.97666907263266,
positive,negative,2,l,j,,,,,,,,,10,2,182,14,,,,,,,,,main,1,1,2,negative,positive,j,j,1,0.562258899997687,398.5220900999848,399.5329803999921,399.5163360000006,None,398.5220900999848,None,398.5220900999848,None,398.5220900999848,None,400.08297130000136,None,400.08297130000136,None,400.08297130000136,None,,,,,,,,,,,,,,105,2023-04-19_12h59.41.150,Main,2022.1.1,59.97666907263266,
neutral,negative,1,k,k,,,,,,,,,10,3,183,7,,,,,,,,,main,2,2,1,negative,neutral,k,k,1,0.54883719998179,400.0829846999841,401.08305389998714,401.08305389998714,None,400.0829846999841,None,400.0829846999841,None,400.0829846999841,None,401.6329960000032,None,401.6329960000032,None,401.6329960000032,None,,,,,,,,,,,,,,105,2023-04-19_12h59.41.150,Main,2022.1.1,59.97666907263266,
negative,positive,2,j,l,,,,,,,,,10,4,184,15,,,,,,,,,main,2,2,2,positive,negative,l,l,1,0.5317727999936324,401.6342745999864,402.6496366999927,402.63304469999275,None,401.6342745999864,None,401.6342745999864,None,401.6342745999864,None,403.166290700002,None,403.166290700002,None,403.166290700002,None,,,,,,,,,,,,,,105,2023-04-19_12h59.41.150,Main,2022.1.1,59.97666907263266,
positive,positive,1,l,j,,,,,,,,,10,5,185,2,,,,,,,,,main,1,1,1,positive,positive,j,j,1,0.45087560001411475,403.17006479998236,404.18548409998766,404.16881000000285,None,403.17006479998236,None,403.17006479998236,None,403.17006479998236,None,404.6188162000064,None,404.6188162000064,None,404.6188162000064,None,,,,,,,,,,,,,,105,2023-04-19_12h59.41.150,Main,2022.1.1,59.97666907263266,
negative,neutral,2,j,l,,,,,,,,,10,6,186,12,,,,,,,,,main,2,2,2,neutral,negative,l,l,1,0.5650852000107989,404.6222221000062,405.63531789998524,405.6187091000029,None,404.6222221000062,None,404.6222221000062,None,404.6222221000062,None,406.1852746999968,None,406.1852746999968,None,406.1852746999968,None,,,,,,,,,,,,,,105,2023-04-19_12h59.41.150,Main,2022.1.1,59.97666907263266,
negative,neutral,1,j,l,,,,,,,,,10,7,187,3,,,,,,,,,main,2,2,1,neutral,negative,l,l,1,0.5649226999958046,406.1892174000095,407.2019903000037,407.18535369998426,None,406.1892174000095,None,406.1892174000095,None,406.1892174000095,None,407.7519597999955,None,407.7519597999955,None,407.7519597999955,None,,,,,,,,,,,,,,105,2023-04-19_12h59.41.150,Main,2022.1.1,59.97666907263266,
positive,positive,2,l,j,,,,,,,,,10,8,188,11,,,,,,,,,main,2,2,2,positive,positive,j,j,1,0.6643499999772757,407.7565026000084,408.76854719998664,408.7520135999948,None,407.7565026000084,None,407.7565026000084,None,407.7565026000084,None,409.41857769998313,None,409.41857769998313,None,409.41857769998313,None,,,,,,,,,,,,,,105,2023-04-19_12h59.41.150,Main,2022.1.1,59.97666907263266,
positive,neutral,2,l,j,,,,,,,,,10,9,189,17,,,,,,,,,main,1,1,2,neutral,positive,j,j,1,0.5124921000096947,409.4217284999904,410.4331228999945,410.4186926999828,None,409.4217284999904,None,409.4217284999904,None,409.4217284999904,None,410.93275819998524,None,410.93275819998524,None,410.93275819998524,None,,,,,,,,,,,,,,105,2023-04-19_12h59.41.150,Main,2022.1.1,59.97666907263266,
neutral,positive,1,k,k,,,,,,,,,10,10,190,4,,,,,,,,,main,1,1,1,positive,neutral,k,k,1,0.5820356000040192,410.9336509999994,411.93280219999724,411.93280219999724,None,410.9336509999994,None,410.9336509999994,None,410.9336509999994,None,412.51604789999254,None,412.51604789999254,None,412.51604789999254,None,,,,,,,,,,,,,,105,2023-04-19_12h59.41.150,Main,2022.1.1,59.97666907263266,
negative,positive,1,j,l,,,,,,,,,10,11,191,6,,,,,,,,,main,1,1,1,positive,negative,l,l,1,0.5151909999840427,412.51630479999585,413.51606239998364,413.51606239998364,None,412.51630479999585,None,412.51630479999585,None,412.51630479999585,None,414.03270079999055,None,414.03270079999055,None,414.03270079999055,None,,,,,,,,,,,,,,105,2023-04-19_12h59.41.150,Main,2022.1.1,59.97666907263266,
negative,negative,2,j,l,,,,,,,,,10,12,192,9,,,,,,,,,main,2,2,2,negative,negative,l,l,1,0.6840995000093244,414.0333406999998,415.0327197999868,415.0327197999868,None,414.0333406999998,None,414.0333406999998,None,414.0333406999998,None,415.7184241999959,None,415.7184241999959,None,415.7184241999959,None,,,,,,,,,,,,,,105,2023-04-19_12h59.41.150,Main,2022.1.1,59.97666907263266,
negative,negative,1,j,l,,,,,,,,,10,13,193,0,,,,,,,,,main,1,1,1,negative,negative,l,l,1,0.5485955999756698,415.72203589999117,416.73522499998217,416.7185366000049,None,415.72203589999117,None,415.72203589999117,None,415.72203589999117,None,417.26840720000035,None,417.26840720000035,None,417.26840720000035,None,,,,,,,,,,,,,,105,2023-04-19_12h59.41.150,Main,2022.1.1,59.97666907263266,
positive,neutral,1,l,j,,,,,,,,,10,14,194,8,,,,,,,,,main,2,2,1,neutral,positive,j,j,1,0.5314567000023089,417.27218589998665,418.2850705999881,418.26844419998815,None,417.27218589998665,None,417.27218589998665,None,417.27218589998665,None,418.80187579998454,None,418.80187579998454,None,418.80187579998454,None,,,,,,,,,,,,,,105,2023-04-19_12h59.41.150,Main,2022.1.1,59.97666907263266,
neutral,negative,2,k,k,,,,,,,,,10,15,195,16,,,,,,,,,main,1,1,2,negative,neutral,k,k,1,0.5157794999831822,418.8057290999859,419.81833650000044,419.80176509998273,None,418.8057290999859,None,418.8057290999859,None,418.8057290999859,None,420.31842759999853,None,420.31842759999853,None,420.31842759999853,None,,,,,,,,,,,,,,105,2023-04-19_12h59.41.150,Main,2022.1.1,59.97666907263266,
neutral,positive,2,k,k,,,,,,,,,10,16,196,13,,,,,,,,,main,2,2,2,positive,neutral,k,k,1,0.4651716999942437,420.32248279999476,421.3349945000082,421.31837059999816,None,420.32248279999476,None,420.32248279999476,None,420.32248279999476,None,421.7850552999909,None,421.7850552999909,None,421.7850552999909,None,,,,,,,,,,,,,,105,2023-04-19_12h59.41.150,Main,2022.1.1,59.97666907263266,
positive,negative,1,l,j,,,,,,,,,10,17,197,5,,,,,,,,,main,2,2,1,negative,positive,j,j,1,0.3950057000038214,421.7895472999953,422.79912039998453,422.78245299999253,None,421.7895472999953,None,421.7895472999953,None,421.7895472999953,None,423.18244129998783,None,423.18244129998783,None,423.18244129998783,None,,,,,,,,,,,,,,105,2023-04-19_12h59.41.150,Main,2022.1.1,59.97666907263266,
positive,neutral,1,l,j,,,,,,,,,11,0,198,8,,,,,,,,,main,1,1,1,neutral,positive,j,j,1,0.43179740000050515,423.18245059999754,424.18250900000567,424.18250900000567,None,423.18245059999754,None,423.18245059999754,None,423.18245059999754,None,424.6158363999886,None,424.6158363999886,None,424.6158363999886,None,,,,,,,,,,,,,,105,2023-04-19_12h59.41.150,Main,2022.1.1,59.97666907263266,
neutral,positive,1,k,k,,,,,,,,,11,1,199,4,,,,,,,,,main,1,1,1,positive,neutral,k,k,1,0.4817219999968074,424.6192489999812,425.6183563999948,425.6183563999948,None,424.6192489999812,None,424.6192489999812,None,424.6192489999812,None,426.09918439999745,None,426.09918439999745,None,426.09918439999745,None,,,,,,,,,,,,,,105,2023-04-19_12h59.41.150,Main,2022.1.1,59.97666907263266,
negative,neutral,2,j,l,,,,,,,,,11,2,200,12,,,,,,,,,main,1,1,2,neutral,negative,l,l,1,0.43675269998493604,426.1053481999843,427.1181851000001,427.1015764999902,None,426.1053481999843,None,426.1053481999843,None,426.1053481999843,None,427.5349675999925,None,427.5349675999925,None,427.5349675999925,None,,,,,,,,,,,,,,105,2023-04-19_12h59.41.150,Main,2022.1.1,59.97666907263266,
neutral,neutral,1,k,k,,,,,,,,,11,3,201,1,,,,,,,,,main,2,2,1,neutral,neutral,k,k,1,0.5956629999855068,427.5405749999918,428.5515330999915,428.53493490000255,None,427.5405749999918,None,427.5405749999918,None,427.5405749999918,None,429.13487109999113,None,429.13487109999113,None,429.13487109999113,None,,,,,,,,,,,,,,105,2023-04-19_12h59.41.150,Main,2022.1.1,59.97666907263266,
positive,positive,2,l,j,,,,,,,,,11,4,202,11,,,,,,,,,main,1,1,2,positive,positive,j,j,1,0.580996899981983,429.13907119998476,430.151527399983,430.13492049998604,None,429.13907119998476,None,429.13907119998476,None,429.13907119998476,None,430.71820269999733,None,430.71820269999733,None,430.71820269999733,None,,,,,,,,,,,,,,105,2023-04-19_12h59.41.150,Main,2022.1.1,59.97666907263266,
neutral,negative,2,k,k,,,,,,,,,11,5,203,16,,,,,,,,,main,2,2,2,negative,neutral,k,k,1,0.5791351999796461,430.72138189998805,431.7348179999972,431.7182230000035,None,430.72138189998805,None,430.72138189998805,None,430.72138189998805,None,432.2989067999908,None,432.2989067999908,None,432.2989067999908,None,,,,,,,,,,,,,,105,2023-04-19_12h59.41.150,Main,2022.1.1,59.97666907263266,
negative,negative,2,j,l,,,,,,,,,11,6,204,9,,,,,,,,,main,1,1,2,negative,negative,l,l,1,0.5653256000077818,432.29923649999546,433.29896640000516,433.29896640000516,None,432.29923649999546,None,432.29923649999546,None,432.29923649999546,None,433.8656330999831,None,433.8656330999831,None,433.8656330999831,None,,,,,,,,,,,,,,105,2023-04-19_12h59.41.150,Main,2022.1.1,59.97666907263266,
negative,neutral,1,j,l,,,,,,,,,11,7,205,3,,,,,,,,,main,1,1,1,neutral,negative,l,l,1,0.514978199993493,433.8661533999839,434.8656193999923,434.8656193999923,None,433.8661533999839,None,433.8661533999839,None,433.8661533999839,None,435.38225199998413,None,435.38225199998413,None,435.38225199998413,None,,,,,,,,,,,,,,105,2023-04-19_12h59.41.150,Main,2022.1.1,59.97666907263266,
neutral,positive,2,k,k,,,,,,,,,11,8,206,13,,,,,,,,,main,1,1,2,positive,neutral,k,k,1,0.5509551999857649,435.3859336999885,436.4014498000033,436.38485420000507,None,435.3859336999885,None,435.3859336999885,None,435.3859336999885,None,436.9348487999843,None,436.9348487999843,None,436.9348487999843,None,,,,,,,,,,,,,,105,2023-04-19_12h59.41.150,Main,2022.1.1,59.97666907263266,
positive,neutral,2,l,j,,,,,,,,,11,9,207,17,,,,,,,,,main,2,2,2,neutral,positive,j,j,1,0.4981813000049442,436.9381960000028,437.951356799982,437.9347295000043,None,436.9381960000028,None,436.9381960000028,None,436.9381960000028,None,438.4347411999799,None,438.4347411999799,None,438.4347411999799,None,,,,,,,,,,,,,,105,2023-04-19_12h59.41.150,Main,2022.1.1,59.97666907263266,
neutral,neutral,2,k,k,,,,,,,,,11,10,208,10,,,,,,,,,main,2,2,2,neutral,neutral,k,k,1,0.6149350999912713,438.437599900004,439.45129619998625,439.4346821999934,None,438.437599900004,None,438.437599900004,None,438.437599900004,None,440.0512300999864,None,440.0512300999864,None,440.0512300999864,None,,,,,,,,,,,,,,105,2023-04-19_12h59.41.150,Main,2022.1.1,59.97666907263266,
positive,negative,1,l,j,,,,,,,,,11,11,209,5,,,,,,,,,main,1,1,1,negative,positive,j,j,1,0.5649570999958087,440.0545041000005,441.068008000002,441.05133689998183,None,440.0545041000005,None,440.0545041000005,None,440.0545041000005,None,441.6179770999908,None,441.6179770999908,None,441.6179770999908,None,,,,,,,,,,,,,,105,2023-04-19_12h59.41.150,Main,2022.1.1,59.97666907263266,
neutral,negative,1,k,k,,,,,,,,,11,12,210,7,,,,,,,,,main,2,2,1,negative,neutral,k,k,1,0.612855799990939,441.62083639999037,442.63459709999734,442.618037999986,None,441.62083639999037,None,441.62083639999037,None,441.62083639999037,None,443.23213170000525,None,443.23213170000525,None,443.23213170000525,None,,,,,,,,,,,,,,105,2023-04-19_12h59.41.150,Main,2022.1.1,59.97666907263266,
negative,negative,1,j,l,,,,,,,,,11,13,211,0,,,,,,,,,main,2,2,1,negative,negative,l,l,1,0.5649325999838766,443.2432131000096,444.248729199986,444.2320403000049,None,443.2432131000096,None,443.2432131000096,None,443.2432131000096,None,444.79868290000303,None,444.79868290000303,None,444.79868290000303,None,,,,,,,,,,,,,,105,2023-04-19_12h59.41.150,Main,2022.1.1,59.97666907263266,
positive,positive,1,l,j,,,,,,,,,11,14,212,2,,,,,,,,,main,2,2,1,positive,positive,j,j,1,0.6341218999878038,444.79885439999634,445.79874800000107,445.79874800000107,None,444.79885439999634,None,444.79885439999634,None,444.79885439999634,None,446.4345574999781,None,446.4345574999781,None,446.4345574999781,None,,,,,,,,,,,,,,105,2023-04-19_12h59.41.150,Main,2022.1.1,59.97666907263266,
negative,positive,2,j,l,,,,,,,,,11,15,213,15,,,,,,,,,main,2,2,2,positive,negative,l,l,1,0.6149396999971941,446.4380380999937,447.45112409998546,447.4345447999949,None,446.4380380999937,None,446.4380380999937,None,446.4380380999937,None,448.0511781999987,None,448.0511781999987,None,448.0511781999987,None,,,,,,,,,,,,,,105,2023-04-19_12h59.41.150,Main,2022.1.1,59.97666907263266,
negative,positive,1,j,l,,,,,,,,,11,16,214,6,,,,,,,,,main,2,2,1,positive,negative,l,l,1,0.5651144000003114,448.0552330999926,449.0677796000091,449.0511673000001,None,448.0552330999926,None,448.0552330999926,None,448.0552330999926,None,449.61779279998444,None,449.61779279998444,None,449.61779279998444,None,,,,,,,,,,,,,,105,2023-04-19_12h59.41.150,Main,2022.1.1,59.97666907263266,
positive,negative,2,l,j,,,,,,,,,11,17,215,14,,,,,,,,,main,2,2,2,negative,positive,j,j,1,0.5795204000023659,449.62123570000404,450.6344313999871,450.61781659998815,None,449.62123570000404,None,449.62123570000404,None,449.62123570000404,None,451.19893119999614,None,451.19893119999614,None,451.19893119999614,None,,,,,,,,,,,,,,105,2023-04-19_12h59.41.150,Main,2022.1.1,59.97666907263266,
positive,positive,2,l,j,,,,,,,,,12,0,216,11,,,,,,,,,main,2,2,2,positive,positive,j,j,1,0.483763900003396,451.20281980000436,452.21765000000596,452.20111870000255,None,451.20281980000436,None,451.20281980000436,None,451.20281980000436,None,452.6843688999972,None,452.6843688999972,None,452.6843688999972,None,,,,,,,,,,,,,,105,2023-04-19_12h59.41.150,Main,2022.1.1,59.97666907263266,
positive,negative,1,l,j,,,,,,,,,12,1,217,5,,,,,,,,,main,1,1,1,negative,positive,j,j,1,0.5454775000107475,452.68774769999436,453.6984756999882,453.6818196999957,None,452.68774769999436,None,452.68774769999436,None,452.68774769999436,None,454.23177719998347,None,454.23177719998347,None,454.23177719998347,None,,,,,,,,,,,,,,105,2023-04-19_12h59.41.150,Main,2022.1.1,59.97666907263266,
negative,neutral,2,j,l,,,,,,,,,12,2,218,12,,,,,,,,,main,1,1,2,neutral,negative,l,l,1,0.6321532000147272,454.2484977999993,455.24854739999864,455.23186549998354,None,454.2484977999993,None,454.2484977999993,None,454.2484977999993,None,455.8651975999848,None,455.8651975999848,None,455.8651975999848,None,,,,,,,,,,,,,,105,2023-04-19_12h59.41.150,Main,2022.1.1,59.97666907263266,
negative,negative,1,j,l,,,,,,,,,12,3,219,0,,,,,,,,,main,2,2,1,negative,negative,l,l,1,0.5149474000209011,455.8675219999859,456.88185380000505,456.8651649999956,None,455.8675219999859,None,455.8675219999859,None,455.8675219999859,None,457.3818406999955,None,457.3818406999955,None,457.3818406999955,None,,,,,,,,,,,,,,105,2023-04-19_12h59.41.150,Main,2022.1.1,59.97666907263266,
neutral,negative,2,k,k,,,,,,,,,12,4,220,16,,,,,,,,,main,2,2,2,negative,neutral,k,k,1,0.6650351000134833,457.38504850000027,458.384381699987,458.384381699987,None,457.38504850000027,None,457.38504850000027,None,457.38504850000027,None,459.0484924999793,None,459.0484924999793,None,459.0484924999793,None,,,,,,,,,,,,,,105,2023-04-19_12h59.41.150,Main,2022.1.1,59.97666907263266,
neutral,neutral,1,k,k,,,,,,,,,12,5,221,1,,,,,,,,,main,1,1,1,neutral,neutral,k,k,1,0.45076849998440593,459.0546650000033,460.06760919999215,460.0510021999944,None,459.0546650000033,None,459.0546650000033,None,459.0546650000033,None,460.5009407000063,None,460.5009407000063,None,460.5009407000063,None,,,,,,,,,,,,,,105,2023-04-19_12h59.41.150,Main,2022.1.1,59.97666907263266,
positive,neutral,2,l,j,,,,,,,,,12,6,222,17,,,,,,,,,main,2,2,2,neutral,positive,j,j,1,0.5982020999945235,460.5043394000095,461.5175554000016,461.5009665999969,None,460.5043394000095,None,460.5043394000095,None,460.5043394000095,None,462.1008399000013,None,462.1008399000013,None,462.1008399000013,None,,,,,,,,,,,,,,105,2023-04-19_12h59.41.150,Main,2022.1.1,59.97666907263266,
negative,negative,2,j,l,,,,,,,,,12,7,223,9,,,,,,,,,main,2,2,2,negative,negative,l,l,1,0.5628615999885369,462.1043853999872,463.11748329998227,463.1009420999908,None,462.1043853999872,None,462.1043853999872,None,462.1043853999872,None,463.66503179999125,None,463.66503179999125,None,463.66503179999125,None,,,,,,,,,,,,,,105,2023-04-19_12h59.41.150,Main,2022.1.1,59.97666907263266,
