target,distractor,set,ans1,ans2,rep_loop2.thisRepN,rep_loop2.thisTrialN,rep_loop2.thisN,rep_loop2.thisIndex,flanker_prac_loop.thisRepN,flanker_prac_loop.thisTrialN,flanker_prac_loop.thisN,flanker_prac_loop.thisIndex,flanker_main_loop.thisRepN,flanker_main_loop.thisTrialN,flanker_main_loop.thisN,flanker_main_loop.thisIndex,fl_inst_resp.keys,fl_inst_resp.rt,sound_1.started,sound_1.stopped,image_4.started,image_4.stopped,back_2.started,back_2.stopped,main_prac,fl_cold,fl_colt,fl_set,fl_dcond,fl_tcond,fl_ans,fl_res,fl_corr,fl_rt,fix_fl.started,fix_fl.stopped,targ.started,targ.stopped,j_button.started,j_button.stopped,k_button.started,k_button.stopped,l_button.started,l_button.stopped,j_button2.started,j_button2.stopped,k_button2.started,k_button2.stopped,l_button2.started,l_button2.stopped,mainback.started,mainback.stopped,key_resp.keys,key_resp.rt,mouse_6.x,mouse_6.y,mouse_6.leftButton,mouse_6.midButton,mouse_6.rightButton,mouse_6.started,mouse_6.stopped,text_2.started,text_2.stopped,id*,date,expName,psychopyVersion,frameRate,
,,,,,0,0,0,0,,,,,,,,,space,18.71298690000549,29.236927630053835,None,47.96985740005039,None,,,,,,,,,,,,,,,,,,,,,,,,,,,,,,,,,,,,,,,,,,106,2023-04-26_09h48.06.726,Main,2022.1.1,60.10699044597639,
positive,neutral,2,l,j,,,,,0,0,0,17,,,,,,,,,,,53.23451930005103,None,prac,1,1,2,neutral,positive,l,l,1,1.0688961000414565,55.25509540003259,56.269775000051595,56.23649529996328,None,55.25509540003259,None,55.25509540003259,None,55.25509540003259,None,57.319738429994324,None,57.319738429994324,None,57.319738429994324,None,,,,,,,,,,,,,,106,2023-04-26_09h48.06.726,Main,2022.1.1,60.10699044597639,
neutral,negative,2,k,k,,,,,0,1,1,16,,,,,,,,,,,,,prac,2,2,2,negative,neutral,k,k,1,0.628205900080502,57.325145500013605,58.33638580003753,58.31978070002515,None,57.325145500013605,None,57.325145500013605,None,57.325145500013605,None,58.9508493299596,None,58.9508493299596,None,58.9508493299596,None,,,,,,,,,,,,,,106,2023-04-26_09h48.06.726,Main,2022.1.1,60.10699044597639,
neutral,neutral,2,k,k,,,,,0,2,2,10,,,,,,,,,,,,,prac,2,2,2,neutral,neutral,k,k,1,0.6677000999916345,58.956761999987066,59.96971420000773,59.953084900043905,None,58.956761999987066,None,58.956761999987066,None,58.956761999987066,None,60.61965803001076,None,60.61965803001076,None,60.61965803001076,None,,,,,,,,,,,,,,106,2023-04-26_09h48.06.726,Main,2022.1.1,60.10699044597639,
neutral,positive,2,k,k,,,,,0,3,3,13,,,,,,,,,,,,,prac,1,1,2,positive,neutral,k,k,1,0.5966237999964505,60.62253849999979,61.63633420004044,61.619732000050135,None,60.62253849999979,None,60.62253849999979,None,60.62253849999979,None,62.21747733002994,None,62.21747733002994,None,62.21747733002994,None,,,,,,,,,,,,,,106,2023-04-26_09h48.06.726,Main,2022.1.1,60.10699044597639,
negative,negative,1,j,l,,,,,0,4,4,0,,,,,,,,,,,,,prac,2,2,1,negative,negative,j,j,1,0.5813678000122309,62.22117299993988,63.233813200029545,63.2171282999916,None,62.22117299993988,None,62.22117299993988,None,62.22117299993988,None,63.800422629946844,None,63.800422629946844,None,63.800422629946844,None,,,,,,,,,,,,,,106,2023-04-26_09h48.06.726,Main,2022.1.1,60.10699044597639,
negative,neutral,2,j,l,,,,,0,5,5,12,,,,,,,,,,,,,prac,1,1,2,neutral,negative,j,j,1,0.9820649999892339,63.80106660001911,64.80045660003088,64.80045660003088,None,63.80106660001911,None,63.80106660001911,None,63.80106660001911,None,65.7837411300512,None,65.7837411300512,None,65.7837411300512,None,,,,,,,,,,,,,,106,2023-04-26_09h48.06.726,Main,2022.1.1,60.10699044597639,
positive,positive,1,l,j,,,,,0,6,6,2,,,,,,,,,,,,,prac,1,1,1,positive,positive,l,l,1,0.6489618000341579,65.78521670005284,66.80044320004527,66.78375639999285,None,65.78521670005284,None,65.78521670005284,None,65.78521670005284,None,67.43374172996263,None,67.43374172996263,None,67.43374172996263,None,,,,,,,,,,,,,,106,2023-04-26_09h48.06.726,Main,2022.1.1,60.10699044597639,
positive,negative,1,l,j,,,,,0,7,7,5,,,,,,,,,,,,,prac,2,2,1,negative,positive,l,l,1,0.5845486000180244,67.43749189993832,68.45288410002831,68.43625699996483,None,67.43749189993832,None,67.43749189993832,None,67.43749189993832,None,69.0195846299408,None,69.0195846299408,None,69.0195846299408,None,,,,,,,,,,,,,,106,2023-04-26_09h48.06.726,Main,2022.1.1,60.10699044597639,
negative,neutral,1,j,l,,,,,0,8,8,3,,,,,,,,,,,,,prac,2,2,1,neutral,negative,j,j,1,0.7143776000011712,69.02372119994834,70.03620610001963,70.019592299941,None,69.02372119994834,None,69.02372119994834,None,69.02372119994834,None,70.73626423000823,None,70.73626423000823,None,70.73626423000823,None,,,,,,,,,,,,,,106,2023-04-26_09h48.06.726,Main,2022.1.1,60.10699044597639,
neutral,neutral,1,k,k,,,,,0,9,9,1,,,,,,,,,,,,,prac,2,2,1,neutral,neutral,k,k,1,0.5823177000274882,70.73979809996672,71.752763699973,71.73403539997526,None,70.73979809996672,None,70.73979809996672,None,70.73979809996672,None,72.31952212997712,None,72.31952212997712,None,72.31952212997712,None,,,,,,,,,,,,,,106,2023-04-26_09h48.06.726,Main,2022.1.1,60.10699044597639,
negative,negative,2,j,l,,,,,0,10,10,9,,,,,,,,,,,,,prac,2,2,2,negative,negative,j,j,1,0.6494915999937803,72.32262019999325,73.33606180001516,73.31950820004568,None,72.32262019999325,None,72.32262019999325,None,72.32262019999325,None,73.96939762998372,None,73.96939762998372,None,73.96939762998372,None,,,,,,,,,,,,,,106,2023-04-26_09h48.06.726,Main,2022.1.1,60.10699044597639,
positive,neutral,1,l,j,,,,,0,11,11,8,,,,,,,,,,,,,prac,1,1,1,neutral,positive,l,l,1,0.6287310000043362,73.97324359999038,74.98352080001496,74.96685169998091,None,73.97324359999038,None,73.97324359999038,None,73.97324359999038,None,75.60014512997586,None,75.60014512997586,None,75.60014512997586,None,,,,,,,,,,,,,,106,2023-04-26_09h48.06.726,Main,2022.1.1,60.10699044597639,
neutral,positive,1,k,k,,,,,0,12,12,4,,,,,,,,,,,,,prac,1,1,1,positive,neutral,k,k,1,0.5824639999773353,75.60017560003325,76.60024599998724,76.60024599998724,None,75.60017560003325,None,75.60017560003325,None,75.60017560003325,None,77.18370723004918,None,77.18370723004918,None,77.18370723004918,None,,,,,,,,,,,,,,106,2023-04-26_09h48.06.726,Main,2022.1.1,60.10699044597639,
positive,negative,2,l,j,,,,,0,13,13,14,,,,,,,,,,,,,prac,2,2,2,negative,positive,l,l,1,0.5676762000657618,77.18766229995526,78.20266209996771,78.1860514000291,None,77.18766229995526,None,77.18766229995526,None,77.18766229995526,None,78.75267842996399,None,78.75267842996399,None,78.75267842996399,None,,,,,,,,,,,,,,106,2023-04-26_09h48.06.726,Main,2022.1.1,60.10699044597639,
positive,positive,2,l,j,,,,,0,14,14,11,,,,,,,,,,,,,prac,1,1,2,positive,positive,l,l,1,0.6487681999569759,78.75614549999591,79.76931050000712,79.75271280005109,None,78.75614549999591,None,78.75614549999591,None,78.75614549999591,None,80.40296462995465,None,80.40296462995465,None,80.40296462995465,None,,,,,,,,,,,,,,106,2023-04-26_09h48.06.726,Main,2022.1.1,60.10699044597639,
negative,positive,2,j,l,,,,,0,15,15,15,,,,,,,,,,,,,prac,1,1,2,positive,negative,j,j,1,0.6482169999508187,80.40740360005293,81.41926939995028,81.40268960001413,None,80.40740360005293,None,80.40740360005293,None,80.40740360005293,None,82.05254742994438,None,82.05254742994438,None,82.05254742994438,None,,,,,,,,,,,,,,106,2023-04-26_09h48.06.726,Main,2022.1.1,60.10699044597639,
negative,positive,1,j,l,,,,,0,16,16,6,,,,,,,,,,,,,prac,2,2,1,positive,negative,j,k,0,0.4990100000286475,82.05626370001119,83.06924790004268,83.05265440000221,None,82.05626370001119,None,82.05626370001119,None,82.05626370001119,None,83.55141349998303,None,83.55141349998303,None,83.55141349998303,None,,,,,,,,,,,,,,106,2023-04-26_09h48.06.726,Main,2022.1.1,60.10699044597639,
neutral,negative,1,k,k,,,,,0,17,17,7,,,,,,,,,,,,,prac,1,1,1,negative,neutral,k,k,1,0.536998700001277,84.56671809998807,85.56667840003502,85.55001560004894,None,84.56671809998807,None,84.56671809998807,None,84.56671809998807,None,86.09997952999547,None,86.09997952999547,None,86.09997952999547,None,,,,,,,,,,,,,,106,2023-04-26_09h48.06.726,Main,2022.1.1,60.10699044597639,
positive,neutral,2,l,j,,,,,1,0,18,17,,,,,,,,,,,,,prac,2,2,2,neutral,positive,l,l,1,0.6355048000114039,86.09997820004355,87.10005200002342,87.10005200002342,None,86.09997820004355,None,86.09997820004355,None,86.09997820004355,None,87.73581952999811,None,87.73581952999811,None,87.73581952999811,None,,,,,,,,,,,,,,106,2023-04-26_09h48.06.726,Main,2022.1.1,60.10699044597639,
negative,negative,2,j,l,,,,,1,1,19,9,,,,,,,,,,,,,prac,2,2,2,negative,negative,j,j,1,0.7141464999876916,87.73982060002163,88.75251949997619,88.73585729999468,None,87.73982060002163,None,87.73982060002163,None,87.73982060002163,None,89.45247222997713,None,89.45247222997713,None,89.45247222997713,None,,,,,,,,,,,,,,106,2023-04-26_09h48.06.726,Main,2022.1.1,60.10699044597639,
positive,neutral,1,l,j,,,,,1,2,20,8,,,,,,,,,,,,,prac,2,2,1,neutral,positive,l,l,1,0.4990053001092747,89.45620889996644,90.4691205000272,90.45252910000272,None,89.45620889996644,None,89.45620889996644,None,89.45620889996644,None,90.95233342996798,None,90.95233342996798,None,90.95233342996798,None,,,,,,,,,,,,,,106,2023-04-26_09h48.06.726,Main,2022.1.1,60.10699044597639,
neutral,negative,1,k,k,,,,,1,3,21,7,,,,,,,,,,,,,prac,1,1,1,negative,neutral,k,k,1,0.5289264000020921,90.95607880002353,91.96905860002153,91.9524941999698,None,90.95607880002353,None,90.95607880002353,None,90.95607880002353,None,92.48359113002661,None,92.48359113002661,None,92.48359113002661,None,,,,,,,,,,,,,,106,2023-04-26_09h48.06.726,Main,2022.1.1,60.10699044597639,
positive,negative,2,l,j,,,,,1,4,22,14,,,,,,,,,,,,,prac,1,1,2,negative,positive,l,l,1,0.7817623000591993,92.4869694999652,93.50245429994538,93.46911439998075,None,92.4869694999652,None,92.4869694999652,None,92.4869694999652,None,94.26644222999457,None,94.26644222999457,None,94.26644222999457,None,,,,,,,,,,,,,,106,2023-04-26_09h48.06.726,Main,2022.1.1,60.10699044597639,
neutral,positive,1,k,k,,,,,1,5,23,4,,,,,,,,,,,,,prac,2,2,1,positive,neutral,k,k,1,0.5997042999370024,94.26648099999875,95.2664735999424,95.2664735999424,None,94.26648099999875,None,94.26648099999875,None,94.26648099999875,None,95.86642842998262,None,95.86642842998262,None,95.86642842998262,None,,,,,,,,,,,,,,106,2023-04-26_09h48.06.726,Main,2022.1.1,60.10699044597639,
positive,negative,1,l,j,,,,,1,6,24,5,,,,,,,,,,,,,prac,2,2,1,negative,positive,l,l,1,0.5649468000046909,95.86727309995331,96.8690484999679,96.8690484999679,None,95.86727309995331,None,95.86727309995331,None,95.86727309995331,None,97.43349363005254,None,97.43349363005254,None,97.43349363005254,None,,,,,,,,,,,,,,106,2023-04-26_09h48.06.726,Main,2022.1.1,60.10699044597639,
neutral,neutral,1,k,k,,,,,1,7,25,1,,,,,,,,,,,,,prac,2,2,1,neutral,neutral,k,k,1,0.6347026000730693,97.4367651999928,98.45228139997926,98.43569690000731,None,97.4367651999928,None,97.4367651999928,None,97.4367651999928,None,99.06966633002739,None,99.06966633002739,None,99.06966633002739,None,,,,,,,,,,,,,,106,2023-04-26_09h48.06.726,Main,2022.1.1,60.10699044597639,
neutral,neutral,2,k,k,,,,,1,8,26,10,,,,,,,,,,,,,prac,2,2,2,neutral,neutral,k,k,1,0.5807991999899969,99.07324920000974,100.08557779993862,100.06899449997582,None,99.07324920000974,None,99.07324920000974,None,99.07324920000974,None,100.65220773001201,None,100.65220773001201,None,100.65220773001201,None,,,,,,,,,,,,,,106,2023-04-26_09h48.06.726,Main,2022.1.1,60.10699044597639,
negative,neutral,2,j,l,,,,,1,9,27,12,,,,,,,,,,,,,prac,2,2,2,neutral,negative,j,j,1,0.52955400000792,100.65508549998049,101.6689081999939,101.65228479995858,None,100.65508549998049,None,100.65508549998049,None,100.65508549998049,None,102.18307362999766,None,102.18307362999766,None,102.18307362999766,None,,,,,,,,,,,,,,106,2023-04-26_09h48.06.726,Main,2022.1.1,60.10699044597639,
negative,positive,1,j,l,,,,,1,10,28,6,,,,,,,,,,,,,prac,1,1,1,positive,negative,j,j,1,0.7180948999011889,102.18623430002481,103.18547639995813,103.16884389996994,None,102.18623430002481,None,102.18623430002481,None,102.18623430002481,None,103.90227083002682,None,103.90227083002682,None,103.90227083002682,None,,,,,,,,,,,,,,106,2023-04-26_09h48.06.726,Main,2022.1.1,60.10699044597639,
negative,positive,2,j,l,,,,,1,11,29,15,,,,,,,,,,,,,prac,2,2,2,positive,negative,j,j,1,0.712717300048098,103.90545750001911,104.9162424999522,104.89956719998736,None,103.90545750001911,None,103.90545750001911,None,103.90545750001911,None,105.61622592995408,None,105.61622592995408,None,105.61622592995408,None,,,,,,,,,,,,,,106,2023-04-26_09h48.06.726,Main,2022.1.1,60.10699044597639,
neutral,negative,2,k,k,,,,,1,12,30,16,,,,,,,,,,,,,prac,2,2,2,negative,neutral,k,k,1,0.5346592999994755,105.6162482999498,106.61631549999584,106.61631549999584,None,105.6162482999498,None,105.6162482999498,None,105.6162482999498,None,107.15209202994592,None,107.15209202994592,None,107.15209202994592,None,,,,,,,,,,,,,,106,2023-04-26_09h48.06.726,Main,2022.1.1,60.10699044597639,
negative,negative,1,j,l,,,,,1,13,31,0,,,,,,,,,,,,,prac,1,1,1,negative,negative,j,j,1,0.6987370999995619,107.15461179998238,108.16873579996172,108.152169900015,None,107.15461179998238,None,107.15461179998238,None,107.15461179998238,None,108.85212982995435,None,108.85212982995435,None,108.85212982995435,None,,,,,,,,,,,,,,106,2023-04-26_09h48.06.726,Main,2022.1.1,60.10699044597639,
neutral,positive,2,k,k,,,,,1,14,32,13,,,,,,,,,,,,,prac,2,2,2,positive,neutral,k,k,1,0.5318379999371246,108.85498279996682,109.86871660000179,109.85210599994753,None,108.85498279996682,None,108.85498279996682,None,108.85498279996682,None,110.3853473300347,None,110.3853473300347,None,110.3853473300347,None,,,,,,,,,,,,,,106,2023-04-26_09h48.06.726,Main,2022.1.1,60.10699044597639,
negative,neutral,1,j,l,,,,,1,15,33,3,,,,,,,,,,,,,prac,1,1,1,neutral,negative,j,j,1,1.013672100030817,110.38871610001661,111.40201139997225,111.38538790005259,None,110.38871610001661,None,110.38871610001661,None,110.38871610001661,None,112.39987073002848,None,112.39987073002848,None,112.39987073002848,None,,,,,,,,,,,,,,106,2023-04-26_09h48.06.726,Main,2022.1.1,60.10699044597639,
positive,positive,1,l,j,,,,,1,16,34,2,,,,,,,,,,,,,prac,1,1,1,positive,positive,l,k,0,0.5291587000247091,112.41867829998955,113.41865819995292,113.40205070003867,None,112.41867829998955,None,112.41867829998955,None,112.41867829998955,None,113.93287889997009,None,113.93287889997009,None,113.93287889997009,None,,,,,,,,,,,,,,106,2023-04-26_09h48.06.726,Main,2022.1.1,60.10699044597639,
positive,positive,2,l,j,,,,,1,17,35,11,,,,,,,,,,,,,prac,2,2,2,positive,positive,l,l,1,0.5705671000760049,114.93277700000908,115.93276360002346,115.91609940002672,None,114.93277700000908,None,114.93277700000908,None,114.93277700000908,None,116.49943442994262,None,116.49943442994262,None,116.49943442994262,None,,,,,,,,,,,,,,106,2023-04-26_09h48.06.726,Main,2022.1.1,60.10699044597639,
,,,,,,,,,,,,,,,,,,,,,,,,,,,,,,,,,,,,,,,,,,,,,,,,,,,116.49946369999088,None,space,5.442667399998754,,,,,,,,,,106,2023-04-26_09h48.06.726,Main,2022.1.1,60.10699044597639,
,,,,,,,,,,,,,,,,,,,,,,,,,,,,,,,,,,,,,,,,,,,,,,,,,,,,,,,0.70648146,-0.31111112,0,0,0,0.010675729950889945,None,,,106,2023-04-26_09h48.06.726,Main,2022.1.1,60.10699044597639,
neutral,positive,1,k,k,,,,,,,,,0,0,0,4,,,,,,,121.96859089995269,None,main,1,1,1,positive,neutral,k,k,1,0.5644644999410957,123.97311100002844,124.98503360000905,124.96845699998084,None,123.97311100002844,None,123.97311100002844,None,123.97311100002844,None,125.53588472995906,None,125.53588472995906,None,125.53588472995906,None,,,,,,,,,,,,,,106,2023-04-26_09h48.06.726,Main,2022.1.1,60.10699044597639,
neutral,negative,2,k,k,,,,,,,,,0,1,1,16,,,,,,,,,main,1,1,2,negative,neutral,k,k,1,0.543325399979949,125.54946370003745,126.54914869996719,126.53248759999406,None,125.54946370003745,None,125.54946370003745,None,125.54946370003745,None,127.08247573000844,None,127.08247573000844,None,127.08247573000844,None,,,,,,,,,,,,,,106,2023-04-26_09h48.06.726,Main,2022.1.1,60.10699044597639,
negative,neutral,1,j,l,,,,,,,,,0,2,2,3,,,,,,,,,main,1,1,1,neutral,negative,j,j,1,0.5155933999922127,127.08247210003901,128.0850234000245,128.06842849997338,None,127.08247210003901,None,127.08247210003901,None,127.08247210003901,None,128.5995422300417,None,128.5995422300417,None,128.5995422300417,None,,,,,,,,,,,,,,106,2023-04-26_09h48.06.726,Main,2022.1.1,60.10699044597639,
neutral,positive,2,k,k,,,,,,,,,0,3,3,13,,,,,,,,,main,1,1,2,positive,neutral,k,k,1,0.500572600052692,128.6030552999582,129.61833189998288,129.60174780001398,None,128.6030552999582,None,128.6030552999582,None,128.6030552999582,None,130.1016192300245,None,130.1016192300245,None,130.1016192300245,None,,,,,,,,,,,,,,106,2023-04-26_09h48.06.726,Main,2022.1.1,60.10699044597639,
positive,negative,1,l,j,,,,,,,,,0,4,4,5,,,,,,,,,main,1,1,1,negative,positive,l,l,1,0.5818676999770105,130.10474370000884,131.11828960001003,131.10164599993732,None,130.10474370000884,None,130.10474370000884,None,130.10474370000884,None,131.68499312994535,None,131.68499312994535,None,131.68499312994535,None,,,,,,,,,,,,,,106,2023-04-26_09h48.06.726,Main,2022.1.1,60.10699044597639,
positive,positive,1,l,j,,,,,,,,,0,5,5,2,,,,,,,,,main,2,2,1,positive,positive,l,l,1,0.5643068000208586,131.68909320002422,132.7015953999944,132.68500880000647,None,131.68909320002422,None,131.68909320002422,None,131.68909320002422,None,133.2515677300049,None,133.2515677300049,None,133.2515677300049,None,,,,,,,,,,,,,,106,2023-04-26_09h48.06.726,Main,2022.1.1,60.10699044597639,
negative,negative,2,j,l,,,,,,,,,0,6,6,9,,,,,,,,,main,2,2,2,negative,negative,j,j,1,0.5796053999802098,133.25460830004886,134.26823769998737,134.25162949995138,None,133.25460830004886,None,133.25460830004886,None,133.25460830004886,None,134.83276062996592,None,134.83276062996592,None,134.83276062996592,None,,,,,,,,,,,,,,106,2023-04-26_09h48.06.726,Main,2022.1.1,60.10699044597639,
negative,positive,2,j,l,,,,,,,,,0,7,7,15,,,,,,,,,main,1,1,2,positive,negative,j,j,1,0.5813679000129923,134.83601910003927,135.84896970004775,135.83230120001826,None,134.83601910003927,None,134.83601910003927,None,134.83601910003927,None,136.4155862300191,None,136.4155862300191,None,136.4155862300191,None,,,,,,,,,,,,,,106,2023-04-26_09h48.06.726,Main,2022.1.1,60.10699044597639,
positive,neutral,1,l,j,,,,,,,,,0,8,8,8,,,,,,,,,main,1,1,1,neutral,positive,l,l,1,0.7151063999626786,136.41567420004867,137.41569379996508,137.41569379996508,None,136.41567420004867,None,136.41567420004867,None,136.41567420004867,None,138.13232992999255,None,138.13232992999255,None,138.13232992999255,None,,,,,,,,,,,,,,106,2023-04-26_09h48.06.726,Main,2022.1.1,60.10699044597639,
positive,negative,2,l,j,,,,,,,,,0,9,9,14,,,,,,,,,main,2,2,2,negative,positive,l,l,1,0.4986205999739468,138.13265609997325,139.1323167999508,139.1323167999508,None,138.13265609997325,None,138.13265609997325,None,138.13265609997325,None,139.63230593004263,None,139.63230593004263,None,139.63230593004263,None,,,,,,,,,,,,,,106,2023-04-26_09h48.06.726,Main,2022.1.1,60.10699044597639,
negative,positive,1,j,l,,,,,,,,,0,10,10,6,,,,,,,,,main,1,1,1,positive,negative,j,j,1,0.5674494000850245,139.63598929997534,140.65146429999731,140.63486800005194,None,139.63598929997534,None,139.63598929997534,None,139.63598929997534,None,141.20148613003548,None,141.20148613003548,None,141.20148613003548,None,,,,,,,,,,,,,,106,2023-04-26_09h48.06.726,Main,2022.1.1,60.10699044597639,
neutral,neutral,2,k,k,,,,,,,,,0,11,11,10,,,,,,,,,main,2,2,2,neutral,neutral,k,k,1,0.5128293000161648,141.20445610000752,142.21890440001152,142.2015390000306,None,141.20445610000752,None,141.20445610000752,None,141.20445610000752,None,142.71587732995394,None,142.71587732995394,None,142.71587732995394,None,,,,,,,,,,,,,,106,2023-04-26_09h48.06.726,Main,2022.1.1,60.10699044597639,
neutral,neutral,1,k,k,,,,,,,,,0,12,12,1,,,,,,,,,main,2,2,1,neutral,neutral,k,k,1,0.5673099999548867,142.71975119994022,143.73468999995384,143.71807970001828,None,142.71975119994022,None,142.71975119994022,None,142.71975119994022,None,144.28475672998465,None,144.28475672998465,None,144.28475672998465,None,,,,,,,,,,,,,,106,2023-04-26_09h48.06.726,Main,2022.1.1,60.10699044597639,
negative,neutral,2,j,l,,,,,,,,,0,13,13,12,,,,,,,,,main,1,1,2,neutral,negative,j,j,1,0.5963734000688419,144.28755699994508,145.30134560004808,145.2847453999566,None,144.28755699994508,None,144.28755699994508,None,144.28755699994508,None,145.8825189300347,None,145.8825189300347,None,145.8825189300347,None,,,,,,,,,,,,,,106,2023-04-26_09h48.06.726,Main,2022.1.1,60.10699044597639,
negative,negative,1,j,l,,,,,,,,,0,14,14,0,,,,,,,,,main,2,2,1,negative,negative,j,j,1,0.5980495000258088,145.88575290003791,146.89874430000782,146.88207679998595,None,145.88575290003791,None,145.88575290003791,None,145.88575290003791,None,147.4820504300529,None,147.4820504300529,None,147.4820504300529,None,,,,,,,,,,,,,,106,2023-04-26_09h48.06.726,Main,2022.1.1,60.10699044597639,
neutral,negative,1,k,k,,,,,,,,,0,15,15,7,,,,,,,,,main,1,1,1,negative,neutral,k,j,0,0.5985060000093654,147.48207250004634,148.48215629998595,148.48215629998595,None,147.48207250004634,None,147.48207250004634,None,147.48207250004634,None,149.08456009998918,None,149.08456009998918,None,149.08456009998918,None,,,,,,,,,,,,,,106,2023-04-26_09h48.06.726,Main,2022.1.1,60.10699044597639,
positive,positive,2,l,j,,,,,,,,,0,16,16,11,,,,,,,,,main,2,2,2,positive,positive,l,l,1,0.701205600053072,150.08435999997891,151.08459360001143,151.06799110001884,None,150.08435999997891,None,150.08435999997891,None,150.08435999997891,None,151.78208903004415,None,151.78208903004415,None,151.78208903004415,None,,,,,,,,,,,,,,106,2023-04-26_09h48.06.726,Main,2022.1.1,60.10699044597639,
positive,neutral,2,l,j,,,,,,,,,0,17,17,17,,,,,,,,,main,2,2,2,neutral,positive,l,l,1,0.4485393000068143,151.78574760002084,152.8011869000038,152.784594799974,None,151.78574760002084,None,151.78574760002084,None,151.78574760002084,None,153.23234963000286,None,153.23234963000286,None,153.23234963000286,None,,,,,,,,,,,,,,106,2023-04-26_09h48.06.726,Main,2022.1.1,60.10699044597639,
neutral,neutral,1,k,k,,,,,,,,,1,0,18,1,,,,,,,,,main,2,2,1,neutral,neutral,k,j,0,0.5844876999035478,153.236041199998,154.25113730004523,154.23456939996686,None,153.236041199998,None,153.236041199998,None,153.236041199998,None,154.81780479999725,None,154.81780479999725,None,154.81780479999725,None,,,,,,,,,,,,,,106,2023-04-26_09h48.06.726,Main,2022.1.1,60.10699044597639,
positive,negative,2,l,j,,,,,,,,,1,1,19,14,,,,,,,,,main,2,2,2,negative,positive,l,l,1,0.6009874999290332,155.8162037000293,156.83189479995053,156.7985512999585,None,155.8162037000293,None,155.8162037000293,None,155.8162037000293,None,157.41517543003428,None,157.41517543003428,None,157.41517543003428,None,,,,,,,,,,,,,,106,2023-04-26_09h48.06.726,Main,2022.1.1,60.10699044597639,
negative,negative,2,j,l,,,,,,,,,1,2,20,9,,,,,,,,,main,1,1,2,negative,negative,j,j,1,0.731342599960044,157.4152754000388,158.41528750001453,158.41528750001453,None,157.4152754000388,None,157.4152754000388,None,157.4152754000388,None,159.14857313004322,None,159.14857313004322,None,159.14857313004322,None,,,,,,,,,,,,,,106,2023-04-26_09h48.06.726,Main,2022.1.1,60.10699044597639,
negative,neutral,2,j,l,,,,,,,,,1,3,21,12,,,,,,,,,main,2,2,2,neutral,negative,j,j,1,0.6341929000336677,159.14920250000432,160.14859540003818,160.14859540003818,None,159.14920250000432,None,159.14920250000432,None,159.14920250000432,None,160.78436112999916,None,160.78436112999916,None,160.78436112999916,None,,,,,,,,,,,,,,106,2023-04-26_09h48.06.726,Main,2022.1.1,60.10699044597639,
neutral,neutral,2,k,k,,,,,,,,,1,4,22,10,,,,,,,,,main,2,2,2,neutral,neutral,k,k,1,0.5795829999260604,160.7875739999581,161.8010338000022,161.78445859998465,None,160.7875739999581,None,160.7875739999581,None,160.7875739999581,None,162.36557583000976,None,162.36557583000976,None,162.36557583000976,None,,,,,,,,,,,,,,106,2023-04-26_09h48.06.726,Main,2022.1.1,60.10699044597639,
negative,neutral,1,j,l,,,,,,,,,1,5,23,3,,,,,,,,,main,2,2,1,neutral,negative,j,j,1,0.5826493999920785,162.36915120005142,163.3842773999786,163.3676554999547,None,162.36915120005142,None,162.36915120005142,None,162.36915120005142,None,163.94882623003795,None,163.94882623003795,None,163.94882623003795,None,,,,,,,,,,,,,,106,2023-04-26_09h48.06.726,Main,2022.1.1,60.10699044597639,
negative,positive,1,j,l,,,,,,,,,1,6,24,6,,,,,,,,,main,1,1,1,positive,negative,j,j,1,0.5160451999399811,163.96151219995227,164.96763860003557,164.95104259997606,None,163.96151219995227,None,163.96151219995227,None,163.96151219995227,None,165.46751043004915,None,165.46751043004915,None,165.46751043004915,None,,,,,,,,,,,,,,106,2023-04-26_09h48.06.726,Main,2022.1.1,60.10699044597639,
negative,negative,1,j,l,,,,,,,,,1,7,25,0,,,,,,,,,main,1,1,1,negative,negative,j,j,1,0.9472080999985337,165.47027549997438,166.48425800004043,166.46763480000664,None,165.47027549997438,None,165.47027549997438,None,165.47027549997438,None,167.41511942995712,None,167.41511942995712,None,167.41511942995712,None,,,,,,,,,,,,,,106,2023-04-26_09h48.06.726,Main,2022.1.1,60.10699044597639,
negative,positive,2,j,l,,,,,,,,,1,8,26,15,,,,,,,,,main,1,1,2,positive,negative,j,j,1,0.6140632999595255,167.41946330002975,168.4317039999878,168.41503719997127,None,167.41946330002975,None,167.41946330002975,None,167.41946330002975,None,169.0316513299709,None,169.0316513299709,None,169.0316513299709,None,,,,,,,,,,,,,,106,2023-04-26_09h48.06.726,Main,2022.1.1,60.10699044597639,
neutral,positive,2,k,k,,,,,,,,,1,9,27,13,,,,,,,,,main,1,1,2,positive,neutral,k,k,1,0.6004173998953775,169.03163690003566,170.0317305000499,170.0317305000499,None,169.03163690003566,None,169.03163690003566,None,169.03163690003566,None,170.63348073002416,None,170.63348073002416,None,170.63348073002416,None,,,,,,,,,,,,,,106,2023-04-26_09h48.06.726,Main,2022.1.1,60.10699044597639,
neutral,positive,1,k,k,,,,,,,,,1,10,28,4,,,,,,,,,main,1,1,1,positive,neutral,k,k,1,0.4972778999945149,170.63877309998497,171.6508353999816,171.63424449996091,None,170.63877309998497,None,170.63877309998497,None,170.63877309998497,None,172.13164593002293,None,172.13164593002293,None,172.13164593002293,None,,,,,,,,,,,,,,106,2023-04-26_09h48.06.726,Main,2022.1.1,60.10699044597639,
positive,negative,1,l,j,,,,,,,,,1,11,29,5,,,,,,,,,main,1,1,1,negative,positive,l,l,1,0.5308558000251651,172.15078100003302,173.15079260000493,173.1341979999561,None,172.15078100003302,None,172.15078100003302,None,172.15078100003302,None,173.66530642998404,None,173.66530642998404,None,173.66530642998404,None,,,,,,,,,,,,,,106,2023-04-26_09h48.06.726,Main,2022.1.1,60.10699044597639,
positive,positive,1,l,j,,,,,,,,,1,12,30,2,,,,,,,,,main,1,1,1,positive,positive,l,l,1,0.6018672999925911,173.66921049996745,174.68410920002498,174.66749599995092,None,173.66921049996745,None,173.66921049996745,None,173.66921049996745,None,175.26731312999036,None,175.26731312999036,None,175.26731312999036,None,,,,,,,,,,,,,,106,2023-04-26_09h48.06.726,Main,2022.1.1,60.10699044597639,
neutral,negative,1,k,k,,,,,,,,,1,13,31,7,,,,,,,,,main,1,1,1,negative,neutral,k,k,1,0.49741360009647906,175.27149019995704,176.28401519998442,176.26736479997635,None,175.27149019995704,None,175.27149019995704,None,175.27149019995704,None,176.7674224300077,None,176.7674224300077,None,176.7674224300077,None,,,,,,,,,,,,,,106,2023-04-26_09h48.06.726,Main,2022.1.1,60.10699044597639,
positive,positive,2,l,j,,,,,,,,,1,14,32,11,,,,,,,,,main,1,1,2,positive,positive,l,l,1,0.5959902000613511,176.7700869999826,177.78147289995104,177.76480420003645,None,176.7700869999826,None,176.7700869999826,None,176.7700869999826,None,178.36476633001584,None,178.36476633001584,None,178.36476633001584,None,,,,,,,,,,,,,,106,2023-04-26_09h48.06.726,Main,2022.1.1,60.10699044597639,
positive,neutral,2,l,j,,,,,,,,,1,15,33,17,,,,,,,,,main,2,2,2,neutral,positive,l,l,1,0.5152726999949664,178.36493599996902,179.36484749999363,179.36484749999363,None,178.36493599996902,None,178.36493599996902,None,178.36493599996902,None,179.88148902999237,None,179.88148902999237,None,179.88148902999237,None,,,,,,,,,,,,,,106,2023-04-26_09h48.06.726,Main,2022.1.1,60.10699044597639,
neutral,negative,2,k,k,,,,,,,,,1,16,34,16,,,,,,,,,main,1,1,2,negative,neutral,k,k,1,0.48134729999583215,179.8821450000396,180.88151560002007,180.88151560002007,None,179.8821450000396,None,179.8821450000396,None,179.8821450000396,None,181.36482012995984,None,181.36482012995984,None,181.36482012995984,None,,,,,,,,,,,,,,106,2023-04-26_09h48.06.726,Main,2022.1.1,60.10699044597639,
positive,neutral,1,l,j,,,,,,,,,1,17,35,8,,,,,,,,,main,1,1,1,neutral,positive,l,l,1,0.5846244000131264,181.36766300001182,182.36730329995044,182.35065839998424,None,181.36766300001182,None,181.36766300001182,None,181.36766300001182,None,182.95061952995601,None,182.95061952995601,None,182.95061952995601,None,,,,,,,,,,,,,,106,2023-04-26_09h48.06.726,Main,2022.1.1,60.10699044597639,
neutral,negative,1,k,k,,,,,,,,,2,0,36,7,,,,,,,,,main,2,2,1,negative,neutral,k,k,1,0.9124328999314457,182.95407810003962,183.9672727000434,183.9506702000508,None,182.95407810003962,None,182.95407810003962,None,182.95407810003962,None,184.8648505299585,None,184.8648505299585,None,184.8648505299585,None,,,,,,,,,,,,,,106,2023-04-26_09h48.06.726,Main,2022.1.1,60.10699044597639,
neutral,positive,2,k,k,,,,,,,,,2,1,37,13,,,,,,,,,main,1,1,2,positive,neutral,k,k,1,0.5873458000132814,184.87171460001264,185.88380609999876,185.86720920004882,None,184.87171460001264,None,184.87171460001264,None,184.87171460001264,None,186.4504757300252,None,186.4504757300252,None,186.4504757300252,None,,,,,,,,,,,,,,106,2023-04-26_09h48.06.726,Main,2022.1.1,60.10699044597639,
positive,negative,1,l,j,,,,,,,,,2,2,38,5,,,,,,,,,main,2,2,1,negative,positive,l,l,1,0.6120009999722242,186.45713849994354,187.46714630001225,187.45058239996433,None,186.45713849994354,None,186.45713849994354,None,186.45713849994354,None,188.0671227299841,None,188.0671227299841,None,188.0671227299841,None,,,,,,,,,,,,,,106,2023-04-26_09h48.06.726,Main,2022.1.1,60.10699044597639,
positive,positive,2,l,j,,,,,,,,,2,3,39,11,,,,,,,,,main,2,2,2,positive,positive,l,l,1,0.5627245999639854,188.0710512000369,189.0812662000535,189.0645601999713,None,188.0710512000369,None,188.0710512000369,None,188.0710512000369,None,189.6312025300227,None,189.6312025300227,None,189.6312025300227,None,,,,,,,,,,,,,,106,2023-04-26_09h48.06.726,Main,2022.1.1,60.10699044597639,
negative,negative,1,j,l,,,,,,,,,2,4,40,0,,,,,,,,,main,2,2,1,negative,negative,j,j,1,0.6648123000049964,189.63152910000645,190.6312845000066,190.6312845000066,None,189.63152910000645,None,189.63152910000645,None,189.63152910000645,None,191.29794522994197,None,191.29794522994197,None,191.29794522994197,None,,,,,,,,,,,,,,106,2023-04-26_09h48.06.726,Main,2022.1.1,60.10699044597639,
negative,neutral,2,j,l,,,,,,,,,2,5,41,12,,,,,,,,,main,1,1,2,neutral,negative,j,j,1,0.5502197000896558,191.30218909995165,192.31707079999615,192.30049829999916,None,191.30218909995165,None,191.30218909995165,None,191.30218909995165,None,192.8505349300336,None,192.8505349300336,None,192.8505349300336,None,,,,,,,,,,,,,,106,2023-04-26_09h48.06.726,Main,2022.1.1,60.10699044597639,
positive,negative,2,l,j,,,,,,,,,2,6,42,14,,,,,,,,,main,2,2,2,negative,positive,l,l,1,0.5484223000239581,192.85357659996953,193.86700079997536,193.84827570000198,None,192.85357659996953,None,192.85357659996953,None,192.85357659996953,None,194.4003361299634,None,194.4003361299634,None,194.4003361299634,None,,,,,,,,,,,,,,106,2023-04-26_09h48.06.726,Main,2022.1.1,60.10699044597639,
neutral,neutral,1,k,k,,,,,,,,,2,7,43,1,,,,,,,,,main,2,2,1,neutral,neutral,k,k,1,0.5460739999543875,194.4035247999709,195.41699519997928,195.40039550000802,None,194.4035247999709,None,194.4035247999709,None,194.4035247999709,None,195.94822472999803,None,195.94822472999803,None,195.94822472999803,None,,,,,,,,,,,,,,106,2023-04-26_09h48.06.726,Main,2022.1.1,60.10699044597639,
neutral,neutral,2,k,k,,,,,,,,,2,8,44,10,,,,,,,,,main,2,2,2,neutral,neutral,k,l,0,0.5319973001023754,195.95244390005246,196.96700089995284,196.9503495999379,None,195.95244390005246,None,195.95244390005246,None,195.95244390005246,None,197.48370470001828,None,197.48370470001828,None,197.48370470001828,None,,,,,,,,,,,,,,106,2023-04-26_09h48.06.726,Main,2022.1.1,60.10699044597639,
neutral,positive,1,k,k,,,,,,,,,2,9,45,4,,,,,,,,,main,1,1,1,positive,neutral,k,k,1,0.6812736999709159,198.49212169996463,199.4976848999504,199.46439940005075,None,198.49212169996463,None,198.49212169996463,None,198.49212169996463,None,200.1643528299406,None,200.1643528299406,None,200.1643528299406,None,,,,,,,,,,,,,,106,2023-04-26_09h48.06.726,Main,2022.1.1,60.10699044597639,
negative,negative,2,j,l,,,,,,,,,2,10,46,9,,,,,,,,,main,1,1,2,negative,negative,j,j,1,0.5808307999977842,200.1811431000242,201.1811189999571,201.1644430999877,None,200.1811431000242,None,200.1811431000242,None,200.1811431000242,None,201.74776363002601,None,201.74776363002601,None,201.74776363002601,None,,,,,,,,,,,,,,106,2023-04-26_09h48.06.726,Main,2022.1.1,60.10699044597639,
negative,neutral,1,j,l,,,,,,,,,2,11,47,3,,,,,,,,,main,1,1,1,neutral,negative,j,j,1,0.5506785999750718,201.75099289999343,202.7503102000337,202.7503102000337,None,201.75099289999343,None,201.75099289999343,None,201.75099289999343,None,203.30018192997667,None,203.30018192997667,None,203.30018192997667,None,,,,,,,,,,,,,,106,2023-04-26_09h48.06.726,Main,2022.1.1,60.10699044597639,
negative,positive,1,j,l,,,,,,,,,2,12,48,6,,,,,,,,,main,1,1,1,positive,negative,j,j,1,0.5327950000064448,203.3027405999601,204.31685649999417,204.30024899996351,None,203.3027405999601,None,203.3027405999601,None,203.3027405999601,None,204.8335249299649,None,204.8335249299649,None,204.8335249299649,None,,,,,,,,,,,,,,106,2023-04-26_09h48.06.726,Main,2022.1.1,60.10699044597639,
positive,neutral,2,l,j,,,,,,,,,2,13,49,17,,,,,,,,,main,1,1,2,neutral,positive,l,k,0,0.49656230001710355,204.837270500022,205.8501402999973,205.83348250004929,None,204.837270500022,None,204.837270500022,None,204.837270500022,None,206.33349580003414,None,206.33349580003414,None,206.33349580003414,None,,,,,,,,,,,,,,106,2023-04-26_09h48.06.726,Main,2022.1.1,60.10699044597639,
negative,positive,2,j,l,,,,,,,,,2,14,50,15,,,,,,,,,main,2,2,2,positive,negative,j,j,1,0.6881175999296829,207.3316168000456,208.33342339994851,208.31680409994442,None,207.3316168000456,None,207.3316168000456,None,207.3316168000456,None,209.01690873005427,None,209.01690873005427,None,209.01690873005427,None,,,,,,,,,,,,,,106,2023-04-26_09h48.06.726,Main,2022.1.1,60.10699044597639,
positive,positive,1,l,j,,,,,,,,,2,15,51,2,,,,,,,,,main,1,1,1,positive,positive,l,l,1,0.560931200045161,209.0214783999836,210.03085270000156,210.01416949997656,None,209.0214783999836,None,209.0214783999836,None,209.0214783999836,None,210.58082693002652,None,210.58082693002652,None,210.58082693002652,None,,,,,,,,,,,,,,106,2023-04-26_09h48.06.726,Main,2022.1.1,60.10699044597639,
positive,neutral,1,l,j,,,,,,,,,2,16,52,8,,,,,,,,,main,2,2,1,neutral,positive,l,l,1,0.7156046000309289,210.58086039999034,211.58089270000346,211.58089270000346,None,210.58086039999034,None,210.58086039999034,None,210.58086039999034,None,212.29787512999027,None,212.29787512999027,None,212.29787512999027,None,,,,,,,,,,,,,,106,2023-04-26_09h48.06.726,Main,2022.1.1,60.10699044597639,
neutral,negative,2,k,k,,,,,,,,,2,17,53,16,,,,,,,,,main,1,1,2,negative,neutral,k,k,1,0.5339134999085218,212.3010256999405,213.3166522999527,213.30013400001917,None,212.3010256999405,None,212.3010256999405,None,212.3010256999405,None,213.83330043000169,None,213.83330043000169,None,213.83330043000169,None,,,,,,,,,,,,,,106,2023-04-26_09h48.06.726,Main,2022.1.1,60.10699044597639,
neutral,neutral,2,k,k,,,,,,,,,3,0,54,10,,,,,,,,,main,2,2,2,neutral,neutral,k,k,1,0.6652633999474347,213.83640559995547,214.84994240000378,214.83330009994097,None,213.83640559995547,None,213.83640559995547,None,213.83640559995547,None,215.49997302996925,None,215.49997302996925,None,215.49997302996925,None,,,,,,,,,,,,,,106,2023-04-26_09h48.06.726,Main,2022.1.1,60.10699044597639,
positive,positive,1,l,j,,,,,,,,,3,1,55,2,,,,,,,,,main,2,2,1,positive,positive,l,l,1,0.6490474999882281,215.5033765999833,216.51657820004039,216.50000330002513,None,215.5033765999833,None,215.5033765999833,None,215.5033765999833,None,217.14984562995377,None,217.14984562995377,None,217.14984562995377,None,,,,,,,,,,,,,,106,2023-04-26_09h48.06.726,Main,2022.1.1,60.10699044597639,
neutral,positive,2,k,k,,,,,,,,,3,2,56,13,,,,,,,,,main,1,1,2,positive,neutral,k,k,1,0.5144941000035033,217.15396739996504,218.16653139994014,218.14782209997065,None,217.15396739996504,None,217.15396739996504,None,217.15396739996504,None,218.66663582997862,None,218.66663582997862,None,218.66663582997862,None,,,,,,,,,,,,,,106,2023-04-26_09h48.06.726,Main,2022.1.1,60.10699044597639,
positive,negative,1,l,j,,,,,,,,,3,3,57,5,,,,,,,,,main,1,1,1,negative,positive,l,l,1,0.6291206000605598,218.66973700001836,219.68022840004414,219.66305339999963,None,218.66973700001836,None,218.66973700001836,None,218.66973700001836,None,220.2972585299518,None,220.2972585299518,None,220.2972585299518,None,,,,,,,,,,,,,,106,2023-04-26_09h48.06.726,Main,2022.1.1,60.10699044597639,
neutral,neutral,1,k,k,,,,,,,,,3,4,58,1,,,,,,,,,main,2,2,1,neutral,neutral,k,k,1,0.6151918000541627,220.29762770002708,221.29730219999328,221.29730219999328,None,220.29762770002708,None,220.29762770002708,None,220.29762770002708,None,221.9141112299636,None,221.9141112299636,None,221.9141112299636,None,,,,,,,,,,,,,,106,2023-04-26_09h48.06.726,Main,2022.1.1,60.10699044597639,
negative,positive,1,j,l,,,,,,,,,3,5,59,6,,,,,,,,,main,2,2,1,positive,negative,j,j,1,0.5648330999538302,221.91472849994898,222.91399849997833,222.91399849997833,None,221.91472849994898,None,221.91472849994898,None,221.91472849994898,None,223.48061772997025,None,223.48061772997025,None,223.48061772997025,None,,,,,,,,,,,,,,106,2023-04-26_09h48.06.726,Main,2022.1.1,60.10699044597639,
positive,neutral,1,l,j,,,,,,,,,3,6,60,8,,,,,,,,,main,2,2,1,neutral,positive,l,l,1,0.6327572000445798,223.48331639997195,224.48314030002803,224.466531699989,None,223.48331639997195,None,223.48331639997195,None,223.48331639997195,None,225.11428812998346,None,225.11428812998346,None,225.11428812998346,None,,,,,,,,,,,,,,106,2023-04-26_09h48.06.726,Main,2022.1.1,60.10699044597639,
positive,negative,2,l,j,,,,,,,,,3,7,61,14,,,,,,,,,main,2,2,2,negative,positive,l,l,1,0.5503069999394938,225.1179989000084,226.13308379997034,226.11647230002563,None,225.1179989000084,None,225.1179989000084,None,225.1179989000084,None,226.6664002300473,None,226.6664002300473,None,226.6664002300473,None,,,,,,,,,,,,,,106,2023-04-26_09h48.06.726,Main,2022.1.1,60.10699044597639,
negative,neutral,1,j,l,,,,,,,,,3,8,62,3,,,,,,,,,main,1,1,1,neutral,negative,j,j,1,0.5982987000606954,226.6691611999413,227.68304739997257,227.66681029996835,None,226.6691611999413,None,226.6691611999413,None,226.6691611999413,None,228.26635663004126,None,228.26635663004126,None,228.26635663004126,None,,,,,,,,,,,,,,106,2023-04-26_09h48.06.726,Main,2022.1.1,60.10699044597639,
negative,negative,2,j,l,,,,,,,,,3,9,63,9,,,,,,,,,main,1,1,2,negative,negative,j,j,1,0.6458382999990135,228.2692234000424,229.28301000001375,229.26638889999595,None,228.2692234000424,None,228.2692234000424,None,228.2692234000424,None,229.9138750300277,None,229.9138750300277,None,229.9138750300277,None,,,,,,,,,,,,,,106,2023-04-26_09h48.06.726,Main,2022.1.1,60.10699044597639,
negative,positive,2,j,l,,,,,,,,,3,10,64,15,,,,,,,,,main,1,1,2,positive,negative,j,j,1,0.5318133999826387,229.92047599994112,230.93299989996012,230.91637230000924,None,229.92047599994112,None,229.92047599994112,None,229.92047599994112,None,231.4470701300539,None,231.4470701300539,None,231.4470701300539,None,,,,,,,,,,,,,,106,2023-04-26_09h48.06.726,Main,2022.1.1,60.10699044597639,
negative,negative,1,j,l,,,,,,,,,3,11,65,0,,,,,,,,,main,1,1,1,negative,negative,j,j,1,0.6483814000384882,231.44708239997271,232.44712080003228,232.44712080003228,None,231.44708239997271,None,231.44708239997271,None,231.44708239997271,None,233.0971184299793,None,233.0971184299793,None,233.0971184299793,None,,,,,,,,,,,,,,106,2023-04-26_09h48.06.726,Main,2022.1.1,60.10699044597639,
neutral,positive,1,k,k,,,,,,,,,3,12,66,4,,,,,,,,,main,1,1,1,positive,neutral,k,k,1,0.5184027999639511,233.10093009995762,234.1162284000311,234.08292870002333,None,233.10093009995762,None,233.10093009995762,None,233.10093009995762,None,234.616377229942,None,234.616377229942,None,234.616377229942,None,,,,,,,,,,,,,,106,2023-04-26_09h48.06.726,Main,2022.1.1,60.10699044597639,
negative,neutral,2,j,l,,,,,,,,,3,13,67,12,,,,,,,,,main,2,2,2,neutral,negative,j,j,1,0.6644254999700934,234.62027790001594,235.63288499996997,235.61627460003365,None,234.62027790001594,None,234.62027790001594,None,234.62027790001594,None,236.2829362299759,None,236.2829362299759,None,236.2829362299759,None,,,,,,,,,,,,,,106,2023-04-26_09h48.06.726,Main,2022.1.1,60.10699044597639,
positive,positive,2,l,j,,,,,,,,,3,14,68,11,,,,,,,,,main,1,1,2,positive,positive,l,l,1,0.6817661999957636,236.28615509998053,237.29950920003466,237.2829180000117,None,236.28615509998053,None,236.28615509998053,None,236.28615509998053,None,237.96610193003434,None,237.96610193003434,None,237.96610193003434,None,,,,,,,,,,,,,,106,2023-04-26_09h48.06.726,Main,2022.1.1,60.10699044597639,
positive,neutral,2,l,j,,,,,,,,,3,15,69,17,,,,,,,,,main,2,2,2,neutral,positive,l,l,1,0.5462635000003502,237.96929399995133,238.98285070003476,238.96622679999564,None,237.96929399995133,None,237.96929399995133,None,237.96929399995133,None,239.51400273004546,None,239.51400273004546,None,239.51400273004546,None,,,,,,,,,,,,,,106,2023-04-26_09h48.06.726,Main,2022.1.1,60.10699044597639,
neutral,negative,2,k,k,,,,,,,,,3,16,70,16,,,,,,,,,main,2,2,2,negative,neutral,k,j,0,0.49813219998031855,239.51830650004558,240.53276500001084,240.51624120003544,None,239.51830650004558,None,239.51830650004558,None,239.51830650004558,None,241.01598869997542,None,241.01598869997542,None,241.01598869997542,None,,,,,,,,,,,,,,106,2023-04-26_09h48.06.726,Main,2022.1.1,60.10699044597639,
neutral,negative,1,k,k,,,,,,,,,3,17,71,7,,,,,,,,,main,1,1,1,negative,neutral,k,k,1,0.7356530000688508,242.013869300019,243.01385899994057,242.99718239996582,None,242.013869300019,None,242.013869300019,None,242.013869300019,None,243.74711072994396,None,243.74711072994396,None,243.74711072994396,None,,,,,,,,,,,,,,106,2023-04-26_09h48.06.726,Main,2022.1.1,60.10699044597639,
neutral,negative,1,k,k,,,,,,,,,4,0,72,7,,,,,,,,,main,1,1,1,negative,neutral,k,k,1,0.4812173000536859,243.75146790000144,244.7637945000315,244.74929840001278,None,243.75146790000144,None,243.75146790000144,None,243.75146790000144,None,245.23043532997835,None,245.23043532997835,None,245.23043532997835,None,,,,,,,,,,,,,,106,2023-04-26_09h48.06.726,Main,2022.1.1,60.10699044597639,
positive,negative,1,l,j,,,,,,,,,4,1,73,5,,,,,,,,,main,2,2,1,negative,positive,l,l,1,0.5666970000602305,245.2344000999583,246.2492078000214,246.23044680000748,None,245.2344000999583,None,245.2344000999583,None,245.2344000999583,None,246.79918882998172,None,246.79918882998172,None,246.79918882998172,None,,,,,,,,,,,,,,106,2023-04-26_09h48.06.726,Main,2022.1.1,60.10699044597639,
negative,neutral,1,j,l,,,,,,,,,4,2,74,3,,,,,,,,,main,1,1,1,neutral,negative,j,j,1,0.6458550000097603,246.80218700005207,247.81376109994017,247.79713469999842,None,246.80218700005207,None,246.80218700005207,None,246.80218700005207,None,248.44680643002502,None,248.44680643002502,None,248.44680643002502,None,,,,,,,,,,,,,,106,2023-04-26_09h48.06.726,Main,2022.1.1,60.10699044597639,
negative,positive,1,j,l,,,,,,,,,4,3,75,6,,,,,,,,,main,1,1,1,positive,negative,j,j,1,0.5488211000338197,248.4525160000194,249.46589250001125,249.44705519999843,None,248.4525160000194,None,248.4525160000194,None,248.4525160000194,None,249.99710983005352,None,249.99710983005352,None,249.99710983005352,None,,,,,,,,,,,,,,106,2023-04-26_09h48.06.726,Main,2022.1.1,60.10699044597639,
neutral,positive,1,k,k,,,,,,,,,4,4,76,4,,,,,,,,,main,2,2,1,positive,neutral,k,k,1,0.49846390006132424,250.00071599998046,251.01582099997904,250.99922500003595,None,250.00071599998046,None,250.00071599998046,None,250.00071599998046,None,251.49700942998751,None,251.49700942998751,None,251.49700942998751,None,,,,,,,,,,,,,,106,2023-04-26_09h48.06.726,Main,2022.1.1,60.10699044597639,
neutral,negative,2,k,k,,,,,,,,,4,5,77,16,,,,,,,,,main,1,1,2,negative,neutral,k,k,1,0.5172616000054404,251.50086999998894,252.5158042999683,252.4992075000191,None,251.50086999998894,None,251.50086999998894,None,251.50086999998894,None,253.01573512996546,None,253.01573512996546,None,253.01573512996546,None,,,,,,,,,,,,,,106,2023-04-26_09h48.06.726,Main,2022.1.1,60.10699044597639,
neutral,positive,2,k,k,,,,,,,,,4,6,78,13,,,,,,,,,main,2,2,2,positive,neutral,k,k,1,0.579998700064607,253.01862270000856,254.03248599998187,254.0157989000436,None,253.01862270000856,None,253.01862270000856,None,253.01862270000856,None,254.59694413004908,None,254.59694413004908,None,254.59694413004908,None,,,,,,,,,,,,,,106,2023-04-26_09h48.06.726,Main,2022.1.1,60.10699044597639,
positive,negative,2,l,j,,,,,,,,,4,7,79,14,,,,,,,,,main,1,1,2,negative,positive,l,l,1,0.6313733999850228,254.60042679996695,255.6132476000348,255.59661080001388,None,254.60042679996695,None,254.60042679996695,None,254.60042679996695,None,256.2299457299756,None,256.2299457299756,None,256.2299457299756,None,,,,,,,,,,,,,,106,2023-04-26_09h48.06.726,Main,2022.1.1,60.10699044597639,
negative,positive,2,j,l,,,,,,,,,4,8,80,15,,,,,,,,,main,1,1,2,positive,negative,j,j,1,0.7178496998967603,256.22995089995675,257.23000159999356,257.23000159999356,None,256.22995089995675,None,256.22995089995675,None,256.22995089995675,None,257.94923743002585,None,257.94923743002585,None,257.94923743002585,None,,,,,,,,,,,,,,106,2023-04-26_09h48.06.726,Main,2022.1.1,60.10699044597639,
negative,negative,1,j,l,,,,,,,,,4,9,81,0,,,,,,,,,main,2,2,1,negative,negative,j,j,1,0.9817026000237092,257.9524725000374,258.9657336999662,258.94910450000316,None,257.9524725000374,None,257.9524725000374,None,257.9524725000374,None,259.93234393002933,None,259.93234393002933,None,259.93234393002933,None,,,,,,,,,,,,,,106,2023-04-26_09h48.06.726,Main,2022.1.1,60.10699044597639,
negative,negative,2,j,l,,,,,,,,,4,10,82,9,,,,,,,,,main,1,1,2,negative,negative,j,j,1,0.5312266999389976,259.9353469000198,260.949050599942,260.93247340002563,None,259.9353469000198,None,259.9353469000198,None,259.9353469000198,None,261.46566492996647,None,261.46566492996647,None,261.46566492996647,None,,,,,,,,,,,,,,106,2023-04-26_09h48.06.726,Main,2022.1.1,60.10699044597639,
neutral,neutral,1,k,k,,,,,,,,,4,11,83,1,,,,,,,,,main,2,2,1,neutral,neutral,k,k,1,0.5460474999854341,261.4695877999766,262.48240860004444,262.46576049993746,None,261.4695877999766,None,261.4695877999766,None,261.4695877999766,None,263.01355803003537,None,263.01355803003537,None,263.01355803003537,None,,,,,,,,,,,,,,106,2023-04-26_09h48.06.726,Main,2022.1.1,60.10699044597639,
positive,positive,1,l,j,,,,,,,,,4,12,84,2,,,,,,,,,main,2,2,1,positive,positive,l,l,1,0.5813732999376953,263.01968479994684,264.0323125999421,264.0156866000034,None,263.01968479994684,None,263.01968479994684,None,263.01968479994684,None,264.59653602996843,None,264.59653602996843,None,264.59653602996843,None,,,,,,,,,,,,,,106,2023-04-26_09h48.06.726,Main,2022.1.1,60.10699044597639,
negative,neutral,2,j,l,,,,,,,,,4,13,85,12,,,,,,,,,main,1,1,2,neutral,negative,j,j,1,0.6647546000313014,264.6026425999589,265.59638610004913,265.587441700045,None,264.6026425999589,None,264.6026425999589,None,264.6026425999589,None,266.2630446299678,None,266.2630446299678,None,266.2630446299678,None,,,,,,,,,,,,,,106,2023-04-26_09h48.06.726,Main,2022.1.1,60.10699044597639,
positive,neutral,2,l,j,,,,,,,,,4,14,86,17,,,,,,,,,main,2,2,2,neutral,positive,l,k,0,0.5318767999997362,266.26308179995976,267.26304979994893,267.26304979994893,None,266.26308179995976,None,266.26308179995976,None,266.26308179995976,None,267.7964227000484,None,267.7964227000484,None,267.7964227000484,None,,,,,,,,,,,,,,106,2023-04-26_09h48.06.726,Main,2022.1.1,60.10699044597639,
positive,neutral,1,l,j,,,,,,,,,4,15,87,8,,,,,,,,,main,2,2,1,neutral,positive,l,l,1,0.5684260000707582,268.79700709995814,269.79893900000025,269.7822281999979,None,268.79700709995814,None,268.79700709995814,None,268.79700709995814,None,270.3637062299764,None,270.3637062299764,None,270.3637062299764,None,,,,,,,,,,,,,,106,2023-04-26_09h48.06.726,Main,2022.1.1,60.10699044597639,
neutral,neutral,2,k,k,,,,,,,,,4,16,88,10,,,,,,,,,main,2,2,2,neutral,neutral,k,k,1,0.6334116000216454,270.3698707999429,271.38230079994537,271.36556309997104,None,270.3698707999429,None,270.3698707999429,None,270.3698707999429,None,271.998913030047,None,271.998913030047,None,271.998913030047,None,,,,,,,,,,,,,,106,2023-04-26_09h48.06.726,Main,2022.1.1,60.10699044597639,
positive,positive,2,l,j,,,,,,,,,4,17,89,11,,,,,,,,,main,1,1,2,positive,positive,l,l,1,0.5794342000735924,272.001933200052,273.0154865999939,272.9988765999442,None,272.001933200052,None,272.001933200052,None,272.001933200052,None,273.5799843300134,None,273.5799843300134,None,273.5799843300134,None,,,,,,,,,,,,,,106,2023-04-26_09h48.06.726,Main,2022.1.1,60.10699044597639,
negative,neutral,2,j,l,,,,,,,,,5,0,90,12,,,,,,,,,main,1,1,2,neutral,negative,j,j,1,0.567234699963592,273.5834941000212,274.5987480999902,274.582215399947,None,273.5834941000212,None,273.5834941000212,None,273.5834941000212,None,275.14879693000114,None,275.14879693000114,None,275.14879693000114,None,,,,,,,,,,,,,,106,2023-04-26_09h48.06.726,Main,2022.1.1,60.10699044597639,
negative,positive,2,j,l,,,,,,,,,5,1,91,15,,,,,,,,,main,2,2,2,positive,negative,j,j,1,0.6292435999494046,275.15178610000294,276.16282099997625,276.1461664000526,None,275.15178610000294,None,275.15178610000294,None,275.15178610000294,None,276.77948012996933,None,276.77948012996933,None,276.77948012996933,None,,,,,,,,,,,,,,106,2023-04-26_09h48.06.726,Main,2022.1.1,60.10699044597639,
positive,neutral,2,l,j,,,,,,,,,5,2,92,17,,,,,,,,,main,1,1,2,neutral,positive,l,l,1,0.5652606999501586,276.77949800004717,277.7795614999486,277.7795614999486,None,276.77949800004717,None,276.77949800004717,None,276.77949800004717,None,278.34620693002364,None,278.34620693002364,None,278.34620693002364,None,,,,,,,,,,,,,,106,2023-04-26_09h48.06.726,Main,2022.1.1,60.10699044597639,
neutral,negative,2,k,k,,,,,,,,,5,3,93,16,,,,,,,,,main,2,2,2,negative,neutral,k,k,1,0.7175744998967275,278.34957720001694,279.3487480999902,279.3487480999902,None,278.34957720001694,None,278.34957720001694,None,278.34957720001694,None,280.06542702999434,None,280.06542702999434,None,280.06542702999434,None,,,,,,,,,,,,,,106,2023-04-26_09h48.06.726,Main,2022.1.1,60.10699044597639,
neutral,positive,2,k,k,,,,,,,,,5,4,94,13,,,,,,,,,main,1,1,2,positive,neutral,k,k,1,0.5296176000265405,280.06855980004184,281.081884299987,281.06534089997876,None,280.06855980004184,None,280.06855980004184,None,280.06855980004184,None,281.5964474299923,None,281.5964474299923,None,281.5964474299923,None,,,,,,,,,,,,,,106,2023-04-26_09h48.06.726,Main,2022.1.1,60.10699044597639,
positive,negative,2,l,j,,,,,,,,,5,5,95,14,,,,,,,,,main,1,1,2,negative,positive,l,l,1,0.684109800029546,281.5997036000481,282.6152529999381,282.5986959999427,None,281.5997036000481,None,281.5997036000481,None,281.5997036000481,None,283.28190433003476,None,283.28190433003476,None,283.28190433003476,None,,,,,,,,,,,,,,106,2023-04-26_09h48.06.726,Main,2022.1.1,60.10699044597639,
negative,negative,2,j,l,,,,,,,,,5,6,96,9,,,,,,,,,main,2,2,2,negative,negative,j,j,1,0.5813800999894738,283.28510209999513,284.29855369997676,284.28199549997225,None,283.28510209999513,None,283.28510209999513,None,283.28510209999513,None,284.86515782997014,None,284.86515782997014,None,284.86515782997014,None,,,,,,,,,,,,,,106,2023-04-26_09h48.06.726,Main,2022.1.1,60.10699044597639,
neutral,positive,1,k,k,,,,,,,,,5,7,97,4,,,,,,,,,main,1,1,1,positive,neutral,k,k,1,0.5294494000263512,284.868959799991,285.88186259998474,285.86524229997303,None,284.868959799991,None,284.868959799991,None,284.868959799991,None,286.39592993005647,None,286.39592993005647,None,286.39592993005647,None,,,,,,,,,,,,,,106,2023-04-26_09h48.06.726,Main,2022.1.1,60.10699044597639,
positive,negative,1,l,j,,,,,,,,,5,8,98,5,,,,,,,,,main,1,1,1,negative,positive,l,l,1,0.4817675999365747,286.3959572999738,287.39597820001654,287.39597820001654,None,286.3959572999738,None,286.3959572999738,None,286.3959572999738,None,287.87930242998993,None,287.87930242998993,None,287.87930242998993,None,,,,,,,,,,,,,,106,2023-04-26_09h48.06.726,Main,2022.1.1,60.10699044597639,
positive,positive,2,l,j,,,,,,,,,5,9,99,11,,,,,,,,,main,2,2,2,positive,positive,l,l,1,0.5321110000368208,287.8792816000059,288.87932910001837,288.87932910001837,None,287.8792816000059,None,287.8792816000059,None,287.8792816000059,None,289.41262662995143,None,289.41262662995143,None,289.41262662995143,None,,,,,,,,,,,,,,106,2023-04-26_09h48.06.726,Main,2022.1.1,60.10699044597639,
positive,positive,1,l,j,,,,,,,,,5,10,100,2,,,,,,,,,main,2,2,1,positive,positive,l,l,1,0.5647367000347003,289.4135059999535,290.41266220004763,290.41266220004763,None,289.4135059999535,None,289.4135059999535,None,289.4135059999535,None,290.97929863005413,None,290.97929863005413,None,290.97929863005413,None,,,,,,,,,,,,,,106,2023-04-26_09h48.06.726,Main,2022.1.1,60.10699044597639,
negative,negative,1,j,l,,,,,,,,,5,11,101,0,,,,,,,,,main,2,2,1,negative,negative,j,j,1,0.5488536000484601,290.98251879995223,291.98176969995257,291.96514450001996,None,290.98251879995223,None,290.98251879995223,None,290.98251879995223,None,292.5292652299628,None,292.5292652299628,None,292.5292652299628,None,,,,,,,,,,,,,,106,2023-04-26_09h48.06.726,Main,2022.1.1,60.10699044597639,
negative,neutral,1,j,l,,,,,,,,,5,12,102,3,,,,,,,,,main,1,1,1,neutral,negative,j,j,1,0.5818594999145716,292.5357004000107,293.54839260003064,293.53177540004253,None,292.5357004000107,None,292.5357004000107,None,292.5357004000107,None,294.11285543001725,None,294.11285543001725,None,294.11285543001725,None,,,,,,,,,,,,,,106,2023-04-26_09h48.06.726,Main,2022.1.1,60.10699044597639,
neutral,neutral,1,k,k,,,,,,,,,5,13,103,1,,,,,,,,,main,1,1,1,neutral,neutral,k,j,0,0.5336910999612883,294.1162226999877,295.1317555999849,295.115067500039,None,294.1162226999877,None,294.1162226999877,None,294.1162226999877,None,295.64834419998806,None,295.64834419998806,None,295.64834419998806,None,,,,,,,,,,,,,,106,2023-04-26_09h48.06.726,Main,2022.1.1,60.10699044597639,
neutral,negative,1,k,k,,,,,,,,,5,14,104,7,,,,,,,,,main,2,2,1,negative,neutral,k,j,0,0.68438199989032,296.64748010004405,297.662429500022,297.62908910005353,None,296.64748010004405,None,296.64748010004405,None,296.64748010004405,None,298.32913179998286,None,298.32913179998286,None,298.32913179998286,None,,,,,,,,,,,,,,106,2023-04-26_09h48.06.726,Main,2022.1.1,60.10699044597639,
negative,positive,1,j,l,,,,,,,,,5,15,105,6,,,,,,,,,main,1,1,1,positive,negative,j,j,1,0.6229148000711575,299.32908159994986,300.3316065999679,300.31498719996307,None,299.32908159994986,None,299.32908159994986,None,299.32908159994986,None,300.94833162999714,None,300.94833162999714,None,300.94833162999714,None,,,,,,,,,,,,,,106,2023-04-26_09h48.06.726,Main,2022.1.1,60.10699044597639,
positive,neutral,1,l,j,,,,,,,,,5,16,106,8,,,,,,,,,main,1,1,1,neutral,positive,l,k,0,0.5311369999544695,300.9519956000149,301.96488300000783,301.94829129998107,None,300.9519956000149,None,300.9519956000149,None,300.9519956000149,None,302.4815462999977,None,302.4815462999977,None,302.4815462999977,None,,,,,,,,,,,,,,106,2023-04-26_09h48.06.726,Main,2022.1.1,60.10699044597639,
neutral,neutral,2,k,k,,,,,,,,,5,17,107,10,,,,,,,,,main,1,1,2,neutral,neutral,k,k,1,0.6511655999347568,303.4796136999503,304.4814816999715,304.4649101999821,None,303.4796136999503,None,303.4796136999503,None,303.4796136999503,None,305.12926742995626,None,305.12926742995626,None,305.12926742995626,None,,,,,,,,,,,,,,106,2023-04-26_09h48.06.726,Main,2022.1.1,60.10699044597639,
positive,neutral,2,l,j,,,,,,,,,6,0,108,17,,,,,,,,,main,2,2,2,neutral,positive,l,l,1,0.6150021000066772,305.13584620004985,306.14810979994945,306.131548400037,None,305.13584620004985,None,305.13584620004985,None,305.13584620004985,None,306.7459337299457,None,306.7459337299457,None,306.7459337299457,None,,,,,,,,,,,,,,106,2023-04-26_09h48.06.726,Main,2022.1.1,60.10699044597639,
neutral,negative,1,k,k,,,,,,,,,6,1,109,7,,,,,,,,,main,2,2,1,negative,neutral,k,k,1,0.5980612999992445,306.7494444999611,307.76223140000366,307.7455549000297,None,306.7494444999611,None,306.7494444999611,None,306.7494444999611,None,308.34555153003896,None,308.34555153003896,None,308.34555153003896,None,,,,,,,,,,,,,,106,2023-04-26_09h48.06.726,Main,2022.1.1,60.10699044597639,
negative,positive,1,j,l,,,,,,,,,6,2,110,6,,,,,,,,,main,1,1,1,positive,negative,j,j,1,0.6650273000122979,308.3455295000458,309.34556899999734,309.34556899999734,None,308.3455295000458,None,308.3455295000458,None,308.3455295000458,None,310.0122037299676,None,310.0122037299676,None,310.0122037299676,None,,,,,,,,,,,,,,106,2023-04-26_09h48.06.726,Main,2022.1.1,60.10699044597639,
neutral,neutral,2,k,k,,,,,,,,,6,3,111,10,,,,,,,,,main,1,1,2,neutral,neutral,k,k,1,0.5323763000778854,310.0132853999967,311.0289244999876,311.01224850001745,None,310.0132853999967,None,310.0132853999967,None,310.0132853999967,None,311.5455435300479,None,311.5455435300479,None,311.5455435300479,None,,,,,,,,,,,,,,106,2023-04-26_09h48.06.726,Main,2022.1.1,60.10699044597639,
positive,negative,1,l,j,,,,,,,,,6,4,112,5,,,,,,,,,main,2,2,1,negative,positive,l,l,1,0.6669897999381647,311.54968830000143,312.56466979999095,312.5480850000167,None,311.54968830000143,None,311.54968830000143,None,311.54968830000143,None,313.2146625300171,None,313.2146625300171,None,313.2146625300171,None,,,,,,,,,,,,,,106,2023-04-26_09h48.06.726,Main,2022.1.1,60.10699044597639,
positive,positive,2,l,j,,,,,,,,,6,5,113,11,,,,,,,,,main,1,1,2,positive,positive,l,l,1,0.7317105999682099,313.2184837999521,314.2312560999999,314.21464519994333,None,313.2184837999521,None,313.2184837999521,None,313.2184837999521,None,314.94796002996156,None,314.94796002996156,None,314.94796002996156,None,,,,,,,,,,,,,,106,2023-04-26_09h48.06.726,Main,2022.1.1,60.10699044597639,
negative,negative,2,j,l,,,,,,,,,6,6,114,9,,,,,,,,,main,2,2,2,negative,negative,j,j,1,0.5960539999650791,314.95191329997033,315.96457429998554,315.9479258999927,None,314.95191329997033,None,314.95191329997033,None,314.95191329997033,None,316.5454276299803,None,316.5454276299803,None,316.5454276299803,None,,,,,,,,,,,,,,106,2023-04-26_09h48.06.726,Main,2022.1.1,60.10699044597639,
positive,negative,2,l,j,,,,,,,,,6,7,115,14,,,,,,,,,main,1,1,2,negative,positive,l,l,1,0.9649149000179023,316.5491683,317.564586799941,317.5479727999773,None,316.5491683,None,316.5491683,None,316.5491683,None,318.51216743004045,None,318.51216743004045,None,318.51216743004045,None,,,,,,,,,,,,,,106,2023-04-26_09h48.06.726,Main,2022.1.1,60.10699044597639,
positive,positive,1,l,j,,,,,,,,,6,8,116,2,,,,,,,,,main,2,2,1,positive,positive,l,l,1,0.582052499987185,318.52843700000085,319.52869599999394,319.512027699966,None,318.52843700000085,None,318.52843700000085,None,318.52843700000085,None,320.09533583002633,None,320.09533583002633,None,320.09533583002633,None,,,,,,,,,,,,,,106,2023-04-26_09h48.06.726,Main,2022.1.1,60.10699044597639,
negative,positive,2,j,l,,,,,,,,,6,9,117,15,,,,,,,,,main,2,2,2,positive,negative,j,j,1,0.7172338999807835,320.0953661999665,321.0953657999635,321.0953657999635,None,320.0953661999665,None,320.0953661999665,None,320.0953661999665,None,321.81442752995065,None,321.81442752995065,None,321.81442752995065,None,,,,,,,,,,,,,,106,2023-04-26_09h48.06.726,Main,2022.1.1,60.10699044597639,
neutral,neutral,1,k,k,,,,,,,,,6,10,118,1,,,,,,,,,main,1,1,1,neutral,neutral,k,k,1,0.5958781000226736,321.8172320999438,322.83112039999105,322.81450320000295,None,321.8172320999438,None,321.8172320999438,None,321.8172320999438,None,323.41198003003376,None,323.41198003003376,None,323.41198003003376,None,,,,,,,,,,,,,,106,2023-04-26_09h48.06.726,Main,2022.1.1,60.10699044597639,
negative,negative,1,j,l,,,,,,,,,6,11,119,0,,,,,,,,,main,1,1,1,negative,negative,j,j,1,0.6341987999621779,323.4182168999687,324.4312171000056,324.41378349997103,None,323.4182168999687,None,323.4182168999687,None,323.4182168999687,None,325.04784032995815,None,325.04784032995815,None,325.04784032995815,None,,,,,,,,,,,,,,106,2023-04-26_09h48.06.726,Main,2022.1.1,60.10699044597639,
positive,neutral,1,l,j,,,,,,,,,6,12,120,8,,,,,,,,,main,1,1,1,neutral,positive,l,l,1,0.5484317999798805,325.05142329994123,326.06438440002967,326.04780519998167,None,325.05142329994123,None,325.05142329994123,None,325.05142329994123,None,326.5977319299942,None,326.5977319299942,None,326.5977319299942,None,,,,,,,,,,,,,,106,2023-04-26_09h48.06.726,Main,2022.1.1,60.10699044597639,
negative,neutral,1,j,l,,,,,,,,,6,13,121,3,,,,,,,,,main,2,2,1,neutral,negative,j,j,1,0.622417000005953,326.60068170004524,327.6143775000237,327.59776140004396,None,326.60068170004524,None,326.60068170004524,None,326.60068170004524,None,328.22152903003155,None,328.22152903003155,None,328.22152903003155,None,,,,,,,,,,,,,,106,2023-04-26_09h48.06.726,Main,2022.1.1,60.10699044597639,
negative,neutral,2,j,l,,,,,,,,,6,14,122,12,,,,,,,,,main,2,2,2,neutral,negative,j,j,1,0.8385846999008209,328.23215399996843,329.2450782000087,329.21177000005264,None,328.23215399996843,None,328.23215399996843,None,328.23215399996843,None,330.0617100299802,None,330.0617100299802,None,330.0617100299802,None,,,,,,,,,,,,,,106,2023-04-26_09h48.06.726,Main,2022.1.1,60.10699044597639,
neutral,positive,1,k,k,,,,,,,,,6,15,123,4,,,,,,,,,main,2,2,1,positive,neutral,k,k,1,0.6994636000599712,330.061756500043,331.0618088999763,331.0618088999763,None,330.061756500043,None,330.061756500043,None,330.061756500043,None,331.7617976300186,None,331.7617976300186,None,331.7617976300186,None,,,,,,,,,,,,,,106,2023-04-26_09h48.06.726,Main,2022.1.1,60.10699044597639,
neutral,positive,2,k,k,,,,,,,,,6,16,124,13,,,,,,,,,main,1,1,2,positive,neutral,k,k,1,0.6162847999949008,331.766037399997,332.7809997999575,332.7643364999676,None,331.766037399997,None,331.766037399997,None,331.766037399997,None,333.3788130299887,None,333.3788130299887,None,333.3788130299887,None,,,,,,,,,,,,,,106,2023-04-26_09h48.06.726,Main,2022.1.1,60.10699044597639,
neutral,negative,2,k,k,,,,,,,,,6,17,125,16,,,,,,,,,main,2,2,2,negative,neutral,k,k,1,0.5488970000296831,333.38350630004425,334.3975890999427,334.3809639000101,None,333.38350630004425,None,333.38350630004425,None,333.38350630004425,None,334.9310051299632,None,334.9310051299632,None,334.9310051299632,None,,,,,,,,,,,,,,106,2023-04-26_09h48.06.726,Main,2022.1.1,60.10699044597639,
negative,positive,1,j,l,,,,,,,,,7,0,126,6,,,,,,,,,main,2,2,1,positive,negative,j,j,1,0.6462714999215677,334.9349811000284,335.94749139994383,335.93092329998035,None,334.9349811000284,None,334.9349811000284,None,334.9349811000284,None,336.57870433004575,None,336.57870433004575,None,336.57870433004575,None,,,,,,,,,,,,,,106,2023-04-26_09h48.06.726,Main,2022.1.1,60.10699044597639,
neutral,positive,1,k,k,,,,,,,,,7,1,127,4,,,,,,,,,main,2,2,1,positive,neutral,k,k,1,0.7837575000012293,336.5823669999372,337.5975211999612,337.58088270004373,None,336.5823669999372,None,336.5823669999372,None,336.5823669999372,None,338.36406623004007,None,338.36406623004007,None,338.36406623004007,None,,,,,,,,,,,,,,106,2023-04-26_09h48.06.726,Main,2022.1.1,60.10699044597639,
positive,neutral,2,l,j,,,,,,,,,7,2,128,17,,,,,,,,,main,2,2,2,neutral,positive,l,l,1,0.6461858000839129,338.36693789996207,339.3807790999999,339.364171299967,None,338.36693789996207,None,338.36693789996207,None,338.36693789996207,None,340.0115447299555,None,340.0115447299555,None,340.0115447299555,None,,,,,,,,,,,,,,106,2023-04-26_09h48.06.726,Main,2022.1.1,60.10699044597639,
negative,negative,1,j,l,,,,,,,,,7,3,129,0,,,,,,,,,main,1,1,1,negative,negative,j,j,1,0.5647251999471337,340.0115757000167,341.01156539993826,341.01156539993826,None,340.0115757000167,None,340.0115757000167,None,340.0115757000167,None,341.57819563001397,None,341.57819563001397,None,341.57819563001397,None,,,,,,,,,,,,,,106,2023-04-26_09h48.06.726,Main,2022.1.1,60.10699044597639,
neutral,negative,2,k,k,,,,,,,,,7,4,130,16,,,,,,,,,main,2,2,2,negative,neutral,k,k,1,0.5327478999970481,341.57834450004157,342.5807112000184,342.56414509995375,None,341.57834450004157,None,341.57834450004157,None,341.57834450004157,None,343.1118900300004,None,343.1118900300004,None,343.1118900300004,None,,,,,,,,,,,,,,106,2023-04-26_09h48.06.726,Main,2022.1.1,60.10699044597639,
positive,neutral,1,l,j,,,,,,,,,7,5,131,8,,,,,,,,,main,2,2,1,neutral,positive,l,l,1,0.5992415000218898,343.1153804999776,344.13069469993934,344.11404490005225,None,343.1153804999776,None,343.1153804999776,None,343.1153804999776,None,344.71183663003615,None,344.71183663003615,None,344.71183663003615,None,,,,,,,,,,,,,,106,2023-04-26_09h48.06.726,Main,2022.1.1,60.10699044597639,
positive,negative,1,l,j,,,,,,,,,7,6,132,5,,,,,,,,,main,2,2,1,negative,positive,l,l,1,0.7163230000296608,344.71621250000317,345.7306741999928,345.7140172000509,None,344.71621250000317,None,344.71621250000317,None,344.71621250000317,None,346.4306245299755,None,346.4306245299755,None,346.4306245299755,None,,,,,,,,,,,,,,106,2023-04-26_09h48.06.726,Main,2022.1.1,60.10699044597639,
neutral,neutral,1,k,k,,,,,,,,,7,7,133,1,,,,,,,,,main,1,1,1,neutral,neutral,k,k,1,0.5145546999992803,346.4338247999549,347.4473218000494,347.43069219996687,None,346.4338247999549,None,346.4338247999549,None,346.4338247999549,None,347.9472370300442,None,347.9472370300442,None,347.9472370300442,None,,,,,,,,,,,,,,106,2023-04-26_09h48.06.726,Main,2022.1.1,60.10699044597639,
negative,positive,2,j,l,,,,,,,,,7,8,134,15,,,,,,,,,main,2,2,2,positive,negative,j,j,1,0.6453693000366911,347.9517048000125,348.96391940000467,348.94732549996115,None,347.9517048000125,None,347.9517048000125,None,347.9517048000125,None,349.5946365300566,None,349.5946365300566,None,349.5946365300566,None,,,,,,,,,,,,,,106,2023-04-26_09h48.06.726,Main,2022.1.1,60.10699044597639,
negative,neutral,1,j,l,,,,,,,,,7,9,135,3,,,,,,,,,main,2,2,1,neutral,negative,j,j,1,0.598328199936077,349.5946627999656,350.59471570001915,350.59471570001915,None,349.5946627999656,None,349.5946627999656,None,349.5946627999656,None,351.1946746299742,None,351.1946746299742,None,351.1946746299742,None,,,,,,,,,,,,,,106,2023-04-26_09h48.06.726,Main,2022.1.1,60.10699044597639,
negative,neutral,2,j,l,,,,,,,,,7,10,136,12,,,,,,,,,main,2,2,2,neutral,negative,j,j,1,0.6817669000010937,351.1946469999384,352.19473810005,352.19473810005,None,351.1946469999384,None,351.1946469999384,None,351.1946469999384,None,352.8780040299986,None,352.8780040299986,None,352.8780040299986,None,,,,,,,,,,,,,,106,2023-04-26_09h48.06.726,Main,2022.1.1,60.10699044597639,
neutral,neutral,2,k,k,,,,,,,,,7,11,137,10,,,,,,,,,main,2,2,2,neutral,neutral,k,l,0,0.5508608999662101,352.8786526999902,353.8805686000269,353.8805686000269,None,352.8786526999902,None,352.8786526999902,None,352.8786526999902,None,354.43046539998613,None,354.43046539998613,None,354.43046539998613,None,,,,,,,,,,,,,,106,2023-04-26_09h48.06.726,Main,2022.1.1,60.10699044597639,
neutral,positive,2,k,k,,,,,,,,,7,12,138,13,,,,,,,,,main,2,2,2,positive,neutral,k,k,1,0.5369919000659138,355.4289114000276,356.43045370001346,356.4138432999607,None,355.4289114000276,None,355.4289114000276,None,355.4289114000276,None,356.96374292999974,None,356.96374292999974,None,356.96374292999974,None,,,,,,,,,,,,,,106,2023-04-26_09h48.06.726,Main,2022.1.1,60.10699044597639,
positive,negative,2,l,j,,,,,,,,,7,13,139,14,,,,,,,,,main,1,1,2,negative,positive,l,l,1,0.6312716000247747,356.96725240000524,357.98043680004776,357.96384240000043,None,356.96725240000524,None,356.96725240000524,None,356.96725240000524,None,358.5971262300387,None,358.5971262300387,None,358.5971262300387,None,,,,,,,,,,,,,,106,2023-04-26_09h48.06.726,Main,2022.1.1,60.10699044597639,
negative,negative,2,j,l,,,,,,,,,7,14,140,9,,,,,,,,,main,1,1,2,negative,negative,j,j,1,0.581593899987638,358.600523400004,359.6137088999385,359.5970713000279,None,358.600523400004,None,358.600523400004,None,358.600523400004,None,360.180310230027,None,360.180310230027,None,360.180310230027,None,,,,,,,,,,,,,,106,2023-04-26_09h48.06.726,Main,2022.1.1,60.10699044597639,
neutral,negative,1,k,k,,,,,,,,,7,15,141,7,,,,,,,,,main,2,2,1,negative,neutral,k,k,1,0.6125940000638366,360.1833586000139,361.19444430002477,361.1777831000509,None,360.1833586000139,None,360.1833586000139,None,360.1833586000139,None,361.7944410300348,None,361.7944410300348,None,361.7944410300348,None,,,,,,,,,,,,,,106,2023-04-26_09h48.06.726,Main,2022.1.1,60.10699044597639,
positive,positive,2,l,j,,,,,,,,,7,16,142,11,,,,,,,,,main,1,1,2,positive,positive,l,l,1,0.6492248999420553,361.79489899997134,362.79452310001943,362.79452310001943,None,361.79489899997134,None,361.79489899997134,None,361.79489899997134,None,363.4448456299957,None,363.4448456299957,None,363.4448456299957,None,,,,,,,,,,,,,,106,2023-04-26_09h48.06.726,Main,2022.1.1,60.10699044597639,
positive,positive,1,l,j,,,,,,,,,7,17,143,2,,,,,,,,,main,1,1,1,positive,positive,l,l,1,0.6338018000824377,363.4485758000519,364.4636591000017,364.44702750002034,None,363.4485758000519,None,363.4485758000519,None,363.4485758000519,None,365.0802027300466,None,365.0802027300466,None,365.0802027300466,None,,,,,,,,,,,,,,106,2023-04-26_09h48.06.726,Main,2022.1.1,60.10699044597639,
negative,neutral,1,j,l,,,,,,,,,8,0,144,3,,,,,,,,,main,2,2,1,neutral,negative,j,j,1,0.5651325000217184,365.08326600003056,366.0968861000147,366.08032690000255,None,365.08326600003056,None,365.08326600003056,None,365.08326600003056,None,366.6469060300384,None,366.6469060300384,None,366.6469060300384,None,,,,,,,,,,,,,,106,2023-04-26_09h48.06.726,Main,2022.1.1,60.10699044597639,
negative,negative,2,j,l,,,,,,,,,8,1,145,9,,,,,,,,,main,2,2,2,negative,negative,j,j,1,0.6141957000363618,366.6498607000103,367.66353479993995,367.6469279000303,None,366.6498607000103,None,366.6498607000103,None,366.6498607000103,None,368.2624925299548,None,368.2624925299548,None,368.2624925299548,None,,,,,,,,,,,,,,106,2023-04-26_09h48.06.726,Main,2022.1.1,60.10699044597639,
negative,positive,2,j,l,,,,,,,,,8,2,146,15,,,,,,,,,main,2,2,2,positive,negative,j,j,1,0.6327175999758765,368.2681970000267,369.28019479999784,369.263582100044,None,368.2681970000267,None,368.2681970000267,None,368.2681970000267,None,369.8968545299955,None,369.8968545299955,None,369.8968545299955,None,,,,,,,,,,,,,,106,2023-04-26_09h48.06.726,Main,2022.1.1,60.10699044597639,
positive,neutral,2,l,j,,,,,,,,,8,3,147,17,,,,,,,,,main,1,1,2,neutral,positive,l,l,1,0.5291684999829158,369.89949270000216,370.91095119994134,370.89428120001685,None,369.89949270000216,None,369.89949270000216,None,369.89949270000216,None,371.4275550300023,None,371.4275550300023,None,371.4275550300023,None,,,,,,,,,,,,,,106,2023-04-26_09h48.06.726,Main,2022.1.1,60.10699044597639,
positive,positive,2,l,j,,,,,,,,,8,4,148,11,,,,,,,,,main,2,2,2,positive,positive,l,l,1,0.5145275000249967,371.42862729995977,372.4443272999488,372.42766929999925,None,371.42862729995977,None,371.42862729995977,None,371.42862729995977,None,372.94429522999565,None,372.94429522999565,None,372.94429522999565,None,,,,,,,,,,,,,,106,2023-04-26_09h48.06.726,Main,2022.1.1,60.10699044597639,
negative,positive,1,j,l,,,,,,,,,8,5,149,6,,,,,,,,,main,2,2,1,positive,negative,j,j,1,0.6649040000047535,372.9452235000208,373.944312299951,373.944312299951,None,372.9452235000208,None,372.9452235000208,None,372.9452235000208,None,374.61094733003995,None,374.61094733003995,None,374.61094733003995,None,,,,,,,,,,,,,,106,2023-04-26_09h48.06.726,Main,2022.1.1,60.10699044597639,
neutral,neutral,1,k,k,,,,,,,,,8,6,150,1,,,,,,,,,main,2,2,1,neutral,neutral,k,k,1,0.5842994999838993,374.6150189000182,375.6301274000434,375.5968055999838,None,374.6150189000182,None,374.6150189000182,None,374.6150189000182,None,376.19672963002233,None,376.19672963002233,None,376.19672963002233,None,,,,,,,,,,,,,,106,2023-04-26_09h48.06.726,Main,2022.1.1,60.10699044597639,
negative,neutral,2,j,l,,,,,,,,,8,7,151,12,,,,,,,,,main,1,1,2,neutral,negative,j,j,1,0.5484311999753118,376.1998782999581,377.21335600002203,377.19678989995737,None,376.1998782999581,None,376.1998782999581,None,376.1998782999581,None,377.74674962998836,None,377.74674962998836,None,377.74674962998836,None,,,,,,,,,,,,,,106,2023-04-26_09h48.06.726,Main,2022.1.1,60.10699044597639,
neutral,positive,1,k,k,,,,,,,,,8,8,152,4,,,,,,,,,main,2,2,1,positive,neutral,k,k,1,0.631765199941583,377.74990279995836,378.7633411999559,378.74673500005156,None,377.74990279995836,None,377.74990279995836,None,377.74990279995836,None,379.37989432995676,None,379.37989432995676,None,379.37989432995676,None,,,,,,,,,,,,,,106,2023-04-26_09h48.06.726,Main,2022.1.1,60.10699044597639,
neutral,neutral,2,k,k,,,,,,,,,8,9,153,10,,,,,,,,,main,2,2,2,neutral,neutral,k,k,1,0.5320089000742882,379.382935600006,380.39663249999285,380.38002849998884,None,379.382935600006,None,379.382935600006,None,379.382935600006,None,380.9132657300448,None,380.9132657300448,None,380.9132657300448,None,,,,,,,,,,,,,,106,2023-04-26_09h48.06.726,Main,2022.1.1,60.10699044597639,
positive,neutral,1,l,j,,,,,,,,,8,10,154,8,,,,,,,,,main,1,1,1,neutral,positive,l,l,1,0.6127796999644488,380.9166819000384,381.93292399996426,381.9161724000005,None,380.9166819000384,None,380.9166819000384,None,380.9166819000384,None,382.5273690299597,None,382.5273690299597,None,382.5273690299597,None,,,,,,,,,,,,,,106,2023-04-26_09h48.06.726,Main,2022.1.1,60.10699044597639,
neutral,negative,1,k,k,,,,,,,,,8,11,155,7,,,,,,,,,main,1,1,1,negative,neutral,k,k,1,0.597389500006102,382.52864170004614,383.54404569999315,383.5274014000315,None,382.52864170004614,None,382.52864170004614,None,382.52864170004614,None,384.1273941300111,None,384.1273941300111,None,384.1273941300111,None,,,,,,,,,,,,,,106,2023-04-26_09h48.06.726,Main,2022.1.1,60.10699044597639,
positive,negative,1,l,j,,,,,,,,,8,12,156,5,,,,,,,,,main,2,2,1,negative,positive,l,l,1,0.7175233999732882,384.1309523000382,385.1464981000172,385.1298696999438,None,384.1309523000382,None,384.1309523000382,None,384.1309523000382,None,385.846482830029,None,385.846482830029,None,385.846482830029,None,,,,,,,,,,,,,,106,2023-04-26_09h48.06.726,Main,2022.1.1,60.10699044597639,
neutral,positive,2,k,k,,,,,,,,,8,13,157,13,,,,,,,,,main,2,2,2,positive,neutral,k,k,1,0.5625912999967113,385.8498613999691,386.86317739996593,386.84659329999704,None,385.8498613999691,None,385.8498613999691,None,385.8498613999691,None,387.41067763001195,None,387.41067763001195,None,387.41067763001195,None,,,,,,,,,,,,,,106,2023-04-26_09h48.06.726,Main,2022.1.1,60.10699044597639,
positive,negative,2,l,j,,,,,,,,,8,14,158,14,,,,,,,,,main,1,1,2,negative,positive,l,l,1,0.5493063000030816,387.416505399975,388.4297604999738,388.41317780001555,None,387.416505399975,None,387.416505399975,None,387.416505399975,None,388.96153133003975,None,388.96153133003975,None,388.96153133003975,None,,,,,,,,,,,,,,106,2023-04-26_09h48.06.726,Main,2022.1.1,60.10699044597639,
negative,negative,1,j,l,,,,,,,,,8,15,159,0,,,,,,,,,main,2,2,1,negative,negative,j,j,1,0.566538899904117,388.96784279996064,389.9797629000386,389.9631613000529,None,388.96784279996064,None,388.96784279996064,None,388.96784279996064,None,390.5297329300316,None,390.5297329300316,None,390.5297329300316,None,,,,,,,,,,,,,,106,2023-04-26_09h48.06.726,Main,2022.1.1,60.10699044597639,
positive,positive,1,l,j,,,,,,,,,8,16,160,2,,,,,,,,,main,1,1,1,positive,positive,l,l,1,0.6132698999717832,390.53313110000454,391.5441141000483,391.52977380005177,None,390.53313110000454,None,390.53313110000454,None,390.53313110000454,None,392.1438408299815,None,392.1438408299815,None,392.1438408299815,None,,,,,,,,,,,,,,106,2023-04-26_09h48.06.726,Main,2022.1.1,60.10699044597639,
neutral,negative,2,k,k,,,,,,,,,8,17,161,16,,,,,,,,,main,2,2,2,negative,neutral,k,k,1,0.5310080000199378,392.14460330002476,393.1438637999818,393.1438637999818,None,392.14460330002476,None,392.14460330002476,None,392.14460330002476,None,393.6771845299751,None,393.6771845299751,None,393.6771845299751,None,,,,,,,,,,,,,,106,2023-04-26_09h48.06.726,Main,2022.1.1,60.10699044597639,
neutral,positive,2,k,k,,,,,,,,,9,0,162,13,,,,,,,,,main,2,2,2,positive,neutral,k,k,1,0.5318128999788314,393.6777799000265,394.67718110000715,394.67718110000715,None,393.6777799000265,None,393.6777799000265,None,393.6777799000265,None,395.2104981299723,None,395.2104981299723,None,395.2104981299723,None,,,,,,,,,,,,,,106,2023-04-26_09h48.06.726,Main,2022.1.1,60.10699044597639,
negative,negative,2,j,l,,,,,,,,,9,1,163,9,,,,,,,,,main,1,1,2,negative,negative,j,l,0,0.4986588000319898,395.2139893999556,396.2130250999471,396.2130250999471,None,395.2139893999556,None,395.2139893999556,None,395.2139893999556,None,396.7130042000208,None,396.7130042000208,None,396.7130042000208,None,,,,,,,,,,,,,,106,2023-04-26_09h48.06.726,Main,2022.1.1,60.10699044597639,
negative,positive,1,j,l,,,,,,,,,9,2,164,6,,,,,,,,,main,1,1,1,positive,negative,j,j,1,0.7200467999791726,397.7111175999744,398.7129545999924,398.6963588000508,None,397.7111175999744,None,397.7111175999744,None,397.7111175999744,None,399.4295725299977,None,399.4295725299977,None,399.4295725299977,None,,,,,,,,,,,,,,106,2023-04-26_09h48.06.726,Main,2022.1.1,60.10699044597639,
positive,neutral,1,l,j,,,,,,,,,9,3,165,8,,,,,,,,,main,1,1,1,neutral,positive,l,k,0,0.4981495999963954,399.43293030001223,400.446209799964,400.42963609995786,None,399.43293030001223,None,399.43293030001223,None,399.43293030001223,None,400.9295654000016,None,400.9295654000016,None,400.9295654000016,None,,,,,,,,,,,,,,106,2023-04-26_09h48.06.726,Main,2022.1.1,60.10699044597639,
neutral,neutral,2,k,k,,,,,,,,,9,4,166,10,,,,,,,,,main,1,1,2,neutral,neutral,k,k,1,0.5710021000122651,401.92829850001726,402.9295110999374,402.9129018000094,None,401.92829850001726,None,401.92829850001726,None,401.92829850001726,None,403.49373312995306,None,403.49373312995306,None,403.49373312995306,None,,,,,,,,,,,,,,106,2023-04-26_09h48.06.726,Main,2022.1.1,60.10699044597639,
positive,negative,1,l,j,,,,,,,,,9,5,167,5,,,,,,,,,main,2,2,1,negative,positive,l,l,1,0.57791770005133,403.49752229999285,404.5102797000436,404.493603699957,None,403.49752229999285,None,403.49752229999285,None,403.49752229999285,None,405.07700082999656,None,405.07700082999656,None,405.07700082999656,None,,,,,,,,,,,,,,106,2023-04-26_09h48.06.726,Main,2022.1.1,60.10699044597639,
neutral,neutral,1,k,k,,,,,,,,,9,6,168,1,,,,,,,,,main,1,1,1,neutral,neutral,k,k,1,0.583835499943234,405.08054580003954,406.09610870003235,406.07948519999627,None,405.08054580003954,None,405.08054580003954,None,405.08054580003954,None,406.66278522999494,None,406.66278522999494,None,406.66278522999494,None,,,,,,,,,,,,,,106,2023-04-26_09h48.06.726,Main,2022.1.1,60.10699044597639,
negative,negative,1,j,l,,,,,,,,,9,7,169,0,,,,,,,,,main,2,2,1,negative,negative,j,j,1,0.5979410000145435,406.6668685999466,407.679479500046,407.6627864999464,None,406.6668685999466,None,406.6668685999466,None,406.6668685999466,None,408.2627584300004,None,408.2627584300004,None,408.2627584300004,None,,,,,,,,,,,,,,106,2023-04-26_09h48.06.726,Main,2022.1.1,60.10699044597639,
neutral,negative,2,k,k,,,,,,,,,9,8,170,16,,,,,,,,,main,2,2,2,negative,neutral,k,k,1,0.5462226000381634,408.2660090000136,409.27929960004985,409.26274220005143,None,408.2660090000136,None,408.2660090000136,None,408.2660090000136,None,409.8105791299837,None,409.8105791299837,None,409.8105791299837,None,,,,,,,,,,,,,,106,2023-04-26_09h48.06.726,Main,2022.1.1,60.10699044597639,
negative,neutral,2,j,l,,,,,,,,,9,9,171,12,,,,,,,,,main,1,1,2,neutral,negative,j,j,1,0.5491636999649927,409.81353699998,410.81278569996357,410.81278569996357,None,409.81353699998,None,409.81353699998,None,409.81353699998,None,411.36136252994186,None,411.36136252994186,None,411.36136252994186,None,,,,,,,,,,,,,,106,2023-04-26_09h48.06.726,Main,2022.1.1,60.10699044597639,
positive,negative,2,l,j,,,,,,,,,9,10,172,14,,,,,,,,,main,2,2,2,negative,positive,l,k,0,0.5233501000329852,411.3792967000045,412.3792873000493,412.36274510005023,None,411.3792967000045,None,411.3792967000045,None,411.3792967000045,None,412.88074669998605,None,412.88074669998605,None,412.88074669998605,None,,,,,,,,,,,,,,106,2023-04-26_09h48.06.726,Main,2022.1.1,60.10699044597639,
positive,positive,2,l,j,,,,,,,,,9,11,173,11,,,,,,,,,main,2,2,2,positive,positive,l,l,1,0.5699072000570595,413.893458000035,414.89345690002665,414.87677710002754,None,413.893458000035,None,413.893458000035,None,413.893458000035,None,415.4600699299714,None,415.4600699299714,None,415.4600699299714,None,,,,,,,,,,,,,,106,2023-04-26_09h48.06.726,Main,2022.1.1,60.10699044597639,
negative,positive,2,j,l,,,,,,,,,9,12,174,15,,,,,,,,,main,1,1,2,positive,negative,j,j,1,0.6148639000020921,415.46077070001047,416.46011200000066,416.46011200000066,None,415.46077070001047,None,415.46077070001047,None,415.46077070001047,None,417.0767293300247,None,417.0767293300247,None,417.0767293300247,None,,,,,,,,,,,,,,106,2023-04-26_09h48.06.726,Main,2022.1.1,60.10699044597639,
positive,positive,1,l,j,,,,,,,,,9,13,175,2,,,,,,,,,main,2,2,1,positive,positive,l,l,1,0.6843425000552088,417.0801801000489,418.07930159999523,418.07930159999523,None,417.0801801000489,None,417.0801801000489,None,417.0801801000489,None,418.76249102994336,None,418.76249102994336,None,418.76249102994336,None,,,,,,,,,,,,,,106,2023-04-26_09h48.06.726,Main,2022.1.1,60.10699044597639,
neutral,negative,1,k,k,,,,,,,,,9,14,176,7,,,,,,,,,main,1,1,1,negative,neutral,k,k,1,0.49625660001765937,418.76678649999667,419.77919220004696,419.7625908999471,None,418.76678649999667,None,418.76678649999667,None,418.76678649999667,None,420.26037182998846,None,420.26037182998846,None,420.26037182998846,None,,,,,,,,,,,,,,106,2023-04-26_09h48.06.726,Main,2022.1.1,60.10699044597639,
positive,neutral,2,l,j,,,,,,,,,9,15,177,17,,,,,,,,,main,1,1,2,neutral,positive,l,l,1,0.5497398000443354,420.2643783999374,421.2791640999494,421.2625644999789,None,420.2643783999374,None,420.2643783999374,None,420.2643783999374,None,421.81254503005187,None,421.81254503005187,None,421.81254503005187,None,,,,,,,,,,,,,,106,2023-04-26_09h48.06.726,Main,2022.1.1,60.10699044597639,
negative,neutral,1,j,l,,,,,,,,,9,16,178,3,,,,,,,,,main,2,2,1,neutral,negative,j,l,0,0.581630100030452,421.8157039999496,422.8291419999441,422.8126250000205,None,421.8157039999496,None,421.8157039999496,None,421.8157039999496,None,423.3957785000093,None,423.3957785000093,None,423.3957785000093,None,,,,,,,,,,,,,,106,2023-04-26_09h48.06.726,Main,2022.1.1,60.10699044597639,
neutral,positive,1,k,k,,,,,,,,,9,17,179,4,,,,,,,,,main,1,1,1,positive,neutral,k,k,1,0.6370108999544755,424.40988499997184,425.40987960004713,425.3932110000169,None,424.40988499997184,None,424.40988499997184,None,424.40988499997184,None,426.04316362997054,None,426.04316362997054,None,426.04316362997054,None,,,,,,,,,,,,,,106,2023-04-26_09h48.06.726,Main,2022.1.1,60.10699044597639,
neutral,neutral,1,k,k,,,,,,,,,10,0,180,1,,,,,,,,,main,1,1,1,neutral,neutral,k,k,1,0.5504027000861242,426.04334299999755,427.04578409995884,427.04578409995884,None,426.04334299999755,None,426.04334299999755,None,426.04334299999755,None,427.5957292299951,None,427.5957292299951,None,427.5957292299951,None,,,,,,,,,,,,,,106,2023-04-26_09h48.06.726,Main,2022.1.1,60.10699044597639,
negative,negative,1,j,l,,,,,,,,,10,1,181,0,,,,,,,,,main,2,2,1,negative,negative,j,j,1,0.6628284999169409,427.5984467000235,428.61229329998605,428.5957061999943,None,427.5984467000235,None,427.5984467000235,None,427.5984467000235,None,429.2598511299817,None,429.2598511299817,None,429.2598511299817,None,,,,,,,,,,,,,,106,2023-04-26_09h48.06.726,Main,2022.1.1,60.10699044597639,
negative,neutral,1,j,l,,,,,,,,,10,2,182,3,,,,,,,,,main,1,1,1,neutral,negative,j,j,1,0.5814609999069944,429.2660537000047,430.2789315000409,430.2623394000111,None,429.2660537000047,None,429.2660537000047,None,429.2660537000047,None,430.8431546299486,None,430.8431546299486,None,430.8431546299486,None,,,,,,,,,,,,,,106,2023-04-26_09h48.06.726,Main,2022.1.1,60.10699044597639,
negative,positive,1,j,l,,,,,,,,,10,3,183,6,,,,,,,,,main,1,1,1,positive,negative,j,j,1,0.5481928000226617,430.8500697000418,431.86230619996786,431.8456275999779,None,430.8500697000418,None,430.8500697000418,None,430.8500697000418,None,432.3934362300439,None,432.3934362300439,None,432.3934362300439,None,,,,,,,,,,,,,,106,2023-04-26_09h48.06.726,Main,2022.1.1,60.10699044597639,
neutral,positive,1,k,k,,,,,,,,,10,4,184,4,,,,,,,,,main,2,2,1,positive,neutral,k,k,1,0.6655596999917179,432.3969302000478,433.4122516999487,433.39564719994087,None,432.3969302000478,None,432.3969302000478,None,432.3969302000478,None,434.0596035300056,None,434.0596035300056,None,434.0596035300056,None,,,,,,,,,,,,,,106,2023-04-26_09h48.06.726,Main,2022.1.1,60.10699044597639,
positive,negative,1,l,j,,,,,,,,,10,5,185,5,,,,,,,,,main,2,2,1,negative,positive,l,l,1,0.6310868000146002,434.07642810000107,435.07634459994733,435.05967969994526,None,434.07642810000107,None,434.07642810000107,None,434.07642810000107,None,435.6929440299515,None,435.6929440299515,None,435.6929440299515,None,,,,,,,,,,,,,,106,2023-04-26_09h48.06.726,Main,2022.1.1,60.10699044597639,
neutral,positive,2,k,k,,,,,,,,,10,6,186,13,,,,,,,,,main,1,1,2,positive,neutral,k,k,1,0.5984384999610484,435.6929783000378,436.69302779994905,436.69302779994905,None,435.6929783000378,None,435.6929783000378,None,435.6929783000378,None,437.292972030025,None,437.292972030025,None,437.292972030025,None,,,,,,,,,,,,,,106,2023-04-26_09h48.06.726,Main,2022.1.1,60.10699044597639,
negative,positive,2,j,l,,,,,,,,,10,7,187,15,,,,,,,,,main,2,2,2,positive,negative,j,j,1,1.065443200059235,437.29359939997084,438.2930257000262,438.2930257000262,None,437.29359939997084,None,437.29359939997084,None,437.29359939997084,None,439.3599296299741,None,439.3599296299741,None,439.3599296299741,None,,,,,,,,,,,,,,106,2023-04-26_09h48.06.726,Main,2022.1.1,60.10699044597639,
neutral,neutral,2,k,k,,,,,,,,,10,8,188,10,,,,,,,,,main,1,1,2,neutral,neutral,k,k,1,0.5812378000700846,439.3634527999675,440.37873380002566,440.36216679995414,None,439.3634527999675,None,439.3634527999675,None,439.3634527999675,None,440.943042530003,None,440.943042530003,None,440.943042530003,None,,,,,,,,,,,,,,106,2023-04-26_09h48.06.726,Main,2022.1.1,60.10699044597639,
positive,neutral,1,l,j,,,,,,,,,10,9,189,8,,,,,,,,,main,2,2,1,neutral,positive,l,l,1,0.6178431001026183,440.9499568999745,441.9620610999409,441.94545340002514,None,440.9499568999745,None,440.9499568999745,None,440.9499568999745,None,442.5619631300448,None,442.5619631300448,None,442.5619631300448,None,,,,,,,,,,,,,,106,2023-04-26_09h48.06.726,Main,2022.1.1,60.10699044597639,
neutral,negative,2,k,k,,,,,,,,,10,10,190,16,,,,,,,,,main,2,2,2,negative,neutral,k,k,1,0.6464648999972269,442.5657410999993,443.57866220001597,443.5620960999513,None,442.5657410999993,None,442.5657410999993,None,442.5657410999993,None,444.2101022299845,None,444.2101022299845,None,444.2101022299845,None,,,,,,,,,,,,,,106,2023-04-26_09h48.06.726,Main,2022.1.1,60.10699044597639,
positive,positive,1,l,j,,,,,,,,,10,11,191,2,,,,,,,,,main,2,2,1,positive,positive,l,l,1,0.681133900070563,444.21631549997255,445.2286501999479,445.21204520005267,None,444.21631549997255,None,444.21631549997255,None,444.21631549997255,None,445.89270802997055,None,445.89270802997055,None,445.89270802997055,None,,,,,,,,,,,,,,106,2023-04-26_09h48.06.726,Main,2022.1.1,60.10699044597639,
positive,positive,2,l,j,,,,,,,,,10,12,192,11,,,,,,,,,main,1,1,2,positive,positive,l,l,1,0.7142905999207869,445.89367679995485,446.8927685000235,446.8927685000235,None,445.89367679995485,None,445.89367679995485,None,445.89367679995485,None,447.60943682994696,None,447.60943682994696,None,447.60943682994696,None,,,,,,,,,,,,,,106,2023-04-26_09h48.06.726,Main,2022.1.1,60.10699044597639,
positive,negative,2,l,j,,,,,,,,,10,13,193,14,,,,,,,,,main,2,2,2,negative,positive,l,l,1,0.5840581000084057,447.61372529994696,448.6286142000463,448.61197770002764,None,447.61372529994696,None,447.61372529994696,None,447.61372529994696,None,449.19274722996636,None,449.19274722996636,None,449.19274722996636,None,,,,,,,,,,,,,,106,2023-04-26_09h48.06.726,Main,2022.1.1,60.10699044597639,
neutral,negative,1,k,k,,,,,,,,,10,14,194,7,,,,,,,,,main,1,1,1,negative,neutral,k,k,1,0.6149431000230834,449.1998291000491,450.2118848999962,450.1952775999671,None,449.1998291000491,None,449.1998291000491,None,449.1998291000491,None,450.8118143299595,None,450.8118143299595,None,450.8118143299595,None,,,,,,,,,,,,,,106,2023-04-26_09h48.06.726,Main,2022.1.1,60.10699044597639,
negative,negative,2,j,l,,,,,,,,,10,15,195,9,,,,,,,,,main,2,2,2,negative,negative,j,j,1,0.5485490000573918,450.8152796999784,451.82854350004345,451.8119136999594,None,450.8152796999784,None,450.8152796999784,None,450.8152796999784,None,452.361761629954,None,452.361761629954,None,452.361761629954,None,,,,,,,,,,,,,,106,2023-04-26_09h48.06.726,Main,2022.1.1,60.10699044597639,
negative,neutral,2,j,l,,,,,,,,,10,16,196,12,,,,,,,,,main,2,2,2,neutral,negative,j,j,1,0.6818945000413805,452.364615199971,453.3784482999472,453.3618652999867,None,452.364615199971,None,452.364615199971,None,452.364615199971,None,454.04522313005293,None,454.04522313005293,None,454.04522313005293,None,,,,,,,,,,,,,,106,2023-04-26_09h48.06.726,Main,2022.1.1,60.10699044597639,
positive,neutral,2,l,j,,,,,,,,,10,17,197,17,,,,,,,,,main,1,1,2,neutral,positive,l,l,1,0.6830183001002297,454.04928979999386,455.0617997000227,455.04517870000564,None,454.04928979999386,None,454.04928979999386,None,454.04928979999386,None,455.7303621300031,None,455.7303621300031,None,455.7303621300031,None,,,,,,,,,,,,,,106,2023-04-26_09h48.06.726,Main,2022.1.1,60.10699044597639,
positive,neutral,2,l,j,,,,,,,,,11,0,198,17,,,,,,,,,main,1,1,2,neutral,positive,l,l,1,0.6271184999495745,455.72987769998144,456.7425153000513,456.7258476000279,None,455.72987769998144,None,455.72987769998144,None,455.72987769998144,None,457.3591480299598,None,457.3591480299598,None,457.3591480299598,None,,,,,,,,,,,,,,106,2023-04-26_09h48.06.726,Main,2022.1.1,60.10699044597639,
neutral,neutral,1,k,k,,,,,,,,,11,1,199,1,,,,,,,,,main,1,1,1,neutral,neutral,k,k,1,0.5817675999132916,457.35917900002096,458.3592447999399,458.3592447999399,None,457.35917900002096,None,457.35917900002096,None,457.35917900002096,None,458.9425583300414,None,458.9425583300414,None,458.9425583300414,None,,,,,,,,,,,,,,106,2023-04-26_09h48.06.726,Main,2022.1.1,60.10699044597639,
negative,negative,1,j,l,,,,,,,,,11,2,200,0,,,,,,,,,main,1,1,1,negative,negative,j,j,1,0.5845152999972925,458.9490307000233,459.96170189999975,459.9284458999755,None,458.9490307000233,None,458.9490307000233,None,458.9490307000233,None,460.52840762995186,None,460.52840762995186,None,460.52840762995186,None,,,,,,,,,,,,,,106,2023-04-26_09h48.06.726,Main,2022.1.1,60.10699044597639,
neutral,neutral,2,k,k,,,,,,,,,11,3,201,10,,,,,,,,,main,1,1,2,neutral,neutral,k,k,1,0.6817528000101447,460.53145989996847,461.54491139994934,461.52830659993924,None,460.53145989996847,None,460.53145989996847,None,460.53145989996847,None,462.21152823001614,None,462.21152823001614,None,462.21152823001614,None,,,,,,,,,,,,,,106,2023-04-26_09h48.06.726,Main,2022.1.1,60.10699044597639,
positive,positive,2,l,j,,,,,,,,,11,4,202,11,,,,,,,,,main,2,2,2,positive,positive,l,l,1,0.6149984000949189,462.21484979998786,463.2282911000075,463.2116627000505,None,462.21484979998786,None,462.21484979998786,None,462.21484979998786,None,463.8281890299637,None,463.8281890299637,None,463.8281890299637,None,,,,,,,,,,,,,,106,2023-04-26_09h48.06.726,Main,2022.1.1,60.10699044597639,
neutral,positive,2,k,k,,,,,,,,,11,5,203,13,,,,,,,,,main,2,2,2,positive,neutral,k,k,1,0.5319682999979705,463.8312644000398,464.84492089995183,464.8283302000491,None,463.8312644000398,None,463.8312644000398,None,463.8312644000398,None,465.36177652995104,None,465.36177652995104,None,465.36177652995104,None,,,,,,,,,,,,,,106,2023-04-26_09h48.06.726,Main,2022.1.1,60.10699044597639,
positive,positive,1,l,j,,,,,,,,,11,6,204,2,,,,,,,,,main,1,1,1,positive,positive,l,l,1,0.9292439999990165,465.3759437999688,466.37801720004063,466.3592817999888,None,465.3759437999688,None,465.3759437999688,None,465.3759437999688,None,467.2925767300418,None,467.2925767300418,None,467.2925767300418,None,,,,,,,,,,,,,,106,2023-04-26_09h48.06.726,Main,2022.1.1,60.10699044597639,
negative,neutral,1,j,l,,,,,,,,,11,7,205,3,,,,,,,,,main,2,2,1,neutral,negative,j,j,1,0.5819745999760926,467.29558459995314,468.3092418999877,468.29470620001666,None,467.29558459995314,None,467.29558459995314,None,467.29558459995314,None,468.8758821300231,None,468.8758821300231,None,468.8758821300231,None,,,,,,,,,,,,,,106,2023-04-26_09h48.06.726,Main,2022.1.1,60.10699044597639,
neutral,positive,1,k,k,,,,,,,,,11,8,206,4,,,,,,,,,main,1,1,1,positive,neutral,k,k,1,0.6813876000232995,468.87942100001965,469.8945995999966,469.8758782000514,None,468.87942100001965,None,468.87942100001965,None,468.87942100001965,None,470.5592042299919,None,470.5592042299919,None,470.5592042299919,None,,,,,,,,,,,,,,106,2023-04-26_09h48.06.726,Main,2022.1.1,60.10699044597639,
negative,positive,1,j,l,,,,,,,,,11,9,207,6,,,,,,,,,main,1,1,1,positive,negative,j,j,1,1.1005703000118956,470.5631972999545,471.5779330000514,471.5592122999951,None,470.5631972999545,None,470.5631972999545,None,470.5631972999545,None,472.6612218299648,None,472.6612218299648,None,472.6612218299648,None,,,,,,,,,,,,,,106,2023-04-26_09h48.06.726,Main,2022.1.1,60.10699044597639,
positive,negative,2,l,j,,,,,,,,,11,10,208,14,,,,,,,,,main,1,1,2,negative,positive,l,l,1,0.5630926999729127,472.66396769997664,473.6779219999444,473.65918820002116,None,472.66396769997664,None,472.66396769997664,None,472.66396769997664,None,474.22580162996894,None,474.22580162996894,None,474.22580162996894,None,,,,,,,,,,,,,,106,2023-04-26_09h48.06.726,Main,2022.1.1,60.10699044597639,
negative,neutral,2,j,l,,,,,,,,,11,11,209,12,,,,,,,,,main,2,2,2,neutral,negative,j,j,1,0.6151329999556765,474.2290090000024,475.24456170003396,475.22791939997114,None,474.2290090000024,None,474.2290090000024,None,474.2290090000024,None,475.8424630300375,None,475.8424630300375,None,475.8424630300375,None,,,,,,,,,,,,,,106,2023-04-26_09h48.06.726,Main,2022.1.1,60.10699044597639,
positive,neutral,1,l,j,,,,,,,,,11,12,210,8,,,,,,,,,main,2,2,1,neutral,positive,l,l,1,0.765379499993287,475.8458740999922,476.86121230002027,476.84465929993894,None,475.8458740999922,None,475.8458740999922,None,475.8458740999922,None,477.6090924300021,None,477.6090924300021,None,477.6090924300021,None,,,,,,,,,,,,,,106,2023-04-26_09h48.06.726,Main,2022.1.1,60.10699044597639,
neutral,negative,1,k,k,,,,,,,,,11,13,211,7,,,,,,,,,main,2,2,1,negative,neutral,k,k,1,0.5815607000840828,477.61306999996305,478.6279537000228,478.6114133000374,None,477.61306999996305,None,477.61306999996305,None,477.61306999996305,None,479.1923973299796,None,479.1923973299796,None,479.1923973299796,None,,,,,,,,,,,,,,106,2023-04-26_09h48.06.726,Main,2022.1.1,60.10699044597639,
negative,positive,2,j,l,,,,,,,,,11,14,212,15,,,,,,,,,main,2,2,2,positive,negative,j,j,1,0.5841632999945432,479.20910350000486,480.21111639996525,480.19451109995134,None,479.20910350000486,None,479.20910350000486,None,479.20910350000486,None,480.77805033002517,None,480.77805033002517,None,480.77805033002517,None,,,,,,,,,,,,,,106,2023-04-26_09h48.06.726,Main,2022.1.1,60.10699044597639,
neutral,negative,2,k,k,,,,,,,,,11,15,213,16,,,,,,,,,main,2,2,2,negative,neutral,k,l,0,0.5124818999320269,480.79220479994547,481.7920495000435,481.7754002000438,None,480.79220479994547,None,480.79220479994547,None,480.79220479994547,None,482.29204390000086,None,482.29204390000086,None,482.29204390000086,None,,,,,,,,,,,,,,106,2023-04-26_09h48.06.726,Main,2022.1.1,60.10699044597639,
positive,negative,1,l,j,,,,,,,,,11,16,214,5,,,,,,,,,main,2,2,1,negative,positive,l,l,1,0.6037550000473857,483.29210910003167,484.29444540000986,484.2778718000045,None,483.29210910003167,None,483.29210910003167,None,483.29210910003167,None,484.89238802997863,None,484.89238802997863,None,484.89238802997863,None,,,,,,,,,,,,,,106,2023-04-26_09h48.06.726,Main,2022.1.1,60.10699044597639,
negative,negative,2,j,l,,,,,,,,,11,17,215,9,,,,,,,,,main,2,2,2,negative,negative,j,j,1,0.6629794000182301,484.89717270003166,485.9112064000219,485.89455960004125,None,484.89717270003166,None,484.89717270003166,None,484.89717270003166,None,486.55866462995766,None,486.55866462995766,None,486.55866462995766,None,,,,,,,,,,,,,,106,2023-04-26_09h48.06.726,Main,2022.1.1,60.10699044597639,
negative,neutral,2,j,l,,,,,,,,,12,0,216,12,,,,,,,,,main,1,1,2,neutral,negative,j,j,1,0.5820986999897286,486.5643775999779,487.577802099986,487.5444830999477,None,486.5643775999779,None,486.5643775999779,None,486.5643775999779,None,488.1423508300446,None,488.1423508300446,None,488.1423508300446,None,,,,,,,,,,,,,,106,2023-04-26_09h48.06.726,Main,2022.1.1,60.10699044597639,
negative,positive,1,j,l,,,,,,,,,12,1,217,6,,,,,,,,,main,1,1,1,positive,negative,j,j,1,0.5672345999628305,488.1457644000184,489.16109349997714,489.1444874999579,None,488.1457644000184,None,488.1457644000184,None,488.1457644000184,None,489.7110245300224,None,489.7110245300224,None,489.7110245300224,None,,,,,,,,,,,,,,106,2023-04-26_09h48.06.726,Main,2022.1.1,60.10699044597639,
positive,negative,2,l,j,,,,,,,,,12,2,218,14,,,,,,,,,main,2,2,2,negative,positive,l,l,1,0.5457374000689015,489.71412639995106,490.7247894000029,490.70748959993944,None,489.71412639995106,None,489.71412639995106,None,489.71412639995106,None,491.2584763299907,None,491.2584763299907,None,491.2584763299907,None,,,,,,,,,,,,,,106,2023-04-26_09h48.06.726,Main,2022.1.1,60.10699044597639,
negative,negative,2,j,l,,,,,,,,,12,3,219,9,,,,,,,,,main,1,1,2,negative,negative,j,j,1,0.6653740999754518,491.25862139998935,492.2584991999902,492.2584991999902,None,491.25862139998935,None,491.25862139998935,None,491.25862139998935,None,492.92517742994244,None,492.92517742994244,None,492.92517742994244,None,,,,,,,,,,,,,,106,2023-04-26_09h48.06.726,Main,2022.1.1,60.10699044597639,
neutral,positive,1,k,k,,,,,,,,,12,4,220,4,,,,,,,,,main,1,1,1,positive,neutral,k,k,1,0.6320436999667436,492.928460599971,493.9277021000162,493.9277021000162,None,492.928460599971,None,492.928460599971,None,492.928460599971,None,494.5588454300538,None,494.5588454300538,None,494.5588454300538,None,,,,,,,,,,,,,,106,2023-04-26_09h48.06.726,Main,2022.1.1,60.10699044597639,
positive,neutral,2,l,j,,,,,,,,,12,5,221,17,,,,,,,,,main,2,2,2,neutral,positive,l,l,1,0.9324990999884903,494.56253009999637,495.57763610000256,495.5610601999797,None,494.56253009999637,None,494.56253009999637,None,494.56253009999637,None,496.49206283004025,None,496.49206283004025,None,496.49206283004025,None,,,,,,,,,,,,,,106,2023-04-26_09h48.06.726,Main,2022.1.1,60.10699044597639,
negative,negative,1,j,l,,,,,,,,,12,6,222,0,,,,,,,,,main,2,2,1,negative,negative,j,j,1,0.6498852999648079,496.4990600999445,497.51093230000697,497.49430170003325,None,496.4990600999445,None,496.4990600999445,None,496.4990600999445,None,498.14419262998274,None,498.14419262998274,None,498.14419262998274,None,,,,,,,,,,,,,,106,2023-04-26_09h48.06.726,Main,2022.1.1,60.10699044597639,
neutral,neutral,2,k,k,,,,,,,,,12,7,223,10,,,,,,,,,main,1,1,2,neutral,neutral,k,k,1,0.5307433999842033,498.14766889996827,499.16083449998405,499.1442893999629,None,498.14766889996827,None,498.14766889996827,None,498.14766889996827,None,499.6775058299769,None,499.6775058299769,None,499.6775058299769,None,,,,,,,,,,,,,,106,2023-04-26_09h48.06.726,Main,2022.1.1,60.10699044597639,
