target,distractor,set,ans1,ans2,rep_loop2.thisRepN,rep_loop2.thisTrialN,rep_loop2.thisN,rep_loop2.thisIndex,flanker_prac_loop.thisRepN,flanker_prac_loop.thisTrialN,flanker_prac_loop.thisN,flanker_prac_loop.thisIndex,flanker_main_loop.thisRepN,flanker_main_loop.thisTrialN,flanker_main_loop.thisN,flanker_main_loop.thisIndex,fl_inst_resp.keys,fl_inst_resp.rt,sound_1.started,sound_1.stopped,image_4.started,image_4.stopped,back_2.started,back_2.stopped,main_prac,fl_cold,fl_colt,fl_set,fl_dcond,fl_tcond,fl_ans,fl_res,fl_corr,fl_rt,fix_fl.started,fix_fl.stopped,targ.started,targ.stopped,j_button.started,j_button.stopped,k_button.started,k_button.stopped,l_button.started,l_button.stopped,j_button2.started,j_button2.stopped,k_button2.started,k_button2.stopped,l_button2.started,l_button2.stopped,mainback.started,mainback.stopped,key_resp.keys,key_resp.rt,mouse_6.x,mouse_6.y,mouse_6.leftButton,mouse_6.midButton,mouse_6.rightButton,mouse_6.started,mouse_6.stopped,text_2.started,text_2.stopped,id*,date,expName,psychopyVersion,frameRate,
,,,,,0,0,0,0,,,,,,,,,space,10.781815900001675,19.252709440000764,None,30.052350999998453,None,,,,,,,,,,,,,,,,,,,,,,,,,,,,,,,,,,,,,,,,,,107,2023-04-17_13h31.22.334,Main,2022.1.1,60.025739038101115,
positive,positive,2,l,j,,,,,0,0,0,11,,,,,,,,,,,36.56645019999996,None,prac,2,2,2,positive,positive,j,j,1,2.00298450000264,38.5722042999987,39.58552729999792,39.56891939999332,None,38.5722042999987,None,38.5722042999987,None,38.5722042999987,None,41.57278129999759,None,41.57278129999759,None,41.57278129999759,None,,,,,,,,,,,,,,107,2023-04-17_13h31.22.334,Main,2022.1.1,60.025739038101115,
positive,neutral,2,l,j,,,,,0,1,1,17,,,,,,,,,,,,,prac,2,2,2,neutral,positive,j,j,1,0.8680377999990014,42.58425219999481,43.58551169999555,43.5689321999962,None,42.58425219999481,None,42.58425219999481,None,42.58425219999481,None,44.450061539997115,None,44.450061539997115,None,44.450061539997115,None,,,,,,,,,,,,,,107,2023-04-17_13h31.22.334,Main,2022.1.1,60.025739038101115,
neutral,negative,1,k,k,,,,,0,2,2,7,,,,,,,,,,,,,prac,1,1,1,negative,neutral,k,k,1,0.8647931000014069,44.4560738999935,45.468756700000085,45.452165899994725,None,44.4560738999935,None,44.4560738999935,None,44.4560738999935,None,46.316471740001,None,46.316471740001,None,46.316471740001,None,,,,,,,,,,,,,,107,2023-04-17_13h31.22.334,Main,2022.1.1,60.025739038101115,
negative,negative,2,j,l,,,,,0,3,3,9,,,,,,,,,,,,,prac,1,1,2,negative,negative,l,l,1,0.815354300000763,46.32229029999871,47.332857800000056,47.316210999997566,None,46.32229029999871,None,46.32229029999871,None,46.32229029999871,None,48.132870240000194,None,48.132870240000194,None,48.132870240000194,None,,,,,,,,,,,,,,107,2023-04-17_13h31.22.334,Main,2022.1.1,60.025739038101115,
neutral,negative,2,k,k,,,,,0,4,4,16,,,,,,,,,,,,,prac,1,1,2,negative,neutral,k,k,1,0.8159403999961796,48.132860699995945,49.13293829999748,49.13293829999748,None,48.132860699995945,None,48.132860699995945,None,48.132860699995945,None,49.94997343999567,None,49.94997343999567,None,49.94997343999567,None,,,,,,,,,,,,,,107,2023-04-17_13h31.22.334,Main,2022.1.1,60.025739038101115,
neutral,positive,1,k,k,,,,,0,5,5,4,,,,,,,,,,,,,prac,2,2,1,positive,neutral,k,k,1,0.7654765999977826,49.9556020999953,50.96860999999626,50.952013199996145,None,49.9556020999953,None,49.9556020999953,None,49.9556020999953,None,51.71657713999739,None,51.71657713999739,None,51.71657713999739,None,,,,,,,,,,,,,,107,2023-04-17_13h31.22.334,Main,2022.1.1,60.025739038101115,
neutral,neutral,1,k,k,,,,,0,6,6,1,,,,,,,,,,,,,prac,2,2,1,neutral,neutral,k,k,1,0.6663081000006059,51.72215989999677,52.73532989999512,52.71875039999577,None,51.72215989999677,None,51.72215989999677,None,51.72215989999677,None,53.3832088399955,None,53.3832088399955,None,53.3832088399955,None,,,,,,,,,,,,,,107,2023-04-17_13h31.22.334,Main,2022.1.1,60.025739038101115,
positive,neutral,1,l,j,,,,,0,7,7,8,,,,,,,,,,,,,prac,2,2,1,neutral,positive,j,j,1,0.6642551000040839,53.38921289999416,54.401970099999744,54.38534989999607,None,53.38921289999416,None,53.38921289999416,None,53.38921289999416,None,55.04992863999505,None,55.04992863999505,None,55.04992863999505,None,,,,,,,,,,,,,,107,2023-04-17_13h31.22.334,Main,2022.1.1,60.025739038101115,
neutral,neutral,2,k,k,,,,,0,8,8,10,,,,,,,,,,,,,prac,2,2,2,neutral,neutral,k,k,1,0.7826531000027899,55.05522399999609,56.065198500000406,56.04909119999502,None,55.05522399999609,None,55.05522399999609,None,55.05522399999609,None,56.832689839998785,None,56.832689839998785,None,56.832689839998785,None,,,,,,,,,,,,,,107,2023-04-17_13h31.22.334,Main,2022.1.1,60.025739038101115,
positive,positive,1,l,j,,,,,0,9,9,2,,,,,,,,,,,,,prac,2,2,1,positive,positive,j,j,1,0.7146250000005239,56.84946339999442,57.84935869999754,57.83270409999386,None,56.84946339999442,None,56.84946339999442,None,56.84946339999442,None,58.54943573999626,None,58.54943573999626,None,58.54943573999626,None,,,,,,,,,,,,,,107,2023-04-17_13h31.22.334,Main,2022.1.1,60.025739038101115,
negative,neutral,1,j,l,,,,,0,10,10,3,,,,,,,,,,,,,prac,1,1,1,neutral,negative,l,l,1,0.7835078999996767,58.555930899994564,59.56850489999488,59.5519015999962,None,58.555930899994564,None,58.555930899994564,None,58.555930899994564,None,60.335168539998996,None,60.335168539998996,None,60.335168539998996,None,,,,,,,,,,,,,,107,2023-04-17_13h31.22.334,Main,2022.1.1,60.025739038101115,
negative,positive,2,j,l,,,,,0,11,11,15,,,,,,,,,,,,,prac,2,2,2,positive,negative,l,l,1,0.8468748000013875,60.339134099995135,61.35180579999724,61.33518329999788,None,60.339134099995135,None,60.339134099995135,None,60.339134099995135,None,62.183023439998216,None,62.183023439998216,None,62.183023439998216,None,,,,,,,,,,,,,,107,2023-04-17_13h31.22.334,Main,2022.1.1,60.025739038101115,
negative,positive,1,j,l,,,,,0,12,12,6,,,,,,,,,,,,,prac,2,2,1,positive,negative,l,l,1,0.6485861000037403,62.18861509999988,63.20178139999916,63.18517409999913,None,62.18861509999988,None,62.18861509999988,None,62.18861509999988,None,63.8327192399971,None,63.8327192399971,None,63.8327192399971,None,,,,,,,,,,,,,,107,2023-04-17_13h31.22.334,Main,2022.1.1,60.025739038101115,
negative,negative,1,j,l,,,,,0,13,13,0,,,,,,,,,,,,,prac,2,2,1,negative,negative,l,l,1,1.315494900001795,63.83927499999845,64.8517181999996,64.83512630000041,None,63.83927499999845,None,63.83927499999845,None,63.83927499999845,None,66.14961433999414,None,66.14961433999414,None,66.14961433999414,None,,,,,,,,,,,,,,107,2023-04-17_13h31.22.334,Main,2022.1.1,60.025739038101115,
positive,negative,1,l,j,,,,,0,14,14,5,,,,,,,,,,,,,prac,2,2,1,negative,positive,j,j,1,0.7983592000018689,66.16843259999587,67.1824717999989,67.14915069999552,None,66.16843259999587,None,66.16843259999587,None,66.16843259999587,None,67.94914664000098,None,67.94914664000098,None,67.94914664000098,None,,,,,,,,,,,,,,107,2023-04-17_13h31.22.334,Main,2022.1.1,60.025739038101115,
neutral,positive,2,k,k,,,,,0,15,15,13,,,,,,,,,,,,,prac,2,2,2,positive,neutral,k,k,1,0.7843915999983437,67.9491224999947,68.9516999999978,68.9516999999978,None,67.9491224999947,None,67.9491224999947,None,67.9491224999947,None,69.73493603999813,None,69.73493603999813,None,69.73493603999813,None,,,,,,,,,,,,,,107,2023-04-17_13h31.22.334,Main,2022.1.1,60.025739038101115,
positive,negative,2,l,j,,,,,0,16,16,14,,,,,,,,,,,,,prac,1,1,2,negative,positive,j,j,1,0.7467569000000367,69.73773579999397,70.75158839999494,70.73503399999754,None,69.73773579999397,None,69.73773579999397,None,69.73773579999397,None,71.48292903999535,None,71.48292903999535,None,71.48292903999535,None,,,,,,,,,,,,,,107,2023-04-17_13h31.22.334,Main,2022.1.1,60.025739038101115,
negative,neutral,2,j,l,,,,,0,17,17,12,,,,,,,,,,,,,prac,1,1,2,neutral,negative,l,l,1,0.8155480999994325,71.4882365999947,72.50160589999723,72.46836189999885,None,71.4882365999947,None,71.4882365999947,None,71.4882365999947,None,73.29955053999728,None,73.29955053999728,None,73.29955053999728,None,,,,,,,,,,,,,,107,2023-04-17_13h31.22.334,Main,2022.1.1,60.025739038101115,
negative,positive,2,j,l,,,,,1,0,18,15,,,,,,,,,,,,,prac,1,1,2,positive,negative,l,l,1,0.7050396000049659,73.30490429999918,74.31823759999679,74.30163339999854,None,73.30490429999918,None,73.30490429999918,None,73.30490429999918,None,75.00171883999573,None,75.00171883999573,None,75.00171883999573,None,,,,,,,,,,,,,,107,2023-04-17_13h31.22.334,Main,2022.1.1,60.025739038101115,
positive,neutral,1,l,j,,,,,1,1,19,8,,,,,,,,,,,,,prac,1,1,1,neutral,positive,j,j,1,0.7586033999978099,75.00868999999511,76.0182341999971,76.00164930000028,None,75.00868999999511,None,75.00868999999511,None,75.00868999999511,None,76.76564993999781,None,76.76564993999781,None,76.76564993999781,None,,,,,,,,,,,,,,107,2023-04-17_13h31.22.334,Main,2022.1.1,60.025739038101115,
negative,positive,1,j,l,,,,,1,2,20,6,,,,,,,,,,,,,prac,1,1,1,positive,negative,l,l,1,0.882052199995087,76.78237839999929,77.7822995999959,77.76564030000009,None,76.78237839999929,None,76.78237839999929,None,76.78237839999929,None,78.64903573999763,None,78.64903573999763,None,78.64903573999763,None,,,,,,,,,,,,,,107,2023-04-17_13h31.22.334,Main,2022.1.1,60.025739038101115,
positive,positive,1,l,j,,,,,1,3,21,2,,,,,,,,,,,,,prac,2,2,1,positive,positive,j,j,1,0.8321699000007357,78.65485459999763,79.66806530000031,79.65149179999571,None,78.65485459999763,None,78.65485459999763,None,78.65485459999763,None,80.48268523999431,None,80.48268523999431,None,80.48268523999431,None,,,,,,,,,,,,,,107,2023-04-17_13h31.22.334,Main,2022.1.1,60.025739038101115,
neutral,positive,1,k,k,,,,,1,4,22,4,,,,,,,,,,,,,prac,2,2,1,positive,neutral,k,k,1,0.7348337000003085,80.4886314999967,81.50142439999763,81.46812990000035,None,80.4886314999967,None,80.4886314999967,None,80.4886314999967,None,82.21594533999595,None,82.21594533999595,None,82.21594533999595,None,,,,,,,,,,,,,,107,2023-04-17_13h31.22.334,Main,2022.1.1,60.025739038101115,
negative,negative,1,j,l,,,,,1,5,23,0,,,,,,,,,,,,,prac,1,1,1,negative,negative,l,l,1,0.7459205999984988,82.222646299997,83.23472139999649,83.21802139999636,None,82.222646299997,None,82.222646299997,None,82.222646299997,None,83.96559963999752,None,83.96559963999752,None,83.96559963999752,None,,,,,,,,,,,,,,107,2023-04-17_13h31.22.334,Main,2022.1.1,60.025739038101115,
positive,negative,2,l,j,,,,,1,6,24,14,,,,,,,,,,,,,prac,2,2,2,negative,positive,j,j,1,0.8145877999995719,83.9720304999937,84.98470149999775,84.96802219999518,None,83.9720304999937,None,83.9720304999937,None,83.9720304999937,None,85.7825909399995,None,85.7825909399995,None,85.7825909399995,None,,,,,,,,,,,,,,107,2023-04-17_13h31.22.334,Main,2022.1.1,60.025739038101115,
negative,neutral,1,j,l,,,,,1,7,25,3,,,,,,,,,,,,,prac,1,1,1,neutral,negative,l,l,1,0.94862760000251,85.7879896999948,86.80426259999513,86.76564289999806,None,85.7879896999948,None,85.7879896999948,None,85.7879896999948,None,87.73213173999974,None,87.73213173999974,None,87.73213173999974,None,,,,,,,,,,,,,,107,2023-04-17_13h31.22.334,Main,2022.1.1,60.025739038101115,
neutral,neutral,2,k,k,,,,,1,8,26,10,,,,,,,,,,,,,prac,2,2,2,neutral,neutral,k,k,1,0.9319052999999258,87.73224239999399,88.73209199999837,88.73209199999837,None,87.73224239999399,None,87.73224239999399,None,87.73224239999399,None,89.66549463999544,None,89.66549463999544,None,89.66549463999544,None,,,,,,,,,,,,,,107,2023-04-17_13h31.22.334,Main,2022.1.1,60.025739038101115,
neutral,neutral,1,k,k,,,,,1,9,27,1,,,,,,,,,,,,,prac,2,2,1,neutral,neutral,k,k,1,0.7987586000017473,89.67236689999845,90.68451849999838,90.66795839999395,None,89.67236689999845,None,89.67236689999845,None,89.67236689999845,None,91.46579273999814,None,91.46579273999814,None,91.46579273999814,None,,,,,,,,,,,,,,107,2023-04-17_13h31.22.334,Main,2022.1.1,60.025739038101115,
positive,neutral,2,l,j,,,,,1,10,28,17,,,,,,,,,,,,,prac,2,2,2,neutral,positive,j,j,1,0.8654249999963213,91.47102989999985,92.48453270000027,92.45128089999344,None,91.47102989999985,None,91.47102989999985,None,91.47102989999985,None,93.33209253999811,None,93.33209253999811,None,93.33209253999811,None,,,,,,,,,,,,,,107,2023-04-17_13h31.22.334,Main,2022.1.1,60.025739038101115,
neutral,negative,2,k,k,,,,,1,11,29,16,,,,,,,,,,,,,prac,1,1,2,negative,neutral,k,k,1,0.7175677999985055,93.33554770000046,94.35110239999631,94.33451729999797,None,93.33554770000046,None,93.33554770000046,None,93.33554770000046,None,95.05122263999655,None,95.05122263999655,None,95.05122263999655,None,,,,,,,,,,,,,,107,2023-04-17_13h31.22.334,Main,2022.1.1,60.025739038101115,
neutral,positive,2,k,k,,,,,1,12,30,13,,,,,,,,,,,,,prac,2,2,2,positive,neutral,k,k,1,0.6821806999942055,95.0551306999987,96.06780479999725,96.05117719999544,None,95.0551306999987,None,95.0551306999987,None,95.0551306999987,None,96.73451673999952,None,96.73451673999952,None,96.73451673999952,None,,,,,,,,,,,,,,107,2023-04-17_13h31.22.334,Main,2022.1.1,60.025739038101115,
positive,negative,1,l,j,,,,,1,13,31,5,,,,,,,,,,,,,prac,2,2,1,negative,positive,j,j,1,0.8460636000017985,96.73758280000038,97.74857489999704,97.73189640000055,None,96.73758280000038,None,96.73758280000038,None,96.73758280000038,None,98.58192493999522,None,98.58192493999522,None,98.58192493999522,None,,,,,,,,,,,,,,107,2023-04-17_13h31.22.334,Main,2022.1.1,60.025739038101115,
negative,neutral,2,j,l,,,,,1,14,32,12,,,,,,,,,,,,,prac,1,1,2,neutral,negative,l,l,1,0.8485916999998153,98.58328569999867,99.59857829999964,99.5819166999936,None,98.58328569999867,None,98.58328569999867,None,98.58328569999867,None,100.43191213999816,None,100.43191213999816,None,100.43191213999816,None,,,,,,,,,,,,,,107,2023-04-17_13h31.22.334,Main,2022.1.1,60.025739038101115,
negative,negative,2,j,l,,,,,1,15,33,9,,,,,,,,,,,,,prac,2,2,2,negative,negative,l,l,1,0.7179384999981266,100.43196569999418,101.43189309999434,101.43189309999434,None,100.43196569999418,None,100.43196569999418,None,100.43196569999418,None,102.15120573999738,None,102.15120573999738,None,102.15120573999738,None,,,,,,,,,,,,,,107,2023-04-17_13h31.22.334,Main,2022.1.1,60.025739038101115,
neutral,negative,1,k,k,,,,,1,16,34,7,,,,,,,,,,,,,prac,2,2,1,negative,neutral,k,k,1,0.8152533999964362,102.15495069999452,103.16766469999857,103.15111259999685,None,102.15495069999452,None,102.15495069999452,None,102.15495069999452,None,103.96761123999894,None,103.96761123999894,None,103.96761123999894,None,,,,,,,,,,,,,,107,2023-04-17_13h31.22.334,Main,2022.1.1,60.025739038101115,
positive,positive,2,l,j,,,,,1,17,35,11,,,,,,,,,,,,,prac,1,1,2,positive,positive,j,j,1,0.7817864999960875,103.97174489999452,104.98423189999448,104.96765400000004,None,103.97174489999452,None,103.97174489999452,None,103.97174489999452,None,105.75086463999614,None,105.75086463999614,None,105.75086463999614,None,,,,,,,,,,,,,,107,2023-04-17_13h31.22.334,Main,2022.1.1,60.025739038101115,
,,,,,,,,,,,,,,,,,,,,,,,,,,,,,,,,,,,,,,,,,,,,,,,,,,,105.74883589999808,None,space,8.942386600007012,,,,,,,,,,107,2023-04-17_13h31.22.334,Main,2022.1.1,60.025739038101115,
,,,,,,,,,,,,,,,,,,,,,,,,,,,,,,,,,,,,,,,,,,,,,,,,,,,,,,,0.6240741,-0.13333334,0,0,0,0.011389840001356788,None,,,107,2023-04-17_13h31.22.334,Main,2022.1.1,60.025739038101115,
positive,neutral,1,l,j,,,,,,,,,0,0,0,8,,,,,,,114.71743579999747,None,main,2,2,1,neutral,positive,j,j,1,0.7278029000008246,116.72216729999491,117.73399299999437,117.71739069999603,None,116.72216729999491,None,116.72216729999491,None,116.72216729999491,None,118.44815503999561,None,118.44815503999561,None,118.44815503999561,None,,,,,,,,,,,,,,107,2023-04-17_13h31.22.334,Main,2022.1.1,60.025739038101115,
negative,neutral,2,j,l,,,,,,,,,0,1,1,12,,,,,,,,,main,1,1,2,neutral,negative,l,l,1,1.3467262999984086,118.45016239999677,119.4648326999959,119.44816489999357,None,118.45016239999677,None,118.45016239999677,None,118.45016239999677,None,120.79818883999687,None,120.79818883999687,None,120.79818883999687,None,,,,,,,,,,,,,,107,2023-04-17_13h31.22.334,Main,2022.1.1,60.025739038101115,
neutral,negative,1,k,k,,,,,,,,,0,2,2,7,,,,,,,,,main,2,2,1,negative,neutral,k,k,1,0.7365795000005164,120.8004820999995,121.81482580000011,121.79817189999449,None,120.8004820999995,None,120.8004820999995,None,120.8004820999995,None,122.53639633999555,None,122.53639633999555,None,122.53639633999555,None,,,,,,,,,,,,,,107,2023-04-17_13h31.22.334,Main,2022.1.1,60.025739038101115,
neutral,neutral,1,k,k,,,,,,,,,0,3,3,1,,,,,,,,,main,1,1,1,neutral,neutral,k,k,1,0.6605334000050789,122.5392331999974,123.55055239999638,123.53396979999525,None,122.5392331999974,None,122.5392331999974,None,122.5392331999974,None,124.19852223999769,None,124.19852223999769,None,124.19852223999769,None,,,,,,,,,,,,,,107,2023-04-17_13h31.22.334,Main,2022.1.1,60.025739038101115,
positive,neutral,2,l,j,,,,,,,,,0,4,4,17,,,,,,,,,main,2,2,2,neutral,positive,j,j,1,0.7341697000010754,124.204135699998,125.21713629999431,125.19825560000027,None,124.204135699998,None,124.204135699998,None,124.204135699998,None,125.93402393999858,None,125.93402393999858,None,125.93402393999858,None,,,,,,,,,,,,,,107,2023-04-17_13h31.22.334,Main,2022.1.1,60.025739038101115,
negative,neutral,1,j,l,,,,,,,,,0,5,5,3,,,,,,,,,main,1,1,1,neutral,negative,l,l,1,0.6797743000061018,125.93798909999896,126.95053569999436,126.93396070000017,None,125.93798909999896,None,125.93798909999896,None,125.93798909999896,None,127.6151350399974,None,127.6151350399974,None,127.6151350399974,None,,,,,,,,,,,,,,107,2023-04-17_13h31.22.334,Main,2022.1.1,60.025739038101115,
neutral,neutral,2,k,k,,,,,,,,,0,6,6,10,,,,,,,,,main,1,1,2,neutral,neutral,k,k,1,0.7139674999998533,127.62127929999406,128.63379089999944,128.61716499999602,None,127.62127929999406,None,127.62127929999406,None,127.62127929999406,None,129.33171503999765,None,129.33171503999765,None,129.33171503999765,None,,,,,,,,,,,,,,107,2023-04-17_13h31.22.334,Main,2022.1.1,60.025739038101115,
neutral,negative,2,k,k,,,,,,,,,0,7,7,16,,,,,,,,,main,1,1,2,negative,neutral,k,k,1,0.6979785000003176,129.33784399999422,130.348101399999,130.33087419999356,None,129.33784399999422,None,129.33784399999422,None,129.33784399999422,None,131.0312941399985,None,131.0312941399985,None,131.0312941399985,None,,,,,,,,,,,,,,107,2023-04-17_13h31.22.334,Main,2022.1.1,60.025739038101115,
negative,positive,1,j,l,,,,,,,,,0,8,8,6,,,,,,,,,main,2,2,1,positive,negative,l,l,1,0.8653567999936058,131.03260519999458,132.04789859999437,132.03122859999712,None,131.03260519999458,None,131.03260519999458,None,131.03260519999458,None,132.89794313999445,None,132.89794313999445,None,132.89794313999445,None,,,,,,,,,,,,,,107,2023-04-17_13h31.22.334,Main,2022.1.1,60.025739038101115,
negative,negative,2,j,l,,,,,,,,,0,9,9,9,,,,,,,,,main,1,1,2,negative,negative,l,l,1,0.6816947000043001,132.899877799995,133.9145875999966,133.89791870000045,None,132.899877799995,None,132.899877799995,None,132.899877799995,None,134.58128813999937,None,134.58128813999937,None,134.58128813999937,None,,,,,,,,,,,,,,107,2023-04-17_13h31.22.334,Main,2022.1.1,60.025739038101115,
positive,positive,2,l,j,,,,,,,,,0,10,10,11,,,,,,,,,main,2,2,2,positive,positive,j,j,1,1.3654873999985284,134.5882702999952,135.60031239999807,135.58379149999382,None,134.5882702999952,None,134.5882702999952,None,134.5882702999952,None,136.94825133999402,None,136.94825133999402,None,136.94825133999402,None,,,,,,,,,,,,,,107,2023-04-17_13h31.22.334,Main,2022.1.1,60.025739038101115,
positive,negative,1,l,j,,,,,,,,,0,11,11,5,,,,,,,,,main,2,2,1,negative,positive,j,j,1,0.801425300000119,136.9542067000002,137.96691599999758,137.95030709999992,None,136.9542067000002,None,136.9542067000002,None,136.9542067000002,None,138.75035114000056,None,138.75035114000056,None,138.75035114000056,None,,,,,,,,,,,,,,107,2023-04-17_13h31.22.334,Main,2022.1.1,60.025739038101115,
negative,negative,1,j,l,,,,,,,,,0,12,12,0,,,,,,,,,main,2,2,1,negative,negative,l,l,1,0.6309225000004517,138.7543716999935,139.76687459999812,139.7503160999986,None,138.7543716999935,None,138.7543716999935,None,138.7543716999935,None,140.38354494000086,None,140.38354494000086,None,140.38354494000086,None,,,,,,,,,,,,,,107,2023-04-17_13h31.22.334,Main,2022.1.1,60.025739038101115,
negative,positive,2,j,l,,,,,,,,,0,13,13,15,,,,,,,,,main,2,2,2,positive,negative,l,l,1,0.8309574999948381,140.38680969999405,141.4001427999974,141.3835540999935,None,140.38680969999405,None,140.38680969999405,None,140.38680969999405,None,142.21475783999776,None,142.21475783999776,None,142.21475783999776,None,,,,,,,,,,,,,,107,2023-04-17_13h31.22.334,Main,2022.1.1,60.025739038101115,
positive,negative,2,l,j,,,,,,,,,0,14,14,14,,,,,,,,,main,1,1,2,negative,positive,j,j,1,0.7967858999982127,142.22087559999636,143.2310062999968,143.2143453999961,None,142.22087559999636,None,142.22087559999636,None,142.22087559999636,None,144.01433753999444,None,144.01433753999444,None,144.01433753999444,None,,,,,,,,,,,,,,107,2023-04-17_13h31.22.334,Main,2022.1.1,60.025739038101115,
neutral,positive,1,k,k,,,,,,,,,0,15,15,4,,,,,,,,,main,1,1,1,positive,neutral,k,k,1,0.6829501999964123,144.01428319999832,145.01434629999858,145.01434629999858,None,144.01428319999832,None,144.01428319999832,None,144.01428319999832,None,145.6976796399991,None,145.6976796399991,None,145.6976796399991,None,,,,,,,,,,,,,,107,2023-04-17_13h31.22.334,Main,2022.1.1,60.025739038101115,
neutral,positive,2,k,k,,,,,,,,,0,16,16,13,,,,,,,,,main,2,2,2,positive,neutral,k,k,1,0.7831204000030993,145.69984739999927,146.71433199999592,146.6976660999935,None,145.69984739999927,None,145.69984739999927,None,145.69984739999927,None,147.483531939995,None,147.483531939995,None,147.483531939995,None,,,,,,,,,,,,,,107,2023-04-17_13h31.22.334,Main,2022.1.1,60.025739038101115,
positive,positive,1,l,j,,,,,,,,,0,17,17,2,,,,,,,,,main,2,2,1,positive,positive,j,j,1,0.729652599999099,147.48741809999774,148.500057199999,148.48347719999583,None,147.48741809999774,None,147.48741809999774,None,147.48741809999774,None,149.21464264000096,None,149.21464264000096,None,149.21464264000096,None,,,,,,,,,,,,,,107,2023-04-17_13h31.22.334,Main,2022.1.1,60.025739038101115,
neutral,negative,1,k,k,,,,,,,,,1,0,18,7,,,,,,,,,main,1,1,1,negative,neutral,k,k,1,0.6672398000009707,149.2204802999986,150.23341139999684,150.21684729999834,None,149.2204802999986,None,149.2204802999986,None,149.2204802999986,None,150.8833911399939,None,150.8833911399939,None,150.8833911399939,None,,,,,,,,,,,,,,107,2023-04-17_13h31.22.334,Main,2022.1.1,60.025739038101115,
neutral,positive,2,k,k,,,,,,,,,1,1,19,13,,,,,,,,,main,1,1,2,positive,neutral,k,k,1,0.6974894000013592,150.8879065000001,151.89995780000027,151.88337539999338,None,150.8879065000001,None,150.8879065000001,None,150.8879065000001,None,152.58333224000089,None,152.58333224000089,None,152.58333224000089,None,,,,,,,,,,,,,,107,2023-04-17_13h31.22.334,Main,2022.1.1,60.025739038101115,
negative,neutral,1,j,l,,,,,,,,,1,2,20,3,,,,,,,,,main,1,1,1,neutral,negative,l,l,1,0.645737899998494,152.5876610999985,153.59999359999347,153.5833735999986,None,152.5876610999985,None,152.5876610999985,None,152.5876610999985,None,154.23076853999518,None,154.23076853999518,None,154.23076853999518,None,,,,,,,,,,,,,,107,2023-04-17_13h31.22.334,Main,2022.1.1,60.025739038101115,
positive,positive,1,l,j,,,,,,,,,1,3,21,2,,,,,,,,,main,1,1,1,positive,positive,j,j,1,0.6984038000009605,154.23079249999864,155.2307806999961,155.2307806999961,None,154.23079249999864,None,154.23079249999864,None,154.23079249999864,None,155.93083043999795,None,155.93083043999795,None,155.93083043999795,None,,,,,,,,,,,,,,107,2023-04-17_13h31.22.334,Main,2022.1.1,60.025739038101115,
negative,positive,2,j,l,,,,,,,,,1,4,22,15,,,,,,,,,main,2,2,2,positive,negative,l,l,1,0.7487552000020514,155.9365617000003,156.9499863999954,156.93334369999502,None,155.9365617000003,None,155.9365617000003,None,155.9365617000003,None,157.68114283999748,None,157.68114283999748,None,157.68114283999748,None,,,,,,,,,,,,,,107,2023-04-17_13h31.22.334,Main,2022.1.1,60.025739038101115,
negative,positive,1,j,l,,,,,,,,,1,5,23,6,,,,,,,,,main,2,2,1,positive,negative,l,l,1,0.714974100003019,157.68958849999763,158.69983309999952,158.68327439999848,None,157.68958849999763,None,157.68958849999763,None,157.68958849999763,None,159.3977476399974,None,159.3977476399974,None,159.3977476399974,None,,,,,,,,,,,,,,107,2023-04-17_13h31.22.334,Main,2022.1.1,60.025739038101115,
positive,neutral,1,l,j,,,,,,,,,1,6,24,8,,,,,,,,,main,2,2,1,neutral,positive,j,j,1,0.714945899999293,159.40347789999942,160.4165281999958,160.39992539999366,None,159.40347789999942,None,159.40347789999942,None,159.40347789999942,None,161.11441093999892,None,161.11441093999892,None,161.11441093999892,None,,,,,,,,,,,,,,107,2023-04-17_13h31.22.334,Main,2022.1.1,60.025739038101115,
positive,neutral,2,l,j,,,,,,,,,1,7,25,17,,,,,,,,,main,2,2,2,neutral,positive,j,j,1,0.8650333000041428,161.1224790999986,162.13307059999352,162.11648339999374,None,161.1224790999986,None,161.1224790999986,None,161.1224790999986,None,162.9810504399953,None,162.9810504399953,None,162.9810504399953,None,,,,,,,,,,,,,,107,2023-04-17_13h31.22.334,Main,2022.1.1,60.025739038101115,
neutral,negative,2,k,k,,,,,,,,,1,8,26,16,,,,,,,,,main,1,1,2,negative,neutral,k,k,1,0.6815545999997994,162.98708919999626,163.99725639999815,163.980593399996,None,162.98708919999626,None,162.98708919999626,None,162.98708919999626,None,164.66392603999847,None,164.66392603999847,None,164.66392603999847,None,,,,,,,,,,,,,,107,2023-04-17_13h31.22.334,Main,2022.1.1,60.025739038101115,
neutral,neutral,1,k,k,,,,,,,,,1,9,27,1,,,,,,,,,main,2,2,1,neutral,neutral,k,k,1,0.6482927999968524,164.66387069999473,165.66393919999973,165.66393919999973,None,164.66387069999473,None,164.66387069999473,None,164.66387069999473,None,166.3139366400006,None,166.3139366400006,None,166.3139366400006,None,,,,,,,,,,,,,,107,2023-04-17_13h31.22.334,Main,2022.1.1,60.025739038101115,
negative,neutral,2,j,l,,,,,,,,,1,10,28,12,,,,,,,,,main,1,1,2,neutral,negative,l,l,1,0.6650516000008793,166.3156261999975,167.3306037000002,167.3139416999984,None,166.3156261999975,None,166.3156261999975,None,166.3156261999975,None,167.98060413999482,None,167.98060413999482,None,167.98060413999482,None,,,,,,,,,,,,,,107,2023-04-17_13h31.22.334,Main,2022.1.1,60.025739038101115,
neutral,neutral,2,k,k,,,,,,,,,1,11,29,10,,,,,,,,,main,2,2,2,neutral,neutral,k,k,1,0.6653871000016807,167.98638509999728,168.99969659999624,168.9831137000001,None,167.98638509999728,None,167.98638509999728,None,167.98638509999728,None,169.6475844399989,None,169.6475844399989,None,169.6475844399989,None,,,,,,,,,,,,,,107,2023-04-17_13h31.22.334,Main,2022.1.1,60.025739038101115,
positive,negative,2,l,j,,,,,,,,,1,12,30,14,,,,,,,,,main,2,2,2,negative,positive,j,j,1,0.6474556000030134,169.65386229999422,170.66626410000026,170.64971939999668,None,169.65386229999422,None,169.65386229999422,None,169.65386229999422,None,171.2974167399967,None,171.2974167399967,None,171.2974167399967,None,,,,,,,,,,,,,,107,2023-04-17_13h31.22.334,Main,2022.1.1,60.025739038101115,
neutral,positive,1,k,k,,,,,,,,,1,13,31,4,,,,,,,,,main,2,2,1,positive,neutral,k,k,1,0.6987469000014244,171.30390359999728,172.3162280999968,172.29968139999983,None,171.30390359999728,None,171.30390359999728,None,171.30390359999728,None,172.99751023999997,None,172.99751023999997,None,172.99751023999997,None,,,,,,,,,,,,,,107,2023-04-17_13h31.22.334,Main,2022.1.1,60.025739038101115,
positive,positive,2,l,j,,,,,,,,,1,14,32,11,,,,,,,,,main,2,2,2,positive,positive,j,j,1,0.7482808999993722,173.00357119999535,174.01617830000032,173.99961629999598,None,173.00357119999535,None,173.00357119999535,None,173.00357119999535,None,174.74744223999878,None,174.74744223999878,None,174.74744223999878,None,,,,,,,,,,,,,,107,2023-04-17_13h31.22.334,Main,2022.1.1,60.025739038101115,
negative,negative,2,j,l,,,,,,,,,1,15,33,9,,,,,,,,,main,2,2,2,negative,negative,l,l,1,0.6646959999998217,174.75302199999715,175.7636457999979,175.73033159999613,None,174.75302199999715,None,174.75302199999715,None,174.75302199999715,None,176.41365643999742,None,176.41365643999742,None,176.41365643999742,None,,,,,,,,,,,,,,107,2023-04-17_13h31.22.334,Main,2022.1.1,60.025739038101115,
negative,negative,1,j,l,,,,,,,,,1,16,34,0,,,,,,,,,main,1,1,1,negative,negative,l,l,1,0.7153470999983256,176.41861159999826,177.43032169999788,177.41366199999902,None,176.41861159999826,None,176.41861159999826,None,176.41861159999826,None,178.1303637399993,None,178.1303637399993,None,178.1303637399993,None,,,,,,,,,,,,,,107,2023-04-17_13h31.22.334,Main,2022.1.1,60.025739038101115,
positive,negative,1,l,j,,,,,,,,,1,17,35,5,,,,,,,,,main,2,2,1,negative,positive,j,j,1,0.681517500001064,178.13256669999828,179.14702069999475,179.13031839999894,None,178.13256669999828,None,178.13256669999828,None,178.13256669999828,None,179.81369603999482,None,179.81369603999482,None,179.81369603999482,None,,,,,,,,,,,,,,107,2023-04-17_13h31.22.334,Main,2022.1.1,60.025739038101115,
negative,negative,1,j,l,,,,,,,,,2,0,36,0,,,,,,,,,main,1,1,1,negative,negative,l,l,1,0.6673542999997153,179.81944899999507,180.83282119999785,180.8162974999941,None,179.81944899999507,None,179.81944899999507,None,179.81944899999507,None,181.4828392399955,None,181.4828392399955,None,181.4828392399955,None,,,,,,,,,,,,,,107,2023-04-17_13h31.22.334,Main,2022.1.1,60.025739038101115,
neutral,positive,1,k,k,,,,,,,,,2,1,37,4,,,,,,,,,main,2,2,1,positive,neutral,k,k,1,0.5962639999997918,181.4873929999958,182.49940769999375,182.48284330000024,None,181.4873929999958,None,181.4873929999958,None,181.4873929999958,None,183.08060753999743,None,183.08060753999743,None,183.08060753999743,None,,,,,,,,,,,,,,107,2023-04-17_13h31.22.334,Main,2022.1.1,60.025739038101115,
positive,neutral,2,l,j,,,,,,,,,2,2,38,17,,,,,,,,,main,2,2,2,neutral,positive,j,j,1,0.765008399997896,183.08423089999997,184.0993301999988,184.08275429999776,None,183.08423089999997,None,183.08423089999997,None,183.08423089999997,None,184.84723503999848,None,184.84723503999848,None,184.84723503999848,None,,,,,,,,,,,,,,107,2023-04-17_13h31.22.334,Main,2022.1.1,60.025739038101115,
neutral,neutral,2,k,k,,,,,,,,,2,3,39,10,,,,,,,,,main,1,1,2,neutral,neutral,k,k,1,0.7652545999953873,184.85298539999349,185.86610539999674,185.84938419999526,None,184.85298539999349,None,184.85298539999349,None,184.85298539999349,None,186.613905339998,None,186.613905339998,None,186.613905339998,None,,,,,,,,,,,,,,107,2023-04-17_13h31.22.334,Main,2022.1.1,60.025739038101115,
negative,positive,1,j,l,,,,,,,,,2,4,40,6,,,,,,,,,main,2,2,1,positive,negative,l,l,1,0.7815455999952974,186.6197189999948,187.61916679999558,187.61916679999558,None,186.6197189999948,None,186.6197189999948,None,186.6197189999948,None,188.39675353999482,None,188.39675353999482,None,188.39675353999482,None,,,,,,,,,,,,,,107,2023-04-17_13h31.22.334,Main,2022.1.1,60.025739038101115,
negative,positive,2,j,l,,,,,,,,,2,5,41,15,,,,,,,,,main,2,2,2,positive,negative,l,l,1,0.6317269999999553,188.41347509999468,189.41341949999332,189.3967604999998,None,188.41347509999468,None,188.41347509999468,None,188.41347509999468,None,190.03014253999717,None,190.03014253999717,None,190.03014253999717,None,,,,,,,,,,,,,,107,2023-04-17_13h31.22.334,Main,2022.1.1,60.025739038101115,
neutral,positive,2,k,k,,,,,,,,,2,6,42,13,,,,,,,,,main,2,2,2,positive,neutral,k,k,1,0.6982903000025544,190.03197369999543,191.04674589999922,191.0300905999975,None,190.03197369999543,None,190.03197369999543,None,190.03197369999543,None,191.7301260399996,None,191.7301260399996,None,191.7301260399996,None,,,,,,,,,,,,,,107,2023-04-17_13h31.22.334,Main,2022.1.1,60.025739038101115,
negative,neutral,1,j,l,,,,,,,,,2,7,43,3,,,,,,,,,main,1,1,1,neutral,negative,l,l,1,0.6692468000037479,191.73568059999525,192.74919379999483,192.73259249999683,None,191.73568059999525,None,191.73568059999525,None,191.73568059999525,None,193.40082863999996,None,193.40082863999996,None,193.40082863999996,None,,,,,,,,,,,,,,107,2023-04-17_13h31.22.334,Main,2022.1.1,60.025739038101115,
negative,neutral,2,j,l,,,,,,,,,2,8,44,12,,,,,,,,,main,1,1,2,neutral,negative,l,l,1,0.5944732999996631,193.4038556999949,194.41592609999498,194.39922639999713,None,193.4038556999949,None,193.4038556999949,None,193.4038556999949,None,194.9967611400003,None,194.9967611400003,None,194.9967611400003,None,,,,,,,,,,,,,,107,2023-04-17_13h31.22.334,Main,2022.1.1,60.025739038101115,
positive,neutral,1,l,j,,,,,,,,,2,9,45,8,,,,,,,,,main,2,2,1,neutral,positive,j,j,1,0.6652840000024298,195.0032102999976,196.01575659999799,195.9992484999966,None,195.0032102999976,None,195.0032102999976,None,195.0032102999976,None,196.66366723999963,None,196.66366723999963,None,196.66366723999963,None,,,,,,,,,,,,,,107,2023-04-17_13h31.22.334,Main,2022.1.1,60.025739038101115,
neutral,negative,2,k,k,,,,,,,,,2,10,46,16,,,,,,,,,main,1,1,2,negative,neutral,k,k,1,0.6650235999986762,196.6692705999958,197.68239429999812,197.66579179999826,None,196.6692705999958,None,196.6692705999958,None,196.6692705999958,None,198.33030033999384,None,198.33030033999384,None,198.33030033999384,None,,,,,,,,,,,,,,107,2023-04-17_13h31.22.334,Main,2022.1.1,60.025739038101115,
neutral,neutral,1,k,k,,,,,,,,,2,11,47,1,,,,,,,,,main,2,2,1,neutral,neutral,k,k,1,0.6646604000052321,198.3358639999933,199.34911649999412,199.33244969999942,None,198.3358639999933,None,198.3358639999933,None,198.3358639999933,None,199.99649464000103,None,199.99649464000103,None,199.99649464000103,None,,,,,,,,,,,,,,107,2023-04-17_13h31.22.334,Main,2022.1.1,60.025739038101115,
positive,positive,1,l,j,,,,,,,,,2,12,48,2,,,,,,,,,main,2,2,1,positive,positive,j,j,1,0.6820135999951162,199.99820129999716,201.01319549999607,200.99652760000026,None,199.99820129999716,None,199.99820129999716,None,199.99820129999716,None,201.67986613999673,None,201.67986613999673,None,201.67986613999673,None,,,,,,,,,,,,,,107,2023-04-17_13h31.22.334,Main,2022.1.1,60.025739038101115,
positive,negative,1,l,j,,,,,,,,,2,13,49,5,,,,,,,,,main,1,1,1,negative,positive,j,j,1,0.6483861000015168,201.6801204000003,202.67986439999368,202.67986439999368,None,201.6801204000003,None,201.6801204000003,None,201.6801204000003,None,203.32989713999413,None,203.32989713999413,None,203.32989713999413,None,,,,,,,,,,,,,,107,2023-04-17_13h31.22.334,Main,2022.1.1,60.025739038101115,
negative,negative,2,j,l,,,,,,,,,2,14,50,9,,,,,,,,,main,2,2,2,negative,negative,l,l,1,0.6342105000003357,203.33317309999984,204.33244479999848,204.33244479999848,None,203.33317309999984,None,203.33317309999984,None,203.33317309999984,None,204.96569464000058,None,204.96569464000058,None,204.96569464000058,None,,,,,,,,,,,,,,107,2023-04-17_13h31.22.334,Main,2022.1.1,60.025739038101115,
positive,positive,2,l,j,,,,,,,,,2,15,51,11,,,,,,,,,main,1,1,2,positive,positive,j,j,1,0.7459270999970613,204.96997129999363,205.9822847999967,205.96564819999912,None,204.96997129999363,None,204.96997129999363,None,204.96997129999363,None,206.71313194000103,None,206.71313194000103,None,206.71313194000103,None,,,,,,,,,,,,,,107,2023-04-17_13h31.22.334,Main,2022.1.1,60.025739038101115,
neutral,negative,1,k,k,,,,,,,,,2,16,52,7,,,,,,,,,main,2,2,1,negative,neutral,k,k,1,0.6665776000008918,206.7193921999933,207.7322286999988,207.7155988999948,None,206.7193921999933,None,206.7193921999933,None,206.7193921999933,None,208.38225243999622,None,208.38225243999622,None,208.38225243999622,None,,,,,,,,,,,,,,107,2023-04-17_13h31.22.334,Main,2022.1.1,60.025739038101115,
positive,negative,2,l,j,,,,,,,,,2,17,53,14,,,,,,,,,main,2,2,2,negative,positive,j,j,1,0.7463340999966022,208.38507459999528,209.39883509999345,209.38224189999892,None,208.38507459999528,None,208.38507459999528,None,208.38507459999528,None,210.13015013999538,None,210.13015013999538,None,210.13015013999538,None,,,,,,,,,,,,,,107,2023-04-17_13h31.22.334,Main,2022.1.1,60.025739038101115,
neutral,negative,1,k,k,,,,,,,,,3,0,54,7,,,,,,,,,main,1,1,1,negative,neutral,k,k,1,0.6596614999943995,210.1361562999955,211.14883589999954,211.13233489999402,None,210.1361562999955,None,210.1361562999955,None,210.1361562999955,None,211.79122833999426,None,211.79122833999426,None,211.79122833999426,None,,,,,,,,,,,,,,107,2023-04-17_13h31.22.334,Main,2022.1.1,60.025739038101115,
negative,negative,1,j,l,,,,,,,,,3,1,55,0,,,,,,,,,main,1,1,1,negative,negative,l,l,1,0.7536782999959541,211.80168479999702,212.81298279999464,212.77963179999642,None,211.80168479999702,None,211.80168479999702,None,211.80168479999702,None,213.5462772400002,None,213.5462772400002,None,213.5462772400002,None,,,,,,,,,,,,,,107,2023-04-17_13h31.22.334,Main,2022.1.1,60.025739038101115,
positive,positive,1,l,j,,,,,,,,,3,2,56,2,,,,,,,,,main,1,1,1,positive,positive,j,j,1,0.6814969000042765,213.54624219999823,214.54628159999993,214.54628159999993,None,213.54624219999823,None,213.54624219999823,None,213.54624219999823,None,215.22964253999962,None,215.22964253999962,None,215.22964253999962,None,,,,,,,,,,,,,,107,2023-04-17_13h31.22.334,Main,2022.1.1,60.025739038101115,
positive,negative,2,l,j,,,,,,,,,3,3,57,14,,,,,,,,,main,2,2,2,negative,positive,j,j,1,0.7508121999999275,215.23130189999938,216.24628289999964,216.22963779999554,None,215.23130189999938,None,215.23130189999938,None,215.23130189999938,None,216.98218413999857,None,216.98218413999857,None,216.98218413999857,None,,,,,,,,,,,,,,107,2023-04-17_13h31.22.334,Main,2022.1.1,60.025739038101115,
neutral,positive,2,k,k,,,,,,,,,3,4,58,13,,,,,,,,,main,1,1,2,positive,neutral,k,k,1,0.5991310000026715,216.9860797999936,217.99866059999476,217.98206129999744,None,216.9860797999936,None,216.9860797999936,None,216.9860797999936,None,218.5821020399977,None,218.5821020399977,None,218.5821020399977,None,,,,,,,,,,,,,,107,2023-04-17_13h31.22.334,Main,2022.1.1,60.025739038101115,
positive,negative,1,l,j,,,,,,,,,3,5,59,5,,,,,,,,,main,2,2,1,negative,positive,j,j,1,0.7454827999972622,218.58630649999395,219.59858839999652,219.58202949999395,None,218.58630649999395,None,218.58630649999395,None,218.58630649999395,None,220.32989963999862,None,220.32989963999862,None,220.32989963999862,None,,,,,,,,,,,,,,107,2023-04-17_13h31.22.334,Main,2022.1.1,60.025739038101115,
neutral,positive,1,k,k,,,,,,,,,3,6,60,4,,,,,,,,,main,2,2,1,positive,neutral,k,k,1,0.6651533000040217,220.33542589999706,221.34862109999813,221.33205829999497,None,220.33542589999706,None,220.33542589999706,None,220.33542589999706,None,221.9964955400006,None,221.9964955400006,None,221.9964955400006,None,,,,,,,,,,,,,,107,2023-04-17_13h31.22.334,Main,2022.1.1,60.025739038101115,
negative,positive,2,j,l,,,,,,,,,3,7,61,15,,,,,,,,,main,1,1,2,positive,negative,l,l,1,0.6485170000014477,222.00281790000008,223.01528709999548,222.9986951999963,None,222.00281790000008,None,222.00281790000008,None,222.00281790000008,None,223.64647683999792,None,223.64647683999792,None,223.64647683999792,None,,,,,,,,,,,,,,107,2023-04-17_13h31.22.334,Main,2022.1.1,60.025739038101115,
negative,negative,2,j,l,,,,,,,,,3,8,62,9,,,,,,,,,main,2,2,2,negative,negative,l,l,1,0.6480444999979227,223.65205189999688,224.66267009999865,224.6460076999938,None,223.65205189999688,None,223.65205189999688,None,223.65205189999688,None,225.29599873999686,None,225.29599873999686,None,225.29599873999686,None,,,,,,,,,,,,,,107,2023-04-17_13h31.22.334,Main,2022.1.1,60.025739038101115,
negative,positive,1,j,l,,,,,,,,,3,9,63,6,,,,,,,,,main,1,1,1,positive,negative,l,l,1,0.6316959000032512,225.2959985999987,226.296042199996,226.296042199996,None,225.2959985999987,None,225.2959985999987,None,225.2959985999987,None,226.92937593999667,None,226.92937593999667,None,226.92937593999667,None,,,,,,,,,,,,,,107,2023-04-17_13h31.22.334,Main,2022.1.1,60.025739038101115,
positive,neutral,2,l,j,,,,,,,,,3,10,64,17,,,,,,,,,main,1,1,2,neutral,positive,j,j,1,0.6819963999951142,226.9460684000005,227.94604499999696,227.92936539999937,None,226.9460684000005,None,226.9460684000005,None,226.9460684000005,None,228.61307973999791,None,228.61307973999791,None,228.61307973999791,None,,,,,,,,,,,,,,107,2023-04-17_13h31.22.334,Main,2022.1.1,60.025739038101115,
positive,neutral,1,l,j,,,,,,,,,3,11,65,8,,,,,,,,,main,1,1,1,neutral,positive,j,j,1,0.6812959000017145,228.61873399999604,229.63178679999692,229.61515909999434,None,228.61873399999604,None,228.61873399999604,None,228.61873399999604,None,230.29602763999864,None,230.29602763999864,None,230.29602763999864,None,,,,,,,,,,,,,,107,2023-04-17_13h31.22.334,Main,2022.1.1,60.025739038101115,
positive,positive,2,l,j,,,,,,,,,3,12,66,11,,,,,,,,,main,2,2,2,positive,positive,j,j,1,0.5842129999946337,230.3016478999998,231.31504469999345,231.2984612999935,None,230.3016478999998,None,230.3016478999998,None,230.3016478999998,None,231.88176193999388,None,231.88176193999388,None,231.88176193999388,None,,,,,,,,,,,,,,107,2023-04-17_13h31.22.334,Main,2022.1.1,60.025739038101115,
negative,neutral,1,j,l,,,,,,,,,3,13,67,3,,,,,,,,,main,2,2,1,neutral,negative,l,l,1,0.6798553999979049,231.88573519999773,232.8984474999961,232.8818414999987,None,231.88573519999773,None,231.88573519999773,None,231.88573519999773,None,233.56296104000066,None,233.56296104000066,None,233.56296104000066,None,,,,,,,,,,,,,,107,2023-04-17_13h31.22.334,Main,2022.1.1,60.025739038101115,
neutral,neutral,2,k,k,,,,,,,,,3,14,68,10,,,,,,,,,main,2,2,2,neutral,neutral,k,k,1,0.7483888999995543,233.568322799998,234.58169199999975,234.56508509999549,None,233.568322799998,None,233.568322799998,None,233.568322799998,None,235.31293893999973,None,235.31293893999973,None,235.31293893999973,None,,,,,,,,,,,,,,107,2023-04-17_13h31.22.334,Main,2022.1.1,60.025739038101115,
negative,neutral,2,j,l,,,,,,,,,3,15,69,12,,,,,,,,,main,1,1,2,neutral,negative,l,l,1,0.6322192000006908,235.3207878999965,236.32910219999758,236.31243289999838,None,235.3207878999965,None,235.3207878999965,None,235.3207878999965,None,236.94575643999414,None,236.94575643999414,None,236.94575643999414,None,,,,,,,,,,,,,,107,2023-04-17_13h31.22.334,Main,2022.1.1,60.025739038101115,
neutral,negative,2,k,k,,,,,,,,,3,16,70,16,,,,,,,,,main,2,2,2,negative,neutral,k,k,1,0.6808385000040289,236.94716889999836,237.9624729999996,237.94581919999473,None,236.94716889999836,None,236.94716889999836,None,236.94716889999836,None,238.6291449399956,None,238.6291449399956,None,238.6291449399956,None,,,,,,,,,,,,,,107,2023-04-17_13h31.22.334,Main,2022.1.1,60.025739038101115,
neutral,neutral,1,k,k,,,,,,,,,3,17,71,1,,,,,,,,,main,1,1,1,neutral,neutral,k,k,1,0.6484311999956844,238.62945119999495,239.6291429999983,239.6291429999983,None,238.62945119999495,None,238.62945119999495,None,238.62945119999495,None,240.27914613999891,None,240.27914613999891,None,240.27914613999891,None,,,,,,,,,,,,,,107,2023-04-17_13h31.22.334,Main,2022.1.1,60.025739038101115,
negative,neutral,1,j,l,,,,,,,,,4,0,72,3,,,,,,,,,main,1,1,1,neutral,negative,l,l,1,0.6500356999968062,240.28336569999374,241.2981873999961,241.2816903999992,None,240.28336569999374,None,240.28336569999374,None,240.28336569999374,None,241.93163054000033,None,241.93163054000033,None,241.93163054000033,None,,,,,,,,,,,,,,107,2023-04-17_13h31.22.334,Main,2022.1.1,60.025739038101115,
negative,positive,2,j,l,,,,,,,,,4,1,73,15,,,,,,,,,main,1,1,2,positive,negative,l,l,1,0.6128565999970306,241.93551829999342,242.94815659999585,242.93153889999667,None,241.93551829999342,None,241.93551829999342,None,241.93551829999342,None,243.54597463999525,None,243.54597463999525,None,243.54597463999525,None,,,,,,,,,,,,,,107,2023-04-17_13h31.22.334,Main,2022.1.1,60.025739038101115,
neutral,positive,2,k,k,,,,,,,,,4,2,74,13,,,,,,,,,main,2,2,2,positive,neutral,k,k,1,0.5983145999998669,243.55260549999366,244.56476969999494,244.5481662999955,None,243.55260549999366,None,243.55260549999366,None,243.55260549999366,None,245.1457065399969,None,245.1457065399969,None,245.1457065399969,None,,,,,,,,,,,,,,107,2023-04-17_13h31.22.334,Main,2022.1.1,60.025739038101115,
positive,negative,1,l,j,,,,,,,,,4,3,75,5,,,,,,,,,main,2,2,1,negative,positive,j,j,1,0.6883877000000211,245.14940479999495,246.164741099994,246.14822999999888,None,245.14940479999495,None,245.14940479999495,None,245.14940479999495,None,246.83174063999613,None,246.83174063999613,None,246.83174063999613,None,,,,,,,,,,,,,,107,2023-04-17_13h31.22.334,Main,2022.1.1,60.025739038101115,
neutral,negative,1,k,k,,,,,,,,,4,4,76,7,,,,,,,,,main,1,1,1,negative,neutral,k,k,1,0.6075142999980017,246.84498319999693,247.84817230000044,247.83147649999592,None,246.84498319999693,None,246.84498319999693,None,246.84498319999693,None,248.44556763999717,None,248.44556763999717,None,248.44556763999717,None,,,,,,,,,,,,,,107,2023-04-17_13h31.22.334,Main,2022.1.1,60.025739038101115,
positive,neutral,1,l,j,,,,,,,,,4,5,77,8,,,,,,,,,main,2,2,1,neutral,positive,j,j,1,0.6984818000055384,248.44553129999986,249.4455467999942,249.4455467999942,None,248.44553129999986,None,248.44553129999986,None,248.44553129999986,None,250.14558143999747,None,250.14558143999747,None,250.14558143999747,None,,,,,,,,,,,,,,107,2023-04-17_13h31.22.334,Main,2022.1.1,60.025739038101115,
negative,positive,1,j,l,,,,,,,,,4,6,78,6,,,,,,,,,main,2,2,1,positive,negative,l,l,1,0.6637915000028443,250.14874649999547,251.16222249999555,251.1455483999962,None,250.14874649999547,None,250.14874649999547,None,250.14874649999547,None,251.81224513999913,None,251.81224513999913,None,251.81224513999913,None,,,,,,,,,,,,,,107,2023-04-17_13h31.22.334,Main,2022.1.1,60.025739038101115,
neutral,neutral,2,k,k,,,,,,,,,4,7,79,10,,,,,,,,,main,1,1,2,neutral,neutral,k,k,1,0.6154793999958201,251.81700839999394,252.83140179999464,252.79803239999455,None,251.81700839999394,None,251.81700839999394,None,251.81700839999394,None,253.42923974000004,None,253.42923974000004,None,253.42923974000004,None,,,,,,,,,,,,,,107,2023-04-17_13h31.22.334,Main,2022.1.1,60.025739038101115,
negative,negative,2,j,l,,,,,,,,,4,8,80,9,,,,,,,,,main,2,2,2,negative,negative,l,l,1,0.7317756999982521,253.43484109999554,254.44791540000006,254.4313372999968,None,253.43484109999554,None,253.43484109999554,None,253.43484109999554,None,255.16253694000042,None,255.16253694000042,None,255.16253694000042,None,,,,,,,,,,,,,,107,2023-04-17_13h31.22.334,Main,2022.1.1,60.025739038101115,
positive,neutral,2,l,j,,,,,,,,,4,9,81,17,,,,,,,,,main,2,2,2,neutral,positive,j,j,1,0.7481638000026578,255.16839210000035,256.1811646999995,256.1646069999988,None,255.16839210000035,None,255.16839210000035,None,255.16839210000035,None,256.9121333399977,None,256.9121333399977,None,256.9121333399977,None,,,,,,,,,,,,,,107,2023-04-17_13h31.22.334,Main,2022.1.1,60.025739038101115,
negative,neutral,2,j,l,,,,,,,,,4,10,82,12,,,,,,,,,main,1,1,2,neutral,negative,l,l,1,0.7322061000013491,256.9179490999959,257.9312334999995,257.9146250999984,None,256.9179490999959,None,256.9179490999959,None,256.9179490999959,None,258.6458634399984,None,258.6458634399984,None,258.6458634399984,None,,,,,,,,,,,,,,107,2023-04-17_13h31.22.334,Main,2022.1.1,60.025739038101115,
positive,positive,2,l,j,,,,,,,,,4,11,83,11,,,,,,,,,main,1,1,2,positive,positive,j,j,1,0.7643544000020484,258.6518689999939,259.66452219999337,259.64793709999503,None,258.6518689999939,None,258.6518689999939,None,258.6518689999939,None,260.4119573399963,None,260.4119573399963,None,260.4119573399963,None,,,,,,,,,,,,,,107,2023-04-17_13h31.22.334,Main,2022.1.1,60.025739038101115,
neutral,negative,2,k,k,,,,,,,,,4,12,84,16,,,,,,,,,main,2,2,2,negative,neutral,k,k,1,0.7320328999994672,260.41195159999916,261.4119711999956,261.4119711999956,None,260.41195159999916,None,260.41195159999916,None,260.41195159999916,None,262.1453305400006,None,262.1453305400006,None,262.1453305400006,None,,,,,,,,,,,,,,107,2023-04-17_13h31.22.334,Main,2022.1.1,60.025739038101115,
positive,positive,1,l,j,,,,,,,,,4,13,85,2,,,,,,,,,main,2,2,1,positive,positive,j,j,1,0.7315839999937452,262.147558699995,263.16197769999417,263.1453156999996,None,262.147558699995,None,262.147558699995,None,262.147558699995,None,263.87868393999963,None,263.87868393999963,None,263.87868393999963,None,,,,,,,,,,,,,,107,2023-04-17_13h31.22.334,Main,2022.1.1,60.025739038101115,
neutral,positive,1,k,k,,,,,,,,,4,14,86,4,,,,,,,,,main,2,2,1,positive,neutral,k,k,1,0.7008696000048076,263.88452409999445,264.8977620000005,264.88113039999735,None,263.88452409999445,None,263.88452409999445,None,263.88452409999445,None,265.58119643999964,None,265.58119643999964,None,265.58119643999964,None,,,,,,,,,,,,,,107,2023-04-17_13h31.22.334,Main,2022.1.1,60.025739038101115,
negative,negative,1,j,l,,,,,,,,,4,15,87,0,,,,,,,,,main,2,2,1,negative,negative,l,l,1,0.6319334999934654,265.58514699999796,266.59772299999895,266.5811462999991,None,265.58514699999796,None,265.58514699999796,None,265.58514699999796,None,267.21448123999437,None,267.21448123999437,None,267.21448123999437,None,,,,,,,,,,,,,,107,2023-04-17_13h31.22.334,Main,2022.1.1,60.025739038101115,
positive,negative,2,l,j,,,,,,,,,4,16,88,14,,,,,,,,,main,1,1,2,negative,positive,j,j,1,0.6449448999992455,267.2189725999997,268.23113190000004,268.214392599999,None,267.2189725999997,None,267.2189725999997,None,267.2189725999997,None,268.8622611400002,None,268.8622611400002,None,268.8622611400002,None,,,,,,,,,,,,,,107,2023-04-17_13h31.22.334,Main,2022.1.1,60.025739038101115,
neutral,neutral,1,k,k,,,,,,,,,4,17,89,1,,,,,,,,,main,1,1,1,neutral,neutral,k,k,1,0.5338345999989542,268.8677244999999,269.880997399996,269.86441119999654,None,268.8677244999999,None,268.8677244999999,None,268.8677244999999,None,270.3977071399946,None,270.3977071399946,None,270.3977071399946,None,,,,,,,,,,,,,,107,2023-04-17_13h31.22.334,Main,2022.1.1,60.025739038101115,
negative,positive,1,j,l,,,,,,,,,5,0,90,6,,,,,,,,,main,1,1,1,positive,negative,l,l,1,0.6970160999990185,270.40192439999373,271.4142913999967,271.3977278999955,None,270.40192439999373,None,270.40192439999373,None,270.40192439999373,None,272.0957281399984,None,272.0957281399984,None,272.0957281399984,None,,,,,,,,,,,,,,107,2023-04-17_13h31.22.334,Main,2022.1.1,60.025739038101115,
negative,neutral,1,j,l,,,,,,,,,5,1,91,3,,,,,,,,,main,1,1,1,neutral,negative,l,l,1,0.6306150999953388,272.10179190000053,273.11169569999765,273.09502419999626,None,272.10179190000053,None,272.10179190000053,None,272.10179190000053,None,273.72840653999594,None,273.72840653999594,None,273.72840653999594,None,,,,,,,,,,,,,,107,2023-04-17_13h31.22.334,Main,2022.1.1,60.025739038101115,
negative,negative,2,j,l,,,,,,,,,5,2,92,9,,,,,,,,,main,1,1,2,negative,negative,l,l,1,0.6328074999983073,273.7283555999966,274.72838919999776,274.72838919999776,None,273.7283555999966,None,273.7283555999966,None,273.7283555999966,None,275.36174483999787,None,275.36174483999787,None,275.36174483999787,None,,,,,,,,,,,,,,107,2023-04-17_13h31.22.334,Main,2022.1.1,60.025739038101115,
neutral,positive,1,k,k,,,,,,,,,5,3,93,4,,,,,,,,,main,2,2,1,positive,neutral,k,k,1,0.6499844999998459,275.3648527999976,276.3784044999993,276.3617377999981,None,275.3648527999976,None,275.3648527999976,None,275.3648527999976,None,277.0142827399992,None,277.0142827399992,None,277.0142827399992,None,,,,,,,,,,,,,,107,2023-04-17_13h31.22.334,Main,2022.1.1,60.025739038101115,
neutral,positive,2,k,k,,,,,,,,,5,4,94,13,,,,,,,,,main,1,1,2,positive,neutral,k,k,1,0.5980959000007715,277.017829299999,278.03088029999344,278.01426119999815,None,277.017829299999,None,277.017829299999,None,277.017829299999,None,278.6141944399948,None,278.6141944399948,None,278.6141944399948,None,,,,,,,,,,,,,,107,2023-04-17_13h31.22.334,Main,2022.1.1,60.025739038101115,
positive,positive,2,l,j,,,,,,,,,5,5,95,11,,,,,,,,,main,2,2,2,positive,positive,j,j,1,0.5961960999993607,278.6175329999969,279.6308304999984,279.61419079999905,None,278.6175329999969,None,278.6175329999969,None,278.6175329999969,None,280.21202724000034,None,280.21202724000034,None,280.21202724000034,None,,,,,,,,,,,,,,107,2023-04-17_13h31.22.334,Main,2022.1.1,60.025739038101115,
negative,negative,1,j,l,,,,,,,,,5,6,96,0,,,,,,,,,main,1,1,1,negative,negative,l,l,1,0.6985002000001259,280.21808919999603,281.2307328999959,281.2141091999947,None,280.21808919999603,None,280.21808919999603,None,280.21808919999603,None,281.9119870399969,None,281.9119870399969,None,281.9119870399969,None,,,,,,,,,,,,,,107,2023-04-17_13h31.22.334,Main,2022.1.1,60.025739038101115,
positive,positive,1,l,j,,,,,,,,,5,7,97,2,,,,,,,,,main,2,2,1,positive,positive,j,j,1,0.7002995000002556,281.9307595999999,282.93073469999945,282.9140910999995,None,281.9307595999999,None,281.9307595999999,None,281.9307595999999,None,283.61416233999773,None,283.61416233999773,None,283.61416233999773,None,,,,,,,,,,,,,,107,2023-04-17_13h31.22.334,Main,2022.1.1,60.025739038101115,
neutral,neutral,1,k,k,,,,,,,,,5,8,98,1,,,,,,,,,main,1,1,1,neutral,neutral,k,k,1,0.6134889999957522,283.6180741999997,284.62816429999657,284.61151199999586,None,283.6180741999997,None,283.6180741999997,None,283.6180741999997,None,285.2281759400008,None,285.2281759400008,None,285.2281759400008,None,,,,,,,,,,,,,,107,2023-04-17_13h31.22.334,Main,2022.1.1,60.025739038101115,
neutral,negative,2,k,k,,,,,,,,,5,9,99,16,,,,,,,,,main,2,2,2,negative,neutral,k,k,1,0.6139962999950512,285.22916379999515,286.2281698999941,286.2281698999941,None,285.22916379999515,None,285.22916379999515,None,285.22916379999515,None,286.84483803999467,None,286.84483803999467,None,286.84483803999467,None,,,,,,,,,,,,,,107,2023-04-17_13h31.22.334,Main,2022.1.1,60.025739038101115,
positive,neutral,1,l,j,,,,,,,,,5,10,100,8,,,,,,,,,main,1,1,1,neutral,positive,j,j,1,0.7316787999952794,286.8464504000003,287.86149559999467,287.84482809999463,None,286.8464504000003,None,286.8464504000003,None,286.8464504000003,None,288.5781697399958,None,288.5781697399958,None,288.5781697399958,None,,,,,,,,,,,,,,107,2023-04-17_13h31.22.334,Main,2022.1.1,60.025739038101115,
positive,neutral,2,l,j,,,,,,,,,5,11,101,17,,,,,,,,,main,1,1,2,neutral,positive,j,j,1,0.6507468999989214,288.58394269999553,289.5972674999939,289.5806739999971,None,288.58394269999553,None,288.58394269999553,None,288.58394269999553,None,290.23065273999384,None,290.23065273999384,None,290.23065273999384,None,,,,,,,,,,,,,,107,2023-04-17_13h31.22.334,Main,2022.1.1,60.025739038101115,
positive,negative,2,l,j,,,,,,,,,5,12,102,14,,,,,,,,,main,2,2,2,negative,positive,j,j,1,0.7317335999978241,290.2337245999952,291.2472538000002,291.2306438999949,None,290.2337245999952,None,290.2337245999952,None,290.2337245999952,None,291.96391653999456,None,291.96391653999456,None,291.96391653999456,None,,,,,,,,,,,,,,107,2023-04-17_13h31.22.334,Main,2022.1.1,60.025739038101115,
neutral,neutral,2,k,k,,,,,,,,,5,13,103,10,,,,,,,,,main,1,1,2,neutral,neutral,k,k,1,0.6461732000025222,291.9669425999964,292.9804820999998,292.9638557999933,None,291.9669425999964,None,291.9669425999964,None,291.9669425999964,None,293.6117356400006,None,293.6117356400006,None,293.6117356400006,None,,,,,,,,,,,,,,107,2023-04-17_13h31.22.334,Main,2022.1.1,60.025739038101115,
negative,neutral,2,j,l,,,,,,,,,5,14,104,12,,,,,,,,,main,1,1,2,neutral,negative,l,l,1,0.699676800002635,293.615904899998,294.6305071999959,294.61383360000036,None,293.615904899998,None,293.615904899998,None,293.615904899998,None,295.31382083999927,None,295.31382083999927,None,295.31382083999927,None,,,,,,,,,,,,,,107,2023-04-17_13h31.22.334,Main,2022.1.1,60.025739038101115,
positive,negative,1,l,j,,,,,,,,,5,15,105,5,,,,,,,,,main,2,2,1,negative,positive,j,j,1,0.6961038000008557,295.31807169999956,296.32795309999347,296.31128689999605,None,295.31807169999956,None,295.31807169999956,None,295.31807169999956,None,297.01127823999707,None,297.01127823999707,None,297.01127823999707,None,,,,,,,,,,,,,,107,2023-04-17_13h31.22.334,Main,2022.1.1,60.025739038101115,
neutral,negative,1,k,k,,,,,,,,,5,16,106,7,,,,,,,,,main,2,2,1,negative,neutral,k,k,1,0.6673099000036018,297.0123231999969,298.0279496000003,298.01129289999517,None,297.0123231999969,None,297.0123231999969,None,297.0123231999969,None,298.68043843999624,None,298.68043843999624,None,298.68043843999624,None,,,,,,,,,,,,,,107,2023-04-17_13h31.22.334,Main,2022.1.1,60.025739038101115,
negative,positive,2,j,l,,,,,,,,,5,17,107,15,,,,,,,,,main,1,1,2,positive,negative,l,l,1,0.7315499999967869,298.68377229999896,299.69706849999784,299.6804492999945,None,298.68377229999896,None,298.68377229999896,None,298.68377229999896,None,300.41367443999627,None,300.41367443999627,None,300.41367443999627,None,,,,,,,,,,,,,,107,2023-04-17_13h31.22.334,Main,2022.1.1,60.025739038101115,
neutral,positive,1,k,k,,,,,,,,,6,0,108,4,,,,,,,,,main,1,1,1,positive,neutral,k,k,1,0.7464449000035529,300.4166827999943,301.4303707999934,301.41376769999624,None,300.4166827999943,None,300.4166827999943,None,300.4166827999943,None,302.16158234000034,None,302.16158234000034,None,302.16158234000034,None,,,,,,,,,,,,,,107,2023-04-17_13h31.22.334,Main,2022.1.1,60.025739038101115,
positive,neutral,1,l,j,,,,,,,,,6,1,109,8,,,,,,,,,main,1,1,1,neutral,positive,j,j,1,0.733800699999847,302.16719129999547,303.18024539999897,303.16367329999775,None,302.16719129999547,None,302.16719129999547,None,302.16719129999547,None,303.8969734399958,None,303.8969734399958,None,303.8969734399958,None,,,,,,,,,,,,,,107,2023-04-17_13h31.22.334,Main,2022.1.1,60.025739038101115,
negative,positive,1,j,l,,,,,,,,,6,2,110,6,,,,,,,,,main,1,1,1,positive,negative,l,l,1,0.7459187999993446,303.900681799998,304.91360949999944,304.8970377000005,None,303.900681799998,None,303.900681799998,None,303.900681799998,None,305.64438823999956,None,305.64438823999956,None,305.64438823999956,None,,,,,,,,,,,,,,107,2023-04-17_13h31.22.334,Main,2022.1.1,60.025739038101115,
negative,negative,2,j,l,,,,,,,,,6,3,111,9,,,,,,,,,main,1,1,2,negative,negative,l,l,1,0.7315621000016108,305.64440230000037,306.6443852999946,306.6443852999946,None,305.64440230000037,None,305.64440230000037,None,305.64440230000037,None,307.37775653999563,None,307.37775653999563,None,307.37775653999563,None,,,,,,,,,,,,,,107,2023-04-17_13h31.22.334,Main,2022.1.1,60.025739038101115,
positive,positive,1,l,j,,,,,,,,,6,4,112,2,,,,,,,,,main,1,1,1,positive,positive,j,j,1,0.7652072000055341,307.3793016999989,308.39439069999935,308.3777290999933,None,307.3793016999989,None,307.3793016999989,None,307.3793016999989,None,309.1444225399988,None,309.1444225399988,None,309.1444225399988,None,,,,,,,,,,,,,,107,2023-04-17_13h31.22.334,Main,2022.1.1,60.025739038101115,
positive,negative,2,l,j,,,,,,,,,6,5,113,14,,,,,,,,,main,2,2,2,negative,positive,j,j,1,0.7484119000000646,309.1501747999937,310.1635563999953,310.14690269999846,None,309.1501747999937,None,309.1501747999937,None,309.1501747999937,None,310.89446094000016,None,310.89446094000016,None,310.89446094000016,None,,,,,,,,,,,,,,107,2023-04-17_13h31.22.334,Main,2022.1.1,60.025739038101115,
neutral,positive,2,k,k,,,,,,,,,6,6,114,13,,,,,,,,,main,2,2,2,positive,neutral,k,k,1,0.6674119000017527,310.90135899999586,311.91352899999765,311.8968798999995,None,310.90135899999586,None,310.90135899999586,None,310.90135899999586,None,312.5634788399999,None,312.5634788399999,None,312.5634788399999,None,,,,,,,,,,,,,,107,2023-04-17_13h31.22.334,Main,2022.1.1,60.025739038101115,
positive,negative,1,l,j,,,,,,,,,6,7,115,5,,,,,,,,,main,1,1,1,negative,positive,j,j,1,0.7130183000044781,312.566674099995,313.58010680000007,313.5635575999986,None,312.566674099995,None,312.566674099995,None,312.566674099995,None,314.27799063999703,None,314.27799063999703,None,314.27799063999703,None,,,,,,,,,,,,,,107,2023-04-17_13h31.22.334,Main,2022.1.1,60.025739038101115,
negative,negative,1,j,l,,,,,,,,,6,8,116,0,,,,,,,,,main,2,2,1,negative,negative,l,l,1,0.6648962999970536,314.28393289999804,315.29676219999965,315.2801859999963,None,314.28393289999804,None,314.28393289999804,None,314.28393289999804,None,315.94427453999526,None,315.94427453999526,None,315.94427453999526,None,,,,,,,,,,,,,,107,2023-04-17_13h31.22.334,Main,2022.1.1,60.025739038101115,
negative,positive,2,j,l,,,,,,,,,6,9,117,15,,,,,,,,,main,1,1,2,positive,negative,l,l,1,0.6531896000014967,315.9503393999985,316.96343909999996,316.9468282999951,None,315.9503393999985,None,315.9503393999985,None,315.9503393999985,None,317.59930433999546,None,317.59930433999546,None,317.59930433999546,None,,,,,,,,,,,,,,107,2023-04-17_13h31.22.334,Main,2022.1.1,60.025739038101115,
neutral,neutral,1,k,k,,,,,,,,,6,10,118,1,,,,,,,,,main,1,1,1,neutral,neutral,k,k,1,0.6765860000014072,317.5990590999936,318.61081549999653,318.59410099999513,None,317.5990590999936,None,317.5990590999936,None,317.5990590999936,None,319.27743723999595,None,319.27743723999595,None,319.27743723999595,None,,,,,,,,,,,,,,107,2023-04-17_13h31.22.334,Main,2022.1.1,60.025739038101115,
positive,positive,2,l,j,,,,,,,,,6,11,119,11,,,,,,,,,main,2,2,2,positive,positive,j,j,1,0.732799099998374,319.27753839999787,320.2774852999937,320.2774852999937,None,319.27753839999787,None,319.27753839999787,None,319.27753839999787,None,321.01083983999854,None,321.01083983999854,None,321.01083983999854,None,,,,,,,,,,,,,,107,2023-04-17_13h31.22.334,Main,2022.1.1,60.025739038101115,
neutral,neutral,2,k,k,,,,,,,,,6,12,120,10,,,,,,,,,main,2,2,2,neutral,neutral,k,k,1,0.6334146000008332,321.01722589999554,322.0299864999979,322.013403799996,None,321.01722589999554,None,321.01722589999554,None,321.01722589999554,None,322.64672303999544,None,322.64672303999544,None,322.64672303999544,None,,,,,,,,,,,,,,107,2023-04-17_13h31.22.334,Main,2022.1.1,60.025739038101115,
positive,neutral,2,l,j,,,,,,,,,6,13,121,17,,,,,,,,,main,1,1,2,neutral,positive,j,j,1,0.5981873999990057,322.6500479999959,323.6632671999978,323.64666600000055,None,322.6500479999959,None,322.6500479999959,None,322.6500479999959,None,324.2464846399977,None,324.2464846399977,None,324.2464846399977,None,,,,,,,,,,,,,,107,2023-04-17_13h31.22.334,Main,2022.1.1,60.025739038101115,
negative,neutral,1,j,l,,,,,,,,,6,14,122,3,,,,,,,,,main,1,1,1,neutral,negative,l,l,1,0.7483369000037783,324.25064039999415,325.2632011999958,325.24658319999435,None,324.25064039999415,None,324.25064039999415,None,324.25064039999415,None,325.9965340399955,None,325.9965340399955,None,325.9965340399955,None,,,,,,,,,,,,,,107,2023-04-17_13h31.22.334,Main,2022.1.1,60.025739038101115,
negative,neutral,2,j,l,,,,,,,,,6,15,123,12,,,,,,,,,main,2,2,2,neutral,negative,l,l,1,0.6129689999943366,325.9998204999938,327.01307929999894,326.9965116999956,None,325.9998204999938,None,325.9998204999938,None,325.9998204999938,None,327.6110462399971,None,327.6110462399971,None,327.6110462399971,None,,,,,,,,,,,,,,107,2023-04-17_13h31.22.334,Main,2022.1.1,60.025739038101115,
neutral,negative,1,k,k,,,,,,,,,6,16,124,7,,,,,,,,,main,1,1,1,negative,neutral,k,l,0,0.9133499000017764,327.6170189999975,328.6298681999979,328.613165799994,None,327.6170189999975,None,327.6170189999975,None,327.6170189999975,None,329.5311287000004,None,329.5311287000004,None,329.5311287000004,None,,,,,,,,,,,,,,107,2023-04-17_13h31.22.334,Main,2022.1.1,60.025739038101115,
neutral,negative,2,k,k,,,,,,,,,6,17,125,16,,,,,,,,,main,2,2,2,negative,neutral,k,k,1,0.7536840999964625,330.5439341999954,331.54392299999745,331.5272590999957,None,330.5439341999954,None,330.5439341999954,None,330.5439341999954,None,332.2939246399998,None,332.2939246399998,None,332.2939246399998,None,,,,,,,,,,,,,,107,2023-04-17_13h31.22.334,Main,2022.1.1,60.025739038101115,
positive,positive,1,l,j,,,,,,,,,7,0,126,2,,,,,,,,,main,2,2,1,positive,positive,j,j,1,0.6649151999954483,332.2951052999997,333.31057789999613,333.2939125999983,None,332.2951052999997,None,332.2951052999997,None,332.2951052999997,None,333.96059913999636,None,333.96059913999636,None,333.96059913999636,None,,,,,,,,,,,,,,107,2023-04-17_13h31.22.334,Main,2022.1.1,60.025739038101115,
negative,neutral,2,j,l,,,,,,,,,7,1,127,12,,,,,,,,,main,1,1,2,neutral,negative,l,l,1,0.6675087000039639,333.96486059999734,334.9796647999974,334.96305059999577,None,333.96486059999734,None,333.96486059999734,None,333.96486059999734,None,335.62996133999843,None,335.62996133999843,None,335.62996133999843,None,,,,,,,,,,,,,,107,2023-04-17_13h31.22.334,Main,2022.1.1,60.025739038101115,
negative,neutral,1,j,l,,,,,,,,,7,2,128,3,,,,,,,,,main,2,2,1,neutral,negative,l,l,1,0.6148159000003943,335.63387879999937,336.64635279999493,336.62970309999946,None,335.63387879999937,None,335.63387879999937,None,335.63387879999937,None,337.24624324000035,None,337.24624324000035,None,337.24624324000035,None,,,,,,,,,,,,,,107,2023-04-17_13h31.22.334,Main,2022.1.1,60.025739038101115,
positive,negative,2,l,j,,,,,,,,,7,3,129,14,,,,,,,,,main,1,1,2,negative,positive,j,j,1,0.746462100003555,337.2493908999968,338.2629384999964,338.24632669999846,None,337.2493908999968,None,337.2493908999968,None,337.2493908999968,None,338.99413783999773,None,338.99413783999773,None,338.99413783999773,None,,,,,,,,,,,,,,107,2023-04-17_13h31.22.334,Main,2022.1.1,60.025739038101115,
neutral,negative,1,k,k,,,,,,,,,7,4,130,7,,,,,,,,,main,1,1,1,negative,neutral,k,k,1,0.6505504000015208,339.00014109999756,340.0128721999936,339.9962882999971,None,339.00014109999756,None,339.00014109999756,None,339.00014109999756,None,340.64646574000074,None,340.64646574000074,None,340.64646574000074,None,,,,,,,,,,,,,,107,2023-04-17_13h31.22.334,Main,2022.1.1,60.025739038101115,
neutral,negative,2,k,k,,,,,,,,,7,5,131,16,,,,,,,,,main,2,2,2,negative,neutral,k,k,1,0.6446862000011606,340.6507836999954,341.659820199995,341.6437466999996,None,340.6507836999954,None,340.6507836999954,None,340.6507836999954,None,342.29368713999577,None,342.29368713999577,None,342.29368713999577,None,,,,,,,,,,,,,,107,2023-04-17_13h31.22.334,Main,2022.1.1,60.025739038101115,
positive,negative,1,l,j,,,,,,,,,7,6,132,5,,,,,,,,,main,1,1,1,negative,positive,j,j,1,0.6822881999978563,342.2936416999946,343.29366709999886,343.29366709999886,None,342.2936416999946,None,342.2936416999946,None,342.2936416999946,None,343.97701513999493,None,343.97701513999493,None,343.97701513999493,None,,,,,,,,,,,,,,107,2023-04-17_13h31.22.334,Main,2022.1.1,60.025739038101115,
negative,positive,1,j,l,,,,,,,,,7,7,133,6,,,,,,,,,main,1,1,1,positive,negative,l,l,1,0.6482469999973546,343.97778169999947,344.9769767999969,344.9769767999969,None,343.97778169999947,None,343.97778169999947,None,343.97778169999947,None,345.6270254399948,None,345.6270254399948,None,345.6270254399948,None,,,,,,,,,,,,,,107,2023-04-17_13h31.22.334,Main,2022.1.1,60.025739038101115,
positive,neutral,2,l,j,,,,,,,,,7,8,134,17,,,,,,,,,main,2,2,2,neutral,positive,j,j,1,0.7509825000015553,345.6329537999991,346.64609379999456,346.62953139999445,None,345.6329537999991,None,345.6329537999991,None,345.6329537999991,None,347.3797827399991,None,347.3797827399991,None,347.3797827399991,None,,,,,,,,,,,,,,107,2023-04-17_13h31.22.334,Main,2022.1.1,60.025739038101115,
positive,neutral,1,l,j,,,,,,,,,7,9,135,8,,,,,,,,,main,2,2,1,neutral,positive,j,j,1,0.6791924999997718,347.38346539999475,348.3960650999943,348.3794259999995,None,347.38346539999475,None,347.38346539999475,None,347.38346539999475,None,349.060645839994,None,349.060645839994,None,349.060645839994,None,,,,,,,,,,,,,,107,2023-04-17_13h31.22.334,Main,2022.1.1,60.025739038101115,
neutral,positive,2,k,k,,,,,,,,,7,10,136,13,,,,,,,,,main,2,2,2,positive,neutral,k,k,1,0.8332124000007752,349.0670195999992,350.0793765999988,350.0628041999953,None,349.0670195999992,None,349.0670195999992,None,349.0670195999992,None,350.89604893999933,None,350.89604893999933,None,350.89604893999933,None,,,,,,,,,,,,,,107,2023-04-17_13h31.22.334,Main,2022.1.1,60.025739038101115,
neutral,positive,1,k,k,,,,,,,,,7,11,137,4,,,,,,,,,main,1,1,1,positive,neutral,k,k,1,0.5317308999947272,350.8992555999939,351.9126682999995,351.8960741999981,None,350.8992555999939,None,350.8992555999939,None,350.8992555999939,None,352.42944873999807,None,352.42944873999807,None,352.42944873999807,None,,,,,,,,,,,,,,107,2023-04-17_13h31.22.334,Main,2022.1.1,60.025739038101115,
negative,positive,2,j,l,,,,,,,,,7,12,138,15,,,,,,,,,main,1,1,2,positive,negative,l,l,1,0.695874899996852,352.43266310000035,353.4434005000003,353.42671859999973,None,352.43266310000035,None,352.43266310000035,None,352.43266310000035,None,354.12678323999864,None,354.12678323999864,None,354.12678323999864,None,,,,,,,,,,,,,,107,2023-04-17_13h31.22.334,Main,2022.1.1,60.025739038101115,
negative,negative,2,j,l,,,,,,,,,7,13,139,9,,,,,,,,,main,1,1,2,negative,negative,l,l,1,0.5986084999967716,354.1267538999964,355.1267822999944,355.1267822999944,None,354.1267538999964,None,354.1267538999964,None,354.1267538999964,None,355.72713363999503,None,355.72713363999503,None,355.72713363999503,None,,,,,,,,,,,,,,107,2023-04-17_13h31.22.334,Main,2022.1.1,60.025739038101115,
positive,positive,2,l,j,,,,,,,,,7,14,140,11,,,,,,,,,main,1,1,2,positive,positive,j,j,1,0.6971864000006462,355.73345299999346,356.74588329999824,356.7292910999968,None,355.73345299999346,None,355.73345299999346,None,355.73345299999346,None,357.4267897400001,None,357.4267897400001,None,357.4267897400001,None,,,,,,,,,,,,,,107,2023-04-17_13h31.22.334,Main,2022.1.1,60.025739038101115,
neutral,neutral,2,k,k,,,,,,,,,7,15,141,10,,,,,,,,,main,2,2,2,neutral,neutral,k,k,1,0.7485796999972081,357.43351849999453,358.4458641999954,358.4292606999952,None,357.43351849999453,None,357.43351849999453,None,357.43351849999453,None,359.17676893999453,None,359.17676893999453,None,359.17676893999453,None,,,,,,,,,,,,,,107,2023-04-17_13h31.22.334,Main,2022.1.1,60.025739038101115,
negative,negative,1,j,l,,,,,,,,,7,16,142,0,,,,,,,,,main,2,2,1,negative,negative,l,l,1,0.7148444999984349,359.18375129999913,360.1958891999966,360.17919119999715,None,359.18375129999913,None,359.18375129999913,None,359.18375129999913,None,360.8937337399999,None,360.8937337399999,None,360.8937337399999,None,,,,,,,,,,,,,,107,2023-04-17_13h31.22.334,Main,2022.1.1,60.025739038101115,
neutral,neutral,1,k,k,,,,,,,,,7,17,143,1,,,,,,,,,main,2,2,1,neutral,neutral,k,k,1,0.781295399996452,360.9000124999948,361.91246729999693,361.8958749999947,None,360.9000124999948,None,360.9000124999948,None,360.9000124999948,None,362.67671033999943,None,362.67671033999943,None,362.67671033999943,None,,,,,,,,,,,,,,107,2023-04-17_13h31.22.334,Main,2022.1.1,60.025739038101115,
neutral,negative,2,k,k,,,,,,,,,8,0,144,16,,,,,,,,,main,2,2,2,negative,neutral,k,k,1,0.6149229999937234,362.6830467999971,363.6932050999967,363.6765510999976,None,362.6830467999971,None,362.6830467999971,None,362.6830467999971,None,364.2931927400001,None,364.2931927400001,None,364.2931927400001,None,,,,,,,,,,,,,,107,2023-04-17_13h31.22.334,Main,2022.1.1,60.025739038101115,
negative,neutral,1,j,l,,,,,,,,,8,1,145,3,,,,,,,,,main,1,1,1,neutral,negative,l,l,1,0.7318808999989415,364.29316899999685,365.2932465999984,365.2932465999984,None,364.29316899999685,None,364.29316899999685,None,364.29316899999685,None,366.02660243999856,None,366.02660243999856,None,366.02660243999856,None,,,,,,,,,,,,,,107,2023-04-17_13h31.22.334,Main,2022.1.1,60.025739038101115,
positive,positive,2,l,j,,,,,,,,,8,2,146,11,,,,,,,,,main,1,1,2,positive,positive,j,j,1,0.7675918000022648,366.0299834999969,367.0290593999962,367.0290593999962,None,366.0299834999969,None,366.0299834999969,None,366.0299834999969,None,367.7956826399983,None,367.7956826399983,None,367.7956826399983,None,,,,,,,,,,,,,,107,2023-04-17_13h31.22.334,Main,2022.1.1,60.025739038101115,
negative,neutral,2,j,l,,,,,,,,,8,3,147,12,,,,,,,,,main,1,1,2,neutral,negative,l,l,1,0.7151410000005853,367.7996167999954,368.8123237999971,368.7957019999958,None,367.7996167999954,None,367.7996167999954,None,367.7996167999954,None,369.51243294000017,None,369.51243294000017,None,369.51243294000017,None,,,,,,,,,,,,,,107,2023-04-17_13h31.22.334,Main,2022.1.1,60.025739038101115,
negative,positive,2,j,l,,,,,,,,,8,4,148,15,,,,,,,,,main,2,2,2,positive,negative,l,l,1,0.6630158999978448,369.5163182999968,370.52893849999964,370.5123525999952,None,369.5163182999968,None,369.5163182999968,None,369.5163182999968,None,371.1768106399992,None,371.1768106399992,None,371.1768106399992,None,,,,,,,,,,,,,,107,2023-04-17_13h31.22.334,Main,2022.1.1,60.025739038101115,
negative,negative,1,j,l,,,,,,,,,8,5,149,0,,,,,,,,,main,2,2,1,negative,negative,l,l,1,0.5852859000005992,371.18264199999976,372.19554719999724,372.17895009999484,None,371.18264199999976,None,371.18264199999976,None,371.18264199999976,None,372.76223403999904,None,372.76223403999904,None,372.76223403999904,None,,,,,,,,,,,,,,107,2023-04-17_13h31.22.334,Main,2022.1.1,60.025739038101115,
negative,negative,2,j,l,,,,,,,,,8,6,150,9,,,,,,,,,main,2,2,2,negative,negative,l,l,1,0.6777049000011175,372.7668540999948,373.77639989999443,373.75975249999465,None,372.7668540999948,None,372.7668540999948,None,372.7668540999948,None,374.4430580399945,None,374.4430580399945,None,374.4430580399945,None,,,,,,,,,,,,,,107,2023-04-17_13h31.22.334,Main,2022.1.1,60.025739038101115,
neutral,positive,1,k,k,,,,,,,,,8,7,151,4,,,,,,,,,main,1,1,1,positive,neutral,k,k,1,0.6650741999983438,374.4439540999956,375.4429849999942,375.4429849999942,None,374.4439540999956,None,374.4439540999956,None,374.4439540999956,None,376.1097333399972,None,376.1097333399972,None,376.1097333399972,None,,,,,,,,,,,,,,107,2023-04-17_13h31.22.334,Main,2022.1.1,60.025739038101115,
positive,negative,2,l,j,,,,,,,,,8,8,152,14,,,,,,,,,main,1,1,2,negative,positive,j,j,1,0.6509145999953034,376.1149651999949,377.1287792000003,377.11220909999975,None,376.1149651999949,None,376.1149651999949,None,376.1149651999949,None,377.7621856399943,None,377.7621856399943,None,377.7621856399943,None,,,,,,,,,,,,,,107,2023-04-17_13h31.22.334,Main,2022.1.1,60.025739038101115,
positive,neutral,1,l,j,,,,,,,,,8,9,153,8,,,,,,,,,main,1,1,1,neutral,positive,j,k,0,0.5629260999994585,377.7654662999994,378.77877339999395,378.76217039999756,None,377.7654662999994,None,377.7654662999994,None,377.7654662999994,None,379.3288048999966,None,379.3288048999966,None,379.3288048999966,None,,,,,,,,,,,,,,107,2023-04-17_13h31.22.334,Main,2022.1.1,60.025739038101115,
positive,positive,1,l,j,,,,,,,,,8,10,154,2,,,,,,,,,main,2,2,1,positive,positive,j,j,1,0.7847817000001669,380.32691969999723,381.3287244999956,381.31216019999556,None,380.32691969999723,None,380.32691969999723,None,380.32691969999723,None,382.1099503399979,None,382.1099503399979,None,382.1099503399979,None,,,,,,,,,,,,,,107,2023-04-17_13h31.22.334,Main,2022.1.1,60.025739038101115,
neutral,negative,1,k,k,,,,,,,,,8,11,155,7,,,,,,,,,main,1,1,1,negative,neutral,k,k,1,0.6163393000024371,382.11674889999995,383.1286880999978,383.1120890999955,None,382.11674889999995,None,382.11674889999995,None,382.11674889999995,None,383.72893243999863,None,383.72893243999863,None,383.72893243999863,None,,,,,,,,,,,,,,107,2023-04-17_13h31.22.334,Main,2022.1.1,60.025739038101115,
positive,neutral,2,l,j,,,,,,,,,8,12,156,17,,,,,,,,,main,2,2,2,neutral,positive,j,j,1,0.645709700002044,383.73341269999946,384.7428033999968,384.7261501999965,None,383.73341269999946,None,383.73341269999946,None,383.73341269999946,None,385.376128739999,None,385.376128739999,None,385.376128739999,None,,,,,,,,,,,,,,107,2023-04-17_13h31.22.334,Main,2022.1.1,60.025739038101115,
neutral,neutral,1,k,k,,,,,,,,,8,13,157,1,,,,,,,,,main,2,2,1,neutral,neutral,k,k,1,0.6484716999984812,385.3760798000003,386.3761155999964,386.3761155999964,None,385.3760798000003,None,385.3760798000003,None,385.3760798000003,None,387.0261618399978,None,387.0261618399978,None,387.0261618399978,None,,,,,,,,,,,,,,107,2023-04-17_13h31.22.334,Main,2022.1.1,60.025739038101115,
negative,positive,1,j,l,,,,,,,,,8,14,158,6,,,,,,,,,main,1,1,1,positive,negative,l,l,1,0.7166359999973793,387.0278412999978,388.04282789999706,388.02614449999965,None,387.0278412999978,None,387.0278412999978,None,387.0278412999978,None,388.7453182400001,None,388.7453182400001,None,388.7453182400001,None,,,,,,,,,,,,,,107,2023-04-17_13h31.22.334,Main,2022.1.1,60.025739038101115,
neutral,positive,2,k,k,,,,,,,,,8,15,159,13,,,,,,,,,main,2,2,2,positive,neutral,k,k,1,0.6983652999988408,388.74968349999835,389.7619076999981,389.7452878999975,None,388.74968349999835,None,388.74968349999835,None,388.74968349999835,None,390.4452582399987,None,390.4452582399987,None,390.4452582399987,None,,,,,,,,,,,,,,107,2023-04-17_13h31.22.334,Main,2022.1.1,60.025739038101115,
neutral,neutral,2,k,k,,,,,,,,,8,16,160,10,,,,,,,,,main,1,1,2,neutral,neutral,k,k,1,0.6481361000041943,390.44827059999807,391.46185569999943,391.4452663999982,None,390.44827059999807,None,390.44827059999807,None,390.44827059999807,None,392.0951473399997,None,392.0951473399997,None,392.0951473399997,None,,,,,,,,,,,,,,107,2023-04-17_13h31.22.334,Main,2022.1.1,60.025739038101115,
positive,negative,1,l,j,,,,,,,,,8,17,161,5,,,,,,,,,main,2,2,1,negative,positive,j,j,1,0.6630201000007219,392.0983800999966,393.1118206999963,393.0952408999947,None,392.0983800999966,None,392.0983800999966,None,392.0983800999966,None,393.7597401399995,None,393.7597401399995,None,393.7597401399995,None,,,,,,,,,,,,,,107,2023-04-17_13h31.22.334,Main,2022.1.1,60.025739038101115,
negative,neutral,2,j,l,,,,,,,,,9,0,162,12,,,,,,,,,main,2,2,2,neutral,negative,l,l,1,0.7316875000033178,393.7655145999961,394.7784021999978,394.76179129999946,None,393.7655145999961,None,393.7655145999961,None,393.7655145999961,None,395.49296273999937,None,395.49296273999937,None,395.49296273999937,None,,,,,,,,,,,,,,107,2023-04-17_13h31.22.334,Main,2022.1.1,60.025739038101115,
neutral,negative,1,k,k,,,,,,,,,9,1,163,7,,,,,,,,,main,1,1,1,negative,neutral,k,k,1,0.5978836000067531,395.4967378000001,396.50917859999754,396.4925243999969,None,395.4967378000001,None,395.4967378000001,None,395.4967378000001,None,397.0925264400008,None,397.0925264400008,None,397.0925264400008,None,,,,,,,,,,,,,,107,2023-04-17_13h31.22.334,Main,2022.1.1,60.025739038101115,
neutral,neutral,1,k,k,,,,,,,,,9,2,164,1,,,,,,,,,main,2,2,1,neutral,neutral,k,k,1,0.565096899998025,397.0925019999995,398.09256129999994,398.09256129999994,None,397.0925019999995,None,397.0925019999995,None,397.0925019999995,None,398.6592591399982,None,398.6592591399982,None,398.6592591399982,None,,,,,,,,,,,,,,107,2023-04-17_13h31.22.334,Main,2022.1.1,60.025739038101115,
positive,neutral,2,l,j,,,,,,,,,9,3,165,17,,,,,,,,,main,2,2,2,neutral,positive,j,j,1,0.6818106999999145,398.65987909999967,399.65922569999384,399.65922569999384,None,398.65987909999967,None,398.65987909999967,None,398.65987909999967,None,400.3425743399945,None,400.3425743399945,None,400.3425743399945,None,,,,,,,,,,,,,,107,2023-04-17_13h31.22.334,Main,2022.1.1,60.025739038101115,
neutral,negative,2,k,k,,,,,,,,,9,4,166,16,,,,,,,,,main,1,1,2,negative,neutral,k,k,1,0.6840334000007715,400.3592276999989,401.3616697999969,401.34502199999406,None,400.3592276999989,None,400.3592276999989,None,400.3592276999989,None,402.0282896399964,None,402.0282896399964,None,402.0282896399964,None,,,,,,,,,,,,,,107,2023-04-17_13h31.22.334,Main,2022.1.1,60.025739038101115,
negative,negative,1,j,l,,,,,,,,,9,5,167,0,,,,,,,,,main,2,2,1,negative,negative,l,l,1,0.6818094999980531,402.031393499994,403.04492919999757,403.02836929999467,None,402.031393499994,None,402.031393499994,None,402.031393499994,None,403.7115639399941,None,403.7115639399941,None,403.7115639399941,None,,,,,,,,,,,,,,107,2023-04-17_13h31.22.334,Main,2022.1.1,60.025739038101115,
positive,positive,1,l,j,,,,,,,,,9,6,168,2,,,,,,,,,main,1,1,1,positive,positive,j,j,1,0.6961520000040764,403.7148432999966,404.72819859999436,404.7115991999963,None,403.7148432999966,None,403.7148432999966,None,403.7148432999966,None,405.4094851399947,None,405.4094851399947,None,405.4094851399947,None,,,,,,,,,,,,,,107,2023-04-17_13h31.22.334,Main,2022.1.1,60.025739038101115,
neutral,neutral,2,k,k,,,,,,,,,9,7,169,10,,,,,,,,,main,2,2,2,neutral,neutral,k,k,1,0.6506422000020393,405.41512769999827,406.42823819999467,406.41155810000055,None,405.41512769999827,None,405.41512769999827,None,405.41512769999827,None,407.06155333999925,None,407.06155333999925,None,407.06155333999925,None,,,,,,,,,,,,,,107,2023-04-17_13h31.22.334,Main,2022.1.1,60.025739038101115,
positive,negative,1,l,j,,,,,,,,,9,8,170,5,,,,,,,,,main,1,1,1,negative,positive,j,j,1,0.6956968999948003,407.0649112999963,408.0746235999977,408.05863580000005,None,407.0649112999963,None,407.0649112999963,None,407.0649112999963,None,408.758992839999,None,408.758992839999,None,408.758992839999,None,,,,,,,,,,,,,,107,2023-04-17_13h31.22.334,Main,2022.1.1,60.025739038101115,
negative,negative,2,j,l,,,,,,,,,9,9,171,9,,,,,,,,,main,2,2,2,negative,negative,l,l,1,0.6974267000041436,408.7756614999962,409.7756253999978,409.75896709999506,None,408.7756614999962,None,408.7756614999962,None,408.7756614999962,None,410.45898623999676,None,410.45898623999676,None,410.45898623999676,None,,,,,,,,,,,,,,107,2023-04-17_13h31.22.334,Main,2022.1.1,60.025739038101115,
negative,neutral,1,j,l,,,,,,,,,9,10,172,3,,,,,,,,,main,2,2,1,neutral,negative,l,l,1,0.6153540000013891,410.47564909999346,411.4756247999976,411.4589491999941,None,410.47564909999346,None,410.47564909999346,None,410.47564909999346,None,412.07567503999746,None,412.07567503999746,None,412.07567503999746,None,,,,,,,,,,,,,,107,2023-04-17_13h31.22.334,Main,2022.1.1,60.025739038101115,
positive,negative,2,l,j,,,,,,,,,9,11,173,14,,,,,,,,,main,1,1,2,negative,positive,j,j,1,0.6983286999966367,412.07887279999704,413.0781136000005,413.0781136000005,None,412.07887279999704,None,412.07887279999704,None,412.07887279999704,None,413.7756279399997,None,413.7756279399997,None,413.7756279399997,None,,,,,,,,,,,,,,107,2023-04-17_13h31.22.334,Main,2022.1.1,60.025739038101115,
positive,neutral,1,l,j,,,,,,,,,9,12,174,8,,,,,,,,,main,1,1,1,neutral,positive,j,j,1,0.7341842999958317,413.7818987999999,414.7946754999939,414.7780765999996,None,413.7818987999999,None,413.7818987999999,None,413.7818987999999,None,415.51141613999937,None,415.51141613999937,None,415.51141613999937,None,,,,,,,,,,,,,,107,2023-04-17_13h31.22.334,Main,2022.1.1,60.025739038101115,
neutral,positive,1,k,k,,,,,,,,,9,13,175,4,,,,,,,,,main,1,1,1,positive,neutral,k,k,1,0.5994589999972959,415.5143709999975,416.5279759999976,416.5113652,None,415.5143709999975,None,415.5143709999975,None,415.5143709999975,None,417.11242673999516,None,417.11242673999516,None,417.11242673999516,None,,,,,,,,,,,,,,107,2023-04-17_13h31.22.334,Main,2022.1.1,60.025739038101115,
negative,positive,1,j,l,,,,,,,,,9,14,176,6,,,,,,,,,main,1,1,1,positive,negative,l,l,1,0.7141838000025018,417.1159658999968,418.12788659999933,418.11132709999947,None,417.1159658999968,None,417.1159658999968,None,417.1159658999968,None,418.8279436399986,None,418.8279436399986,None,418.8279436399986,None,,,,,,,,,,,,,,107,2023-04-17_13h31.22.334,Main,2022.1.1,60.025739038101115,
negative,positive,2,j,l,,,,,,,,,9,15,177,15,,,,,,,,,main,2,2,2,positive,negative,l,l,1,0.6624628999998095,418.83121799999935,419.84204319999844,419.82537469999806,None,418.83121799999935,None,418.83121799999935,None,418.83121799999935,None,420.49208643999884,None,420.49208643999884,None,420.49208643999884,None,,,,,,,,,,,,,,107,2023-04-17_13h31.22.334,Main,2022.1.1,60.025739038101115,
positive,positive,2,l,j,,,,,,,,,9,16,178,11,,,,,,,,,main,2,2,2,positive,positive,j,j,1,0.682127699998091,420.4921372999961,421.4921013999992,421.4921013999992,None,420.4921372999961,None,420.4921372999961,None,420.4921372999961,None,422.1758256400004,None,422.1758256400004,None,422.1758256400004,None,,,,,,,,,,,,,,107,2023-04-17_13h31.22.334,Main,2022.1.1,60.025739038101115,
neutral,positive,2,k,k,,,,,,,,,9,17,179,13,,,,,,,,,main,2,2,2,positive,neutral,k,k,1,0.6659842000008211,422.18201769999723,423.19447979999677,423.17787329999555,None,422.18201769999723,None,422.18201769999723,None,422.18201769999723,None,423.8423994399942,None,423.8423994399942,None,423.8423994399942,None,,,,,,,,,,,,,,107,2023-04-17_13h31.22.334,Main,2022.1.1,60.025739038101115,
neutral,negative,2,k,k,,,,,,,,,10,0,180,16,,,,,,,,,main,2,2,2,negative,neutral,k,k,1,0.5802887999961968,423.8468120999969,424.86113119999936,424.84452169999713,None,423.8468120999969,None,423.8468120999969,None,423.8468120999969,None,425.4253755400001,None,425.4253755400001,None,425.4253755400001,None,,,,,,,,,,,,,,107,2023-04-17_13h31.22.334,Main,2022.1.1,60.025739038101115,
positive,positive,1,l,j,,,,,,,,,10,1,181,2,,,,,,,,,main,2,2,1,positive,positive,j,j,1,1.0340110000033746,425.4319252999994,426.4445041999934,426.42785749999894,None,425.4319252999994,None,425.4319252999994,None,425.4319252999994,None,427.46111203999465,None,427.46111203999465,None,427.46111203999465,None,,,,,,,,,,,,,,107,2023-04-17_13h31.22.334,Main,2022.1.1,60.025739038101115,
positive,neutral,2,l,j,,,,,,,,,10,2,182,17,,,,,,,,,main,1,1,2,neutral,positive,j,j,1,0.8056833000009647,427.46415929999785,428.4777022999988,428.46112609999545,None,427.46415929999785,None,427.46415929999785,None,427.46415929999785,None,429.2686145399945,None,429.2686145399945,None,429.2686145399945,None,,,,,,,,,,,,,,107,2023-04-17_13h31.22.334,Main,2022.1.1,60.025739038101115,
neutral,neutral,1,k,k,,,,,,,,,10,3,183,1,,,,,,,,,main,2,2,1,neutral,neutral,k,k,1,0.6882965999975568,429.2741020999965,430.27521509999497,430.27521509999497,None,429.2741020999965,None,429.2741020999965,None,429.2741020999965,None,430.95854234,None,430.95854234,None,430.95854234,None,,,,,,,,,,,,,,107,2023-04-17_13h31.22.334,Main,2022.1.1,60.025739038101115,
positive,negative,1,l,j,,,,,,,,,10,4,184,5,,,,,,,,,main,1,1,1,negative,positive,j,j,1,0.6484626000019489,430.95847419999336,431.9585425999976,431.9585425999976,None,430.95847419999336,None,430.95847419999336,None,430.95847419999336,None,432.6085400399985,None,432.6085400399985,None,432.6085400399985,None,,,,,,,,,,,,,,107,2023-04-17_13h31.22.334,Main,2022.1.1,60.025739038101115,
negative,positive,1,j,l,,,,,,,,,10,5,185,6,,,,,,,,,main,1,1,1,positive,negative,l,l,1,0.7154181000005337,432.6104608999958,433.6110905999958,433.6110905999958,None,432.6104608999958,None,432.6104608999958,None,432.6104608999958,None,434.32545633999837,None,434.32545633999837,None,434.32545633999837,None,,,,,,,,,,,,,,107,2023-04-17_13h31.22.334,Main,2022.1.1,60.025739038101115,
positive,negative,2,l,j,,,,,,,,,10,6,186,14,,,,,,,,,main,1,1,2,negative,positive,j,j,1,0.6817653000034625,434.3320636999997,435.34429489999457,435.32765419999487,None,434.3320636999997,None,434.3320636999997,None,434.3320636999997,None,436.0089467399972,None,436.0089467399972,None,436.0089467399972,None,,,,,,,,,,,,,,107,2023-04-17_13h31.22.334,Main,2022.1.1,60.025739038101115,
positive,positive,2,l,j,,,,,,,,,10,7,187,11,,,,,,,,,main,2,2,2,positive,positive,j,j,1,0.6167764000056195,436.01521299999877,437.02755009999964,437.0109663999974,None,436.01521299999877,None,436.01521299999877,None,436.01521299999877,None,437.627543239994,None,437.627543239994,None,437.627543239994,None,,,,,,,,,,,,,,107,2023-04-17_13h31.22.334,Main,2022.1.1,60.025739038101115,
negative,negative,2,j,l,,,,,,,,,10,8,188,9,,,,,,,,,main,1,1,2,negative,negative,l,l,1,0.7315861000024597,437.6304705999937,438.64418289999594,438.6275753999944,None,437.6304705999937,None,437.6304705999937,None,437.6304705999937,None,439.360938939995,None,439.360938939995,None,439.360938939995,None,,,,,,,,,,,,,,107,2023-04-17_13h31.22.334,Main,2022.1.1,60.025739038101115,
neutral,positive,1,k,k,,,,,,,,,10,9,189,4,,,,,,,,,main,2,2,1,positive,neutral,k,k,1,0.7627161999989767,439.3649641999946,440.3774837999954,440.3608447999941,None,439.3649641999946,None,439.3649641999946,None,439.3649641999946,None,441.12495303999606,None,441.12495303999606,None,441.12495303999606,None,,,,,,,,,,,,,,107,2023-04-17_13h31.22.334,Main,2022.1.1,60.025739038101115,
neutral,negative,1,k,k,,,,,,,,,10,10,190,7,,,,,,,,,main,2,2,1,negative,neutral,k,k,1,0.7811328999960097,441.1259490999946,442.1249611999956,442.1249611999956,None,441.1259490999946,None,441.1259490999946,None,441.1259490999946,None,442.9083711399959,None,442.9083711399959,None,442.9083711399959,None,,,,,,,,,,,,,,107,2023-04-17_13h31.22.334,Main,2022.1.1,60.025739038101115,
negative,neutral,2,j,l,,,,,,,,,10,11,191,12,,,,,,,,,main,1,1,2,neutral,negative,l,l,1,0.9340575999958673,442.91402709999966,443.9274299999961,443.91081080000004,None,442.91402709999966,None,442.91402709999966,None,442.91402709999966,None,444.84407023999813,None,444.84407023999813,None,444.84407023999813,None,,,,,,,,,,,,,,107,2023-04-17_13h31.22.334,Main,2022.1.1,60.025739038101115,
positive,neutral,1,l,j,,,,,,,,,10,12,192,8,,,,,,,,,main,2,2,1,neutral,positive,j,j,1,0.6619241000007605,444.84852359999786,445.86068890000024,445.844156799998,None,444.84852359999786,None,444.84852359999786,None,444.84852359999786,None,446.5086381399975,None,446.5086381399975,None,446.5086381399975,None,,,,,,,,,,,,,,107,2023-04-17_13h31.22.334,Main,2022.1.1,60.025739038101115,
neutral,positive,2,k,k,,,,,,,,,10,13,193,13,,,,,,,,,main,1,1,2,positive,neutral,k,k,1,0.6484457000042312,446.5142060999933,447.5273151999936,447.510715299999,None,446.5142060999933,None,446.5142060999933,None,446.5142060999933,None,448.15861433999964,None,448.15861433999964,None,448.15861433999964,None,,,,,,,,,,,,,,107,2023-04-17_13h31.22.334,Main,2022.1.1,60.025739038101115,
negative,negative,1,j,l,,,,,,,,,10,14,194,0,,,,,,,,,main,2,2,1,negative,negative,l,l,1,0.635203999998339,448.1645042999953,449.17733459999727,449.1607210999937,None,448.1645042999953,None,448.1645042999953,None,448.1645042999953,None,449.7941204399991,None,449.7941204399991,None,449.7941204399991,None,,,,,,,,,,,,,,107,2023-04-17_13h31.22.334,Main,2022.1.1,60.025739038101115,
negative,neutral,1,j,l,,,,,,,,,10,15,195,3,,,,,,,,,main,1,1,1,neutral,negative,l,l,1,0.7946807000043918,449.79826689999754,450.80808109999634,450.7914088999969,None,449.79826689999754,None,449.79826689999754,None,449.79826689999754,None,451.5914503399996,None,451.5914503399996,None,451.5914503399996,None,,,,,,,,,,,,,,107,2023-04-17_13h31.22.334,Main,2022.1.1,60.025739038101115,
negative,positive,2,j,l,,,,,,,,,10,16,196,15,,,,,,,,,main,2,2,2,positive,negative,l,l,1,0.6819054999941727,451.59142239999346,452.59143039999617,452.59143039999617,None,451.59142239999346,None,451.59142239999346,None,451.59142239999346,None,453.27478943999597,None,453.27478943999597,None,453.27478943999597,None,,,,,,,,,,,,,,107,2023-04-17_13h31.22.334,Main,2022.1.1,60.025739038101115,
neutral,neutral,2,k,k,,,,,,,,,10,17,197,10,,,,,,,,,main,1,1,2,neutral,neutral,k,k,1,0.7184653000003891,453.27529109999887,454.27478689999407,454.27478689999407,None,453.27529109999887,None,453.27529109999887,None,453.27529109999887,None,454.9939614400006,None,454.9939614400006,None,454.9939614400006,None,,,,,,,,,,,,,,107,2023-04-17_13h31.22.334,Main,2022.1.1,60.025739038101115,
positive,negative,2,l,j,,,,,,,,,11,0,198,14,,,,,,,,,main,2,2,2,negative,positive,j,j,1,0.7810471999982838,454.99804649999714,456.01049099999364,455.9939233999976,None,454.99804649999714,None,454.99804649999714,None,454.99804649999714,None,456.7773749399945,None,456.7773749399945,None,456.7773749399945,None,,,,,,,,,,,,,,107,2023-04-17_13h31.22.334,Main,2022.1.1,60.025739038101115,
negative,negative,2,j,l,,,,,,,,,11,1,199,9,,,,,,,,,main,1,1,2,negative,negative,l,l,1,0.6475453000020934,456.78241759999946,457.79386189999786,457.7772901999997,None,456.78241759999946,None,456.78241759999946,None,456.78241759999946,None,458.4271473399946,None,458.4271473399946,None,458.4271473399946,None,,,,,,,,,,,,,,107,2023-04-17_13h31.22.334,Main,2022.1.1,60.025739038101115,
negative,positive,2,j,l,,,,,,,,,11,2,200,15,,,,,,,,,main,1,1,2,positive,negative,l,l,1,0.698546499996155,458.43095059999905,459.44379659999686,459.427200099999,None,458.43095059999905,None,458.43095059999905,None,458.43095059999905,None,460.12711933999674,None,460.12711933999674,None,460.12711933999674,None,,,,,,,,,,,,,,107,2023-04-17_13h31.22.334,Main,2022.1.1,60.025739038101115,
negative,neutral,1,j,l,,,,,,,,,11,3,201,3,,,,,,,,,main,1,1,1,neutral,negative,l,l,1,1.7626278000025195,460.1295953999943,461.1437147999968,461.12711169999966,None,460.1295953999943,None,460.1295953999943,None,460.1295953999943,None,462.8911969999972,None,462.8911969999972,None,462.8911969999972,None,,,,,,,,,,,,,,107,2023-04-17_13h31.22.334,Main,2022.1.1,60.025739038101115,
positive,negative,1,l,j,,,,,,,,,11,4,202,5,,,,,,,,,main,1,1,1,negative,positive,j,j,1,0.7060338000010233,463.8912607999955,464.89363419999427,464.8770418999993,None,463.8912607999955,None,463.8912607999955,None,463.8912607999955,None,465.59380014000055,None,465.59380014000055,None,465.59380014000055,None,,,,,,,,,,,,,,107,2023-04-17_13h31.22.334,Main,2022.1.1,60.025739038101115,
neutral,positive,2,k,k,,,,,,,,,11,5,203,13,,,,,,,,,main,2,2,2,positive,neutral,k,k,1,0.6814578999983496,465.5979305000001,466.6103032999963,466.5936833999949,None,465.5979305000001,None,465.5979305000001,None,465.5979305000001,None,467.2768962399947,None,467.2768962399947,None,467.2768962399947,None,,,,,,,,,,,,,,107,2023-04-17_13h31.22.334,Main,2022.1.1,60.025739038101115,
negative,positive,1,j,l,,,,,,,,,11,6,204,6,,,,,,,,,main,1,1,1,positive,negative,l,l,1,0.6986318999988725,467.28002579999884,468.2935470999946,468.2746221999987,None,467.28002579999884,None,467.28002579999884,None,467.28002579999884,None,468.977001639994,None,468.977001639994,None,468.977001639994,None,,,,,,,,,,,,,,107,2023-04-17_13h31.22.334,Main,2022.1.1,60.025739038101115,
neutral,negative,1,k,k,,,,,,,,,11,7,205,7,,,,,,,,,main,1,1,1,negative,neutral,k,k,1,0.7813449000022956,468.9803909999973,469.99355629999627,469.9769521999988,None,468.9803909999973,None,468.9803909999973,None,468.9803909999973,None,470.7602644399973,None,470.7602644399973,None,470.7602644399973,None,,,,,,,,,,,,,,107,2023-04-17_13h31.22.334,Main,2022.1.1,60.025739038101115,
negative,neutral,2,j,l,,,,,,,,,11,8,206,12,,,,,,,,,main,2,2,2,neutral,negative,l,l,1,0.6295886999942013,470.76277229999687,471.7743063999951,471.75763749999896,None,470.76277229999687,None,470.76277229999687,None,470.76277229999687,None,472.3909694400005,None,472.3909694400005,None,472.3909694400005,None,,,,,,,,,,,,,,107,2023-04-17_13h31.22.334,Main,2022.1.1,60.025739038101115,
neutral,positive,1,k,k,,,,,,,,,11,9,207,4,,,,,,,,,main,2,2,1,positive,neutral,k,k,1,0.6667996999967727,472.39115239999956,473.3910190999959,473.3910190999959,None,472.39115239999956,None,472.39115239999956,None,472.39115239999956,None,474.0577033399983,None,474.0577033399983,None,474.0577033399983,None,,,,,,,,,,,,,,107,2023-04-17_13h31.22.334,Main,2022.1.1,60.025739038101115,
positive,neutral,1,l,j,,,,,,,,,11,10,208,8,,,,,,,,,main,2,2,1,neutral,positive,j,j,1,0.6798975999990944,474.0602037999997,475.0743516999937,475.0576954999997,None,474.0602037999997,None,474.0602037999997,None,474.0602037999997,None,475.74103523999804,None,475.74103523999804,None,475.74103523999804,None,,,,,,,,,,,,,,107,2023-04-17_13h31.22.334,Main,2022.1.1,60.025739038101115,
positive,positive,1,l,j,,,,,,,,,11,11,209,2,,,,,,,,,main,2,2,1,positive,positive,j,j,1,0.7167696000033175,475.7576747999992,476.7600026,476.74359359999653,None,475.7576747999992,None,475.7576747999992,None,475.7576747999992,None,477.46015953999597,None,477.46015953999597,None,477.46015953999597,None,,,,,,,,,,,,,,107,2023-04-17_13h31.22.334,Main,2022.1.1,60.025739038101115,
positive,positive,2,l,j,,,,,,,,,11,12,210,11,,,,,,,,,main,2,2,2,positive,positive,j,j,1,0.7150125999978627,477.46405189999496,478.4767479999937,478.46014199999627,None,477.46405189999496,None,477.46405189999496,None,477.46405189999496,None,479.17665343999545,None,479.17665343999545,None,479.17665343999545,None,,,,,,,,,,,,,,107,2023-04-17_13h31.22.334,Main,2022.1.1,60.025739038101115,
neutral,neutral,2,k,k,,,,,,,,,11,13,211,10,,,,,,,,,main,1,1,2,neutral,neutral,k,k,1,0.7131069000024581,479.18023569999787,480.19335289999435,480.1768394999963,None,479.18023569999787,None,479.18023569999787,None,479.18023569999787,None,480.89125243999445,None,480.89125243999445,None,480.89125243999445,None,,,,,,,,,,,,,,107,2023-04-17_13h31.22.334,Main,2022.1.1,60.025739038101115,
positive,neutral,2,l,j,,,,,,,,,11,14,212,17,,,,,,,,,main,1,1,2,neutral,positive,j,j,1,0.7483649999994668,480.897132399994,481.91003039999487,481.876686699994,None,480.897132399994,None,480.897132399994,None,480.897132399994,None,482.6412323399942,None,482.6412323399942,None,482.6412323399942,None,,,,,,,,,,,,,,107,2023-04-17_13h31.22.334,Main,2022.1.1,60.025739038101115,
neutral,neutral,1,k,k,,,,,,,,,11,15,213,1,,,,,,,,,main,2,2,1,neutral,neutral,k,k,1,0.6984898000009707,482.64737619999505,483.6574185999998,483.640754299995,None,482.64737619999505,None,482.64737619999505,None,482.64737619999505,None,484.3407483399948,None,484.3407483399948,None,484.3407483399948,None,,,,,,,,,,,,,,107,2023-04-17_13h31.22.334,Main,2022.1.1,60.025739038101115,
neutral,negative,2,k,k,,,,,,,,,11,16,214,16,,,,,,,,,main,2,2,2,negative,neutral,k,k,1,0.7480311999970581,484.3407165999961,485.34075719999964,485.34075719999964,None,484.3407165999961,None,484.3407165999961,None,484.3407165999961,None,486.09078113999715,None,486.09078113999715,None,486.09078113999715,None,,,,,,,,,,,,,,107,2023-04-17_13h31.22.334,Main,2022.1.1,60.025739038101115,
negative,negative,1,j,l,,,,,,,,,11,17,215,0,,,,,,,,,main,1,1,1,negative,negative,l,l,1,0.7987857999978587,486.09325199999876,487.1074410999936,487.09078439999575,None,486.09325199999876,None,486.09325199999876,None,486.09325199999876,None,487.8907780399983,None,487.8907780399983,None,487.8907780399983,None,,,,,,,,,,,,,,107,2023-04-17_13h31.22.334,Main,2022.1.1,60.025739038101115,
neutral,neutral,2,k,k,,,,,,,,,12,0,216,10,,,,,,,,,main,2,2,2,neutral,neutral,k,k,1,0.7175137999947765,487.89639799999713,488.9098939999967,488.8932965999993,None,487.89639799999713,None,487.89639799999713,None,487.89639799999713,None,489.60988083999985,None,489.60988083999985,None,489.60988083999985,None,,,,,,,,,,,,,,107,2023-04-17_13h31.22.334,Main,2022.1.1,60.025739038101115,
negative,neutral,2,j,l,,,,,,,,,12,1,217,12,,,,,,,,,main,2,2,2,neutral,negative,l,l,1,0.848226699999941,489.61297979999654,490.62648590000026,490.60985609999625,None,489.61297979999654,None,489.61297979999654,None,489.61297979999654,None,491.4577229399962,None,491.4577229399962,None,491.4577229399962,None,,,,,,,,,,,,,,107,2023-04-17_13h31.22.334,Main,2022.1.1,60.025739038101115,
neutral,negative,2,k,k,,,,,,,,,12,2,218,16,,,,,,,,,main,2,2,2,negative,neutral,k,k,1,0.6801638000033563,491.463694399994,492.4764314999993,492.45985479999945,None,491.463694399994,None,491.463694399994,None,491.463694399994,None,493.1411586400005,None,493.1411586400005,None,493.1411586400005,None,,,,,,,,,,,,,,107,2023-04-17_13h31.22.334,Main,2022.1.1,60.025739038101115,
neutral,positive,2,k,k,,,,,,,,,12,3,219,13,,,,,,,,,main,1,1,2,positive,neutral,k,k,1,0.6515530000033323,493.1470871999991,494.159696499999,494.14306229999784,None,493.1470871999991,None,493.1470871999991,None,493.1470871999991,None,494.7930535399952,None,494.7930535399952,None,494.7930535399952,None,,,,,,,,,,,,,,107,2023-04-17_13h31.22.334,Main,2022.1.1,60.025739038101115,
positive,positive,1,l,j,,,,,,,,,12,4,220,2,,,,,,,,,main,1,1,1,positive,positive,j,j,1,0.844536299999163,494.7978495999996,495.8071471999938,495.79055239999434,None,494.7978495999996,None,494.7978495999996,None,494.7978495999996,None,496.6405252399942,None,496.6405252399942,None,496.6405252399942,None,,,,,,,,,,,,,,107,2023-04-17_13h31.22.334,Main,2022.1.1,60.025739038101115,
positive,negative,2,l,j,,,,,,,,,12,5,221,14,,,,,,,,,main,1,1,2,negative,positive,j,j,1,1.015145899997151,496.6404851999978,497.64052529999753,497.64052529999753,None,496.6404851999978,None,496.6404851999978,None,496.6404851999978,None,498.6571889399944,None,498.6571889399944,None,498.6571889399944,None,,,,,,,,,,,,,,107,2023-04-17_13h31.22.334,Main,2022.1.1,60.025739038101115,
positive,neutral,2,l,j,,,,,,,,,12,6,222,17,,,,,,,,,main,1,1,2,neutral,positive,j,j,1,0.650855899999442,498.6592018999945,499.6738394999993,499.6571904999946,None,498.6592018999945,None,498.6592018999945,None,498.6592018999945,None,500.3098096400005,None,500.3098096400005,None,500.3098096400005,None,,,,,,,,,,,,,,107,2023-04-17_13h31.22.334,Main,2022.1.1,60.025739038101115,
