target,distractor,set,ans1,ans2,rep_loop2.thisRepN,rep_loop2.thisTrialN,rep_loop2.thisN,rep_loop2.thisIndex,flanker_prac_loop.thisRepN,flanker_prac_loop.thisTrialN,flanker_prac_loop.thisN,flanker_prac_loop.thisIndex,flanker_main_loop.thisRepN,flanker_main_loop.thisTrialN,flanker_main_loop.thisN,flanker_main_loop.thisIndex,fl_inst_resp.keys,fl_inst_resp.rt,sound_1.started,sound_1.stopped,image_4.started,image_4.stopped,back_2.started,back_2.stopped,main_prac,fl_cold,fl_colt,fl_set,fl_dcond,fl_tcond,fl_ans,fl_res,fl_corr,fl_rt,fix_fl.started,fix_fl.stopped,targ.started,targ.stopped,j_button.started,j_button.stopped,k_button.started,k_button.stopped,l_button.started,l_button.stopped,j_button2.started,j_button2.stopped,k_button2.started,k_button2.stopped,l_button2.started,l_button2.stopped,mainback.started,mainback.stopped,key_resp.keys,key_resp.rt,mouse_6.x,mouse_6.y,mouse_6.leftButton,mouse_6.midButton,mouse_6.rightButton,mouse_6.started,mouse_6.stopped,text_2.started,text_2.stopped,id*,date,expName,psychopyVersion,frameRate,
,,,,,0,0,0,0,,,,,,,,,space,48.35516070004087,29.613875959953294,None,77.99381859996356,None,,,,,,,,,,,,,,,,,,,,,,,,,,,,,,,,,,,,,,,,,,109,2023-04-25_13h21.40.899,Main,2022.1.1,60.24963838684266,
,,,,,1,0,1,0,,,,,,,,,space,0.23251679993700236,82.41611026001628,None,82.66223200003151,None,,,,,,,,,,,,,,,,,,,,,,,,,,,,,,,,,,,,,,,,,,109,2023-04-25_13h21.40.899,Main,2022.1.1,60.24963838684266,
positive,neutral,1,l,j,,,,,0,0,0,8,,,,,,,,,,,85.54363640001975,None,prac,2,2,1,neutral,positive,j,j,1,1.368965799920261,87.56341930001508,88.56277209997643,88.5461480000522,None,87.56341930001508,None,87.56341930001508,None,87.56341930001508,None,89.92846125999931,None,89.92846125999931,None,89.92846125999931,None,,,,,,,,,,,,,,109,2023-04-25_13h21.40.899,Main,2022.1.1,60.24963838684266,
positive,positive,1,l,j,,,,,0,1,1,2,,,,,,,,,,,,,prac,1,1,1,positive,positive,j,j,1,0.7148837000131607,89.93397340003867,90.94597160001285,90.92943390004802,None,89.93397340003867,None,89.93397340003867,None,89.93397340003867,None,91.64605945996009,None,91.64605945996009,None,91.64605945996009,None,,,,,,,,,,,,,,109,2023-04-25_13h21.40.899,Main,2022.1.1,60.24963838684266,
neutral,neutral,2,k,k,,,,,0,2,2,10,,,,,,,,,,,,,prac,1,1,2,neutral,neutral,k,k,1,0.6317574999993667,91.64873680006713,92.66265369998291,92.64604450005572,None,91.64873680006713,None,91.64873680006713,None,91.64873680006713,None,93.27806545998901,None,93.27806545998901,None,93.27806545998901,None,,,,,,,,,,,,,,109,2023-04-25_13h21.40.899,Main,2022.1.1,60.24963838684266,
positive,negative,2,l,j,,,,,0,3,3,14,,,,,,,,,,,,,prac,1,1,2,negative,positive,j,j,1,0.6639542999910191,93.28386089997366,94.29337139998097,94.27671540004667,None,93.28386089997366,None,93.28386089997366,None,93.28386089997366,None,94.9434516600566,None,94.9434516600566,None,94.9434516600566,None,,,,,,,,,,,,,,109,2023-04-25_13h21.40.899,Main,2022.1.1,60.24963838684266,
neutral,negative,2,k,k,,,,,0,4,4,16,,,,,,,,,,,,,prac,2,2,2,negative,neutral,k,k,1,0.5146720000775531,94.94401610002387,95.94344780000392,95.94344780000392,None,94.94401610002387,None,94.94401610002387,None,94.94401610002387,None,96.46015976003837,None,96.46015976003837,None,96.46015976003837,None,,,,,,,,,,,,,,109,2023-04-25_13h21.40.899,Main,2022.1.1,60.24963838684266,
positive,positive,2,l,j,,,,,0,5,5,11,,,,,,,,,,,,,prac,1,1,2,positive,positive,j,j,1,0.6677002999931574,96.46328589995392,97.46248530002777,97.44590789999347,None,96.46328589995392,None,96.46328589995392,None,96.46328589995392,None,98.12922106003388,None,98.12922106003388,None,98.12922106003388,None,,,,,,,,,,,,,,109,2023-04-25_13h21.40.899,Main,2022.1.1,60.24963838684266,
positive,neutral,2,l,j,,,,,0,6,6,17,,,,,,,,,,,,,prac,2,2,2,neutral,positive,j,j,1,0.6289761998923495,98.13688470004126,99.14578470005654,99.12919420003891,None,98.13688470004126,None,98.13688470004126,None,98.13688470004126,None,99.76016085997689,None,99.76016085997689,None,99.76016085997689,None,,,,,,,,,,,,,,109,2023-04-25_13h21.40.899,Main,2022.1.1,60.24963838684266,
neutral,positive,1,k,k,,,,,0,7,7,4,,,,,,,,,,,,,prac,2,2,1,positive,neutral,k,k,1,0.6843287999508902,99.76699380006175,100.77917570003774,100.76251110003795,None,99.76699380006175,None,99.76699380006175,None,99.76699380006175,None,101.44578836003784,None,101.44578836003784,None,101.44578836003784,None,,,,,,,,,,,,,,109,2023-04-25_13h21.40.899,Main,2022.1.1,60.24963838684266,
negative,neutral,2,j,l,,,,,0,8,8,12,,,,,,,,,,,,,prac,1,1,2,neutral,negative,l,l,1,0.7797886000480503,101.44879000005312,102.46249629999511,102.44578249996994,None,101.44879000005312,None,101.44879000005312,None,101.44879000005312,None,103.22704615998082,None,103.22704615998082,None,103.22704615998082,None,,,,,,,,,,,,,,109,2023-04-25_13h21.40.899,Main,2022.1.1,60.24963838684266,
negative,negative,2,j,l,,,,,0,9,9,9,,,,,,,,,,,,,prac,2,2,2,negative,negative,l,l,1,0.5824564000358805,103.23275730002206,104.24319030006882,104.20986940001603,None,103.23275730002206,None,103.23275730002206,None,103.23275730002206,None,104.80991976005025,None,104.80991976005025,None,104.80991976005025,None,,,,,,,,,,,,,,109,2023-04-25_13h21.40.899,Main,2022.1.1,60.24963838684266,
neutral,positive,2,k,k,,,,,0,10,10,13,,,,,,,,,,,,,prac,1,1,2,positive,neutral,k,k,1,0.5980605999939144,104.81059490004554,105.81009000004269,105.81009000004269,None,104.81059490004554,None,104.81059490004554,None,104.81059490004554,None,106.40997105995193,None,106.40997105995193,None,106.40997105995193,None,,,,,,,,,,,,,,109,2023-04-25_13h21.40.899,Main,2022.1.1,60.24963838684266,
negative,positive,2,j,l,,,,,0,11,11,15,,,,,,,,,,,,,prac,2,2,2,positive,negative,l,l,1,0.7156899999827147,106.41334850003477,107.41242020006757,107.41242020006757,None,106.41334850003477,None,106.41334850003477,None,106.41334850003477,None,108.12662476005498,None,108.12662476005498,None,108.12662476005498,None,,,,,,,,,,,,,,109,2023-04-25_13h21.40.899,Main,2022.1.1,60.24963838684266,
neutral,negative,1,k,k,,,,,0,12,12,7,,,,,,,,,,,,,prac,2,2,1,negative,neutral,k,k,1,0.600615399889648,108.13069210003596,109.14567979995627,109.12900219997391,None,108.13069210003596,None,108.13069210003596,None,108.13069210003596,None,109.72897886002902,None,109.72897886002902,None,109.72897886002902,None,,,,,,,,,,,,,,109,2023-04-25_13h21.40.899,Main,2022.1.1,60.24963838684266,
negative,positive,1,j,l,,,,,0,13,13,6,,,,,,,,,,,,,prac,2,2,1,positive,negative,l,l,1,0.7147542999591678,109.73269570001867,110.74557619995903,110.72898040001746,None,109.73269570001867,None,109.73269570001867,None,109.73269570001867,None,111.44560156001243,None,111.44560156001243,None,111.44560156001243,None,,,,,,,,,,,,,,109,2023-04-25_13h21.40.899,Main,2022.1.1,60.24963838684266,
negative,negative,1,j,l,,,,,0,14,14,0,,,,,,,,,,,,,prac,1,1,1,negative,negative,l,l,1,0.6319941999390721,111.44974089995958,112.4622076000087,112.44570839998778,None,111.44974089995958,None,111.44974089995958,None,111.44974089995958,None,113.07888956002425,None,113.07888956002425,None,113.07888956002425,None,,,,,,,,,,,,,,109,2023-04-25_13h21.40.899,Main,2022.1.1,60.24963838684266,
neutral,neutral,1,k,k,,,,,0,15,15,1,,,,,,,,,,,,,prac,1,1,1,neutral,neutral,k,k,1,0.6129804999800399,113.08168549998663,114.09300170000643,114.07633760001045,None,113.08168549998663,None,113.08168549998663,None,113.08168549998663,None,114.69303105999715,None,114.69303105999715,None,114.69303105999715,None,,,,,,,,,,,,,,109,2023-04-25_13h21.40.899,Main,2022.1.1,60.24963838684266,
negative,neutral,1,j,l,,,,,0,16,16,3,,,,,,,,,,,,,prac,2,2,1,neutral,negative,l,l,1,0.632250800030306,114.69299040001351,115.69304320006631,115.69304320006631,None,114.69299040001351,None,114.69299040001351,None,114.69299040001351,None,116.32641456003766,None,116.32641456003766,None,116.32641456003766,None,,,,,,,,,,,,,,109,2023-04-25_13h21.40.899,Main,2022.1.1,60.24963838684266,
positive,negative,1,l,j,,,,,0,17,17,5,,,,,,,,,,,,,prac,1,1,1,negative,positive,j,j,1,0.7487993000540882,116.32637809996959,117.32634859997779,117.32634859997779,None,116.32637809996959,None,116.32637809996959,None,116.32637809996959,None,118.0764387599891,None,118.0764387599891,None,118.0764387599891,None,,,,,,,,,,,,,,109,2023-04-25_13h21.40.899,Main,2022.1.1,60.24963838684266,
negative,positive,2,j,l,,,,,1,0,18,15,,,,,,,,,,,,,prac,1,1,2,positive,negative,l,l,1,0.6329282999504358,118.08034790004604,119.09544269996695,119.0622347999597,None,118.08034790004604,None,118.08034790004604,None,118.08034790004604,None,119.7103940599598,None,119.7103940599598,None,119.7103940599598,None,,,,,,,,,,,,,,109,2023-04-25_13h21.40.899,Main,2022.1.1,60.24963838684266,
neutral,positive,1,k,k,,,,,1,1,19,4,,,,,,,,,,,,,prac,2,2,1,positive,neutral,k,k,1,0.533579200040549,119.71652939997148,120.72873860003892,120.71219120000023,None,119.71652939997148,None,119.71652939997148,None,119.71652939997148,None,121.24551275996491,None,121.24551275996491,None,121.24551275996491,None,,,,,,,,,,,,,,109,2023-04-25_13h21.40.899,Main,2022.1.1,60.24963838684266,
neutral,positive,2,k,k,,,,,1,2,20,13,,,,,,,,,,,,,prac,2,2,2,positive,neutral,k,k,1,0.5485956000629812,121.24848079995718,122.26211510004941,122.2455132000614,None,121.24848079995718,None,121.24848079995718,None,121.24848079995718,None,122.79554616003297,None,122.79554616003297,None,122.79554616003297,None,,,,,,,,,,,,,,109,2023-04-25_13h21.40.899,Main,2022.1.1,60.24963838684266,
negative,positive,1,j,l,,,,,1,3,21,6,,,,,,,,,,,,,prac,1,1,1,positive,negative,l,l,1,0.6482004999415949,122.79945279995445,123.81205870001577,123.79545810003765,None,122.79945279995445,None,122.79945279995445,None,122.79945279995445,None,124.44554516004864,None,124.44554516004864,None,124.44554516004864,None,,,,,,,,,,,,,,109,2023-04-25_13h21.40.899,Main,2022.1.1,60.24963838684266,
negative,neutral,2,j,l,,,,,1,4,22,12,,,,,,,,,,,,,prac,1,1,2,neutral,negative,l,l,1,0.7457630999851972,124.4486140999943,125.46205930004362,125.4454222000204,None,124.4486140999943,None,124.4486140999943,None,124.4486140999943,None,126.19287665998563,None,126.19287665998563,None,126.19287665998563,None,,,,,,,,,,,,,,109,2023-04-25_13h21.40.899,Main,2022.1.1,60.24963838684266,
neutral,neutral,2,k,k,,,,,1,5,23,10,,,,,,,,,,,,,prac,2,2,2,neutral,neutral,k,k,1,0.6489098999882117,126.19283760001417,127.19283930002712,127.19283930002712,None,126.19283760001417,None,126.19283760001417,None,126.19283760001417,None,127.84310285998508,None,127.84310285998508,None,127.84310285998508,None,,,,,,,,,,,,,,109,2023-04-25_13h21.40.899,Main,2022.1.1,60.24963838684266,
positive,negative,2,l,j,,,,,1,6,24,14,,,,,,,,,,,,,prac,2,2,2,negative,positive,j,j,1,0.7816565000684932,127.84388040006161,128.85958960000426,128.8428217000328,None,127.84388040006161,None,127.84388040006161,None,127.84388040006161,None,129.62617085997482,None,129.62617085997482,None,129.62617085997482,None,,,,,,,,,,,,,,109,2023-04-25_13h21.40.899,Main,2022.1.1,60.24963838684266,
neutral,neutral,1,k,k,,,,,1,7,25,1,,,,,,,,,,,,,prac,1,1,1,neutral,neutral,k,k,1,0.5343467999482527,129.6263917000033,130.626140999957,130.626140999957,None,129.6263917000033,None,129.6263917000033,None,129.6263917000033,None,131.1620552599896,None,131.1620552599896,None,131.1620552599896,None,,,,,,,,,,,,,,109,2023-04-25_13h21.40.899,Main,2022.1.1,60.24963838684266,
neutral,negative,1,k,k,,,,,1,8,26,7,,,,,,,,,,,,,prac,1,1,1,negative,neutral,k,k,1,0.6134218999650329,131.16552809998393,132.1786089000525,132.16198249999434,None,131.16552809998393,None,131.16552809998393,None,131.16552809998393,None,132.77639455995524,None,132.77639455995524,None,132.77639455995524,None,,,,,,,,,,,,,,109,2023-04-25_13h21.40.899,Main,2022.1.1,60.24963838684266,
positive,neutral,1,l,j,,,,,1,9,27,8,,,,,,,,,,,,,prac,1,1,1,neutral,positive,j,j,1,0.5645807998953387,132.78302440000698,133.79520010005217,133.77859820006415,None,132.78302440000698,None,132.78302440000698,None,132.78302440000698,None,134.34279295995367,None,134.34279295995367,None,134.34279295995367,None,,,,,,,,,,,,,,109,2023-04-25_13h21.40.899,Main,2022.1.1,60.24963838684266,
neutral,negative,2,k,k,,,,,1,10,28,16,,,,,,,,,,,,,prac,1,1,2,negative,neutral,k,k,1,0.5490269000874832,134.34525230003055,135.34518609999213,135.32857899996452,None,134.34525230003055,None,134.34525230003055,None,134.34525230003055,None,135.89281336003916,None,135.89281336003916,None,135.89281336003916,None,,,,,,,,,,,,,,109,2023-04-25_13h21.40.899,Main,2022.1.1,60.24963838684266,
positive,negative,1,l,j,,,,,1,11,29,5,,,,,,,,,,,,,prac,2,2,1,negative,positive,j,j,1,0.5986668999539688,135.90265429997817,136.91176879999693,136.89520869997796,None,135.90265429997817,None,135.90265429997817,None,135.90265429997817,None,137.49270846003202,None,137.49270846003202,None,137.49270846003202,None,,,,,,,,,,,,,,109,2023-04-25_13h21.40.899,Main,2022.1.1,60.24963838684266,
negative,neutral,1,j,l,,,,,1,12,30,3,,,,,,,,,,,,,prac,1,1,1,neutral,negative,l,l,1,0.7820791000267491,137.49872340005822,138.50926149997395,138.49258950003423,None,137.49872340005822,None,137.49872340005822,None,137.49872340005822,None,139.27616016003304,None,139.27616016003304,None,139.27616016003304,None,,,,,,,,,,,,,,109,2023-04-25_13h21.40.899,Main,2022.1.1,60.24963838684266,
negative,negative,2,j,l,,,,,1,13,31,9,,,,,,,,,,,,,prac,1,1,2,negative,negative,l,l,1,0.6812639000127092,139.27857950003818,140.29262119997293,140.27626750001218,None,139.27857950003818,None,139.27857950003818,None,139.27857950003818,None,140.95927805996035,None,140.95927805996035,None,140.95927805996035,None,,,,,,,,,,,,,,109,2023-04-25_13h21.40.899,Main,2022.1.1,60.24963838684266,
positive,positive,2,l,j,,,,,1,14,32,11,,,,,,,,,,,,,prac,2,2,2,positive,positive,j,j,1,0.7322361000115052,140.95955659996253,141.9592192999553,141.9592192999553,None,140.95955659996253,None,140.95955659996253,None,140.95955659996253,None,142.69262386003976,None,142.69262386003976,None,142.69262386003976,None,,,,,,,,,,,,,,109,2023-04-25_13h21.40.899,Main,2022.1.1,60.24963838684266,
positive,neutral,2,l,j,,,,,1,15,33,17,,,,,,,,,,,,,prac,1,1,2,neutral,positive,j,j,1,0.6318905999651179,142.69609510002192,143.69512070005294,143.69512070005294,None,142.69609510002192,None,142.69609510002192,None,142.69609510002192,None,144.3259213600075,None,144.3259213600075,None,144.3259213600075,None,,,,,,,,,,,,,,109,2023-04-25_13h21.40.899,Main,2022.1.1,60.24963838684266,
positive,positive,1,l,j,,,,,1,16,34,2,,,,,,,,,,,,,prac,2,2,1,positive,positive,j,j,1,0.6855488999281079,144.32974640000612,145.3450266000582,145.32839439995587,None,144.32974640000612,None,144.32974640000612,None,144.32974640000612,None,146.01171056001914,None,146.01171056001914,None,146.01171056001914,None,,,,,,,,,,,,,,109,2023-04-25_13h21.40.899,Main,2022.1.1,60.24963838684266,
negative,negative,1,j,l,,,,,1,17,35,0,,,,,,,,,,,,,prac,2,2,1,negative,negative,l,k,0,0.5318021000130102,146.01828049996402,147.02826599997934,147.01168730005156,None,146.01828049996402,None,146.01828049996402,None,146.01828049996402,None,147.5474328000564,None,147.5474328000564,None,147.5474328000564,None,,,,,,,,,,,,,,109,2023-04-25_13h21.40.899,Main,2022.1.1,60.24963838684266,
,,,,,,,,,,,,,,,,,,,,,,,,,,,,,,,,,,,,,,,,,,,,,,,,,,,148.56162389996462,None,space,6.623271599994041,,,,,,,,,,109,2023-04-25_13h21.40.899,Main,2022.1.1,60.24963838684266,
,,,,,,,,,,,,,,,,,,,,,,,,,,,,,,,,,,,,,,,,,,,,,,,,,,,,,,,0.6925926,-0.31111112,0,0,0,0.016112159937620163,None,,,109,2023-04-25_13h21.40.899,Main,2022.1.1,60.24963838684266,
neutral,positive,2,k,k,,,,,,,,,0,0,0,13,,,,,,,155.2114604000235,None,main,2,2,2,positive,neutral,k,k,1,0.6806312000844628,157.21602569997776,158.228108100011,158.21147089998703,None,157.21602569997776,None,157.21602569997776,None,157.21602569997776,None,158.89467896004209,None,158.89467896004209,None,158.89467896004209,None,,,,,,,,,,,,,,109,2023-04-25_13h21.40.899,Main,2022.1.1,60.24963838684266,
negative,negative,1,j,l,,,,,,,,,0,1,1,0,,,,,,,,,main,2,2,1,negative,negative,l,l,1,0.6969130999641493,158.89982140006032,159.91140600002836,159.8947619999526,None,158.89982140006032,None,158.89982140006032,None,158.89982140006032,None,160.59468686005567,None,160.59468686005567,None,160.59468686005567,None,,,,,,,,,,,,,,109,2023-04-25_13h21.40.899,Main,2022.1.1,60.24963838684266,
negative,neutral,2,j,l,,,,,,,,,0,2,2,12,,,,,,,,,main,2,2,2,neutral,negative,l,l,1,0.6289075999520719,160.59858600003645,161.61134579998907,161.59474179998506,None,160.59858600003645,None,160.59858600003645,None,160.59858600003645,None,162.22546606005636,None,162.22546606005636,None,162.22546606005636,None,,,,,,,,,,,,,,109,2023-04-25_13h21.40.899,Main,2022.1.1,60.24963838684266,
positive,negative,1,l,j,,,,,,,,,0,3,3,5,,,,,,,,,main,2,2,1,negative,positive,j,j,1,0.6647526000160724,162.22924769995734,163.24214059999213,163.22546400001738,None,162.22924769995734,None,162.22924769995734,None,162.22924769995734,None,163.89215925994796,None,163.89215925994796,None,163.89215925994796,None,,,,,,,,,,,,,,109,2023-04-25_13h21.40.899,Main,2022.1.1,60.24963838684266,
positive,neutral,2,l,j,,,,,,,,,0,4,4,17,,,,,,,,,main,1,1,2,neutral,positive,j,j,1,0.7180363000370562,163.89241299999412,164.89210579998326,164.89210579998326,None,163.89241299999412,None,163.89241299999412,None,163.89241299999412,None,165.61158735998907,None,165.61158735998907,None,165.61158735998907,None,,,,,,,,,,,,,,109,2023-04-25_13h21.40.899,Main,2022.1.1,60.24963838684266,
positive,neutral,1,l,j,,,,,,,,,0,5,5,8,,,,,,,,,main,1,1,1,neutral,positive,j,j,1,0.6153533000033349,165.61588900000788,166.62793019996025,166.61132230004296,None,165.61588900000788,None,165.61588900000788,None,165.61588900000788,None,167.22806885996835,None,167.22806885996835,None,167.22806885996835,None,,,,,,,,,,,,,,109,2023-04-25_13h21.40.899,Main,2022.1.1,60.24963838684266,
positive,negative,2,l,j,,,,,,,,,0,6,6,14,,,,,,,,,main,1,1,2,negative,positive,j,j,1,0.6804890000494197,167.23206860001665,168.24454290000722,168.22794110001996,None,167.23206860001665,None,167.23206860001665,None,167.23206860001665,None,168.91118455999532,None,168.91118455999532,None,168.91118455999532,None,,,,,,,,,,,,,,109,2023-04-25_13h21.40.899,Main,2022.1.1,60.24963838684266,
negative,neutral,1,j,l,,,,,,,,,0,7,7,3,,,,,,,,,main,2,2,1,neutral,negative,l,l,1,0.6981660999590531,168.9148775000358,169.92781839997042,169.9112380000297,None,168.9148775000358,None,168.9148775000358,None,168.9148775000358,None,170.61047496001703,None,170.61047496001703,None,170.61047496001703,None,,,,,,,,,,,,,,109,2023-04-25_13h21.40.899,Main,2022.1.1,60.24963838684266,
negative,positive,2,j,l,,,,,,,,,0,8,8,15,,,,,,,,,main,2,2,2,positive,negative,l,l,1,0.6799462999915704,170.61577270005364,171.62781039997935,171.61122710001655,None,170.61577270005364,None,170.61577270005364,None,170.61577270005364,None,172.2920323600527,None,172.2920323600527,None,172.2920323600527,None,,,,,,,,,,,,,,109,2023-04-25_13h21.40.899,Main,2022.1.1,60.24963838684266,
neutral,positive,1,k,k,,,,,,,,,0,9,9,4,,,,,,,,,main,2,2,1,positive,neutral,k,k,1,0.9983661000151187,172.29862070002127,173.31107349996455,173.29451889998745,None,172.29862070002127,None,172.29862070002127,None,172.29862070002127,None,174.29189146002756,None,174.29189146002756,None,174.29189146002756,None,,,,,,,,,,,,,,109,2023-04-25_13h21.40.899,Main,2022.1.1,60.24963838684266,
neutral,negative,2,k,k,,,,,,,,,0,10,10,16,,,,,,,,,main,1,1,2,negative,neutral,k,k,1,0.6648738000076264,174.29188709997106,175.29185969999526,175.29185969999526,None,174.29188709997106,None,174.29188709997106,None,174.29188709997106,None,175.95862766001375,None,175.95862766001375,None,175.95862766001375,None,,,,,,,,,,,,,,109,2023-04-25_13h21.40.899,Main,2022.1.1,60.24963838684266,
positive,positive,1,l,j,,,,,,,,,0,11,11,2,,,,,,,,,main,1,1,1,positive,positive,j,j,1,0.649660800001584,175.96201390004717,176.961081400048,176.961081400048,None,175.96201390004717,None,175.96201390004717,None,175.96201390004717,None,177.6098698599497,None,177.6098698599497,None,177.6098698599497,None,,,,,,,,,,,,,,109,2023-04-25_13h21.40.899,Main,2022.1.1,60.24963838684266,
positive,positive,2,l,j,,,,,,,,,0,12,12,11,,,,,,,,,main,1,1,2,positive,positive,j,j,1,0.5164063000120223,177.61560260003898,178.6275807999773,178.61099730001297,None,177.61560260003898,None,177.61560260003898,None,177.61560260003898,None,179.1276407599915,None,179.1276407599915,None,179.1276407599915,None,,,,,,,,,,,,,,109,2023-04-25_13h21.40.899,Main,2022.1.1,60.24963838684266,
neutral,negative,1,k,k,,,,,,,,,0,13,13,7,,,,,,,,,main,2,2,1,negative,neutral,k,k,1,0.6152584999799728,179.1307494000066,180.14419709995855,180.12764399999287,None,179.1307494000066,None,179.1307494000066,None,179.1307494000066,None,180.74439396006056,None,180.74439396006056,None,180.74439396006056,None,,,,,,,,,,,,,,109,2023-04-25_13h21.40.899,Main,2022.1.1,60.24963838684266,
negative,negative,2,j,l,,,,,,,,,0,14,14,9,,,,,,,,,main,2,2,2,negative,negative,l,l,1,0.6470644000219181,180.75487419997808,181.76093049999326,181.74426069995388,None,180.75487419997808,None,180.75487419997808,None,180.75487419997808,None,182.3943347599823,None,182.3943347599823,None,182.3943347599823,None,,,,,,,,,,,,,,109,2023-04-25_13h21.40.899,Main,2022.1.1,60.24963838684266,
neutral,neutral,1,k,k,,,,,,,,,0,15,15,1,,,,,,,,,main,1,1,1,neutral,neutral,k,k,1,0.6625296999700367,182.3974458000157,183.4083077000687,183.39164809999056,None,182.3974458000157,None,182.3974458000157,None,182.3974458000157,None,184.05834596005735,None,184.05834596005735,None,184.05834596005735,None,,,,,,,,,,,,,,109,2023-04-25_13h21.40.899,Main,2022.1.1,60.24963838684266,
neutral,neutral,2,k,k,,,,,,,,,0,16,16,10,,,,,,,,,main,2,2,2,neutral,neutral,k,k,1,0.581635499955155,184.05845959996805,185.05835109995678,185.05835109995678,None,184.05845959996805,None,184.05845959996805,None,184.05845959996805,None,185.64173505997752,None,185.64173505997752,None,185.64173505997752,None,,,,,,,,,,,,,,109,2023-04-25_13h21.40.899,Main,2022.1.1,60.24963838684266,
negative,positive,1,j,l,,,,,,,,,0,17,17,6,,,,,,,,,main,1,1,1,positive,negative,l,l,1,0.6987679000012577,185.64174850005656,186.64165879995562,186.64165879995562,None,185.64174850005656,None,185.64174850005656,None,185.64174850005656,None,187.34173256002833,None,187.34173256002833,None,187.34173256002833,None,,,,,,,,,,,,,,109,2023-04-25_13h21.40.899,Main,2022.1.1,60.24963838684266,
negative,positive,1,j,l,,,,,,,,,1,0,18,6,,,,,,,,,main,1,1,1,positive,negative,l,l,1,0.5994912000605837,187.34499749995302,188.34433089999948,188.34433089999948,None,187.34499749995302,None,187.34499749995302,None,187.34499749995302,None,188.94275666000323,None,188.94275666000323,None,188.94275666000323,None,,,,,,,,,,,,,,109,2023-04-25_13h21.40.899,Main,2022.1.1,60.24963838684266,
negative,positive,2,j,l,,,,,,,,,1,1,19,15,,,,,,,,,main,2,2,2,positive,negative,l,l,1,0.499699900043197,188.9488101999741,189.96079140005168,189.9441876000492,None,188.9488101999741,None,188.9488101999741,None,188.9488101999741,None,190.4440961599583,None,190.4440961599583,None,190.4440961599583,None,,,,,,,,,,,,,,109,2023-04-25_13h21.40.899,Main,2022.1.1,60.24963838684266,
positive,negative,2,l,j,,,,,,,,,1,2,20,14,,,,,,,,,main,2,2,2,negative,positive,j,j,1,0.6458487999625504,190.447355399956,191.4607624000637,191.44418440002482,None,190.447355399956,None,190.447355399956,None,190.447355399956,None,192.09174916003832,None,192.09174916003832,None,192.09174916003832,None,,,,,,,,,,,,,,109,2023-04-25_13h21.40.899,Main,2022.1.1,60.24963838684266,
positive,neutral,2,l,j,,,,,,,,,1,3,21,17,,,,,,,,,main,2,2,2,neutral,positive,j,j,1,0.5509547999827191,192.09841960004997,193.11064289999194,193.0773923000088,None,192.09841960004997,None,192.09841960004997,None,192.09841960004997,None,193.64406436001883,None,193.64406436001883,None,193.64406436001883,None,,,,,,,,,,,,,,109,2023-04-25_13h21.40.899,Main,2022.1.1,60.24963838684266,
positive,positive,2,l,j,,,,,,,,,1,4,22,11,,,,,,,,,main,2,2,2,positive,positive,j,j,1,0.5463075999869034,193.64725300006103,194.6606211999897,194.64400480000768,None,193.64725300006103,None,193.64725300006103,None,193.64725300006103,None,195.19184566005134,None,195.19184566005134,None,195.19184566005134,None,,,,,,,,,,,,,,109,2023-04-25_13h21.40.899,Main,2022.1.1,60.24963838684266,
positive,positive,1,l,j,,,,,,,,,1,5,23,2,,,,,,,,,main,2,2,1,positive,positive,j,j,1,0.598085799952969,195.1978519000113,196.20810980000533,196.19174419995397,None,195.1978519000113,None,195.1978519000113,None,195.1978519000113,None,196.79144125997556,None,196.79144125997556,None,196.79144125997556,None,,,,,,,,,,,,,,109,2023-04-25_13h21.40.899,Main,2022.1.1,60.24963838684266,
negative,negative,1,j,l,,,,,,,,,1,6,24,0,,,,,,,,,main,2,2,1,negative,negative,l,l,1,0.6976613000733778,196.79243979998864,197.7914829000365,197.7914829000365,None,196.79243979998864,None,196.79243979998864,None,196.79243979998864,None,198.4914971600054,None,198.4914971600054,None,198.4914971600054,None,,,,,,,,,,,,,,109,2023-04-25_13h21.40.899,Main,2022.1.1,60.24963838684266,
negative,neutral,2,j,l,,,,,,,,,1,7,25,12,,,,,,,,,main,2,2,2,neutral,negative,l,l,1,0.5659649999579415,198.50814080005512,199.5105942999944,199.4773014000384,None,198.50814080005512,None,198.50814080005512,None,198.50814080005512,None,200.05877136003693,None,200.05877136003693,None,200.05877136003693,None,,,,,,,,,,,,,,109,2023-04-25_13h21.40.899,Main,2022.1.1,60.24963838684266,
neutral,neutral,2,k,k,,,,,,,,,1,8,26,10,,,,,,,,,main,1,1,2,neutral,neutral,k,k,1,0.60020819993224,200.06505450000986,201.0772275000345,201.0606103000464,None,200.06505450000986,None,200.06505450000986,None,200.06505450000986,None,201.6605983599555,None,201.6605983599555,None,201.6605983599555,None,,,,,,,,,,,,,,109,2023-04-25_13h21.40.899,Main,2022.1.1,60.24963838684266,
neutral,positive,2,k,k,,,,,,,,,1,9,27,13,,,,,,,,,main,2,2,2,positive,neutral,k,k,1,0.5475444999756292,201.6649569000583,202.67718270001933,202.66058939998038,None,201.6649569000583,None,201.6649569000583,None,201.6649569000583,None,203.21052316001152,None,203.21052316001152,None,203.21052316001152,None,,,,,,,,,,,,,,109,2023-04-25_13h21.40.899,Main,2022.1.1,60.24963838684266,
negative,negative,2,j,l,,,,,,,,,1,10,28,9,,,,,,,,,main,2,2,2,negative,negative,l,l,1,0.5816023000515997,203.21459910005797,204.22710909997113,204.21050479996484,None,203.21459910005797,None,203.21459910005797,None,203.21459910005797,None,204.7937585600419,None,204.7937585600419,None,204.7937585600419,None,,,,,,,,,,,,,,109,2023-04-25_13h21.40.899,Main,2022.1.1,60.24963838684266,
neutral,positive,1,k,k,,,,,,,,,1,11,29,4,,,,,,,,,main,1,1,1,positive,neutral,k,k,1,0.5952296999748796,204.79804130003322,205.80796460004058,205.7914689000463,None,204.79804130003322,None,204.79804130003322,None,204.79804130003322,None,206.3913330600597,None,206.3913330600597,None,206.3913330600597,None,,,,,,,,,,,,,,109,2023-04-25_13h21.40.899,Main,2022.1.1,60.24963838684266,
neutral,negative,2,k,k,,,,,,,,,1,12,30,16,,,,,,,,,main,2,2,2,negative,neutral,k,k,1,0.6151865000138059,206.3922406999627,207.39125200000126,207.39125200000126,None,206.3922406999627,None,206.3922406999627,None,206.3922406999627,None,208.00824685995468,None,208.00824685995468,None,208.00824685995468,None,,,,,,,,,,,,,,109,2023-04-25_13h21.40.899,Main,2022.1.1,60.24963838684266,
neutral,neutral,1,k,k,,,,,,,,,1,13,31,1,,,,,,,,,main,2,2,1,neutral,neutral,k,k,1,0.533859399962239,208.01178080006503,209.02705150004476,209.01045940001495,None,208.01178080006503,None,208.01178080006503,None,208.01178080006503,None,209.54377626006027,None,209.54377626006027,None,209.54377626006027,None,,,,,,,,,,,,,,109,2023-04-25_13h21.40.899,Main,2022.1.1,60.24963838684266,
neutral,negative,1,k,k,,,,,,,,,1,14,32,7,,,,,,,,,main,1,1,1,negative,neutral,k,k,1,0.4982114000013098,209.54704560001846,210.5603624000214,210.5437755000312,None,209.54704560001846,None,209.54704560001846,None,209.54704560001846,None,211.0437272600364,None,211.0437272600364,None,211.0437272600364,None,,,,,,,,,,,,,,109,2023-04-25_13h21.40.899,Main,2022.1.1,60.24963838684266,
positive,neutral,1,l,j,,,,,,,,,1,15,33,8,,,,,,,,,main,2,2,1,neutral,positive,j,j,1,0.648586800089106,211.04668320005294,212.06031329999678,212.0437363999663,None,211.04668320005294,None,211.04668320005294,None,211.04668320005294,None,212.69381136000158,None,212.69381136000158,None,212.69381136000158,None,,,,,,,,,,,,,,109,2023-04-25_13h21.40.899,Main,2022.1.1,60.24963838684266,
positive,negative,1,l,j,,,,,,,,,1,16,34,5,,,,,,,,,main,1,1,1,negative,positive,j,j,1,0.6136136000277475,212.69711930002086,213.71030809998047,213.69369690003805,None,212.69711930002086,None,212.69711930002086,None,212.69711930002086,None,214.3091734599555,None,214.3091734599555,None,214.3091734599555,None,,,,,,,,,,,,,,109,2023-04-25_13h21.40.899,Main,2022.1.1,60.24963838684266,
negative,neutral,1,j,l,,,,,,,,,1,17,35,3,,,,,,,,,main,1,1,1,neutral,negative,l,l,1,0.7152475999901071,214.3148759000469,215.32700269995257,215.30999730003532,None,214.3148759000469,None,214.3148759000469,None,214.3148759000469,None,216.02438376001083,None,216.02438376001083,None,216.02438376001083,None,,,,,,,,,,,,,,109,2023-04-25_13h21.40.899,Main,2022.1.1,60.24963838684266,
neutral,positive,2,k,k,,,,,,,,,2,0,36,13,,,,,,,,,main,2,2,2,positive,neutral,k,k,1,1.0482937999768183,216.02601170004345,217.04103379999287,217.02437030000146,None,216.02601170004345,None,216.02601170004345,None,216.02601170004345,None,218.07450596005657,None,218.07450596005657,None,218.07450596005657,None,,,,,,,,,,,,,,109,2023-04-25_13h21.40.899,Main,2022.1.1,60.24963838684266,
neutral,negative,1,k,k,,,,,,,,,2,1,37,7,,,,,,,,,main,2,2,1,negative,neutral,k,k,1,0.5992991999955848,218.07931970001664,219.09346500004176,219.0768650000682,None,218.07931970001664,None,218.07931970001664,None,218.07931970001664,None,219.6769203600241,None,219.6769203600241,None,219.6769203600241,None,,,,,,,,,,,,,,109,2023-04-25_13h21.40.899,Main,2022.1.1,60.24963838684266,
positive,positive,2,l,j,,,,,,,,,2,2,38,11,,,,,,,,,main,1,1,2,positive,positive,j,j,1,0.6488033999921754,219.6801012000069,220.69343740004115,220.67689590004738,None,219.6801012000069,None,219.6801012000069,None,219.6801012000069,None,221.32690046001227,None,221.32690046001227,None,221.32690046001227,None,,,,,,,,,,,,,,109,2023-04-25_13h21.40.899,Main,2022.1.1,60.24963838684266,
negative,positive,2,j,l,,,,,,,,,2,3,39,15,,,,,,,,,main,2,2,2,positive,negative,l,l,1,0.5956143999937922,221.3307688999921,222.34347149997484,222.32683539995924,None,221.3307688999921,None,221.3307688999921,None,221.3307688999921,None,222.92436796003022,None,222.92436796003022,None,222.92436796003022,None,,,,,,,,,,,,,,109,2023-04-25_13h21.40.899,Main,2022.1.1,60.24963838684266,
neutral,neutral,2,k,k,,,,,,,,,2,4,40,10,,,,,,,,,main,2,2,2,neutral,neutral,k,k,1,0.5651429999852553,222.9280588000547,223.9434370000381,223.926796499989,None,222.9280588000547,None,222.9280588000547,None,222.9280588000547,None,224.49119196000976,None,224.49119196000976,None,224.49119196000976,None,,,,,,,,,,,,,,109,2023-04-25_13h21.40.899,Main,2022.1.1,60.24963838684266,
neutral,negative,2,k,k,,,,,,,,,2,5,41,16,,,,,,,,,main,2,2,2,negative,neutral,k,k,1,0.5650595999322832,224.49761439999565,225.50609669997357,225.50609669997357,None,224.49761439999565,None,224.49761439999565,None,224.49761439999565,None,226.05782616005746,None,226.05782616005746,None,226.05782616005746,None,,,,,,,,,,,,,,109,2023-04-25_13h21.40.899,Main,2022.1.1,60.24963838684266,
positive,positive,1,l,j,,,,,,,,,2,6,42,2,,,,,,,,,main,1,1,1,positive,positive,j,j,1,0.6482539999997243,226.05787120002788,227.05763090006076,227.05763090006076,None,226.05787120002788,None,226.05787120002788,None,226.05787120002788,None,227.7075698599918,None,227.7075698599918,None,227.7075698599918,None,,,,,,,,,,,,,,109,2023-04-25_13h21.40.899,Main,2022.1.1,60.24963838684266,
positive,neutral,2,l,j,,,,,,,,,2,7,43,17,,,,,,,,,main,1,1,2,neutral,positive,j,j,1,0.6151658999733627,227.70831580006052,228.70752659998834,228.70752659998834,None,227.70831580006052,None,227.70831580006052,None,227.70831580006052,None,229.32422105998268,None,229.32422105998268,None,229.32422105998268,None,,,,,,,,,,,,,,109,2023-04-25_13h21.40.899,Main,2022.1.1,60.24963838684266,
neutral,positive,1,k,k,,,,,,,,,2,8,44,4,,,,,,,,,main,1,1,1,positive,neutral,k,k,1,0.5505113999824971,229.32503910001833,230.3241851000348,230.3241851000348,None,229.32503910001833,None,229.32503910001833,None,229.32503910001833,None,230.87666155998596,None,230.87666155998596,None,230.87666155998596,None,,,,,,,,,,,,,,109,2023-04-25_13h21.40.899,Main,2022.1.1,60.24963838684266,
positive,negative,1,l,j,,,,,,,,,2,9,45,5,,,,,,,,,main,1,1,1,negative,positive,j,j,1,0.6123351999558508,230.88157590001356,231.8932802999625,231.87670410005376,None,230.88157590001356,None,230.88157590001356,None,230.88157590001356,None,232.4914658599999,None,232.4914658599999,None,232.4914658599999,None,,,,,,,,,,,,,,109,2023-04-25_13h21.40.899,Main,2022.1.1,60.24963838684266,
negative,neutral,2,j,l,,,,,,,,,2,10,46,12,,,,,,,,,main,2,2,2,neutral,negative,l,l,1,0.6152088999515399,232.49757620005403,233.50992750003934,233.49333249998745,None,232.49757620005403,None,232.49757620005403,None,232.49757620005403,None,234.10797815998086,None,234.10797815998086,None,234.10797815998086,None,,,,,,,,,,,,,,109,2023-04-25_13h21.40.899,Main,2022.1.1,60.24963838684266,
positive,neutral,1,l,j,,,,,,,,,2,11,47,8,,,,,,,,,main,1,1,1,neutral,positive,j,j,1,0.6488149999640882,234.11441819998436,235.12652429996524,235.10995449998882,None,234.11441819998436,None,234.11441819998436,None,234.11441819998436,None,235.75873665995897,None,235.75873665995897,None,235.75873665995897,None,,,,,,,,,,,,,,109,2023-04-25_13h21.40.899,Main,2022.1.1,60.24963838684266,
negative,negative,1,j,l,,,,,,,,,2,12,48,0,,,,,,,,,main,1,1,1,negative,negative,l,l,1,0.6318350000074133,235.76427839999087,236.7764985000249,236.75992219999898,None,235.76427839999087,None,235.76427839999087,None,235.76427839999087,None,237.39192406001968,None,237.39192406001968,None,237.39192406001968,None,,,,,,,,,,,,,,109,2023-04-25_13h21.40.899,Main,2022.1.1,60.24963838684266,
positive,negative,2,l,j,,,,,,,,,2,13,49,14,,,,,,,,,main,2,2,2,negative,positive,j,j,1,0.6471405000193045,237.40753450000193,238.4072884999914,238.3907562000677,None,237.40753450000193,None,237.40753450000193,None,237.40753450000193,None,239.0406693600351,None,239.0406693600351,None,239.0406693600351,None,,,,,,,,,,,,,,109,2023-04-25_13h21.40.899,Main,2022.1.1,60.24963838684266,
negative,negative,2,j,l,,,,,,,,,2,14,50,9,,,,,,,,,main,1,1,2,negative,negative,l,l,1,0.6485408999724314,239.04058659996372,240.04064659995493,240.04064659995493,None,239.04058659996372,None,239.04058659996372,None,239.04058659996372,None,240.69066706004088,None,240.69066706004088,None,240.69066706004088,None,,,,,,,,,,,,,,109,2023-04-25_13h21.40.899,Main,2022.1.1,60.24963838684266,
neutral,neutral,1,k,k,,,,,,,,,2,15,51,1,,,,,,,,,main,2,2,1,neutral,neutral,k,k,1,0.6321916999295354,240.69096609996632,241.69061569997575,241.69061569997575,None,240.69096609996632,None,240.69096609996632,None,240.69096609996632,None,242.32416756004096,None,242.32416756004096,None,242.32416756004096,None,,,,,,,,,,,,,,109,2023-04-25_13h21.40.899,Main,2022.1.1,60.24963838684266,
negative,neutral,1,j,l,,,,,,,,,2,16,52,3,,,,,,,,,main,1,1,1,neutral,negative,l,l,1,0.7479173999745399,242.32851240003947,243.34307229996193,243.32646919996478,None,242.32851240003947,None,242.32851240003947,None,242.32851240003947,None,244.0740476600593,None,244.0740476600593,None,244.0740476600593,None,,,,,,,,,,,,,,109,2023-04-25_13h21.40.899,Main,2022.1.1,60.24963838684266,
negative,positive,1,j,l,,,,,,,,,2,17,53,6,,,,,,,,,main,2,2,1,positive,negative,l,l,1,0.6342768999747932,244.08089480001945,245.09302589995787,245.0764293000102,None,244.08089480001945,None,244.08089480001945,None,244.08089480001945,None,245.70966115996708,None,245.70966115996708,None,245.70966115996708,None,,,,,,,,,,,,,,109,2023-04-25_13h21.40.899,Main,2022.1.1,60.24963838684266,
positive,positive,1,l,j,,,,,,,,,3,0,54,2,,,,,,,,,main,1,1,1,positive,positive,j,j,1,0.613251099945046,245.71296739997342,246.7263405000558,246.70972489996348,None,245.71296739997342,None,245.71296739997342,None,245.71296739997342,None,247.32448636002374,None,247.32448636002374,None,247.32448636002374,None,,,,,,,,,,,,,,109,2023-04-25_13h21.40.899,Main,2022.1.1,60.24963838684266,
negative,positive,2,j,l,,,,,,,,,3,1,55,15,,,,,,,,,main,2,2,2,positive,negative,l,l,1,0.6336256000213325,247.33089900005143,248.34301059995778,248.32635940006003,None,247.33089900005143,None,247.33089900005143,None,247.33089900005143,None,248.95966596000363,None,248.95966596000363,None,248.95966596000363,None,,,,,,,,,,,,,,109,2023-04-25_13h21.40.899,Main,2022.1.1,60.24963838684266,
negative,negative,2,j,l,,,,,,,,,3,2,56,9,,,,,,,,,main,2,2,2,negative,negative,l,l,1,0.6123294999124482,248.96306820004247,249.97374879999552,249.95706709998194,None,248.96306820004247,None,248.96306820004247,None,248.96306820004247,None,250.57377256006004,None,250.57377256006004,None,250.57377256006004,None,,,,,,,,,,,,,,109,2023-04-25_13h21.40.899,Main,2022.1.1,60.24963838684266,
negative,neutral,1,j,l,,,,,,,,,3,3,57,3,,,,,,,,,main,2,2,1,neutral,negative,l,l,1,0.6151632000692189,250.5744102000026,251.57370860001538,251.57370860001538,None,250.5744102000026,None,250.5744102000026,None,250.5744102000026,None,252.19045076002368,None,252.19045076002368,None,252.19045076002368,None,,,,,,,,,,,,,,109,2023-04-25_13h21.40.899,Main,2022.1.1,60.24963838684266,
negative,negative,1,j,l,,,,,,,,,3,4,58,0,,,,,,,,,main,1,1,1,negative,negative,l,l,1,0.6148878000676632,252.1911781000672,253.1907063999679,253.1907063999679,None,252.1911781000672,None,252.1911781000672,None,252.1911781000672,None,253.80710456003436,None,253.80710456003436,None,253.80710456003436,None,,,,,,,,,,,,,,109,2023-04-25_13h21.40.899,Main,2022.1.1,60.24963838684266,
neutral,positive,2,k,k,,,,,,,,,3,5,59,13,,,,,,,,,main,2,2,2,positive,neutral,k,k,1,0.6477291999617592,253.81137949996628,254.8261988000013,254.80961050000042,None,253.81137949996628,None,253.81137949996628,None,253.81137949996628,None,255.4571315600304,None,255.4571315600304,None,255.4571315600304,None,,,,,,,,,,,,,,109,2023-04-25_13h21.40.899,Main,2022.1.1,60.24963838684266,
neutral,positive,1,k,k,,,,,,,,,3,6,60,4,,,,,,,,,main,2,2,1,positive,neutral,k,k,1,0.5984924000222236,255.46352300001308,256.47611759998836,256.45949290005956,None,255.46352300001308,None,255.46352300001308,None,255.46352300001308,None,257.05716586003547,None,257.05716586003547,None,257.05716586003547,None,,,,,,,,,,,,,,109,2023-04-25_13h21.40.899,Main,2022.1.1,60.24963838684266,
positive,positive,2,l,j,,,,,,,,,3,7,61,11,,,,,,,,,main,2,2,2,positive,positive,j,j,1,0.714923599967733,257.06391589995474,258.0761487999698,258.05952789995354,None,257.06391589995474,None,257.06391589995474,None,257.06391589995474,None,258.77382925997955,None,258.77382925997955,None,258.77382925997955,None,,,,,,,,,,,,,,109,2023-04-25_13h21.40.899,Main,2022.1.1,60.24963838684266,
negative,neutral,2,j,l,,,,,,,,,3,8,62,12,,,,,,,,,main,1,1,2,neutral,negative,l,l,1,0.6506858000066131,258.78006929997355,259.7927441999782,259.7761365000624,None,258.78006929997355,None,258.78006929997355,None,258.78006929997355,None,260.42617306003814,None,260.42617306003814,None,260.42617306003814,None,,,,,,,,,,,,,,109,2023-04-25_13h21.40.899,Main,2022.1.1,60.24963838684266,
neutral,negative,1,k,k,,,,,,,,,3,9,63,7,,,,,,,,,main,1,1,1,negative,neutral,k,k,1,0.6461577999871224,260.4290515000466,261.44264440005645,261.42609439999796,None,260.4290515000466,None,260.4290515000466,None,260.4290515000466,None,262.07380276005716,None,262.07380276005716,None,262.07380276005716,None,,,,,,,,,,,,,,109,2023-04-25_13h21.40.899,Main,2022.1.1,60.24963838684266,
neutral,neutral,1,k,k,,,,,,,,,3,10,64,1,,,,,,,,,main,2,2,1,neutral,neutral,k,k,1,0.5645645000040531,262.07394000003114,263.073499500053,263.073499500053,None,262.07394000003114,None,262.07394000003114,None,262.07394000003114,None,263.64021036000923,None,263.64021036000923,None,263.64021036000923,None,,,,,,,,,,,,,,109,2023-04-25_13h21.40.899,Main,2022.1.1,60.24963838684266,
positive,negative,2,l,j,,,,,,,,,3,11,65,14,,,,,,,,,main,1,1,2,negative,positive,j,j,1,0.6821681000292301,263.64131750003435,264.6568277999759,264.64013820001855,None,263.64131750003435,None,263.64131750003435,None,263.64131750003435,None,265.3235294599552,None,265.3235294599552,None,265.3235294599552,None,,,,,,,,,,,,,,109,2023-04-25_13h21.40.899,Main,2022.1.1,60.24963838684266,
negative,positive,1,j,l,,,,,,,,,3,12,66,6,,,,,,,,,main,1,1,1,positive,negative,l,l,1,0.7155122000258416,265.3245772999944,266.3401407999918,266.3234614999965,None,265.3245772999944,None,265.3245772999944,None,265.3245772999944,None,267.04085576005747,None,267.04085576005747,None,267.04085576005747,None,,,,,,,,,,,,,,109,2023-04-25_13h21.40.899,Main,2022.1.1,60.24963838684266,
neutral,neutral,2,k,k,,,,,,,,,3,13,67,10,,,,,,,,,main,2,2,2,neutral,neutral,k,k,1,0.6311605999944732,267.046971200034,268.0592555999756,268.04264190001413,None,267.046971200034,None,267.046971200034,None,267.046971200034,None,268.6735108600231,None,268.6735108600231,None,268.6735108600231,None,,,,,,,,,,,,,,109,2023-04-25_13h21.40.899,Main,2022.1.1,60.24963838684266,
neutral,negative,2,k,k,,,,,,,,,3,14,68,16,,,,,,,,,main,1,1,2,negative,neutral,k,k,1,0.6319414000026882,268.67999680002686,269.69255489995703,269.67594390001614,None,268.67999680002686,None,268.67999680002686,None,268.67999680002686,None,270.3073395599611,None,270.3073395599611,None,270.3073395599611,None,,,,,,,,,,,,,,109,2023-04-25_13h21.40.899,Main,2022.1.1,60.24963838684266,
positive,negative,1,l,j,,,,,,,,,3,15,69,5,,,,,,,,,main,2,2,1,negative,positive,j,j,1,0.633731999900192,270.31388719996903,271.32583720004186,271.3092021000339,None,270.31388719996903,None,270.31388719996903,None,270.31388719996903,None,271.94250695996453,None,271.94250695996453,None,271.94250695996453,None,,,,,,,,,,,,,,109,2023-04-25_13h21.40.899,Main,2022.1.1,60.24963838684266,
positive,neutral,1,l,j,,,,,,,,,3,16,70,8,,,,,,,,,main,2,2,1,neutral,positive,j,j,1,0.5318222000496462,271.9456383000361,272.95912989997305,272.94255280005746,None,271.9456383000361,None,271.9456383000361,None,271.9456383000361,None,273.4758323600516,None,273.4758323600516,None,273.4758323600516,None,,,,,,,,,,,,,,109,2023-04-25_13h21.40.899,Main,2022.1.1,60.24963838684266,
positive,neutral,2,l,j,,,,,,,,,3,17,71,17,,,,,,,,,main,2,2,2,neutral,positive,j,j,1,0.679065499920398,273.4786989999702,274.4898494000081,274.4731826999923,None,273.4786989999702,None,273.4786989999702,None,273.4786989999702,None,275.15658516001423,None,275.15658516001423,None,275.15658516001423,None,,,,,,,,,,,,,,109,2023-04-25_13h21.40.899,Main,2022.1.1,60.24963838684266,
neutral,neutral,1,k,k,,,,,,,,,4,0,72,1,,,,,,,,,main,2,2,1,neutral,neutral,k,k,1,0.599681599996984,275.15650270006154,276.1565566000063,276.1565566000063,None,275.15650270006154,None,275.15650270006154,None,275.15650270006154,None,276.75661075995305,None,276.75661075995305,None,276.75661075995305,None,,,,,,,,,,,,,,109,2023-04-25_13h21.40.899,Main,2022.1.1,60.24963838684266,
neutral,positive,2,k,k,,,,,,,,,4,1,73,13,,,,,,,,,main,2,2,2,positive,neutral,k,k,1,0.6142102000303566,276.7580743000144,277.7732076999964,277.75653250003234,None,276.7580743000144,None,276.7580743000144,None,276.7580743000144,None,278.37326096005273,None,278.37326096005273,None,278.37326096005273,None,,,,,,,,,,,,,,109,2023-04-25_13h21.40.899,Main,2022.1.1,60.24963838684266,
negative,negative,2,j,l,,,,,,,,,4,2,74,9,,,,,,,,,main,2,2,2,negative,negative,l,l,1,0.7010568999685347,278.3764139000559,279.3757738999557,279.3757738999557,None,278.3764139000559,None,278.3764139000559,None,278.3764139000559,None,280.075742560043,None,280.075742560043,None,280.075742560043,None,,,,,,,,,,,,,,109,2023-04-25_13h21.40.899,Main,2022.1.1,60.24963838684266,
negative,neutral,1,j,l,,,,,,,,,4,3,75,3,,,,,,,,,main,2,2,1,neutral,negative,l,l,1,0.5981338999699801,280.07894839998335,281.0923103999812,281.07565839996096,None,280.07894839998335,None,280.07894839998335,None,280.07894839998335,None,281.67573575996795,None,281.67573575996795,None,281.67573575996795,None,,,,,,,,,,,,,,109,2023-04-25_13h21.40.899,Main,2022.1.1,60.24963838684266,
positive,positive,2,l,j,,,,,,,,,4,4,76,11,,,,,,,,,main,2,2,2,positive,positive,j,j,1,0.6807999999728054,281.6796484000515,282.69228109996766,282.6756830000086,None,281.6796484000515,None,281.6796484000515,None,281.6796484000515,None,283.3586219599936,None,283.3586219599936,None,283.3586219599936,None,,,,,,,,,,,,,,109,2023-04-25_13h21.40.899,Main,2022.1.1,60.24963838684266,
neutral,neutral,2,k,k,,,,,,,,,4,5,77,10,,,,,,,,,main,2,2,2,neutral,neutral,k,k,1,0.5975062999641523,283.3635061000241,284.37559830001555,284.358979600016,None,283.3635061000241,None,283.3635061000241,None,283.3635061000241,None,284.9576909599826,None,284.9576909599826,None,284.9576909599826,None,,,,,,,,,,,,,,109,2023-04-25_13h21.40.899,Main,2022.1.1,60.24963838684266,
positive,negative,1,l,j,,,,,,,,,4,6,78,5,,,,,,,,,main,2,2,1,negative,positive,j,j,1,0.6301944999722764,284.9635837000096,285.97297200001776,285.9563105000416,None,284.9635837000096,None,284.9635837000096,None,284.9635837000096,None,286.5897241599858,None,286.5897241599858,None,286.5897241599858,None,,,,,,,,,,,,,,109,2023-04-25_13h21.40.899,Main,2022.1.1,60.24963838684266,
negative,positive,2,j,l,,,,,,,,,4,7,79,15,,,,,,,,,main,2,2,2,positive,negative,l,l,1,0.6822409000014886,286.6063389000483,287.60633540002163,287.58965530002024,None,286.6063389000483,None,286.6063389000483,None,286.6063389000483,None,288.2732130600605,None,288.2732130600605,None,288.2732130600605,None,,,,,,,,,,,,,,109,2023-04-25_13h21.40.899,Main,2022.1.1,60.24963838684266,
neutral,positive,1,k,k,,,,,,,,,4,8,80,4,,,,,,,,,main,2,2,1,positive,neutral,k,k,1,0.5490856000687927,288.2737203000579,289.2730155000463,289.2730155000463,None,288.2737203000579,None,288.2737203000579,None,288.2737203000579,None,289.8229998599971,None,289.8229998599971,None,289.8229998599971,None,,,,,,,,,,,,,,109,2023-04-25_13h21.40.899,Main,2022.1.1,60.24963838684266,
positive,negative,2,l,j,,,,,,,,,4,9,81,14,,,,,,,,,main,1,1,2,negative,positive,j,j,1,0.6972870000172406,289.82460100005846,290.82560330000706,290.82560330000706,None,289.82460100005846,None,289.82460100005846,None,289.82460100005846,None,291.52301426006017,None,291.52301426006017,None,291.52301426006017,None,,,,,,,,,,,,,,109,2023-04-25_13h21.40.899,Main,2022.1.1,60.24963838684266,
negative,positive,1,j,l,,,,,,,,,4,10,82,6,,,,,,,,,main,1,1,1,positive,negative,l,l,1,0.7818437999812886,291.5310809999937,292.54209390003234,292.5255012999987,None,291.5310809999937,None,291.5310809999937,None,291.5310809999937,None,293.30646526005586,None,293.30646526005586,None,293.30646526005586,None,,,,,,,,,,,,,,109,2023-04-25_13h21.40.899,Main,2022.1.1,60.24963838684266,
neutral,negative,2,k,k,,,,,,,,,4,11,83,16,,,,,,,,,main,2,2,2,negative,neutral,k,k,1,0.7319286999991164,293.3128247000277,294.3254423000617,294.30877030000556,None,293.3128247000277,None,293.3128247000277,None,293.3128247000277,None,295.03991215997377,None,295.03991215997377,None,295.03991215997377,None,,,,,,,,,,,,,,109,2023-04-25_13h21.40.899,Main,2022.1.1,60.24963838684266,
positive,neutral,1,l,j,,,,,,,,,4,12,84,8,,,,,,,,,main,1,1,1,neutral,positive,j,j,1,0.6173444000305608,295.0462227000389,296.05868929997087,296.0420798000414,None,295.0462227000389,None,295.0462227000389,None,295.0462227000389,None,296.6588009600062,None,296.6588009600062,None,296.6588009600062,None,,,,,,,,,,,,,,109,2023-04-25_13h21.40.899,Main,2022.1.1,60.24963838684266,
positive,neutral,2,l,j,,,,,,,,,4,13,85,17,,,,,,,,,main,2,2,2,neutral,positive,j,j,1,0.5792178000556305,296.66211180004757,297.6753163000103,297.65873849997297,None,296.66211180004757,None,296.66211180004757,None,296.66211180004757,None,298.23947795999703,None,298.23947795999703,None,298.23947795999703,None,,,,,,,,,,,,,,109,2023-04-25_13h21.40.899,Main,2022.1.1,60.24963838684266,
neutral,negative,1,k,k,,,,,,,,,4,14,86,7,,,,,,,,,main,1,1,1,negative,neutral,k,k,1,0.6316584999440238,298.23945240001194,299.23953979997896,299.23953979997896,None,298.23945240001194,None,298.23945240001194,None,298.23945240001194,None,299.8728017600486,None,299.8728017600486,None,299.8728017600486,None,,,,,,,,,,,,,,109,2023-04-25_13h21.40.899,Main,2022.1.1,60.24963838684266,
positive,positive,1,l,j,,,,,,,,,4,15,87,2,,,,,,,,,main,1,1,1,positive,positive,j,j,1,0.6151710000121966,299.87310309999157,300.8727538000094,300.8727538000094,None,299.87310309999157,None,299.87310309999157,None,299.87310309999157,None,301.48943936005236,None,301.48943936005236,None,301.48943936005236,None,,,,,,,,,,,,,,109,2023-04-25_13h21.40.899,Main,2022.1.1,60.24963838684266,
negative,negative,1,j,l,,,,,,,,,4,16,88,0,,,,,,,,,main,2,2,1,negative,negative,l,l,1,0.6485251999692991,301.49002210004255,302.48942550003994,302.48942550003994,None,301.49002210004255,None,301.49002210004255,None,301.49002210004255,None,303.1394591599936,None,303.1394591599936,None,303.1394591599936,None,,,,,,,,,,,,,,109,2023-04-25_13h21.40.899,Main,2022.1.1,60.24963838684266,
negative,neutral,2,j,l,,,,,,,,,4,17,89,12,,,,,,,,,main,2,2,2,neutral,negative,l,l,1,0.6975340000353754,303.1439514000667,304.1585622000275,304.14194670005236,None,303.1439514000667,None,303.1439514000667,None,303.1439514000667,None,304.83939726005775,None,304.83939726005775,None,304.83939726005775,None,,,,,,,,,,,,,,109,2023-04-25_13h21.40.899,Main,2022.1.1,60.24963838684266,
positive,neutral,1,l,j,,,,,,,,,5,0,90,8,,,,,,,,,main,1,1,1,neutral,positive,j,j,1,0.6816735999891534,304.8436654000543,305.85847450001165,305.82521549996454,None,304.8436654000543,None,304.8436654000543,None,304.8436654000543,None,306.52272216004786,None,306.52272216004786,None,306.52272216004786,None,,,,,,,,,,,,,,109,2023-04-25_13h21.40.899,Main,2022.1.1,60.24963838684266,
negative,positive,1,j,l,,,,,,,,,5,1,91,6,,,,,,,,,main,2,2,1,positive,negative,l,l,1,0.7175457999110222,306.52917130000424,307.5417956999736,307.5252180000534,None,306.52917130000424,None,306.52917130000424,None,306.52917130000424,None,308.24173975999,None,308.24173975999,None,308.24173975999,None,,,,,,,,,,,,,,109,2023-04-25_13h21.40.899,Main,2022.1.1,60.24963838684266,
negative,negative,1,j,l,,,,,,,,,5,2,92,0,,,,,,,,,main,1,1,1,negative,negative,l,l,1,0.6809439000207931,308.2450488000177,309.2583909999812,309.2418258000398,None,308.2450488000177,None,308.2450488000177,None,308.2450488000177,None,309.9239698600257,None,309.9239698600257,None,309.9239698600257,None,,,,,,,,,,,,,,109,2023-04-25_13h21.40.899,Main,2022.1.1,60.24963838684266,
neutral,neutral,1,k,k,,,,,,,,,5,3,93,1,,,,,,,,,main,1,1,1,neutral,neutral,k,k,1,0.6966929000336677,309.9393920999719,310.93945890001487,310.92278040002566,None,309.9393920999719,None,309.9393920999719,None,309.9393920999719,None,311.6228045599535,None,311.6228045599535,None,311.6228045599535,None,,,,,,,,,,,,,,109,2023-04-25_13h21.40.899,Main,2022.1.1,60.24963838684266,
positive,negative,1,l,j,,,,,,,,,5,4,94,5,,,,,,,,,main,2,2,1,negative,positive,j,j,1,0.6317529999651015,311.62608519999776,312.6414929999737,312.624931700062,None,311.62608519999776,None,311.62608519999776,None,311.62608519999776,None,313.25611536002253,None,313.25611536002253,None,313.25611536002253,None,,,,,,,,,,,,,,109,2023-04-25_13h21.40.899,Main,2022.1.1,60.24963838684266,
positive,negative,2,l,j,,,,,,,,,5,5,95,14,,,,,,,,,main,2,2,2,negative,positive,j,j,1,0.6030939999036491,313.2599706000183,314.27487510000356,314.24155809998047,None,313.2599706000183,None,313.2599706000183,None,313.2599706000183,None,314.8582093599951,None,314.8582093599951,None,314.8582093599951,None,,,,,,,,,,,,,,109,2023-04-25_13h21.40.899,Main,2022.1.1,60.24963838684266,
negative,negative,2,j,l,,,,,,,,,5,6,96,9,,,,,,,,,main,1,1,2,negative,negative,l,l,1,0.6447955999756232,314.8635326999938,315.8748470999999,315.858302299981,None,314.8635326999938,None,314.8635326999938,None,314.8635326999938,None,316.5060859600315,None,316.5060859600315,None,316.5060859600315,None,,,,,,,,,,,,,,109,2023-04-25_13h21.40.899,Main,2022.1.1,60.24963838684266,
positive,positive,1,l,j,,,,,,,,,5,7,97,2,,,,,,,,,main,2,2,1,positive,positive,j,j,1,0.6478255999973044,316.51031419995707,317.5248067000648,317.50826330005657,None,316.51031419995707,None,316.51031419995707,None,316.51031419995707,None,318.15607026005165,None,318.15607026005165,None,318.15607026005165,None,,,,,,,,,,,,,,109,2023-04-25_13h21.40.899,Main,2022.1.1,60.24963838684266,
negative,neutral,1,j,l,,,,,,,,,5,8,98,3,,,,,,,,,main,2,2,1,neutral,negative,l,l,1,0.5982957000378519,318.1594065000536,319.17485960002523,319.15814109996427,None,318.1594065000536,None,318.1594065000536,None,318.1594065000536,None,319.75603125996423,None,319.75603125996423,None,319.75603125996423,None,,,,,,,,,,,,,,109,2023-04-25_13h21.40.899,Main,2022.1.1,60.24963838684266,
positive,positive,2,l,j,,,,,,,,,5,9,99,11,,,,,,,,,main,1,1,2,positive,positive,j,j,1,0.600549399969168,319.7595608000411,320.77475089998916,320.7581825000234,None,319.7595608000411,None,319.7595608000411,None,319.7595608000411,None,321.3580857599853,None,321.3580857599853,None,321.3580857599853,None,,,,,,,,,,,,,,109,2023-04-25_13h21.40.899,Main,2022.1.1,60.24963838684266,
positive,neutral,2,l,j,,,,,,,,,5,10,100,17,,,,,,,,,main,2,2,2,neutral,positive,j,j,1,0.6125198999652639,321.3613488000119,322.37241990002804,322.3556494000368,None,321.3613488000119,None,321.3613488000119,None,321.3613488000119,None,322.97232255998534,None,322.97232255998534,None,322.97232255998534,None,,,,,,,,,,,,,,109,2023-04-25_13h21.40.899,Main,2022.1.1,60.24963838684266,
neutral,negative,1,k,k,,,,,,,,,5,11,101,7,,,,,,,,,main,2,2,1,negative,neutral,k,k,1,0.6055170999607071,322.97234119998757,323.97233530005906,323.97233530005906,None,322.97234119998757,None,322.97234119998757,None,322.97234119998757,None,324.57666685997975,None,324.57666685997975,None,324.57666685997975,None,,,,,,,,,,,,,,109,2023-04-25_13h21.40.899,Main,2022.1.1,60.24963838684266,
neutral,positive,2,k,k,,,,,,,,,5,12,102,13,,,,,,,,,main,1,1,2,positive,neutral,k,k,1,0.577389599988237,324.58240579999983,325.59132770006545,325.5746971999761,None,324.58240579999983,None,324.58240579999983,None,324.58240579999983,None,326.1580886600539,None,326.1580886600539,None,326.1580886600539,None,,,,,,,,,,,,,,109,2023-04-25_13h21.40.899,Main,2022.1.1,60.24963838684266,
negative,neutral,2,j,l,,,,,,,,,5,13,103,12,,,,,,,,,main,1,1,2,neutral,negative,l,l,1,0.7140843999804929,326.16145340004005,327.1747384000337,327.1581298999954,None,326.16145340004005,None,326.16145340004005,None,326.16145340004005,None,327.8739908600226,None,327.8739908600226,None,327.8739908600226,None,,,,,,,,,,,,,,109,2023-04-25_13h21.40.899,Main,2022.1.1,60.24963838684266,
neutral,neutral,2,k,k,,,,,,,,,5,14,104,10,,,,,,,,,main,2,2,2,neutral,neutral,k,k,1,0.7001171000301838,327.8793129000114,328.89135549997445,328.874737599981,None,327.8793129000114,None,327.8793129000114,None,327.8793129000114,None,329.5746827600058,None,329.5746827600058,None,329.5746827600058,None,,,,,,,,,,,,,,109,2023-04-25_13h21.40.899,Main,2022.1.1,60.24963838684266,
neutral,negative,2,k,k,,,,,,,,,5,15,105,16,,,,,,,,,main,2,2,2,negative,neutral,k,k,1,0.6125355999683961,329.57903609995265,330.5913061000174,330.5747410999611,None,329.57903609995265,None,329.57903609995265,None,329.57903609995265,None,331.1900328599848,None,331.1900328599848,None,331.1900328599848,None,,,,,,,,,,,,,,109,2023-04-25_13h21.40.899,Main,2022.1.1,60.24963838684266,
negative,positive,2,j,l,,,,,,,,,5,16,106,15,,,,,,,,,main,1,1,2,positive,negative,l,l,1,0.7308863999787718,331.1959346999647,332.205408000038,332.1887950999662,None,331.1959346999647,None,331.1959346999647,None,331.1959346999647,None,332.92210246000906,None,332.92210246000906,None,332.92210246000906,None,,,,,,,,,,,,,,109,2023-04-25_13h21.40.899,Main,2022.1.1,60.24963838684266,
neutral,positive,1,k,k,,,,,,,,,5,17,107,4,,,,,,,,,main,2,2,1,positive,neutral,k,k,1,0.633849999983795,332.92250129999593,333.9221203000052,333.9221203000052,None,332.92250129999593,None,332.92250129999593,None,332.92250129999593,None,334.5579168600496,None,334.5579168600496,None,334.5579168600496,None,,,,,,,,,,,,,,109,2023-04-25_13h21.40.899,Main,2022.1.1,60.24963838684266,
neutral,positive,2,k,k,,,,,,,,,6,0,108,13,,,,,,,,,main,2,2,2,positive,neutral,k,k,1,0.5815640999935567,334.56124479998834,335.57454179995693,335.557947000023,None,334.56124479998834,None,334.56124479998834,None,334.56124479998834,None,336.1411850599805,None,336.1411850599805,None,336.1411850599805,None,,,,,,,,,,,,,,109,2023-04-25_13h21.40.899,Main,2022.1.1,60.24963838684266,
negative,neutral,2,j,l,,,,,,,,,6,1,109,12,,,,,,,,,main,2,2,2,neutral,negative,l,l,1,0.7628477999242023,336.1438982000109,337.15788059995975,337.1411670000525,None,336.1438982000109,None,336.1438982000109,None,336.1438982000109,None,337.90541465994903,None,337.90541465994903,None,337.90541465994903,None,,,,,,,,,,,,,,109,2023-04-25_13h21.40.899,Main,2022.1.1,60.24963838684266,
positive,positive,1,l,j,,,,,,,,,6,2,110,2,,,,,,,,,main,1,1,1,positive,positive,j,j,1,0.6842681999551132,337.90860640001483,338.9077975000255,338.89120519999415,None,337.90860640001483,None,337.90860640001483,None,337.90860640001483,None,339.59118885996287,None,339.59118885996287,None,339.59118885996287,None,,,,,,,,,,,,,,109,2023-04-25_13h21.40.899,Main,2022.1.1,60.24963838684266,
negative,negative,2,j,l,,,,,,,,,6,3,111,9,,,,,,,,,main,2,2,2,negative,negative,l,l,1,0.6961391000077128,339.59437439998146,340.6078079000581,340.591175599955,None,339.59437439998146,None,339.59437439998146,None,339.59437439998146,None,341.2888090599561,None,341.2888090599561,None,341.2888090599561,None,,,,,,,,,,,,,,109,2023-04-25_13h21.40.899,Main,2022.1.1,60.24963838684266,
neutral,negative,2,k,k,,,,,,,,,6,4,112,16,,,,,,,,,main,2,2,2,negative,neutral,k,k,1,0.5650199999799952,341.2951771999942,342.3052538000047,342.28859200002626,None,341.2951771999942,None,341.2951771999942,None,341.2951771999942,None,342.8555760599673,None,342.8555760599673,None,342.8555760599673,None,,,,,,,,,,,,,,109,2023-04-25_13h21.40.899,Main,2022.1.1,60.24963838684266,
neutral,negative,1,k,k,,,,,,,,,6,5,113,7,,,,,,,,,main,2,2,1,negative,neutral,k,k,1,0.5321369000012055,342.8564207999734,343.8719207000686,343.8552343000192,None,342.8564207999734,None,342.8564207999734,None,342.8564207999734,None,344.3886246600421,None,344.3886246600421,None,344.3886246600421,None,,,,,,,,,,,,,,109,2023-04-25_13h21.40.899,Main,2022.1.1,60.24963838684266,
positive,positive,2,l,j,,,,,,,,,6,6,114,11,,,,,,,,,main,2,2,2,positive,positive,j,j,1,0.7178521000314504,344.3927738000639,345.4076274000108,345.39107740006875,None,344.3927738000639,None,344.3927738000639,None,344.3927738000639,None,346.107641959982,None,346.107641959982,None,346.107641959982,None,,,,,,,,,,,,,,109,2023-04-25_13h21.40.899,Main,2022.1.1,60.24963838684266,
positive,neutral,2,l,j,,,,,,,,,6,7,115,17,,,,,,,,,main,1,1,2,neutral,positive,j,j,1,0.6948475000681356,346.1116720000282,347.12426379998215,347.10761479998473,None,346.1116720000282,None,346.1116720000282,None,346.1116720000282,None,347.80523265998346,None,347.80523265998346,None,347.80523265998346,None,,,,,,,,,,,,,,109,2023-04-25_13h21.40.899,Main,2022.1.1,60.24963838684266,
negative,positive,2,j,l,,,,,,,,,6,8,116,15,,,,,,,,,main,2,2,2,positive,negative,l,l,1,0.6832979000173509,347.8120340000605,348.8242394999834,348.8076167999534,None,347.8120340000605,None,347.8120340000605,None,347.8120340000605,None,349.48963336001617,None,349.48963336001617,None,349.48963336001617,None,,,,,,,,,,,,,,109,2023-04-25_13h21.40.899,Main,2022.1.1,60.24963838684266,
negative,positive,1,j,l,,,,,,,,,6,9,117,6,,,,,,,,,main,2,2,1,positive,negative,l,l,1,0.5650420000310987,349.4954915000126,350.50752260000445,350.4909368000226,None,349.4954915000126,None,349.4954915000126,None,349.4954915000126,None,351.05625485996717,None,351.05625485996717,None,351.05625485996717,None,,,,,,,,,,,,,,109,2023-04-25_13h21.40.899,Main,2022.1.1,60.24963838684266,
negative,neutral,1,j,l,,,,,,,,,6,10,118,3,,,,,,,,,main,1,1,1,neutral,negative,l,l,1,0.6470545999472961,351.0618114999961,352.07163809996564,352.0549709000625,None,351.0618114999961,None,351.0618114999961,None,351.0618114999961,None,352.7050011599902,None,352.7050011599902,None,352.7050011599902,None,,,,,,,,,,,,,,109,2023-04-25_13h21.40.899,Main,2022.1.1,60.24963838684266,
neutral,neutral,1,k,k,,,,,,,,,6,11,119,1,,,,,,,,,main,1,1,1,neutral,neutral,k,k,1,0.6323473000666127,352.704962000018,353.70504210004583,353.70504210004583,None,352.704962000018,None,352.704962000018,None,352.704962000018,None,354.33844175999985,None,354.33844175999985,None,354.33844175999985,None,,,,,,,,,,,,,,109,2023-04-25_13h21.40.899,Main,2022.1.1,60.24963838684266,
positive,negative,1,l,j,,,,,,,,,6,12,120,5,,,,,,,,,main,2,2,1,negative,positive,j,j,1,0.6488202000036836,354.3449563999893,355.3575353999622,355.3408766000066,None,354.3449563999893,None,354.3449563999893,None,354.3449563999893,None,355.98895395996516,None,355.98895395996516,None,355.98895395996516,None,,,,,,,,,,,,,,109,2023-04-25_13h21.40.899,Main,2022.1.1,60.24963838684266,
positive,neutral,1,l,j,,,,,,,,,6,13,121,8,,,,,,,,,main,2,2,1,neutral,positive,j,j,1,0.6171036999439821,355.99506670003757,357.0073992999969,356.9908184000524,None,355.99506670003757,None,355.99506670003757,None,355.99506670003757,None,357.60755336000585,None,357.60755336000585,None,357.60755336000585,None,,,,,,,,,,,,,,109,2023-04-25_13h21.40.899,Main,2022.1.1,60.24963838684266,
negative,negative,1,j,l,,,,,,,,,6,14,122,0,,,,,,,,,main,1,1,1,negative,negative,l,l,1,0.6794105999870226,357.61036970000714,358.6240058999974,358.60744809999596,None,357.61036970000714,None,357.61036970000714,None,357.61036970000714,None,359.2884026600048,None,359.2884026600048,None,359.2884026600048,None,,,,,,,,,,,,,,109,2023-04-25_13h21.40.899,Main,2022.1.1,60.24963838684266,
neutral,positive,1,k,k,,,,,,,,,6,15,123,4,,,,,,,,,main,2,2,1,positive,neutral,k,k,1,0.6503706000512466,359.2947245000396,360.30740709998645,360.29071099997964,None,359.2947245000396,None,359.2947245000396,None,359.2947245000396,None,360.9400925599737,None,360.9400925599737,None,360.9400925599737,None,,,,,,,,,,,,,,109,2023-04-25_13h21.40.899,Main,2022.1.1,60.24963838684266,
neutral,neutral,2,k,k,,,,,,,,,6,16,124,10,,,,,,,,,main,2,2,2,neutral,neutral,k,k,1,0.6132115001091734,360.9452108000405,361.95483940001577,361.9381750000175,None,360.9452108000405,None,360.9452108000405,None,360.9452108000405,None,362.5548856600188,None,362.5548856600188,None,362.5548856600188,None,,,,,,,,,,,,,,109,2023-04-25_13h21.40.899,Main,2022.1.1,60.24963838684266,
positive,negative,2,l,j,,,,,,,,,6,17,125,14,,,,,,,,,main,2,2,2,negative,positive,j,j,1,0.5970092000206932,362.5563905000454,363.571506200009,363.5548406000016,None,362.5563905000454,None,362.5563905000454,None,362.5563905000454,None,364.15486066003797,None,364.15486066003797,None,364.15486066003797,None,,,,,,,,,,,,,,109,2023-04-25_13h21.40.899,Main,2022.1.1,60.24963838684266,
neutral,negative,2,k,k,,,,,,,,,7,0,126,16,,,,,,,,,main,1,1,2,negative,neutral,k,k,1,0.5317354999715462,364.15549779997673,365.154996199999,365.154996199999,None,364.15549779997673,None,364.15549779997673,None,364.15549779997673,None,365.68820436003153,None,365.68820436003153,None,365.68820436003153,None,,,,,,,,,,,,,,109,2023-04-25_13h21.40.899,Main,2022.1.1,60.24963838684266,
neutral,neutral,1,k,k,,,,,,,,,7,1,127,1,,,,,,,,,main,1,1,1,neutral,neutral,k,k,1,0.4984624000499025,365.69170860003214,366.6907370999688,366.6907370999688,None,365.69170860003214,None,365.69170860003214,None,365.69170860003214,None,367.1882774600061,None,367.1882774600061,None,367.1882774600061,None,,,,,,,,,,,,,,109,2023-04-25_13h21.40.899,Main,2022.1.1,60.24963838684266,
positive,neutral,1,l,j,,,,,,,,,7,2,128,8,,,,,,,,,main,2,2,1,neutral,positive,j,j,1,0.7001765000168234,367.19768199999817,368.2072493999731,368.1906396000413,None,367.19768199999817,None,367.19768199999817,None,367.19768199999817,None,368.89067805996166,None,368.89067805996166,None,368.89067805996166,None,,,,,,,,,,,,,,109,2023-04-25_13h21.40.899,Main,2022.1.1,60.24963838684266,
positive,negative,2,l,j,,,,,,,,,7,3,129,14,,,,,,,,,main,2,2,2,negative,positive,j,j,1,0.6646844999631867,368.8941205999581,369.9071556000272,369.89060110005084,None,368.8941205999581,None,368.8941205999581,None,368.8941205999581,None,370.55724785996136,None,370.55724785996136,None,370.55724785996136,None,,,,,,,,,,,,,,109,2023-04-25_13h21.40.899,Main,2022.1.1,60.24963838684266,
negative,neutral,2,j,l,,,,,,,,,7,4,130,12,,,,,,,,,main,2,2,2,neutral,negative,l,l,1,0.7120521999895573,370.56137470004614,371.5738394999644,371.5572369999718,None,370.56137470004614,None,370.56137470004614,None,370.56137470004614,None,372.27140985995067,None,372.27140985995067,None,372.27140985995067,None,,,,,,,,,,,,,,109,2023-04-25_13h21.40.899,Main,2022.1.1,60.24963838684266,
positive,positive,2,l,j,,,,,,,,,7,5,131,11,,,,,,,,,main,1,1,2,positive,positive,j,j,1,0.6980518000200391,372.2782537000021,373.28755450004246,373.266379000037,None,372.2782537000021,None,372.2782537000021,None,372.2782537000021,None,373.97129485995976,None,373.97129485995976,None,373.97129485995976,None,,,,,,,,,,,,,,109,2023-04-25_13h21.40.899,Main,2022.1.1,60.24963838684266,
neutral,neutral,2,k,k,,,,,,,,,7,6,132,10,,,,,,,,,main,2,2,2,neutral,neutral,k,k,1,0.5987338999984786,373.9725514999591,374.9887095000595,374.97137509996537,None,373.9725514999591,None,373.9725514999591,None,373.9725514999591,None,375.5713191600051,None,375.5713191600051,None,375.5713191600051,None,,,,,,,,,,,,,,109,2023-04-25_13h21.40.899,Main,2022.1.1,60.24963838684266,
negative,positive,2,j,l,,,,,,,,,7,7,133,15,,,,,,,,,main,2,2,2,positive,negative,l,l,1,0.715085000032559,375.57206779997796,376.5712515000487,376.5712515000487,None,375.57206779997796,None,375.57206779997796,None,375.57206779997796,None,377.2879556599772,None,377.2879556599772,None,377.2879556599772,None,,,,,,,,,,,,,,109,2023-04-25_13h21.40.899,Main,2022.1.1,60.24963838684266,
negative,negative,1,j,l,,,,,,,,,7,8,134,0,,,,,,,,,main,2,2,1,negative,negative,l,l,1,0.7653493999969214,377.2886115000583,378.29049729998223,378.29049729998223,None,377.2886115000583,None,377.2886115000583,None,377.2886115000583,None,379.05460495997687,None,379.05460495997687,None,379.05460495997687,None,,,,,,,,,,,,,,109,2023-04-25_13h21.40.899,Main,2022.1.1,60.24963838684266,
positive,neutral,2,l,j,,,,,,,,,7,9,135,17,,,,,,,,,main,2,2,2,neutral,positive,j,j,1,0.5816469000419602,379.06150740000885,380.0737191999797,380.05709220003337,None,379.06150740000885,None,379.06150740000885,None,379.06150740000885,None,380.63820886001923,None,380.63820886001923,None,380.63820886001923,None,,,,,,,,,,,,,,109,2023-04-25_13h21.40.899,Main,2022.1.1,60.24963838684266,
negative,neutral,1,j,l,,,,,,,,,7,10,136,3,,,,,,,,,main,1,1,1,neutral,negative,l,l,1,0.6490190000040457,380.64499219995923,381.65698339999653,381.64039149996825,None,380.64499219995923,None,380.64499219995923,None,380.64499219995923,None,382.28871246003547,None,382.28871246003547,None,382.28871246003547,None,,,,,,,,,,,,,,109,2023-04-25_13h21.40.899,Main,2022.1.1,60.24963838684266,
neutral,positive,1,k,k,,,,,,,,,7,11,137,4,,,,,,,,,main,1,1,1,positive,neutral,k,k,1,0.583879999932833,382.29497270006686,383.3069484999869,383.2903036000207,None,382.29497270006686,None,382.29497270006686,None,382.29497270006686,None,383.87360035995954,None,383.87360035995954,None,383.87360035995954,None,,,,,,,,,,,,,,109,2023-04-25_13h21.40.899,Main,2022.1.1,60.24963838684266,
negative,negative,2,j,l,,,,,,,,,7,12,138,9,,,,,,,,,main,1,1,2,negative,negative,l,l,1,0.7453303000656888,383.8776868999703,384.88791110005695,384.8736125000287,None,383.8776868999703,None,383.8776868999703,None,383.8776868999703,None,385.62104825996795,None,385.62104825996795,None,385.62104825996795,None,,,,,,,,,,,,,,109,2023-04-25_13h21.40.899,Main,2022.1.1,60.24963838684266,
neutral,negative,1,k,k,,,,,,,,,7,13,139,7,,,,,,,,,main,2,2,1,negative,neutral,k,k,1,0.6150117999641225,385.62122039997485,386.62146249995567,386.62146249995567,None,385.62122039997485,None,385.62122039997485,None,385.62122039997485,None,387.2376956600463,None,387.2376956600463,None,387.2376956600463,None,,,,,,,,,,,,,,109,2023-04-25_13h21.40.899,Main,2022.1.1,60.24963838684266,
positive,negative,1,l,j,,,,,,,,,7,14,140,5,,,,,,,,,main,2,2,1,negative,positive,j,j,1,0.6318366000195965,387.23764669999946,388.2376818000339,388.2376818000339,None,387.23764669999946,None,387.23764669999946,None,387.23764669999946,None,388.87105706003496,None,388.87105706003496,None,388.87105706003496,None,,,,,,,,,,,,,,109,2023-04-25_13h21.40.899,Main,2022.1.1,60.24963838684266,
positive,positive,1,l,j,,,,,,,,,7,15,141,2,,,,,,,,,main,2,2,1,positive,positive,j,j,1,0.6009091000305489,388.8719954000553,389.87103629997,389.87103629997,None,388.8719954000553,None,388.8719954000553,None,388.8719954000553,None,390.4735842600465,None,390.4735842600465,None,390.4735842600465,None,,,,,,,,,,,,,,109,2023-04-25_13h21.40.899,Main,2022.1.1,60.24963838684266,
neutral,positive,2,k,k,,,,,,,,,7,16,142,13,,,,,,,,,main,1,1,2,positive,neutral,k,k,1,0.5840536000905558,390.4767773000058,391.49014320003334,391.47346440004185,None,390.4767773000058,None,390.4767773000058,None,390.4767773000058,None,392.05691285997165,None,392.05691285997165,None,392.05691285997165,None,,,,,,,,,,,,,,109,2023-04-25_13h21.40.899,Main,2022.1.1,60.24963838684266,
negative,positive,1,j,l,,,,,,,,,7,17,143,6,,,,,,,,,main,2,2,1,positive,negative,l,l,1,0.7282978999428451,392.064499399974,393.0734201000305,393.05677350005135,None,392.064499399974,None,392.064499399974,None,392.064499399974,None,393.7901348600397,None,393.7901348600397,None,393.7901348600397,None,,,,,,,,,,,,,,109,2023-04-25_13h21.40.899,Main,2022.1.1,60.24963838684266,
neutral,neutral,2,k,k,,,,,,,,,8,0,144,10,,,,,,,,,main,2,2,2,neutral,neutral,k,k,1,0.565012100036256,393.7946692999685,394.8067100000335,394.79012000001967,None,393.7946692999685,None,393.7946692999685,None,393.7946692999685,None,395.35674886005,None,395.35674886005,None,395.35674886005,None,,,,,,,,,,,,,,109,2023-04-25_13h21.40.899,Main,2022.1.1,60.24963838684266,
negative,neutral,2,j,l,,,,,,,,,8,1,145,12,,,,,,,,,main,2,2,2,neutral,negative,l,l,1,0.5975706999888644,395.36078830005135,396.373321400024,396.35676350002177,None,395.36078830005135,None,395.36078830005135,None,395.36078830005135,None,396.9554832600523,None,396.9554832600523,None,396.9554832600523,None,,,,,,,,,,,,,,109,2023-04-25_13h21.40.899,Main,2022.1.1,60.24963838684266,
positive,positive,1,l,j,,,,,,,,,8,2,146,2,,,,,,,,,main,2,2,1,positive,positive,j,j,1,0.6797884999541566,396.9611683000112,397.9714393999893,397.9540650000563,None,396.9611683000112,None,396.9611683000112,None,396.9611683000112,None,398.63745025994723,None,398.63745025994723,None,398.63745025994723,None,,,,,,,,,,,,,,109,2023-04-25_13h21.40.899,Main,2022.1.1,60.24963838684266,
negative,neutral,1,j,l,,,,,,,,,8,3,147,3,,,,,,,,,main,2,2,1,neutral,negative,l,l,1,0.5987167999846861,398.6387369000586,399.65409810002893,399.63743610004894,None,398.6387369000586,None,398.6387369000586,None,398.6387369000586,None,400.23745755997953,None,400.23745755997953,None,400.23745755997953,None,,,,,,,,,,,,,,109,2023-04-25_13h21.40.899,Main,2022.1.1,60.24963838684266,
neutral,positive,1,k,k,,,,,,,,,8,4,148,4,,,,,,,,,main,1,1,1,positive,neutral,k,k,1,0.5983834000071511,400.2378416999709,401.23739809996914,401.23739809996914,None,400.2378416999709,None,400.2378416999709,None,400.2378416999709,None,401.8374574599555,None,401.8374574599555,None,401.8374574599555,None,,,,,,,,,,,,,,109,2023-04-25_13h21.40.899,Main,2022.1.1,60.24963838684266,
neutral,positive,2,k,k,,,,,,,,,8,5,149,13,,,,,,,,,main,1,1,2,positive,neutral,k,k,1,0.6009220000123605,401.84153390000574,402.85654539999086,402.82320440001786,None,401.84153390000574,None,401.84153390000574,None,401.84153390000574,None,403.4398665599991,None,403.4398665599991,None,403.4398665599991,None,,,,,,,,,,,,,,109,2023-04-25_13h21.40.899,Main,2022.1.1,60.24963838684266,
neutral,negative,1,k,k,,,,,,,,,8,6,150,7,,,,,,,,,main,1,1,1,negative,neutral,k,k,1,0.5461052999598905,403.44276580004953,404.45652660005726,404.4399209000403,None,403.44276580004953,None,403.44276580004953,None,403.44276580004953,None,404.98742515996565,None,404.98742515996565,None,404.98742515996565,None,,,,,,,,,,,,,,109,2023-04-25_13h21.40.899,Main,2022.1.1,60.24963838684266,
positive,negative,1,l,j,,,,,,,,,8,7,151,5,,,,,,,,,main,1,1,1,negative,positive,j,j,1,0.715176000026986,404.99346000002697,406.0064690000145,405.9898785999976,None,404.99346000002697,None,404.99346000002697,None,404.99346000002697,None,406.7040092600044,None,406.7040092600044,None,406.7040092600044,None,,,,,,,,,,,,,,109,2023-04-25_13h21.40.899,Main,2022.1.1,60.24963838684266,
negative,negative,2,j,l,,,,,,,,,8,8,152,9,,,,,,,,,main,1,1,2,negative,negative,l,l,1,0.6154526000609621,406.71010270004626,407.72312129999045,407.7065400000429,None,406.71010270004626,None,406.71010270004626,None,406.71010270004626,None,408.32096405997873,None,408.32096405997873,None,408.32096405997873,None,,,,,,,,,,,,,,109,2023-04-25_13h21.40.899,Main,2022.1.1,60.24963838684266,
neutral,negative,2,k,k,,,,,,,,,8,9,153,16,,,,,,,,,main,1,1,2,negative,neutral,k,k,1,0.5979845999972895,408.3271048000315,409.33973500004504,409.32315469998866,None,408.3271048000315,None,408.3271048000315,None,408.3271048000315,None,409.9206143599702,None,409.9206143599702,None,409.9206143599702,None,,,,,,,,,,,,,,109,2023-04-25_13h21.40.899,Main,2022.1.1,60.24963838684266,
negative,negative,1,j,l,,,,,,,,,8,10,154,0,,,,,,,,,main,2,2,1,negative,negative,l,l,1,0.5821971000405028,409.92052819998935,410.9207293000072,410.9207293000072,None,409.92052819998935,None,409.92052819998935,None,409.92052819998935,None,411.5039022600511,None,411.5039022600511,None,411.5039022600511,None,,,,,,,,,,,,,,109,2023-04-25_13h21.40.899,Main,2022.1.1,60.24963838684266,
negative,positive,2,j,l,,,,,,,,,8,11,155,15,,,,,,,,,main,2,2,2,positive,negative,l,l,1,0.6482267000246793,411.50483960006386,412.5038413000293,412.5038413000293,None,411.50483960006386,None,411.50483960006386,None,411.50483960006386,None,413.15405965999236,None,413.15405965999236,None,413.15405965999236,None,,,,,,,,,,,,,,109,2023-04-25_13h21.40.899,Main,2022.1.1,60.24963838684266,
positive,neutral,2,l,j,,,,,,,,,8,12,156,17,,,,,,,,,main,2,2,2,neutral,positive,j,j,1,0.6006926000118256,413.15449129999615,414.1538532000268,414.1538532000268,None,413.15449129999615,None,413.15449129999615,None,413.15449129999615,None,414.7564287599642,None,414.7564287599642,None,414.7564287599642,None,,,,,,,,,,,,,,109,2023-04-25_13h21.40.899,Main,2022.1.1,60.24963838684266,
positive,positive,2,l,j,,,,,,,,,8,13,157,11,,,,,,,,,main,2,2,2,positive,positive,j,j,1,0.5983670999994501,414.75954850006383,415.7728769000387,415.7563112999778,None,414.75954850006383,None,414.75954850006383,None,414.75954850006383,None,416.3562976599904,None,416.3562976599904,None,416.3562976599904,None,,,,,,,,,,,,,,109,2023-04-25_13h21.40.899,Main,2022.1.1,60.24963838684266,
negative,positive,1,j,l,,,,,,,,,8,14,158,6,,,,,,,,,main,1,1,1,positive,negative,l,l,1,0.5630382000235841,416.3591757999966,417.3729439000599,417.3563567000674,None,416.3591757999966,None,416.3591757999966,None,416.3591757999966,None,417.9205675599631,None,417.9205675599631,None,417.9205675599631,None,,,,,,,,,,,,,,109,2023-04-25_13h21.40.899,Main,2022.1.1,60.24963838684266,
positive,negative,2,l,j,,,,,,,,,8,15,159,14,,,,,,,,,main,1,1,2,negative,positive,j,j,1,0.7313779999967664,417.92723160004243,418.9395635999972,418.9229469000129,None,417.92723160004243,None,417.92723160004243,None,417.92723160004243,None,419.65380796005485,None,419.65380796005485,None,419.65380796005485,None,,,,,,,,,,,,,,109,2023-04-25_13h21.40.899,Main,2022.1.1,60.24963838684266,
positive,neutral,1,l,j,,,,,,,,,8,16,160,8,,,,,,,,,main,2,2,1,neutral,positive,j,j,1,0.7158673000521958,419.66022359998897,420.67285079997964,420.6562502000015,None,419.66022359998897,None,419.66022359998897,None,419.66022359998897,None,421.3712783599738,None,421.3712783599738,None,421.3712783599738,None,,,,,,,,,,,,,,109,2023-04-25_13h21.40.899,Main,2022.1.1,60.24963838684266,
neutral,neutral,1,k,k,,,,,,,,,8,17,161,1,,,,,,,,,main,2,2,1,neutral,neutral,k,k,1,0.597524999990128,421.37746990006417,422.3871593000367,422.3702732999809,None,421.37746990006417,None,421.37746990006417,None,421.37746990006417,None,422.9703226600075,None,422.9703226600075,None,422.9703226600075,None,,,,,,,,,,,,,,109,2023-04-25_13h21.40.899,Main,2022.1.1,60.24963838684266,
negative,neutral,1,j,l,,,,,,,,,9,0,162,3,,,,,,,,,main,1,1,1,neutral,negative,l,l,1,0.6985200999770314,422.9702148999786,423.9714665999636,423.9714665999636,None,422.9702148999786,None,422.9702148999786,None,422.9702148999786,None,424.6703323600348,None,424.6703323600348,None,424.6703323600348,None,,,,,,,,,,,,,,109,2023-04-25_13h21.40.899,Main,2022.1.1,60.24963838684266,
negative,negative,2,j,l,,,,,,,,,9,1,163,9,,,,,,,,,main,2,2,2,negative,negative,l,l,1,0.7155620000557974,424.670929600019,425.6702733000275,425.6702733000275,None,424.670929600019,None,424.670929600019,None,424.670929600019,None,426.38716926001945,None,426.38716926001945,None,426.38716926001945,None,,,,,,,,,,,,,,109,2023-04-25_13h21.40.899,Main,2022.1.1,60.24963838684266,
negative,positive,1,j,l,,,,,,,,,9,2,164,6,,,,,,,,,main,1,1,1,positive,negative,l,l,1,0.6343753999099135,426.39119330001995,427.4061015000334,427.38944739999715,None,426.39119330001995,None,426.39119330001995,None,426.39119330001995,None,428.0227805600269,None,428.0227805600269,None,428.0227805600269,None,,,,,,,,,,,,,,109,2023-04-25_13h21.40.899,Main,2022.1.1,60.24963838684266,
positive,positive,1,l,j,,,,,,,,,9,3,165,2,,,,,,,,,main,2,2,1,positive,positive,j,j,1,0.6284680000972003,428.0270748999901,429.0393561000237,429.0227553000441,None,428.0270748999901,None,428.0270748999901,None,428.0270748999901,None,429.6535770600429,None,429.6535770600429,None,429.6535770600429,None,,,,,,,,,,,,,,109,2023-04-25_13h21.40.899,Main,2022.1.1,60.24963838684266,
neutral,neutral,1,k,k,,,,,,,,,9,4,166,1,,,,,,,,,main,1,1,1,neutral,neutral,k,k,1,0.6174496000166982,429.6567842999939,430.6560026999796,430.6560026999796,None,429.6567842999939,None,429.6567842999939,None,429.6567842999939,None,431.272662860062,None,431.272662860062,None,431.272662860062,None,,,,,,,,,,,,,,109,2023-04-25_13h21.40.899,Main,2022.1.1,60.24963838684266,
positive,neutral,2,l,j,,,,,,,,,9,5,167,17,,,,,,,,,main,1,1,2,neutral,positive,j,j,1,0.6129215999972075,431.2753547000466,432.2891927000601,432.2726222999627,None,431.2753547000466,None,431.2753547000466,None,431.2753547000466,None,432.8868397599552,None,432.8868397599552,None,432.8868397599552,None,,,,,,,,,,,,,,109,2023-04-25_13h21.40.899,Main,2022.1.1,60.24963838684266,
positive,neutral,1,l,j,,,,,,,,,9,6,168,8,,,,,,,,,main,2,2,1,neutral,positive,j,j,1,0.6636934999842197,432.89317229995504,433.9033723999746,433.8867022000486,None,432.89317229995504,None,432.89317229995504,None,432.89317229995504,None,434.5534097599564,None,434.5534097599564,None,434.5534097599564,None,,,,,,,,,,,,,,109,2023-04-25_13h21.40.899,Main,2022.1.1,60.24963838684266,
neutral,negative,1,k,k,,,,,,,,,9,7,169,7,,,,,,,,,main,1,1,1,negative,neutral,k,k,1,0.5817738999612629,434.5533178000478,435.55336370004807,435.55336370004807,None,434.5533178000478,None,434.5533178000478,None,434.5533178000478,None,436.1367417600239,None,436.1367417600239,None,436.1367417600239,None,,,,,,,,,,,,,,109,2023-04-25_13h21.40.899,Main,2022.1.1,60.24963838684266,
negative,neutral,2,j,l,,,,,,,,,9,8,170,12,,,,,,,,,main,2,2,2,neutral,negative,l,l,1,0.7310088999802247,436.1379682000261,437.15334720001556,437.13667979999445,None,436.1379682000261,None,436.1379682000261,None,436.1379682000261,None,437.87007265998983,None,437.87007265998983,None,437.87007265998983,None,,,,,,,,,,,,,,109,2023-04-25_13h21.40.899,Main,2022.1.1,60.24963838684266,
positive,negative,1,l,j,,,,,,,,,9,9,171,5,,,,,,,,,main,2,2,1,negative,positive,j,j,1,0.6650108000030741,437.87426269997377,438.889146600035,438.87260250002146,None,437.87426269997377,None,437.87426269997377,None,437.87426269997377,None,439.53705635999796,None,439.53705635999796,None,439.53705635999796,None,,,,,,,,,,,,,,109,2023-04-25_13h21.40.899,Main,2022.1.1,60.24963838684266,
negative,negative,1,j,l,,,,,,,,,9,10,172,0,,,,,,,,,main,2,2,1,negative,negative,l,l,1,0.6337555999634787,439.54063619999215,440.5558483999921,440.53920780005865,None,439.54063619999215,None,439.54063619999215,None,439.54063619999215,None,441.1724619599525,None,441.1724619599525,None,441.1724619599525,None,,,,,,,,,,,,,,109,2023-04-25_13h21.40.899,Main,2022.1.1,60.24963838684266,
neutral,positive,2,k,k,,,,,,,,,9,11,173,13,,,,,,,,,main,2,2,2,positive,neutral,k,k,1,0.6123606000328436,441.1760206000181,442.18912550003733,442.17249859997537,None,441.1760206000181,None,441.1760206000181,None,441.1760206000181,None,442.7866686599562,None,442.7866686599562,None,442.7866686599562,None,,,,,,,,,,,,,,109,2023-04-25_13h21.40.899,Main,2022.1.1,60.24963838684266,
negative,positive,2,j,l,,,,,,,,,9,12,174,15,,,,,,,,,main,2,2,2,positive,negative,l,l,1,0.7151876999996603,442.7909581999993,443.80564669996966,443.7890445999801,None,442.7909581999993,None,442.7909581999993,None,442.7909581999993,None,444.50326825999656,None,444.50326825999656,None,444.50326825999656,None,,,,,,,,,,,,,,109,2023-04-25_13h21.40.899,Main,2022.1.1,60.24963838684266,
neutral,positive,1,k,k,,,,,,,,,9,13,175,4,,,,,,,,,main,2,2,1,positive,neutral,k,k,1,0.6316382999066263,444.50752550002653,445.5222874999745,445.5056744000176,None,444.50752550002653,None,444.50752550002653,None,444.50752550002653,None,446.13646676002537,None,446.13646676002537,None,446.13646676002537,None,,,,,,,,,,,,,,109,2023-04-25_13h21.40.899,Main,2022.1.1,60.24963838684266,
neutral,neutral,2,k,k,,,,,,,,,9,14,176,10,,,,,,,,,main,1,1,2,neutral,neutral,k,k,1,0.5649118999717757,446.1364149999572,447.1366196000017,447.1366196000017,None,446.1364149999572,None,446.1364149999572,None,446.1364149999572,None,447.70317006001716,None,447.70317006001716,None,447.70317006001716,None,,,,,,,,,,,,,,109,2023-04-25_13h21.40.899,Main,2022.1.1,60.24963838684266,
neutral,negative,2,k,k,,,,,,,,,9,15,177,16,,,,,,,,,main,2,2,2,negative,neutral,k,k,1,0.5321605999488384,447.7041190000018,448.70312750001904,448.70312750001904,None,447.7041190000018,None,447.7041190000018,None,447.7041190000018,None,449.2365223599598,None,449.2365223599598,None,449.2365223599598,None,,,,,,,,,,,,,,109,2023-04-25_13h21.40.899,Main,2022.1.1,60.24963838684266,
positive,positive,2,l,j,,,,,,,,,9,16,178,11,,,,,,,,,main,2,2,2,positive,positive,j,j,1,0.700793500058353,449.2374024000019,450.23645580001175,450.23645580001175,None,449.2374024000019,None,449.2374024000019,None,449.2374024000019,None,450.93905545999297,None,450.93905545999297,None,450.93905545999297,None,,,,,,,,,,,,,,109,2023-04-25_13h21.40.899,Main,2022.1.1,60.24963838684266,
positive,negative,2,l,j,,,,,,,,,9,17,179,14,,,,,,,,,main,1,1,2,negative,positive,j,j,1,0.6948474000673741,450.94357270002365,451.9554875000613,451.9389683000045,None,450.94357270002365,None,450.94357270002365,None,450.94357270002365,None,452.6364206600236,None,452.6364206600236,None,452.6364206600236,None,,,,,,,,,,,,,,109,2023-04-25_13h21.40.899,Main,2022.1.1,60.24963838684266,
neutral,negative,1,k,k,,,,,,,,,10,0,180,7,,,,,,,,,main,2,2,1,negative,neutral,k,k,1,0.617704400094226,452.640653999988,453.65551820001565,453.6222337000072,None,452.640653999988,None,452.640653999988,None,452.640653999988,None,454.25550786005334,None,454.25550786005334,None,454.25550786005334,None,,,,,,,,,,,,,,109,2023-04-25_13h21.40.899,Main,2022.1.1,60.24963838684266,
negative,positive,2,j,l,,,,,,,,,10,1,181,15,,,,,,,,,main,2,2,2,positive,negative,l,l,1,0.7819233000045642,454.25854609999806,455.27210489998106,455.2555836000247,None,454.25854609999806,None,454.25854609999806,None,454.25854609999806,None,456.038773160032,None,456.038773160032,None,456.038773160032,None,,,,,,,,,,,,,,109,2023-04-25_13h21.40.899,Main,2022.1.1,60.24963838684266,
positive,positive,1,l,j,,,,,,,,,10,2,182,2,,,,,,,,,main,2,2,1,positive,positive,j,j,1,0.7787430000025779,456.04205709998496,457.0553941000253,457.0387875000015,None,456.04205709998496,None,456.04205709998496,None,456.04205709998496,None,457.819237659988,None,457.819237659988,None,457.819237659988,None,,,,,,,,,,,,,,109,2023-04-25_13h21.40.899,Main,2022.1.1,60.24963838684266,
negative,negative,1,j,l,,,,,,,,,10,3,183,0,,,,,,,,,main,2,2,1,negative,negative,l,l,1,0.632318599964492,457.8298411000287,458.8361615999602,458.8194963999558,None,457.8298411000287,None,457.8298411000287,None,457.8298411000287,None,459.4528685600497,None,459.4528685600497,None,459.4528685600497,None,,,,,,,,,,,,,,109,2023-04-25_13h21.40.899,Main,2022.1.1,60.24963838684266,
positive,positive,2,l,j,,,,,,,,,10,4,184,11,,,,,,,,,main,2,2,2,positive,positive,j,j,1,0.602455300046131,459.45281699998304,460.45289690000936,460.45289690000936,None,459.45281699998304,None,459.45281699998304,None,459.45281699998304,None,461.05304515997415,None,461.05304515997415,None,461.05304515997415,None,,,,,,,,,,,,,,109,2023-04-25_13h21.40.899,Main,2022.1.1,60.24963838684266,
positive,neutral,2,l,j,,,,,,,,,10,5,185,17,,,,,,,,,main,2,2,2,neutral,positive,j,j,1,0.6793932999717072,461.0616514000576,462.0697247000644,462.0528950999724,None,461.0616514000576,None,461.0616514000576,None,461.0616514000576,None,462.738792460016,None,462.738792460016,None,462.738792460016,None,,,,,,,,,,,,,,109,2023-04-25_13h21.40.899,Main,2022.1.1,60.24963838684266,
neutral,neutral,2,k,k,,,,,,,,,10,6,186,10,,,,,,,,,main,1,1,2,neutral,neutral,k,k,1,0.5801406999817118,462.7417161000194,463.7553394000279,463.73874319996685,None,462.7417161000194,None,462.7417161000194,None,462.7417161000194,None,464.32035676001107,None,464.32035676001107,None,464.32035676001107,None,,,,,,,,,,,,,,109,2023-04-25_13h21.40.899,Main,2022.1.1,60.24963838684266,
neutral,positive,1,k,k,,,,,,,,,10,7,187,4,,,,,,,,,main,1,1,1,positive,neutral,k,k,1,0.583632200025022,464.3262924000155,465.3386210000608,465.3220238999929,None,464.3262924000155,None,464.3262924000155,None,464.3262924000155,None,465.9052903600503,None,465.9052903600503,None,465.9052903600503,None,,,,,,,,,,,,,,109,2023-04-25_13h21.40.899,Main,2022.1.1,60.24963838684266,
positive,negative,1,l,j,,,,,,,,,10,8,188,5,,,,,,,,,main,1,1,1,negative,positive,j,j,1,0.6159342000028118,465.9089380999794,466.9219084000215,466.9053093000548,None,465.9089380999794,None,465.9089380999794,None,465.9089380999794,None,467.5218627600232,None,467.5218627600232,None,467.5218627600232,None,,,,,,,,,,,,,,109,2023-04-25_13h21.40.899,Main,2022.1.1,60.24963838684266,
neutral,negative,2,k,k,,,,,,,,,10,9,189,16,,,,,,,,,main,2,2,2,negative,neutral,k,k,1,0.5640838000690565,467.5263108999934,468.5385543999728,468.52192750002723,None,467.5263108999934,None,467.5263108999934,None,467.5263108999934,None,469.0885901599657,None,469.0885901599657,None,469.0885901599657,None,,,,,,,,,,,,,,109,2023-04-25_13h21.40.899,Main,2022.1.1,60.24963838684266,
positive,negative,2,l,j,,,,,,,,,10,10,190,14,,,,,,,,,main,2,2,2,negative,positive,j,j,1,0.6955067999660969,469.09199310000986,470.1026386000449,470.085946300067,None,469.09199310000986,None,469.09199310000986,None,469.09199310000986,None,470.78596585995984,None,470.78596585995984,None,470.78596585995984,None,,,,,,,,,,,,,,109,2023-04-25_13h21.40.899,Main,2022.1.1,60.24963838684266,
negative,negative,2,j,l,,,,,,,,,10,11,191,9,,,,,,,,,main,1,1,2,negative,negative,l,l,1,0.7196204999927431,470.78591990005225,471.7859540999634,471.7859540999634,None,470.78591990005225,None,470.78591990005225,None,470.78591990005225,None,472.5027918599779,None,472.5027918599779,None,472.5027918599779,None,,,,,,,,,,,,,,109,2023-04-25_13h21.40.899,Main,2022.1.1,60.24963838684266,
neutral,neutral,1,k,k,,,,,,,,,10,12,192,1,,,,,,,,,main,2,2,1,neutral,neutral,k,k,1,0.5937892000656575,472.507882899954,473.51930339995306,473.5026878999779,None,472.507882899954,None,472.507882899954,None,472.507882899954,None,474.1026791600278,None,474.1026791600278,None,474.1026791600278,None,,,,,,,,,,,,,,109,2023-04-25_13h21.40.899,Main,2022.1.1,60.24963838684266,
negative,positive,1,j,l,,,,,,,,,10,13,193,6,,,,,,,,,main,2,2,1,positive,negative,l,l,1,0.6819850000320002,474.10557829996105,475.10511650005355,475.08843690005597,None,474.10557829996105,None,474.10557829996105,None,474.10557829996105,None,475.7859809599584,None,475.7859809599584,None,475.7859809599584,None,,,,,,,,,,,,,,109,2023-04-25_13h21.40.899,Main,2022.1.1,60.24963838684266,
neutral,positive,2,k,k,,,,,,,,,10,14,194,13,,,,,,,,,main,2,2,2,positive,neutral,k,k,1,0.5842172999400645,475.7924436000176,476.8050135000376,476.7884116000496,None,475.7924436000176,None,475.7924436000176,None,475.7924436000176,None,477.37181045995095,None,477.37181045995095,None,477.37181045995095,None,,,,,,,,,,,,,,109,2023-04-25_13h21.40.899,Main,2022.1.1,60.24963838684266,
positive,neutral,1,l,j,,,,,,,,,10,15,195,8,,,,,,,,,main,2,2,1,neutral,positive,j,j,1,0.6121566001093015,477.3760403000051,478.38828469999135,478.37175779999234,None,477.3760403000051,None,477.3760403000051,None,477.3760403000051,None,478.9859202600317,None,478.9859202600317,None,478.9859202600317,None,,,,,,,,,,,,,,109,2023-04-25_13h21.40.899,Main,2022.1.1,60.24963838684266,
negative,neutral,2,j,l,,,,,,,,,10,16,196,12,,,,,,,,,main,1,1,2,neutral,negative,l,l,1,0.7343690000707284,478.9916305000661,480.0049562000204,479.98837549996097,None,478.9916305000661,None,478.9916305000661,None,478.9916305000661,None,480.7217749600066,None,480.7217749600066,None,480.7217749600066,None,,,,,,,,,,,,,,109,2023-04-25_13h21.40.899,Main,2022.1.1,60.24963838684266,
negative,neutral,1,j,l,,,,,,,,,10,17,197,3,,,,,,,,,main,1,1,1,neutral,negative,l,l,1,0.5776446999516338,480.72802539996337,481.73572390002664,481.71905019995756,None,480.72802539996337,None,480.72802539996337,None,480.72802539996337,None,482.3024087600177,None,482.3024087600177,None,482.3024087600177,None,,,,,,,,,,,,,,109,2023-04-25_13h21.40.899,Main,2022.1.1,60.24963838684266,
negative,positive,1,j,l,,,,,,,,,11,0,198,6,,,,,,,,,main,2,2,1,positive,negative,l,l,1,0.6486003000754863,482.3033412999939,483.3024723000126,483.3024723000126,None,482.3033412999939,None,482.3033412999939,None,482.3033412999939,None,483.9528222600464,None,483.9528222600464,None,483.9528222600464,None,,,,,,,,,,,,,,109,2023-04-25_13h21.40.899,Main,2022.1.1,60.24963838684266,
positive,positive,2,l,j,,,,,,,,,11,1,199,11,,,,,,,,,main,1,1,2,positive,positive,j,j,1,0.7499788999557495,483.9630129999714,484.9715197000187,484.95494530000724,None,483.9630129999714,None,483.9630129999714,None,483.9630129999714,None,485.7049258599989,None,485.7049258599989,None,485.7049258599989,None,,,,,,,,,,,,,,109,2023-04-25_13h21.40.899,Main,2022.1.1,60.24963838684266,
positive,negative,1,l,j,,,,,,,,,11,2,200,5,,,,,,,,,main,2,2,1,negative,positive,j,j,1,0.7318353999871761,485.7083346999716,486.7215421999572,486.7049332000315,None,485.7083346999716,None,485.7083346999716,None,485.7083346999716,None,487.4383192599751,None,487.4383192599751,None,487.4383192599751,None,,,,,,,,,,,,,,109,2023-04-25_13h21.40.899,Main,2022.1.1,60.24963838684266,
negative,negative,2,j,l,,,,,,,,,11,3,201,9,,,,,,,,,main,1,1,2,negative,negative,l,l,1,0.848207600065507,487.44111819996033,488.45481230004225,488.4382171999896,None,487.44111819996033,None,487.44111819996033,None,487.44111819996033,None,489.28817386000884,None,489.28817386000884,None,489.28817386000884,None,,,,,,,,,,,,,,109,2023-04-25_13h21.40.899,Main,2022.1.1,60.24963838684266,
positive,negative,2,l,j,,,,,,,,,11,4,202,14,,,,,,,,,main,1,1,2,negative,positive,j,j,1,0.7466749000595883,489.29131050000433,490.30477040004916,490.28813919995446,None,489.29131050000433,None,489.29131050000433,None,489.29131050000433,None,491.0356795599917,None,491.0356795599917,None,491.0356795599917,None,,,,,,,,,,,,,,109,2023-04-25_13h21.40.899,Main,2022.1.1,60.24963838684266,
neutral,positive,1,k,k,,,,,,,,,11,5,203,4,,,,,,,,,main,1,1,1,positive,neutral,k,k,1,0.6653340999037027,491.05204400001094,492.0522531999741,492.03557139995974,None,491.05204400001094,None,491.05204400001094,None,491.05204400001094,None,492.70222806006205,None,492.70222806006205,None,492.70222806006205,None,,,,,,,,,,,,,,109,2023-04-25_13h21.40.899,Main,2022.1.1,60.24963838684266,
negative,neutral,1,j,l,,,,,,,,,11,6,204,3,,,,,,,,,main,2,2,1,neutral,negative,l,l,1,0.7476676000514999,492.70331090001855,493.71889630006626,493.7022378999973,None,492.70331090001855,None,492.70331090001855,None,492.70331090001855,None,494.45228606003803,None,494.45228606003803,None,494.45228606003803,None,,,,,,,,,,,,,,109,2023-04-25_13h21.40.899,Main,2022.1.1,60.24963838684266,
negative,negative,1,j,l,,,,,,,,,11,7,205,0,,,,,,,,,main,2,2,1,negative,negative,l,l,1,0.6507071000523865,494.45334070001263,495.45219420001376,495.45219420001376,None,494.45334070001263,None,494.45334070001263,None,494.45334070001263,None,496.1047237599967,None,496.1047237599967,None,496.1047237599967,None,,,,,,,,,,,,,,109,2023-04-25_13h21.40.899,Main,2022.1.1,60.24963838684266,
neutral,positive,2,k,k,,,,,,,,,11,8,206,13,,,,,,,,,main,2,2,2,positive,neutral,k,k,1,0.6810922999866307,496.10791570006404,497.12132230005227,497.1046832000138,None,496.10791570006404,None,496.10791570006404,None,496.10791570006404,None,497.78736346000807,None,497.78736346000807,None,497.78736346000807,None,,,,,,,,,,,,,,109,2023-04-25_13h21.40.899,Main,2022.1.1,60.24963838684266,
negative,positive,2,j,l,,,,,,,,,11,9,207,15,,,,,,,,,main,2,2,2,positive,negative,l,l,1,0.7137490999884903,497.7925770999864,498.8046352000674,498.78800679999404,None,497.7925770999864,None,497.7925770999864,None,497.7925770999864,None,499.50277825999075,None,499.50277825999075,None,499.50277825999075,None,,,,,,,,,,,,,,109,2023-04-25_13h21.40.899,Main,2022.1.1,60.24963838684266,
neutral,neutral,1,k,k,,,,,,,,,11,10,208,1,,,,,,,,,main,1,1,1,neutral,neutral,k,k,1,0.6011617999756709,499.50915080006234,500.52117069996893,500.50463550002314,None,499.50915080006234,None,499.50915080006234,None,499.50915080006234,None,501.1047160600545,None,501.1047160600545,None,501.1047160600545,None,,,,,,,,,,,,,,109,2023-04-25_13h21.40.899,Main,2022.1.1,60.24963838684266,
positive,neutral,1,l,j,,,,,,,,,11,11,209,8,,,,,,,,,main,2,2,1,neutral,positive,j,j,1,0.6448028000304475,501.1089976000367,502.1212307000533,502.1046011999715,None,501.1089976000367,None,501.1089976000367,None,501.1089976000367,None,502.7520382600604,None,502.7520382600604,None,502.7520382600604,None,,,,,,,,,,,,,,109,2023-04-25_13h21.40.899,Main,2022.1.1,60.24963838684266,
neutral,negative,1,k,k,,,,,,,,,11,12,210,7,,,,,,,,,main,2,2,1,negative,neutral,k,k,1,0.698769100010395,502.7519680999685,503.7519867999945,503.7519867999945,None,502.7519680999685,None,502.7519680999685,None,502.7519680999685,None,504.4520887600491,None,504.4520887600491,None,504.4520887600491,None,,,,,,,,,,,,,,109,2023-04-25_13h21.40.899,Main,2022.1.1,60.24963838684266,
positive,positive,1,l,j,,,,,,,,,11,13,211,2,,,,,,,,,main,1,1,1,positive,positive,j,j,1,0.7173336000414565,504.4556809000205,505.4711785999825,505.45451810001396,None,504.4556809000205,None,504.4556809000205,None,504.4556809000205,None,506.1712522600545,None,506.1712522600545,None,506.1712522600545,None,,,,,,,,,,,,,,109,2023-04-25_13h21.40.899,Main,2022.1.1,60.24963838684266,
neutral,negative,2,k,k,,,,,,,,,11,14,212,16,,,,,,,,,main,1,1,2,negative,neutral,k,k,1,0.6146384000312537,506.1758742000675,507.1876442000503,507.1710538000334,None,506.1758742000675,None,506.1758742000675,None,506.1758742000675,None,507.787479059957,None,507.787479059957,None,507.787479059957,None,,,,,,,,,,,,,,109,2023-04-25_13h21.40.899,Main,2022.1.1,60.24963838684266,
neutral,neutral,2,k,k,,,,,,,,,11,15,213,10,,,,,,,,,main,1,1,2,neutral,neutral,k,k,1,0.5462853999342769,507.7923136999598,508.80440819996875,508.7878163000569,None,507.7923136999598,None,507.7923136999598,None,507.7923136999598,None,509.3353221599944,None,509.3353221599944,None,509.3353221599944,None,,,,,,,,,,,,,,109,2023-04-25_13h21.40.899,Main,2022.1.1,60.24963838684266,
positive,neutral,2,l,j,,,,,,,,,11,16,214,17,,,,,,,,,main,2,2,2,neutral,positive,j,j,1,0.7488935000728816,509.3416826999746,510.35442670003977,510.3378216000274,None,509.3416826999746,None,509.3416826999746,None,509.3416826999746,None,511.0856065599481,None,511.0856065599481,None,511.0856065599481,None,,,,,,,,,,,,,,109,2023-04-25_13h21.40.899,Main,2022.1.1,60.24963838684266,
negative,neutral,2,j,l,,,,,,,,,11,17,215,12,,,,,,,,,main,2,2,2,neutral,negative,l,l,1,0.7687644000397995,511.0894450000487,512.1043523000553,512.0877552999882,None,511.0894450000487,None,511.0894450000487,None,511.0894450000487,None,512.8558771600481,None,512.8558771600481,None,512.8558771600481,None,,,,,,,,,,,,,,109,2023-04-25_13h21.40.899,Main,2022.1.1,60.24963838684266,
negative,positive,2,j,l,,,,,,,,,12,0,216,15,,,,,,,,,main,1,1,2,positive,negative,l,l,1,0.5607064999639988,512.8686619000509,513.868583100033,513.8518012999557,None,512.8686619000509,None,512.8686619000509,None,512.8686619000509,None,514.4184627600014,None,514.4184627600014,None,514.4184627600014,None,,,,,,,,,,,,,,109,2023-04-25_13h21.40.899,Main,2022.1.1,60.24963838684266,
neutral,negative,1,k,k,,,,,,,,,12,1,217,7,,,,,,,,,main,1,1,1,negative,neutral,k,k,1,0.5671832000371069,514.4351020000177,515.4351261999691,515.4184487999883,None,514.4351020000177,None,514.4351020000177,None,514.4351020000177,None,515.9875733600463,None,515.9875733600463,None,515.9875733600463,None,,,,,,,,,,,,,,109,2023-04-25_13h21.40.899,Main,2022.1.1,60.24963838684266,
positive,neutral,2,l,j,,,,,,,,,12,2,218,17,,,,,,,,,main,1,1,2,neutral,positive,j,j,1,0.7295798999257386,515.9907633999828,517.0042079000268,516.9875565000111,None,515.9907633999828,None,515.9907633999828,None,515.9907633999828,None,517.718815460056,None,517.718815460056,None,517.718815460056,None,,,,,,,,,,,,,,109,2023-04-25_13h21.40.899,Main,2022.1.1,60.24963838684266,
positive,negative,2,l,j,,,,,,,,,12,3,219,14,,,,,,,,,main,2,2,2,negative,positive,j,j,1,0.6336235000053421,517.7249530999688,518.7374712000601,518.7208866999717,None,517.7249530999688,None,517.7249530999688,None,517.7249530999688,None,519.3541617600247,None,519.3541617600247,None,519.3541617600247,None,,,,,,,,,,,,,,109,2023-04-25_13h21.40.899,Main,2022.1.1,60.24963838684266,
positive,neutral,1,l,j,,,,,,,,,12,4,220,8,,,,,,,,,main,2,2,1,neutral,positive,j,j,1,0.663488500053063,519.3646826000186,520.3708323000465,520.3541483000154,None,519.3646826000186,None,519.3646826000186,None,519.3646826000186,None,521.0208875600481,None,521.0208875600481,None,521.0208875600481,None,,,,,,,,,,,,,,109,2023-04-25_13h21.40.899,Main,2022.1.1,60.24963838684266,
neutral,neutral,1,k,k,,,,,,,,,12,5,221,1,,,,,,,,,main,1,1,1,neutral,neutral,k,k,1,0.6294171999907121,521.023243600037,522.03747380001,522.0208411000203,None,521.023243600037,None,521.023243600037,None,521.023243600037,None,522.6515833599958,None,522.6515833599958,None,522.6515833599958,None,,,,,,,,,,,,,,109,2023-04-25_13h21.40.899,Main,2022.1.1,60.24963838684266,
positive,positive,1,l,j,,,,,,,,,12,6,222,2,,,,,,,,,main,1,1,1,positive,positive,j,j,1,0.6315933999139816,522.6517254000064,523.6515851999866,523.6515851999866,None,522.6517254000064,None,522.6517254000064,None,522.6517254000064,None,524.2849774600006,None,524.2849774600006,None,524.2849774600006,None,,,,,,,,,,,,,,109,2023-04-25_13h21.40.899,Main,2022.1.1,60.24963838684266,
