target,distractor,set,ans1,ans2,rep_loop2.thisRepN,rep_loop2.thisTrialN,rep_loop2.thisN,rep_loop2.thisIndex,flanker_prac_loop.thisRepN,flanker_prac_loop.thisTrialN,flanker_prac_loop.thisN,flanker_prac_loop.thisIndex,flanker_main_loop.thisRepN,flanker_main_loop.thisTrialN,flanker_main_loop.thisN,flanker_main_loop.thisIndex,fl_inst_resp.keys,fl_inst_resp.rt,sound_1.started,sound_1.stopped,image_4.started,image_4.stopped,back_2.started,back_2.stopped,main_prac,fl_cold,fl_colt,fl_set,fl_dcond,fl_tcond,fl_ans,fl_res,fl_corr,fl_rt,fix_fl.started,fix_fl.stopped,targ.started,targ.stopped,j_button.started,j_button.stopped,k_button.started,k_button.stopped,l_button.started,l_button.stopped,j_button2.started,j_button2.stopped,k_button2.started,k_button2.stopped,l_button2.started,l_button2.stopped,mainback.started,mainback.stopped,key_resp.keys,key_resp.rt,mouse_6.x,mouse_6.y,mouse_6.leftButton,mouse_6.midButton,mouse_6.rightButton,mouse_6.started,mouse_6.stopped,text_2.started,text_2.stopped,id*,date,expName,psychopyVersion,frameRate,
,,,,,0,0,0,0,,,,,,,,,space,54.23742140000104,29.50785246000014,None,83.77360860000044,None,,,,,,,,,,,,,,,,,,,,,,,,,,,,,,,,,,,,,,,,,,110,2023-04-17_10h20.15.597,Main,2022.1.1,59.15535616310078,
neutral,negative,2,k,k,,,,,0,0,0,16,,,,,,,,,,,87.2401677999951,None,prac,2,2,2,negative,neutral,k,k,1,1.1534824000045774,89.26830129999871,90.27090209999733,90.25423320000118,None,89.26830129999871,None,89.26830129999871,None,89.26830129999871,None,91.42085325999942,None,91.42085325999942,None,91.42085325999942,None,,,,,,,,,,,,,,110,2023-04-17_10h20.15.597,Main,2022.1.1,59.15535616310078,
negative,negative,2,j,l,,,,,0,1,1,9,,,,,,,,,,,,,prac,1,1,2,negative,negative,j,j,1,1.2838249000051292,91.43457150000177,92.44002769999497,92.4234346000012,None,91.43457150000177,None,91.43457150000177,None,91.43457150000177,None,93.70656725999724,None,93.70656725999724,None,93.70656725999724,None,,,,,,,,,,,,,,110,2023-04-17_10h20.15.597,Main,2022.1.1,59.15535616310078,
neutral,negative,1,k,k,,,,,0,2,2,7,,,,,,,,,,,,,prac,2,2,1,negative,neutral,k,k,1,0.7803531000026851,93.71055250000063,94.72332279999682,94.70674779999536,None,93.71055250000063,None,93.71055250000063,None,93.71055250000063,None,95.48775505999656,None,95.48775505999656,None,95.48775505999656,None,,,,,,,,,,,,,,110,2023-04-17_10h20.15.597,Main,2022.1.1,59.15535616310078,
neutral,neutral,2,k,k,,,,,0,3,3,10,,,,,,,,,,,,,prac,2,2,2,neutral,neutral,k,k,1,1.048392500000773,95.49398369999835,96.50663730000088,96.49003490000177,None,95.49398369999835,None,95.49398369999835,None,95.49398369999835,None,97.53751295999682,None,97.53751295999682,None,97.53751295999682,None,,,,,,,,,,,,,,110,2023-04-17_10h20.15.597,Main,2022.1.1,59.15535616310078,
positive,neutral,2,l,j,,,,,0,4,4,17,,,,,,,,,,,,,prac,2,2,2,neutral,positive,l,l,1,0.9485158000024967,97.5511176,98.55664379999507,98.53994529999909,None,97.5511176,None,97.5511176,None,97.5511176,None,99.48721225999616,None,99.48721225999616,None,99.48721225999616,None,,,,,,,,,,,,,,110,2023-04-17_10h20.15.597,Main,2022.1.1,59.15535616310078,
positive,negative,2,l,j,,,,,0,5,5,14,,,,,,,,,,,,,prac,1,1,2,negative,positive,l,l,1,0.8318268000002718,99.4947198000009,100.50399559999641,100.48734680000052,None,99.4947198000009,None,99.4947198000009,None,99.4947198000009,None,101.32063185999577,None,101.32063185999577,None,101.32063185999577,None,,,,,,,,,,,,,,110,2023-04-17_10h20.15.597,Main,2022.1.1,59.15535616310078,
positive,neutral,1,l,j,,,,,0,6,6,8,,,,,,,,,,,,,prac,2,2,1,neutral,positive,l,l,1,0.88250970000081,101.33398769999621,102.33987949999573,102.32321660000162,None,101.33398769999621,None,101.33398769999621,None,101.33398769999621,None,103.20423155999451,None,103.20423155999451,None,103.20423155999451,None,,,,,,,,,,,,,,110,2023-04-17_10h20.15.597,Main,2022.1.1,59.15535616310078,
neutral,positive,2,k,k,,,,,0,7,7,13,,,,,,,,,,,,,prac,1,1,2,positive,neutral,k,k,1,0.8988296999959857,103.21625759999733,104.22314750000078,104.20656079999753,None,103.21625759999733,None,103.21625759999733,None,103.21625759999733,None,105.10423245999554,None,105.10423245999554,None,105.10423245999554,None,,,,,,,,,,,,,,110,2023-04-17_10h20.15.597,Main,2022.1.1,59.15535616310078,
negative,negative,1,j,l,,,,,0,8,8,0,,,,,,,,,,,,,prac,2,2,1,negative,negative,j,j,1,0.9508922000022721,105.11049929999717,106.12308330000087,106.10650809999788,None,105.11049929999717,None,105.11049929999717,None,105.11049929999717,None,107.05630755999736,None,107.05630755999736,None,107.05630755999736,None,,,,,,,,,,,,,,110,2023-04-17_10h20.15.597,Main,2022.1.1,59.15535616310078,
positive,negative,1,l,j,,,,,0,9,9,5,,,,,,,,,,,,,prac,1,1,1,negative,positive,l,l,1,0.8988752000004752,107.07036859999789,108.07306450000033,108.05645640000148,None,107.07036859999789,None,107.07036859999789,None,107.07036859999789,None,108.95633936000085,None,108.95633936000085,None,108.95633936000085,None,,,,,,,,,,,,,,110,2023-04-17_10h20.15.597,Main,2022.1.1,59.15535616310078,
negative,neutral,2,j,l,,,,,0,10,10,12,,,,,,,,,,,,,prac,1,1,2,neutral,negative,j,j,1,0.9126812999966205,108.96671069999866,109.97046609999961,109.9538063,None,108.96671069999866,None,108.96671069999866,None,108.96671069999866,None,110.87032565999543,None,110.87032565999543,None,110.87032565999543,None,,,,,,,,,,,,,,110,2023-04-17_10h20.15.597,Main,2022.1.1,59.15535616310078,
negative,positive,1,j,l,,,,,0,11,11,6,,,,,,,,,,,,,prac,1,1,1,positive,negative,j,j,1,0.8655211000004783,110.8803740000003,111.88720259999536,111.8705364999987,None,110.8803740000003,None,110.8803740000003,None,110.8803740000003,None,112.7370877600013,None,112.7370877600013,None,112.7370877600013,None,,,,,,,,,,,,,,110,2023-04-17_10h20.15.597,Main,2022.1.1,59.15535616310078,
negative,positive,2,j,l,,,,,0,12,12,15,,,,,,,,,,,,,prac,2,2,2,positive,negative,j,j,1,0.85138089999964,112.74297449999722,113.7562489999982,113.73967229999835,None,112.74297449999722,None,112.74297449999722,None,112.74297449999722,None,114.5897217599966,None,114.5897217599966,None,114.5897217599966,None,,,,,,,,,,,,,,110,2023-04-17_10h20.15.597,Main,2022.1.1,59.15535616310078,
neutral,positive,1,k,k,,,,,0,13,13,4,,,,,,,,,,,,,prac,2,2,1,positive,neutral,k,k,1,0.7296292999963043,114.60398400000122,115.60630369999853,115.58965789999638,None,114.60398400000122,None,114.60398400000122,None,114.60398400000122,None,116.32067646000068,None,116.32067646000068,None,116.32067646000068,None,,,,,,,,,,,,,,110,2023-04-17_10h20.15.597,Main,2022.1.1,59.15535616310078,
negative,neutral,1,j,l,,,,,0,14,14,3,,,,,,,,,,,,,prac,2,2,1,neutral,negative,j,k,0,0.2675835999980336,116.3259756999978,117.33954660000018,117.32295399999566,None,116.3259756999978,None,116.3259756999978,None,116.3259756999978,None,117.5873036999983,None,117.5873036999983,None,117.5873036999983,None,,,,,,,,,,,,,,110,2023-04-17_10h20.15.597,Main,2022.1.1,59.15535616310078,
positive,positive,2,l,j,,,,,0,15,15,11,,,,,,,,,,,,,prac,2,2,2,positive,positive,l,l,1,0.9344536000062362,118.58770119999826,119.58694639999885,119.5702839000005,None,118.58770119999826,None,118.58770119999826,None,118.58770119999826,None,120.52013375999813,None,120.52013375999813,None,120.52013375999813,None,,,,,,,,,,,,,,110,2023-04-17_10h20.15.597,Main,2022.1.1,59.15535616310078,
positive,positive,1,l,j,,,,,0,16,16,2,,,,,,,,,,,,,prac,1,1,1,positive,positive,l,l,1,0.8843024999951012,120.52051940000092,121.52035980000073,121.52035980000073,None,120.52051940000092,None,120.52051940000092,None,120.52051940000092,None,122.40603905999596,None,122.40603905999596,None,122.40603905999596,None,,,,,,,,,,,,,,110,2023-04-17_10h20.15.597,Main,2022.1.1,59.15535616310078,
neutral,neutral,1,k,k,,,,,0,17,17,1,,,,,,,,,,,,,prac,2,2,1,neutral,neutral,k,k,1,0.8524614999987534,122.4101784999948,123.42276770000171,123.40617309999652,None,122.4101784999948,None,122.4101784999948,None,122.4101784999948,None,124.25610586000111,None,124.25610586000111,None,124.25610586000111,None,,,,,,,,,,,,,,110,2023-04-17_10h20.15.597,Main,2022.1.1,59.15535616310078,
neutral,positive,2,k,k,,,,,1,0,18,13,,,,,,,,,,,,,prac,1,1,2,positive,neutral,k,k,1,0.8106034999946132,124.26375030000054,125.27271449999535,125.25614230000065,None,124.26375030000054,None,124.26375030000054,None,124.26375030000054,None,126.07272555999661,None,126.07272555999661,None,126.07272555999661,None,,,,,,,,,,,,,,110,2023-04-17_10h20.15.597,Main,2022.1.1,59.15535616310078,
positive,positive,1,l,j,,,,,1,1,19,2,,,,,,,,,,,,,prac,1,1,1,positive,positive,l,l,1,0.9988115000014659,126.07538059999933,127.08937480000168,127.07275579999987,None,126.07538059999933,None,126.07538059999933,None,126.07538059999933,None,128.07265675999662,None,128.07265675999662,None,128.07265675999662,None,,,,,,,,,,,,,,110,2023-04-17_10h20.15.597,Main,2022.1.1,59.15535616310078,
positive,negative,1,l,j,,,,,1,2,20,5,,,,,,,,,,,,,prac,1,1,1,negative,positive,l,l,1,0.8129859000036959,128.07647449999786,129.08935239999846,129.07269119999546,None,128.07647449999786,None,128.07647449999786,None,128.07647449999786,None,129.88663505999722,None,129.88663505999722,None,129.88663505999722,None,,,,,,,,,,,,,,110,2023-04-17_10h20.15.597,Main,2022.1.1,59.15535616310078,
neutral,negative,1,k,k,,,,,1,3,21,7,,,,,,,,,,,,,prac,2,2,1,negative,neutral,k,k,1,0.6653531999982079,129.8867695000008,130.8867723000003,130.8867723000003,None,129.8867695000008,None,129.8867695000008,None,129.8867695000008,None,131.55338005999948,None,131.55338005999948,None,131.55338005999948,None,,,,,,,,,,,,,,110,2023-04-17_10h20.15.597,Main,2022.1.1,59.15535616310078,
positive,positive,2,l,j,,,,,1,4,22,11,,,,,,,,,,,,,prac,2,2,2,positive,positive,l,l,1,0.8720002999980352,131.55772289999732,132.57261769999604,132.55601719999686,None,131.55772289999732,None,131.55772289999732,None,131.55772289999732,None,133.42269235999703,None,133.42269235999703,None,133.42269235999703,None,,,,,,,,,,,,,,110,2023-04-17_10h20.15.597,Main,2022.1.1,59.15535616310078,
positive,neutral,1,l,j,,,,,1,5,23,8,,,,,,,,,,,,,prac,2,2,1,neutral,positive,l,l,1,0.6268448000046192,133.4301129000014,134.43921359999513,134.42260689999966,None,133.4301129000014,None,133.4301129000014,None,133.4301129000014,None,135.05365465999495,None,135.05365465999495,None,135.05365465999495,None,,,,,,,,,,,,,,110,2023-04-17_10h20.15.597,Main,2022.1.1,59.15535616310078,
neutral,positive,1,k,k,,,,,1,6,24,4,,,,,,,,,,,,,prac,1,1,1,positive,neutral,k,k,1,0.885693900003389,135.06960329999856,136.07249980000051,136.05591009999625,None,135.06960329999856,None,135.06960329999856,None,135.06960329999856,None,136.94043755999593,None,136.94043755999593,None,136.94043755999593,None,,,,,,,,,,,,,,110,2023-04-17_10h20.15.597,Main,2022.1.1,59.15535616310078,
neutral,neutral,1,k,k,,,,,1,7,25,1,,,,,,,,,,,,,prac,1,1,1,neutral,neutral,k,k,1,0.5960159999958705,136.95349419999548,137.95582089999516,137.9392508000019,None,136.95349419999548,None,136.95349419999548,None,136.95349419999548,None,138.5390110599954,None,138.5390110599954,None,138.5390110599954,None,,,,,,,,,,,,,,110,2023-04-17_10h20.15.597,Main,2022.1.1,59.15535616310078,
negative,negative,2,j,l,,,,,1,8,26,9,,,,,,,,,,,,,prac,1,1,2,negative,negative,j,j,1,0.8625946000029217,138.541779399995,139.55336249999527,139.53659139999945,None,138.541779399995,None,138.541779399995,None,138.541779399995,None,140.40312365999563,None,140.40312365999563,None,140.40312365999563,None,,,,,,,,,,,,,,110,2023-04-17_10h20.15.597,Main,2022.1.1,59.15535616310078,
neutral,negative,2,k,k,,,,,1,9,27,16,,,,,,,,,,,,,prac,1,1,2,negative,neutral,k,k,1,0.7155997999943793,140.40325080000184,141.40328410000075,141.40328410000075,None,140.40325080000184,None,140.40325080000184,None,140.40325080000184,None,142.119790759997,None,142.119790759997,None,142.119790759997,None,,,,,,,,,,,,,,110,2023-04-17_10h20.15.597,Main,2022.1.1,59.15535616310078,
neutral,neutral,2,k,k,,,,,1,10,28,10,,,,,,,,,,,,,prac,2,2,2,neutral,neutral,k,k,1,0.6658297999965725,142.1200142000016,143.11993090000033,143.11993090000033,None,142.1200142000016,None,142.1200142000016,None,142.1200142000016,None,143.7868722600004,None,143.7868722600004,None,143.7868722600004,None,,,,,,,,,,,,,,110,2023-04-17_10h20.15.597,Main,2022.1.1,59.15535616310078,
negative,neutral,1,j,l,,,,,1,11,29,3,,,,,,,,,,,,,prac,2,2,1,neutral,negative,j,j,1,0.6482131000011577,143.79274710000027,144.80570699999953,144.78906740000093,None,143.79274710000027,None,143.79274710000027,None,143.79274710000027,None,145.43644206000027,None,145.43644206000027,None,145.43644206000027,None,,,,,,,,,,,,,,110,2023-04-17_10h20.15.597,Main,2022.1.1,59.15535616310078,
negative,positive,1,j,l,,,,,1,12,30,6,,,,,,,,,,,,,prac,2,2,1,positive,negative,j,j,1,0.6991361999971559,145.44007050000073,146.45565859999624,146.422404500001,None,145.44007050000073,None,145.44007050000073,None,145.44007050000073,None,147.1367463600007,None,147.1367463600007,None,147.1367463600007,None,,,,,,,,,,,,,,110,2023-04-17_10h20.15.597,Main,2022.1.1,59.15535616310078,
negative,negative,1,j,l,,,,,1,13,31,0,,,,,,,,,,,,,prac,2,2,1,negative,negative,j,j,1,0.6335605000058422,147.14326079999591,148.15557389999594,148.138993200002,None,147.14326079999591,None,147.14326079999591,None,147.14326079999591,None,148.7723775599996,None,148.7723775599996,None,148.7723775599996,None,,,,,,,,,,,,,,110,2023-04-17_10h20.15.597,Main,2022.1.1,59.15535616310078,
positive,negative,2,l,j,,,,,1,14,32,14,,,,,,,,,,,,,prac,2,2,2,negative,positive,l,l,1,0.8984864000012749,148.77699030000076,149.78891640000074,149.77231169999868,None,148.77699030000076,None,148.77699030000076,None,148.77699030000076,None,150.67211656,None,150.67211656,None,150.67211656,None,,,,,,,,,,,,,,110,2023-04-17_10h20.15.597,Main,2022.1.1,59.15535616310078,
negative,positive,2,j,l,,,,,1,15,33,15,,,,,,,,,,,,,prac,1,1,2,positive,negative,j,j,1,0.7795611999972607,150.67621879999933,151.68632090000028,151.669653500001,None,150.67621879999933,None,150.67621879999933,None,150.67621879999933,None,152.4528337599957,None,152.4528337599957,None,152.4528337599957,None,,,,,,,,,,,,,,110,2023-04-17_10h20.15.597,Main,2022.1.1,59.15535616310078,
negative,neutral,2,j,l,,,,,1,16,34,12,,,,,,,,,,,,,prac,1,1,2,neutral,negative,j,j,1,0.6985547000003862,152.45294730000023,153.4530311999988,153.4530311999988,None,152.45294730000023,None,152.45294730000023,None,152.45294730000023,None,154.15290885999713,None,154.15290885999713,None,154.15290885999713,None,,,,,,,,,,,,,,110,2023-04-17_10h20.15.597,Main,2022.1.1,59.15535616310078,
positive,neutral,2,l,j,,,,,1,17,35,17,,,,,,,,,,,,,prac,2,2,2,neutral,positive,l,l,1,0.8682536000051186,154.15826899999956,155.17214679999597,155.13887219999742,None,154.15826899999956,None,154.15826899999956,None,154.15826899999956,None,156.02230555999705,None,156.02230555999705,None,156.02230555999705,None,,,,,,,,,,,,,,110,2023-04-17_10h20.15.597,Main,2022.1.1,59.15535616310078,
,,,,,,,,,,,,,,,,,,,,,,,,,,,,,,,,,,,,,,,,,,,,,,,,,,,156.02223499999673,None,space,2.4588301999974647,,,,,,,,,,110,2023-04-17_10h20.15.597,Main,2022.1.1,59.15535616310078,
,,,,,,,,,,,,,,,,,,,,,,,,,,,,,,,,,,,,,,,,,,,,,,,,,,,,,,,0.8074074,-0.20555556,0,0,0,0.011133259999041911,None,,,110,2023-04-17_10h20.15.597,Main,2022.1.1,59.15535616310078,
positive,positive,2,l,j,,,,,,,,,0,0,0,11,,,,,,,158.50544799999625,None,main,2,2,2,positive,positive,l,l,1,0.8280111000058241,160.51049570000032,161.5220663,161.50546439999744,None,160.51049570000032,None,160.51049570000032,None,160.51049570000032,None,162.33598906000117,None,162.33598906000117,None,162.33598906000117,None,,,,,,,,,,,,,,110,2023-04-17_10h20.15.597,Main,2022.1.1,59.15535616310078,
positive,positive,1,l,j,,,,,,,,,0,1,1,2,,,,,,,,,main,1,1,1,positive,positive,l,l,1,0.6519044000015128,162.33747890000086,163.3528062999976,163.33612749999884,None,162.33747890000086,None,162.33747890000086,None,162.33747890000086,None,163.98991775999895,None,163.98991775999895,None,163.98991775999895,None,,,,,,,,,,,,,,110,2023-04-17_10h20.15.597,Main,2022.1.1,59.15535616310078,
neutral,negative,1,k,k,,,,,,,,,0,2,2,7,,,,,,,,,main,2,2,1,negative,neutral,k,k,1,0.644013699995412,163.99406089999684,165.0052773999996,164.98869369999738,None,163.99406089999684,None,163.99406089999684,None,163.99406089999684,None,165.63638495999913,None,165.63638495999913,None,165.63638495999913,None,,,,,,,,,,,,,,110,2023-04-17_10h20.15.597,Main,2022.1.1,59.15535616310078,
positive,negative,1,l,j,,,,,,,,,0,3,3,5,,,,,,,,,main,2,2,1,negative,positive,l,l,1,0.8317317000037292,165.64241339999717,166.65522159999819,166.6386449999991,None,165.64241339999717,None,165.64241339999717,None,165.64241339999717,None,167.46965386000085,None,167.46965386000085,None,167.46965386000085,None,,,,,,,,,,,,,,110,2023-04-17_10h20.15.597,Main,2022.1.1,59.15535616310078,
negative,positive,2,j,l,,,,,,,,,0,4,4,15,,,,,,,,,main,2,2,2,positive,negative,j,j,1,0.7815206000013859,167.4733309000003,168.4884849000009,168.4718834000014,None,167.4733309000003,None,167.4733309000003,None,167.4733309000003,None,169.25265285999632,None,169.25265285999632,None,169.25265285999632,None,,,,,,,,,,,,,,110,2023-04-17_10h20.15.597,Main,2022.1.1,59.15535616310078,
neutral,neutral,1,k,k,,,,,,,,,0,5,5,1,,,,,,,,,main,1,1,1,neutral,neutral,k,k,1,0.6518448999995599,169.2589536000014,170.2717835000003,170.25515939999605,None,169.2589536000014,None,169.2589536000014,None,169.2589536000014,None,170.90507055999916,None,170.90507055999916,None,170.90507055999916,None,,,,,,,,,,,,,,110,2023-04-17_10h20.15.597,Main,2022.1.1,59.15535616310078,
negative,neutral,1,j,l,,,,,,,,,0,6,6,3,,,,,,,,,main,2,2,1,neutral,negative,j,j,1,0.8281608999968739,170.9093705999985,171.9218047999966,171.90518809999776,None,170.9093705999985,None,170.9093705999985,None,170.9093705999985,None,172.73579335999676,None,172.73579335999676,None,172.73579335999676,None,,,,,,,,,,,,,,110,2023-04-17_10h20.15.597,Main,2022.1.1,59.15535616310078,
negative,positive,1,j,l,,,,,,,,,0,7,7,6,,,,,,,,,main,2,2,1,positive,negative,j,j,1,0.6488716999956523,172.73589479999646,173.73591820000001,173.73591820000001,None,172.73589479999646,None,172.73589479999646,None,172.73589479999646,None,174.38583215999535,None,174.38583215999535,None,174.38583215999535,None,,,,,,,,,,,,,,110,2023-04-17_10h20.15.597,Main,2022.1.1,59.15535616310078,
negative,neutral,2,j,l,,,,,,,,,0,8,8,12,,,,,,,,,main,2,2,2,neutral,negative,j,j,1,0.6650319999971543,174.38827579999634,175.40263530000084,175.38594179999927,None,174.38827579999634,None,174.38827579999634,None,174.38827579999634,None,176.05249845999498,None,176.05249845999498,None,176.05249845999498,None,,,,,,,,,,,,,,110,2023-04-17_10h20.15.597,Main,2022.1.1,59.15535616310078,
positive,neutral,2,l,j,,,,,,,,,0,9,9,17,,,,,,,,,main,1,1,2,neutral,positive,l,l,1,0.9888737000001129,176.0569275999951,177.0717233999967,177.05517799999507,None,176.0569275999951,None,176.0569275999951,None,176.0569275999951,None,178.04193455999922,None,178.04193455999922,None,178.04193455999922,None,,,,,,,,,,,,,,110,2023-04-17_10h20.15.597,Main,2022.1.1,59.15535616310078,
negative,negative,2,j,l,,,,,,,,,0,10,10,9,,,,,,,,,main,1,1,2,negative,negative,j,j,1,0.7602219000036712,178.04736859999684,179.05503239999962,179.03841719999764,None,178.04736859999684,None,178.04736859999684,None,178.04736859999684,None,179.8049640599973,None,179.8049640599973,None,179.8049640599973,None,,,,,,,,,,,,,,110,2023-04-17_10h20.15.597,Main,2022.1.1,59.15535616310078,
negative,negative,1,j,l,,,,,,,,,0,11,11,0,,,,,,,,,main,1,1,1,negative,negative,j,j,1,0.6954774999976507,179.80905350000103,180.8216342999949,180.80505840000114,None,179.80905350000103,None,179.80905350000103,None,179.80905350000103,None,181.5027541599964,None,181.5027541599964,None,181.5027541599964,None,,,,,,,,,,,,,,110,2023-04-17_10h20.15.597,Main,2022.1.1,59.15535616310078,
neutral,negative,2,k,k,,,,,,,,,0,12,12,16,,,,,,,,,main,2,2,2,negative,neutral,k,k,1,0.7483652000009897,181.50905760000023,182.52153610000096,182.50506219999806,None,181.50905760000023,None,181.50905760000023,None,181.50905760000023,None,183.25265855999606,None,183.25265855999606,None,183.25265855999606,None,,,,,,,,,,,,,,110,2023-04-17_10h20.15.597,Main,2022.1.1,59.15535616310078,
neutral,neutral,2,k,k,,,,,,,,,0,13,13,10,,,,,,,,,main,1,1,2,neutral,neutral,k,k,1,0.6803547000017716,183.25863499999832,184.26819350000005,184.25217139999586,None,183.25863499999832,None,183.25863499999832,None,183.25863499999832,None,184.9355281599972,None,184.9355281599972,None,184.9355281599972,None,,,,,,,,,,,,,,110,2023-04-17_10h20.15.597,Main,2022.1.1,59.15535616310078,
positive,neutral,1,l,j,,,,,,,,,0,14,14,8,,,,,,,,,main,2,2,1,neutral,positive,l,l,1,0.7318519000036758,184.935647899998,185.93568689999665,185.93568689999665,None,184.935647899998,None,184.935647899998,None,184.935647899998,None,186.6689185600015,None,186.6689185600015,None,186.6689185600015,None,,,,,,,,,,,,,,110,2023-04-17_10h20.15.597,Main,2022.1.1,59.15535616310078,
neutral,positive,2,k,k,,,,,,,,,0,15,15,13,,,,,,,,,main,1,1,2,positive,neutral,k,k,1,0.6654197000025306,186.67168429999583,187.685679299997,187.6690013999978,None,186.67168429999583,None,186.67168429999583,None,186.67168429999583,None,188.3355932599996,None,188.3355932599996,None,188.3355932599996,None,,,,,,,,,,,,,,110,2023-04-17_10h20.15.597,Main,2022.1.1,59.15535616310078,
neutral,positive,1,k,k,,,,,,,,,0,16,16,4,,,,,,,,,main,2,2,1,positive,neutral,k,k,1,0.6320168999955058,188.34166410000034,189.35485279999557,189.33820179999748,None,188.34166410000034,None,188.34166410000034,None,188.34166410000034,None,189.9692413599958,None,189.9692413599958,None,189.9692413599958,None,,,,,,,,,,,,,,110,2023-04-17_10h20.15.597,Main,2022.1.1,59.15535616310078,
positive,negative,2,l,j,,,,,,,,,0,17,17,14,,,,,,,,,main,1,1,2,negative,positive,l,l,1,0.7816277000019909,189.97577849999652,190.98801470000035,190.9715836999967,None,189.97577849999652,None,189.97577849999652,None,189.97577849999652,None,191.75252615999926,None,191.75252615999926,None,191.75252615999926,None,,,,,,,,,,,,,,110,2023-04-17_10h20.15.597,Main,2022.1.1,59.15535616310078,
positive,positive,1,l,j,,,,,,,,,1,0,18,2,,,,,,,,,main,1,1,1,positive,positive,l,l,1,0.6481687000050442,191.75845029999618,192.7713922999974,192.75481639999634,None,191.75845029999618,None,191.75845029999618,None,191.75845029999618,None,193.40214386000008,None,193.40214386000008,None,193.40214386000008,None,,,,,,,,,,,,,,110,2023-04-17_10h20.15.597,Main,2022.1.1,59.15535616310078,
negative,negative,2,j,l,,,,,,,,,1,1,19,9,,,,,,,,,main,2,2,2,negative,negative,j,j,1,0.7664244999978109,193.40896039999643,194.42129269999714,194.40477960000135,None,193.40896039999643,None,193.40896039999643,None,193.40896039999643,None,195.17026715999674,None,195.17026715999674,None,195.17026715999674,None,,,,,,,,,,,,,,110,2023-04-17_10h20.15.597,Main,2022.1.1,59.15535616310078,
positive,neutral,1,l,j,,,,,,,,,1,2,20,8,,,,,,,,,main,2,2,1,neutral,positive,l,j,0,0.8134760999964783,195.17608769999788,196.18543789999967,196.16876639999828,None,195.17608769999788,None,195.17608769999788,None,195.17608769999788,None,196.9854714999965,None,196.9854714999965,None,196.9854714999965,None,,,,,,,,,,,,,,110,2023-04-17_10h20.15.597,Main,2022.1.1,59.15535616310078,
neutral,neutral,2,k,k,,,,,,,,,1,3,21,10,,,,,,,,,main,2,2,2,neutral,neutral,k,k,1,0.7540770999985398,197.98551149999548,198.9879415999967,198.97131580000132,None,197.98551149999548,None,197.98551149999548,None,197.98551149999548,None,199.7356977599964,None,199.7356977599964,None,199.7356977599964,None,,,,,,,,,,,,,,110,2023-04-17_10h20.15.597,Main,2022.1.1,59.15535616310078,
neutral,positive,2,k,k,,,,,,,,,1,4,22,13,,,,,,,,,main,1,1,2,positive,neutral,k,k,1,0.68135970000003,199.74189539999497,200.75454409999656,200.7378916999951,None,199.74189539999497,None,199.74189539999497,None,199.74189539999497,None,201.419039059995,None,201.419039059995,None,201.419039059995,None,,,,,,,,,,,,,,110,2023-04-17_10h20.15.597,Main,2022.1.1,59.15535616310078,
negative,neutral,2,j,l,,,,,,,,,1,5,23,12,,,,,,,,,main,2,2,2,neutral,negative,j,j,1,0.883848700003,201.42293280000013,202.437820799998,202.42127130000154,None,201.42293280000013,None,201.42293280000013,None,201.42293280000013,None,203.30449425999979,None,203.30449425999979,None,203.30449425999979,None,,,,,,,,,,,,,,110,2023-04-17_10h20.15.597,Main,2022.1.1,59.15535616310078,
positive,negative,1,l,j,,,,,,,,,1,6,24,5,,,,,,,,,main,1,1,1,negative,positive,l,l,1,0.6128396999993129,203.3084910999969,204.3211891999963,204.3045800999971,None,203.3084910999969,None,203.3084910999969,None,203.3084910999969,None,204.91896785999853,None,204.91896785999853,None,204.91896785999853,None,,,,,,,,,,,,,,110,2023-04-17_10h20.15.597,Main,2022.1.1,59.15535616310078,
positive,neutral,2,l,j,,,,,,,,,1,7,25,17,,,,,,,,,main,2,2,2,neutral,positive,l,l,1,0.7815977000063867,204.92510229999607,205.94311020000168,205.92125220000162,None,204.92510229999607,None,204.92510229999607,None,204.92510229999607,None,206.7018047599966,None,206.7018047599966,None,206.7018047599966,None,,,,,,,,,,,,,,110,2023-04-17_10h20.15.597,Main,2022.1.1,59.15535616310078,
neutral,neutral,1,k,k,,,,,,,,,1,8,26,1,,,,,,,,,main,1,1,1,neutral,neutral,k,k,1,0.7982891999999993,206.70188249999774,207.70193049999943,207.70193049999943,None,206.70188249999774,None,206.70188249999774,None,206.70188249999774,None,208.5018320599964,None,208.5018320599964,None,208.5018320599964,None,,,,,,,,,,,,,,110,2023-04-17_10h20.15.597,Main,2022.1.1,59.15535616310078,
negative,negative,1,j,l,,,,,,,,,1,9,27,0,,,,,,,,,main,2,2,1,negative,negative,j,j,1,1.2652616999985185,208.50559110000177,209.52108739999676,209.50442250000197,None,208.50559110000177,None,208.50559110000177,None,208.50559110000177,None,210.76866785999738,None,210.76866785999738,None,210.76866785999738,None,,,,,,,,,,,,,,110,2023-04-17_10h20.15.597,Main,2022.1.1,59.15535616310078,
neutral,positive,1,k,k,,,,,,,,,1,10,28,4,,,,,,,,,main,2,2,1,positive,neutral,k,k,1,0.7149984999996377,210.775178099997,211.7876604999983,211.7710838999992,None,210.775178099997,None,210.775178099997,None,210.775178099997,None,212.48509885999812,None,212.48509885999812,None,212.48509885999812,None,,,,,,,,,,,,,,110,2023-04-17_10h20.15.597,Main,2022.1.1,59.15535616310078,
neutral,negative,1,k,k,,,,,,,,,1,11,29,7,,,,,,,,,main,2,2,1,negative,neutral,k,k,1,0.6982905000040773,212.49136100000032,213.50432549999823,213.487733199996,None,212.49136100000032,None,212.49136100000032,None,212.49136100000032,None,214.1851548599996,None,214.1851548599996,None,214.1851548599996,None,,,,,,,,,,,,,,110,2023-04-17_10h20.15.597,Main,2022.1.1,59.15535616310078,
positive,positive,2,l,j,,,,,,,,,1,12,30,11,,,,,,,,,main,2,2,2,positive,positive,l,l,1,0.7983760999995866,214.19182129999535,215.20423109999683,215.1876928999991,None,214.19182129999535,None,214.19182129999535,None,214.19182129999535,None,215.9849379599953,None,215.9849379599953,None,215.9849379599953,None,,,,,,,,,,,,,,110,2023-04-17_10h20.15.597,Main,2022.1.1,59.15535616310078,
positive,negative,2,l,j,,,,,,,,,1,13,31,14,,,,,,,,,main,1,1,2,negative,positive,l,l,1,0.8650525999983074,215.98507080000127,216.98506039999484,216.98506039999484,None,215.98507080000127,None,215.98507080000127,None,215.98507080000127,None,217.85165725999542,None,217.85165725999542,None,217.85165725999542,None,,,,,,,,,,,,,,110,2023-04-17_10h20.15.597,Main,2022.1.1,59.15535616310078,
negative,positive,1,j,l,,,,,,,,,1,14,32,6,,,,,,,,,main,1,1,1,positive,negative,j,j,1,0.8819991999989725,217.85796319999645,218.8708942000012,218.85428539999702,None,217.85796319999645,None,217.85796319999645,None,217.85796319999645,None,219.73530025999645,None,219.73530025999645,None,219.73530025999645,None,,,,,,,,,,,,,,110,2023-04-17_10h20.15.597,Main,2022.1.1,59.15535616310078,
negative,positive,2,j,l,,,,,,,,,1,15,33,15,,,,,,,,,main,2,2,2,positive,negative,j,j,1,0.9152886000010767,219.74119059999794,220.75418160000117,220.73756349999894,None,219.74119059999794,None,219.74119059999794,None,219.74119059999794,None,221.65194945999684,None,221.65194945999684,None,221.65194945999684,None,,,,,,,,,,,,,,110,2023-04-17_10h20.15.597,Main,2022.1.1,59.15535616310078,
neutral,negative,2,k,k,,,,,,,,,1,16,34,16,,,,,,,,,main,2,2,2,negative,neutral,k,j,0,-0.7184695000032661,221.65806059999886,None,None,None,221.65806059999886,None,221.65806059999886,None,221.65806059999886,None,221.9392544000002,None,221.9392544000002,None,221.9392544000002,None,,,,,,,,,,,,,,110,2023-04-17_10h20.15.597,Main,2022.1.1,59.15535616310078,
negative,neutral,1,j,l,,,,,,,,,1,17,35,3,,,,,,,,,main,2,2,1,neutral,negative,j,j,1,0.9508170999979484,224.95357449999574,225.96823009999935,225.9348902999991,None,224.95357449999574,None,224.95357449999574,None,224.95357449999574,None,226.90141956000008,None,226.90141956000008,None,226.90141956000008,None,,,,,,,,,,,,,,110,2023-04-17_10h20.15.597,Main,2022.1.1,59.15535616310078,
positive,neutral,2,l,j,,,,,,,,,2,0,36,17,,,,,,,,,main,1,1,2,neutral,positive,l,l,1,0.7673056999992696,226.90149979999842,227.90157319999707,227.90157319999707,None,226.90149979999842,None,226.90149979999842,None,226.90149979999842,None,228.6707034600011,None,228.6707034600011,None,228.6707034600011,None,,,,,,,,,,,,,,110,2023-04-17_10h20.15.597,Main,2022.1.1,59.15535616310078,
neutral,neutral,2,k,k,,,,,,,,,2,1,37,10,,,,,,,,,main,1,1,2,neutral,neutral,k,k,1,0.7827121000009356,228.67464800000016,229.68734949999634,229.67074809999758,None,228.67464800000016,None,228.67464800000016,None,228.67464800000016,None,230.45388295999584,None,230.45388295999584,None,230.45388295999584,None,,,,,,,,,,,,,,110,2023-04-17_10h20.15.597,Main,2022.1.1,59.15535616310078,
positive,positive,2,l,j,,,,,,,,,2,2,38,11,,,,,,,,,main,2,2,2,positive,positive,l,l,1,0.8288392000031308,230.45831909999833,231.4706409999999,231.4540457999974,None,230.45831909999833,None,230.45831909999833,None,230.45831909999833,None,232.28505325999578,None,232.28505325999578,None,232.28505325999578,None,,,,,,,,,,,,,,110,2023-04-17_10h20.15.597,Main,2022.1.1,59.15535616310078,
neutral,positive,2,k,k,,,,,,,,,2,3,39,13,,,,,,,,,main,1,1,2,positive,neutral,k,k,1,0.8147197999933269,232.2911779999995,233.30390289999923,233.2873408999949,None,232.2911779999995,None,232.2911779999995,None,232.2911779999995,None,234.1016992599951,None,234.1016992599951,None,234.1016992599951,None,,,,,,,,,,,,,,110,2023-04-17_10h20.15.597,Main,2022.1.1,59.15535616310078,
negative,positive,1,j,l,,,,,,,,,2,4,40,6,,,,,,,,,main,2,2,1,positive,negative,j,j,1,0.7814945999998599,234.10765189999802,235.1205545999983,235.10394979999546,None,234.10765189999802,None,234.10765189999802,None,234.10765189999802,None,235.8845792600012,None,235.8845792600012,None,235.8845792600012,None,,,,,,,,,,,,,,110,2023-04-17_10h20.15.597,Main,2022.1.1,59.15535616310078,
negative,negative,1,j,l,,,,,,,,,2,5,41,0,,,,,,,,,main,1,1,1,negative,negative,j,j,1,1.0145441000058781,235.88610499999777,236.90134469999612,236.88467609999498,None,235.88610499999777,None,235.88610499999777,None,235.88610499999777,None,237.9012327599965,None,237.9012327599965,None,237.9012327599965,None,,,,,,,,,,,,,,110,2023-04-17_10h20.15.597,Main,2022.1.1,59.15535616310078,
neutral,negative,2,k,k,,,,,,,,,2,6,42,16,,,,,,,,,main,1,1,2,negative,neutral,k,k,1,0.6983105999970576,237.9030414000008,238.9179942999981,238.90132710000034,None,237.9030414000008,None,237.9030414000008,None,237.9030414000008,None,239.6012321599963,None,239.6012321599963,None,239.6012321599963,None,,,,,,,,,,,,,,110,2023-04-17_10h20.15.597,Main,2022.1.1,59.15535616310078,
negative,positive,2,j,l,,,,,,,,,2,7,43,15,,,,,,,,,main,2,2,2,positive,negative,j,j,1,0.8311763999954564,239.6057409999994,240.620505699997,240.60388869999588,None,239.6057409999994,None,239.6057409999994,None,239.6057409999994,None,241.43490076000018,None,241.43490076000018,None,241.43490076000018,None,,,,,,,,,,,,,,110,2023-04-17_10h20.15.597,Main,2022.1.1,59.15535616310078,
positive,negative,1,l,j,,,,,,,,,2,8,44,5,,,,,,,,,main,1,1,1,negative,positive,l,l,1,1.3674367999992683,241.44099730000016,242.45376499999838,242.43718549999903,None,241.44099730000016,None,241.44099730000016,None,241.44099730000016,None,243.80383575999878,None,243.80383575999878,None,243.80383575999878,None,,,,,,,,,,,,,,110,2023-04-17_10h20.15.597,Main,2022.1.1,59.15535616310078,
neutral,neutral,1,k,k,,,,,,,,,2,9,45,1,,,,,,,,,main,2,2,1,neutral,neutral,k,k,1,0.782626899999741,243.8078131000002,244.82037629999832,244.80378180000116,None,243.8078131000002,None,243.8078131000002,None,243.8078131000002,None,245.58690775999713,None,245.58690775999713,None,245.58690775999713,None,,,,,,,,,,,,,,110,2023-04-17_10h20.15.597,Main,2022.1.1,59.15535616310078,
positive,neutral,1,l,j,,,,,,,,,2,10,46,8,,,,,,,,,main,2,2,1,neutral,positive,l,l,1,0.7809057000049506,245.59126939999987,246.60367479999695,246.5870186999964,None,245.59126939999987,None,245.59126939999987,None,245.59126939999987,None,247.37025515999704,None,247.37025515999704,None,247.37025515999704,None,,,,,,,,,,,,,,110,2023-04-17_10h20.15.597,Main,2022.1.1,59.15535616310078,
negative,negative,2,j,l,,,,,,,,,2,11,47,9,,,,,,,,,main,2,2,2,negative,negative,j,j,1,0.778992699997616,247.37421069999982,248.3844448000018,248.3677733000004,None,247.37421069999982,None,247.37421069999982,None,247.37421069999982,None,249.15097256000155,None,249.15097256000155,None,249.15097256000155,None,,,,,,,,,,,,,,110,2023-04-17_10h20.15.597,Main,2022.1.1,59.15535616310078,
neutral,positive,1,k,k,,,,,,,,,2,12,48,4,,,,,,,,,main,2,2,1,positive,neutral,k,k,1,0.7819015999994008,249.15107149999676,250.15112819999922,250.15112819999922,None,249.15107149999676,None,249.15107149999676,None,249.15107149999676,None,250.93434605999647,None,250.93434605999647,None,250.93434605999647,None,,,,,,,,,,,,,,110,2023-04-17_10h20.15.597,Main,2022.1.1,59.15535616310078,
negative,neutral,2,j,l,,,,,,,,,2,13,49,12,,,,,,,,,main,2,2,2,neutral,negative,j,j,1,0.9648824000032619,250.93772689999605,251.93701080000028,251.93701080000028,None,250.93772689999605,None,250.93772689999605,None,250.93772689999605,None,252.90096476000036,None,252.90096476000036,None,252.90096476000036,None,,,,,,,,,,,,,,110,2023-04-17_10h20.15.597,Main,2022.1.1,59.15535616310078,
positive,negative,2,l,j,,,,,,,,,2,14,50,14,,,,,,,,,main,2,2,2,negative,positive,l,l,1,0.7842235000061919,252.90685539999686,253.92020979999506,253.9036030999996,None,252.90685539999686,None,252.90685539999686,None,252.90685539999686,None,254.68667056000123,None,254.68667056000123,None,254.68667056000123,None,,,,,,,,,,,,,,110,2023-04-17_10h20.15.597,Main,2022.1.1,59.15535616310078,
neutral,negative,1,k,k,,,,,,,,,2,15,51,7,,,,,,,,,main,2,2,1,negative,neutral,k,k,1,0.7808034999980009,254.690749100002,255.7035035000008,255.6869286000001,None,254.690749100002,None,254.690749100002,None,254.690749100002,None,256.46792025999895,None,256.46792025999895,None,256.46792025999895,None,,,,,,,,,,,,,,110,2023-04-17_10h20.15.597,Main,2022.1.1,59.15535616310078,
negative,neutral,1,j,l,,,,,,,,,2,16,52,3,,,,,,,,,main,1,1,1,neutral,negative,j,j,1,0.7803428999977768,256.4742194999999,257.4867890999958,257.47019490000093,None,256.4742194999999,None,256.4742194999999,None,256.4742194999999,None,258.25083675999923,None,258.25083675999923,None,258.25083675999923,None,,,,,,,,,,,,,,110,2023-04-17_10h20.15.597,Main,2022.1.1,59.15535616310078,
positive,positive,1,l,j,,,,,,,,,2,17,53,2,,,,,,,,,main,2,2,1,positive,positive,l,l,1,0.7153078999981517,258.2568075999952,259.2675713999997,259.2364043999987,None,258.2568075999952,None,258.2568075999952,None,258.2568075999952,None,259.9674131600012,None,259.9674131600012,None,259.9674131600012,None,,,,,,,,,,,,,,110,2023-04-17_10h20.15.597,Main,2022.1.1,59.15535616310078,
neutral,negative,2,k,k,,,,,,,,,3,0,54,16,,,,,,,,,main,2,2,2,negative,neutral,k,k,1,0.781775600000401,259.9675298000002,260.9675223999948,260.9675223999948,None,259.9675298000002,None,259.9675298000002,None,259.9675298000002,None,261.75091775999755,None,261.75091775999755,None,261.75091775999755,None,,,,,,,,,,,,,,110,2023-04-17_10h20.15.597,Main,2022.1.1,59.15535616310078,
negative,negative,1,j,l,,,,,,,,,3,1,55,0,,,,,,,,,main,1,1,1,negative,negative,j,j,1,0.8486459999985527,261.75698649999686,262.7699812999999,262.75343799999973,None,261.75698649999686,None,261.75698649999686,None,261.75698649999686,None,263.60110825999874,None,263.60110825999874,None,263.60110825999874,None,,,,,,,,,,,,,,110,2023-04-17_10h20.15.597,Main,2022.1.1,59.15535616310078,
positive,negative,2,l,j,,,,,,,,,3,2,56,14,,,,,,,,,main,2,2,2,negative,positive,l,l,1,0.7684026999995694,263.6075065999976,264.61997880000126,264.60340780000115,None,263.6075065999976,None,263.6075065999976,None,263.6075065999976,None,265.36985355999497,None,265.36985355999497,None,265.36985355999497,None,,,,,,,,,,,,,,110,2023-04-17_10h20.15.597,Main,2022.1.1,59.15535616310078,
negative,positive,2,j,l,,,,,,,,,3,3,57,15,,,,,,,,,main,2,2,2,positive,negative,j,j,1,0.7615043999976479,265.37425169999915,266.38662539999495,266.3700314000016,None,265.37425169999915,None,265.37425169999915,None,265.37425169999915,None,267.1340215599965,None,267.1340215599965,None,267.1340215599965,None,,,,,,,,,,,,,,110,2023-04-17_10h20.15.597,Main,2022.1.1,59.15535616310078,
positive,negative,1,l,j,,,,,,,,,3,4,58,5,,,,,,,,,main,2,2,1,negative,positive,l,l,1,0.7511434000043664,267.13984009999695,268.1533683999951,268.1367484000002,None,267.13984009999695,None,267.13984009999695,None,267.13984009999695,None,268.88647876000033,None,268.88647876000033,None,268.88647876000033,None,,,,,,,,,,,,,,110,2023-04-17_10h20.15.597,Main,2022.1.1,59.15535616310078,
negative,neutral,2,j,l,,,,,,,,,3,5,59,12,,,,,,,,,main,2,2,2,neutral,negative,j,j,1,0.7626866999999038,268.8896928999966,269.9006398999991,269.8839722999983,None,268.8896928999966,None,268.8896928999966,None,268.8896928999966,None,270.6505491600008,None,270.6505491600008,None,270.6505491600008,None,,,,,,,,,,,,,,110,2023-04-17_10h20.15.597,Main,2022.1.1,59.15535616310078,
positive,neutral,2,l,j,,,,,,,,,3,6,60,17,,,,,,,,,main,2,2,2,neutral,positive,l,l,1,0.7343764999968698,270.65077429999656,271.6507199999978,271.6507199999978,None,270.65077429999656,None,270.65077429999656,None,270.65077429999656,None,272.38643215999474,None,272.38643215999474,None,272.38643215999474,None,,,,,,,,,,,,,,110,2023-04-17_10h20.15.597,Main,2022.1.1,59.15535616310078,
neutral,neutral,1,k,k,,,,,,,,,3,7,61,1,,,,,,,,,main,1,1,1,neutral,neutral,k,k,1,0.7127961999940453,272.3895657999965,273.40313819999574,273.38653160000104,None,272.3895657999965,None,272.3895657999965,None,272.3895657999965,None,274.10089815999964,None,274.10089815999964,None,274.10089815999964,None,,,,,,,,,,,,,,110,2023-04-17_10h20.15.597,Main,2022.1.1,59.15535616310078,
negative,positive,1,j,l,,,,,,,,,3,8,62,6,,,,,,,,,main,1,1,1,positive,negative,j,j,1,0.7815485000028275,274.10689309999725,275.1197639999955,275.1031884999975,None,274.10689309999725,None,274.10689309999725,None,274.10689309999725,None,275.884178860001,None,275.884178860001,None,275.884178860001,None,,,,,,,,,,,,,,110,2023-04-17_10h20.15.597,Main,2022.1.1,59.15535616310078,
positive,positive,2,l,j,,,,,,,,,3,9,63,11,,,,,,,,,main,2,2,2,positive,positive,l,l,1,0.8321148999966681,275.88996889999544,276.90306240000064,276.88645499999984,None,275.88996889999544,None,275.88996889999544,None,275.88996889999544,None,277.7174994599962,None,277.7174994599962,None,277.7174994599962,None,,,,,,,,,,,,,,110,2023-04-17_10h20.15.597,Main,2022.1.1,59.15535616310078,
positive,positive,1,l,j,,,,,,,,,3,10,64,2,,,,,,,,,main,1,1,1,positive,positive,l,l,1,0.8148961999977473,277.72363179999957,278.73629249999794,278.71969779999927,None,277.72363179999957,None,277.72363179999957,None,277.72363179999957,None,279.533973659997,None,279.533973659997,None,279.533973659997,None,,,,,,,,,,,,,,110,2023-04-17_10h20.15.597,Main,2022.1.1,59.15535616310078,
neutral,positive,1,k,k,,,,,,,,,3,11,65,4,,,,,,,,,main,1,1,1,positive,neutral,k,k,1,0.6813182999976561,279.5476705999972,280.5504254999978,280.53375799999776,None,279.5476705999972,None,279.5476705999972,None,279.5476705999972,None,281.21695115999756,None,281.21695115999756,None,281.21695115999756,None,,,,,,,,,,,,,,110,2023-04-17_10h20.15.597,Main,2022.1.1,59.15535616310078,
neutral,negative,1,k,k,,,,,,,,,3,12,66,7,,,,,,,,,main,2,2,1,negative,neutral,k,k,1,0.6482793000031961,281.217917199996,282.2171601000009,282.2171601000009,None,281.217917199996,None,281.217917199996,None,281.217917199996,None,282.86738036000025,None,282.86738036000025,None,282.86738036000025,None,,,,,,,,,,,,,,110,2023-04-17_10h20.15.597,Main,2022.1.1,59.15535616310078,
neutral,neutral,2,k,k,,,,,,,,,3,13,67,10,,,,,,,,,main,2,2,2,neutral,neutral,k,k,1,0.6649846000000252,282.8733334999997,283.88630159999593,283.86966689999826,None,282.8733334999997,None,282.8733334999997,None,282.8733334999997,None,284.5340244599982,None,284.5340244599982,None,284.5340244599982,None,,,,,,,,,,,,,,110,2023-04-17_10h20.15.597,Main,2022.1.1,59.15535616310078,
negative,negative,2,j,l,,,,,,,,,3,14,68,9,,,,,,,,,main,1,1,2,negative,negative,j,j,1,0.7147757999991882,284.53982919999544,285.55289130000165,285.53630339999654,None,284.53982919999544,None,284.53982919999544,None,284.53982919999544,None,286.25062725999743,None,286.25062725999743,None,286.25062725999743,None,,,,,,,,,,,,,,110,2023-04-17_10h20.15.597,Main,2022.1.1,59.15535616310078,
neutral,positive,2,k,k,,,,,,,,,3,15,69,13,,,,,,,,,main,2,2,2,positive,neutral,k,k,1,0.7843405000021448,286.25636459999805,287.2695401999954,287.25291879999713,None,286.25636459999805,None,286.25636459999805,None,286.25636459999805,None,288.03621885999456,None,288.03621885999456,None,288.03621885999456,None,,,,,,,,,,,,,,110,2023-04-17_10h20.15.597,Main,2022.1.1,59.15535616310078,
negative,neutral,1,j,l,,,,,,,,,3,16,70,3,,,,,,,,,main,1,1,1,neutral,negative,j,j,1,0.8262432999981684,288.04009479999513,289.0528148000012,289.03620869999577,None,288.04009479999513,None,288.04009479999513,None,288.04009479999513,None,289.8641109599965,None,289.8641109599965,None,289.8641109599965,None,,,,,,,,,,,,,,110,2023-04-17_10h20.15.597,Main,2022.1.1,59.15535616310078,
positive,neutral,1,l,j,,,,,,,,,3,17,71,8,,,,,,,,,main,2,2,1,neutral,positive,l,l,1,0.8177856999973301,289.8805890000003,290.88357939999696,290.8668938999981,None,289.8805890000003,None,289.8805890000003,None,289.8805890000003,None,291.683413259995,None,291.683413259995,None,291.683413259995,None,,,,,,,,,,,,,,110,2023-04-17_10h20.15.597,Main,2022.1.1,59.15535616310078,
neutral,neutral,2,k,k,,,,,,,,,4,0,72,10,,,,,,,,,main,1,1,2,neutral,neutral,k,k,1,0.7651368000006187,291.6835457999987,292.6836156999998,292.6836156999998,None,291.6835457999987,None,291.6835457999987,None,291.6835457999987,None,293.45015005999886,None,293.45015005999886,None,293.45015005999886,None,,,,,,,,,,,,,,110,2023-04-17_10h20.15.597,Main,2022.1.1,59.15535616310078,
positive,negative,1,l,j,,,,,,,,,4,1,73,5,,,,,,,,,main,2,2,1,negative,positive,l,l,1,0.8678374999944936,293.455915999999,294.4693960000004,294.45276770000055,None,293.455915999999,None,293.455915999999,None,293.455915999999,None,295.3192570599975,None,295.3192570599975,None,295.3192570599975,None,,,,,,,,,,,,,,110,2023-04-17_10h20.15.597,Main,2022.1.1,59.15535616310078,
positive,neutral,1,l,j,,,,,,,,,4,2,74,8,,,,,,,,,main,2,2,1,neutral,positive,l,l,1,0.7154730999973253,295.3238360999967,296.33594979999907,296.31940329999634,None,295.3238360999967,None,295.3238360999967,None,295.3238360999967,None,297.03585456,None,297.03585456,None,297.03585456,None,,,,,,,,,,,,,,110,2023-04-17_10h20.15.597,Main,2022.1.1,59.15535616310078,
negative,positive,2,j,l,,,,,,,,,4,3,75,15,,,,,,,,,main,1,1,2,positive,negative,j,j,1,0.8146223000003374,297.0409056999997,298.0526226000002,298.0360148999971,None,297.0409056999997,None,297.0409056999997,None,297.0409056999997,None,298.8524951599946,None,298.8524951599946,None,298.8524951599946,None,,,,,,,,,,,,,,110,2023-04-17_10h20.15.597,Main,2022.1.1,59.15535616310078,
positive,negative,2,l,j,,,,,,,,,4,4,76,14,,,,,,,,,main,2,2,2,negative,positive,l,l,1,0.8153306000021985,298.85577249999915,299.8691930999994,299.8526666999969,None,298.85577249999915,None,298.85577249999915,None,298.85577249999915,None,300.6692627599958,None,300.6692627599958,None,300.6692627599958,None,,,,,,,,,,,,,,110,2023-04-17_10h20.15.597,Main,2022.1.1,59.15535616310078,
positive,positive,1,l,j,,,,,,,,,4,5,77,2,,,,,,,,,main,1,1,1,positive,positive,l,l,1,0.762477399999625,300.6728430000003,301.6833822999979,301.6667005999989,None,300.6728430000003,None,300.6728430000003,None,300.6728430000003,None,302.4332516600014,None,302.4332516600014,None,302.4332516600014,None,,,,,,,,,,,,,,110,2023-04-17_10h20.15.597,Main,2022.1.1,59.15535616310078,
negative,neutral,2,j,l,,,,,,,,,4,6,78,12,,,,,,,,,main,1,1,2,neutral,negative,j,j,1,0.7672186999989208,302.43333439999697,303.43339469999773,303.43339469999773,None,302.43333439999697,None,302.43333439999697,None,302.43333439999697,None,304.2023766600003,None,304.2023766600003,None,304.2023766600003,None,,,,,,,,,,,,,,110,2023-04-17_10h20.15.597,Main,2022.1.1,59.15535616310078,
negative,positive,1,j,l,,,,,,,,,4,7,79,6,,,,,,,,,main,1,1,1,positive,negative,j,j,1,0.7654024000003119,304.2054824000006,305.2191462999981,305.20254399999976,None,304.2054824000006,None,304.2054824000006,None,304.2054824000006,None,305.96917355999614,None,305.96917355999614,None,305.96917355999614,None,,,,,,,,,,,,,,110,2023-04-17_10h20.15.597,Main,2022.1.1,59.15535616310078,
negative,negative,2,j,l,,,,,,,,,4,8,80,9,,,,,,,,,main,2,2,2,negative,negative,j,j,1,0.6785368999990169,305.97319089999655,306.98574329999974,306.96913889999996,None,305.97319089999655,None,305.97319089999655,None,305.97319089999655,None,307.6502667599969,None,307.6502667599969,None,307.6502667599969,None,,,,,,,,,,,,,,110,2023-04-17_10h20.15.597,Main,2022.1.1,59.15535616310078,
neutral,positive,2,k,k,,,,,,,,,4,9,81,13,,,,,,,,,main,1,1,2,positive,neutral,k,k,1,1.5382678000023589,307.6557868000018,308.66911949999485,308.65249149999727,None,307.6557868000018,None,307.6557868000018,None,307.6557868000018,None,310.18963789999543,None,310.18963789999543,None,310.18963789999543,None,,,,,,,,,,,,,,110,2023-04-17_10h20.15.597,Main,2022.1.1,59.15535616310078,
neutral,neutral,1,k,k,,,,,,,,,4,10,82,1,,,,,,,,,main,1,1,1,neutral,neutral,k,k,1,0.6696157999977004,311.19985829999496,312.1998332000003,312.18318239999644,None,311.19985829999496,None,311.19985829999496,None,311.19985829999496,None,312.866372360001,None,312.866372360001,None,312.866372360001,None,,,,,,,,,,,,,,110,2023-04-17_10h20.15.597,Main,2022.1.1,59.15535616310078,
neutral,negative,1,k,k,,,,,,,,,4,11,83,7,,,,,,,,,main,1,1,1,negative,neutral,k,k,1,0.5981524999951944,312.8683547999972,313.8831685999976,313.8665035000013,None,312.8683547999972,None,312.8683547999972,None,312.8683547999972,None,314.4663601600012,None,314.4663601600012,None,314.4663601600012,None,,,,,,,,,,,,,,110,2023-04-17_10h20.15.597,Main,2022.1.1,59.15535616310078,
neutral,negative,2,k,k,,,,,,,,,4,12,84,16,,,,,,,,,main,2,2,2,negative,neutral,k,k,1,0.8654479999968316,314.4687094999972,315.4690208999964,315.4690208999964,None,314.4687094999972,None,314.4687094999972,None,314.4687094999972,None,316.3334086599978,None,316.3334086599978,None,316.3334086599978,None,,,,,,,,,,,,,,110,2023-04-17_10h20.15.597,Main,2022.1.1,59.15535616310078,
positive,positive,2,l,j,,,,,,,,,4,13,85,11,,,,,,,,,main,1,1,2,positive,positive,l,,0,0.886452200000349,316.3397149000011,317.3521851999976,317.33565069999895,None,316.3397149000011,None,316.3397149000011,None,316.3397149000011,None,318.21658670000033,None,318.21658670000033,None,318.21658670000033,None,,,,,,,,,,,,,,110,2023-04-17_10h20.15.597,Main,2022.1.1,59.15535616310078,
neutral,positive,1,k,k,,,,,,,,,4,14,86,4,,,,,,,,,main,2,2,1,positive,neutral,k,k,1,0.7536804000046686,319.21740139999747,320.2188842999967,320.2022771999982,None,319.21740139999747,None,319.21740139999747,None,319.21740139999747,None,320.96889155999526,None,320.96889155999526,None,320.96889155999526,None,,,,,,,,,,,,,,110,2023-04-17_10h20.15.597,Main,2022.1.1,59.15535616310078,
negative,neutral,1,j,l,,,,,,,,,4,15,87,3,,,,,,,,,main,2,2,1,neutral,negative,j,j,1,0.7646069999973406,320.9728294000015,321.9854860999985,321.9688836999994,None,320.9728294000015,None,320.9728294000015,None,320.9728294000015,None,322.7353967599964,None,322.7353967599964,None,322.7353967599964,None,,,,,,,,,,,,,,110,2023-04-17_10h20.15.597,Main,2022.1.1,59.15535616310078,
negative,negative,1,j,l,,,,,,,,,4,16,88,0,,,,,,,,,main,2,2,1,negative,negative,j,j,1,1.2999138000013772,322.7395008999956,323.74954449999495,323.73289049999585,None,322.7395008999956,None,322.7395008999956,None,322.7395008999956,None,325.03275776000083,None,325.03275776000083,None,325.03275776000083,None,,,,,,,,,,,,,,110,2023-04-17_10h20.15.597,Main,2022.1.1,59.15535616310078,
positive,neutral,2,l,j,,,,,,,,,4,17,89,17,,,,,,,,,main,1,1,2,neutral,positive,l,l,1,0.7447852999976021,325.0385166999986,326.0495630000005,326.0328928999952,None,325.0385166999986,None,325.0385166999986,None,325.0385166999986,None,326.78278105999635,None,326.78278105999635,None,326.78278105999635,None,,,,,,,,,,,,,,110,2023-04-17_10h20.15.597,Main,2022.1.1,59.15535616310078,
neutral,positive,2,k,k,,,,,,,,,5,0,90,13,,,,,,,,,main,1,1,2,positive,neutral,k,k,1,0.7474349999974947,326.7872443000015,327.8019959000012,327.78539810000075,None,326.7872443000015,None,326.7872443000015,None,326.7872443000015,None,328.5331130599996,None,328.5331130599996,None,328.5331130599996,None,,,,,,,,,,,,,,110,2023-04-17_10h20.15.597,Main,2022.1.1,59.15535616310078,
negative,positive,1,j,l,,,,,,,,,5,1,91,6,,,,,,,,,main,1,1,1,positive,negative,j,j,1,0.9984562000026926,328.53991569999926,329.55210819999775,329.5354187999983,None,328.53991569999926,None,328.53991569999926,None,328.53991569999926,None,330.53309525999504,None,330.53309525999504,None,330.53309525999504,None,,,,,,,,,,,,,,110,2023-04-17_10h20.15.597,Main,2022.1.1,59.15535616310078,
neutral,positive,1,k,k,,,,,,,,,5,2,92,4,,,,,,,,,main,2,2,1,positive,neutral,k,k,1,0.7652086000016425,330.53904820000025,331.55192800000077,331.5353868999955,None,330.53904820000025,None,330.53904820000025,None,330.53904820000025,None,332.29972056000116,None,332.29972056000116,None,332.29972056000116,None,,,,,,,,,,,,,,110,2023-04-17_10h20.15.597,Main,2022.1.1,59.15535616310078,
negative,neutral,1,j,l,,,,,,,,,5,3,93,3,,,,,,,,,main,1,1,1,neutral,negative,j,j,1,0.8814944999976433,332.3054981999958,333.31860459999734,333.3020065000019,None,332.3054981999958,None,332.3054981999958,None,332.3054981999958,None,334.18302765999834,None,334.18302765999834,None,334.18302765999834,None,,,,,,,,,,,,,,110,2023-04-17_10h20.15.597,Main,2022.1.1,59.15535616310078,
neutral,neutral,2,k,k,,,,,,,,,5,4,94,10,,,,,,,,,main,2,2,2,neutral,neutral,k,k,1,0.7660833999980241,334.18938859999616,335.19932129999506,335.1826751999979,None,334.18938859999616,None,334.18938859999616,None,334.18938859999616,None,335.9492444600008,None,335.9492444600008,None,335.9492444600008,None,,,,,,,,,,,,,,110,2023-04-17_10h20.15.597,Main,2022.1.1,59.15535616310078,
positive,positive,1,l,j,,,,,,,,,5,5,95,2,,,,,,,,,main,1,1,1,positive,positive,l,l,1,0.7645080000002054,335.9509560000006,336.9660661000016,336.9493829999992,None,335.9509560000006,None,335.9509560000006,None,335.9509560000006,None,337.71626765999537,None,337.71626765999537,None,337.71626765999537,None,,,,,,,,,,,,,,110,2023-04-17_10h20.15.597,Main,2022.1.1,59.15535616310078,
negative,negative,1,j,l,,,,,,,,,5,6,96,0,,,,,,,,,main,2,2,1,negative,negative,j,j,1,0.7504093000025023,337.72232919999806,338.73515190000035,338.71855179999693,None,337.72232919999806,None,337.72232919999806,None,337.72232919999806,None,339.4683091599989,None,339.4683091599989,None,339.4683091599989,None,,,,,,,,,,,,,,110,2023-04-17_10h20.15.597,Main,2022.1.1,59.15535616310078,
positive,negative,2,l,j,,,,,,,,,5,7,97,14,,,,,,,,,main,2,2,2,negative,positive,l,l,1,0.8131044999972801,339.47248959999706,340.485119099998,340.46850119999726,None,339.47248959999706,None,339.47248959999706,None,339.47248959999706,None,341.28286735999865,None,341.28286735999865,None,341.28286735999865,None,,,,,,,,,,,,,,110,2023-04-17_10h20.15.597,Main,2022.1.1,59.15535616310078,
neutral,negative,2,k,k,,,,,,,,,5,8,98,16,,,,,,,,,main,1,1,2,negative,neutral,k,k,1,0.7151282000049832,341.28833859999577,342.3017570000011,342.2851293999993,None,341.28833859999577,None,341.28833859999577,None,341.28833859999577,None,342.9994808599993,None,342.9994808599993,None,342.9994808599993,None,,,,,,,,,,,,,,110,2023-04-17_10h20.15.597,Main,2022.1.1,59.15535616310078,
negative,positive,2,j,l,,,,,,,,,5,9,99,15,,,,,,,,,main,2,2,2,positive,negative,j,j,1,0.8567355999985011,343.005367400001,344.018350499995,344.00176899999497,None,343.005367400001,None,343.005367400001,None,343.005367400001,None,344.8576076599973,None,344.8576076599973,None,344.8576076599973,None,,,,,,,,,,,,,,110,2023-04-17_10h20.15.597,Main,2022.1.1,59.15535616310078,
negative,negative,2,j,l,,,,,,,,,5,10,100,9,,,,,,,,,main,2,2,2,negative,negative,j,j,1,0.72312950000196,344.8745626000018,345.8825127000018,345.84918109999853,None,344.8745626000018,None,344.8745626000018,None,344.8745626000018,None,346.5823729599986,None,346.5823729599986,None,346.5823729599986,None,,,,,,,,,,,,,,110,2023-04-17_10h20.15.597,Main,2022.1.1,59.15535616310078,
positive,negative,1,l,j,,,,,,,,,5,11,101,5,,,,,,,,,main,2,2,1,negative,positive,l,l,1,0.884460700006457,346.59924460000184,347.59917470000073,347.58252429999993,None,346.59924460000184,None,346.59924460000184,None,346.59924460000184,None,348.4683505600013,None,348.4683505600013,None,348.4683505600013,None,,,,,,,,,,,,,,110,2023-04-17_10h20.15.597,Main,2022.1.1,59.15535616310078,
positive,neutral,1,l,j,,,,,,,,,5,12,102,8,,,,,,,,,main,2,2,1,neutral,positive,l,l,1,0.8147317999973893,348.4722784999976,349.48493049999524,349.46828950000054,None,348.4722784999976,None,348.4722784999976,None,348.4722784999976,None,350.28480185999507,None,350.28480185999507,None,350.28480185999507,None,,,,,,,,,,,,,,110,2023-04-17_10h20.15.597,Main,2022.1.1,59.15535616310078,
negative,neutral,2,j,l,,,,,,,,,5,13,103,12,,,,,,,,,main,1,1,2,neutral,negative,j,k,0,0.7463164000000688,350.2877378999983,351.3015710999971,351.2849365000002,None,350.2877378999983,None,350.2877378999983,None,350.2877378999983,None,352.0328019000008,None,352.0328019000008,None,352.0328019000008,None,,,,,,,,,,,,,,110,2023-04-17_10h20.15.597,Main,2022.1.1,59.15535616310078,
neutral,neutral,1,k,k,,,,,,,,,5,14,104,1,,,,,,,,,main,2,2,1,neutral,neutral,k,k,1,0.9508103000043775,353.0333210999961,354.0348449000012,354.018250000001,None,353.0333210999961,None,353.0333210999961,None,353.0333210999961,None,354.9821387599994,None,354.9821387599994,None,354.9821387599994,None,,,,,,,,,,,,,,110,2023-04-17_10h20.15.597,Main,2022.1.1,59.15535616310078,
neutral,negative,1,k,k,,,,,,,,,5,15,105,7,,,,,,,,,main,2,2,1,negative,neutral,k,k,1,0.6151516999962041,354.983696999996,355.9989643000008,355.98227799999586,None,354.983696999996,None,354.983696999996,None,354.983696999996,None,356.5988844599968,None,356.5988844599968,None,356.5988844599968,None,,,,,,,,,,,,,,110,2023-04-17_10h20.15.597,Main,2022.1.1,59.15535616310078,
positive,positive,2,l,j,,,,,,,,,5,16,106,11,,,,,,,,,main,2,2,2,positive,positive,l,l,1,0.8829172999976436,356.60275099999853,357.61811759999546,357.6015222999995,None,356.60275099999853,None,356.60275099999853,None,356.60275099999853,None,358.4825414599953,None,358.4825414599953,None,358.4825414599953,None,,,,,,,,,,,,,,110,2023-04-17_10h20.15.597,Main,2022.1.1,59.15535616310078,
positive,neutral,2,l,j,,,,,,,,,5,17,107,17,,,,,,,,,main,2,2,2,neutral,positive,l,l,1,0.7141241999997874,358.4887910999969,359.5013992999957,359.48482299999887,None,358.4887910999969,None,358.4887910999969,None,358.4887910999969,None,360.1988442599948,None,360.1988442599948,None,360.1988442599948,None,,,,,,,,,,,,,,110,2023-04-17_10h20.15.597,Main,2022.1.1,59.15535616310078,
neutral,negative,2,k,k,,,,,,,,,6,0,108,16,,,,,,,,,main,2,2,2,negative,neutral,k,k,1,0.6996308000016143,360.2032865000001,361.21803559999535,361.20143339999777,None,360.2032865000001,None,360.2032865000001,None,360.2032865000001,None,361.9012246600003,None,361.9012246600003,None,361.9012246600003,None,,,,,,,,,,,,,,110,2023-04-17_10h20.15.597,Main,2022.1.1,59.15535616310078,
positive,positive,1,l,j,,,,,,,,,6,1,109,2,,,,,,,,,main,2,2,1,positive,positive,l,l,1,1.0491668000031495,361.9055941999977,362.91797829999996,362.9014079999979,None,361.9055941999977,None,361.9055941999977,None,361.9055941999977,None,363.9517837599968,None,363.9517837599968,None,363.9517837599968,None,,,,,,,,,,,,,,110,2023-04-17_10h20.15.597,Main,2022.1.1,59.15535616310078,
neutral,positive,1,k,k,,,,,,,,,6,2,110,4,,,,,,,,,main,2,2,1,positive,neutral,k,k,1,0.7618301000038628,363.96086600000126,364.96540190000087,364.94873079999525,None,363.96086600000126,None,363.96086600000126,None,363.96086600000126,None,365.7152665599977,None,365.7152665599977,None,365.7152665599977,None,,,,,,,,,,,,,,110,2023-04-17_10h20.15.597,Main,2022.1.1,59.15535616310078,
positive,neutral,1,l,j,,,,,,,,,6,3,111,8,,,,,,,,,main,1,1,1,neutral,positive,l,k,0,0.9488275000039721,365.71540449999884,366.7154584000018,366.7154584000018,None,365.71540449999884,None,365.71540449999884,None,365.71540449999884,None,367.6657978000003,None,367.6657978000003,None,367.6657978000003,None,,,,,,,,,,,,,,110,2023-04-17_10h20.15.597,Main,2022.1.1,59.15535616310078,
negative,neutral,1,j,l,,,,,,,,,6,4,112,3,,,,,,,,,main,1,1,1,neutral,negative,j,j,1,0.8180235999971046,368.6659182000003,369.66786509999656,369.6512231000015,None,368.6659182000003,None,368.6659182000003,None,368.6659182000003,None,370.4823001599987,None,370.4823001599987,None,370.4823001599987,None,,,,,,,,,,,,,,110,2023-04-17_10h20.15.597,Main,2022.1.1,59.15535616310078,
neutral,positive,2,k,k,,,,,,,,,6,5,113,13,,,,,,,,,main,1,1,2,positive,neutral,k,k,1,0.6981540999986464,370.48922109999694,371.5011783000009,371.4845881000001,None,370.48922109999694,None,370.48922109999694,None,370.48922109999694,None,372.18223835999817,None,372.18223835999817,None,372.18223835999817,None,,,,,,,,,,,,,,110,2023-04-17_10h20.15.597,Main,2022.1.1,59.15535616310078,
negative,neutral,2,j,l,,,,,,,,,6,6,114,12,,,,,,,,,main,2,2,2,neutral,negative,j,l,0,0.648150799999712,372.18788669999776,373.19757630000095,373.18157119999523,None,372.18788669999776,None,372.18788669999776,None,372.18788669999776,None,373.8319569000014,None,373.8319569000014,None,373.8319569000014,None,,,,,,,,,,,,,,110,2023-04-17_10h20.15.597,Main,2022.1.1,59.15535616310078,
negative,negative,1,j,l,,,,,,,,,6,7,115,0,,,,,,,,,main,1,1,1,negative,negative,j,j,1,1.0049227999988943,374.83193149999715,375.83445850000135,375.8177540999968,None,374.83193149999715,None,374.83193149999715,None,374.83193149999715,None,376.8321420600012,None,376.8321420600012,None,376.8321420600012,None,,,,,,,,,,,,,,110,2023-04-17_10h20.15.597,Main,2022.1.1,59.15535616310078,
negative,negative,2,j,l,,,,,,,,,6,8,116,9,,,,,,,,,main,2,2,2,negative,negative,j,j,1,0.749447300004249,376.8386204999988,377.8510274,377.8344161999994,None,376.8386204999988,None,376.8386204999988,None,376.8386204999988,None,378.58454575999787,None,378.58454575999787,None,378.58454575999787,None,,,,,,,,,,,,,,110,2023-04-17_10h20.15.597,Main,2022.1.1,59.15535616310078,
positive,negative,1,l,j,,,,,,,,,6,9,117,5,,,,,,,,,main,2,2,1,negative,positive,l,l,1,0.7627455999972881,378.5883013999992,379.6010022999981,379.58437359999516,None,378.5883013999992,None,378.5883013999992,None,378.5883013999992,None,380.34847745999724,None,380.34847745999724,None,380.34847745999724,None,,,,,,,,,,,,,,110,2023-04-17_10h20.15.597,Main,2022.1.1,59.15535616310078,
neutral,neutral,2,k,k,,,,,,,,,6,10,118,10,,,,,,,,,main,2,2,2,neutral,neutral,k,k,1,0.7152525999990758,380.35510619999695,381.36765159999777,381.35102950000146,None,380.35510619999695,None,380.35510619999695,None,380.35510619999695,None,382.0654625599971,None,382.0654625599971,None,382.0654625599971,None,,,,,,,,,,,,,,110,2023-04-17_10h20.15.597,Main,2022.1.1,59.15535616310078,
neutral,negative,1,k,k,,,,,,,,,6,11,119,7,,,,,,,,,main,2,2,1,negative,neutral,k,k,1,0.748008700000355,382.07109130000026,383.0842601999975,383.0676472999985,None,382.07109130000026,None,382.07109130000026,None,382.07109130000026,None,383.81495376000095,None,383.81495376000095,None,383.81495376000095,None,,,,,,,,,,,,,,110,2023-04-17_10h20.15.597,Main,2022.1.1,59.15535616310078,
neutral,neutral,1,k,k,,,,,,,,,6,12,120,1,,,,,,,,,main,1,1,1,neutral,neutral,k,k,1,0.7316924999977346,383.81502460000047,384.81503579999844,384.81503579999844,None,383.81502460000047,None,383.81502460000047,None,383.81502460000047,None,385.548281659995,None,385.548281659995,None,385.548281659995,None,,,,,,,,,,,,,,110,2023-04-17_10h20.15.597,Main,2022.1.1,59.15535616310078,
negative,positive,1,j,l,,,,,,,,,6,13,121,6,,,,,,,,,main,2,2,1,positive,negative,j,j,1,1.314986500001396,385.5504675999982,386.565071099998,386.54842169999756,None,385.5504675999982,None,385.5504675999982,None,385.5504675999982,None,387.8649345599959,None,387.8649345599959,None,387.8649345599959,None,,,,,,,,,,,,,,110,2023-04-17_10h20.15.597,Main,2022.1.1,59.15535616310078,
positive,positive,2,l,j,,,,,,,,,6,14,122,11,,,,,,,,,main,2,2,2,positive,positive,l,l,1,0.8512150000024121,387.87150239999755,388.8841001999972,388.8676125999991,None,387.87150239999755,None,387.87150239999755,None,387.87150239999755,None,389.7173704599962,None,389.7173704599962,None,389.7173704599962,None,,,,,,,,,,,,,,110,2023-04-17_10h20.15.597,Main,2022.1.1,59.15535616310078,
positive,negative,2,l,j,,,,,,,,,6,15,123,14,,,,,,,,,main,1,1,2,negative,positive,l,l,1,1.0796375999998418,389.72142170000006,390.73406319999776,390.71746029999485,None,389.72142170000006,None,389.72142170000006,None,389.72142170000006,None,391.79856175999595,None,391.79856175999595,None,391.79856175999595,None,,,,,,,,,,,,,,110,2023-04-17_10h20.15.597,Main,2022.1.1,59.15535616310078,
negative,positive,2,j,l,,,,,,,,,6,16,124,15,,,,,,,,,main,2,2,2,positive,negative,j,j,1,0.8973916999966605,391.80465849999746,392.81737549999525,392.8007529999959,None,391.80465849999746,None,391.80465849999746,None,391.80465849999746,None,393.6985443599959,None,393.6985443599959,None,393.6985443599959,None,,,,,,,,,,,,,,110,2023-04-17_10h20.15.597,Main,2022.1.1,59.15535616310078,
positive,neutral,2,l,j,,,,,,,,,6,17,125,17,,,,,,,,,main,2,2,2,neutral,positive,l,l,1,0.8314006000000518,393.7046265999961,394.7174010000017,394.7007595999967,None,393.7046265999961,None,393.7046265999961,None,393.7046265999961,None,395.5313908599972,None,395.5313908599972,None,395.5313908599972,None,,,,,,,,,,,,,,110,2023-04-17_10h20.15.597,Main,2022.1.1,59.15535616310078,
negative,negative,1,j,l,,,,,,,,,7,0,126,0,,,,,,,,,main,2,2,1,negative,negative,j,j,1,0.8639634999999544,395.53295459999936,396.54812949999905,396.53146990000096,None,395.53295459999936,None,395.53295459999936,None,395.53295459999936,None,397.3980532600006,None,397.3980532600006,None,397.3980532600006,None,,,,,,,,,,,,,,110,2023-04-17_10h20.15.597,Main,2022.1.1,59.15535616310078,
negative,positive,2,j,l,,,,,,,,,7,1,127,15,,,,,,,,,main,2,2,2,positive,negative,j,j,1,0.8685392999977921,397.40372650000063,398.41729420000047,398.4006679000013,None,397.40372650000063,None,397.40372650000063,None,397.40372650000063,None,399.26731255999476,None,399.26731255999476,None,399.26731255999476,None,,,,,,,,,,,,,,110,2023-04-17_10h20.15.597,Main,2022.1.1,59.15535616310078,
neutral,negative,1,k,k,,,,,,,,,7,2,128,7,,,,,,,,,main,1,1,1,negative,neutral,k,k,1,0.7784844999987399,399.27183579999837,400.2839174999972,400.26733930000046,None,399.27183579999837,None,399.27183579999837,None,399.27183579999837,None,401.04830305999786,None,401.04830305999786,None,401.04830305999786,None,,,,,,,,,,,,,,110,2023-04-17_10h20.15.597,Main,2022.1.1,59.15535616310078,
positive,neutral,1,l,j,,,,,,,,,7,3,129,8,,,,,,,,,main,2,2,1,neutral,positive,l,l,1,0.84821699999884,401.0541682999974,402.06726329999947,402.05052579999756,None,401.0541682999974,None,401.0541682999974,None,401.0541682999974,None,402.89795265999857,None,402.89795265999857,None,402.89795265999857,None,,,,,,,,,,,,,,110,2023-04-17_10h20.15.597,Main,2022.1.1,59.15535616310078,
positive,negative,1,l,j,,,,,,,,,7,4,130,5,,,,,,,,,main,1,1,1,negative,positive,l,l,1,2.1648181000055047,402.9039739,403.9171306999997,403.9005571000016,None,402.9039739,None,402.9039739,None,402.9039739,None,406.0646037999977,None,406.0646037999977,None,406.0646037999977,None,,,,,,,,,,,,,,110,2023-04-17_10h20.15.597,Main,2022.1.1,59.15535616310078,
negative,positive,1,j,l,,,,,,,,,7,5,131,6,,,,,,,,,main,1,1,1,positive,negative,j,j,1,0.8736233000017819,407.06460890000017,408.06709299999784,408.0505384999997,None,407.06460890000017,None,407.06460890000017,None,407.06460890000017,None,408.93361656000053,None,408.93361656000053,None,408.93361656000053,None,,,,,,,,,,,,,,110,2023-04-17_10h20.15.597,Main,2022.1.1,59.15535616310078,
positive,negative,2,l,j,,,,,,,,,7,6,132,14,,,,,,,,,main,1,1,2,negative,positive,l,l,1,0.8113673999978346,408.93802770000184,409.950385600001,409.9337738999966,None,408.93802770000184,None,408.93802770000184,None,408.93802770000184,None,410.74778905999557,None,410.74778905999557,None,410.74778905999557,None,,,,,,,,,,,,,,110,2023-04-17_10h20.15.597,Main,2022.1.1,59.15535616310078,
negative,negative,2,j,l,,,,,,,,,7,7,133,9,,,,,,,,,main,2,2,2,negative,negative,j,j,1,0.8153469000026234,410.75140549999924,411.767018999999,411.7504168999949,None,410.75140549999924,None,410.75140549999924,None,410.75140549999924,None,412.5647882599995,None,412.5647882599995,None,412.5647882599995,None,,,,,,,,,,,,,,110,2023-04-17_10h20.15.597,Main,2022.1.1,59.15535616310078,
negative,neutral,1,j,l,,,,,,,,,7,8,134,3,,,,,,,,,main,2,2,1,neutral,negative,j,k,0,0.44842659999994794,412.5705536999958,413.58363929999905,413.5670553000018,None,412.5705536999958,None,412.5705536999958,None,412.5705536999958,None,414.0171053000013,None,414.0171053000013,None,414.0171053000013,None,,,,,,,,,,,,,,110,2023-04-17_10h20.15.597,Main,2022.1.1,59.15535616310078,
neutral,positive,1,k,k,,,,,,,,,7,9,135,4,,,,,,,,,main,2,2,1,positive,neutral,k,k,1,0.7866672999953153,415.03111309999804,416.0310485000009,416.01440020000155,None,415.03111309999804,None,415.03111309999804,None,415.03111309999804,None,416.8143483599968,None,416.8143483599968,None,416.8143483599968,None,,,,,,,,,,,,,,110,2023-04-17_10h20.15.597,Main,2022.1.1,59.15535616310078,
positive,positive,2,l,j,,,,,,,,,7,10,136,11,,,,,,,,,main,1,1,2,positive,positive,l,l,1,0.9839638000048581,416.8191344000006,417.8335147999969,417.8168775000013,None,416.8191344000006,None,416.8191344000006,None,416.8191344000006,None,418.8001436599996,None,418.8001436599996,None,418.8001436599996,None,,,,,,,,,,,,,,110,2023-04-17_10h20.15.597,Main,2022.1.1,59.15535616310078,
positive,positive,1,l,j,,,,,,,,,7,11,137,2,,,,,,,,,main,2,2,1,positive,positive,l,l,1,0.77945660000114,418.80496259999927,419.81680939999933,419.80027549999795,None,418.80496259999927,None,418.80496259999927,None,418.80496259999927,None,420.5811927599978,None,420.5811927599978,None,420.5811927599978,None,,,,,,,,,,,,,,110,2023-04-17_10h20.15.597,Main,2022.1.1,59.15535616310078,
neutral,negative,2,k,k,,,,,,,,,7,12,138,16,,,,,,,,,main,2,2,2,negative,neutral,k,k,1,0.7506345000001602,420.5875586999973,421.60013629999594,421.58353999999963,None,420.5875586999973,None,420.5875586999973,None,420.5875586999973,None,422.33347735999706,None,422.33347735999706,None,422.33347735999706,None,,,,,,,,,,,,,,110,2023-04-17_10h20.15.597,Main,2022.1.1,59.15535616310078,
neutral,neutral,2,k,k,,,,,,,,,7,13,139,10,,,,,,,,,main,1,1,2,neutral,neutral,k,k,1,0.7650310999961221,422.3375001999957,423.3500774999993,423.3334848999948,None,422.3375001999957,None,422.3375001999957,None,422.3375001999957,None,424.1000596599959,None,424.1000596599959,None,424.1000596599959,None,,,,,,,,,,,,,,110,2023-04-17_10h20.15.597,Main,2022.1.1,59.15535616310078,
neutral,neutral,1,k,k,,,,,,,,,7,14,140,1,,,,,,,,,main,2,2,1,neutral,neutral,k,k,1,0.8457577999943169,424.10406559999683,425.1139153999975,425.0971516999998,None,424.10406559999683,None,424.10406559999683,None,424.10406559999683,None,425.94738275999845,None,425.94738275999845,None,425.94738275999845,None,,,,,,,,,,,,,,110,2023-04-17_10h20.15.597,Main,2022.1.1,59.15535616310078,
positive,neutral,2,l,j,,,,,,,,,7,15,141,17,,,,,,,,,main,1,1,2,neutral,positive,l,l,1,1.1490640000047279,425.9474726999979,426.9475291999988,426.9475291999988,None,425.9474726999979,None,425.9474726999979,None,425.9474726999979,None,428.0977815599952,None,428.0977815599952,None,428.0977815599952,None,,,,,,,,,,,,,,110,2023-04-17_10h20.15.597,Main,2022.1.1,59.15535616310078,
neutral,positive,2,k,k,,,,,,,,,7,16,142,13,,,,,,,,,main,1,1,2,positive,neutral,k,k,1,0.7319620999987819,428.1035369999954,429.11663150000095,429.100051399997,None,428.1035369999954,None,428.1035369999954,None,428.1035369999954,None,429.83133945999435,None,429.83133945999435,None,429.83133945999435,None,,,,,,,,,,,,,,110,2023-04-17_10h20.15.597,Main,2022.1.1,59.15535616310078,
negative,neutral,2,j,l,,,,,,,,,7,17,143,12,,,,,,,,,main,2,2,2,neutral,negative,j,j,1,0.8645573000030708,429.8376491000017,430.8499465999994,430.8333214999948,None,429.8376491000017,None,429.8376491000017,None,429.8376491000017,None,431.6973698599948,None,431.6973698599948,None,431.6973698599948,None,,,,,,,,,,,,,,110,2023-04-17_10h20.15.597,Main,2022.1.1,59.15535616310078,
neutral,positive,1,k,k,,,,,,,,,8,0,144,4,,,,,,,,,main,2,2,1,positive,neutral,k,k,1,0.7644587000031606,431.70483519999834,432.7165929999974,432.700001600002,None,431.70483519999834,None,431.70483519999834,None,431.70483519999834,None,433.46435166000157,None,433.46435166000157,None,433.46435166000157,None,,,,,,,,,,,,,,110,2023-04-17_10h20.15.597,Main,2022.1.1,59.15535616310078,
negative,neutral,1,j,l,,,,,,,,,8,1,145,3,,,,,,,,,main,2,2,1,neutral,negative,j,j,1,0.9405289999995148,433.4699748999992,434.48318989999825,434.4666072999971,None,433.4699748999992,None,433.4699748999992,None,433.4699748999992,None,435.40622555999727,None,435.40622555999727,None,435.40622555999727,None,,,,,,,,,,,,,,110,2023-04-17_10h20.15.597,Main,2022.1.1,59.15535616310078,
negative,positive,1,j,l,,,,,,,,,8,2,146,6,,,,,,,,,main,2,2,1,positive,negative,j,j,1,0.7063253000014811,435.4230879999959,436.43296610000107,436.39974970000185,None,435.4230879999959,None,435.4230879999959,None,435.4230879999959,None,437.1141331599982,None,437.1141331599982,None,437.1141331599982,None,,,,,,,,,,,,,,110,2023-04-17_10h20.15.597,Main,2022.1.1,59.15535616310078,
positive,neutral,2,l,j,,,,,,,,,8,3,147,17,,,,,,,,,main,1,1,2,neutral,positive,l,l,1,0.9983573999998043,437.1197465000005,438.1309101000006,438.116345800001,None,437.1197465000005,None,437.1197465000005,None,437.1197465000005,None,439.1140781600014,None,439.1140781600014,None,439.1140781600014,None,,,,,,,,,,,,,,110,2023-04-17_10h20.15.597,Main,2022.1.1,59.15535616310078,
neutral,neutral,2,k,k,,,,,,,,,8,4,148,10,,,,,,,,,main,2,2,2,neutral,neutral,k,k,1,0.7484733000019332,439.1200499999977,440.13295890000154,440.11637450000126,None,439.1200499999977,None,439.1200499999977,None,439.1200499999977,None,440.8640597599995,None,440.8640597599995,None,440.8640597599995,None,,,,,,,,,,,,,,110,2023-04-17_10h20.15.597,Main,2022.1.1,59.15535616310078,
neutral,positive,2,k,k,,,,,,,,,8,5,149,13,,,,,,,,,main,2,2,2,positive,neutral,k,k,1,0.7163469000006444,440.87037820000114,441.88295359999756,441.8663765999954,None,440.87037820000114,None,440.87037820000114,None,440.87037820000114,None,442.5808656599955,None,442.5808656599955,None,442.5808656599955,None,,,,,,,,,,,,,,110,2023-04-17_10h20.15.597,Main,2022.1.1,59.15535616310078,
negative,positive,2,j,l,,,,,,,,,8,6,150,15,,,,,,,,,main,2,2,2,positive,negative,j,j,1,0.815106800000649,442.5871416000009,443.59956460000103,443.5829967999962,None,442.5871416000009,None,442.5871416000009,None,442.5871416000009,None,444.39943126000145,None,444.39943126000145,None,444.39943126000145,None,,,,,,,,,,,,,,110,2023-04-17_10h20.15.597,Main,2022.1.1,59.15535616310078,
positive,negative,2,l,j,,,,,,,,,8,7,151,14,,,,,,,,,main,1,1,2,negative,positive,l,l,1,1.0466488000020036,444.40345149999484,445.4161677000011,445.3974820000003,None,444.40345149999484,None,444.40345149999484,None,444.40345149999484,None,446.44731555999607,None,446.44731555999607,None,446.44731555999607,None,,,,,,,,,,,,,,110,2023-04-17_10h20.15.597,Main,2022.1.1,59.15535616310078,
neutral,neutral,1,k,k,,,,,,,,,8,8,152,1,,,,,,,,,main,1,1,1,neutral,neutral,k,k,1,0.7500452000022051,446.45147509999515,447.466187500002,447.44963689999713,None,446.45147509999515,None,446.45147509999515,None,446.45147509999515,None,448.1974811599983,None,448.1974811599983,None,448.1974811599983,None,,,,,,,,,,,,,,110,2023-04-17_10h20.15.597,Main,2022.1.1,59.15535616310078,
negative,neutral,2,j,l,,,,,,,,,8,9,153,12,,,,,,,,,main,2,2,2,neutral,negative,j,j,1,1.3957067000010284,448.2034590999974,449.21621869999944,449.199595099999,None,448.2034590999974,None,448.2034590999974,None,448.2034590999974,None,450.5970364599969,None,450.5970364599969,None,450.5970364599969,None,,,,,,,,,,,,,,110,2023-04-17_10h20.15.597,Main,2022.1.1,59.15535616310078,
neutral,negative,2,k,k,,,,,,,,,8,10,154,16,,,,,,,,,main,2,2,2,negative,neutral,k,k,1,0.8492869000037899,450.6028911999965,451.6136705999961,451.5969882999998,None,450.6028911999965,None,450.6028911999965,None,450.6028911999965,None,452.4468622600005,None,452.4468622600005,None,452.4468622600005,None,,,,,,,,,,,,,,110,2023-04-17_10h20.15.597,Main,2022.1.1,59.15535616310078,
positive,negative,1,l,j,,,,,,,,,8,11,155,5,,,,,,,,,main,1,1,1,negative,positive,l,l,1,1.5979099000032875,452.44903379999596,453.4638038999983,453.4470392000003,None,452.44903379999596,None,452.44903379999596,None,452.44903379999596,None,455.04973829999653,None,455.04973829999653,None,455.04973829999653,None,,,,,,,,,,,,,,110,2023-04-17_10h20.15.597,Main,2022.1.1,59.15535616310078,
negative,negative,1,j,l,,,,,,,,,8,12,156,0,,,,,,,,,main,2,2,1,negative,negative,j,j,1,0.8012938999963808,456.0477342999948,457.04944189999514,457.0328348999974,None,456.0477342999948,None,456.0477342999948,None,456.0477342999948,None,457.84714895999497,None,457.84714895999497,None,457.84714895999497,None,,,,,,,,,,,,,,110,2023-04-17_10h20.15.597,Main,2022.1.1,59.15535616310078,
positive,neutral,1,l,j,,,,,,,,,8,13,157,8,,,,,,,,,main,2,2,1,neutral,positive,l,l,1,1.3816442000024836,457.8533486000015,458.8660735000012,458.84949439999764,None,457.8533486000015,None,457.8533486000015,None,457.8533486000015,None,460.23050845999825,None,460.23050845999825,None,460.23050845999825,None,,,,,,,,,,,,,,110,2023-04-17_10h20.15.597,Main,2022.1.1,59.15535616310078,
neutral,negative,1,k,k,,,,,,,,,8,14,158,7,,,,,,,,,main,2,2,1,negative,neutral,k,k,1,0.8149808999951347,460.2364806999976,461.2522899999967,461.2356179999988,None,460.2364806999976,None,460.2364806999976,None,460.2364806999976,None,462.0469533600015,None,462.0469533600015,None,462.0469533600015,None,,,,,,,,,,,,,,110,2023-04-17_10h20.15.597,Main,2022.1.1,59.15535616310078,
positive,positive,1,l,j,,,,,,,,,8,15,159,2,,,,,,,,,main,2,2,1,positive,positive,l,l,1,0.9651031000030343,462.0503327999977,463.0658207000015,463.04705219999596,None,462.0503327999977,None,462.0503327999977,None,462.0503327999977,None,464.0135992600015,None,464.0135992600015,None,464.0135992600015,None,,,,,,,,,,,,,,110,2023-04-17_10h20.15.597,Main,2022.1.1,59.15535616310078,
positive,positive,2,l,j,,,,,,,,,8,16,160,11,,,,,,,,,main,1,1,2,positive,positive,l,l,1,0.8506254999956582,464.01903460000176,465.0326313999976,465.01372059999994,None,464.01903460000176,None,464.01903460000176,None,464.01903460000176,None,465.8657393599977,None,465.8657393599977,None,465.8657393599977,None,,,,,,,,,,,,,,110,2023-04-17_10h20.15.597,Main,2022.1.1,59.15535616310078,
negative,negative,2,j,l,,,,,,,,,8,17,161,9,,,,,,,,,main,1,1,2,negative,negative,j,j,1,0.8797855000011623,465.8696345999997,466.88033780000114,466.86582619999535,None,465.8696345999997,None,465.8696345999997,None,465.8696345999997,None,467.74687775999774,None,467.74687775999774,None,467.74687775999774,None,,,,,,,,,,,,,,110,2023-04-17_10h20.15.597,Main,2022.1.1,59.15535616310078,
positive,positive,2,l,j,,,,,,,,,9,0,162,11,,,,,,,,,main,1,1,2,positive,positive,l,l,1,0.8649872999958461,467.7527870999984,468.7657324999964,468.7469968000005,None,467.7527870999984,None,467.7527870999984,None,467.7527870999984,None,469.6135086600014,None,469.6135086600014,None,469.6135086600014,None,,,,,,,,,,,,,,110,2023-04-17_10h20.15.597,Main,2022.1.1,59.15535616310078,
negative,negative,1,j,l,,,,,,,,,9,1,163,0,,,,,,,,,main,1,1,1,negative,negative,j,j,1,0.7984523999984958,469.6188555999979,470.6323489999995,470.6158149999974,None,469.6188555999979,None,469.6188555999979,None,469.6188555999979,None,471.4134964599987,None,471.4134964599987,None,471.4134964599987,None,,,,,,,,,,,,,,110,2023-04-17_10h20.15.597,Main,2022.1.1,59.15535616310078,
negative,positive,1,j,l,,,,,,,,,9,2,164,6,,,,,,,,,main,1,1,1,positive,negative,j,j,1,0.8506001999994623,471.419719599995,472.4323002000019,472.4157062000013,None,471.419719599995,None,471.419719599995,None,471.419719599995,None,473.26567546000007,None,473.26567546000007,None,473.26567546000007,None,,,,,,,,,,,,,,110,2023-04-17_10h20.15.597,Main,2022.1.1,59.15535616310078,
positive,negative,2,l,j,,,,,,,,,9,3,165,14,,,,,,,,,main,2,2,2,negative,positive,l,l,1,0.7629879000014625,473.26968739999575,474.2823200999992,474.2657170999955,None,473.26968739999575,None,473.26968739999575,None,473.26968739999575,None,475.0301906599969,None,475.0301906599969,None,475.0301906599969,None,,,,,,,,,,,,,,110,2023-04-17_10h20.15.597,Main,2022.1.1,59.15535616310078,
neutral,neutral,2,k,k,,,,,,,,,9,4,166,10,,,,,,,,,main,1,1,2,neutral,neutral,k,k,1,0.7646770999999717,475.03570110000146,476.0464862000008,476.0298160999955,None,475.03570110000146,None,475.03570110000146,None,475.03570110000146,None,476.79640465999984,None,476.79640465999984,None,476.79640465999984,None,,,,,,,,,,,,,,110,2023-04-17_10h20.15.597,Main,2022.1.1,59.15535616310078,
positive,neutral,2,l,j,,,,,,,,,9,5,167,17,,,,,,,,,main,2,2,2,neutral,positive,l,l,1,0.8653156999935163,476.79646939999657,477.79654540000047,477.79654540000047,None,476.79646939999657,None,476.79646939999657,None,476.79646939999657,None,478.66309346000054,None,478.66309346000054,None,478.66309346000054,None,,,,,,,,,,,,,,110,2023-04-17_10h20.15.597,Main,2022.1.1,59.15535616310078,
negative,neutral,1,j,l,,,,,,,,,9,6,168,3,,,,,,,,,main,1,1,1,neutral,negative,j,j,1,0.7486562999984017,478.66896930000075,479.6822911999989,479.6657066999978,None,478.66896930000075,None,478.66896930000075,None,478.66896930000075,None,480.41340065999685,None,480.41340065999685,None,480.41340065999685,None,,,,,,,,,,,,,,110,2023-04-17_10h20.15.597,Main,2022.1.1,59.15535616310078,
positive,positive,1,l,j,,,,,,,,,9,7,169,2,,,,,,,,,main,2,2,1,positive,positive,l,l,1,0.8984774999989895,480.4193693999987,481.4322746999969,481.415697299999,None,480.4193693999987,None,480.4193693999987,None,480.4193693999987,None,482.31333005999915,None,482.31333005999915,None,482.31333005999915,None,,,,,,,,,,,,,,110,2023-04-17_10h20.15.597,Main,2022.1.1,59.15535616310078,
neutral,neutral,1,k,k,,,,,,,,,9,8,170,1,,,,,,,,,main,1,1,1,neutral,neutral,k,k,1,0.6816315000032773,482.3324378999969,483.33221509999566,483.31561599999986,None,482.3324378999969,None,482.3324378999969,None,482.3324378999969,None,483.99661436000025,None,483.99661436000025,None,483.99661436000025,None,,,,,,,,,,,,,,110,2023-04-17_10h20.15.597,Main,2022.1.1,59.15535616310078,
neutral,positive,1,k,k,,,,,,,,,9,9,171,4,,,,,,,,,main,1,1,1,positive,neutral,k,k,1,0.6480592000007164,484.00222299999587,485.0155872999967,484.99895729999844,None,484.00222299999587,None,484.00222299999587,None,484.00222299999587,None,485.64617415999675,None,485.64617415999675,None,485.64617415999675,None,,,,,,,,,,,,,,110,2023-04-17_10h20.15.597,Main,2022.1.1,59.15535616310078,
negative,neutral,2,j,l,,,,,,,,,9,10,172,12,,,,,,,,,main,1,1,2,neutral,negative,j,j,1,0.9818125999954646,485.6462878999955,486.6463096000007,486.6463096000007,None,485.6462878999955,None,485.6462878999955,None,485.6462878999955,None,487.6295782599962,None,487.6295782599962,None,487.6295782599962,None,,,,,,,,,,,,,,110,2023-04-17_10h20.15.597,Main,2022.1.1,59.15535616310078,
positive,negative,1,l,j,,,,,,,,,9,11,173,5,,,,,,,,,main,2,2,1,negative,positive,l,l,1,1.3853860000017448,487.6331375000009,488.6487425000014,488.63213359999645,None,487.6331375000009,None,487.6331375000009,None,487.6331375000009,None,490.01552375999455,None,490.01552375999455,None,490.01552375999455,None,,,,,,,,,,,,,,110,2023-04-17_10h20.15.597,Main,2022.1.1,59.15535616310078,
neutral,negative,2,k,k,,,,,,,,,9,12,174,16,,,,,,,,,main,2,2,2,negative,neutral,k,k,1,0.729327100001683,490.02000649999536,491.03202639999654,491.01542640000116,None,490.02000649999536,None,490.02000649999536,None,490.02000649999536,None,491.746468260001,None,491.746468260001,None,491.746468260001,None,,,,,,,,,,,,,,110,2023-04-17_10h20.15.597,Main,2022.1.1,59.15535616310078,
negative,positive,2,j,l,,,,,,,,,9,13,175,15,,,,,,,,,main,1,1,2,positive,negative,j,j,1,0.7807906999951228,491.75286570000026,492.7653424000018,492.74875909999537,None,491.75286570000026,None,491.75286570000026,None,491.75286570000026,None,493.5297878600002,None,493.5297878600002,None,493.5297878600002,None,,,,,,,,,,,,,,110,2023-04-17_10h20.15.597,Main,2022.1.1,59.15535616310078,
positive,neutral,1,l,j,,,,,,,,,9,14,176,8,,,,,,,,,main,1,1,1,neutral,positive,l,l,1,0.8148195999965537,493.5358118000004,494.54868870000064,494.53204189999815,None,493.5358118000004,None,493.5358118000004,None,493.5358118000004,None,495.3464309599993,None,495.3464309599993,None,495.3464309599993,None,,,,,,,,,,,,,,110,2023-04-17_10h20.15.597,Main,2022.1.1,59.15535616310078,
negative,negative,2,j,l,,,,,,,,,9,15,177,9,,,,,,,,,main,2,2,2,negative,negative,j,j,1,0.8145065999997314,495.3522435999985,496.36273770000116,496.34607819999655,None,495.3522435999985,None,495.3522435999985,None,495.3522435999985,None,497.1626128600008,None,497.1626128600008,None,497.1626128600008,None,,,,,,,,,,,,,,110,2023-04-17_10h20.15.597,Main,2022.1.1,59.15535616310078,
neutral,negative,1,k,k,,,,,,,,,9,16,178,7,,,,,,,,,main,2,2,1,negative,neutral,k,k,1,0.8010293999977876,497.16452610000124,498.179452999997,498.16279419999773,None,497.16452610000124,None,497.16452610000124,None,497.16452610000124,None,498.9651539599989,None,498.9651539599989,None,498.9651539599989,None,,,,,,,,,,,,,,110,2023-04-17_10h20.15.597,Main,2022.1.1,59.15535616310078,
neutral,positive,2,k,k,,,,,,,,,9,17,179,13,,,,,,,,,main,2,2,2,positive,neutral,k,k,1,0.715630600003351,498.9692553999994,499.98190890000114,499.96531759999925,None,498.9692553999994,None,498.9692553999994,None,498.9692553999994,None,500.68219645999926,None,500.68219645999926,None,500.68219645999926,None,,,,,,,,,,,,,,110,2023-04-17_10h20.15.597,Main,2022.1.1,59.15535616310078,
neutral,negative,1,k,k,,,,,,,,,10,0,180,7,,,,,,,,,main,2,2,1,negative,neutral,k,k,1,0.7122591000006651,500.6866035999992,501.6985940999948,501.6819774999967,None,500.6866035999992,None,500.6866035999992,None,500.6866035999992,None,502.39624325999904,None,502.39624325999904,None,502.39624325999904,None,,,,,,,,,,,,,,110,2023-04-17_10h20.15.597,Main,2022.1.1,59.15535616310078,
positive,negative,2,l,j,,,,,,,,,10,1,181,14,,,,,,,,,main,1,1,2,negative,positive,l,l,1,0.898269800003618,502.4022144999981,503.41517069999827,503.39855339999485,None,502.4022144999981,None,502.4022144999981,None,502.4022144999981,None,504.2962477599984,None,504.2962477599984,None,504.2962477599984,None,,,,,,,,,,,,,,110,2023-04-17_10h20.15.597,Main,2022.1.1,59.15535616310078,
neutral,positive,2,k,k,,,,,,,,,10,2,182,13,,,,,,,,,main,1,1,2,positive,neutral,k,k,1,1.0481125000005704,504.3016984999995,505.3190891999984,505.29788919999555,None,504.3016984999995,None,504.3016984999995,None,504.3016984999995,None,506.3457501599958,None,506.3457501599958,None,506.3457501599958,None,,,,,,,,,,,,,,110,2023-04-17_10h20.15.597,Main,2022.1.1,59.15535616310078,
negative,negative,1,j,l,,,,,,,,,10,3,183,0,,,,,,,,,main,2,2,1,negative,negative,j,k,0,-0.3350720000016736,506.34588059999805,None,None,None,506.34588059999805,None,506.34588059999805,None,506.34588059999805,None,507.01256699999794,None,507.01256699999794,None,507.01256699999794,None,,,,,,,,,,,,,,110,2023-04-17_10h20.15.597,Main,2022.1.1,59.15535616310078,
positive,neutral,2,l,j,,,,,,,,,10,4,184,17,,,,,,,,,main,1,1,2,neutral,positive,l,l,1,1.1022832000016933,510.013778499997,511.01504009999917,510.9984035000016,None,510.013778499997,None,510.013778499997,None,510.013778499997,None,512.1127316600002,None,512.1127316600002,None,512.1127316600002,None,,,,,,,,,,,,,,110,2023-04-17_10h20.15.597,Main,2022.1.1,59.15535616310078,
negative,positive,2,j,l,,,,,,,,,10,5,185,15,,,,,,,,,main,2,2,2,positive,negative,j,j,1,0.8494238999992376,512.1197176999995,513.1316219,513.1149642999953,None,512.1197176999995,None,512.1197176999995,None,512.1197176999995,None,513.9651724600014,None,513.9651724600014,None,513.9651724600014,None,,,,,,,,,,,,,,110,2023-04-17_10h20.15.597,Main,2022.1.1,59.15535616310078,
neutral,neutral,2,k,k,,,,,,,,,10,6,186,10,,,,,,,,,main,1,1,2,neutral,neutral,k,k,1,1.1828720000048634,513.9689069999949,514.9815904999996,514.9649735999992,None,513.9689069999949,None,513.9689069999949,None,513.9689069999949,None,516.1455609599986,None,516.1455609599986,None,516.1455609599986,None,,,,,,,,,,,,,,110,2023-04-17_10h20.15.597,Main,2022.1.1,59.15535616310078,
negative,neutral,2,j,l,,,,,,,,,10,7,187,12,,,,,,,,,main,2,2,2,neutral,negative,j,j,1,1.1125650000030873,516.1496222999995,517.1623551000012,517.1456847000009,None,516.1496222999995,None,516.1496222999995,None,516.1496222999995,None,518.2636149599973,None,518.2636149599973,None,518.2636149599973,None,,,,,,,,,,,,,,110,2023-04-17_10h20.15.597,Main,2022.1.1,59.15535616310078,
neutral,neutral,1,k,k,,,,,,,,,10,8,188,1,,,,,,,,,main,1,1,1,neutral,neutral,k,k,1,1.2661433999965084,518.2692945999952,519.2815436999954,519.2648988000001,None,518.2692945999952,None,518.2692945999952,None,518.2692945999952,None,520.5313771599947,None,520.5313771599947,None,520.5313771599947,None,,,,,,,,,,,,,,110,2023-04-17_10h20.15.597,Main,2022.1.1,59.15535616310078,
neutral,positive,1,k,k,,,,,,,,,10,9,189,4,,,,,,,,,main,2,2,1,positive,neutral,k,k,1,0.8150328999981866,520.5359629999948,521.5481889000002,521.5315361999965,None,520.5359629999948,None,520.5359629999948,None,520.5359629999948,None,522.3480388599971,None,522.3480388599971,None,522.3480388599971,None,,,,,,,,,,,,,,110,2023-04-17_10h20.15.597,Main,2022.1.1,59.15535616310078,
negative,positive,1,j,l,,,,,,,,,10,10,190,6,,,,,,,,,main,1,1,1,positive,negative,j,j,1,0.9128937999994378,522.3512398999956,523.3647420999987,523.3481361999948,None,522.3512398999956,None,522.3512398999956,None,522.3512398999956,None,524.2624750599978,None,524.2624750599978,None,524.2624750599978,None,,,,,,,,,,,,,,110,2023-04-17_10h20.15.597,Main,2022.1.1,59.15535616310078,
negative,negative,2,j,l,,,,,,,,,10,11,191,9,,,,,,,,,main,2,2,2,negative,negative,j,j,1,0.7739604999951553,524.2670327999949,525.2813726999957,525.2647777999955,None,524.2670327999949,None,524.2670327999949,None,524.2670327999949,None,526.0391722600004,None,526.0391722600004,None,526.0391722600004,None,,,,,,,,,,,,,,110,2023-04-17_10h20.15.597,Main,2022.1.1,59.15535616310078,
negative,neutral,1,j,l,,,,,,,,,10,12,192,3,,,,,,,,,main,1,1,1,neutral,negative,j,j,1,0.8216613000040525,526.0389396999963,527.0454868000015,527.0288161999997,None,526.0389396999963,None,526.0389396999963,None,526.0389396999963,None,527.8621127599952,None,527.8621127599952,None,527.8621127599952,None,,,,,,,,,,,,,,110,2023-04-17_10h20.15.597,Main,2022.1.1,59.15535616310078,
neutral,negative,2,k,k,,,,,,,,,10,13,193,16,,,,,,,,,main,2,2,2,negative,neutral,k,k,1,0.8146902000007685,527.8657101999997,528.8812877999953,528.8647291000016,None,527.8657101999997,None,527.8657101999997,None,527.8657101999997,None,529.6787185600012,None,529.6787185600012,None,529.6787185600012,None,,,,,,,,,,,,,,110,2023-04-17_10h20.15.597,Main,2022.1.1,59.15535616310078,
positive,negative,1,l,j,,,,,,,,,10,14,194,5,,,,,,,,,main,2,2,1,negative,positive,l,j,0,0.9176701999967918,529.6979948000007,530.6979280999949,530.6813191999972,None,529.6979948000007,None,529.6979948000007,None,529.6979948000007,None,531.5979254999984,None,531.5979254999984,None,531.5979254999984,None,,,,,,,,,,,,,,110,2023-04-17_10h20.15.597,Main,2022.1.1,59.15535616310078,
positive,positive,2,l,j,,,,,,,,,10,15,195,11,,,,,,,,,main,2,2,2,positive,positive,l,l,1,0.9349129000038374,532.5964103000006,533.5978434999997,533.5812547999958,None,532.5964103000006,None,532.5964103000006,None,532.5964103000006,None,534.5290162599965,None,534.5290162599965,None,534.5290162599965,None,,,,,,,,,,,,,,110,2023-04-17_10h20.15.597,Main,2022.1.1,59.15535616310078,
positive,positive,1,l,j,,,,,,,,,10,16,196,2,,,,,,,,,main,1,1,1,positive,positive,l,l,1,0.7806321999960346,534.5458226999981,535.561236900001,535.5229838000014,None,534.5458226999981,None,534.5458226999981,None,534.5458226999981,None,536.3118340599947,None,536.3118340599947,None,536.3118340599947,None,,,,,,,,,,,,,,110,2023-04-17_10h20.15.597,Main,2022.1.1,59.15535616310078,
positive,neutral,1,l,j,,,,,,,,,10,17,197,8,,,,,,,,,main,2,2,1,neutral,positive,l,l,1,0.7319253000023309,536.311964200002,537.3119640000004,537.3119640000004,None,536.311964200002,None,536.311964200002,None,536.311964200002,None,538.0452065600009,None,538.0452065600009,None,538.0452065600009,None,,,,,,,,,,,,,,110,2023-04-17_10h20.15.597,Main,2022.1.1,59.15535616310078,
neutral,neutral,2,k,k,,,,,,,,,11,0,198,10,,,,,,,,,main,2,2,2,neutral,neutral,k,k,1,1.2007857999997213,538.050968800002,539.0645210000002,539.0478002999953,None,538.050968800002,None,538.050968800002,None,538.050968800002,None,540.2476415600001,None,540.2476415600001,None,540.2476415600001,None,,,,,,,,,,,,,,110,2023-04-17_10h20.15.597,Main,2022.1.1,59.15535616310078,
positive,negative,2,l,j,,,,,,,,,11,1,199,14,,,,,,,,,main,2,2,2,negative,positive,l,l,1,0.9153430000005756,540.2508177999989,541.2643420999957,541.247741399995,None,540.2508177999989,None,540.2508177999989,None,540.2508177999989,None,542.1645546599946,None,542.1645546599946,None,542.1645546599946,None,,,,,,,,,,,,,,110,2023-04-17_10h20.15.597,Main,2022.1.1,59.15535616310078,
neutral,negative,2,k,k,,,,,,,,,11,2,200,16,,,,,,,,,main,1,1,2,negative,neutral,k,l,0,-0.22089599999890197,542.1683544999978,None,None,None,542.1683544999978,None,542.1683544999978,None,542.1683544999978,None,542.9478116999962,None,542.9478116999962,None,542.9478116999962,None,,,,,,,,,,,,,,110,2023-04-17_10h20.15.597,Main,2022.1.1,59.15535616310078,
negative,positive,2,j,l,,,,,,,,,11,3,201,15,,,,,,,,,main,1,1,2,positive,negative,j,j,1,0.9563446000029217,545.9617696999994,546.9617718000009,546.9450929000013,None,545.9617696999994,None,545.9617696999994,None,545.9617696999994,None,547.9145067600009,None,547.9145067600009,None,547.9145067600009,None,,,,,,,,,,,,,,110,2023-04-17_10h20.15.597,Main,2022.1.1,59.15535616310078,
neutral,positive,1,k,k,,,,,,,,,11,4,202,4,,,,,,,,,main,2,2,1,positive,neutral,k,k,1,1.195740899995144,547.9182110999973,548.9308868000007,548.9142857999977,None,547.9182110999973,None,547.9182110999973,None,547.9182110999973,None,550.1119866599954,None,550.1119866599954,None,550.1119866599954,None,,,,,,,,,,,,,,110,2023-04-17_10h20.15.597,Main,2022.1.1,59.15535616310078,
positive,positive,1,l,j,,,,,,,,,11,5,203,2,,,,,,,,,main,1,1,1,positive,positive,l,l,1,1.3147934000007808,550.1177811000016,551.1308599999975,551.1142648999958,None,550.1177811000016,None,550.1177811000016,None,550.1177811000016,None,552.4282722600008,None,552.4282722600008,None,552.4282722600008,None,,,,,,,,,,,,,,110,2023-04-17_10h20.15.597,Main,2022.1.1,59.15535616310078,
negative,negative,2,j,l,,,,,,,,,11,6,204,9,,,,,,,,,main,1,1,2,negative,negative,j,j,1,0.8983030999952462,552.4317215999981,553.4308652999971,553.4308652999971,None,552.4317215999981,None,552.4317215999981,None,552.4317215999981,None,554.3282473599945,None,554.3282473599945,None,554.3282473599945,None,,,,,,,,,,,,,,110,2023-04-17_10h20.15.597,Main,2022.1.1,59.15535616310078,
positive,negative,1,l,j,,,,,,,,,11,7,205,5,,,,,,,,,main,2,2,1,negative,positive,l,l,1,1.3817183999999543,554.3317726999958,555.3474400999985,555.3308281999998,None,554.3317726999958,None,554.3317726999958,None,554.3317726999958,None,556.7113918599978,None,556.7113918599978,None,556.7113918599978,None,,,,,,,,,,,,,,110,2023-04-17_10h20.15.597,Main,2022.1.1,59.15535616310078,
neutral,negative,1,k,k,,,,,,,,,11,8,206,7,,,,,,,,,main,2,2,1,negative,neutral,k,k,1,0.7828707000007853,556.711513299997,557.7116004999989,557.7116004999989,None,556.711513299997,None,556.711513299997,None,556.711513299997,None,558.4948159599996,None,558.4948159599996,None,558.4948159599996,None,,,,,,,,,,,,,,110,2023-04-17_10h20.15.597,Main,2022.1.1,59.15535616310078,
neutral,positive,2,k,k,,,,,,,,,11,9,207,13,,,,,,,,,main,2,2,2,positive,neutral,k,k,1,0.26657069999782834,558.5013366999992,559.5140227000011,559.497469199996,None,558.5013366999992,None,558.5013366999992,None,558.5013366999992,None,559.7640685599952,None,559.7640685599952,None,559.7640685599952,None,,,,,,,,,,,,,,110,2023-04-17_10h20.15.597,Main,2022.1.1,59.15535616310078,
negative,neutral,2,j,l,,,,,,,,,11,10,208,12,,,,,,,,,main,2,2,2,neutral,negative,j,j,1,1.2314208999960101,559.7674847000017,560.7807049999974,560.7640647000007,None,559.7674847000017,None,559.7674847000017,None,559.7674847000017,None,561.9971726599949,None,561.9971726599949,None,561.9971726599949,None,,,,,,,,,,,,,,110,2023-04-17_10h20.15.597,Main,2022.1.1,59.15535616310078,
neutral,neutral,1,k,k,,,,,,,,,11,11,209,1,,,,,,,,,main,1,1,1,neutral,neutral,k,k,1,0.815061200002674,562.0003643999953,563.014033499996,562.9973107999976,None,562.0003643999953,None,562.0003643999953,None,562.0003643999953,None,563.8138596600008,None,563.8138596600008,None,563.8138596600008,None,,,,,,,,,,,,,,110,2023-04-17_10h20.15.597,Main,2022.1.1,59.15535616310078,
negative,positive,1,j,l,,,,,,,,,11,12,210,6,,,,,,,,,main,2,2,1,positive,negative,j,j,1,1.2316389000043273,563.8174967999948,564.8305752000015,564.8140004000015,None,563.8174967999948,None,563.8174967999948,None,563.8174967999948,None,566.0471935599969,None,566.0471935599969,None,566.0471935599969,None,,,,,,,,,,,,,,110,2023-04-17_10h20.15.597,Main,2022.1.1,59.15535616310078,
negative,negative,1,j,l,,,,,,,,,11,13,211,0,,,,,,,,,main,1,1,1,negative,negative,j,j,1,0.8959996999983559,566.050101199995,567.0604138999988,567.0436828999955,None,566.050101199995,None,566.050101199995,None,566.050101199995,None,567.9445150599975,None,567.9445150599975,None,567.9445150599975,None,,,,,,,,,,,,,,110,2023-04-17_10h20.15.597,Main,2022.1.1,59.15535616310078,
negative,neutral,1,j,l,,,,,,,,,11,14,212,3,,,,,,,,,main,2,2,1,neutral,negative,j,j,1,0.7488920999967377,567.9446530999994,568.944708899995,568.944708899995,None,567.9446530999994,None,567.9446530999994,None,567.9446530999994,None,569.6949331600015,None,569.6949331600015,None,569.6949331600015,None,,,,,,,,,,,,,,110,2023-04-17_10h20.15.597,Main,2022.1.1,59.15535616310078,
positive,neutral,2,l,j,,,,,,,,,11,15,213,17,,,,,,,,,main,1,1,2,neutral,positive,l,l,1,0.765010600000096,569.6986136999985,570.713782400002,570.6972081999993,None,569.6986136999985,None,569.6986136999985,None,569.6986136999985,None,571.4615662600015,None,571.4615662600015,None,571.4615662600015,None,,,,,,,,,,,,,,110,2023-04-17_10h20.15.597,Main,2022.1.1,59.15535616310078,
positive,neutral,1,l,j,,,,,,,,,11,16,214,8,,,,,,,,,main,2,2,1,neutral,positive,l,l,1,0.7319963999980246,571.4670700999995,572.480364199997,572.4638102999961,None,571.4670700999995,None,571.4670700999995,None,571.4670700999995,None,573.194925059998,None,573.194925059998,None,573.194925059998,None,,,,,,,,,,,,,,110,2023-04-17_10h20.15.597,Main,2022.1.1,59.15535616310078,
positive,positive,2,l,j,,,,,,,,,11,17,215,11,,,,,,,,,main,1,1,2,positive,positive,l,l,1,0.7649093999934848,573.2006134999974,574.2137121999986,574.1971082999953,None,573.2006134999974,None,573.2006134999974,None,573.2006134999974,None,574.9614362600012,None,574.9614362600012,None,574.9614362600012,None,,,,,,,,,,,,,,110,2023-04-17_10h20.15.597,Main,2022.1.1,59.15535616310078,
neutral,negative,2,k,k,,,,,,,,,12,0,216,16,,,,,,,,,main,2,2,2,negative,neutral,k,k,1,0.8507059999974445,574.9671422999963,575.9804049999948,575.9637218999997,None,574.9671422999963,None,574.9671422999963,None,574.9671422999963,None,576.8136217600011,None,576.8136217600011,None,576.8136217600011,None,,,,,,,,,,,,,,110,2023-04-17_10h20.15.597,Main,2022.1.1,59.15535616310078,
negative,negative,2,j,l,,,,,,,,,12,1,217,9,,,,,,,,,main,2,2,2,negative,negative,j,j,1,0.7949752999993507,576.8176898999955,577.8278196999963,577.8111491999953,None,576.8176898999955,None,576.8176898999955,None,576.8176898999955,None,578.6110186599951,None,578.6110186599951,None,578.6110186599951,None,,,,,,,,,,,,,,110,2023-04-17_10h20.15.597,Main,2022.1.1,59.15535616310078,
negative,positive,1,j,l,,,,,,,,,12,2,218,6,,,,,,,,,main,1,1,1,positive,negative,j,j,1,1.6010491999986698,578.6110917999977,579.6111602000019,579.6111602000019,None,578.6110917999977,None,578.6110917999977,None,578.6110917999977,None,581.2135966999995,None,581.2135966999995,None,581.2135966999995,None,,,,,,,,,,,,,,110,2023-04-17_10h20.15.597,Main,2022.1.1,59.15535616310078,
positive,positive,1,l,j,,,,,,,,,12,3,219,2,,,,,,,,,main,2,2,1,positive,positive,l,l,1,1.167702200000349,582.212380500001,583.2135076999984,583.1969582999955,None,582.212380500001,None,582.212380500001,None,582.212380500001,None,584.3776008600005,None,584.3776008600005,None,584.3776008600005,None,,,,,,,,,,,,,,110,2023-04-17_10h20.15.597,Main,2022.1.1,59.15535616310078,
neutral,negative,1,k,k,,,,,,,,,12,4,220,7,,,,,,,,,main,2,2,1,negative,neutral,k,k,1,1.181638699999894,584.3835125999976,585.3968330999996,585.380229800001,None,584.3835125999976,None,584.3835125999976,None,584.3835125999976,None,586.5612168599953,None,586.5612168599953,None,586.5612168599953,None,,,,,,,,,,,,,,110,2023-04-17_10h20.15.597,Main,2022.1.1,59.15535616310078,
negative,positive,2,j,l,,,,,,,,,12,5,221,15,,,,,,,,,main,1,1,2,positive,negative,j,j,1,1.0812525000001187,586.566943699996,587.5753083000018,587.5599143,None,586.566943699996,None,586.566943699996,None,586.566943699996,None,588.6440704599997,None,588.6440704599997,None,588.6440704599997,None,,,,,,,,,,,,,,110,2023-04-17_10h20.15.597,Main,2022.1.1,59.15535616310078,
positive,positive,2,l,j,,,,,,,,,12,6,222,11,,,,,,,,,main,2,2,2,positive,positive,l,l,1,1.3013085999991745,588.645820699996,589.6609020999967,589.6442351000005,None,588.645820699996,None,588.645820699996,None,588.645820699996,None,590.9466257599968,None,590.9466257599968,None,590.9466257599968,None,,,,,,,,,,,,,,110,2023-04-17_10h20.15.597,Main,2022.1.1,59.15535616310078,
positive,negative,2,l,j,,,,,,,,,12,7,223,14,,,,,,,,,main,1,1,2,negative,positive,l,l,1,0.6983804999981658,590.9505732999969,591.963384900002,591.9467657999994,None,590.9505732999969,None,590.9505732999969,None,590.9505732999969,None,592.6466913599986,None,592.6466913599986,None,592.6466913599986,None,,,,,,,,,,,,,,110,2023-04-17_10h20.15.597,Main,2022.1.1,59.15535616310078,
neutral,neutral,1,k,k,,,,,,,,,12,8,224,1,,,,,,,,,main,1,1,1,neutral,neutral,k,k,1,0.030511100005242042,592.6507519000006,593.6611807000008,593.6466864999966,None,592.6507519000006,None,592.6507519000006,None,592.6507519000006,None,593.6778761999958,None,593.6778761999958,None,593.6778761999958,None,,,,,,,,,,,,,,110,2023-04-17_10h20.15.597,Main,2022.1.1,59.15535616310078,
