target,distractor,set,ans1,ans2,rep_loop2.thisRepN,rep_loop2.thisTrialN,rep_loop2.thisN,rep_loop2.thisIndex,flanker_prac_loop.thisRepN,flanker_prac_loop.thisTrialN,flanker_prac_loop.thisN,flanker_prac_loop.thisIndex,flanker_main_loop.thisRepN,flanker_main_loop.thisTrialN,flanker_main_loop.thisN,flanker_main_loop.thisIndex,fl_inst_resp.keys,fl_inst_resp.rt,sound_1.started,sound_1.stopped,image_4.started,image_4.stopped,back_2.started,back_2.stopped,main_prac,fl_cold,fl_colt,fl_set,fl_dcond,fl_tcond,fl_ans,fl_res,fl_corr,fl_rt,fix_fl.started,fix_fl.stopped,targ.started,targ.stopped,j_button.started,j_button.stopped,k_button.started,k_button.stopped,l_button.started,l_button.stopped,j_button2.started,j_button2.stopped,k_button2.started,k_button2.stopped,l_button2.started,l_button2.stopped,mainback.started,mainback.stopped,key_resp.keys,key_resp.rt,mouse_6.x,mouse_6.y,mouse_6.leftButton,mouse_6.midButton,mouse_6.rightButton,mouse_6.started,mouse_6.stopped,text_2.started,text_2.stopped,id*,date,expName,psychopyVersion,frameRate,
,,,,,0,0,0,0,,,,,,,,,space,19.82349089998752,29.57765007991111,None,49.427167799905874,None,,,,,,,,,,,,,,,,,,,,,,,,,,,,,,,,,,,,,,,,,,111,2023-04-24_17h16.09.516,Main,2022.1.1,59.824606248906825,
,,,,,1,0,1,0,,,,,,,,,space,0.538891600095667,53.4137570799212,None,53.97470679995604,None,,,,,,,,,,,,,,,,,,,,,,,,,,,,,,,,,,,,,,,,,,111,2023-04-24_17h16.09.516,Main,2022.1.1,59.824606248906825,
negative,negative,1,j,l,,,,,0,0,0,0,,,,,,,,,,,56.87716119992547,None,prac,1,1,1,negative,negative,l,l,1,1.129491199972108,58.89927919988986,59.910566599923186,59.8939045999432,None,58.89927919988986,None,58.89927919988986,None,58.89927919988986,None,61.02545347990235,None,61.02545347990235,None,61.02545347990235,None,,,,,,,,,,,,,,111,2023-04-24_17h16.09.516,Main,2022.1.1,59.824606248906825,
negative,negative,2,j,l,,,,,0,1,1,9,,,,,,,,,,,,,prac,1,1,2,negative,negative,l,l,1,0.7824126000050455,61.03172819991596,62.04369549988769,62.02491219993681,None,61.03172819991596,None,61.03172819991596,None,61.03172819991596,None,62.81034797994653,None,62.81034797994653,None,62.81034797994653,None,,,,,,,,,,,,,,111,2023-04-24_17h16.09.516,Main,2022.1.1,59.824606248906825,
negative,neutral,2,j,l,,,,,0,2,2,12,,,,,,,,,,,,,prac,1,1,2,neutral,negative,l,l,1,0.6786523000337183,62.81452069990337,63.827007599989884,63.81036389991641,None,62.81452069990337,None,62.81452069990337,None,62.81452069990337,None,64.4911480799201,None,64.4911480799201,None,64.4911480799201,None,,,,,,,,,,,,,,111,2023-04-24_17h16.09.516,Main,2022.1.1,59.824606248906825,
neutral,negative,1,k,k,,,,,0,3,3,7,,,,,,,,,,,,,prac,2,2,1,negative,neutral,k,k,1,0.7990051000379026,64.49139449989889,65.49118419992737,65.49118419992737,None,64.49139449989889,None,64.49139449989889,None,64.49139449989889,None,66.29113277996657,None,66.29113277996657,None,66.29113277996657,None,,,,,,,,,,,,,,111,2023-04-24_17h16.09.516,Main,2022.1.1,59.824606248906825,
positive,negative,2,l,j,,,,,0,4,4,14,,,,,,,,,,,,,prac,1,1,2,negative,positive,j,j,1,0.7146069000009447,66.29760799999349,67.30797159997746,67.29379339993466,None,66.29760799999349,None,66.29760799999349,None,66.29760799999349,None,68.00811917992542,None,68.00811917992542,None,68.00811917992542,None,,,,,,,,,,,,,,111,2023-04-24_17h16.09.516,Main,2022.1.1,59.824606248906825,
positive,neutral,2,l,j,,,,,0,5,5,17,,,,,,,,,,,,,prac,2,2,2,neutral,positive,j,j,1,0.6318032999988645,68.01286069990601,69.02689499990083,69.0081350998953,None,68.01286069990601,None,68.01286069990601,None,68.01286069990601,None,69.64120587991783,None,69.64120587991783,None,69.64120587991783,None,,,,,,,,,,,,,,111,2023-04-24_17h16.09.516,Main,2022.1.1,59.824606248906825,
negative,neutral,1,j,l,,,,,0,6,6,3,,,,,,,,,,,,,prac,1,1,1,neutral,negative,l,l,1,0.831679999944754,69.64804020000156,70.66022909991443,70.64357169996947,None,69.64804020000156,None,69.64804020000156,None,69.64804020000156,None,71.47435727989068,None,71.47435727989068,None,71.47435727989068,None,,,,,,,,,,,,,,111,2023-04-24_17h16.09.516,Main,2022.1.1,59.824606248906825,
neutral,neutral,2,k,k,,,,,0,7,7,10,,,,,,,,,,,,,prac,2,2,2,neutral,neutral,k,k,1,0.7012294000014663,71.48093839990906,72.49344150000252,72.47471909993328,None,71.48093839990906,None,71.48093839990906,None,71.48093839990906,None,73.17704427993158,None,73.17704427993158,None,73.17704427993158,None,,,,,,,,,,,,,,111,2023-04-24_17h16.09.516,Main,2022.1.1,59.824606248906825,
positive,positive,1,l,j,,,,,0,8,8,2,,,,,,,,,,,,,prac,2,2,1,positive,positive,j,j,1,0.8795581000158563,73.18088809994515,74.19132230000105,74.17689519992564,None,73.18088809994515,None,73.18088809994515,None,73.18088809994515,None,75.05783767992398,None,75.05783767992398,None,75.05783767992398,None,,,,,,,,,,,,,,111,2023-04-24_17h16.09.516,Main,2022.1.1,59.824606248906825,
neutral,negative,2,k,k,,,,,0,9,9,16,,,,,,,,,,,,,prac,1,1,2,negative,neutral,k,k,1,0.7487030000193045,75.06281729997136,76.07452369993553,76.06001029990148,None,75.06281729997136,None,75.06281729997136,None,75.06281729997136,None,76.80779947998235,None,76.80779947998235,None,76.80779947998235,None,,,,,,,,,,,,,,111,2023-04-24_17h16.09.516,Main,2022.1.1,59.824606248906825,
positive,neutral,1,l,j,,,,,0,10,10,8,,,,,,,,,,,,,prac,2,2,1,neutral,positive,j,j,1,0.7321777000324801,76.813095599995,77.82450479990803,77.81003179994877,None,76.813095599995,None,76.813095599995,None,76.813095599995,None,78.54110947990557,None,78.54110947990557,None,78.54110947990557,None,,,,,,,,,,,,,,111,2023-04-24_17h16.09.516,Main,2022.1.1,59.824606248906825,
positive,negative,1,l,j,,,,,0,11,11,5,,,,,,,,,,,,,prac,2,2,1,negative,positive,j,j,1,0.6654614000581205,78.54663519992027,79.5598345999606,79.54324809997343,None,78.54663519992027,None,78.54663519992027,None,78.54663519992027,None,80.20789287990192,None,80.20789287990192,None,80.20789287990192,None,,,,,,,,,,,,,,111,2023-04-24_17h16.09.516,Main,2022.1.1,59.824606248906825,
positive,positive,2,l,j,,,,,0,12,12,11,,,,,,,,,,,,,prac,2,2,2,positive,positive,j,j,1,0.7984625000972301,80.2137112999335,81.2265311999945,81.20992909988854,None,80.2137112999335,None,80.2137112999335,None,80.2137112999335,None,82.00772457994753,None,82.00772457994753,None,82.00772457994753,None,,,,,,,,,,,,,,111,2023-04-24_17h16.09.516,Main,2022.1.1,59.824606248906825,
neutral,neutral,1,k,k,,,,,0,13,13,1,,,,,,,,,,,,,prac,1,1,1,neutral,neutral,k,k,1,0.6984791000140831,82.01355689996853,83.0265646999469,83.00988809997216,None,82.01355689996853,None,82.01355689996853,None,82.01355689996853,None,83.7077128799283,None,83.7077128799283,None,83.7077128799283,None,,,,,,,,,,,,,,111,2023-04-24_17h16.09.516,Main,2022.1.1,59.824606248906825,
negative,positive,2,j,l,,,,,0,14,14,15,,,,,,,,,,,,,prac,2,2,2,positive,negative,l,l,1,0.8321871999651194,83.71344009996392,84.72443129995372,84.70773839997128,None,83.71344009996392,None,83.71344009996392,None,83.71344009996392,None,85.54102917999262,None,85.54102917999262,None,85.54102917999262,None,,,,,,,,,,,,,,111,2023-04-24_17h16.09.516,Main,2022.1.1,59.824606248906825,
negative,positive,1,j,l,,,,,0,15,15,6,,,,,,,,,,,,,prac,1,1,1,positive,negative,l,l,1,0.6815606999443844,85.54690259997733,86.5569846999133,86.53992499993183,None,85.54690259997733,None,85.54690259997733,None,85.54690259997733,None,87.22398787998827,None,87.22398787998827,None,87.22398787998827,None,,,,,,,,,,,,,,111,2023-04-24_17h16.09.516,Main,2022.1.1,59.824606248906825,
neutral,positive,2,k,k,,,,,0,16,16,13,,,,,,,,,,,,,prac,2,2,2,positive,neutral,k,k,1,0.7322916999692097,87.22399499989115,88.22404289990664,88.22404289990664,None,87.22399499989115,None,87.22399499989115,None,87.22399499989115,None,88.95733407995431,None,88.95733407995431,None,88.95733407995431,None,,,,,,,,,,,,,,111,2023-04-24_17h16.09.516,Main,2022.1.1,59.824606248906825,
neutral,positive,1,k,k,,,,,0,17,17,4,,,,,,,,,,,,,prac,1,1,1,positive,neutral,k,k,1,0.6336041999747977,88.95961009990424,89.97400639997795,89.9573465998983,None,88.95961009990424,None,88.95961009990424,None,88.95961009990424,None,90.59213337994879,None,90.59213337994879,None,90.59213337994879,None,,,,,,,,,,,,,,111,2023-04-24_17h16.09.516,Main,2022.1.1,59.824606248906825,
neutral,neutral,2,k,k,,,,,1,0,18,10,,,,,,,,,,,,,prac,2,2,2,neutral,neutral,k,k,1,0.7474046000279486,90.59423319995403,91.60983229998965,91.59321969992016,None,90.59423319995403,None,90.59423319995403,None,90.59423319995403,None,92.34099687990965,None,92.34099687990965,None,92.34099687990965,None,,,,,,,,,,,,,,111,2023-04-24_17h16.09.516,Main,2022.1.1,59.824606248906825,
neutral,positive,1,k,k,,,,,1,1,19,4,,,,,,,,,,,,,prac,2,2,1,positive,neutral,k,k,1,0.6346906999824569,92.34657339996193,93.35773649998009,93.3431592999259,None,92.34657339996193,None,92.34657339996193,None,92.34657339996193,None,93.97679917997448,None,93.97679917997448,None,93.97679917997448,None,,,,,,,,,,,,,,111,2023-04-24_17h16.09.516,Main,2022.1.1,59.824606248906825,
negative,positive,2,j,l,,,,,1,2,20,15,,,,,,,,,,,,,prac,1,1,2,positive,negative,l,l,1,0.7294846998993307,93.9813628999982,94.99317379994318,94.9763893999625,None,93.9813628999982,None,93.9813628999982,None,93.9813628999982,None,95.70760917995358,None,95.70760917995358,None,95.70760917995358,None,,,,,,,,,,,,,,111,2023-04-24_17h16.09.516,Main,2022.1.1,59.824606248906825,
neutral,negative,1,k,k,,,,,1,3,21,7,,,,,,,,,,,,,prac,2,2,1,negative,neutral,k,k,1,0.6486240000231192,95.71388709999155,96.72636639990378,96.7075737999985,None,95.71388709999155,None,95.71388709999155,None,95.71388709999155,None,97.35752777993912,None,97.35752777993912,None,97.35752777993912,None,,,,,,,,,,,,,,111,2023-04-24_17h16.09.516,Main,2022.1.1,59.824606248906825,
negative,neutral,1,j,l,,,,,1,4,22,3,,,,,,,,,,,,,prac,2,2,1,neutral,negative,l,l,1,0.7486460000509396,97.36341279989574,98.37427879997995,98.35977549990639,None,97.36341279989574,None,97.36341279989574,None,97.36341279989574,None,99.1074535799562,None,99.1074535799562,None,99.1074535799562,None,,,,,,,,,,,,,,111,2023-04-24_17h16.09.516,Main,2022.1.1,59.824606248906825,
negative,positive,1,j,l,,,,,1,5,23,6,,,,,,,,,,,,,prac,2,2,1,positive,negative,l,l,1,0.6647655999986455,99.1156855999725,100.12379979994148,100.10706069995649,None,99.1156855999725,None,99.1156855999725,None,99.1156855999725,None,100.77372417988954,None,100.77372417988954,None,100.77372417988954,None,,,,,,,,,,,,,,111,2023-04-24_17h16.09.516,Main,2022.1.1,59.824606248906825,
positive,negative,1,l,j,,,,,1,6,24,5,,,,,,,,,,,,,prac,1,1,1,negative,positive,j,j,1,0.7992542999563739,100.77372729999479,101.77378409996163,101.77378409996163,None,100.77372729999479,None,100.77372729999479,None,100.77372729999479,None,102.57407247991068,None,102.57407247991068,None,102.57407247991068,None,,,,,,,,,,,,,,111,2023-04-24_17h16.09.516,Main,2022.1.1,59.824606248906825,
positive,neutral,2,l,j,,,,,1,7,25,17,,,,,,,,,,,,,prac,2,2,2,neutral,positive,j,j,1,0.767313800053671,102.58009849989321,103.59073359996546,103.57644149998669,None,102.58009849989321,None,102.58009849989321,None,102.58009849989321,None,104.34292027988704,None,104.34292027988704,None,104.34292027988704,None,,,,,,,,,,,,,,111,2023-04-24_17h16.09.516,Main,2022.1.1,59.824606248906825,
positive,negative,2,l,j,,,,,1,8,26,14,,,,,,,,,,,,,prac,1,1,2,negative,positive,j,j,1,0.7131612000521272,104.34591679996811,105.35959789995104,105.3429155999329,None,104.34591679996811,None,104.34591679996811,None,104.34591679996811,None,106.05743857991183,None,106.05743857991183,None,106.05743857991183,None,,,,,,,,,,,,,,111,2023-04-24_17h16.09.516,Main,2022.1.1,59.824606248906825,
neutral,negative,2,k,k,,,,,1,9,27,16,,,,,,,,,,,,,prac,1,1,2,negative,neutral,k,k,1,0.6988466000184417,106.0627894999925,107.07403249992058,107.05960019992199,None,106.0627894999925,None,106.0627894999925,None,106.0627894999925,None,107.75732887996128,None,107.75732887996128,None,107.75732887996128,None,,,,,,,,,,,,,,111,2023-04-24_17h16.09.516,Main,2022.1.1,59.824606248906825,
neutral,neutral,1,k,k,,,,,1,10,28,1,,,,,,,,,,,,,prac,2,2,1,neutral,neutral,k,k,1,0.7278327000094578,107.7610493999673,108.77609529998153,108.75950019992888,None,107.7610493999673,None,107.7610493999673,None,107.7610493999673,None,109.48661107994849,None,109.48661107994849,None,109.48661107994849,None,,,,,,,,,,,,,,111,2023-04-24_17h16.09.516,Main,2022.1.1,59.824606248906825,
positive,positive,1,l,j,,,,,1,11,29,2,,,,,,,,,,,,,prac,2,2,1,positive,positive,j,j,1,0.7523472999455407,109.50253469997551,110.50715629989281,110.47380979999434,None,109.50253469997551,None,109.50253469997551,None,109.50253469997551,None,111.24040557997068,None,111.24040557997068,None,111.24040557997068,None,,,,,,,,,,,,,,111,2023-04-24_17h16.09.516,Main,2022.1.1,59.824606248906825,
positive,positive,2,l,j,,,,,1,12,30,11,,,,,,,,,,,,,prac,2,2,2,positive,positive,j,j,1,0.6184252999955788,111.24352709995583,112.2405711999163,112.2405711999163,None,111.24352709995583,None,111.24352709995583,None,111.24352709995583,None,112.86017517995788,None,112.86017517995788,None,112.86017517995788,None,,,,,,,,,,,,,,111,2023-04-24_17h16.09.516,Main,2022.1.1,59.824606248906825,
negative,neutral,2,j,l,,,,,1,13,31,12,,,,,,,,,,,,,prac,1,1,2,neutral,negative,l,l,1,0.7458724000025541,112.86359009996522,113.87375429994427,113.85710249992553,None,112.86359009996522,None,112.86359009996522,None,112.86359009996522,None,114.60704147996148,None,114.60704147996148,None,114.60704147996148,None,,,,,,,,,,,,,,111,2023-04-24_17h16.09.516,Main,2022.1.1,59.824606248906825,
positive,neutral,1,l,j,,,,,1,14,32,8,,,,,,,,,,,,,prac,1,1,1,neutral,positive,j,j,1,0.731936699943617,114.61221379996277,115.62375359993894,115.60707849997561,None,114.61221379996277,None,114.61221379996277,None,114.61221379996277,None,116.34034227993106,None,116.34034227993106,None,116.34034227993106,None,,,,,,,,,,,,,,111,2023-04-24_17h16.09.516,Main,2022.1.1,59.824606248906825,
negative,negative,1,j,l,,,,,1,15,33,0,,,,,,,,,,,,,prac,2,2,1,negative,negative,l,l,1,0.6833333999384195,116.34344619989861,117.35705169988796,117.34037439990789,None,116.34344619989861,None,116.34344619989861,None,116.34344619989861,None,118.0236730799661,None,118.0236730799661,None,118.0236730799661,None,,,,,,,,,,,,,,111,2023-04-24_17h16.09.516,Main,2022.1.1,59.824606248906825,
neutral,positive,2,k,k,,,,,1,16,34,13,,,,,,,,,,,,,prac,1,1,2,positive,neutral,k,k,1,0.6478552999906242,118.02972589991987,119.04045559989754,119.02582589990925,None,118.02972589991987,None,118.02972589991987,None,118.02972589991987,None,119.6737472799723,None,119.6737472799723,None,119.6737472799723,None,,,,,,,,,,,,,,111,2023-04-24_17h16.09.516,Main,2022.1.1,59.824606248906825,
negative,negative,2,j,l,,,,,1,17,35,9,,,,,,,,,,,,,prac,2,2,2,negative,negative,l,l,1,0.6817556999158114,119.67935469991062,120.69034259999171,120.6758184999926,None,119.67935469991062,None,119.67935469991062,None,119.67935469991062,None,121.35695637989556,None,121.35695637989556,None,121.35695637989556,None,,,,,,,,,,,,,,111,2023-04-24_17h16.09.516,Main,2022.1.1,59.824606248906825,
,,,,,,,,,,,,,,,,,,,,,,,,,,,,,,,,,,,,,,,,,,,,,,,,,,,121.35701039992273,None,space,3.988133400096558,,,,,,,,,,111,2023-04-24_17h16.09.516,Main,2022.1.1,59.824606248906825,
,,,,,,,,,,,,,,,,,,,,,,,,,,,,,,,,,,,,,,,,,,,,,,,,,,,,,,,0.087037034,-0.053703703,0,0,0,0.010888179764151573,None,,,111,2023-04-24_17h16.09.516,Main,2022.1.1,59.824606248906825,
negative,neutral,2,j,l,,,,,,,,,0,0,0,12,,,,,,,125.37578679993749,None,main,2,2,2,neutral,negative,l,l,1,0.7596975000342354,127.38228459993843,128.39238340000156,128.37576369999442,None,127.38228459993843,None,127.38228459993843,None,127.38228459993843,None,129.13986477995059,None,129.13986477995059,None,129.13986477995059,None,,,,,,,,,,,,,,111,2023-04-24_17h16.09.516,Main,2022.1.1,59.824606248906825,
positive,positive,1,l,j,,,,,,,,,0,1,1,2,,,,,,,,,main,1,1,1,positive,positive,j,j,1,0.6643246000166982,129.14635359996464,130.15913259994704,130.142382799997,None,129.14635359996464,None,129.14635359996464,None,129.14635359996464,None,130.80686487996718,None,130.80686487996718,None,130.80686487996718,None,,,,,,,,,,,,,,111,2023-04-24_17h16.09.516,Main,2022.1.1,59.824606248906825,
neutral,negative,1,k,k,,,,,,,,,0,2,2,7,,,,,,,,,main,1,1,1,negative,neutral,k,k,1,0.7148374000098556,130.81070369994268,131.82207859994378,131.8059290999081,None,130.81070369994268,None,130.81070369994268,None,130.81070369994268,None,132.5230275799404,None,132.5230275799404,None,132.5230275799404,None,,,,,,,,,,,,,,111,2023-04-24_17h16.09.516,Main,2022.1.1,59.824606248906825,
negative,positive,2,j,l,,,,,,,,,0,3,3,15,,,,,,,,,main,2,2,2,positive,negative,l,l,1,0.6982450999785215,132.5244278999744,133.53976479999255,133.52310259989463,None,132.5244278999744,None,132.5244278999744,None,132.5244278999744,None,134.22306227992522,None,134.22306227992522,None,134.22306227992522,None,,,,,,,,,,,,,,111,2023-04-24_17h16.09.516,Main,2022.1.1,59.824606248906825,
neutral,neutral,1,k,k,,,,,,,,,0,4,4,1,,,,,,,,,main,1,1,1,neutral,neutral,k,k,1,0.614938999991864,134.22546249988955,135.2397670999635,135.22311639995314,None,134.22546249988955,None,134.22546249988955,None,134.22546249988955,None,135.8397385799908,None,135.8397385799908,None,135.8397385799908,None,,,,,,,,,,,,,,111,2023-04-24_17h16.09.516,Main,2022.1.1,59.824606248906825,
neutral,negative,2,k,k,,,,,,,,,0,5,5,16,,,,,,,,,main,1,1,2,negative,neutral,k,k,1,0.5984317999100313,135.84169499995187,136.84013059991412,136.84013059991412,None,135.84169499995187,None,135.84169499995187,None,135.84169499995187,None,137.44006557989633,None,137.44006557989633,None,137.44006557989633,None,,,,,,,,,,,,,,111,2023-04-24_17h16.09.516,Main,2022.1.1,59.824606248906825,
neutral,neutral,2,k,k,,,,,,,,,0,6,6,10,,,,,,,,,main,1,1,2,neutral,neutral,k,k,1,0.5482913999585435,137.4457276999019,138.45884389989078,138.44227279990446,None,137.4457276999019,None,137.4457276999019,None,137.4457276999019,None,138.99000957998214,None,138.99000957998214,None,138.99000957998214,None,,,,,,,,,,,,,,111,2023-04-24_17h16.09.516,Main,2022.1.1,59.824606248906825,
positive,neutral,2,l,j,,,,,,,,,0,7,7,17,,,,,,,,,main,2,2,2,neutral,positive,j,j,1,0.5178474000422284,138.99555159988813,140.00884809996933,139.99221319996286,None,138.99555159988813,None,138.99555159988813,None,138.99555159988813,None,140.50913067994406,None,140.50913067994406,None,140.50913067994406,None,,,,,,,,,,,,,,111,2023-04-24_17h16.09.516,Main,2022.1.1,59.824606248906825,
negative,negative,1,j,l,,,,,,,,,0,8,8,0,,,,,,,,,main,2,2,1,negative,negative,l,l,1,0.7148675000062212,140.51344939996488,141.5255059999181,141.5066727999365,None,140.51344939996488,None,140.51344939996488,None,140.51344939996488,None,142.2256156799267,None,142.2256156799267,None,142.2256156799267,None,,,,,,,,,,,,,,111,2023-04-24_17h16.09.516,Main,2022.1.1,59.824606248906825,
positive,negative,2,l,j,,,,,,,,,0,9,9,14,,,,,,,,,main,2,2,2,negative,positive,j,j,1,0.7997804000042379,142.23005389992613,143.24205719993915,143.2253958999645,None,142.23005389992613,None,142.23005389992613,None,142.23005389992613,None,144.0268734798883,None,144.0268734798883,None,144.0268734798883,None,,,,,,,,,,,,,,111,2023-04-24_17h16.09.516,Main,2022.1.1,59.824606248906825,
positive,neutral,1,l,j,,,,,,,,,0,10,10,8,,,,,,,,,main,2,2,1,neutral,positive,j,j,1,0.6950334999710321,144.0303881999571,145.0395012999652,145.0228237999836,None,144.0303881999571,None,144.0303881999571,None,144.0303881999571,None,145.72278697992442,None,145.72278697992442,None,145.72278697992442,None,,,,,,,,,,,,,,111,2023-04-24_17h16.09.516,Main,2022.1.1,59.824606248906825,
positive,positive,2,l,j,,,,,,,,,0,11,11,11,,,,,,,,,main,2,2,2,positive,positive,j,j,1,0.5977535001002252,145.7246302999556,146.7395665999502,146.72290959989186,None,145.7246302999556,None,145.7246302999556,None,145.7246302999556,None,147.3228698799503,None,147.3228698799503,None,147.3228698799503,None,,,,,,,,,,,,,,111,2023-04-24_17h16.09.516,Main,2022.1.1,59.824606248906825,
negative,neutral,1,j,l,,,,,,,,,0,12,12,3,,,,,,,,,main,2,2,1,neutral,negative,l,l,1,0.7190936000552028,147.32663099991623,148.33986509998795,148.32541649998166,None,147.32663099991623,None,147.32663099991623,None,147.32663099991623,None,149.0435367799946,None,149.0435367799946,None,149.0435367799946,None,,,,,,,,,,,,,,111,2023-04-24_17h16.09.516,Main,2022.1.1,59.824606248906825,
negative,positive,1,j,l,,,,,,,,,0,13,13,6,,,,,,,,,main,2,2,1,positive,negative,l,l,1,0.696722500026226,149.04717869998422,150.0585802999558,150.04201859992463,None,149.04717869998422,None,149.04717869998422,None,149.04717869998422,None,150.74182167992694,None,150.74182167992694,None,150.74182167992694,None,,,,,,,,,,,,,,111,2023-04-24_17h16.09.516,Main,2022.1.1,59.824606248906825,
negative,negative,2,j,l,,,,,,,,,0,14,14,9,,,,,,,,,main,2,2,2,negative,negative,l,l,1,0.6128609000006691,150.74587579991203,151.7586271999171,151.74200879991986,None,150.74587579991203,None,150.74587579991203,None,150.74587579991203,None,152.35639787995024,None,152.35639787995024,None,152.35639787995024,None,,,,,,,,,,,,,,111,2023-04-24_17h16.09.516,Main,2022.1.1,59.824606248906825,
neutral,positive,2,k,k,,,,,,,,,0,15,15,13,,,,,,,,,main,2,2,2,positive,neutral,k,k,1,0.5986284000100568,152.36271949997172,153.37528919999022,153.35642460000236,None,152.36271949997172,None,152.36271949997172,None,152.36271949997172,None,153.95632937998744,None,153.95632937998744,None,153.95632937998744,None,,,,,,,,,,,,,,111,2023-04-24_17h16.09.516,Main,2022.1.1,59.824606248906825,
positive,negative,1,l,j,,,,,,,,,0,16,16,5,,,,,,,,,main,1,1,1,negative,positive,j,j,1,0.6145598000148311,153.9622825999977,154.97262979997322,154.9559600999346,None,153.9622825999977,None,153.9622825999977,None,153.9622825999977,None,155.57256537996,None,155.57256537996,None,155.57256537996,None,,,,,,,,,,,,,,111,2023-04-24_17h16.09.516,Main,2022.1.1,59.824606248906825,
neutral,positive,1,k,k,,,,,,,,,0,17,17,4,,,,,,,,,main,2,2,1,positive,neutral,k,k,1,0.680954199982807,155.5738603998907,156.58929509995505,156.57261519995518,None,155.5738603998907,None,155.5738603998907,None,155.5738603998907,None,157.25594577990705,None,157.25594577990705,None,157.25594577990705,None,,,,,,,,,,,,,,111,2023-04-24_17h16.09.516,Main,2022.1.1,59.824606248906825,
positive,positive,2,l,j,,,,,,,,,1,0,18,11,,,,,,,,,main,2,2,2,positive,positive,j,j,1,0.6176909999921918,157.26169649988879,158.27515349991154,158.2585720999632,None,157.26169649988879,None,157.26169649988879,None,157.26169649988879,None,158.87503127992386,None,158.87503127992386,None,158.87503127992386,None,,,,,,,,,,,,,,111,2023-04-24_17h16.09.516,Main,2022.1.1,59.824606248906825,
positive,negative,1,l,j,,,,,,,,,1,1,19,5,,,,,,,,,main,2,2,1,negative,positive,j,j,1,0.6528383000986651,158.87896299990825,159.89169049996417,159.87295659992378,None,158.87896299990825,None,158.87896299990825,None,158.87896299990825,None,160.52739997993922,None,160.52739997993922,None,160.52739997993922,None,,,,,,,,,,,,,,111,2023-04-24_17h16.09.516,Main,2022.1.1,59.824606248906825,
neutral,positive,2,k,k,,,,,,,,,1,2,20,13,,,,,,,,,main,2,2,2,positive,neutral,k,k,1,0.6249480000697076,160.5338436999591,161.54177489993162,161.52517419995274,None,160.5338436999591,None,160.5338436999591,None,160.5338436999591,None,162.15614597994136,None,162.15614597994136,None,162.15614597994136,None,,,,,,,,,,,,,,111,2023-04-24_17h16.09.516,Main,2022.1.1,59.824606248906825,
negative,negative,2,j,l,,,,,,,,,1,3,21,9,,,,,,,,,main,2,2,2,negative,negative,l,l,1,0.6149053999688476,162.16204329999164,163.17495629994664,163.15835589997005,None,162.16204329999164,None,162.16204329999164,None,162.16204329999164,None,163.77280797989806,None,163.77280797989806,None,163.77280797989806,None,,,,,,,,,,,,,,111,2023-04-24_17h16.09.516,Main,2022.1.1,59.824606248906825,
positive,neutral,1,l,j,,,,,,,,,1,4,22,8,,,,,,,,,main,1,1,1,neutral,positive,j,j,1,0.5979617999400944,163.77859119989444,164.79161439999007,164.77502049994655,None,163.77859119989444,None,163.77859119989444,None,163.77859119989444,None,165.3723792799865,None,165.3723792799865,None,165.3723792799865,None,,,,,,,,,,,,,,111,2023-04-24_17h16.09.516,Main,2022.1.1,59.824606248906825,
neutral,neutral,1,k,k,,,,,,,,,1,5,23,1,,,,,,,,,main,2,2,1,neutral,neutral,k,k,1,0.5986080000875518,165.37240459991153,166.37243629992008,166.37243629992008,None,165.37240459991153,None,165.37240459991153,None,165.37240459991153,None,166.97244107996812,None,166.97244107996812,None,166.97244107996812,None,,,,,,,,,,,,,,111,2023-04-24_17h16.09.516,Main,2022.1.1,59.824606248906825,
neutral,neutral,2,k,k,,,,,,,,,1,6,24,10,,,,,,,,,main,1,1,2,neutral,neutral,k,k,1,0.6483316000085324,166.9745573999826,167.98912809998728,167.97245819994714,None,166.9745573999826,None,166.9745573999826,None,166.9745573999826,None,168.62240077991737,None,168.62240077991737,None,168.62240077991737,None,,,,,,,,,,,,,,111,2023-04-24_17h16.09.516,Main,2022.1.1,59.824606248906825,
negative,neutral,2,j,l,,,,,,,,,1,7,25,12,,,,,,,,,main,2,2,2,neutral,negative,l,l,1,0.715644899988547,168.6239593999926,169.63913389993832,169.6224540999392,None,168.6239593999926,None,168.6239593999926,None,168.6239593999926,None,170.33940257999348,None,170.33940257999348,None,170.33940257999348,None,,,,,,,,,,,,,,111,2023-04-24_17h16.09.516,Main,2022.1.1,59.824606248906825,
positive,neutral,2,l,j,,,,,,,,,1,8,26,17,,,,,,,,,main,2,2,2,neutral,positive,j,j,1,0.6834953000070527,170.345611799974,171.3582419999875,171.34169329993892,None,170.345611799974,None,170.345611799974,None,170.345611799974,None,172.0246272798977,None,172.0246272798977,None,172.0246272798977,None,,,,,,,,,,,,,,111,2023-04-24_17h16.09.516,Main,2022.1.1,59.824606248906825,
neutral,negative,1,k,k,,,,,,,,,1,9,27,7,,,,,,,,,main,1,1,1,negative,neutral,k,k,1,0.6152232999447733,172.02948499994818,173.04144399997313,173.0248705999693,None,172.02948499994818,None,172.02948499994818,None,172.02948499994818,None,173.64138857991202,None,173.64138857991202,None,173.64138857991202,None,,,,,,,,,,,,,,111,2023-04-24_17h16.09.516,Main,2022.1.1,59.824606248906825,
negative,neutral,1,j,l,,,,,,,,,1,10,28,3,,,,,,,,,main,2,2,1,neutral,negative,l,l,1,0.6625605000881478,173.64504179998767,174.65797889989335,174.6414846999105,None,173.64504179998767,None,173.64504179998767,None,173.64504179998767,None,175.30559767998056,None,175.30559767998056,None,175.30559767998056,None,,,,,,,,,,,,,,111,2023-04-24_17h16.09.516,Main,2022.1.1,59.824606248906825,
negative,negative,1,j,l,,,,,,,,,1,11,29,0,,,,,,,,,main,1,1,1,negative,negative,l,l,1,0.6654057999840006,175.31163289991673,176.32471759989858,176.30813439993653,None,175.31163289991673,None,175.31163289991673,None,175.31163289991673,None,176.97252627991838,None,176.97252627991838,None,176.97252627991838,None,,,,,,,,,,,,,,111,2023-04-24_17h16.09.516,Main,2022.1.1,59.824606248906825,
neutral,negative,2,k,k,,,,,,,,,1,12,30,16,,,,,,,,,main,2,2,2,negative,neutral,k,k,1,0.64785569999367,176.97821129998192,177.98882669990417,177.97216499992646,None,176.97821129998192,None,176.97821129998192,None,176.97821129998192,None,178.6220858799643,None,178.6220858799643,None,178.6220858799643,None,,,,,,,,,,,,,,111,2023-04-24_17h16.09.516,Main,2022.1.1,59.824606248906825,
neutral,positive,1,k,k,,,,,,,,,1,13,31,4,,,,,,,,,main,1,1,1,positive,neutral,k,k,1,0.6484459000639617,178.62231059989426,179.6222258999478,179.6222258999478,None,178.62231059989426,None,178.62231059989426,None,178.62231059989426,None,180.27216227998724,None,180.27216227998724,None,180.27216227998724,None,,,,,,,,,,,,,,111,2023-04-24_17h16.09.516,Main,2022.1.1,59.824606248906825,
negative,positive,2,j,l,,,,,,,,,1,14,32,15,,,,,,,,,main,2,2,2,positive,negative,l,l,1,0.7814136000815779,180.27645869995467,181.29142069991212,181.27469209989067,None,180.27645869995467,None,180.27645869995467,None,180.27645869995467,None,182.05579967988888,None,182.05579967988888,None,182.05579967988888,None,,,,,,,,,,,,,,111,2023-04-24_17h16.09.516,Main,2022.1.1,59.824606248906825,
positive,negative,2,l,j,,,,,,,,,1,15,33,14,,,,,,,,,main,2,2,2,negative,positive,j,j,1,0.831529299961403,182.06189369992353,183.07466469996143,183.0580868999241,None,182.06189369992353,None,182.06189369992353,None,182.06189369992353,None,183.8890986799379,None,183.8890986799379,None,183.8890986799379,None,,,,,,,,,,,,,,111,2023-04-24_17h16.09.516,Main,2022.1.1,59.824606248906825,
positive,positive,1,l,j,,,,,,,,,1,16,34,2,,,,,,,,,main,2,2,1,positive,positive,j,j,1,0.7985632999334484,183.89275109989103,184.90576469991356,184.89124839997385,None,183.89275109989103,None,183.89275109989103,None,183.89275109989103,None,185.68904087989358,None,185.68904087989358,None,185.68904087989358,None,,,,,,,,,,,,,,111,2023-04-24_17h16.09.516,Main,2022.1.1,59.824606248906825,
negative,positive,1,j,l,,,,,,,,,1,17,35,6,,,,,,,,,main,2,2,1,positive,negative,l,l,1,0.7649678998859599,185.6952306999592,186.705397099955,186.69127309997566,None,185.6952306999592,None,185.6952306999592,None,185.6952306999592,None,187.4556826799526,None,187.4556826799526,None,187.4556826799526,None,,,,,,,,,,,,,,111,2023-04-24_17h16.09.516,Main,2022.1.1,59.824606248906825,
neutral,positive,2,k,k,,,,,,,,,2,0,36,13,,,,,,,,,main,2,2,2,positive,neutral,k,k,1,0.7148071000119671,187.46179909992497,188.4719299999997,188.4552568999352,None,187.46179909992497,None,187.46179909992497,None,187.46179909992497,None,189.17193317989586,None,189.17193317989586,None,189.17193317989586,None,,,,,,,,,,,,,,111,2023-04-24_17h16.09.516,Main,2022.1.1,59.824606248906825,
positive,positive,2,l,j,,,,,,,,,2,1,37,11,,,,,,,,,main,2,2,2,positive,positive,j,j,1,0.6994803999550641,189.17323929991107,190.19105209992267,190.17199799988884,None,189.17323929991107,None,189.17323929991107,None,189.17323929991107,None,190.87194787996123,None,190.87194787996123,None,190.87194787996123,None,,,,,,,,,,,,,,111,2023-04-24_17h16.09.516,Main,2022.1.1,59.824606248906825,
neutral,negative,2,k,k,,,,,,,,,2,2,38,16,,,,,,,,,main,1,1,2,negative,neutral,k,k,1,0.6160639000590891,190.87915939989034,191.89118959999178,191.8744497000007,None,190.87915939989034,None,190.87915939989034,None,190.87915939989034,None,192.49107117991662,None,192.49107117991662,None,192.49107117991662,None,,,,,,,,,,,,,,111,2023-04-24_17h16.09.516,Main,2022.1.1,59.824606248906825,
negative,neutral,2,j,l,,,,,,,,,2,3,39,12,,,,,,,,,main,1,1,2,neutral,negative,l,l,1,0.6968341000610963,192.49419319990557,193.50771349994466,193.491127199959,None,192.49419319990557,None,192.49419319990557,None,192.49419319990557,None,194.18944207992172,None,194.18944207992172,None,194.18944207992172,None,,,,,,,,,,,,,,111,2023-04-24_17h16.09.516,Main,2022.1.1,59.824606248906825,
positive,negative,1,l,j,,,,,,,,,2,4,40,5,,,,,,,,,main,2,2,1,negative,positive,j,j,1,1.1666084999451414,194.1954402999254,195.20770059991628,195.19114609993994,None,194.1954402999254,None,194.1954402999254,None,194.1954402999254,None,196.35763167991536,None,196.35763167991536,None,196.35763167991536,None,,,,,,,,,,,,,,111,2023-04-24_17h16.09.516,Main,2022.1.1,59.824606248906825,
negative,positive,2,j,l,,,,,,,,,2,5,41,15,,,,,,,,,main,2,2,2,positive,negative,l,l,1,0.7129974999697879,196.36123969999608,197.37436849996448,197.35767649998888,None,196.36123969999608,None,196.36123969999608,None,196.36123969999608,None,198.0721415799926,None,198.0721415799926,None,198.0721415799926,None,,,,,,,,,,,,,,111,2023-04-24_17h16.09.516,Main,2022.1.1,59.824606248906825,
negative,neutral,1,j,l,,,,,,,,,2,6,42,3,,,,,,,,,main,1,1,1,neutral,negative,l,l,1,0.6310833999887109,198.07813309994526,199.088392799953,199.07170429988764,None,198.07813309994526,None,198.07813309994526,None,198.07813309994526,None,199.70500407990767,None,199.70500407990767,None,199.70500407990767,None,,,,,,,,,,,,,,111,2023-04-24_17h16.09.516,Main,2022.1.1,59.824606248906825,
negative,positive,1,j,l,,,,,,,,,2,7,43,6,,,,,,,,,main,2,2,1,positive,negative,l,l,1,0.5820129999192432,199.7068591999123,200.72174929990433,200.70508279989008,None,199.7068591999123,None,199.7068591999123,None,199.7068591999123,None,201.28840567992302,None,201.28840567992302,None,201.28840567992302,None,,,,,,,,,,,,,,111,2023-04-24_17h16.09.516,Main,2022.1.1,59.824606248906825,
positive,neutral,1,l,j,,,,,,,,,2,8,44,8,,,,,,,,,main,2,2,1,neutral,positive,j,j,1,0.6506374999880791,201.29454639996402,202.3075622000033,202.29092419997323,None,201.29454639996402,None,201.29454639996402,None,201.29454639996402,None,202.93986837990815,None,202.93986837990815,None,202.93986837990815,None,,,,,,,,,,,,,,111,2023-04-24_17h16.09.516,Main,2022.1.1,59.824606248906825,
positive,neutral,2,l,j,,,,,,,,,2,9,45,17,,,,,,,,,main,2,2,2,neutral,positive,j,j,1,0.5962720999959856,202.94555889989715,203.9576296999585,203.94087359996047,None,202.94555889989715,None,202.94555889989715,None,202.94555889989715,None,204.53875897993566,None,204.53875897993566,None,204.53875897993566,None,,,,,,,,,,,,,,111,2023-04-24_17h16.09.516,Main,2022.1.1,59.824606248906825,
neutral,negative,1,k,k,,,,,,,,,2,10,46,7,,,,,,,,,main,1,1,1,negative,neutral,k,k,1,0.6173326999414712,204.54457399994135,205.55746709997766,205.54089369997382,None,204.54457399994135,None,204.54457399994135,None,204.54457399994135,None,206.15733517991612,None,206.15733517991612,None,206.15733517991612,None,,,,,,,,,,,,,,111,2023-04-24_17h16.09.516,Main,2022.1.1,59.824606248906825,
negative,negative,1,j,l,,,,,,,,,2,11,47,0,,,,,,,,,main,1,1,1,negative,negative,l,l,1,0.7961288000224158,206.16085819993168,207.17406569991726,207.15754789998755,None,206.16085819993168,None,206.16085819993168,None,206.16085819993168,None,207.95523007999873,None,207.95523007999873,None,207.95523007999873,None,,,,,,,,,,,,,,111,2023-04-24_17h16.09.516,Main,2022.1.1,59.824606248906825,
neutral,positive,1,k,k,,,,,,,,,2,12,48,4,,,,,,,,,main,2,2,1,positive,neutral,k,k,1,0.6142404999118298,207.96154229994863,208.97406459995545,208.9575297998963,None,207.96154229994863,None,207.96154229994863,None,207.96154229994863,None,209.57146127993474,None,209.57146127993474,None,209.57146127993474,None,,,,,,,,,,,,,,111,2023-04-24_17h16.09.516,Main,2022.1.1,59.824606248906825,
positive,negative,2,l,j,,,,,,,,,2,13,49,14,,,,,,,,,main,1,1,2,negative,positive,j,j,1,0.6982961000176147,209.57487129990477,210.58820069988724,210.5715579999378,None,209.57487129990477,None,209.57487129990477,None,209.57487129990477,None,211.2715196799836,None,211.2715196799836,None,211.2715196799836,None,,,,,,,,,,,,,,111,2023-04-24_17h16.09.516,Main,2022.1.1,59.824606248906825,
positive,positive,1,l,j,,,,,,,,,2,14,50,2,,,,,,,,,main,2,2,1,positive,positive,j,j,1,0.6489569999976084,211.27478969993535,212.27413179993164,212.27413179993164,None,211.27478969993535,None,211.27478969993535,None,211.27478969993535,None,212.92183197994018,None,212.92183197994018,None,212.92183197994018,None,,,,,,,,,,,,,,111,2023-04-24_17h16.09.516,Main,2022.1.1,59.824606248906825,
neutral,neutral,2,k,k,,,,,,,,,2,15,51,10,,,,,,,,,main,2,2,2,neutral,neutral,k,k,1,0.6315085000824183,212.94062629994005,213.93849569989834,213.9240099999588,None,212.94062629994005,None,212.94062629994005,None,212.94062629994005,None,214.55509297997924,None,214.55509297997924,None,214.55509297997924,None,,,,,,,,,,,,,,111,2023-04-24_17h16.09.516,Main,2022.1.1,59.824606248906825,
neutral,neutral,1,k,k,,,,,,,,,2,16,52,1,,,,,,,,,main,1,1,1,neutral,neutral,k,k,1,0.6175433999160305,214.56087159994058,215.57389779994264,215.55739309999626,None,214.56087159994058,None,214.56087159994058,None,214.56087159994058,None,216.17414247995475,None,216.17414247995475,None,216.17414247995475,None,,,,,,,,,,,,,,111,2023-04-24_17h16.09.516,Main,2022.1.1,59.824606248906825,
negative,negative,2,j,l,,,,,,,,,2,17,53,9,,,,,,,,,main,1,1,2,negative,negative,l,l,1,0.5822343999752775,216.17786999989767,217.19064999988768,217.1740301999962,None,216.17786999989767,None,216.17786999989767,None,216.17786999989767,None,217.75716367998393,None,217.75716367998393,None,217.75716367998393,None,,,,,,,,,,,,,,111,2023-04-24_17h16.09.516,Main,2022.1.1,59.824606248906825,
negative,negative,1,j,l,,,,,,,,,3,0,54,0,,,,,,,,,main,2,2,1,negative,negative,l,l,1,0.6707721999846399,217.76154499989934,218.7717531999806,218.7572636998957,None,217.76154499989934,None,217.76154499989934,None,217.76154499989934,None,219.43041527998867,None,219.43041527998867,None,219.43041527998867,None,,,,,,,,,,,,,,111,2023-04-24_17h16.09.516,Main,2022.1.1,59.824606248906825,
neutral,negative,2,k,k,,,,,,,,,3,1,55,16,,,,,,,,,main,2,2,2,negative,neutral,k,k,1,0.7392317999619991,219.44636129995342,220.45699279999826,220.42368809995241,None,219.44636129995342,None,219.44636129995342,None,219.44636129995342,None,221.17151277995436,None,221.17151277995436,None,221.17151277995436,None,,,,,,,,,,,,,,111,2023-04-24_17h16.09.516,Main,2022.1.1,59.824606248906825,
negative,negative,2,j,l,,,,,,,,,3,2,56,9,,,,,,,,,main,2,2,2,negative,negative,l,l,1,0.7151804000604898,221.17738799995277,222.1881969999522,222.1736469999887,None,221.17738799995277,None,221.17738799995277,None,221.17738799995277,None,222.8883801799384,None,222.8883801799384,None,222.8883801799384,None,,,,,,,,,,,,,,111,2023-04-24_17h16.09.516,Main,2022.1.1,59.824606248906825,
negative,neutral,2,j,l,,,,,,,,,3,3,57,12,,,,,,,,,main,2,2,2,neutral,negative,l,l,1,0.6818367999512702,222.8943578999024,223.9048641999252,223.89028209995013,None,222.8943578999024,None,222.8943578999024,None,222.8943578999024,None,224.57147187989904,None,224.57147187989904,None,224.57147187989904,None,,,,,,,,,,,,,,111,2023-04-24_17h16.09.516,Main,2022.1.1,59.824606248906825,
negative,positive,1,j,l,,,,,,,,,3,4,58,6,,,,,,,,,main,2,2,1,positive,negative,l,l,1,0.6335951000219211,224.57703039993066,225.58813839999493,225.5714984999504,None,224.57703039993066,None,224.57703039993066,None,224.57703039993066,None,226.20455467997817,None,226.20455467997817,None,226.20455467997817,None,,,,,,,,,,,,,,111,2023-04-24_17h16.09.516,Main,2022.1.1,59.824606248906825,
neutral,positive,2,k,k,,,,,,,,,3,5,59,13,,,,,,,,,main,1,1,2,positive,neutral,k,k,1,0.6798826999729499,226.20997589989565,227.22149009990972,227.20483069994953,None,226.20997589989565,None,226.20997589989565,None,226.20997589989565,None,227.88809827988734,None,227.88809827988734,None,227.88809827988734,None,,,,,,,,,,,,,,111,2023-04-24_17h16.09.516,Main,2022.1.1,59.824606248906825,
neutral,negative,1,k,k,,,,,,,,,3,6,60,7,,,,,,,,,main,2,2,1,negative,neutral,k,k,1,0.700477399979718,227.89208269992378,228.90482850000262,228.8902818999486,None,227.89208269992378,None,227.89208269992378,None,227.89208269992378,None,229.59014057990862,None,229.59014057990862,None,229.59014057990862,None,,,,,,,,,,,,,,111,2023-04-24_17h16.09.516,Main,2022.1.1,59.824606248906825,
positive,positive,1,l,j,,,,,,,,,3,7,61,2,,,,,,,,,main,2,2,1,positive,positive,j,j,1,0.7461504999082536,229.59458889998496,230.6041191999102,230.6041191999102,None,229.59458889998496,None,229.59458889998496,None,229.59458889998496,None,231.33768797997618,None,231.33768797997618,None,231.33768797997618,None,,,,,,,,,,,,,,111,2023-04-24_17h16.09.516,Main,2022.1.1,59.824606248906825,
negative,positive,2,j,l,,,,,,,,,3,8,62,15,,,,,,,,,main,2,2,2,positive,negative,l,l,1,0.7474398000631481,231.33913769992068,232.3544366999995,232.33775749988854,None,231.33913769992068,None,231.33913769992068,None,231.33913769992068,None,233.08775887993397,None,233.08775887993397,None,233.08775887993397,None,,,,,,,,,,,,,,111,2023-04-24_17h16.09.516,Main,2022.1.1,59.824606248906825,
positive,negative,2,l,j,,,,,,,,,3,9,63,14,,,,,,,,,main,2,2,2,negative,positive,j,j,1,0.648143200087361,233.0934668999398,234.1069359999383,234.0903474999359,None,233.0934668999398,None,233.0934668999398,None,233.0934668999398,None,234.73769967997214,None,234.73769967997214,None,234.73769967997214,None,,,,,,,,,,,,,,111,2023-04-24_17h16.09.516,Main,2022.1.1,59.824606248906825,
negative,neutral,1,j,l,,,,,,,,,3,10,64,3,,,,,,,,,main,2,2,1,neutral,negative,l,l,1,0.7487206000369042,234.74370899994392,235.75681289995555,235.72365089994855,None,234.74370899994392,None,234.74370899994392,None,234.74370899994392,None,236.4879874799517,None,236.4879874799517,None,236.4879874799517,None,,,,,,,,,,,,,,111,2023-04-24_17h16.09.516,Main,2022.1.1,59.824606248906825,
neutral,positive,1,k,k,,,,,,,,,3,11,65,4,,,,,,,,,main,2,2,1,positive,neutral,k,k,1,0.6487922000233084,236.49413329991512,237.50678109994624,237.49026679992676,None,236.49413329991512,None,236.49413329991512,None,236.49413329991512,None,238.13797617988894,None,238.13797617988894,None,238.13797617988894,None,,,,,,,,,,,,,,111,2023-04-24_17h16.09.516,Main,2022.1.1,59.824606248906825,
neutral,neutral,1,k,k,,,,,,,,,3,12,66,1,,,,,,,,,main,1,1,1,neutral,neutral,k,k,1,0.6012684999732301,238.14410399994813,239.1567531999899,239.1401807999937,None,238.14410399994813,None,238.14410399994813,None,238.14410399994813,None,239.74005967989797,None,239.74005967989797,None,239.74005967989797,None,,,,,,,,,,,,,,111,2023-04-24_17h16.09.516,Main,2022.1.1,59.824606248906825,
positive,positive,2,l,j,,,,,,,,,3,13,67,11,,,,,,,,,main,2,2,2,positive,positive,j,j,1,0.6279424000531435,239.75118879997171,240.75420549989212,240.7375456999289,None,239.75118879997171,None,239.75118879997171,None,239.75118879997171,None,241.37083367997548,None,241.37083367997548,None,241.37083367997548,None,,,,,,,,,,,,,,111,2023-04-24_17h16.09.516,Main,2022.1.1,59.824606248906825,
neutral,neutral,2,k,k,,,,,,,,,3,14,68,10,,,,,,,,,main,2,2,2,neutral,neutral,k,k,1,0.7150947999907658,241.37101849995088,242.37089079990983,242.37089079990983,None,241.37101849995088,None,241.37101849995088,None,241.37101849995088,None,243.08752457989613,None,243.08752457989613,None,243.08752457989613,None,,,,,,,,,,,,,,111,2023-04-24_17h16.09.516,Main,2022.1.1,59.824606248906825,
positive,neutral,2,l,j,,,,,,,,,3,15,69,17,,,,,,,,,main,1,1,2,neutral,positive,j,j,1,0.6982921999879181,243.08931789989583,244.10423339996487,244.08758499997202,None,243.08931789989583,None,243.08931789989583,None,243.08931789989583,None,244.78754607989686,None,244.78754607989686,None,244.78754607989686,None,,,,,,,,,,,,,,111,2023-04-24_17h16.09.516,Main,2022.1.1,59.824606248906825,
positive,negative,1,l,j,,,,,,,,,3,16,70,5,,,,,,,,,main,2,2,1,negative,positive,j,j,1,0.6488110999343917,244.7911808999488,245.8066827999428,245.7900105000008,None,244.7911808999488,None,244.7911808999488,None,244.7911808999488,None,246.43782257993007,None,246.43782257993007,None,246.43782257993007,None,,,,,,,,,,,,,,111,2023-04-24_17h16.09.516,Main,2022.1.1,59.824606248906825,
positive,neutral,1,l,j,,,,,,,,,3,17,71,8,,,,,,,,,main,2,2,1,neutral,positive,j,j,1,0.5982628000201657,246.44393149996176,247.45665189996362,247.4400631999597,None,246.44393149996176,None,246.44393149996176,None,246.44393149996176,None,248.03778417996364,None,248.03778417996364,None,248.03778417996364,None,,,,,,,,,,,,,,111,2023-04-24_17h16.09.516,Main,2022.1.1,59.824606248906825,
neutral,neutral,1,k,k,,,,,,,,,4,0,72,1,,,,,,,,,main,2,2,1,neutral,neutral,k,k,1,0.6317178000463173,248.0412530999165,249.05651569995098,249.03999269998167,None,248.0412530999165,None,248.0412530999165,None,248.0412530999165,None,249.6710852799588,None,249.6710852799588,None,249.6710852799588,None,,,,,,,,,,,,,,111,2023-04-24_17h16.09.516,Main,2022.1.1,59.824606248906825,
negative,positive,1,j,l,,,,,,,,,4,1,73,6,,,,,,,,,main,1,1,1,positive,negative,l,l,1,0.7507191000040621,249.68150549998973,250.68979370000307,250.67322769993916,None,249.68150549998973,None,249.68150549998973,None,249.68150549998973,None,251.4232204799191,None,251.4232204799191,None,251.4232204799191,None,,,,,,,,,,,,,,111,2023-04-24_17h16.09.516,Main,2022.1.1,59.824606248906825,
negative,neutral,1,j,l,,,,,,,,,4,2,74,3,,,,,,,,,main,1,1,1,neutral,negative,l,l,1,0.7121618000091985,251.42704449989833,252.4399252999574,252.42320829990786,None,251.42704449989833,None,251.42704449989833,None,251.42704449989833,None,253.1369053798844,None,253.1369053798844,None,253.1369053798844,None,,,,,,,,,,,,,,111,2023-04-24_17h16.09.516,Main,2022.1.1,59.824606248906825,
positive,negative,1,l,j,,,,,,,,,4,3,75,5,,,,,,,,,main,1,1,1,negative,positive,j,j,1,0.8483196999877691,253.15310209989548,254.15395579999313,254.1372824999271,None,253.15310209989548,None,253.15310209989548,None,253.15310209989548,None,254.98721477988875,None,254.98721477988875,None,254.98721477988875,None,,,,,,,,,,,,,,111,2023-04-24_17h16.09.516,Main,2022.1.1,59.824606248906825,
neutral,negative,2,k,k,,,,,,,,,4,4,76,16,,,,,,,,,main,1,1,2,negative,neutral,k,k,1,0.6347268999088556,254.9872524999082,255.9873200999573,255.9873200999573,None,254.9872524999082,None,254.9872524999082,None,254.9872524999082,None,256.623307879956,None,256.623307879956,None,256.623307879956,None,,,,,,,,,,,,,,111,2023-04-24_17h16.09.516,Main,2022.1.1,59.824606248906825,
positive,positive,1,l,j,,,,,,,,,4,5,77,2,,,,,,,,,main,2,2,1,positive,positive,j,j,1,0.6125672999769449,256.62727919989266,257.63973999989685,257.6231351000024,None,256.62727919989266,None,256.62727919989266,None,256.62727919989266,None,258.2375147799612,None,258.2375147799612,None,258.2375147799612,None,,,,,,,,,,,,,,111,2023-04-24_17h16.09.516,Main,2022.1.1,59.824606248906825,
negative,negative,2,j,l,,,,,,,,,4,6,78,9,,,,,,,,,main,2,2,2,negative,negative,l,l,1,0.6484935000771657,258.2415569999721,259.25632619997486,259.23757479991764,None,258.2415569999721,None,258.2415569999721,None,258.2415569999721,None,259.88748067995766,None,259.88748067995766,None,259.88748067995766,None,,,,,,,,,,,,,,111,2023-04-24_17h16.09.516,Main,2022.1.1,59.824606248906825,
positive,neutral,2,l,j,,,,,,,,,4,7,79,17,,,,,,,,,main,1,1,2,neutral,positive,j,j,1,0.6672456000233069,259.89320569997653,260.9063233999768,260.8897956999717,None,259.89320569997653,None,259.89320569997653,None,259.89320569997653,None,261.5562753799022,None,261.5562753799022,None,261.5562753799022,None,,,,,,,,,,,,,,111,2023-04-24_17h16.09.516,Main,2022.1.1,59.824606248906825,
neutral,negative,1,k,k,,,,,,,,,4,8,80,7,,,,,,,,,main,1,1,1,negative,neutral,k,k,1,0.6296935999998823,261.55953229998704,262.57300879992545,262.55642499995884,None,261.55953229998704,None,261.55953229998704,None,261.55953229998704,None,263.18713047989877,None,263.18713047989877,None,263.18713047989877,None,,,,,,,,,,,,,,111,2023-04-24_17h16.09.516,Main,2022.1.1,59.824606248906825,
neutral,neutral,2,k,k,,,,,,,,,4,9,81,10,,,,,,,,,main,2,2,2,neutral,neutral,k,k,1,0.5472287000156939,263.19426809996367,264.20371679996606,264.18708069995046,None,263.19426809996367,None,263.19426809996367,None,263.19426809996367,None,264.7370322798961,None,264.7370322798961,None,264.7370322798961,None,,,,,,,,,,,,,,111,2023-04-24_17h16.09.516,Main,2022.1.1,59.824606248906825,
positive,positive,2,l,j,,,,,,,,,4,10,82,11,,,,,,,,,main,2,2,2,positive,positive,j,j,1,0.648631599964574,264.7372967998963,265.73711629991885,265.73711629991885,None,264.7372967998963,None,264.7372967998963,None,264.7372967998963,None,266.38738937996095,None,266.38738937996095,None,266.38738937996095,None,,,,,,,,,,,,,,111,2023-04-24_17h16.09.516,Main,2022.1.1,59.824606248906825,
positive,negative,2,l,j,,,,,,,,,4,11,83,14,,,,,,,,,main,1,1,2,negative,positive,j,j,1,0.6804017000831664,266.39160509989597,267.4040683999192,267.3896461999975,None,266.39160509989597,None,266.39160509989597,None,266.39160509989597,None,268.0703936799546,None,268.0703936799546,None,268.0703936799546,None,,,,,,,,,,,,,,111,2023-04-24_17h16.09.516,Main,2022.1.1,59.824606248906825,
neutral,positive,1,k,k,,,,,,,,,4,12,84,4,,,,,,,,,main,1,1,1,positive,neutral,k,k,1,0.5991083000553772,268.07612079998944,269.08737199997995,269.0563182999613,None,268.07612079998944,None,268.07612079998944,None,268.07612079998944,None,269.6706875799573,None,269.6706875799573,None,269.6706875799573,None,,,,,,,,,,,,,,111,2023-04-24_17h16.09.516,Main,2022.1.1,59.824606248906825,
positive,neutral,1,l,j,,,,,,,,,4,13,85,8,,,,,,,,,main,2,2,1,neutral,positive,j,l,0,0.6342131999554113,269.6745025999844,270.6895149999764,270.6729017999023,None,269.6745025999844,None,269.6745025999844,None,269.6745025999844,None,271.3089887999231,None,271.3089887999231,None,271.3089887999231,None,,,,,,,,,,,,,,111,2023-04-24_17h16.09.516,Main,2022.1.1,59.824606248906825,
negative,positive,2,j,l,,,,,,,,,4,14,86,15,,,,,,,,,main,1,1,2,positive,negative,l,l,1,0.7178428000770509,272.3210586999776,273.32282769994345,273.30621439998504,None,272.3210586999776,None,272.3210586999776,None,272.3210586999776,None,274.0367860799306,None,274.0367860799306,None,274.0367860799306,None,,,,,,,,,,,,,,111,2023-04-24_17h16.09.516,Main,2022.1.1,59.824606248906825,
negative,neutral,2,j,l,,,,,,,,,4,15,87,12,,,,,,,,,main,2,2,2,neutral,negative,l,l,1,0.7647828999906778,274.0383512999397,275.0535381999798,275.0368744999869,None,274.0383512999397,None,274.0383512999397,None,274.0383512999397,None,275.80350197997177,None,275.80350197997177,None,275.80350197997177,None,,,,,,,,,,,,,,111,2023-04-24_17h16.09.516,Main,2022.1.1,59.824606248906825,
neutral,positive,2,k,k,,,,,,,,,4,16,88,13,,,,,,,,,main,1,1,2,positive,neutral,k,k,1,0.7485140999779105,275.8056526998989,276.82020419999026,276.8035472999327,None,275.8056526998989,None,275.8056526998989,None,275.8056526998989,None,277.5535070798942,None,277.5535070798942,None,277.5535070798942,None,,,,,,,,,,,,,,111,2023-04-24_17h16.09.516,Main,2022.1.1,59.824606248906825,
negative,negative,1,j,l,,,,,,,,,4,17,89,0,,,,,,,,,main,1,1,1,negative,negative,l,l,1,0.939929399988614,277.55954649997875,278.5728067999007,278.5561482999474,None,277.55954649997875,None,277.55954649997875,None,277.55954649997875,None,279.4936082799104,None,279.4936082799104,None,279.4936082799104,None,,,,,,,,,,,,,,111,2023-04-24_17h16.09.516,Main,2022.1.1,59.824606248906825,
positive,positive,1,l,j,,,,,,,,,5,0,90,2,,,,,,,,,main,1,1,1,positive,positive,j,j,1,0.5902567999437451,279.4986420999048,280.5060204999754,280.48933769995347,None,279.4986420999048,None,279.4986420999048,None,279.4986420999048,None,281.08688837994123,None,281.08688837994123,None,281.08688837994123,None,,,,,,,,,,,,,,111,2023-04-24_17h16.09.516,Main,2022.1.1,59.824606248906825,
negative,positive,2,j,l,,,,,,,,,5,1,91,15,,,,,,,,,main,2,2,2,positive,negative,l,l,1,0.7321228000801057,281.09363079990726,282.10597679996863,282.089265699964,None,281.09363079990726,None,281.09363079990726,None,281.09363079990726,None,282.8204129799851,None,282.8204129799851,None,282.8204129799851,None,,,,,,,,,,,,,,111,2023-04-24_17h16.09.516,Main,2022.1.1,59.824606248906825,
neutral,positive,2,k,k,,,,,,,,,5,2,92,13,,,,,,,,,main,2,2,2,positive,neutral,k,k,1,0.6645203999942169,282.82639729999937,283.8392680999823,283.82265069999266,None,282.82639729999937,None,282.82639729999937,None,282.82639729999937,None,284.486675979977,None,284.486675979977,None,284.486675979977,None,,,,,,,,,,,,,,111,2023-04-24_17h16.09.516,Main,2022.1.1,59.824606248906825,
neutral,negative,2,k,k,,,,,,,,,5,3,93,16,,,,,,,,,main,2,2,2,negative,neutral,k,k,1,0.6648085999768227,284.4905344999861,285.48918769997545,285.48918769997545,None,284.4905344999861,None,284.4905344999861,None,284.4905344999861,None,286.15325677994406,None,286.15325677994406,None,286.15325677994406,None,,,,,,,,,,,,,,111,2023-04-24_17h16.09.516,Main,2022.1.1,59.824606248906825,
positive,positive,2,l,j,,,,,,,,,5,4,94,11,,,,,,,,,main,1,1,2,positive,positive,j,j,1,0.6816490999190137,286.15324909996707,287.15328659990337,287.15328659990337,None,286.15324909996707,None,286.15324909996707,None,286.15324909996707,None,287.836572279979,None,287.836572279979,None,287.836572279979,None,,,,,,,,,,,,,,111,2023-04-24_17h16.09.516,Main,2022.1.1,59.824606248906825,
neutral,negative,1,k,k,,,,,,,,,5,5,95,7,,,,,,,,,main,2,2,1,negative,neutral,k,k,1,0.5988525999709964,287.8533163999673,288.85330639989115,288.83660669997334,None,287.8533163999673,None,287.8533163999673,None,287.8533163999673,None,289.436613979924,None,289.436613979924,None,289.436613979924,None,,,,,,,,,,,,,,111,2023-04-24_17h16.09.516,Main,2022.1.1,59.824606248906825,
neutral,neutral,1,k,k,,,,,,,,,5,6,96,1,,,,,,,,,main,1,1,1,neutral,neutral,k,k,1,0.7399151000427082,289.4401024999097,290.439171899925,290.439171899925,None,289.4401024999097,None,289.4401024999097,None,289.4401024999097,None,291.17591527994955,None,291.17591527994955,None,291.17591527994955,None,,,,,,,,,,,,,,111,2023-04-24_17h16.09.516,Main,2022.1.1,59.824606248906825,
positive,neutral,2,l,j,,,,,,,,,5,7,97,17,,,,,,,,,main,1,1,2,neutral,positive,j,j,1,0.6247048999648541,291.18173719989136,292.1889964999864,292.17244119988754,None,291.18173719989136,None,291.18173719989136,None,291.18173719989136,None,292.8035134799429,None,292.8035134799429,None,292.8035134799429,None,,,,,,,,,,,,,,111,2023-04-24_17h16.09.516,Main,2022.1.1,59.824606248906825,
positive,negative,2,l,j,,,,,,,,,5,8,98,14,,,,,,,,,main,2,2,2,negative,positive,j,j,1,0.6473003000719473,292.80803219997324,293.8222940999549,293.8057104999898,None,292.80803219997324,None,292.80803219997324,None,292.80803219997324,None,294.4535025798832,None,294.4535025798832,None,294.4535025798832,None,,,,,,,,,,,,,,111,2023-04-24_17h16.09.516,Main,2022.1.1,59.824606248906825,
negative,negative,2,j,l,,,,,,,,,5,9,99,9,,,,,,,,,main,2,2,2,negative,negative,l,l,1,0.7150265999371186,294.459216499934,295.4722227999009,295.45568649994675,None,294.459216499934,None,294.459216499934,None,294.459216499934,None,296.17012187995715,None,296.17012187995715,None,296.17012187995715,None,,,,,,,,,,,,,,111,2023-04-24_17h16.09.516,Main,2022.1.1,59.824606248906825,
negative,positive,1,j,l,,,,,,,,,5,10,100,6,,,,,,,,,main,2,2,1,positive,negative,l,l,1,0.6737652000738308,296.17592909990344,297.1889615999535,297.1723137999652,None,296.17592909990344,None,296.17592909990344,None,296.17592909990344,None,297.8452946799225,None,297.8452946799225,None,297.8452946799225,None,,,,,,,,,,,,,,111,2023-04-24_17h16.09.516,Main,2022.1.1,59.824606248906825,
negative,negative,1,j,l,,,,,,,,,5,11,101,0,,,,,,,,,main,2,2,1,negative,negative,l,l,1,0.6402348999399692,297.8619849999668,298.86972719989717,298.8363756999606,None,297.8619849999668,None,297.8619849999668,None,297.8619849999668,None,299.48630877997493,None,299.48630877997493,None,299.48630877997493,None,,,,,,,,,,,,,,111,2023-04-24_17h16.09.516,Main,2022.1.1,59.824606248906825,
positive,negative,1,l,j,,,,,,,,,5,12,102,5,,,,,,,,,main,2,2,1,negative,positive,j,j,1,0.6806194999953732,299.4883003999712,300.50303729996085,300.48639469989575,None,299.4883003999712,None,299.4883003999712,None,299.4883003999712,None,301.16969157994026,None,301.16969157994026,None,301.16969157994026,None,,,,,,,,,,,,,,111,2023-04-24_17h16.09.516,Main,2022.1.1,59.824606248906825,
negative,neutral,1,j,l,,,,,,,,,5,13,103,3,,,,,,,,,main,1,1,1,neutral,negative,l,l,1,0.715495300013572,301.18634649994783,302.18637409992516,302.16971809999086,None,301.18634649994783,None,301.18634649994783,None,301.18634649994783,None,302.8866609798861,None,302.8866609798861,None,302.8866609798861,None,,,,,,,,,,,,,,111,2023-04-24_17h16.09.516,Main,2022.1.1,59.824606248906825,
neutral,neutral,2,k,k,,,,,,,,,5,14,104,10,,,,,,,,,main,1,1,2,neutral,neutral,k,k,1,0.5983869999181479,302.8926150999032,303.90544489992317,303.8888559999177,None,302.8926150999032,None,302.8926150999032,None,302.8926150999032,None,304.48661327996524,None,304.48661327996524,None,304.48661327996524,None,,,,,,,,,,,,,,111,2023-04-24_17h16.09.516,Main,2022.1.1,59.824606248906825,
negative,neutral,2,j,l,,,,,,,,,5,15,105,12,,,,,,,,,main,2,2,2,neutral,negative,l,l,1,0.7317625000141561,304.4905010999646,305.5054658999434,305.488906799932,None,304.4905010999646,None,304.4905010999646,None,304.4905010999646,None,306.21987027995056,None,306.21987027995056,None,306.21987027995056,None,,,,,,,,,,,,,,111,2023-04-24_17h16.09.516,Main,2022.1.1,59.824606248906825,
positive,neutral,1,l,j,,,,,,,,,5,16,106,8,,,,,,,,,main,2,2,1,neutral,positive,j,j,1,0.6648431000066921,306.2260033999337,307.2386834999779,307.2220422999235,None,306.2260033999337,None,306.2260033999337,None,306.2260033999337,None,307.8865108799073,None,307.8865108799073,None,307.8865108799073,None,,,,,,,,,,,,,,111,2023-04-24_17h16.09.516,Main,2022.1.1,59.824606248906825,
neutral,positive,1,k,k,,,,,,,,,5,17,107,4,,,,,,,,,main,2,2,1,positive,neutral,k,k,1,0.615240800078027,307.8930994999828,308.90522429998964,308.88869089994114,None,307.8930994999828,None,307.8930994999828,None,307.8930994999828,None,309.5031759798876,None,309.5031759798876,None,309.5031759798876,None,,,,,,,,,,,,,,111,2023-04-24_17h16.09.516,Main,2022.1.1,59.824606248906825,
positive,positive,2,l,j,,,,,,,,,6,0,108,11,,,,,,,,,main,2,2,2,positive,positive,j,j,1,0.6478512999601662,309.50928809994366,310.5194848999381,310.5028045999352,None,309.50928809994366,None,309.50928809994366,None,309.50928809994366,None,311.15277407999383,None,311.15277407999383,None,311.15277407999383,None,,,,,,,,,,,,,,111,2023-04-24_17h16.09.516,Main,2022.1.1,59.824606248906825,
negative,positive,2,j,l,,,,,,,,,6,1,109,15,,,,,,,,,main,2,2,2,positive,negative,l,l,1,0.6494676999282092,311.1542758999858,312.1694825999439,312.15281059988774,None,311.1542758999858,None,311.1542758999858,None,311.1542758999858,None,312.80276677996153,None,312.80276677996153,None,312.80276677996153,None,,,,,,,,,,,,,,111,2023-04-24_17h16.09.516,Main,2022.1.1,59.824606248906825,
negative,negative,2,j,l,,,,,,,,,6,2,110,9,,,,,,,,,main,2,2,2,negative,negative,l,l,1,1.0470503999385983,312.8060472999932,313.81943549995776,313.80278289993294,None,312.8060472999932,None,312.8060472999932,None,312.8060472999932,None,314.8527274799417,None,314.8527274799417,None,314.8527274799417,None,,,,,,,,,,,,,,111,2023-04-24_17h16.09.516,Main,2022.1.1,59.824606248906825,
neutral,negative,1,k,k,,,,,,,,,6,3,111,7,,,,,,,,,main,1,1,1,negative,neutral,k,k,1,0.698652199935168,314.8566280999221,315.87187779997475,315.8553038999671,None,314.8566280999221,None,314.8566280999221,None,314.8566280999221,None,316.55304897989845,None,316.55304897989845,None,316.55304897989845,None,,,,,,,,,,,,,,111,2023-04-24_17h16.09.516,Main,2022.1.1,59.824606248906825,
neutral,positive,1,k,k,,,,,,,,,6,4,112,4,,,,,,,,,main,1,1,1,positive,neutral,k,k,1,0.6148778999922797,316.55885849997867,317.57193299999926,317.55523609998636,None,316.55885849997867,None,316.55885849997867,None,316.55885849997867,None,318.16966777999187,None,318.16966777999187,None,318.16966777999187,None,,,,,,,,,,,,,,111,2023-04-24_17h16.09.516,Main,2022.1.1,59.824606248906825,
neutral,neutral,2,k,k,,,,,,,,,6,5,113,10,,,,,,,,,main,2,2,2,neutral,neutral,k,k,1,0.648740699980408,318.1738807999063,319.18850319995545,319.1697000999702,None,318.1738807999063,None,318.1738807999063,None,318.1738807999063,None,319.81963587988866,None,319.81963587988866,None,319.81963587988866,None,,,,,,,,,,,,,,111,2023-04-24_17h16.09.516,Main,2022.1.1,59.824606248906825,
positive,negative,1,l,j,,,,,,,,,6,6,114,5,,,,,,,,,main,2,2,1,negative,positive,j,j,1,0.814779800013639,319.8258065999253,320.8385192999849,320.8218003999209,None,319.8258065999253,None,319.8258065999253,None,319.8258065999253,None,321.63625247991877,None,321.63625247991877,None,321.63625247991877,None,,,,,,,,,,,,,,111,2023-04-24_17h16.09.516,Main,2022.1.1,59.824606248906825,
neutral,negative,2,k,k,,,,,,,,,6,7,115,16,,,,,,,,,main,1,1,2,negative,neutral,k,k,1,0.6814209000440314,321.6427047998877,322.65162099990994,322.6354397999821,None,321.6427047998877,None,321.6427047998877,None,321.6427047998877,None,323.3191050799214,None,323.3191050799214,None,323.3191050799214,None,,,,,,,,,,,,,,111,2023-04-24_17h16.09.516,Main,2022.1.1,59.824606248906825,
negative,negative,1,j,l,,,,,,,,,6,8,116,0,,,,,,,,,main,2,2,1,negative,negative,l,l,1,0.8151505999267101,323.3192969999509,324.3192009999184,324.3192009999184,None,323.3192969999509,None,323.3192969999509,None,323.3192969999509,None,325.13584477995755,None,325.13584477995755,None,325.13584477995755,None,,,,,,,,,,,,,,111,2023-04-24_17h16.09.516,Main,2022.1.1,59.824606248906825,
positive,positive,1,l,j,,,,,,,,,6,9,117,2,,,,,,,,,main,2,2,1,positive,positive,j,j,1,0.6646183000411838,325.1421729999129,326.15495469991583,326.1384076999966,None,325.1421729999129,None,325.1421729999129,None,325.1421729999129,None,326.80281927989563,None,326.80281927989563,None,326.80281927989563,None,,,,,,,,,,,,,,111,2023-04-24_17h16.09.516,Main,2022.1.1,59.824606248906825,
negative,positive,1,j,l,,,,,,,,,6,10,118,6,,,,,,,,,main,2,2,1,positive,negative,l,l,1,0.7650064000627026,326.80851969996,327.8215855999151,327.80508859991096,None,326.80851969996,None,326.80851969996,None,326.80851969996,None,328.56946027994854,None,328.56946027994854,None,328.56946027994854,None,,,,,,,,,,,,,,111,2023-04-24_17h16.09.516,Main,2022.1.1,59.824606248906825,
negative,neutral,1,j,l,,,,,,,,,6,11,119,3,,,,,,,,,main,1,1,1,neutral,negative,l,l,1,0.7148167999694124,328.57566589990165,329.58825919998344,329.5717315999791,None,328.57566589990165,None,328.57566589990165,None,328.57566589990165,None,330.2860668799258,None,330.2860668799258,None,330.2860668799258,None,,,,,,,,,,,,,,111,2023-04-24_17h16.09.516,Main,2022.1.1,59.824606248906825,
neutral,positive,2,k,k,,,,,,,,,6,12,120,13,,,,,,,,,main,1,1,2,positive,neutral,k,k,1,0.6508023999631405,330.2924202999566,331.30277459998615,331.28833949996624,None,330.2924202999566,None,330.2924202999566,None,330.2924202999566,None,331.938091279997,None,331.938091279997,None,331.938091279997,None,,,,,,,,,,,,,,111,2023-04-24_17h16.09.516,Main,2022.1.1,59.824606248906825,
negative,neutral,2,j,l,,,,,,,,,6,13,121,12,,,,,,,,,main,2,2,2,neutral,negative,l,l,1,0.7625227998942137,331.94240889989305,332.9549463998992,332.93822119990364,None,331.94240889989305,None,331.94240889989305,None,331.94240889989305,None,333.7022508798982,None,333.7022508798982,None,333.7022508798982,None,,,,,,,,,,,,,,111,2023-04-24_17h16.09.516,Main,2022.1.1,59.824606248906825,
positive,neutral,1,l,j,,,,,,,,,6,14,122,8,,,,,,,,,main,2,2,1,neutral,positive,j,j,1,0.7483461999800056,333.70228599989787,334.70231969992165,334.70231969992165,None,333.70228599989787,None,333.70228599989787,None,333.70228599989787,None,335.4523121798993,None,335.4523121798993,None,335.4523121798993,None,,,,,,,,,,,,,,111,2023-04-24_17h16.09.516,Main,2022.1.1,59.824606248906825,
positive,negative,2,l,j,,,,,,,,,6,15,123,14,,,,,,,,,main,2,2,2,negative,positive,j,j,1,0.6167781000258401,335.45665419998113,336.4714321999345,336.45266949990764,None,335.45665419998113,None,335.45665419998113,None,335.45665419998113,None,337.0713470799965,None,337.0713470799965,None,337.0713470799965,None,,,,,,,,,,,,,,111,2023-04-24_17h16.09.516,Main,2022.1.1,59.824606248906825,
neutral,neutral,1,k,k,,,,,,,,,6,16,124,1,,,,,,,,,main,1,1,1,neutral,neutral,k,k,1,0.6319455000339076,337.07436739990953,338.0880442999769,338.07143389992416,None,337.07436739990953,None,337.07436739990953,None,337.07436739990953,None,338.7046668799012,None,338.7046668799012,None,338.7046668799012,None,,,,,,,,,,,,,,111,2023-04-24_17h16.09.516,Main,2022.1.1,59.824606248906825,
positive,neutral,2,l,j,,,,,,,,,6,17,125,17,,,,,,,,,main,2,2,2,neutral,positive,j,j,1,0.5982575000962242,338.7082389999414,339.72135369991884,339.704803599976,None,338.7082389999414,None,338.7082389999414,None,338.7082389999414,None,340.3046162799583,None,340.3046162799583,None,340.3046162799583,None,,,,,,,,,,,,,,111,2023-04-24_17h16.09.516,Main,2022.1.1,59.824606248906825,
negative,neutral,2,j,l,,,,,,,,,7,0,126,12,,,,,,,,,main,1,1,2,neutral,negative,l,l,1,0.7151585000101477,340.30812760000117,341.3212596999947,341.30466219992377,None,340.30812760000117,None,340.30812760000117,None,340.30812760000117,None,342.02151617995696,None,342.02151617995696,None,342.02151617995696,None,,,,,,,,,,,,,,111,2023-04-24_17h16.09.516,Main,2022.1.1,59.824606248906825,
negative,positive,1,j,l,,,,,,,,,7,1,127,6,,,,,,,,,main,1,1,1,positive,negative,l,l,1,0.7713569001061842,342.0254231999861,343.0380221999949,343.0214219999034,None,342.0254231999861,None,342.0254231999861,None,342.0254231999861,None,343.79422817990417,None,343.79422817990417,None,343.79422817990417,None,,,,,,,,,,,,,,111,2023-04-24_17h16.09.516,Main,2022.1.1,59.824606248906825,
negative,neutral,1,j,l,,,,,,,,,7,2,128,3,,,,,,,,,main,1,1,1,neutral,negative,l,l,1,0.7394819000037387,343.81023959990125,344.81876669998746,344.78543940000236,None,343.81023959990125,None,343.81023959990125,None,343.81023959990125,None,345.5353760799044,None,345.5353760799044,None,345.5353760799044,None,,,,,,,,,,,,,,111,2023-04-24_17h16.09.516,Main,2022.1.1,59.824606248906825,
positive,neutral,1,l,j,,,,,,,,,7,3,129,8,,,,,,,,,main,1,1,1,neutral,positive,j,j,1,0.665139100048691,345.5356306999456,346.535438299994,346.535438299994,None,345.5356306999456,None,345.5356306999456,None,345.5356306999456,None,347.20238377997885,None,347.20238377997885,None,347.20238377997885,None,,,,,,,,,,,,,,111,2023-04-24_17h16.09.516,Main,2022.1.1,59.824606248906825,
negative,positive,2,j,l,,,,,,,,,7,4,130,15,,,,,,,,,main,2,2,2,positive,negative,l,l,1,0.7820257999701425,347.208389999927,348.2211785999825,348.2046056999825,None,347.208389999927,None,347.208389999927,None,347.208389999927,None,348.9854459799244,None,348.9854459799244,None,348.9854459799244,None,,,,,,,,,,,,,,111,2023-04-24_17h16.09.516,Main,2022.1.1,59.824606248906825,
negative,negative,2,j,l,,,,,,,,,7,5,131,9,,,,,,,,,main,2,2,2,negative,negative,l,l,1,0.6814936000155285,348.9922572999494,350.00456429994665,349.9879306999501,None,348.9922572999494,None,348.9922572999494,None,348.9922572999494,None,350.6689530799049,None,350.6689530799049,None,350.6689530799049,None,,,,,,,,,,,,,,111,2023-04-24_17h16.09.516,Main,2022.1.1,59.824606248906825,
positive,positive,1,l,j,,,,,,,,,7,6,132,2,,,,,,,,,main,2,2,1,positive,positive,j,j,1,0.6811548999976367,350.6751319998875,351.6878644999815,351.67117449990474,None,350.6751319998875,None,350.6751319998875,None,350.6751319998875,None,352.3522353799199,None,352.3522353799199,None,352.3522353799199,None,,,,,,,,,,,,,,111,2023-04-24_17h16.09.516,Main,2022.1.1,59.824606248906825,
neutral,negative,2,k,k,,,,,,,,,7,7,133,16,,,,,,,,,main,1,1,2,negative,neutral,k,k,1,0.6643147000577301,352.3712900999235,353.3710639999481,353.3544306999538,None,352.3712900999235,None,352.3712900999235,None,352.3712900999235,None,354.01815637998516,None,354.01815637998516,None,354.01815637998516,None,,,,,,,,,,,,,,111,2023-04-24_17h16.09.516,Main,2022.1.1,59.824606248906825,
positive,positive,2,l,j,,,,,,,,,7,8,134,11,,,,,,,,,main,2,2,2,positive,positive,j,j,1,0.5988004000391811,354.03414109989535,355.0354606999317,355.02090129989665,None,354.03414109989535,None,354.03414109989535,None,354.03414109989535,None,355.6187555799843,None,355.6187555799843,None,355.6187555799843,None,,,,,,,,,,,,,,111,2023-04-24_17h16.09.516,Main,2022.1.1,59.824606248906825,
neutral,positive,2,k,k,,,,,,,,,7,9,135,13,,,,,,,,,main,1,1,2,positive,neutral,k,k,1,0.631671000039205,355.62652449996676,356.63543889997527,356.6209203999024,None,355.62652449996676,None,355.62652449996676,None,355.62652449996676,None,357.2520461798995,None,357.2520461798995,None,357.2520461798995,None,,,,,,,,,,,,,,111,2023-04-24_17h16.09.516,Main,2022.1.1,59.824606248906825,
positive,negative,2,l,j,,,,,,,,,7,10,136,14,,,,,,,,,main,2,2,2,negative,positive,j,j,1,0.6150724000763148,357.25811219995376,358.2708571999101,358.2542220999021,None,357.25811219995376,None,357.25811219995376,None,357.25811219995376,None,358.86868987994967,None,358.86868987994967,None,358.86868987994967,None,,,,,,,,,,,,,,111,2023-04-24_17h16.09.516,Main,2022.1.1,59.824606248906825,
negative,negative,1,j,l,,,,,,,,,7,11,137,0,,,,,,,,,main,1,1,1,negative,negative,l,l,1,0.8315583999501541,358.87459519994445,359.88744789990596,359.86873739992734,None,358.87459519994445,None,358.87459519994445,None,358.87459519994445,None,360.70212037995225,None,360.70212037995225,None,360.70212037995225,None,,,,,,,,,,,,,,111,2023-04-24_17h16.09.516,Main,2022.1.1,59.824606248906825,
positive,neutral,2,l,j,,,,,,,,,7,12,138,17,,,,,,,,,main,1,1,2,neutral,positive,j,j,1,0.6506244000047445,360.70787349995226,361.7187059998978,361.70418919995427,None,360.70787349995226,None,360.70787349995226,None,360.70787349995226,None,362.3541654799483,None,362.3541654799483,None,362.3541654799483,None,,,,,,,,,,,,,,111,2023-04-24_17h16.09.516,Main,2022.1.1,59.824606248906825,
neutral,negative,1,k,k,,,,,,,,,7,13,139,7,,,,,,,,,main,2,2,1,negative,neutral,k,k,1,0.6963507999898866,362.3572852999205,363.36869439994916,363.3541711999569,None,362.3572852999205,None,362.3572852999205,None,362.3572852999205,None,364.0519572799676,None,364.0519572799676,None,364.0519572799676,None,,,,,,,,,,,,,,111,2023-04-24_17h16.09.516,Main,2022.1.1,59.824606248906825,
neutral,neutral,2,k,k,,,,,,,,,7,14,140,10,,,,,,,,,main,2,2,2,neutral,neutral,k,k,1,0.6485811999300495,364.0577391999541,365.0706997999223,365.0519871999277,None,364.0577391999541,None,364.0577391999541,None,364.0577391999541,None,365.70203217997914,None,365.70203217997914,None,365.70203217997914,None,,,,,,,,,,,,,,111,2023-04-24_17h16.09.516,Main,2022.1.1,59.824606248906825,
positive,negative,1,l,j,,,,,,,,,7,15,141,5,,,,,,,,,main,2,2,1,negative,positive,j,j,1,0.7647451999364421,365.7076984999003,366.7206637999043,366.7019591999706,None,365.7076984999003,None,365.7076984999003,None,365.7076984999003,None,367.46828167996136,None,367.46828167996136,None,367.46828167996136,None,,,,,,,,,,,,,,111,2023-04-24_17h16.09.516,Main,2022.1.1,59.824606248906825,
neutral,neutral,1,k,k,,,,,,,,,7,16,142,1,,,,,,,,,main,1,1,1,neutral,neutral,k,k,1,0.7649435000494123,367.46826289989986,368.46827899990603,368.46827899990603,None,367.46826289989986,None,367.46826289989986,None,367.46826289989986,None,369.23496647999855,None,369.23496647999855,None,369.23496647999855,None,,,,,,,,,,,,,,111,2023-04-24_17h16.09.516,Main,2022.1.1,59.824606248906825,
neutral,positive,1,k,k,,,,,,,,,7,17,143,4,,,,,,,,,main,2,2,1,positive,neutral,k,k,1,0.6150075999321416,369.24128699989524,370.2540666999994,370.2375534999883,None,369.24128699989524,None,369.24128699989524,None,369.24128699989524,None,370.85193017992424,None,370.85193017992424,None,370.85193017992424,None,,,,,,,,,,,,,,111,2023-04-24_17h16.09.516,Main,2022.1.1,59.824606248906825,
negative,negative,1,j,l,,,,,,,,,8,0,144,0,,,,,,,,,main,2,2,1,negative,negative,l,l,1,0.6985124000348151,370.8581185999792,371.86855449993163,371.85416379990056,None,370.8581185999792,None,370.8581185999792,None,370.8581185999792,None,372.5518527799868,None,372.5518527799868,None,372.5518527799868,None,,,,,,,,,,,,,,111,2023-04-24_17h16.09.516,Main,2022.1.1,59.824606248906825,
positive,negative,1,l,j,,,,,,,,,8,1,145,5,,,,,,,,,main,1,1,1,negative,positive,j,j,1,0.714944800012745,372.55533569992986,373.56853879999835,373.5539378999965,None,372.55533569992986,None,372.55533569992986,None,372.55533569992986,None,374.26848057989264,None,374.26848057989264,None,374.26848057989264,None,,,,,,,,,,,,,,111,2023-04-24_17h16.09.516,Main,2022.1.1,59.824606248906825,
negative,neutral,1,j,l,,,,,,,,,8,2,146,3,,,,,,,,,main,1,1,1,neutral,negative,l,l,1,0.7652804999379441,374.27168909995817,375.2706832999829,375.2706832999829,None,374.27168909995817,None,374.27168909995817,None,374.27168909995817,None,376.0351635799161,None,376.0351635799161,None,376.0351635799161,None,,,,,,,,,,,,,,111,2023-04-24_17h16.09.516,Main,2022.1.1,59.824606248906825,
positive,positive,2,l,j,,,,,,,,,8,3,147,11,,,,,,,,,main,1,1,2,positive,positive,j,j,1,0.6635309000266716,376.04142269992735,377.0397768999683,377.03303299995605,None,376.04142269992735,None,376.04142269992735,None,376.04142269992735,None,377.70138217991916,None,377.70138217991916,None,377.70138217991916,None,,,,,,,,,,,,,,111,2023-04-24_17h16.09.516,Main,2022.1.1,59.824606248906825,
neutral,negative,1,k,k,,,,,,,,,8,4,148,7,,,,,,,,,main,1,1,1,negative,neutral,k,k,1,0.6986853000707924,377.701377099962,378.7013863999164,378.7013863999164,None,377.701377099962,None,377.701377099962,None,377.701377099962,None,379.4013858799008,None,379.4013858799008,None,379.4013858799008,None,,,,,,,,,,,,,,111,2023-04-24_17h16.09.516,Main,2022.1.1,59.824606248906825,
positive,positive,1,l,j,,,,,,,,,8,5,149,2,,,,,,,,,main,1,1,1,positive,positive,j,j,1,0.6487761000171304,379.4071027999744,380.4205147998873,380.4039940999355,None,379.4071027999744,None,379.4071027999744,None,379.4071027999744,None,381.0517272799625,None,381.0517272799625,None,381.0517272799625,None,,,,,,,,,,,,,,111,2023-04-24_17h16.09.516,Main,2022.1.1,59.824606248906825,
negative,positive,2,j,l,,,,,,,,,8,6,150,15,,,,,,,,,main,1,1,2,positive,negative,l,l,1,0.7168757999315858,381.0567254999187,382.0704854999203,382.0538793999003,None,381.0567254999187,None,381.0567254999187,None,381.0567254999187,None,382.7704699799069,None,382.7704699799069,None,382.7704699799069,None,,,,,,,,,,,,,,111,2023-04-24_17h16.09.516,Main,2022.1.1,59.824606248906825,
positive,neutral,2,l,j,,,,,,,,,8,7,151,17,,,,,,,,,main,2,2,2,neutral,positive,j,j,1,0.612621400039643,382.7744466000004,383.78722749999724,383.7705428999616,None,382.7744466000004,None,382.7744466000004,None,382.7744466000004,None,384.38478577992646,None,384.38478577992646,None,384.38478577992646,None,,,,,,,,,,,,,,111,2023-04-24_17h16.09.516,Main,2022.1.1,59.824606248906825,
negative,positive,1,j,l,,,,,,,,,8,8,152,6,,,,,,,,,main,2,2,1,positive,negative,l,l,1,0.7830322999507189,384.3911977999378,385.403725399985,385.3872316998895,None,384.3911977999378,None,384.3911977999378,None,384.3911977999378,None,386.1682104799547,None,386.1682104799547,None,386.1682104799547,None,,,,,,,,,,,,,,111,2023-04-24_17h16.09.516,Main,2022.1.1,59.824606248906825,
neutral,positive,2,k,k,,,,,,,,,8,9,153,13,,,,,,,,,main,1,1,2,positive,neutral,k,k,1,0.6631967999273911,386.1811797999544,387.18366239999887,387.16745919990353,None,386.1811797999544,None,386.1811797999544,None,386.1811797999544,None,387.8344442799571,None,387.8344442799571,None,387.8344442799571,None,,,,,,,,,,,,,,111,2023-04-24_17h16.09.516,Main,2022.1.1,59.824606248906825,
neutral,negative,2,k,k,,,,,,,,,8,10,154,16,,,,,,,,,main,2,2,2,negative,neutral,k,k,1,0.7151142000220716,387.83449439995456,388.83453839994036,388.83453839994036,None,387.83449439995456,None,387.83449439995456,None,387.83449439995456,None,389.5511697799084,None,389.5511697799084,None,389.5511697799084,None,,,,,,,,,,,,,,111,2023-04-24_17h16.09.516,Main,2022.1.1,59.824606248906825,
neutral,neutral,1,k,k,,,,,,,,,8,11,155,1,,,,,,,,,main,2,2,1,neutral,neutral,k,k,1,0.6655749999918044,389.5543609999586,390.551546499948,390.551546499948,None,389.5543609999586,None,389.5543609999586,None,389.5543609999586,None,391.218138779921,None,391.218138779921,None,391.218138779921,None,,,,,,,,,,,,,,111,2023-04-24_17h16.09.516,Main,2022.1.1,59.824606248906825,
positive,negative,2,l,j,,,,,,,,,8,12,156,14,,,,,,,,,main,2,2,2,negative,positive,j,j,1,0.7145902999909595,391.2219687999459,392.2369318999117,392.220303399954,None,391.2219687999459,None,391.2219687999459,None,391.2219687999459,None,392.9345289799967,None,392.9345289799967,None,392.9345289799967,None,,,,,,,,,,,,,,111,2023-04-24_17h16.09.516,Main,2022.1.1,59.824606248906825,
positive,neutral,1,l,j,,,,,,,,,8,13,157,8,,,,,,,,,main,2,2,1,neutral,positive,j,j,1,0.6653045999119058,392.94140819995664,393.953657999984,393.93696579989046,None,392.94140819995664,None,392.94140819995664,None,392.94140819995664,None,394.60141267994186,None,394.60141267994186,None,394.60141267994186,None,,,,,,,,,,,,,,111,2023-04-24_17h16.09.516,Main,2022.1.1,59.824606248906825,
neutral,neutral,2,k,k,,,,,,,,,8,14,158,10,,,,,,,,,main,2,2,2,neutral,neutral,k,k,1,0.6503979000262916,394.6053077999968,395.62008539994713,395.60350329999346,None,394.6053077999968,None,394.6053077999968,None,394.6053077999968,None,396.25342917995295,None,396.25342917995295,None,396.25342917995295,None,,,,,,,,,,,,,,111,2023-04-24_17h16.09.516,Main,2022.1.1,59.824606248906825,
negative,neutral,2,j,l,,,,,,,,,8,15,159,12,,,,,,,,,main,2,2,2,neutral,negative,l,l,1,0.8499202999519184,396.257709999918,397.27020529995207,397.2513965999242,None,396.257709999918,None,396.257709999918,None,396.257709999918,None,398.1008992799907,None,398.1008992799907,None,398.1008992799907,None,,,,,,,,,,,,,,111,2023-04-24_17h16.09.516,Main,2022.1.1,59.824606248906825,
negative,negative,2,j,l,,,,,,,,,8,16,160,9,,,,,,,,,main,2,2,2,negative,negative,l,l,1,0.8777281999355182,398.1048216999043,399.11765379994176,399.100997399888,None,398.1048216999043,None,398.1048216999043,None,398.1048216999043,None,399.98425807995955,None,399.98425807995955,None,399.98425807995955,None,,,,,,,,,,,,,,111,2023-04-24_17h16.09.516,Main,2022.1.1,59.824606248906825,
neutral,positive,1,k,k,,,,,,,,,8,17,161,4,,,,,,,,,main,1,1,1,positive,neutral,k,k,1,0.6984834999311715,399.9875398000004,401.0010050999699,400.98432779998984,None,399.9875398000004,None,399.9875398000004,None,399.9875398000004,None,401.684258079913,None,401.684258079913,None,401.684258079913,None,,,,,,,,,,,,,,111,2023-04-24_17h16.09.516,Main,2022.1.1,59.824606248906825,
positive,positive,2,l,j,,,,,,,,,9,0,162,11,,,,,,,,,main,2,2,2,positive,positive,j,j,1,0.6718806000426412,401.6899808999151,402.7012973999372,402.6867907999549,None,401.6899808999151,None,401.6899808999151,None,401.6899808999151,None,403.3533855799469,None,403.3533855799469,None,403.3533855799469,None,,,,,,,,,,,,,,111,2023-04-24_17h16.09.516,Main,2022.1.1,59.824606248906825,
negative,positive,1,j,l,,,,,,,,,9,1,163,6,,,,,,,,,main,1,1,1,positive,negative,l,l,1,0.7250122999539599,403.36152329994366,404.37000229989644,404.35340289992746,None,403.36152329994366,None,403.36152329994366,None,403.36152329994366,None,405.08431997994194,None,405.08431997994194,None,405.08431997994194,None,,,,,,,,,,,,,,111,2023-04-24_17h16.09.516,Main,2022.1.1,59.824606248906825,
positive,positive,1,l,j,,,,,,,,,9,2,164,2,,,,,,,,,main,1,1,1,positive,positive,j,j,1,0.6485254999715835,405.0908485999098,406.1033254999202,406.086796999909,None,405.0908485999098,None,405.0908485999098,None,405.0908485999098,None,406.73447097995086,None,406.73447097995086,None,406.73447097995086,None,,,,,,,,,,,,,,111,2023-04-24_17h16.09.516,Main,2022.1.1,59.824606248906825,
negative,negative,2,j,l,,,,,,,,,9,3,165,9,,,,,,,,,main,1,1,2,negative,negative,l,l,1,0.7150237000314519,406.73811219993513,407.7533724999521,407.7367430999875,None,406.73811219993513,None,406.73811219993513,None,406.73811219993513,None,408.45110947993817,None,408.45110947993817,None,408.45110947993817,None,,,,,,,,,,,,,,111,2023-04-24_17h16.09.516,Main,2022.1.1,59.824606248906825,
negative,neutral,1,j,l,,,,,,,,,9,4,166,3,,,,,,,,,main,1,1,1,neutral,negative,l,l,1,0.6987544998992234,408.45728390000295,409.4790019999491,409.45680499996524,None,408.45728390000295,None,408.45728390000295,None,408.45728390000295,None,410.150664979883,None,410.150664979883,None,410.150664979883,None,,,,,,,,,,,,,,111,2023-04-24_17h16.09.516,Main,2022.1.1,59.824606248906825,
neutral,negative,1,k,k,,,,,,,,,9,5,167,7,,,,,,,,,main,1,1,1,negative,neutral,k,k,1,0.6308761000400409,410.1674313999247,411.1674163999269,411.15074369998183,None,410.1674313999247,None,410.1674313999247,None,410.1674313999247,None,411.78400477994,None,411.78400477994,None,411.78400477994,None,,,,,,,,,,,,,,111,2023-04-24_17h16.09.516,Main,2022.1.1,59.824606248906825,
negative,negative,1,j,l,,,,,,,,,9,6,168,0,,,,,,,,,main,1,1,1,negative,negative,l,l,1,0.7484269000124186,411.78454369993415,412.78404359996784,412.78404359996784,None,411.78454369993415,None,411.78454369993415,None,411.78454369993415,None,413.53401677991496,None,413.53401677991496,None,413.53401677991496,None,,,,,,,,,,,,,,111,2023-04-24_17h16.09.516,Main,2022.1.1,59.824606248906825,
positive,neutral,2,l,j,,,,,,,,,9,7,169,17,,,,,,,,,main,1,1,2,neutral,positive,j,j,1,0.6487524999538437,413.53970219998155,414.5531298998976,414.5365008999361,None,413.53970219998155,None,413.53970219998155,None,413.53970219998155,None,415.18456677993527,None,415.18456677993527,None,415.18456677993527,None,,,,,,,,,,,,,,111,2023-04-24_17h16.09.516,Main,2022.1.1,59.824606248906825,
positive,negative,1,l,j,,,,,,,,,9,8,170,5,,,,,,,,,main,2,2,1,negative,positive,j,j,1,0.6673293000785634,415.191025899956,416.20311499992386,416.1865139999427,None,415.191025899956,None,415.191025899956,None,415.191025899956,None,416.8531271799584,None,416.8531271799584,None,416.8531271799584,None,,,,,,,,,,,,,,111,2023-04-24_17h16.09.516,Main,2022.1.1,59.824606248906825,
positive,negative,2,l,j,,,,,,,,,9,9,171,14,,,,,,,,,main,1,1,2,negative,positive,j,j,1,0.6794461000245064,416.85671209997963,417.86975449998863,417.8531712999102,None,416.85671209997963,None,416.85671209997963,None,416.85671209997963,None,418.534245979914,None,418.534245979914,None,418.534245979914,None,,,,,,,,,,,,,,111,2023-04-24_17h16.09.516,Main,2022.1.1,59.824606248906825,
neutral,neutral,1,k,k,,,,,,,,,9,10,172,1,,,,,,,,,main,2,2,1,neutral,neutral,k,k,1,0.6640339000150561,418.5386062999023,419.55302939994726,419.5364294999745,None,418.5386062999023,None,418.5386062999023,None,418.5386062999023,None,420.200835179945,None,420.200835179945,None,420.200835179945,None,,,,,,,,,,,,,,111,2023-04-24_17h16.09.516,Main,2022.1.1,59.824606248906825,
neutral,negative,2,k,k,,,,,,,,,9,11,173,16,,,,,,,,,main,1,1,2,negative,neutral,k,k,1,0.7313449999783188,420.20408399996813,421.21965129999444,421.2030672999099,None,420.20408399996813,None,420.20408399996813,None,420.20408399996813,None,421.93372027989244,None,421.93372027989244,None,421.93372027989244,None,,,,,,,,,,,,,,111,2023-04-24_17h16.09.516,Main,2022.1.1,59.824606248906825,
negative,positive,2,j,l,,,,,,,,,9,12,174,15,,,,,,,,,main,1,1,2,positive,negative,l,l,1,0.698627799982205,421.93377339991275,422.9338177999016,422.9338177999016,None,421.93377339991275,None,421.93377339991275,None,421.93377339991275,None,423.6337957799551,None,423.6337957799551,None,423.6337957799551,None,,,,,,,,,,,,,,111,2023-04-24_17h16.09.516,Main,2022.1.1,59.824606248906825,
neutral,positive,1,k,k,,,,,,,,,9,13,175,4,,,,,,,,,main,2,2,1,positive,neutral,k,k,1,0.7151060999603942,423.6361603999976,424.6504596999148,424.63384599995334,None,423.6361603999976,None,423.6361603999976,None,423.6361603999976,None,425.35044997994555,None,425.35044997994555,None,425.35044997994555,None,,,,,,,,,,,,,,111,2023-04-24_17h16.09.516,Main,2022.1.1,59.824606248906825,
neutral,positive,2,k,k,,,,,,,,,9,14,176,13,,,,,,,,,main,2,2,2,positive,neutral,k,k,1,0.6675741999642923,425.3542855998967,426.3696502998937,426.3529769999441,None,425.3542855998967,None,425.3542855998967,None,425.3542855998967,None,427.0195766799734,None,427.0195766799734,None,427.0195766799734,None,,,,,,,,,,,,,,111,2023-04-24_17h16.09.516,Main,2022.1.1,59.824606248906825,
negative,neutral,2,j,l,,,,,,,,,9,15,177,12,,,,,,,,,main,2,2,2,neutral,negative,l,l,1,0.7962983000325039,427.0230390999932,428.0362060999032,428.01960919995327,None,427.0230390999932,None,427.0230390999932,None,427.0230390999932,None,428.81739177991403,None,428.81739177991403,None,428.81739177991403,None,,,,,,,,,,,,,,111,2023-04-24_17h16.09.516,Main,2022.1.1,59.824606248906825,
positive,neutral,1,l,j,,,,,,,,,9,16,178,8,,,,,,,,,main,2,2,1,neutral,positive,j,j,1,0.8001427000854164,428.82354429992847,429.83612699992955,429.8195067999186,None,428.82354429992847,None,428.82354429992847,None,428.82354429992847,None,430.6194507799228,None,430.6194507799228,None,430.6194507799228,None,,,,,,,,,,,,,,111,2023-04-24_17h16.09.516,Main,2022.1.1,59.824606248906825,
neutral,neutral,2,k,k,,,,,,,,,9,17,179,10,,,,,,,,,main,2,2,2,neutral,neutral,k,k,1,0.6797503000125289,430.6235489998944,431.63614679989405,431.61947239993606,None,430.6235489998944,None,430.6235489998944,None,430.6235489998944,None,432.300656479958,None,432.300656479958,None,432.300656479958,None,,,,,,,,,,,,,,111,2023-04-24_17h16.09.516,Main,2022.1.1,59.824606248906825,
neutral,negative,2,k,k,,,,,,,,,10,0,180,16,,,,,,,,,main,1,1,2,negative,neutral,k,k,1,0.5978127999696881,432.3062613999937,433.31951760000084,433.30282399989665,None,432.3062613999937,None,432.3062613999937,None,432.3062613999937,None,433.9001444799942,None,433.9001444799942,None,433.9001444799942,None,,,,,,,,,,,,,,111,2023-04-24_17h16.09.516,Main,2022.1.1,59.824606248906825,
negative,neutral,2,j,l,,,,,,,,,10,1,181,12,,,,,,,,,main,2,2,2,neutral,negative,l,l,1,0.7154124999651685,433.90027739992365,434.90022769989446,434.90022769989446,None,433.90027739992365,None,433.90027739992365,None,433.90027739992365,None,435.6169053799822,None,435.6169053799822,None,435.6169053799822,None,,,,,,,,,,,,,,111,2023-04-24_17h16.09.516,Main,2022.1.1,59.824606248906825,
negative,positive,1,j,l,,,,,,,,,10,2,182,6,,,,,,,,,main,2,2,1,positive,negative,l,l,1,0.7160538999596611,435.61807379999664,436.63354759989306,436.61686249997,None,435.61807379999664,None,435.61807379999664,None,435.61807379999664,None,437.3335420799558,None,437.3335420799558,None,437.3335420799558,None,,,,,,,,,,,,,,111,2023-04-24_17h16.09.516,Main,2022.1.1,59.824606248906825,
neutral,positive,2,k,k,,,,,,,,,10,3,183,13,,,,,,,,,main,2,2,2,positive,neutral,k,k,1,0.680253200000152,437.338411899982,438.35271029989235,438.33617749996483,None,437.338411899982,None,437.338411899982,None,437.338411899982,None,439.0168180799228,None,439.0168180799228,None,439.0168180799228,None,,,,,,,,,,,,,,111,2023-04-24_17h16.09.516,Main,2022.1.1,59.824606248906825,
neutral,neutral,2,k,k,,,,,,,,,10,4,184,10,,,,,,,,,main,1,1,2,neutral,neutral,k,k,1,0.6176307999994606,439.02332139993086,440.0338641999988,440.0027791999746,None,439.02332139993086,None,439.02332139993086,None,439.02332139993086,None,440.6358497799956,None,440.6358497799956,None,440.6358497799956,None,,,,,,,,,,,,,,111,2023-04-24_17h16.09.516,Main,2022.1.1,59.824606248906825,
positive,neutral,2,l,j,,,,,,,,,10,5,185,17,,,,,,,,,main,2,2,2,neutral,positive,j,j,1,0.5648306999355555,440.6394818999106,441.6505287999753,441.63608549989294,None,440.6394818999106,None,440.6394818999106,None,440.6394818999106,None,442.20251937996363,None,442.20251937996363,None,442.20251937996363,None,,,,,,,,,,,,,,111,2023-04-24_17h16.09.516,Main,2022.1.1,59.824606248906825,
negative,positive,2,j,l,,,,,,,,,10,6,186,15,,,,,,,,,main,2,2,2,positive,negative,l,l,1,0.7484761999221519,442.20584739989135,443.21915679995436,443.20259189989883,None,442.20584739989135,None,442.20584739989135,None,442.20584739989135,None,443.95255347999046,None,443.95255347999046,None,443.95255347999046,None,,,,,,,,,,,,,,111,2023-04-24_17h16.09.516,Main,2022.1.1,59.824606248906825,
positive,positive,1,l,j,,,,,,,,,10,7,187,2,,,,,,,,,main,2,2,1,positive,positive,j,j,1,0.6962396999588236,443.95676669990644,444.96705239999574,444.9526465999661,None,443.95676669990644,None,443.95676669990644,None,443.95676669990644,None,445.6502127799322,None,445.6502127799322,None,445.6502127799322,None,,,,,,,,,,,,,,111,2023-04-24_17h16.09.516,Main,2022.1.1,59.824606248906825,
positive,negative,2,l,j,,,,,,,,,10,8,188,14,,,,,,,,,main,2,2,2,negative,positive,j,j,1,0.8314824999542907,445.661177199916,446.6666303999955,446.649957699934,None,445.661177199916,None,445.661177199916,None,445.661177199916,None,447.48328037996544,None,447.48328037996544,None,447.48328037996544,None,,,,,,,,,,,,,,111,2023-04-24_17h16.09.516,Main,2022.1.1,59.824606248906825,
neutral,neutral,1,k,k,,,,,,,,,10,9,189,1,,,,,,,,,main,1,1,1,neutral,neutral,k,k,1,0.6314704000251368,447.48330939991865,448.4833182999864,448.4833182999864,None,447.48330939991865,None,447.48330939991865,None,447.48330939991865,None,449.1165780799347,None,449.1165780799347,None,449.1165780799347,None,,,,,,,,,,,,,,111,2023-04-24_17h16.09.516,Main,2022.1.1,59.824606248906825,
negative,neutral,1,j,l,,,,,,,,,10,10,190,3,,,,,,,,,main,1,1,1,neutral,negative,l,l,1,0.734628599951975,449.1166321999626,450.11662359989714,450.11662359989714,None,449.1166321999626,None,449.1166321999626,None,449.1166321999626,None,450.852506779891,None,450.852506779891,None,450.852506779891,None,,,,,,,,,,,,,,111,2023-04-24_17h16.09.516,Main,2022.1.1,59.824606248906825,
neutral,positive,1,k,k,,,,,,,,,10,11,191,4,,,,,,,,,main,2,2,1,positive,neutral,k,k,1,0.8796403000596911,450.8565437999787,451.86916449991986,451.8524697999237,None,450.8565437999787,None,450.8565437999787,None,450.8565437999787,None,452.7335572799784,None,452.7335572799784,None,452.7335572799784,None,,,,,,,,,,,,,,111,2023-04-24_17h16.09.516,Main,2022.1.1,59.824606248906825,
negative,negative,2,j,l,,,,,,,,,10,12,192,9,,,,,,,,,main,1,1,2,negative,negative,l,l,1,0.6982909999787807,452.7396131999558,453.75234829995316,453.7357402999187,None,452.7396131999558,None,452.7396131999558,None,452.7396131999558,None,454.43348557996796,None,454.43348557996796,None,454.43348557996796,None,,,,,,,,,,,,,,111,2023-04-24_17h16.09.516,Main,2022.1.1,59.824606248906825,
neutral,negative,1,k,k,,,,,,,,,10,13,193,7,,,,,,,,,main,1,1,1,negative,neutral,k,k,1,0.7005600999109447,454.4396088999929,455.45235489995684,455.43568129988853,None,454.4396088999929,None,454.4396088999929,None,454.4396088999929,None,456.1355475799064,None,456.1355475799064,None,456.1355475799064,None,,,,,,,,,,,,,,111,2023-04-24_17h16.09.516,Main,2022.1.1,59.824606248906825,
negative,negative,1,j,l,,,,,,,,,10,14,194,0,,,,,,,,,main,2,2,1,negative,negative,l,l,1,0.8624078000430018,456.1390516998945,457.1523429999361,457.1357067999197,None,456.1390516998945,None,456.1390516998945,None,456.1390516998945,None,457.99966627993854,None,457.99966627993854,None,457.99966627993854,None,,,,,,,,,,,,,,111,2023-04-24_17h16.09.516,Main,2022.1.1,59.824606248906825,
positive,negative,1,l,j,,,,,,,,,10,15,195,5,,,,,,,,,main,2,2,1,negative,positive,j,j,1,0.6320838000392541,457.999684899929,458.99975719989743,458.99975719989743,None,457.999684899929,None,457.999684899929,None,457.999684899929,None,459.63299307989655,None,459.63299307989655,None,459.63299307989655,None,,,,,,,,,,,,,,111,2023-04-24_17h16.09.516,Main,2022.1.1,59.824606248906825,
positive,positive,2,l,j,,,,,,,,,10,16,196,11,,,,,,,,,main,1,1,2,positive,positive,j,j,1,0.7314960999647155,459.6335726999678,460.6330633999314,460.6330633999314,None,459.6335726999678,None,459.6335726999678,None,459.6335726999678,None,461.36636137991445,None,461.36636137991445,None,461.36636137991445,None,,,,,,,,,,,,,,111,2023-04-24_17h16.09.516,Main,2022.1.1,59.824606248906825,
positive,neutral,1,l,j,,,,,,,,,10,17,197,8,,,,,,,,,main,1,1,1,neutral,positive,j,j,1,0.5982967000454664,461.37007179996,462.38571089995094,462.36892309994437,None,461.37007179996,None,461.37007179996,None,461.37007179996,None,462.96655317995464,None,462.96655317995464,None,462.96655317995464,None,,,,,,,,,,,,,,111,2023-04-24_17h16.09.516,Main,2022.1.1,59.824606248906825,
negative,neutral,1,j,l,,,,,,,,,11,0,198,3,,,,,,,,,main,1,1,1,neutral,negative,l,l,1,0.8652677000500262,462.9732085999567,463.98335989995394,463.9688252999913,None,462.9732085999567,None,462.9732085999567,None,462.9732085999567,None,464.8333019799902,None,464.8333019799902,None,464.8333019799902,None,,,,,,,,,,,,,,111,2023-04-24_17h16.09.516,Main,2022.1.1,59.824606248906825,
positive,negative,1,l,j,,,,,,,,,11,1,199,5,,,,,,,,,main,2,2,1,negative,positive,j,j,1,0.7361729999538511,464.83935569995083,465.85213079990353,465.83547009993345,None,464.83935569995083,None,464.83935569995083,None,464.83935569995083,None,466.56662827992113,None,466.56662827992113,None,466.56662827992113,None,,,,,,,,,,,,,,111,2023-04-24_17h16.09.516,Main,2022.1.1,59.824606248906825,
neutral,neutral,1,k,k,,,,,,,,,11,2,200,1,,,,,,,,,main,1,1,1,neutral,neutral,k,k,1,0.6959636000683531,466.5745581999654,467.5853491999442,467.5686974999262,None,466.5745581999654,None,466.5745581999654,None,466.5745581999654,None,468.268652479921,None,468.268652479921,None,468.268652479921,None,,,,,,,,,,,,,,111,2023-04-24_17h16.09.516,Main,2022.1.1,59.824606248906825,
neutral,positive,2,k,k,,,,,,,,,11,3,201,13,,,,,,,,,main,2,2,2,positive,neutral,k,k,1,0.6217213000636548,468.2720198999159,469.2852387999883,469.2686831000028,None,468.2720198999159,None,468.2720198999159,None,468.2720198999159,None,469.89173807989573,None,469.89173807989573,None,469.89173807989573,None,,,,,,,,,,,,,,111,2023-04-24_17h16.09.516,Main,2022.1.1,59.824606248906825,
positive,positive,1,l,j,,,,,,,,,11,4,202,2,,,,,,,,,main,2,2,1,positive,positive,j,j,1,0.6390968000050634,469.90420949994586,470.9163682999788,470.8830528999679,None,469.90420949994586,None,469.90420949994586,None,469.90420949994586,None,471.53308907995233,None,471.53308907995233,None,471.53308907995233,None,,,,,,,,,,,,,,111,2023-04-24_17h16.09.516,Main,2022.1.1,59.824606248906825,
neutral,negative,2,k,k,,,,,,,,,11,5,203,16,,,,,,,,,main,2,2,2,negative,neutral,k,k,1,0.681528199929744,471.5368640999077,472.5496906999033,472.5330509999767,None,471.5368640999077,None,471.5368640999077,None,471.5368640999077,None,473.21630297991214,None,473.21630297991214,None,473.21630297991214,None,,,,,,,,,,,,,,111,2023-04-24_17h16.09.516,Main,2022.1.1,59.824606248906825,
negative,neutral,2,j,l,,,,,,,,,11,6,204,12,,,,,,,,,main,1,1,2,neutral,negative,l,l,1,0.8482678000582382,473.2219721999718,474.23302089993376,474.216202499927,None,473.2219721999718,None,473.2219721999718,None,473.2219721999718,None,475.0663576799561,None,475.0663576799561,None,475.0663576799561,None,,,,,,,,,,,,,,111,2023-04-24_17h16.09.516,Main,2022.1.1,59.824606248906825,
positive,neutral,1,l,j,,,,,,,,,11,7,205,8,,,,,,,,,main,1,1,1,neutral,positive,j,j,1,0.7149665000615641,475.06936749990564,476.06840609991923,476.06840609991923,None,475.06936749990564,None,475.06936749990564,None,475.06936749990564,None,476.7829310799134,None,476.7829310799134,None,476.7829310799134,None,,,,,,,,,,,,,,111,2023-04-24_17h16.09.516,Main,2022.1.1,59.824606248906825,
neutral,neutral,2,k,k,,,,,,,,,11,8,206,10,,,,,,,,,main,1,1,2,neutral,neutral,k,k,1,0.653664999990724,476.78673639998306,477.799619999947,477.782963299891,None,476.78673639998306,None,476.78673639998306,None,476.78673639998306,None,478.4350535799167,None,478.4350535799167,None,478.4350535799167,None,,,,,,,,,,,,,,111,2023-04-24_17h16.09.516,Main,2022.1.1,59.824606248906825,
negative,negative,2,j,l,,,,,,,,,11,9,207,9,,,,,,,,,main,2,2,2,negative,negative,l,l,1,0.7266104000154883,478.44167489989195,479.4517978999065,479.43295559997205,None,478.44167489989195,None,478.44167489989195,None,478.44167489989195,None,480.1662247799686,None,480.1662247799686,None,480.1662247799686,None,,,,,,,,,,,,,,111,2023-04-24_17h16.09.516,Main,2022.1.1,59.824606248906825,
neutral,positive,1,k,k,,,,,,,,,11,10,208,4,,,,,,,,,main,1,1,1,positive,neutral,k,k,1,0.66689100000076,480.1723135999637,481.18501059990376,481.16843199997675,None,480.1723135999637,None,480.1723135999637,None,480.1723135999637,None,481.83495617989684,None,481.83495617989684,None,481.83495617989684,None,,,,,,,,,,,,,,111,2023-04-24_17h16.09.516,Main,2022.1.1,59.824606248906825,
positive,positive,2,l,j,,,,,,,,,11,11,209,11,,,,,,,,,main,1,1,2,positive,positive,j,j,1,0.6801366999279708,481.83824549999554,482.84920589998364,482.83255549997557,None,481.83824549999554,None,481.83824549999554,None,481.83824549999554,None,483.5158114799415,None,483.5158114799415,None,483.5158114799415,None,,,,,,,,,,,,,,111,2023-04-24_17h16.09.516,Main,2022.1.1,59.824606248906825,
neutral,negative,1,k,k,,,,,,,,,11,12,210,7,,,,,,,,,main,1,1,1,negative,neutral,k,k,1,0.6500776000320911,483.5168112999527,484.51592629996594,484.51592629996594,None,483.5168112999527,None,483.5168112999527,None,483.5168112999527,None,485.1683357799775,None,485.1683357799775,None,485.1683357799775,None,,,,,,,,,,,,,,111,2023-04-24_17h16.09.516,Main,2022.1.1,59.824606248906825,
negative,positive,2,j,l,,,,,,,,,11,13,211,15,,,,,,,,,main,1,1,2,positive,negative,l,l,1,0.7626538999611512,485.1719033999834,486.18509859999176,486.16838069993537,None,485.1719033999834,None,485.1719033999834,None,485.1719033999834,None,486.9328466799925,None,486.9328466799925,None,486.9328466799925,None,,,,,,,,,,,,,,111,2023-04-24_17h16.09.516,Main,2022.1.1,59.824606248906825,
positive,negative,2,l,j,,,,,,,,,11,14,212,14,,,,,,,,,main,1,1,2,negative,positive,j,j,1,0.683888699975796,486.9369094999274,487.9516372999642,487.9328038999811,None,486.9369094999274,None,486.9369094999274,None,486.9369094999274,None,488.61815437994665,None,488.61815437994665,None,488.61815437994665,None,,,,,,,,,,,,,,111,2023-04-24_17h16.09.516,Main,2022.1.1,59.824606248906825,
negative,positive,1,j,l,,,,,,,,,11,15,213,6,,,,,,,,,main,2,2,1,positive,negative,l,l,1,0.8154331999830902,488.6214789999649,489.6350346999243,489.6183941999916,None,488.6214789999649,None,488.6214789999649,None,488.6214789999649,None,490.43501467996975,None,490.43501467996975,None,490.43501467996975,None,,,,,,,,,,,,,,111,2023-04-24_17h16.09.516,Main,2022.1.1,59.824606248906825,
negative,negative,1,j,l,,,,,,,,,11,16,214,0,,,,,,,,,main,2,2,1,negative,negative,l,j,0,0.6785588000202551,490.4395536999218,491.45158849994186,491.4349320998881,None,490.4395536999218,None,490.4395536999218,None,490.4395536999218,None,492.11605279997457,None,492.11605279997457,None,492.11605279997457,None,,,,,,,,,,,,,,111,2023-04-24_17h16.09.516,Main,2022.1.1,59.824606248906825,
positive,neutral,2,l,j,,,,,,,,,11,17,215,17,,,,,,,,,main,1,1,2,neutral,positive,j,j,1,0.6702380999922752,493.1157045,494.11567359999754,494.09900329995435,None,493.1157045,None,493.1157045,None,493.1157045,None,494.78233357990393,None,494.78233357990393,None,494.78233357990393,None,,,,,,,,,,,,,,111,2023-04-24_17h16.09.516,Main,2022.1.1,59.824606248906825,
neutral,negative,2,k,k,,,,,,,,,12,0,216,16,,,,,,,,,main,2,2,2,negative,neutral,k,k,1,0.715050800004974,494.78592569998,495.8015056999866,495.78491809999105,None,494.78592569998,None,494.78592569998,None,494.78592569998,None,496.4993258799077,None,496.4993258799077,None,496.4993258799077,None,,,,,,,,,,,,,,111,2023-04-24_17h16.09.516,Main,2022.1.1,59.824606248906825,
positive,neutral,1,l,j,,,,,,,,,12,1,217,8,,,,,,,,,main,1,1,1,neutral,positive,j,j,1,0.681767400004901,496.5024930998916,497.51817149994895,497.5015651999274,None,496.5024930998916,None,496.5024930998916,None,496.5024930998916,None,498.18259297992336,None,498.18259297992336,None,498.18259297992336,None,,,,,,,,,,,,,,111,2023-04-24_17h16.09.516,Main,2022.1.1,59.824606248906825,
negative,negative,2,j,l,,,,,,,,,12,2,218,9,,,,,,,,,main,2,2,2,negative,negative,l,l,1,0.7482670999597758,498.185921199969,499.2013859999133,499.1847620999906,None,498.185921199969,None,498.185921199969,None,498.185921199969,None,499.93224297993584,None,499.93224297993584,None,499.93224297993584,None,,,,,,,,,,,,,,111,2023-04-24_17h16.09.516,Main,2022.1.1,59.824606248906825,
neutral,positive,1,k,k,,,,,,,,,12,3,219,4,,,,,,,,,main,1,1,1,positive,neutral,k,k,1,0.767355400021188,499.93573459994514,500.95133660000283,500.9347621999914,None,499.93573459994514,None,499.93573459994514,None,499.93573459994514,None,501.70128267997643,None,501.70128267997643,None,501.70128267997643,None,,,,,,,,,,,,,,111,2023-04-24_17h16.09.516,Main,2022.1.1,59.824606248906825,
negative,positive,1,j,l,,,,,,,,,12,4,220,6,,,,,,,,,main,1,1,1,positive,negative,l,l,1,0.7803683000383899,501.7055249999976,502.71807669999544,502.7013110999251,None,501.7055249999976,None,501.7055249999976,None,501.7055249999976,None,503.4820538799395,None,503.4820538799395,None,503.4820538799395,None,,,,,,,,,,,,,,111,2023-04-24_17h16.09.516,Main,2022.1.1,59.824606248906825,
neutral,neutral,2,k,k,,,,,,,,,12,5,221,10,,,,,,,,,main,2,2,2,neutral,neutral,k,k,1,0.6805070000700653,503.4834046999458,504.4988014999544,504.4821416999912,None,503.4834046999458,None,503.4834046999458,None,503.4834046999458,None,505.16541077994043,None,505.16541077994043,None,505.16541077994043,None,,,,,,,,,,,,,,111,2023-04-24_17h16.09.516,Main,2022.1.1,59.824606248906825,
positive,neutral,2,l,j,,,,,,,,,12,6,222,17,,,,,,,,,main,2,2,2,neutral,positive,j,j,1,0.6652332000667229,505.16673529997934,506.18209819996264,506.16542999993544,None,505.16673529997934,None,505.16673529997934,None,505.16673529997934,None,506.8320944799925,None,506.8320944799925,None,506.8320944799925,None,,,,,,,,,,,,,,111,2023-04-24_17h16.09.516,Main,2022.1.1,59.824606248906825,
