target,distractor,set,ans1,ans2,rep_loop2.thisRepN,rep_loop2.thisTrialN,rep_loop2.thisN,rep_loop2.thisIndex,flanker_prac_loop.thisRepN,flanker_prac_loop.thisTrialN,flanker_prac_loop.thisN,flanker_prac_loop.thisIndex,flanker_main_loop.thisRepN,flanker_main_loop.thisTrialN,flanker_main_loop.thisN,flanker_main_loop.thisIndex,fl_inst_resp.keys,fl_inst_resp.rt,sound_1.started,sound_1.stopped,image_4.started,image_4.stopped,back_2.started,back_2.stopped,main_prac,fl_cold,fl_colt,fl_set,fl_dcond,fl_tcond,fl_ans,fl_res,fl_corr,fl_rt,fix_fl.started,fix_fl.stopped,targ.started,targ.stopped,j_button.started,j_button.stopped,k_button.started,k_button.stopped,l_button.started,l_button.stopped,j_button2.started,j_button2.stopped,k_button2.started,k_button2.stopped,l_button2.started,l_button2.stopped,mainback.started,mainback.stopped,key_resp.keys,mouse_6.x,mouse_6.y,mouse_6.leftButton,mouse_6.midButton,mouse_6.rightButton,mouse_6.started,mouse_6.stopped,text_2.started,text_2.stopped,id*,date,expName,psychopyVersion,frameRate,
,,,,,0,0,0,0,,,,,,,,,space,7.567671899974812,28.214406320039416,None,35.81410900002811,None,,,,,,,,,,,,,,,,,,,,,,,,,,,,,,,,,,,,,,,,,112,2023-04-20_13h22.23.613,Main,2022.1.1,59.90459595325542,
positive,neutral,1,l,j,,,,,0,0,0,8,,,,,,,,,,,40.54753169999458,None,prac,2,2,1,neutral,positive,l,l,1,1.3563801000127569,42.56143040000461,43.564070700027514,43.54755540000042,None,42.56143040000461,None,42.56143040000461,None,42.56143040000461,None,44.91406652002479,None,44.91406652002479,None,44.91406652002479,None,,,,,,,,,,,,,112,2023-04-20_13h22.23.613,Main,2022.1.1,59.90459595325542,
neutral,neutral,1,k,k,,,,,0,1,1,1,,,,,,,,,,,,,prac,2,2,1,neutral,neutral,k,k,1,0.6955515000154264,44.918413000006694,45.930706900020596,45.91417589999037,None,44.918413000006694,None,44.918413000006694,None,44.918413000006694,None,46.61205462002545,None,46.61205462002545,None,46.61205462002545,None,,,,,,,,,,,,,112,2023-04-20_13h22.23.613,Main,2022.1.1,59.90459595325542,
neutral,positive,2,k,k,,,,,0,2,2,13,,,,,,,,,,,,,prac,2,2,2,positive,neutral,k,l,0,0.61479949997738,46.615838000027,47.627862100023776,47.611702600028366,None,46.615838000027,None,46.615838000027,None,46.615838000027,None,48.22811389999697,None,48.22811389999697,None,48.22811389999697,None,,,,,,,,,,,,,112,2023-04-20_13h22.23.613,Main,2022.1.1,59.90459595325542,
negative,neutral,2,j,l,,,,,0,3,3,12,,,,,,,,,,,,,prac,1,1,2,neutral,negative,j,j,1,0.6703209000406787,49.22817090002354,50.22817200003192,50.21150740003213,None,49.22817090002354,None,49.22817090002354,None,49.22817090002354,None,50.89482231999864,None,50.89482231999864,None,50.89482231999864,None,,,,,,,,,,,,,112,2023-04-20_13h22.23.613,Main,2022.1.1,59.90459595325542,
neutral,negative,1,k,k,,,,,0,4,4,7,,,,,,,,,,,,,prac,1,1,1,negative,neutral,k,k,1,0.48294600000372157,50.89564599998994,51.894812699989416,51.894812699989416,None,50.89564599998994,None,50.89564599998994,None,50.89564599998994,None,52.379199820017675,None,52.379199820017675,None,52.379199820017675,None,,,,,,,,,,,,,112,2023-04-20_13h22.23.613,Main,2022.1.1,59.90459595325542,
negative,positive,1,j,l,,,,,0,5,5,6,,,,,,,,,,,,,prac,2,2,1,positive,negative,j,j,1,0.6667756999959238,52.385433199990075,53.39725290000206,53.38066790002631,None,52.385433199990075,None,52.385433199990075,None,52.385433199990075,None,54.04735362002975,None,54.04735362002975,None,54.04735362002975,None,,,,,,,,,,,,,112,2023-04-20_13h22.23.613,Main,2022.1.1,59.90459595325542,
negative,neutral,1,j,l,,,,,0,6,6,3,,,,,,,,,,,,,prac,2,2,1,neutral,negative,j,j,1,0.6297337000141852,54.05109470000025,55.06177520001074,55.04734029999236,None,54.05109470000025,None,54.05109470000025,None,54.05109470000025,None,55.678400620032335,None,55.678400620032335,None,55.678400620032335,None,,,,,,,,,,,,,112,2023-04-20_13h22.23.613,Main,2022.1.1,59.90459595325542,
negative,negative,1,j,l,,,,,0,7,7,0,,,,,,,,,,,,,prac,2,2,1,negative,negative,j,j,1,0.5320862000226043,55.681929800019134,56.69720160000725,56.68049900000915,None,55.681929800019134,None,55.681929800019134,None,55.681929800019134,None,57.21167082004831,None,57.21167082004831,None,57.21167082004831,None,,,,,,,,,,,,,112,2023-04-20_13h22.23.613,Main,2022.1.1,59.90459595325542,
neutral,positive,1,k,k,,,,,0,8,8,4,,,,,,,,,,,,,prac,1,1,1,positive,neutral,k,k,1,0.5519070000154898,57.214965099992696,58.23044230003143,58.213938000029884,None,57.214965099992696,None,57.214965099992696,None,57.214965099992696,None,58.76396932001808,None,58.76396932001808,None,58.76396932001808,None,,,,,,,,,,,,,112,2023-04-20_13h22.23.613,Main,2022.1.1,59.90459595325542,
positive,negative,1,l,j,,,,,0,9,9,5,,,,,,,,,,,,,prac,2,2,1,negative,positive,l,l,1,0.5616023999755271,58.76819269999396,59.777885299990885,59.76124310004525,None,58.76819269999396,None,58.76819269999396,None,58.76819269999396,None,60.32790942004067,None,60.32790942004067,None,60.32790942004067,None,,,,,,,,,,,,,112,2023-04-20_13h22.23.613,Main,2022.1.1,59.90459595325542,
negative,negative,2,j,l,,,,,0,10,10,9,,,,,,,,,,,,,prac,2,2,2,negative,negative,j,j,1,1.265333899995312,60.3279174999916,61.32791079999879,61.32791079999879,None,60.3279174999916,None,60.3279174999916,None,60.3279174999916,None,62.59457082001609,None,62.59457082001609,None,62.59457082001609,None,,,,,,,,,,,,,112,2023-04-20_13h22.23.613,Main,2022.1.1,59.90459595325542,
positive,negative,2,l,j,,,,,0,11,11,14,,,,,,,,,,,,,prac,2,2,2,negative,positive,l,l,1,0.7489127999870107,62.59457040001871,63.59458430000814,63.59458430000814,None,62.59457040001871,None,62.59457040001871,None,62.59457040001871,None,64.34458622001694,None,64.34458622001694,None,64.34458622001694,None,,,,,,,,,,,,,112,2023-04-20_13h22.23.613,Main,2022.1.1,59.90459595325542,
positive,neutral,2,l,j,,,,,0,12,12,17,,,,,,,,,,,,,prac,1,1,2,neutral,positive,l,l,1,0.6825114999664947,64.35030580003513,65.3636797000072,65.34715690003941,None,64.35030580003513,None,64.35030580003513,None,64.35030580003513,None,66.02820082000108,None,66.02820082000108,None,66.02820082000108,None,,,,,,,,,,,,,112,2023-04-20_13h22.23.613,Main,2022.1.1,59.90459595325542,
negative,positive,2,j,l,,,,,0,13,13,15,,,,,,,,,,,,,prac,2,2,2,positive,negative,j,j,1,0.6494357000337914,66.03420230001211,67.0470975000062,67.0279145000386,None,66.03420230001211,None,66.03420230001211,None,66.03420230001211,None,67.67785072003608,None,67.67785072003608,None,67.67785072003608,None,,,,,,,,,,,,,112,2023-04-20_13h22.23.613,Main,2022.1.1,59.90459595325542,
neutral,neutral,2,k,k,,,,,0,14,14,10,,,,,,,,,,,,,prac,1,1,2,neutral,neutral,k,k,1,0.5665809999918565,67.68207560002338,68.69477430003462,68.68030670000007,None,67.68207560002338,None,67.68207560002338,None,67.68207560002338,None,69.24684472000808,None,69.24684472000808,None,69.24684472000808,None,,,,,,,,,,,,,112,2023-04-20_13h22.23.613,Main,2022.1.1,59.90459595325542,
neutral,negative,2,k,k,,,,,0,15,15,16,,,,,,,,,,,,,prac,2,2,2,negative,neutral,k,k,1,1.1152625000104308,69.24996059999103,70.26352470001439,70.24690760002704,None,69.24996059999103,None,69.24996059999103,None,69.24996059999103,None,71.36370082004578,None,71.36370082004578,None,71.36370082004578,None,,,,,,,,,,,,,112,2023-04-20_13h22.23.613,Main,2022.1.1,59.90459595325542,
positive,positive,2,l,j,,,,,0,16,16,11,,,,,,,,,,,,,prac,2,2,2,positive,positive,l,l,1,0.6963603000040166,71.36720080004307,72.37762169999769,72.36007470003096,None,71.36720080004307,None,71.36720080004307,None,71.36720080004307,None,73.06102272003773,None,73.06102272003773,None,73.06102272003773,None,,,,,,,,,,,,,112,2023-04-20_13h22.23.613,Main,2022.1.1,59.90459595325542,
positive,positive,1,l,j,,,,,0,17,17,2,,,,,,,,,,,,,prac,1,1,1,positive,positive,l,l,1,0.6987687000073493,73.06096530001378,74.06097700004466,74.06097700004466,None,73.06096530001378,None,73.06096530001378,None,73.06096530001378,None,74.76101802001358,None,74.76101802001358,None,74.76101802001358,None,,,,,,,,,,,,,112,2023-04-20_13h22.23.613,Main,2022.1.1,59.90459595325542,
positive,neutral,2,l,j,,,,,1,0,18,17,,,,,,,,,,,,,prac,2,2,2,neutral,positive,l,l,1,0.8183231999864802,74.76673900004243,75.78023910004413,75.76356260001194,None,74.76673900004243,None,74.76673900004243,None,74.76673900004243,None,76.58032942001591,None,76.58032942001591,None,76.58032942001591,None,,,,,,,,,,,,,112,2023-04-20_13h22.23.613,Main,2022.1.1,59.90459595325542,
negative,positive,2,j,l,,,,,1,1,19,15,,,,,,,,,,,,,prac,2,2,2,positive,negative,j,j,1,0.729986899998039,76.58490980003262,77.59680850000586,77.58017170004314,None,76.58490980003262,None,76.58490980003262,None,76.58490980003262,None,78.31219062002492,None,78.31219062002492,None,78.31219062002492,None,,,,,,,,,,,,,112,2023-04-20_13h22.23.613,Main,2022.1.1,59.90459595325542,
negative,neutral,2,j,l,,,,,1,2,20,12,,,,,,,,,,,,,prac,1,1,2,neutral,negative,j,j,1,0.6642140000476502,78.31795390002662,79.33005400002003,79.31338669999968,None,78.31795390002662,None,78.31795390002662,None,78.31795390002662,None,79.97793041999103,None,79.97793041999103,None,79.97793041999103,None,,,,,,,,,,,,,112,2023-04-20_13h22.23.613,Main,2022.1.1,59.90459595325542,
positive,positive,2,l,j,,,,,1,3,21,11,,,,,,,,,,,,,prac,1,1,2,positive,positive,l,l,1,0.687474399979692,79.98182929999894,80.99669940001331,80.963472500036,None,79.98182929999894,None,79.98182929999894,None,79.98182929999894,None,81.66383192004287,None,81.66383192004287,None,81.66383192004287,None,,,,,,,,,,,,,112,2023-04-20_13h22.23.613,Main,2022.1.1,59.90459595325542,
neutral,positive,2,k,k,,,,,1,4,22,13,,,,,,,,,,,,,prac,2,2,2,positive,neutral,k,k,1,0.626407100004144,81.66966700000921,82.66942180000478,82.65999150002608,None,81.66966700000921,None,81.66966700000921,None,81.66966700000921,None,83.29414282002836,None,83.29414282002836,None,83.29414282002836,None,,,,,,,,,,,,,112,2023-04-20_13h22.23.613,Main,2022.1.1,59.90459595325542,
neutral,negative,2,k,k,,,,,1,5,23,16,,,,,,,,,,,,,prac,1,1,2,negative,neutral,k,k,1,0.5320692000095733,83.29413809999824,84.29411190003157,84.29411190003157,None,83.29413809999824,None,83.29413809999824,None,83.29413809999824,None,84.82748672002344,None,84.82748672002344,None,84.82748672002344,None,,,,,,,,,,,,,112,2023-04-20_13h22.23.613,Main,2022.1.1,59.90459595325542,
positive,negative,1,l,j,,,,,1,6,24,5,,,,,,,,,,,,,prac,2,2,1,negative,positive,l,l,1,0.635846599994693,84.830849400023,85.83007170003839,85.83007170003839,None,84.830849400023,None,84.830849400023,None,84.830849400023,None,86.46429752002587,None,86.46429752002587,None,86.46429752002587,None,,,,,,,,,,,,,112,2023-04-20_13h22.23.613,Main,2022.1.1,59.90459595325542,
positive,neutral,1,l,j,,,,,1,7,25,8,,,,,,,,,,,,,prac,2,2,1,neutral,positive,l,l,1,0.7449015000020154,86.46776410000166,87.47998400003416,87.46336440002779,None,86.46776410000166,None,86.46776410000166,None,86.46776410000166,None,88.21075602000928,None,88.21075602000928,None,88.21075602000928,None,,,,,,,,,,,,,112,2023-04-20_13h22.23.613,Main,2022.1.1,59.90459595325542,
negative,negative,2,j,l,,,,,1,8,26,9,,,,,,,,,,,,,prac,1,1,2,negative,negative,j,j,1,0.631953899981454,88.22985649999464,89.22991940000793,89.19655320001766,None,88.22985649999464,None,88.22985649999464,None,88.22985649999464,None,89.84432032002951,None,89.84432032002951,None,89.84432032002951,None,,,,,,,,,,,,,112,2023-04-20_13h22.23.613,Main,2022.1.1,59.90459595325542,
neutral,positive,1,k,k,,,,,1,9,27,4,,,,,,,,,,,,,prac,2,2,1,positive,neutral,k,k,1,0.6988141000038013,89.85108550003497,90.86311939998996,90.8298696000129,None,89.85108550003497,None,89.85108550003497,None,89.85108550003497,None,91.54402512000524,None,91.54402512000524,None,91.54402512000524,None,,,,,,,,,,,,,112,2023-04-20_13h22.23.613,Main,2022.1.1,59.90459595325542,
neutral,neutral,2,k,k,,,,,1,10,28,10,,,,,,,,,,,,,prac,1,1,2,neutral,neutral,k,k,1,0.5652198999887332,91.5523463000427,92.56307590001961,92.54657420003787,None,91.5523463000427,None,91.5523463000427,None,91.5523463000427,None,93.11058472000877,None,93.11058472000877,None,93.11058472000877,None,,,,,,,,,,,,,112,2023-04-20_13h22.23.613,Main,2022.1.1,59.90459595325542,
negative,negative,1,j,l,,,,,1,11,29,0,,,,,,,,,,,,,prac,1,1,1,negative,negative,j,j,1,0.7321820000070147,93.11054170003626,94.11058030003915,94.11058030003915,None,93.11054170003626,None,93.11054170003626,None,93.11054170003626,None,94.84391212000628,None,94.84391212000628,None,94.84391212000628,None,,,,,,,,,,,,,112,2023-04-20_13h22.23.613,Main,2022.1.1,59.90459595325542,
positive,positive,1,l,j,,,,,1,12,30,2,,,,,,,,,,,,,prac,2,2,1,positive,positive,l,l,1,0.6652936000027694,94.84440619999077,95.84392380004283,95.84392380004283,None,94.84440619999077,None,94.84440619999077,None,94.84440619999077,None,96.51058932000888,None,96.51058932000888,None,96.51058932000888,None,,,,,,,,,,,,,112,2023-04-20_13h22.23.613,Main,2022.1.1,59.90459595325542,
neutral,negative,1,k,k,,,,,1,13,31,7,,,,,,,,,,,,,prac,2,2,1,negative,neutral,k,k,1,0.5826191999949515,96.51698320003925,97.52987950004172,97.49653870001202,None,96.51698320003925,None,96.51698320003925,None,96.51698320003925,None,98.09421681999811,None,98.09421681999811,None,98.09421681999811,None,,,,,,,,,,,,,112,2023-04-20_13h22.23.613,Main,2022.1.1,59.90459595325542,
neutral,neutral,1,k,k,,,,,1,14,32,1,,,,,,,,,,,,,prac,2,2,1,neutral,neutral,k,k,1,0.48365810001268983,98.10033310001018,99.11303280002903,99.09639540000353,None,98.10033310001018,None,98.10033310001018,None,98.10033310001018,None,99.57962291999138,None,99.57962291999138,None,99.57962291999138,None,,,,,,,,,,,,,112,2023-04-20_13h22.23.613,Main,2022.1.1,59.90459595325542,
negative,positive,1,j,l,,,,,1,15,33,6,,,,,,,,,,,,,prac,2,2,1,positive,negative,j,j,1,0.6990796999889426,99.58271200000308,100.59632050001528,100.579749800032,None,99.58271200000308,None,99.58271200000308,None,99.58271200000308,None,101.27980372004095,None,101.27980372004095,None,101.27980372004095,None,,,,,,,,,,,,,112,2023-04-20_13h22.23.613,Main,2022.1.1,59.90459595325542,
negative,neutral,1,j,l,,,,,1,16,34,3,,,,,,,,,,,,,prac,2,2,1,neutral,negative,j,j,1,0.629395600000862,101.28370410000207,102.29632349999156,102.27969630004372,None,101.28370410000207,None,101.28370410000207,None,101.28370410000207,None,102.91069252000307,None,102.91069252000307,None,102.91069252000307,None,,,,,,,,,,,,,112,2023-04-20_13h22.23.613,Main,2022.1.1,59.90459595325542,
positive,negative,2,l,j,,,,,1,17,35,14,,,,,,,,,,,,,prac,2,2,2,negative,positive,l,l,1,0.6677792000118643,102.91741749999346,103.92954189999728,103.89632609998807,None,102.91741749999346,None,102.91741749999346,None,102.91741749999346,None,104.5796226200473,None,104.5796226200473,None,104.5796226200473,None,,,,,,,,,,,,,112,2023-04-20_13h22.23.613,Main,2022.1.1,59.90459595325542,
,,,,,,,,,,,,,,,,,,,,,,,,,,,,,,,,,,,,,,,,,,,,,,,,,,,104.57741910003824,None,None,,,,,,,,,,112,2023-04-20_13h22.23.613,Main,2022.1.1,59.90459595325542,
,,,,,,,,,,,,,,,,,,,,,,,,,,,,,,,,,,,,,,,,,,,,,,,,,,,,,,0.6953704,-0.22314815,1,0,0,0.011045719962567091,None,,,112,2023-04-20_13h22.23.613,Main,2022.1.1,59.90459595325542,
neutral,neutral,1,k,k,,,,,,,,,0,0,0,1,,,,,,,106.39366060000611,None,main,1,1,1,neutral,neutral,k,k,1,0.6120721999905072,108.40080520004267,109.41285240004072,109.39620280003874,None,108.40080520004267,None,108.40080520004267,None,108.40080520004267,None,110.01094602004741,None,110.01094602004741,None,110.01094602004741,None,,,,,,,,,,,,,112,2023-04-20_13h22.23.613,Main,2022.1.1,59.90459595325542,
neutral,positive,2,k,k,,,,,,,,,0,1,1,13,,,,,,,,,main,2,2,2,positive,neutral,k,k,1,0.5679754000157118,110.017503900046,111.02949139999691,111.01277900004061,None,110.017503900046,None,110.017503900046,None,110.017503900046,None,111.58124652001425,None,111.58124652001425,None,111.58124652001425,None,,,,,,,,,,,,,112,2023-04-20_13h22.23.613,Main,2022.1.1,59.90459595325542,
negative,positive,2,j,l,,,,,,,,,0,2,2,15,,,,,,,,,main,1,1,2,positive,negative,j,j,1,0.6609401000314392,111.58473260002211,112.59609669999918,112.57723440002883,None,111.58473260002211,None,111.58473260002211,None,111.58473260002211,None,113.24391062001814,None,113.24391062001814,None,113.24391062001814,None,,,,,,,,,,,,,112,2023-04-20_13h22.23.613,Main,2022.1.1,59.90459595325542,
negative,positive,1,j,l,,,,,,,,,0,3,3,6,,,,,,,,,main,2,2,1,positive,negative,j,j,1,1.1982756999786943,113.24988600000506,114.26254210004117,114.24601320002694,None,113.24988600000506,None,113.24988600000506,None,113.24988600000506,None,115.44365622001351,None,115.44365622001351,None,115.44365622001351,None,,,,,,,,,,,,,112,2023-04-20_13h22.23.613,Main,2022.1.1,59.90459595325542,
negative,negative,1,j,l,,,,,,,,,0,4,4,0,,,,,,,,,main,2,2,1,negative,negative,j,j,1,0.6148593999678269,115.44993719999911,116.46011799998814,116.44343350001145,None,115.44993719999911,None,115.44993719999911,None,115.44993719999911,None,117.06011162002687,None,117.06011162002687,None,117.06011162002687,None,,,,,,,,,,,,,112,2023-04-20_13h22.23.613,Main,2022.1.1,59.90459595325542,
neutral,negative,2,k,k,,,,,,,,,0,5,5,16,,,,,,,,,main,1,1,2,negative,neutral,k,k,1,0.5988524999702349,117.06008329999167,118.06015920004575,118.06015920004575,None,117.06008329999167,None,117.06008329999167,None,117.06008329999167,None,118.6602787199954,None,118.6602787199954,None,118.6602787199954,None,,,,,,,,,,,,,112,2023-04-20_13h22.23.613,Main,2022.1.1,59.90459595325542,
positive,neutral,1,l,j,,,,,,,,,0,6,6,8,,,,,,,,,main,2,2,1,neutral,positive,l,l,1,0.6503841999801807,118.6671886999975,119.67926490004174,119.66257670003688,None,118.6671886999975,None,118.6671886999975,None,118.6671886999975,None,120.31018082002993,None,120.31018082002993,None,120.31018082002993,None,,,,,,,,,,,,,112,2023-04-20_13h22.23.613,Main,2022.1.1,59.90459595325542,
negative,neutral,2,j,l,,,,,,,,,0,7,7,12,,,,,,,,,main,1,1,2,neutral,negative,j,j,1,0.6628444000380114,120.3174272000324,121.32711690000724,121.31259990000399,None,120.3174272000324,None,120.3174272000324,None,120.3174272000324,None,121.9770490200317,None,121.9770490200317,None,121.9770490200317,None,,,,,,,,,,,,,112,2023-04-20_13h22.23.613,Main,2022.1.1,59.90459595325542,
neutral,neutral,2,k,k,,,,,,,,,0,8,8,10,,,,,,,,,main,1,1,2,neutral,neutral,k,k,1,0.567172999959439,121.9826524000382,122.99582450004527,122.97924960003002,None,121.9826524000382,None,121.9826524000382,None,121.9826524000382,None,123.54589611999108,None,123.54589611999108,None,123.54589611999108,None,,,,,,,,,,,,,112,2023-04-20_13h22.23.613,Main,2022.1.1,59.90459595325542,
neutral,positive,1,k,k,,,,,,,,,0,9,9,4,,,,,,,,,main,1,1,1,positive,neutral,k,k,1,0.5620502000092529,123.55050710000796,124.56244629999856,124.54334040003596,None,123.55050710000796,None,123.55050710000796,None,123.55050710000796,None,125.11035792002804,None,125.11035792002804,None,125.11035792002804,None,,,,,,,,,,,,,112,2023-04-20_13h22.23.613,Main,2022.1.1,59.90459595325542,
positive,positive,1,l,j,,,,,,,,,0,10,10,2,,,,,,,,,main,2,2,1,positive,positive,l,l,1,0.6491128000197932,125.11667080002371,126.12604460003786,126.10912390000885,None,125.11667080002371,None,125.11667080002371,None,125.11667080002371,None,126.75988401999348,None,126.75988401999348,None,126.75988401999348,None,,,,,,,,,,,,,112,2023-04-20_13h22.23.613,Main,2022.1.1,59.90459595325542,
negative,neutral,1,j,l,,,,,,,,,0,11,11,3,,,,,,,,,main,2,2,1,neutral,negative,j,j,1,0.9473031000234187,126.76181050000014,127.77657799998997,127.759905599989,None,126.76181050000014,None,126.76181050000014,None,126.76181050000014,None,128.7099156200129,None,128.7099156200129,None,128.7099156200129,None,,,,,,,,,,,,,112,2023-04-20_13h22.23.613,Main,2022.1.1,59.90459595325542,
positive,positive,2,l,j,,,,,,,,,0,12,12,11,,,,,,,,,main,1,1,2,positive,positive,l,l,1,0.7485092999995686,128.7129711000016,129.7265841999906,129.70992090000072,None,128.7129711000016,None,128.7129711000016,None,128.7129711000016,None,130.45989952000673,None,130.45989952000673,None,130.45989952000673,None,,,,,,,,,,,,,112,2023-04-20_13h22.23.613,Main,2022.1.1,59.90459595325542,
positive,negative,2,l,j,,,,,,,,,0,13,13,14,,,,,,,,,main,2,2,2,negative,positive,l,l,1,0.6147215999662876,130.4659876000369,131.47897290001856,131.46238929999527,None,130.4659876000369,None,130.4659876000369,None,130.4659876000369,None,132.07690272000036,None,132.07690272000036,None,132.07690272000036,None,,,,,,,,,,,,,112,2023-04-20_13h22.23.613,Main,2022.1.1,59.90459595325542,
negative,negative,2,j,l,,,,,,,,,0,14,14,9,,,,,,,,,main,2,2,2,negative,negative,j,j,1,0.7004635999910533,132.08074210002087,133.09564680000767,133.07906000001822,None,132.08074210002087,None,132.08074210002087,None,132.08074210002087,None,133.77901851999923,None,133.77901851999923,None,133.77901851999923,None,,,,,,,,,,,,,112,2023-04-20_13h22.23.613,Main,2022.1.1,59.90459595325542,
neutral,negative,1,k,k,,,,,,,,,0,15,15,7,,,,,,,,,main,1,1,1,negative,neutral,k,k,1,0.632547200017143,133.78225520002889,134.79571400000714,134.7791111000115,None,133.78225520002889,None,133.78225520002889,None,133.78225520002889,None,135.412335119996,None,135.412335119996,None,135.412335119996,None,,,,,,,,,,,,,112,2023-04-20_13h22.23.613,Main,2022.1.1,59.90459595325542,
positive,neutral,2,l,j,,,,,,,,,0,16,16,17,,,,,,,,,main,2,2,2,neutral,positive,l,l,1,0.6288572000339627,135.41659630002687,136.42879159998847,136.4123954999959,None,135.41659630002687,None,135.41659630002687,None,135.41659630002687,None,137.0433991200116,None,137.0433991200116,None,137.0433991200116,None,,,,,,,,,,,,,112,2023-04-20_13h22.23.613,Main,2022.1.1,59.90459595325542,
positive,negative,1,l,j,,,,,,,,,0,17,17,5,,,,,,,,,main,2,2,1,negative,positive,l,l,1,0.6984595999820158,137.0471441000118,138.062219000014,138.04558610002277,None,137.0471441000118,None,137.0471441000118,None,137.0471441000118,None,138.74342022000928,None,138.74342022000928,None,138.74342022000928,None,,,,,,,,,,,,,112,2023-04-20_13h22.23.613,Main,2022.1.1,59.90459595325542,
negative,neutral,2,j,l,,,,,,,,,1,0,18,12,,,,,,,,,main,2,2,2,neutral,negative,j,j,1,0.6311965999775566,138.74935230001574,139.75962830003118,139.7429624000215,None,138.74935230001574,None,138.74935230001574,None,138.74935230001574,None,140.37627442003577,None,140.37627442003577,None,140.37627442003577,None,,,,,,,,,,,,,112,2023-04-20_13h22.23.613,Main,2022.1.1,59.90459595325542,
neutral,neutral,1,k,k,,,,,,,,,1,1,19,1,,,,,,,,,main,2,2,1,neutral,neutral,k,k,1,0.5818658999633044,140.37626500002807,141.37635610002326,141.37635610002326,None,140.37626500002807,None,140.37626500002807,None,140.37626500002807,None,141.95966911999858,None,141.95966911999858,None,141.95966911999858,None,,,,,,,,,,,,,112,2023-04-20_13h22.23.613,Main,2022.1.1,59.90459595325542,
neutral,neutral,2,k,k,,,,,,,,,1,2,20,10,,,,,,,,,main,1,1,2,neutral,neutral,k,k,1,0.6988355999928899,141.96295600000303,142.9621649000328,142.9621649000328,None,141.96295600000303,None,141.96295600000303,None,141.96295600000303,None,143.65963611999177,None,143.65963611999177,None,143.65963611999177,None,,,,,,,,,,,,,112,2023-04-20_13h22.23.613,Main,2022.1.1,59.90459595325542,
positive,positive,2,l,j,,,,,,,,,1,3,21,11,,,,,,,,,main,2,2,2,positive,positive,l,l,1,0.6327228000154719,143.66604879999068,144.6788283000351,144.66220369999064,None,143.66604879999068,None,143.66604879999068,None,143.66604879999068,None,145.29429322000942,None,145.29429322000942,None,145.29429322000942,None,,,,,,,,,,,,,112,2023-04-20_13h22.23.613,Main,2022.1.1,59.90459595325542,
negative,negative,1,j,l,,,,,,,,,1,4,22,0,,,,,,,,,main,1,1,1,negative,negative,j,j,1,0.59953950002091,145.3028816000442,146.31200620002346,146.2954393000109,None,145.3028816000442,None,145.3028816000442,None,145.3028816000442,None,146.89530592001393,None,146.89530592001393,None,146.89530592001393,None,,,,,,,,,,,,,112,2023-04-20_13h22.23.613,Main,2022.1.1,59.90459595325542,
positive,negative,2,l,j,,,,,,,,,1,5,23,14,,,,,,,,,main,2,2,2,negative,positive,l,l,1,0.6327873999834992,146.89875839999877,147.91192119999323,147.89534670003923,None,146.89875839999877,None,146.89875839999877,None,146.89875839999877,None,148.52864462000434,None,148.52864462000434,None,148.52864462000434,None,,,,,,,,,,,,,112,2023-04-20_13h22.23.613,Main,2022.1.1,59.90459595325542,
negative,positive,1,j,l,,,,,,,,,1,6,24,6,,,,,,,,,main,1,1,1,positive,negative,j,j,1,0.6613863999955356,148.53313759999583,149.54231330001494,149.52422280004248,None,148.53313759999583,None,148.53313759999583,None,148.53313759999583,None,150.1927468200156,None,150.1927468200156,None,150.1927468200156,None,,,,,,,,,,,,,112,2023-04-20_13h22.23.613,Main,2022.1.1,59.90459595325542,
neutral,negative,2,k,k,,,,,,,,,1,7,25,16,,,,,,,,,main,1,1,2,negative,neutral,k,k,1,0.5687776999548078,150.1939807999879,151.2094456999912,151.19276320002973,None,150.1939807999879,None,150.1939807999879,None,150.1939807999879,None,151.7639990200114,None,151.7639990200114,None,151.7639990200114,None,,,,,,,,,,,,,112,2023-04-20_13h22.23.613,Main,2022.1.1,59.90459595325542,
positive,neutral,2,l,j,,,,,,,,,1,8,26,17,,,,,,,,,main,1,1,2,neutral,positive,l,l,1,0.6439398000366054,151.76739540003473,152.77855530002853,152.76193010003772,None,151.76739540003473,None,151.76739540003473,None,151.76739540003473,None,153.40979092000634,None,153.40979092000634,None,153.40979092000634,None,,,,,,,,,,,,,112,2023-04-20_13h22.23.613,Main,2022.1.1,59.90459595325542,
positive,positive,1,l,j,,,,,,,,,1,9,27,2,,,,,,,,,main,1,1,1,positive,positive,l,l,1,0.6833993999753147,153.4160477000405,154.42851810000138,154.41194050002377,None,153.4160477000405,None,153.4160477000405,None,153.4160477000405,None,155.09521262001363,None,155.09521262001363,None,155.09521262001363,None,,,,,,,,,,,,,112,2023-04-20_13h22.23.613,Main,2022.1.1,59.90459595325542,
positive,neutral,1,l,j,,,,,,,,,1,10,28,8,,,,,,,,,main,2,2,1,neutral,positive,l,l,1,0.6814209999865852,155.09934300003806,156.11188730003778,156.09522260003723,None,155.09934300003806,None,155.09934300003806,None,155.09934300003806,None,156.7785115200386,None,156.7785115200386,None,156.7785115200386,None,,,,,,,,,,,,,112,2023-04-20_13h22.23.613,Main,2022.1.1,59.90459595325542,
negative,negative,2,j,l,,,,,,,,,1,11,29,9,,,,,,,,,main,1,1,2,negative,negative,j,j,1,0.5982933000195771,156.78259320004145,157.7951013999991,157.77632390003419,None,156.78259320004145,None,156.78259320004145,None,156.78259320004145,None,158.3784404199978,None,158.3784404199978,None,158.3784404199978,None,,,,,,,,,,,,,112,2023-04-20_13h22.23.613,Main,2022.1.1,59.90459595325542,
neutral,positive,1,k,k,,,,,,,,,1,12,30,4,,,,,,,,,main,1,1,1,positive,neutral,k,k,1,0.6118183999788016,158.38266719999956,159.3951490999898,159.37856670003384,None,158.38266719999956,None,158.38266719999956,None,158.38266719999956,None,159.9925389199925,None,159.9925389199925,None,159.9925389199925,None,,,,,,,,,,,,,112,2023-04-20_13h22.23.613,Main,2022.1.1,59.90459595325542,
negative,neutral,1,j,l,,,,,,,,,1,13,31,3,,,,,,,,,main,2,2,1,neutral,negative,j,l,0,0.4982497000019066,159.9927052000421,160.9925782000064,160.9925782000064,None,159.9927052000421,None,159.9927052000421,None,159.9927052000421,None,161.49255150003592,None,161.49255150003592,None,161.49255150003592,None,,,,,,,,,,,,,112,2023-04-20_13h22.23.613,Main,2022.1.1,59.90459595325542,
positive,negative,1,l,j,,,,,,,,,1,14,32,5,,,,,,,,,main,1,1,1,negative,positive,l,l,1,0.6896579999593087,162.49261270003626,163.49502010003198,163.47849990002578,None,162.49261270003626,None,162.49261270003626,None,162.49261270003626,None,164.17836332003935,None,164.17836332003935,None,164.17836332003935,None,,,,,,,,,,,,,112,2023-04-20_13h22.23.613,Main,2022.1.1,59.90459595325542,
neutral,negative,1,k,k,,,,,,,,,1,15,33,7,,,,,,,,,main,2,2,1,negative,neutral,k,k,1,0.6800368000403978,164.18221749999793,165.1949517999892,165.17836520000128,None,164.18221749999793,None,164.18221749999793,None,164.18221749999793,None,165.86052392001147,None,165.86052392001147,None,165.86052392001147,None,,,,,,,,,,,,,112,2023-04-20_13h22.23.613,Main,2022.1.1,59.90459595325542,
negative,positive,2,j,l,,,,,,,,,1,16,34,15,,,,,,,,,main,1,1,2,positive,negative,j,k,0,-0.1529197000199929,165.86632790003205,None,None,None,165.86632790003205,None,165.86632790003205,None,165.86632790003205,None,166.7105303000426,None,166.7105303000426,None,166.7105303000426,None,,,,,,,,,,,,,112,2023-04-20_13h22.23.613,Main,2022.1.1,59.90459595325542,
neutral,positive,2,k,k,,,,,,,,,1,17,35,13,,,,,,,,,main,2,2,2,positive,neutral,k,k,1,0.6524460999644361,169.70908180001425,170.7090632999898,170.69236240000464,None,169.70908180001425,None,169.70908180001425,None,169.70908180001425,None,171.35901432004175,None,171.35901432004175,None,171.35901432004175,None,,,,,,,,,,,,,112,2023-04-20_13h22.23.613,Main,2022.1.1,59.90459595325542,
negative,positive,1,j,l,,,,,,,,,2,0,36,6,,,,,,,,,main,1,1,1,positive,negative,j,j,1,0.6989473000285216,171.375693900045,172.37827879999531,172.36154270003317,None,171.375693900045,None,171.375693900045,None,171.375693900045,None,173.05966451999848,None,173.05966451999848,None,173.05966451999848,None,,,,,,,,,,,,,112,2023-04-20_13h22.23.613,Main,2022.1.1,59.90459595325542,
neutral,positive,2,k,k,,,,,,,,,2,1,37,13,,,,,,,,,main,1,1,2,positive,neutral,k,k,1,0.6148700000485405,173.06578770000488,174.07805579999695,174.05906890000915,None,173.06578770000488,None,173.06578770000488,None,173.06578770000488,None,174.67603202004102,None,174.67603202004102,None,174.67603202004102,None,,,,,,,,,,,,,112,2023-04-20_13h22.23.613,Main,2022.1.1,59.90459595325542,
negative,negative,2,j,l,,,,,,,,,2,2,38,9,,,,,,,,,main,1,1,2,negative,negative,j,j,1,0.7311499000061303,174.6820649000001,175.69475540000712,175.67817050003214,None,174.6820649000001,None,174.6820649000001,None,174.6820649000001,None,176.40909312004806,None,176.40909312004806,None,176.40909312004806,None,,,,,,,,,,,,,112,2023-04-20_13h22.23.613,Main,2022.1.1,59.90459595325542,
neutral,neutral,2,k,k,,,,,,,,,2,3,39,10,,,,,,,,,main,1,1,2,neutral,neutral,k,k,1,0.6175327000091784,176.4149512000149,177.42811690003145,177.39484439999796,None,176.4149512000149,None,176.4149512000149,None,176.4149512000149,None,178.02809712002636,None,178.02809712002636,None,178.02809712002636,None,,,,,,,,,,,,,112,2023-04-20_13h22.23.613,Main,2022.1.1,59.90459595325542,
positive,negative,1,l,j,,,,,,,,,2,4,40,5,,,,,,,,,main,1,1,1,negative,positive,l,l,1,0.6654969999799505,178.03212180000264,179.04256390000228,179.0281832999899,None,178.03212180000264,None,178.03212180000264,None,178.03212180000264,None,179.69484182001906,None,179.69484182001906,None,179.69484182001906,None,,,,,,,,,,,,,112,2023-04-20_13h22.23.613,Main,2022.1.1,59.90459595325542,
neutral,neutral,1,k,k,,,,,,,,,2,5,41,1,,,,,,,,,main,1,1,1,neutral,neutral,k,k,1,0.5788742000004277,179.70116960001178,180.70888570003444,180.6921100000036,None,179.70116960001178,None,179.70116960001178,None,179.70116960001178,None,181.27542842002003,None,181.27542842002003,None,181.27542842002003,None,,,,,,,,,,,,,112,2023-04-20_13h22.23.613,Main,2022.1.1,59.90459595325542,
negative,neutral,2,j,l,,,,,,,,,2,6,42,12,,,,,,,,,main,2,2,2,neutral,negative,j,j,1,0.6319445000262931,181.27543159999186,182.27547610003967,182.27547610003967,None,181.27543159999186,None,181.27543159999186,None,181.27543159999186,None,182.90880022002966,None,182.90880022002966,None,182.90880022002966,None,,,,,,,,,,,,,112,2023-04-20_13h22.23.613,Main,2022.1.1,59.90459595325542,
positive,neutral,2,l,j,,,,,,,,,2,7,43,17,,,,,,,,,main,2,2,2,neutral,positive,l,l,1,0.7316105999634601,182.9093281000387,183.90882160002366,183.90882160002366,None,182.9093281000387,None,182.9093281000387,None,182.9093281000387,None,184.64214012000593,None,184.64214012000593,None,184.64214012000593,None,,,,,,,,,,,,,112,2023-04-20_13h22.23.613,Main,2022.1.1,59.90459595325542,
negative,neutral,1,j,l,,,,,,,,,2,8,44,3,,,,,,,,,main,1,1,1,neutral,negative,j,j,1,0.6845181999960914,184.64722360001178,185.66125460003968,185.62805639998987,None,184.64722360001178,None,184.64722360001178,None,184.64722360001178,None,186.32815792001202,None,186.32815792001202,None,186.32815792001202,None,,,,,,,,,,,,,112,2023-04-20_13h22.23.613,Main,2022.1.1,59.90459595325542,
positive,neutral,1,l,j,,,,,,,,,2,9,45,8,,,,,,,,,main,1,1,1,neutral,positive,l,l,1,0.6962367999949493,186.33205640001688,187.3424080000259,187.3279651000048,None,186.33205640001688,None,186.33205640001688,None,186.33205640001688,None,188.02572712002438,None,188.02572712002438,None,188.02572712002438,None,,,,,,,,,,,,,112,2023-04-20_13h22.23.613,Main,2022.1.1,59.90459595325542,
positive,negative,2,l,j,,,,,,,,,2,10,46,14,,,,,,,,,main,1,1,2,negative,positive,l,l,1,0.6815514999907464,188.031652100035,189.04450060002273,189.02792050002608,None,188.031652100035,None,188.031652100035,None,188.031652100035,None,189.70902012000442,None,189.70902012000442,None,189.70902012000442,None,,,,,,,,,,,,,112,2023-04-20_13h22.23.613,Main,2022.1.1,59.90459595325542,
positive,positive,1,l,j,,,,,,,,,2,11,47,2,,,,,,,,,main,2,2,1,positive,positive,l,j,0,1.1006713999668136,189.71277560002636,190.7278546000016,190.71117650001543,None,189.71277560002636,None,189.71277560002636,None,189.71277560002636,None,191.81104990001768,None,191.81104990001768,None,191.81104990001768,None,,,,,,,,,,,,,112,2023-04-20_13h22.23.613,Main,2022.1.1,59.90459595325542,
neutral,positive,1,k,k,,,,,,,,,2,12,48,4,,,,,,,,,main,1,1,1,positive,neutral,k,k,1,0.8345041999709792,192.81049730000086,193.82527730002766,193.7918790000258,None,192.81049730000086,None,192.81049730000086,None,192.81049730000086,None,194.64194751999457,None,194.64194751999457,None,194.64194751999457,None,,,,,,,,,,,,,112,2023-04-20_13h22.23.613,Main,2022.1.1,59.90459595325542,
neutral,negative,1,k,k,,,,,,,,,2,13,49,7,,,,,,,,,main,2,2,1,negative,neutral,k,k,1,0.6150132000329904,194.64312850002898,195.6585837000166,195.64192570000887,None,194.64312850002898,None,194.64312850002898,None,194.64312850002898,None,196.25887922002585,None,196.25887922002585,None,196.25887922002585,None,,,,,,,,,,,,,112,2023-04-20_13h22.23.613,Main,2022.1.1,59.90459595325542,
negative,negative,1,j,l,,,,,,,,,2,14,50,0,,,,,,,,,main,2,2,1,negative,negative,j,j,1,0.7505156999686733,196.26238560001366,197.27555820002453,197.26112540002214,None,196.26238560001366,None,196.26238560001366,None,196.26238560001366,None,198.01122022003983,None,198.01122022003983,None,198.01122022003983,None,,,,,,,,,,,,,112,2023-04-20_13h22.23.613,Main,2022.1.1,59.90459595325542,
negative,positive,2,j,l,,,,,,,,,2,15,51,15,,,,,,,,,main,1,1,2,positive,negative,j,j,1,0.8464815999614075,198.01528540003346,199.0275911000208,199.01097220001975,None,198.01528540003346,None,198.01528540003346,None,198.01528540003346,None,199.85925752003095,None,199.85925752003095,None,199.85925752003095,None,,,,,,,,,,,,,112,2023-04-20_13h22.23.613,Main,2022.1.1,59.90459595325542,
positive,positive,2,l,j,,,,,,,,,2,16,52,11,,,,,,,,,main,1,1,2,positive,positive,l,l,1,0.7004059000173584,199.86560350004584,200.87771180004347,200.8610746000195,None,199.86560350004584,None,199.86560350004584,None,199.86560350004584,None,201.56097532002605,None,201.56097532002605,None,201.56097532002605,None,,,,,,,,,,,,,112,2023-04-20_13h22.23.613,Main,2022.1.1,59.90459595325542,
neutral,negative,2,k,k,,,,,,,,,2,17,53,16,,,,,,,,,main,1,1,2,negative,neutral,k,k,1,0.689805299974978,201.56425060000038,202.577637600014,202.5610118000186,None,201.56425060000038,None,201.56425060000038,None,201.56425060000038,None,203.2515333200281,None,203.2515333200281,None,203.2515333200281,None,,,,,,,,,,,,,112,2023-04-20_13h22.23.613,Main,2022.1.1,59.90459595325542,
positive,neutral,1,l,j,,,,,,,,,3,0,54,8,,,,,,,,,main,2,2,1,neutral,positive,l,l,1,0.6876636000233702,203.2683357000351,204.27734000002965,204.24402129999362,None,203.2683357000351,None,203.2683357000351,None,203.2683357000351,None,204.94191472002422,None,204.94191472002422,None,204.94191472002422,None,,,,,,,,,,,,,112,2023-04-20_13h22.23.613,Main,2022.1.1,59.90459595325542,
neutral,positive,2,k,k,,,,,,,,,3,1,55,13,,,,,,,,,main,2,2,2,positive,neutral,k,k,1,0.7150075000245124,204.94548980001127,205.95867100002943,205.9441194999963,None,204.94548980001127,None,204.94548980001127,None,204.94548980001127,None,206.6585318200232,None,206.6585318200232,None,206.6585318200232,None,,,,,,,,,,,,,112,2023-04-20_13h22.23.613,Main,2022.1.1,59.90459595325542,
neutral,negative,2,k,k,,,,,,,,,3,2,56,16,,,,,,,,,main,2,2,2,negative,neutral,k,k,1,0.5838205000036396,206.66392479999922,207.67729630001122,207.66067130002193,None,206.66392479999922,None,206.66392479999922,None,206.66392479999922,None,208.2439860200102,None,208.2439860200102,None,208.2439860200102,None,,,,,,,,,,,,,112,2023-04-20_13h22.23.613,Main,2022.1.1,59.90459595325542,
negative,neutral,2,j,l,,,,,,,,,3,3,57,12,,,,,,,,,main,2,2,2,neutral,negative,j,j,1,0.7959617999731563,208.24711100000422,209.25853550003376,209.24188079999294,None,208.24711100000422,None,208.24711100000422,None,208.24711100000422,None,210.04161012000986,None,210.04161012000986,None,210.04161012000986,None,,,,,,,,,,,,,112,2023-04-20_13h22.23.613,Main,2022.1.1,59.90459595325542,
negative,negative,1,j,l,,,,,,,,,3,4,58,0,,,,,,,,,main,1,1,1,negative,negative,j,j,1,0.7007140000350773,210.04508960002568,211.0607228000299,211.04402400000254,None,210.04508960002568,None,210.04508960002568,None,210.04508960002568,None,211.743946720002,None,211.743946720002,None,211.743946720002,None,,,,,,,,,,,,,112,2023-04-20_13h22.23.613,Main,2022.1.1,59.90459595325542,
positive,negative,1,l,j,,,,,,,,,3,5,59,5,,,,,,,,,main,2,2,1,negative,positive,l,l,1,0.6475025999825448,211.7472234000452,212.7585036000237,212.7418240000261,None,211.7472234000452,None,211.7472234000452,None,211.7472234000452,None,213.3918253199954,None,213.3918253199954,None,213.3918253199954,None,,,,,,,,,,,,,112,2023-04-20_13h22.23.613,Main,2022.1.1,59.90459595325542,
neutral,positive,1,k,k,,,,,,,,,3,6,60,4,,,,,,,,,main,1,1,1,positive,neutral,k,k,1,0.5659092999994755,213.39649880002253,214.4084581999923,214.391795500007,None,213.39649880002253,None,213.39649880002253,None,213.39649880002253,None,214.9605795200041,None,214.9605795200041,None,214.9605795200041,None,,,,,,,,,,,,,112,2023-04-20_13h22.23.613,Main,2022.1.1,59.90459595325542,
negative,neutral,1,j,l,,,,,,,,,3,7,61,3,,,,,,,,,main,1,1,1,neutral,negative,j,j,1,1.2292466000071727,214.96354279998923,215.97508010000456,215.9605903000338,None,214.96354279998923,None,214.96354279998923,None,214.96354279998923,None,217.1914063199947,None,217.1914063199947,None,217.1914063199947,None,,,,,,,,,,,,,112,2023-04-20_13h22.23.613,Main,2022.1.1,59.90459595325542,
negative,positive,2,j,l,,,,,,,,,3,8,62,15,,,,,,,,,main,2,2,2,positive,negative,j,j,1,0.682103700004518,217.1950829999987,218.20806179998908,218.1914129999932,None,217.1950829999987,None,217.1950829999987,None,217.1950829999987,None,218.87479462000192,None,218.87479462000192,None,218.87479462000192,None,,,,,,,,,,,,,112,2023-04-20_13h22.23.613,Main,2022.1.1,59.90459595325542,
negative,positive,1,j,l,,,,,,,,,3,9,63,6,,,,,,,,,main,1,1,1,positive,negative,j,j,1,0.7674598000012338,218.88134730001912,219.89392150001368,219.8772612999892,None,218.88134730001912,None,218.88134730001912,None,218.88134730001912,None,220.6438708200294,None,220.6438708200294,None,220.6438708200294,None,,,,,,,,,,,,,112,2023-04-20_13h22.23.613,Main,2022.1.1,59.90459595325542,
neutral,negative,1,k,k,,,,,,,,,3,10,64,7,,,,,,,,,main,2,2,1,negative,neutral,k,k,1,0.6294006999814883,220.64705130003858,221.66059099999256,221.6439683000208,None,220.64705130003858,None,220.64705130003858,None,220.64705130003858,None,222.27470222002012,None,222.27470222002012,None,222.27470222002012,None,,,,,,,,,,,,,112,2023-04-20_13h22.23.613,Main,2022.1.1,59.90459595325542,
positive,neutral,2,l,j,,,,,,,,,3,11,65,17,,,,,,,,,main,2,2,2,neutral,positive,l,l,1,0.6321639000088908,222.28110600000946,223.29387590003898,223.2771999000106,None,222.28110600000946,None,222.28110600000946,None,222.28110600000946,None,223.90832682003384,None,223.90832682003384,None,223.90832682003384,None,,,,,,,,,,,,,112,2023-04-20_13h22.23.613,Main,2022.1.1,59.90459595325542,
positive,positive,2,l,j,,,,,,,,,3,12,66,11,,,,,,,,,main,1,1,2,positive,positive,l,l,1,0.6004997999989428,223.9117976000416,224.92713860003278,224.91059260000475,None,223.9117976000416,None,223.9117976000416,None,223.9117976000416,None,225.51040522000403,None,225.51040522000403,None,225.51040522000403,None,,,,,,,,,,,,,112,2023-04-20_13h22.23.613,Main,2022.1.1,59.90459595325542,
positive,positive,1,l,j,,,,,,,,,3,13,67,2,,,,,,,,,main,1,1,1,positive,positive,l,l,1,0.5957740999874659,225.51387720002094,226.52713170001516,226.51043170003686,None,225.51387720002094,None,225.51387720002094,None,225.51387720002094,None,227.1078918199928,None,227.1078918199928,None,227.1078918199928,None,,,,,,,,,,,,,112,2023-04-20_13h22.23.613,Main,2022.1.1,59.90459595325542,
positive,negative,2,l,j,,,,,,,,,3,14,68,14,,,,,,,,,main,1,1,2,negative,positive,l,l,1,0.665088800014928,227.1078436000389,228.10784710000735,228.10784710000735,None,227.1078436000389,None,227.1078436000389,None,227.1078436000389,None,228.77458492000005,None,228.77458492000005,None,228.77458492000005,None,,,,,,,,,,,,,112,2023-04-20_13h22.23.613,Main,2022.1.1,59.90459595325542,
negative,negative,2,j,l,,,,,,,,,3,15,69,9,,,,,,,,,main,2,2,2,negative,negative,j,,0,1.286288000002969,228.7802811000147,229.7936932000448,229.77711080003064,None,228.7802811000147,None,228.7802811000147,None,228.7802811000147,None,231.05787020002026,None,231.05787020002026,None,231.05787020002026,None,,,,,,,,,,,,,112,2023-04-20_13h22.23.613,Main,2022.1.1,59.90459595325542,
neutral,neutral,2,k,k,,,,,,,,,3,16,70,10,,,,,,,,,main,2,2,2,neutral,neutral,k,k,1,0.7680725999525748,232.05920160003006,233.060232000018,233.0436531000305,None,232.05920160003006,None,232.05920160003006,None,232.05920160003006,None,233.82475862003048,None,233.82475862003048,None,233.82475862003048,None,,,,,,,,,,,,,112,2023-04-20_13h22.23.613,Main,2022.1.1,59.90459595325542,
neutral,neutral,1,k,k,,,,,,,,,3,17,71,1,,,,,,,,,main,2,2,1,neutral,neutral,k,k,1,0.6506897000363097,233.83110170002328,234.84361949999584,234.8247440000414,None,233.83110170002328,None,233.83110170002328,None,233.83110170002328,None,235.47682512001484,None,235.47682512001484,None,235.47682512001484,None,,,,,,,,,,,,,112,2023-04-20_13h22.23.613,Main,2022.1.1,59.90459595325542,
positive,neutral,2,l,j,,,,,,,,,4,0,72,17,,,,,,,,,main,2,2,2,neutral,positive,l,l,1,0.7124373000115156,235.48086260003038,236.4936286000302,236.47691240004497,None,235.48086260003038,None,235.48086260003038,None,235.48086260003038,None,237.19130822000443,None,237.19130822000443,None,237.19130822000443,None,,,,,,,,,,,,,112,2023-04-20_13h22.23.613,Main,2022.1.1,59.90459595325542,
negative,negative,2,j,l,,,,,,,,,4,1,73,9,,,,,,,,,main,1,1,2,negative,negative,j,j,1,0.6478768000379205,237.19759460003115,238.2076131000067,238.19093300000532,None,237.19759460003115,None,237.19759460003115,None,237.19759460003115,None,238.8409882200358,None,238.8409882200358,None,238.8409882200358,None,,,,,,,,,,,,,112,2023-04-20_13h22.23.613,Main,2022.1.1,59.90459595325542,
negative,negative,1,j,l,,,,,,,,,4,2,74,0,,,,,,,,,main,1,1,1,negative,negative,j,j,1,1.281969100004062,238.8576560000074,239.8576458999887,239.84095869999146,None,238.8576560000074,None,238.8576560000074,None,238.8576560000074,None,241.1242969199957,None,241.1242969199957,None,241.1242969199957,None,,,,,,,,,,,,,112,2023-04-20_13h22.23.613,Main,2022.1.1,59.90459595325542,
neutral,positive,2,k,k,,,,,,,,,4,3,75,13,,,,,,,,,main,1,1,2,positive,neutral,k,k,1,0.6495509999804199,241.12505349999992,242.12430160003714,242.12430160003714,None,241.12505349999992,None,241.12505349999992,None,241.12505349999992,None,242.77467262002756,None,242.77467262002756,None,242.77467262002756,None,,,,,,,,,,,,,112,2023-04-20_13h22.23.613,Main,2022.1.1,59.90459595325542,
neutral,neutral,1,k,k,,,,,,,,,4,4,76,1,,,,,,,,,main,2,2,1,neutral,neutral,k,k,1,0.6662038000067696,242.77916289999848,243.79337450000457,243.77679179998813,None,242.77916289999848,None,242.77916289999848,None,242.77916289999848,None,244.44349722002517,None,244.44349722002517,None,244.44349722002517,None,,,,,,,,,,,,,112,2023-04-20_13h22.23.613,Main,2022.1.1,59.90459595325542,
positive,negative,2,l,j,,,,,,,,,4,5,77,14,,,,,,,,,main,1,1,2,negative,positive,l,l,1,0.8817403999855742,244.44744600000558,245.4600114999921,245.44339410000248,None,244.44744600000558,None,244.44744600000558,None,244.44744600000558,None,246.32657772002858,None,246.32657772002858,None,246.32657772002858,None,,,,,,,,,,,,,112,2023-04-20_13h22.23.613,Main,2022.1.1,59.90459595325542,
negative,neutral,2,j,l,,,,,,,,,4,6,78,12,,,,,,,,,main,1,1,2,neutral,negative,j,j,1,0.6819783999817446,246.32992530002957,247.3432245000149,247.32669429999078,None,246.32992530002957,None,246.32992530002957,None,246.32992530002957,None,248.0099520200456,None,248.0099520200456,None,248.0099520200456,None,,,,,,,,,,,,,112,2023-04-20_13h22.23.613,Main,2022.1.1,59.90459595325542,
negative,positive,2,j,l,,,,,,,,,4,7,79,15,,,,,,,,,main,2,2,2,positive,negative,j,j,1,0.7479411999811418,248.0135428000358,249.0242670000298,249.01001440000255,None,248.0135428000358,None,248.0135428000358,None,248.0135428000358,None,249.75987681999686,None,249.75987681999686,None,249.75987681999686,None,,,,,,,,,,,,,112,2023-04-20_13h22.23.613,Main,2022.1.1,59.90459595325542,
positive,positive,1,l,j,,,,,,,,,4,8,80,2,,,,,,,,,main,2,2,1,positive,positive,l,l,1,0.6961256000213325,249.76302370004123,250.77401480003027,250.75734950002516,None,249.76302370004123,None,249.76302370004123,None,249.76302370004123,None,251.45733492003637,None,251.45733492003637,None,251.45733492003637,None,,,,,,,,,,,,,112,2023-04-20_13h22.23.613,Main,2022.1.1,59.90459595325542,
negative,positive,1,j,l,,,,,,,,,4,9,81,6,,,,,,,,,main,2,2,1,positive,negative,j,j,1,0.6996066000428982,251.45734840002842,252.4574283999973,252.4574283999973,None,251.45734840002842,None,251.45734840002842,None,251.45734840002842,None,253.15739412003313,None,253.15739412003313,None,253.15739412003313,None,,,,,,,,,,,,,112,2023-04-20_13h22.23.613,Main,2022.1.1,59.90459595325542,
positive,positive,2,l,j,,,,,,,,,4,10,82,11,,,,,,,,,main,2,2,2,positive,positive,l,l,1,0.7477527000010014,253.1619179000263,254.17661960003898,254.15997129998868,None,253.1619179000263,None,253.1619179000263,None,253.1619179000263,None,254.9076868199918,None,254.9076868199918,None,254.9076868199918,None,,,,,,,,,,,,,112,2023-04-20_13h22.23.613,Main,2022.1.1,59.90459595325542,
positive,neutral,1,l,j,,,,,,,,,4,11,83,8,,,,,,,,,main,1,1,1,neutral,positive,l,l,1,0.6647095999796875,254.9137621000409,255.9265604999964,255.90988049999578,None,254.9137621000409,None,254.9137621000409,None,254.9137621000409,None,256.5743614200328,None,256.5743614200328,None,256.5743614200328,None,,,,,,,,,,,,,112,2023-04-20_13h22.23.613,Main,2022.1.1,59.90459595325542,
neutral,negative,2,k,k,,,,,,,,,4,12,84,16,,,,,,,,,main,2,2,2,negative,neutral,k,k,1,0.6486289000022225,256.59319540002616,257.590953100007,257.5599052000325,None,256.59319540002616,None,256.59319540002616,None,256.59319540002616,None,258.2242910200439,None,258.2242910200439,None,258.2242910200439,None,,,,,,,,,,,,,112,2023-04-20_13h22.23.613,Main,2022.1.1,59.90459595325542,
neutral,neutral,2,k,k,,,,,,,,,4,13,85,10,,,,,,,,,main,2,2,2,neutral,neutral,k,k,1,0.5669467999832705,258.2303857000079,259.2430643000407,259.22639369999524,None,258.2303857000079,None,258.2303857000079,None,258.2303857000079,None,259.79300242001773,None,259.79300242001773,None,259.79300242001773,None,,,,,,,,,,,,,112,2023-04-20_13h22.23.613,Main,2022.1.1,59.90459595325542,
negative,neutral,1,j,l,,,,,,,,,4,14,86,3,,,,,,,,,main,2,2,1,neutral,negative,j,j,1,0.6294010000419803,259.7968241000199,260.80716800002847,260.7738057000097,None,259.7968241000199,None,259.7968241000199,None,259.7968241000199,None,261.4237962200132,None,261.4237962200132,None,261.4237962200132,None,,,,,,,,,,,,,112,2023-04-20_13h22.23.613,Main,2022.1.1,59.90459595325542,
neutral,negative,1,k,k,,,,,,,,,4,15,87,7,,,,,,,,,main,2,2,1,negative,neutral,k,k,1,0.6487071000155993,261.4293791000382,262.44051119999494,262.42383530002553,None,261.4293791000382,None,261.4293791000382,None,261.4293791000382,None,263.07387562000076,None,263.07387562000076,None,263.07387562000076,None,,,,,,,,,,,,,112,2023-04-20_13h22.23.613,Main,2022.1.1,59.90459595325542,
positive,negative,1,l,j,,,,,,,,,4,16,88,5,,,,,,,,,main,1,1,1,negative,positive,l,l,1,0.7672366999904625,263.0830758000375,264.09302100003697,264.07641010003863,None,263.0830758000375,None,263.0830758000375,None,263.0830758000375,None,264.84287502002553,None,264.84287502002553,None,264.84287502002553,None,,,,,,,,,,,,,112,2023-04-20_13h22.23.613,Main,2022.1.1,59.90459595325542,
neutral,positive,1,k,k,,,,,,,,,4,17,89,4,,,,,,,,,main,1,1,1,positive,neutral,k,k,1,0.61484890000429,264.846236900019,265.85956380004063,265.8430529999896,None,264.846236900019,None,264.846236900019,None,264.846236900019,None,266.4595640200132,None,266.4595640200132,None,266.4595640200132,None,,,,,,,,,,,,,112,2023-04-20_13h22.23.613,Main,2022.1.1,59.90459595325542,
neutral,neutral,2,k,k,,,,,,,,,5,0,90,10,,,,,,,,,main,1,1,2,neutral,neutral,k,k,1,0.5984975000028498,266.4636654999922,267.47621900000377,267.4596498000319,None,266.4636654999922,None,266.4636654999922,None,266.4636654999922,None,268.0596883200051,None,268.0596883200051,None,268.0596883200051,None,,,,,,,,,,,,,112,2023-04-20_13h22.23.613,Main,2022.1.1,59.90459595325542,
positive,positive,1,l,j,,,,,,,,,5,1,91,2,,,,,,,,,main,2,2,1,positive,positive,l,l,1,0.6474874999839813,268.06284920003964,269.0761918000062,269.05956210003933,None,268.06284920003964,None,268.06284920003964,None,268.06284920003964,None,269.70732072004466,None,269.70732072004466,None,269.70732072004466,None,,,,,,,,,,,,,112,2023-04-20_13h22.23.613,Main,2022.1.1,59.90459595325542,
negative,negative,2,j,l,,,,,,,,,5,2,92,9,,,,,,,,,main,2,2,2,negative,negative,j,j,1,0.6968853000435047,269.7142613999895,270.72617090004496,270.7095513000386,None,269.7142613999895,None,269.7142613999895,None,269.7142613999895,None,271.40735212000436,None,271.40735212000436,None,271.40735212000436,None,,,,,,,,,,,,,112,2023-04-20_13h22.23.613,Main,2022.1.1,59.90459595325542,
neutral,positive,1,k,k,,,,,,,,,5,3,93,4,,,,,,,,,main,2,2,1,positive,neutral,k,,0,0.8841801999951713,271.42366190004395,272.4235857000458,272.40692360000685,None,271.42366190004395,None,271.42366190004395,None,271.42366190004395,None,273.29026600002544,None,273.29026600002544,None,273.29026600002544,None,,,,,,,,,,,,,112,2023-04-20_13h22.23.613,Main,2022.1.1,59.90459595325542,
positive,negative,2,l,j,,,,,,,,,5,4,94,14,,,,,,,,,main,1,1,2,negative,positive,l,l,1,0.8060391999897547,274.29034310003044,275.29272490000585,275.27616670000134,None,274.29034310003044,None,274.29034310003044,None,274.29034310003044,None,276.09026722001727,None,276.09026722001727,None,276.09026722001727,None,,,,,,,,,,,,,112,2023-04-20_13h22.23.613,Main,2022.1.1,59.90459595325542,
positive,neutral,1,l,j,,,,,,,,,5,5,95,8,,,,,,,,,main,2,2,1,neutral,positive,l,l,1,0.629370300041046,276.096774500038,277.1095067000133,277.0928247999982,None,276.096774500038,None,276.096774500038,None,276.096774500038,None,277.72386471999926,None,277.72386471999926,None,277.72386471999926,None,,,,,,,,,,,,,112,2023-04-20_13h22.23.613,Main,2022.1.1,59.90459595325542,
positive,positive,2,l,j,,,,,,,,,5,6,96,11,,,,,,,,,main,2,2,2,positive,positive,l,l,1,0.6328259000438266,277.72987949999515,278.7427008000086,278.72606930002803,None,277.72987949999515,None,277.72987949999515,None,277.72987949999515,None,279.3580199200369,None,279.3580199200369,None,279.3580199200369,None,,,,,,,,,,,,,112,2023-04-20_13h22.23.613,Main,2022.1.1,59.90459595325542,
positive,neutral,2,l,j,,,,,,,,,5,7,97,17,,,,,,,,,main,2,2,2,neutral,positive,l,l,1,0.4969442000146955,279.36387570004445,280.3760494000162,280.3593752000015,None,279.36387570004445,None,279.36387570004445,None,279.36387570004445,None,280.8569001200085,None,280.8569001200085,None,280.8569001200085,None,,,,,,,,,,,,,112,2023-04-20_13h22.23.613,Main,2022.1.1,59.90459595325542,
neutral,negative,2,k,k,,,,,,,,,5,8,98,16,,,,,,,,,main,2,2,2,negative,neutral,k,k,1,0.548301300033927,280.86310780001804,281.8692286000005,281.8692286000005,None,280.86310780001804,None,280.86310780001804,None,280.86310780001804,None,282.4067365200317,None,282.4067365200317,None,282.4067365200317,None,,,,,,,,,,,,,112,2023-04-20_13h22.23.613,Main,2022.1.1,59.90459595325542,
negative,neutral,2,j,l,,,,,,,,,5,9,99,12,,,,,,,,,main,2,2,2,neutral,negative,j,j,1,0.6982627999968827,282.4069054000429,283.406747800007,283.406747800007,None,282.4069054000429,None,282.4069054000429,None,282.4069054000429,None,284.1067832199915,None,284.1067832199915,None,284.1067832199915,None,,,,,,,,,,,,,112,2023-04-20_13h22.23.613,Main,2022.1.1,59.90459595325542,
positive,negative,1,l,j,,,,,,,,,5,10,100,5,,,,,,,,,main,1,1,1,negative,positive,l,l,1,0.6345246999990195,284.11237590003293,285.125897800026,285.1092675999971,None,284.11237590003293,None,284.11237590003293,None,284.11237590003293,None,285.742476620042,None,285.742476620042,None,285.742476620042,None,,,,,,,,,,,,,112,2023-04-20_13h22.23.613,Main,2022.1.1,59.90459595325542,
negative,negative,1,j,l,,,,,,,,,5,11,101,0,,,,,,,,,main,1,1,1,negative,negative,j,k,0,0.5783608999918215,285.74714220000897,286.75914380000904,286.742547700007,None,285.74714220000897,None,285.74714220000897,None,285.74714220000897,None,287.32370270002866,None,287.32370270002866,None,287.32370270002866,None,,,,,,,,,,,,,112,2023-04-20_13h22.23.613,Main,2022.1.1,59.90459595325542,
negative,positive,2,j,l,,,,,,,,,5,12,102,15,,,,,,,,,main,2,2,2,positive,negative,j,j,1,0.7536373000475578,288.3240229000221,289.3258399000042,289.30914080003276,None,288.3240229000221,None,288.3240229000221,None,288.3240229000221,None,290.075708420045,None,290.075708420045,None,290.075708420045,None,,,,,,,,,,,,,112,2023-04-20_13h22.23.613,Main,2022.1.1,59.90459595325542,
neutral,neutral,1,k,k,,,,,,,,,5,13,103,1,,,,,,,,,main,1,1,1,neutral,neutral,k,k,1,0.6288332000258379,290.07910080003785,291.09240140003385,291.0758270000224,None,290.07910080003785,None,290.07910080003785,None,290.07910080003785,None,291.70664881999255,None,291.70664881999255,None,291.70664881999255,None,,,,,,,,,,,,,112,2023-04-20_13h22.23.613,Main,2022.1.1,59.90459595325542,
neutral,positive,2,k,k,,,,,,,,,5,14,104,13,,,,,,,,,main,2,2,2,positive,neutral,k,k,1,0.5819048000266775,291.7128656000132,292.7232296000002,292.7065436000121,None,291.7128656000132,None,291.7128656000132,None,291.7128656000132,None,293.2898623200308,None,293.2898623200308,None,293.2898623200308,None,,,,,,,,,,,,,112,2023-04-20_13h22.23.613,Main,2022.1.1,59.90459595325542,
neutral,negative,1,k,k,,,,,,,,,5,15,105,7,,,,,,,,,main,1,1,1,negative,neutral,k,k,1,0.6484366999939084,293.2898275000043,294.2898478000425,294.2898478000425,None,293.2898275000043,None,293.2898275000043,None,293.2898275000043,None,294.9398672200332,None,294.9398672200332,None,294.9398672200332,None,,,,,,,,,,,,,112,2023-04-20_13h22.23.613,Main,2022.1.1,59.90459595325542,
negative,positive,1,j,l,,,,,,,,,5,16,106,6,,,,,,,,,main,2,2,1,positive,negative,j,j,1,0.6149497000151314,294.9405520000146,295.93982430000324,295.93982430000324,None,294.9405520000146,None,294.9405520000146,None,294.9405520000146,None,296.55651612000656,None,296.55651612000656,None,296.55651612000656,None,,,,,,,,,,,,,112,2023-04-20_13h22.23.613,Main,2022.1.1,59.90459595325542,
negative,neutral,1,j,l,,,,,,,,,5,17,107,3,,,,,,,,,main,2,2,1,neutral,negative,j,j,1,0.7318332000286318,296.5629031000426,297.5757670000312,297.5423885000055,None,296.5629031000426,None,296.5629031000426,None,296.5629031000426,None,298.28984412000864,None,298.28984412000864,None,298.28984412000864,None,,,,,,,,,,,,,112,2023-04-20_13h22.23.613,Main,2022.1.1,59.90459595325542,
positive,negative,1,l,j,,,,,,,,,6,0,108,5,,,,,,,,,main,1,1,1,negative,positive,l,l,1,0.6991021999856457,298.29684510000516,299.3068147000158,299.27573670004494,None,298.29684510000516,None,298.29684510000516,None,298.29684510000516,None,299.9901224200439,None,299.9901224200439,None,299.9901224200439,None,,,,,,,,,,,,,112,2023-04-20_13h22.23.613,Main,2022.1.1,59.90459595325542,
neutral,positive,2,k,k,,,,,,,,,6,1,109,13,,,,,,,,,main,2,2,2,positive,neutral,k,k,1,0.6317896999535151,299.99640770000406,301.0089713000343,300.99236100004055,None,299.99640770000406,None,299.99640770000406,None,299.99640770000406,None,301.62342952002655,None,301.62342952002655,None,301.62342952002655,None,,,,,,,,,,,,,112,2023-04-20_13h22.23.613,Main,2022.1.1,59.90459595325542,
neutral,negative,1,k,k,,,,,,,,,6,2,110,7,,,,,,,,,main,2,2,1,negative,neutral,k,k,1,0.5814849999733269,301.62952469999436,302.64237050001975,302.62561640003696,None,301.62952469999436,None,301.62952469999436,None,301.62952469999436,None,303.20680432001245,None,303.20680432001245,None,303.20680432001245,None,,,,,,,,,,,,,112,2023-04-20_13h22.23.613,Main,2022.1.1,59.90459595325542,
negative,neutral,2,j,l,,,,,,,,,6,3,111,12,,,,,,,,,main,1,1,2,neutral,negative,j,j,1,0.6310716000152752,303.2101166000357,304.22552100004395,304.20880680001574,None,303.2101166000357,None,303.2101166000357,None,303.2101166000357,None,304.83960412003216,None,304.83960412003216,None,304.83960412003216,None,,,,,,,,,,,,,112,2023-04-20_13h22.23.613,Main,2022.1.1,59.90459595325542,
positive,positive,2,l,j,,,,,,,,,6,4,112,11,,,,,,,,,main,1,1,2,positive,positive,l,l,1,0.8152068000053987,304.83967290003784,305.83959580003284,305.83959580003284,None,304.83967290003784,None,304.83967290003784,None,304.83967290003784,None,306.65629782000906,None,306.65629782000906,None,306.65629782000906,None,,,,,,,,,,,,,112,2023-04-20_13h22.23.613,Main,2022.1.1,59.90459595325542,
neutral,neutral,1,k,k,,,,,,,,,6,5,113,1,,,,,,,,,main,2,2,1,neutral,neutral,k,k,1,0.648695099982433,306.6595936000231,307.6588039000053,307.6588039000053,None,306.6595936000231,None,306.6595936000231,None,306.6595936000231,None,308.30660772000556,None,308.30660772000556,None,308.30660772000556,None,,,,,,,,,,,,,112,2023-04-20_13h22.23.613,Main,2022.1.1,59.90459595325542,
positive,positive,1,l,j,,,,,,,,,6,6,114,2,,,,,,,,,main,2,2,1,positive,positive,l,l,1,0.6149865000043064,308.31041090004146,309.3254428000073,309.3087958000251,None,308.31041090004146,None,308.31041090004146,None,308.31041090004146,None,309.923209420027,None,309.923209420027,None,309.923209420027,None,,,,,,,,,,,,,112,2023-04-20_13h22.23.613,Main,2022.1.1,59.90459595325542,
negative,positive,2,j,l,,,,,,,,,6,7,115,15,,,,,,,,,main,1,1,2,positive,negative,j,j,1,0.6828524000011384,309.92986360000214,310.9419750000234,310.9253957000328,None,309.92986360000214,None,309.92986360000214,None,309.92986360000214,None,311.60866862002877,None,311.60866862002877,None,311.60866862002877,None,,,,,,,,,,,,,112,2023-04-20_13h22.23.613,Main,2022.1.1,59.90459595325542,
negative,negative,2,j,l,,,,,,,,,6,8,116,9,,,,,,,,,main,2,2,2,negative,negative,j,j,1,0.698372200015001,311.6120104000438,312.6252755000023,312.6087921000435,None,311.6120104000438,None,311.6120104000438,None,311.6120104000438,None,313.3085543200432,None,313.3085543200432,None,313.3085543200432,None,,,,,,,,,,,,,112,2023-04-20_13h22.23.613,Main,2022.1.1,59.90459595325542,
neutral,neutral,2,k,k,,,,,,,,,6,9,117,10,,,,,,,,,main,1,1,2,neutral,neutral,k,k,1,0.7164677000255324,313.3114997000084,314.32521989999805,314.30873200000497,None,313.3114997000084,None,313.3114997000084,None,313.3114997000084,None,315.0266619200411,None,315.0266619200411,None,315.0266619200411,None,,,,,,,,,,,,,112,2023-04-20_13h22.23.613,Main,2022.1.1,59.90459595325542,
negative,negative,1,j,l,,,,,,,,,6,10,118,0,,,,,,,,,main,1,1,1,negative,negative,j,j,1,0.7469353000051342,315.0395404000301,316.0416697000037,316.02506479999283,None,315.0395404000301,None,315.0395404000301,None,315.0395404000301,None,316.7751224200183,None,316.7751224200183,None,316.7751224200183,None,,,,,,,,,,,,,112,2023-04-20_13h22.23.613,Main,2022.1.1,59.90459595325542,
positive,negative,2,l,j,,,,,,,,,6,11,119,14,,,,,,,,,main,1,1,2,negative,positive,l,l,1,0.8797400000039488,316.77819899999304,317.79168790002586,317.77293929998996,None,316.77819899999304,None,316.77819899999304,None,316.77819899999304,None,318.6563055200095,None,318.6563055200095,None,318.6563055200095,None,,,,,,,,,,,,,112,2023-04-20_13h22.23.613,Main,2022.1.1,59.90459595325542,
positive,neutral,1,l,j,,,,,,,,,6,12,120,8,,,,,,,,,main,2,2,1,neutral,positive,l,l,1,0.9142307000001892,318.66216230002465,319.67498740000883,319.65836729999864,None,318.66216230002465,None,318.66216230002465,None,318.66216230002465,None,320.57266711999546,None,320.57266711999546,None,320.57266711999546,None,,,,,,,,,,,,,112,2023-04-20_13h22.23.613,Main,2022.1.1,59.90459595325542,
neutral,positive,1,k,k,,,,,,,,,6,13,121,4,,,,,,,,,main,2,2,1,positive,neutral,k,k,1,0.6657851000200026,320.57903580000857,321.5916000000434,321.57500770001207,None,320.57903580000857,None,320.57903580000857,None,320.57903580000857,None,322.239656520047,None,322.239656520047,None,322.239656520047,None,,,,,,,,,,,,,112,2023-04-20_13h22.23.613,Main,2022.1.1,59.90459595325542,
negative,positive,1,j,l,,,,,,,,,6,14,122,6,,,,,,,,,main,1,1,1,positive,negative,j,j,1,0.7338634000043385,322.2430815999978,323.2582821000251,323.2416383000091,None,322.2430815999978,None,322.2430815999978,None,322.2430815999978,None,323.9749733200006,None,323.9749733200006,None,323.9749733200006,None,,,,,,,,,,,,,112,2023-04-20_13h22.23.613,Main,2022.1.1,59.90459595325542,
neutral,negative,2,k,k,,,,,,,,,6,15,123,16,,,,,,,,,main,1,1,2,negative,neutral,k,k,1,0.7127794999978505,323.9780507000396,324.9895351000014,324.97284550004406,None,323.9780507000396,None,323.9780507000396,None,323.9780507000396,None,325.6893132200057,None,325.6893132200057,None,325.6893132200057,None,,,,,,,,,,,,,112,2023-04-20_13h22.23.613,Main,2022.1.1,59.90459595325542,
negative,neutral,1,j,l,,,,,,,,,6,16,124,3,,,,,,,,,main,2,2,1,neutral,negative,j,j,1,0.6980024999938905,325.6955891000107,326.7082418000209,326.6916106000426,None,325.6955891000107,None,325.6955891000107,None,325.6955891000107,None,327.3892024200468,None,327.3892024200468,None,327.3892024200468,None,,,,,,,,,,,,,112,2023-04-20_13h22.23.613,Main,2022.1.1,59.90459595325542,
positive,neutral,2,l,j,,,,,,,,,6,17,125,17,,,,,,,,,main,2,2,2,neutral,positive,l,l,1,0.848248699971009,327.39558410004247,328.4057711000205,328.3891014000401,None,327.39558410004247,None,327.39558410004247,None,327.39558410004247,None,329.23906442002044,None,329.23906442002044,None,329.23906442002044,None,,,,,,,,,,,,,112,2023-04-20_13h22.23.613,Main,2022.1.1,59.90459595325542,
positive,positive,2,l,j,,,,,,,,,7,0,126,11,,,,,,,,,main,1,1,2,positive,positive,l,l,1,0.6653496999642812,329.239673700009,330.2417577000451,330.2417577000451,None,329.239673700009,None,329.239673700009,None,329.239673700009,None,330.9058578200347,None,330.9058578200347,None,330.9058578200347,None,,,,,,,,,,,,,112,2023-04-20_13h22.23.613,Main,2022.1.1,59.90459595325542,
neutral,positive,1,k,k,,,,,,,,,7,1,127,4,,,,,,,,,main,1,1,1,positive,neutral,k,k,1,0.7342269000364468,330.9122062000097,331.92501609999454,331.90838590002386,None,330.9122062000097,None,330.9122062000097,None,330.9122062000097,None,332.64158121999935,None,332.64158121999935,None,332.64158121999935,None,,,,,,,,,,,,,112,2023-04-20_13h22.23.613,Main,2022.1.1,59.90459595325542,
neutral,negative,1,k,k,,,,,,,,,7,2,128,7,,,,,,,,,main,1,1,1,negative,neutral,k,k,1,0.5805723000084981,332.644896599988,333.65816009999253,333.6415554000414,None,332.644896599988,None,332.644896599988,None,332.644896599988,None,334.2227159200411,None,334.2227159200411,None,334.2227159200411,None,,,,,,,,,,,,,112,2023-04-20_13h22.23.613,Main,2022.1.1,59.90459595325542,
negative,positive,2,j,l,,,,,,,,,7,3,129,15,,,,,,,,,main,1,1,2,positive,negative,j,j,1,0.7636303000035696,334.2272774000303,335.24142100004246,335.22482240002137,None,334.2272774000303,None,334.2272774000303,None,334.2272774000303,None,335.98900982001214,None,335.98900982001214,None,335.98900982001214,None,,,,,,,,,,,,,112,2023-04-20_13h22.23.613,Main,2022.1.1,59.90459595325542,
neutral,neutral,1,k,k,,,,,,,,,7,4,130,1,,,,,,,,,main,2,2,1,neutral,neutral,k,k,1,0.6817328000324778,335.99285490001785,337.008210400003,336.99154130002717,None,335.99285490001785,None,335.99285490001785,None,335.99285490001785,None,337.67235462003737,None,337.67235462003737,None,337.67235462003737,None,,,,,,,,,,,,,112,2023-04-20_13h22.23.613,Main,2022.1.1,59.90459595325542,
positive,negative,1,l,j,,,,,,,,,7,5,131,5,,,,,,,,,main,1,1,1,negative,positive,l,l,1,0.6641121000284329,337.67696300003445,338.6888978999923,338.67222599999513,None,337.67696300003445,None,337.67696300003445,None,337.67696300003445,None,339.3388835200167,None,339.3388835200167,None,339.3388835200167,None,,,,,,,,,,,,,112,2023-04-20_13h22.23.613,Main,2022.1.1,59.90459595325542,
positive,neutral,2,l,j,,,,,,,,,7,6,132,17,,,,,,,,,main,1,1,2,neutral,positive,l,l,1,0.8153058000025339,339.33887370000593,340.3389334999956,340.3389334999956,None,339.33887370000593,None,339.33887370000593,None,339.33887370000593,None,341.15564382003504,None,341.15564382003504,None,341.15564382003504,None,,,,,,,,,,,,,112,2023-04-20_13h22.23.613,Main,2022.1.1,59.90459595325542,
neutral,negative,2,k,k,,,,,,,,,7,7,133,16,,,,,,,,,main,2,2,2,negative,neutral,k,k,1,0.6319761000340804,341.1626116000116,342.1746302000247,342.1580166000058,None,341.1626116000116,None,341.1626116000116,None,341.1626116000116,None,342.78946402002475,None,342.78946402002475,None,342.78946402002475,None,,,,,,,,,,,,,112,2023-04-20_13h22.23.613,Main,2022.1.1,59.90459595325542,
neutral,positive,2,k,k,,,,,,,,,7,8,134,13,,,,,,,,,main,2,2,2,positive,neutral,k,k,1,0.5980295000481419,342.79545060003875,343.8080828000093,343.79145509999944,None,342.79545060003875,None,342.79545060003875,None,342.79545060003875,None,344.3889990200114,None,344.3889990200114,None,344.3889990200114,None,,,,,,,,,,,,,112,2023-04-20_13h22.23.613,Main,2022.1.1,59.90459595325542,
negative,neutral,1,j,l,,,,,,,,,7,9,135,3,,,,,,,,,main,1,1,1,neutral,negative,j,j,1,0.6983870000112802,344.3949064000044,345.4079764999915,345.3914072000189,None,344.3949064000044,None,344.3949064000044,None,344.3949064000044,None,346.0890053200128,None,346.0890053200128,None,346.0890053200128,None,,,,,,,,,,,,,112,2023-04-20_13h22.23.613,Main,2022.1.1,59.90459595325542,
positive,negative,2,l,j,,,,,,,,,7,10,136,14,,,,,,,,,main,1,1,2,negative,positive,l,l,1,0.6839852000121027,346.09528830001364,347.1078579000314,347.091279699991,None,346.09528830001364,None,346.09528830001364,None,346.09528830001364,None,347.77453811999294,None,347.77453811999294,None,347.77453811999294,None,,,,,,,,,,,,,112,2023-04-20_13h22.23.613,Main,2022.1.1,59.90459595325542,
neutral,neutral,2,k,k,,,,,,,,,7,11,137,10,,,,,,,,,main,2,2,2,neutral,neutral,k,k,1,0.6293977999594063,347.77866110001924,348.7886804000009,348.7720259000198,None,347.77866110001924,None,347.77866110001924,None,347.77866110001924,None,349.4053820200206,None,349.4053820200206,None,349.4053820200206,None,,,,,,,,,,,,,112,2023-04-20_13h22.23.613,Main,2022.1.1,59.90459595325542,
negative,negative,1,j,l,,,,,,,,,7,12,138,0,,,,,,,,,main,2,2,1,negative,negative,j,j,1,0.7011631000204943,349.4055041000247,350.40540330001386,350.40540330001386,None,349.4055041000247,None,349.4055041000247,None,349.4055041000247,None,351.10785812002723,None,351.10785812002723,None,351.10785812002723,None,,,,,,,,,,,,,112,2023-04-20_13h22.23.613,Main,2022.1.1,59.90459595325542,
negative,positive,1,j,l,,,,,,,,,7,13,139,6,,,,,,,,,main,1,1,1,positive,negative,j,j,1,0.6789898999850266,351.1121489999932,352.1246202000184,352.10798790003173,None,351.1121489999932,None,351.1121489999932,None,351.1121489999932,None,352.78903692003223,None,352.78903692003223,None,352.78903692003223,None,,,,,,,,,,,,,112,2023-04-20_13h22.23.613,Main,2022.1.1,59.90459595325542,
negative,neutral,2,j,l,,,,,,,,,7,14,140,12,,,,,,,,,main,2,2,2,neutral,negative,j,j,1,0.6167937000282109,352.79285299999174,353.807713599992,353.7911047000089,None,352.79285299999174,None,352.79285299999174,None,352.79285299999174,None,354.4077372200263,None,354.4077372200263,None,354.4077372200263,None,,,,,,,,,,,,,112,2023-04-20_13h22.23.613,Main,2022.1.1,59.90459595325542,
positive,neutral,1,l,j,,,,,,,,,7,15,141,8,,,,,,,,,main,2,2,1,neutral,positive,l,l,1,0.6486695999628864,354.4105375999934,355.4245058000088,355.4077980000293,None,354.4105375999934,None,354.4105375999934,None,354.4105375999934,None,356.05788092003786,None,356.05788092003786,None,356.05788092003786,None,,,,,,,,,,,,,112,2023-04-20_13h22.23.613,Main,2022.1.1,59.90459595325542,
positive,positive,1,l,j,,,,,,,,,7,16,142,2,,,,,,,,,main,1,1,1,positive,positive,l,l,1,0.6162809999659657,356.0622958000167,357.0743419000064,357.057869900018,None,356.0622958000167,None,356.0622958000167,None,356.0622958000167,None,357.67434842002694,None,357.67434842002694,None,357.67434842002694,None,,,,,,,,,,,,,112,2023-04-20_13h22.23.613,Main,2022.1.1,59.90459595325542,
negative,negative,2,j,l,,,,,,,,,7,17,143,9,,,,,,,,,main,2,2,2,negative,negative,j,j,1,0.6776127000339329,357.6790771000087,358.6885082999943,358.6718281999929,None,357.6790771000087,None,357.6790771000087,None,357.6790771000087,None,359.35517642003833,None,359.35517642003833,None,359.35517642003833,None,,,,,,,,,,,,,112,2023-04-20_13h22.23.613,Main,2022.1.1,59.90459595325542,
neutral,positive,2,k,k,,,,,,,,,8,0,144,13,,,,,,,,,main,1,1,2,positive,neutral,k,j,0,0.6691437999834307,359.3557151000132,360.35516770003596,360.35516770003596,None,359.3557151000132,None,359.3557151000132,None,359.3557151000132,None,361.0218296000385,None,361.0218296000385,None,361.0218296000385,None,,,,,,,,,,,,,112,2023-04-20_13h22.23.613,Main,2022.1.1,59.90459595325542,
negative,negative,1,j,l,,,,,,,,,8,1,145,0,,,,,,,,,main,1,1,1,negative,negative,j,j,1,0.8041206999914721,362.02184649999253,363.0218249000027,363.0077586999978,None,362.02184649999253,None,362.02184649999253,None,362.02184649999253,None,363.8222209200321,None,363.8222209200321,None,363.8222209200321,None,,,,,,,,,,,,,112,2023-04-20_13h22.23.613,Main,2022.1.1,59.90459595325542,
positive,positive,2,l,j,,,,,,,,,8,2,146,11,,,,,,,,,main,2,2,2,positive,positive,l,l,1,0.7336262000026181,363.8270790000097,364.8410023000324,364.82430790003855,None,363.8270790000097,None,363.8270790000097,None,363.8270790000097,None,365.55751952002174,None,365.55751952002174,None,365.55751952002174,None,,,,,,,,,,,,,112,2023-04-20_13h22.23.613,Main,2022.1.1,59.90459595325542,
neutral,negative,1,k,k,,,,,,,,,8,3,147,7,,,,,,,,,main,1,1,1,negative,neutral,k,k,1,0.6946240999968722,365.5620659000124,366.57420730002923,366.5575746000395,None,365.5620659000124,None,365.5620659000124,None,365.5620659000124,None,367.25506502002827,None,367.25506502002827,None,367.25506502002827,None,,,,,,,,,,,,,112,2023-04-20_13h22.23.613,Main,2022.1.1,59.90459595325542,
positive,positive,1,l,j,,,,,,,,,8,4,148,2,,,,,,,,,main,2,2,1,positive,positive,l,l,1,0.6987722999765538,367.259470399993,368.274218400009,368.25754310004413,None,367.259470399993,None,367.259470399993,None,367.259470399993,None,368.95535412002937,None,368.95535412002937,None,368.95535412002937,None,,,,,,,,,,,,,112,2023-04-20_13h22.23.613,Main,2022.1.1,59.90459595325542,
negative,neutral,2,j,l,,,,,,,,,8,5,149,12,,,,,,,,,main,2,2,2,neutral,negative,j,j,1,0.7148410999798216,368.960966499988,369.9741240000003,369.95529040001566,None,368.960966499988,None,368.960966499988,None,368.960966499988,None,370.6720026200346,None,370.6720026200346,None,370.6720026200346,None,,,,,,,,,,,,,112,2023-04-20_13h22.23.613,Main,2022.1.1,59.90459595325542,
negative,positive,2,j,l,,,,,,,,,8,6,150,15,,,,,,,,,main,2,2,2,positive,negative,j,j,1,0.6018318000133149,370.6755730000441,371.68823540001176,371.67155670002103,None,370.6755730000441,None,370.6755730000441,None,370.6755730000441,None,372.27169521999895,None,372.27169521999895,None,372.27169521999895,None,,,,,,,,,,,,,112,2023-04-20_13h22.23.613,Main,2022.1.1,59.90459595325542,
positive,neutral,2,l,j,,,,,,,,,8,7,151,17,,,,,,,,,main,1,1,2,neutral,positive,l,l,1,0.7970862000365742,372.27543470001547,373.2882185000344,373.27155930001754,None,372.27543470001547,None,372.27543470001547,None,372.27543470001547,None,374.0740093200293,None,374.0740093200293,None,374.0740093200293,None,,,,,,,,,,,,,112,2023-04-20_13h22.23.613,Main,2022.1.1,59.90459595325542,
positive,neutral,1,l,j,,,,,,,,,8,8,152,8,,,,,,,,,main,2,2,1,neutral,positive,l,l,1,0.6817156999604777,374.0778256999911,375.09080170001835,375.07418450003024,None,374.0778256999911,None,374.0778256999911,None,374.0778256999911,None,375.75729892004165,None,375.75729892004165,None,375.75729892004165,None,,,,,,,,,,,,,112,2023-04-20_13h22.23.613,Main,2022.1.1,59.90459595325542,
neutral,positive,1,k,k,,,,,,,,,8,9,153,4,,,,,,,,,main,2,2,1,positive,neutral,k,k,1,0.6149971999693662,375.7607791000046,376.7739172000438,376.75741140003083,None,375.7607791000046,None,375.7607791000046,None,375.7607791000046,None,377.3740061199933,None,377.3740061199933,None,377.3740061199933,None,,,,,,,,,,,,,112,2023-04-20_13h22.23.613,Main,2022.1.1,59.90459595325542,
positive,negative,1,l,j,,,,,,,,,8,10,154,5,,,,,,,,,main,2,2,1,negative,positive,l,l,1,0.6958659999654628,377.3783358000219,378.38848960003816,378.373925300024,None,377.3783358000219,None,377.3783358000219,None,377.3783358000219,None,379.071495220036,None,379.071495220036,None,379.071495220036,None,,,,,,,,,,,,,112,2023-04-20_13h22.23.613,Main,2022.1.1,59.90459595325542,
negative,positive,1,j,l,,,,,,,,,8,11,155,6,,,,,,,,,main,1,1,1,positive,negative,j,j,1,0.7008981000399217,379.07740529999137,380.0884345000377,380.05728340003407,None,379.07740529999137,None,379.07740529999137,None,379.07740529999137,None,380.77388841999345,None,380.77388841999345,None,380.77388841999345,None,,,,,,,,,,,,,112,2023-04-20_13h22.23.613,Main,2022.1.1,59.90459595325542,
neutral,negative,2,k,k,,,,,,,,,8,12,156,16,,,,,,,,,main,2,2,2,negative,neutral,k,k,1,0.5641212000045925,380.7769961000304,381.78803240001434,381.7713716000435,None,380.7769961000304,None,380.7769961000304,None,380.7769961000304,None,382.33801482003764,None,382.33801482003764,None,382.33801482003764,None,,,,,,,,,,,,,112,2023-04-20_13h22.23.613,Main,2022.1.1,59.90459595325542,
neutral,neutral,2,k,k,,,,,,,,,8,13,157,10,,,,,,,,,main,1,1,2,neutral,neutral,k,k,1,0.61323789996095,382.3397610000102,383.35471129999496,383.338047199999,None,382.3397610000102,None,382.3397610000102,None,382.3397610000102,None,383.9547274200304,None,383.9547274200304,None,383.9547274200304,None,,,,,,,,,,,,,112,2023-04-20_13h22.23.613,Main,2022.1.1,59.90459595325542,
negative,neutral,1,j,l,,,,,,,,,8,14,158,3,,,,,,,,,main,2,2,1,neutral,negative,j,j,1,0.7521233999868855,383.9574876000406,384.95726660004584,384.94062890001805,None,383.9574876000406,None,383.9574876000406,None,383.9574876000406,None,385.7078394200362,None,385.7078394200362,None,385.7078394200362,None,,,,,,,,,,,,,112,2023-04-20_13h22.23.613,Main,2022.1.1,59.90459595325542,
positive,negative,2,l,j,,,,,,,,,8,15,159,14,,,,,,,,,main,2,2,2,negative,positive,l,l,1,0.6287404000177048,385.7111881999881,386.7237193000037,386.70715299999574,None,385.7111881999881,None,385.7111881999881,None,385.7111881999881,None,387.33798062001006,None,387.33798062001006,None,387.33798062001006,None,,,,,,,,,,,,,112,2023-04-20_13h22.23.613,Main,2022.1.1,59.90459595325542,
neutral,neutral,1,k,k,,,,,,,,,8,16,160,1,,,,,,,,,main,2,2,1,neutral,neutral,k,k,1,0.6150258000125177,387.3419257000205,388.3570185000426,388.3403563000029,None,387.3419257000205,None,387.3419257000205,None,387.3419257000205,None,388.9549470200145,None,388.9549470200145,None,388.9549470200145,None,,,,,,,,,,,,,112,2023-04-20_13h22.23.613,Main,2022.1.1,59.90459595325542,
negative,negative,2,j,l,,,,,,,,,8,17,161,9,,,,,,,,,main,2,2,2,negative,negative,j,j,1,0.6837866000132635,388.95906419999665,389.9736741000088,389.9571019000141,None,388.95906419999665,None,388.95906419999665,None,388.95906419999665,None,390.6403444200114,None,390.6403444200114,None,390.6403444200114,None,,,,,,,,,,,,,112,2023-04-20_13h22.23.613,Main,2022.1.1,59.90459595325542,
positive,positive,1,l,j,,,,,,,,,9,0,162,2,,,,,,,,,main,2,2,1,positive,positive,l,l,1,0.7297732000006363,390.64318060001824,391.6540593000245,391.63680870004464,None,390.64318060001824,None,390.64318060001824,None,390.64318060001824,None,392.3711503200175,None,392.3711503200175,None,392.3711503200175,None,,,,,,,,,,,,,112,2023-04-20_13h22.23.613,Main,2022.1.1,59.90459595325542,
positive,negative,1,l,j,,,,,,,,,9,1,163,5,,,,,,,,,main,1,1,1,negative,positive,l,l,1,0.6147838000324555,392.3713449999923,393.3711277000257,393.3711277000257,None,392.3713449999923,None,392.3713449999923,None,392.3713449999923,None,393.9878405200143,None,393.9878405200143,None,393.9878405200143,None,,,,,,,,,,,,,112,2023-04-20_13h22.23.613,Main,2022.1.1,59.90459595325542,
neutral,negative,2,k,k,,,,,,,,,9,2,164,16,,,,,,,,,main,1,1,2,negative,neutral,k,k,1,0.6984312999993563,393.9882337000454,394.9878116000327,394.9878116000327,None,393.9882337000454,None,393.9882337000454,None,393.9882337000454,None,395.6878165200178,None,395.6878165200178,None,395.6878165200178,None,,,,,,,,,,,,,112,2023-04-20_13h22.23.613,Main,2022.1.1,59.90459595325542,
neutral,neutral,2,k,k,,,,,,,,,9,3,165,10,,,,,,,,,main,1,1,2,neutral,neutral,k,k,1,0.6010429000016302,395.6941056000069,396.70694370003184,396.6903406000347,None,395.6941056000069,None,395.6941056000069,None,395.6941056000069,None,397.2904675200407,None,397.2904675200407,None,397.2904675200407,None,,,,,,,,,,,,,112,2023-04-20_13h22.23.613,Main,2022.1.1,59.90459595325542,
negative,positive,1,j,l,,,,,,,,,9,4,166,6,,,,,,,,,main,1,1,1,positive,negative,j,j,1,0.7645558000076562,397.2938670000294,398.30687130003935,398.2903229999938,None,397.2938670000294,None,397.2938670000294,None,397.2938670000294,None,399.0569204200001,None,399.0569204200001,None,399.0569204200001,None,,,,,,,,,,,,,112,2023-04-20_13h22.23.613,Main,2022.1.1,59.90459595325542,
negative,neutral,2,j,l,,,,,,,,,9,5,167,12,,,,,,,,,main,1,1,2,neutral,negative,j,j,1,0.8485465000267141,399.05961090000346,400.0735174000147,400.05684640002437,None,399.05961090000346,None,399.05961090000346,None,399.05961090000346,None,400.9068081199948,None,400.9068081199948,None,400.9068081199948,None,,,,,,,,,,,,,112,2023-04-20_13h22.23.613,Main,2022.1.1,59.90459595325542,
neutral,negative,1,k,k,,,,,,,,,9,6,168,7,,,,,,,,,main,2,2,1,negative,neutral,k,k,1,0.6149930999963544,400.9101738000172,401.92347050004173,401.9068345000269,None,400.9101738000172,None,400.9101738000172,None,400.9101738000172,None,402.52349881999544,None,402.52349881999544,None,402.52349881999544,None,,,,,,,,,,,,,112,2023-04-20_13h22.23.613,Main,2022.1.1,59.90459595325542,
positive,positive,2,l,j,,,,,,,,,9,7,169,11,,,,,,,,,main,2,2,2,positive,positive,l,l,1,0.6461627999669872,402.5277461000369,403.54008490004344,403.5234642000287,None,402.5277461000369,None,402.5277461000369,None,402.5277461000369,None,404.17089651999413,None,404.17089651999413,None,404.17089651999413,None,,,,,,,,,,,,,112,2023-04-20_13h22.23.613,Main,2022.1.1,59.90459595325542,
positive,neutral,2,l,j,,,,,,,,,9,8,170,17,,,,,,,,,main,1,1,2,neutral,positive,l,l,1,0.6808690999750979,404.17199830000754,405.18757080001524,405.1709053000086,None,404.17199830000754,None,404.17199830000754,None,404.17199830000754,None,405.85423172000446,None,405.85423172000446,None,405.85423172000446,None,,,,,,,,,,,,,112,2023-04-20_13h22.23.613,Main,2022.1.1,59.90459595325542,
neutral,positive,2,k,k,,,,,,,,,9,9,171,13,,,,,,,,,main,2,2,2,positive,neutral,k,k,1,0.6495878999703564,405.85643010004424,406.8708845000365,406.8542352000368,None,405.85643010004424,None,405.85643010004424,None,405.85643010004424,None,407.5042417200457,None,407.5042417200457,None,407.5042417200457,None,,,,,,,,,,,,,112,2023-04-20_13h22.23.613,Main,2022.1.1,59.90459595325542,
neutral,positive,1,k,k,,,,,,,,,9,10,172,4,,,,,,,,,main,1,1,1,positive,neutral,k,k,1,0.5974857999826781,407.50875879998785,408.52341720002005,408.5066955999937,None,407.50875879998785,None,407.50875879998785,None,407.50875879998785,None,409.10453012000653,None,409.10453012000653,None,409.10453012000653,None,,,,,,,,,,,,,112,2023-04-20_13h22.23.613,Main,2022.1.1,59.90459595325542,
positive,neutral,1,l,j,,,,,,,,,9,11,173,8,,,,,,,,,main,2,2,1,neutral,positive,l,l,1,0.784019700018689,409.10829810000723,410.1233097999939,410.1066736000357,None,409.10829810000723,None,409.10829810000723,None,409.10829810000723,None,410.8900378200051,None,410.8900378200051,None,410.8900378200051,None,,,,,,,,,,,,,112,2023-04-20_13h22.23.613,Main,2022.1.1,59.90459595325542,
positive,negative,2,l,j,,,,,,,,,9,12,174,14,,,,,,,,,main,2,2,2,negative,positive,l,l,1,0.8314504000009038,410.89325200003805,411.90657610003836,411.89007660001516,None,410.89325200003805,None,410.89325200003805,None,410.89325200003805,None,412.7232388200064,None,412.7232388200064,None,412.7232388200064,None,,,,,,,,,,,,,112,2023-04-20_13h22.23.613,Main,2022.1.1,59.90459595325542,
negative,neutral,1,j,l,,,,,,,,,9,13,175,3,,,,,,,,,main,1,1,1,neutral,negative,j,j,1,0.6793747000047006,412.7265095000039,413.7398580000154,413.72324190003565,None,412.7265095000039,None,412.7265095000039,None,412.7265095000039,None,414.4044064200425,None,414.4044064200425,None,414.4044064200425,None,,,,,,,,,,,,,112,2023-04-20_13h22.23.613,Main,2022.1.1,59.90459595325542,
negative,negative,1,j,l,,,,,,,,,9,14,176,0,,,,,,,,,main,2,2,1,negative,negative,j,j,1,0.630747799994424,414.41083420004,415.42323810001835,415.40656350000063,None,414.41083420004,None,414.41083420004,None,414.41083420004,None,416.0372950200399,None,416.0372950200399,None,416.0372950200399,None,,,,,,,,,,,,,112,2023-04-20_13h22.23.613,Main,2022.1.1,59.90459595325542,
negative,positive,2,j,l,,,,,,,,,9,15,177,15,,,,,,,,,main,2,2,2,positive,negative,j,j,1,0.6982271000160836,416.0375148000312,417.0372939000372,417.0372939000372,None,416.0375148000312,None,416.0375148000312,None,416.0375148000312,None,417.7373078200326,None,417.7373078200326,None,417.7373078200326,None,,,,,,,,,,,,,112,2023-04-20_13h22.23.613,Main,2022.1.1,59.90459595325542,
neutral,neutral,1,k,k,,,,,,,,,9,16,178,1,,,,,,,,,main,1,1,1,neutral,neutral,k,k,1,0.7149950999883004,417.737949100032,418.7373059000238,418.7373059000238,None,417.737949100032,None,417.737949100032,None,417.737949100032,None,419.4539962199924,None,419.4539962199924,None,419.4539962199924,None,,,,,,,,,,,,,112,2023-04-20_13h22.23.613,Main,2022.1.1,59.90459595325542,
negative,negative,2,j,l,,,,,,,,,9,17,179,9,,,,,,,,,main,1,1,2,negative,negative,j,j,1,0.6497882999829017,419.45745149999857,420.45646920002764,420.45646920002764,None,419.45745149999857,None,419.45745149999857,None,419.45745149999857,None,421.1043155200023,None,421.1043155200023,None,421.1043155200023,None,,,,,,,,,,,,,112,2023-04-20_13h22.23.613,Main,2022.1.1,59.90459595325542,
positive,neutral,2,l,j,,,,,,,,,10,0,180,17,,,,,,,,,main,2,2,2,neutral,positive,l,l,1,0.6813778000068851,421.10886540001957,422.123046600027,422.1063342000125,None,421.10886540001957,None,421.10886540001957,None,421.10886540001957,None,422.7881188200263,None,422.7881188200263,None,422.7881188200263,None,,,,,,,,,,,,,112,2023-04-20_13h22.23.613,Main,2022.1.1,59.90459595325542,
negative,positive,2,j,l,,,,,,,,,10,1,181,15,,,,,,,,,main,2,2,2,positive,negative,j,j,1,0.6807184999925084,422.7942735000397,423.80642129998887,423.78978470002767,None,422.7942735000397,None,422.7942735000397,None,422.7942735000397,None,424.4705568200152,None,424.4705568200152,None,424.4705568200152,None,,,,,,,,,,,,,112,2023-04-20_13h22.23.613,Main,2022.1.1,59.90459595325542,
positive,positive,2,l,j,,,,,,,,,10,2,182,11,,,,,,,,,main,1,1,2,positive,positive,l,l,1,0.6997205000370741,424.4741603000439,425.48953290004283,425.47296430001734,None,424.4741603000439,None,424.4741603000439,None,424.4741603000439,None,426.17051102002733,None,426.17051102002733,None,426.17051102002733,None,,,,,,,,,,,,,112,2023-04-20_13h22.23.613,Main,2022.1.1,59.90459595325542,
neutral,neutral,1,k,k,,,,,,,,,10,3,183,1,,,,,,,,,main,2,2,1,neutral,neutral,k,k,1,0.6137356000253931,426.1773766000406,427.1896973000257,427.17307479999727,None,426.1773766000406,None,426.1773766000406,None,426.1773766000406,None,427.787129119999,None,427.787129119999,None,427.787129119999,None,,,,,,,,,,,,,112,2023-04-20_13h22.23.613,Main,2022.1.1,59.90459595325542,
neutral,negative,1,k,k,,,,,,,,,10,4,184,7,,,,,,,,,main,1,1,1,negative,neutral,k,k,1,0.5817287000245415,427.790676900011,428.8036931999959,428.78703210002277,None,427.790676900011,None,427.790676900011,None,427.790676900011,None,429.37042101999396,None,429.37042101999396,None,429.37042101999396,None,,,,,,,,,,,,,112,2023-04-20_13h22.23.613,Main,2022.1.1,59.90459595325542,
negative,neutral,1,j,l,,,,,,,,,10,5,185,3,,,,,,,,,main,2,2,1,neutral,negative,j,j,1,0.6985778999514878,429.3705875000451,430.3705471000285,430.3705471000285,None,429.3705875000451,None,429.3705875000451,None,429.3705875000451,None,431.07042272001854,None,431.07042272001854,None,431.07042272001854,None,,,,,,,,,,,,,112,2023-04-20_13h22.23.613,Main,2022.1.1,59.90459595325542,
neutral,positive,1,k,k,,,,,,,,,10,6,186,4,,,,,,,,,main,2,2,1,positive,neutral,k,k,1,0.6490214000223204,431.07437520002713,432.0896075000055,432.07287690002704,None,431.07437520002713,None,431.07437520002713,None,431.07437520002713,None,432.7213249200431,None,432.7213249200431,None,432.7213249200431,None,,,,,,,,,,,,,112,2023-04-20_13h22.23.613,Main,2022.1.1,59.90459595325542,
negative,positive,1,j,l,,,,,,,,,10,7,187,6,,,,,,,,,main,1,1,1,positive,negative,j,j,1,0.7143830999848433,432.7271488000406,433.7395376000204,433.7228666000301,None,432.7271488000406,None,432.7271488000406,None,432.7271488000406,None,434.43729202004033,None,434.43729202004033,None,434.43729202004033,None,,,,,,,,,,,,,112,2023-04-20_13h22.23.613,Main,2022.1.1,59.90459595325542,
positive,negative,2,l,j,,,,,,,,,10,8,188,14,,,,,,,,,main,1,1,2,negative,positive,l,l,1,0.6816015000222251,434.44092700001784,435.4560867000255,435.43945300002815,None,434.44092700001784,None,434.44092700001784,None,434.44092700001784,None,436.12062582004,None,436.12062582004,None,436.12062582004,None,,,,,,,,,,,,,112,2023-04-20_13h22.23.613,Main,2022.1.1,59.90459595325542,
negative,negative,2,j,l,,,,,,,,,10,9,189,9,,,,,,,,,main,2,2,2,negative,negative,j,j,1,0.9151061000302434,436.1248197000241,437.1393037000089,437.1226961000357,None,436.1248197000241,None,436.1248197000241,None,436.1248197000241,None,438.0373167200305,None,438.0373167200305,None,438.0373167200305,None,,,,,,,,,,,,,112,2023-04-20_13h22.23.613,Main,2022.1.1,59.90459595325542,
negative,neutral,2,j,l,,,,,,,,,10,10,190,12,,,,,,,,,main,2,2,2,neutral,negative,j,j,1,-0.7160101999761537,438.04296210000757,None,None,None,438.04296210000757,None,438.04296210000757,None,438.04296210000757,None,438.3205826000194,None,438.3205826000194,None,438.3205826000194,None,,,,,,,,,,,,,112,2023-04-20_13h22.23.613,Main,2022.1.1,59.90459595325542,
neutral,negative,2,k,k,,,,,,,,,10,11,191,16,,,,,,,,,main,2,2,2,negative,neutral,k,k,1,0.6727587999776006,441.32021330000134,442.32275759999175,442.3060191000113,None,441.32021330000134,None,441.32021330000134,None,441.32021330000134,None,442.9893154200108,None,442.9893154200108,None,442.9893154200108,None,,,,,,,,,,,,,112,2023-04-20_13h22.23.613,Main,2022.1.1,59.90459595325542,
neutral,positive,2,k,k,,,,,,,,,10,12,192,13,,,,,,,,,main,1,1,2,positive,neutral,k,k,1,0.6148274000152014,442.9934884000104,444.00600100000156,443.98940890002996,None,442.9934884000104,None,442.9934884000104,None,442.9934884000104,None,444.6058888199914,None,444.6058888199914,None,444.6058888199914,None,,,,,,,,,,,,,112,2023-04-20_13h22.23.613,Main,2022.1.1,59.90459595325542,
positive,neutral,1,l,j,,,,,,,,,10,13,193,8,,,,,,,,,main,2,2,1,neutral,positive,l,l,1,0.6482768999994732,444.6094420000445,445.62255600001663,445.6060705000418,None,444.6094420000445,None,444.6094420000445,None,444.6094420000445,None,446.2558175199956,None,446.2558175199956,None,446.2558175199956,None,,,,,,,,,,,,,112,2023-04-20_13h22.23.613,Main,2022.1.1,59.90459595325542,
neutral,neutral,2,k,k,,,,,,,,,10,14,194,10,,,,,,,,,main,2,2,2,neutral,neutral,k,k,1,0.5983339000376873,446.25926330004586,447.27249360003043,447.2558664000244,None,446.25926330004586,None,446.25926330004586,None,446.25926330004586,None,447.85580092002056,None,447.85580092002056,None,447.85580092002056,None,,,,,,,,,,,,,112,2023-04-20_13h22.23.613,Main,2022.1.1,59.90459595325542,
negative,negative,1,j,l,,,,,,,,,10,15,195,0,,,,,,,,,main,1,1,1,negative,negative,j,j,1,0.6625401999917813,447.8590658000321,448.87248710001586,448.85598089999985,None,447.8590658000321,None,447.8590658000321,None,447.8590658000321,None,449.5199846200121,None,449.5199846200121,None,449.5199846200121,None,,,,,,,,,,,,,112,2023-04-20_13h22.23.613,Main,2022.1.1,59.90459595325542,
positive,negative,1,l,j,,,,,,,,,10,16,196,5,,,,,,,,,main,2,2,1,negative,positive,l,,0,0.7842048000311479,449.52002430002904,450.5199478000286,450.5199478000286,None,449.52002430002904,None,449.52002430002904,None,449.52002430002904,None,451.30327680002665,None,451.30327680002665,None,451.30327680002665,None,,,,,,,,,,,,,112,2023-04-20_13h22.23.613,Main,2022.1.1,59.90459595325542,
positive,positive,1,l,j,,,,,,,,,10,17,197,2,,,,,,,,,main,2,2,1,positive,positive,l,l,1,0.7040672000148334,452.3033025999903,453.3032946000458,453.2866199000273,None,452.3033025999903,None,452.3033025999903,None,452.3033025999903,None,454.00327112004743,None,454.00327112004743,None,454.00327112004743,None,,,,,,,,,,,,,112,2023-04-20_13h22.23.613,Main,2022.1.1,59.90459595325542,
neutral,negative,1,k,k,,,,,,,,,11,0,198,7,,,,,,,,,main,1,1,1,negative,neutral,k,k,1,0.6310459999949671,454.0224728999892,455.0224891999969,455.00579230004223,None,454.0224728999892,None,454.0224728999892,None,454.0224728999892,None,455.6365890199959,None,455.6365890199959,None,455.6365890199959,None,,,,,,,,,,,,,112,2023-04-20_13h22.23.613,Main,2022.1.1,59.90459595325542,
negative,negative,2,j,l,,,,,,,,,11,1,199,9,,,,,,,,,main,1,1,2,negative,negative,j,j,1,0.698515199997928,455.6433036000235,456.65561680000974,456.63906710001174,None,455.6433036000235,None,455.6433036000235,None,455.6433036000235,None,457.33686271999613,None,457.33686271999613,None,457.33686271999613,None,,,,,,,,,,,,,112,2023-04-20_13h22.23.613,Main,2022.1.1,59.90459595325542,
negative,positive,2,j,l,,,,,,,,,11,2,200,15,,,,,,,,,main,2,2,2,positive,negative,j,j,1,0.6339750000042841,457.3413529000245,458.3556382000097,458.3390228000353,None,457.3413529000245,None,457.3413529000245,None,457.3413529000245,None,458.97306971999933,None,458.97306971999933,None,458.97306971999933,None,,,,,,,,,,,,,112,2023-04-20_13h22.23.613,Main,2022.1.1,59.90459595325542,
negative,neutral,2,j,l,,,,,,,,,11,3,201,12,,,,,,,,,main,2,2,2,neutral,negative,j,j,1,0.7307370000053197,458.9766036000219,459.98902730003465,459.97239559999434,None,458.9766036000219,None,458.9766036000219,None,458.9766036000219,None,460.7055023199937,None,460.7055023199937,None,460.7055023199937,None,,,,,,,,,,,,,112,2023-04-20_13h22.23.613,Main,2022.1.1,59.90459595325542,
positive,positive,1,l,j,,,,,,,,,11,4,202,2,,,,,,,,,main,2,2,1,positive,positive,l,l,1,0.7297007000306621,460.70873870002106,461.71966450003674,461.7029910000274,None,460.70873870002106,None,460.70873870002106,None,460.70873870002106,None,462.4363772200013,None,462.4363772200013,None,462.4363772200013,None,,,,,,,,,,,,,112,2023-04-20_13h22.23.613,Main,2022.1.1,59.90459595325542,
positive,negative,1,l,j,,,,,,,,,11,5,203,5,,,,,,,,,main,1,1,1,negative,positive,l,l,1,0.5645926999859512,462.43658480001613,463.43637599999784,463.43637599999784,None,462.43658480001613,None,462.43658480001613,None,462.43658480001613,None,464.00303461999283,None,464.00303461999283,None,464.00303461999283,None,,,,,,,,,,,,,112,2023-04-20_13h22.23.613,Main,2022.1.1,59.90459595325542,
positive,neutral,2,l,j,,,,,,,,,11,6,204,17,,,,,,,,,main,2,2,2,neutral,positive,l,l,1,0.7318271999829449,464.00638650002657,465.0197146999999,465.0034038000158,None,464.00638650002657,None,464.00638650002657,None,464.00638650002657,None,465.73679902000003,None,465.73679902000003,None,465.73679902000003,None,,,,,,,,,,,,,112,2023-04-20_13h22.23.613,Main,2022.1.1,59.90459595325542,
positive,neutral,1,l,j,,,,,,,,,11,7,205,8,,,,,,,,,main,2,2,1,neutral,positive,l,l,1,1.1474865999771282,465.7431543000275,466.7554918000242,466.73885500000324,None,465.7431543000275,None,465.7431543000275,None,465.7431543000275,None,467.88665741999284,None,467.88665741999284,None,467.88665741999284,None,,,,,,,,,,,,,112,2023-04-20_13h22.23.613,Main,2022.1.1,59.90459595325542,
neutral,positive,1,k,k,,,,,,,,,11,8,206,4,,,,,,,,,main,1,1,1,positive,neutral,k,k,1,0.7149126000003889,467.9055607999908,468.90547400002833,468.8888117999886,None,467.9055607999908,None,467.9055607999908,None,467.9055607999908,None,469.6032891200448,None,469.6032891200448,None,469.6032891200448,None,,,,,,,,,,,,,112,2023-04-20_13h22.23.613,Main,2022.1.1,59.90459595325542,
positive,negative,2,l,j,,,,,,,,,11,9,207,14,,,,,,,,,main,2,2,2,negative,positive,l,l,1,0.664914500026498,469.609300000011,470.6219990000245,470.60545209998963,None,469.609300000011,None,469.609300000011,None,469.609300000011,None,471.2699075200071,None,471.2699075200071,None,471.2699075200071,None,,,,,,,,,,,,,112,2023-04-20_13h22.23.613,Main,2022.1.1,59.90459595325542,
neutral,neutral,2,k,k,,,,,,,,,11,10,208,10,,,,,,,,,main,1,1,2,neutral,neutral,k,k,1,0.6665113999624737,471.2756017000065,472.2887095999904,472.27213520003716,None,471.2756017000065,None,471.2756017000065,None,471.2756017000065,None,472.93650882001384,None,472.93650882001384,None,472.93650882001384,None,,,,,,,,,,,,,112,2023-04-20_13h22.23.613,Main,2022.1.1,59.90459595325542,
negative,positive,1,j,l,,,,,,,,,11,11,209,6,,,,,,,,,main,2,2,1,positive,negative,j,j,1,0.8134163000504486,472.9412803000305,473.95275070000207,473.9360763000441,None,472.9412803000305,None,472.9412803000305,None,472.9412803000305,None,474.75278251999407,None,474.75278251999407,None,474.75278251999407,None,,,,,,,,,,,,,112,2023-04-20_13h22.23.613,Main,2022.1.1,59.90459595325542,
neutral,neutral,1,k,k,,,,,,,,,11,12,210,1,,,,,,,,,main,2,2,1,neutral,neutral,k,k,1,0.6483200999791734,474.75281090004137,475.75278560002334,475.75278560002334,None,474.75281090004137,None,474.75281090004137,None,474.75281090004137,None,476.4028064200247,None,476.4028064200247,None,476.4028064200247,None,,,,,,,,,,,,,112,2023-04-20_13h22.23.613,Main,2022.1.1,59.90459595325542,
neutral,negative,2,k,k,,,,,,,,,11,13,211,16,,,,,,,,,main,2,2,2,negative,neutral,k,k,1,0.6643090999568813,476.4059186000377,477.4194592999993,477.40278709999984,None,476.4059186000377,None,476.4059186000377,None,476.4059186000377,None,478.0694593200169,None,478.0694593200169,None,478.0694593200169,None,,,,,,,,,,,,,112,2023-04-20_13h22.23.613,Main,2022.1.1,59.90459595325542,
negative,neutral,1,j,l,,,,,,,,,11,14,212,3,,,,,,,,,main,1,1,1,neutral,negative,j,,0,0.9344566999934614,478.0750692000147,479.08861880004406,479.0552239000099,None,478.0750692000147,None,478.0750692000147,None,478.0750692000147,None,480.00305440003285,None,480.00305440003285,None,480.00305440003285,None,,,,,,,,,,,,,112,2023-04-20_13h22.23.613,Main,2022.1.1,59.90459595325542,
negative,negative,1,j,l,,,,,,,,,11,15,213,0,,,,,,,,,main,1,1,1,negative,negative,j,j,1,1.034664699982386,481.00338790001115,482.00514230004046,481.9884905000217,None,481.00338790001115,None,481.00338790001115,None,481.00338790001115,None,483.0363395200402,None,483.0363395200402,None,483.0363395200402,None,,,,,,,,,,,,,112,2023-04-20_13h22.23.613,Main,2022.1.1,59.90459595325542,
positive,positive,2,l,j,,,,,,,,,11,16,214,11,,,,,,,,,main,1,1,2,positive,positive,l,l,1,0.8483321000239812,483.0419651000411,484.0529396000202,484.0384500999935,None,483.0419651000411,None,483.0419651000411,None,483.0419651000411,None,484.88627581999754,None,484.88627581999754,None,484.88627581999754,None,,,,,,,,,,,,,112,2023-04-20_13h22.23.613,Main,2022.1.1,59.90459595325542,
neutral,positive,2,k,k,,,,,,,,,11,17,215,13,,,,,,,,,main,1,1,2,positive,neutral,k,k,1,0.6812554000061937,484.89002200000687,485.90255220001563,485.8858968000277,None,484.89002200000687,None,484.89002200000687,None,484.89002200000687,None,486.56922922001104,None,486.56922922001104,None,486.56922922001104,None,,,,,,,,,,,,,112,2023-04-20_13h22.23.613,Main,2022.1.1,59.90459595325542,
neutral,positive,2,k,k,,,,,,,,,12,0,216,13,,,,,,,,,main,2,2,2,positive,neutral,k,k,1,0.5819599999813363,486.56918869999936,487.56923690001713,487.56923690001713,None,486.56918869999936,None,486.56918869999936,None,486.56918869999936,None,488.15252272001817,None,488.15252272001817,None,488.15252272001817,None,,,,,,,,,,,,,112,2023-04-20_13h22.23.613,Main,2022.1.1,59.90459595325542,
negative,negative,2,j,l,,,,,,,,,12,1,217,9,,,,,,,,,main,2,2,2,negative,negative,j,j,1,0.7507700999849476,488.15300310001476,489.15254520002054,489.15254520002054,None,488.15300310001476,None,488.15300310001476,None,488.15300310001476,None,489.9049655199924,None,489.9049655199924,None,489.9049655199924,None,,,,,,,,,,,,,112,2023-04-20_13h22.23.613,Main,2022.1.1,59.90459595325542,
neutral,negative,1,k,k,,,,,,,,,12,2,218,7,,,,,,,,,main,1,1,1,negative,neutral,k,k,1,0.629335000005085,489.908151700045,490.92163870000513,490.9050341999973,None,489.908151700045,None,489.908151700045,None,489.908151700045,None,491.53588042003685,None,491.53588042003685,None,491.53588042003685,None,,,,,,,,,,,,,112,2023-04-20_13h22.23.613,Main,2022.1.1,59.90459595325542,
negative,neutral,2,j,l,,,,,,,,,12,3,219,12,,,,,,,,,main,1,1,2,neutral,negative,j,j,1,0.7319237999618053,491.5422629000386,492.5549177000066,492.53835420001997,None,491.5422629000386,None,491.5422629000386,None,491.5422629000386,None,493.2694512200251,None,493.2694512200251,None,493.2694512200251,None,,,,,,,,,,,,,112,2023-04-20_13h22.23.613,Main,2022.1.1,59.90459595325542,
positive,neutral,1,l,j,,,,,,,,,12,4,220,8,,,,,,,,,main,1,1,1,neutral,positive,l,l,1,0.784012200019788,493.27533850003965,494.2882130999933,494.2715992000303,None,493.27533850003965,None,493.27533850003965,None,493.27533850003965,None,495.0548071200319,None,495.0548071200319,None,495.0548071200319,None,,,,,,,,,,,,,112,2023-04-20_13h22.23.613,Main,2022.1.1,59.90459595325542,
positive,positive,2,l,j,,,,,,,,,12,5,221,11,,,,,,,,,main,2,2,2,positive,positive,l,l,1,0.6463042000541463,495.0585415000096,496.07153310003923,496.05492900003446,None,495.0585415000096,None,495.0585415000096,None,495.0585415000096,None,496.70269132000976,None,496.70269132000976,None,496.70269132000976,None,,,,,,,,,,,,,112,2023-04-20_13h22.23.613,Main,2022.1.1,59.90459595325542,
positive,neutral,2,l,j,,,,,,,,,12,6,222,17,,,,,,,,,main,1,1,2,neutral,positive,l,l,1,0.6477064999635331,496.70871520001674,497.72144870000193,497.704813999997,None,496.70871520001674,None,496.70871520001674,None,496.70871520001674,None,498.3522730199911,None,498.3522730199911,None,498.3522730199911,None,,,,,,,,,,,,,112,2023-04-20_13h22.23.613,Main,2022.1.1,59.90459595325542,
positive,negative,1,l,j,,,,,,,,,12,7,223,5,,,,,,,,,main,2,2,1,negative,positive,l,k,0,0.7152160999830812,498.35225890000584,499.35226690000854,499.35226690000854,None,498.35225890000584,None,498.35225890000584,None,498.35225890000584,None,500.06898099998944,None,500.06898099998944,None,500.06898099998944,None,,,,,,,,,,,,,112,2023-04-20_13h22.23.613,Main,2022.1.1,59.90459595325542,
neutral,positive,1,k,k,,,,,,,,,12,8,224,4,,,,,,,,,main,1,1,1,positive,neutral,k,k,1,0.6512272999971174,501.0704132000101,502.07139019999886,502.05480770004215,None,501.0704132000101,None,501.0704132000101,None,501.0704132000101,None,502.7189969200117,None,502.7189969200117,None,502.7189969200117,None,,,,,,,,,,,,,112,2023-04-20_13h22.23.613,Main,2022.1.1,59.90459595325542,
