target,distractor,set,ans1,ans2,rep_loop2.thisRepN,rep_loop2.thisTrialN,rep_loop2.thisN,rep_loop2.thisIndex,flanker_prac_loop.thisRepN,flanker_prac_loop.thisTrialN,flanker_prac_loop.thisN,flanker_prac_loop.thisIndex,flanker_main_loop.thisRepN,flanker_main_loop.thisTrialN,flanker_main_loop.thisN,flanker_main_loop.thisIndex,fl_inst_resp.keys,fl_inst_resp.rt,sound_1.started,sound_1.stopped,image_4.started,image_4.stopped,back_2.started,back_2.stopped,main_prac,fl_cold,fl_colt,fl_set,fl_dcond,fl_tcond,fl_ans,fl_res,fl_corr,fl_rt,fix_fl.started,fix_fl.stopped,targ.started,targ.stopped,j_button.started,j_button.stopped,k_button.started,k_button.stopped,l_button.started,l_button.stopped,j_button2.started,j_button2.stopped,k_button2.started,k_button2.stopped,l_button2.started,l_button2.stopped,mainback.started,mainback.stopped,key_resp.keys,key_resp.rt,mouse_6.x,mouse_6.y,mouse_6.leftButton,mouse_6.midButton,mouse_6.rightButton,mouse_6.started,mouse_6.stopped,text_2.started,text_2.stopped,id*,date,expName,psychopyVersion,frameRate,
,,,,,0,0,0,0,,,,,,,,,space,10.989754799986258,27.838565980060956,None,38.85493839997798,None,,,,,,,,,,,,,,,,,,,,,,,,,,,,,,,,,,,,,,,,,,201,2023-04-24_10h25.06.662,Main,2022.1.1,60.30464700470326,
negative,negative,1,j,l,,,,,0,0,0,0,,,,,,,,,,,44.02160169999115,None,prac,2,2,1,negative,negative,l,l,1,1.4244345999322832,46.0468776000198,47.05245990003459,47.03577309998218,None,46.0468776000198,None,46.0468776000198,None,46.0468776000198,None,48.47153238006867,None,48.47153238006867,None,48.47153238006867,None,,,,,,,,,,,,,,201,2023-04-24_10h25.06.662,Main,2022.1.1,60.30464700470326,
neutral,positive,2,k,k,,,,,0,1,1,13,,,,,,,,,,,,,prac,2,2,2,positive,neutral,k,k,1,0.6479896000819281,48.476054699975066,49.48816050007008,49.471579500008374,None,48.476054699975066,None,48.476054699975066,None,48.476054699975066,None,50.12159938002005,None,50.12159938002005,None,50.12159938002005,None,,,,,,,,,,,,,,201,2023-04-24_10h25.06.662,Main,2022.1.1,60.30464700470326,
positive,neutral,1,l,j,,,,,0,2,2,8,,,,,,,,,,,,,prac,1,1,1,neutral,positive,j,j,1,0.5818497999571264,50.12480820005294,51.138104300014675,51.12156280002091,None,50.12480820005294,None,50.12480820005294,None,50.12480820005294,None,51.70482068005949,None,51.70482068005949,None,51.70482068005949,None,,,,,,,,,,,,,,201,2023-04-24_10h25.06.662,Main,2022.1.1,60.30464700470326,
positive,positive,2,l,j,,,,,0,3,3,11,,,,,,,,,,,,,prac,2,2,2,positive,positive,j,j,1,0.6485028000315651,51.70765140000731,52.72143809997942,52.704840300022624,None,51.70765140000731,None,51.70765140000731,None,51.70765140000731,None,53.354765880014746,None,53.354765880014746,None,53.354765880014746,None,,,,,,,,,,,,,,201,2023-04-24_10h25.06.662,Main,2022.1.1,60.30464700470326,
neutral,negative,2,k,k,,,,,0,4,4,16,,,,,,,,,,,,,prac,2,2,2,negative,neutral,k,k,1,0.7317339999135584,53.35782380006276,54.37141849996988,54.354835300007835,None,53.35782380006276,None,53.35782380006276,None,53.35782380006276,None,55.08809248006437,None,55.08809248006437,None,55.08809248006437,None,,,,,,,,,,,,,,201,2023-04-24_10h25.06.662,Main,2022.1.1,60.30464700470326,
positive,negative,2,l,j,,,,,0,5,5,14,,,,,,,,,,,,,prac,1,1,2,negative,positive,j,j,1,0.6463704999769107,55.09160510008223,56.10214129998349,56.085476899985224,None,55.09160510008223,None,55.09160510008223,None,55.09160510008223,None,56.735509979980996,None,56.735509979980996,None,56.735509979980996,None,,,,,,,,,,,,,,201,2023-04-24_10h25.06.662,Main,2022.1.1,60.30464700470326,
neutral,neutral,2,k,k,,,,,0,6,6,10,,,,,,,,,,,,,prac,1,1,2,neutral,neutral,k,k,1,0.5820816999766976,56.73547479999252,57.73555340000894,57.73555340000894,None,56.73547479999252,None,56.73547479999252,None,56.73547479999252,None,58.318899480020626,None,58.318899480020626,None,58.318899480020626,None,,,,,,,,,,,,,,201,2023-04-24_10h25.06.662,Main,2022.1.1,60.30464700470326,
negative,positive,1,j,l,,,,,0,7,7,6,,,,,,,,,,,,,prac,2,2,1,positive,negative,l,l,1,0.581168600008823,58.3204600000754,59.33549920003861,59.318809000076726,None,58.3204600000754,None,58.3204600000754,None,58.3204600000754,None,59.90218438007869,None,59.90218438007869,None,59.90218438007869,None,,,,,,,,,,,,,,201,2023-04-24_10h25.06.662,Main,2022.1.1,60.30464700470326,
negative,neutral,2,j,l,,,,,0,8,8,12,,,,,,,,,,,,,prac,2,2,2,neutral,negative,l,l,1,1.3178379000164568,59.90555779996794,60.9047027999768,60.9047027999768,None,59.90555779996794,None,59.90555779996794,None,59.90555779996794,None,62.221381180081515,None,62.221381180081515,None,62.221381180081515,None,,,,,,,,,,,,,,201,2023-04-24_10h25.06.662,Main,2022.1.1,60.30464700470326,
positive,positive,1,l,j,,,,,0,9,9,2,,,,,,,,,,,,,prac,2,2,1,positive,positive,j,j,1,0.6814267999725416,62.22454149997793,63.23789350001607,63.22130630002357,None,62.22454149997793,None,62.22454149997793,None,62.22454149997793,None,63.90455617997795,None,63.90455617997795,None,63.90455617997795,None,,,,,,,,,,,,,,201,2023-04-24_10h25.06.662,Main,2022.1.1,60.30464700470326,
positive,neutral,2,l,j,,,,,0,10,10,17,,,,,,,,,,,,,prac,1,1,2,neutral,positive,j,j,1,0.630822200095281,63.9074611000251,64.92122050002217,64.90459270006977,None,63.9074611000251,None,63.9074611000251,None,63.9074611000251,None,65.5366834799992,None,65.5366834799992,None,65.5366834799992,None,,,,,,,,,,,,,,201,2023-04-24_10h25.06.662,Main,2022.1.1,60.30464700470326,
negative,positive,2,j,l,,,,,0,11,11,15,,,,,,,,,,,,,prac,1,1,2,positive,negative,l,l,1,0.5997390999691561,65.54257000004873,66.55448380007874,66.5379081000574,None,65.54257000004873,None,65.54257000004873,None,65.54257000004873,None,67.13776897997596,None,67.13776897997596,None,67.13776897997596,None,,,,,,,,,,,,,,201,2023-04-24_10h25.06.662,Main,2022.1.1,60.30464700470326,
neutral,negative,1,k,k,,,,,0,12,12,7,,,,,,,,,,,,,prac,1,1,1,negative,neutral,k,k,1,0.5964564000023529,67.14075540006161,68.14672229997814,68.134413999971,None,67.14075540006161,None,67.14075540006161,None,67.14075540006161,None,68.73528888004367,None,68.73528888004367,None,68.73528888004367,None,,,,,,,,,,,,,,201,2023-04-24_10h25.06.662,Main,2022.1.1,60.30464700470326,
negative,neutral,1,j,l,,,,,0,13,13,3,,,,,,,,,,,,,prac,2,2,1,neutral,negative,l,l,1,0.7161678000120446,68.73551350005437,69.73523400002159,69.73523400002159,None,68.73551350005437,None,68.73551350005437,None,68.73551350005437,None,70.45196697998327,None,70.45196697998327,None,70.45196697998327,None,,,,,,,,,,,,,,201,2023-04-24_10h25.06.662,Main,2022.1.1,60.30464700470326,
neutral,neutral,1,k,k,,,,,0,14,14,1,,,,,,,,,,,,,prac,2,2,1,neutral,neutral,k,k,1,0.6976930999662727,70.45619629998691,71.47110269998666,71.45448040007614,None,70.45619629998691,None,70.45619629998691,None,70.45619629998691,None,72.15228398002219,None,72.15228398002219,None,72.15228398002219,None,,,,,,,,,,,,,,201,2023-04-24_10h25.06.662,Main,2022.1.1,60.30464700470326,
neutral,positive,1,k,k,,,,,0,15,15,4,,,,,,,,,,,,,prac,2,2,1,positive,neutral,k,k,1,0.6342941999901086,72.15849439997692,73.17106930003501,73.154465300031,None,72.15849439997692,None,72.15849439997692,None,72.15849439997692,None,73.78769538002089,None,73.78769538002089,None,73.78769538002089,None,,,,,,,,,,,,,,201,2023-04-24_10h25.06.662,Main,2022.1.1,60.30464700470326,
negative,negative,2,j,l,,,,,0,16,16,9,,,,,,,,,,,,,prac,1,1,2,negative,negative,l,l,1,0.7320005999645218,73.79054100008216,74.8043421000475,74.78772989998106,None,73.79054100008216,None,73.79054100008216,None,73.79054100008216,None,75.52104458000977,None,75.52104458000977,None,75.52104458000977,None,,,,,,,,,,,,,,201,2023-04-24_10h25.06.662,Main,2022.1.1,60.30464700470326,
positive,negative,1,l,j,,,,,0,17,17,5,,,,,,,,,,,,,prac,2,2,1,negative,positive,j,j,1,0.7131393000017852,75.5240662000142,76.53765670000575,76.52105169999413,None,75.5240662000142,None,75.5240662000142,None,75.5240662000142,None,77.23549288008363,None,77.23549288008363,None,77.23549288008363,None,,,,,,,,,,,,,,201,2023-04-24_10h25.06.662,Main,2022.1.1,60.30464700470326,
neutral,negative,2,k,k,,,,,1,0,18,16,,,,,,,,,,,,,prac,2,2,2,negative,neutral,k,k,1,0.6479816000210121,77.24103200004902,78.24611609999556,78.22406969999429,None,77.24103200004902,None,77.24103200004902,None,77.24103200004902,None,78.8850193799939,None,78.8850193799939,None,78.8850193799939,None,,,,,,,,,,,,,,201,2023-04-24_10h25.06.662,Main,2022.1.1,60.30464700470326,
positive,negative,2,l,j,,,,,1,1,19,14,,,,,,,,,,,,,prac,2,2,2,negative,positive,j,j,1,0.7017536999192089,78.88500760006718,79.88505819998682,79.88505819998682,None,78.88500760006718,None,78.88500760006718,None,78.88500760006718,None,80.58511958001182,None,80.58511958001182,None,80.58511958001182,None,,,,,,,,,,,,,,201,2023-04-24_10h25.06.662,Main,2022.1.1,60.30464700470326,
negative,positive,2,j,l,,,,,1,2,20,15,,,,,,,,,,,,,prac,1,1,2,positive,negative,l,l,1,1.129678800003603,80.5914595000213,81.60423040005844,81.58763660001568,None,80.5914595000213,None,80.5914595000213,None,80.5914595000213,None,82.71877658003942,None,82.71877658003942,None,82.71877658003942,None,,,,,,,,,,,,,,201,2023-04-24_10h25.06.662,Main,2022.1.1,60.30464700470326,
neutral,negative,1,k,k,,,,,1,3,21,7,,,,,,,,,,,,,prac,2,2,1,negative,neutral,k,k,1,0.6506123000290245,82.72404780006036,83.73745400004555,83.72086610004772,None,82.72404780006036,None,82.72404780006036,None,82.72404780006036,None,84.37081667999738,None,84.37081667999738,None,84.37081667999738,None,,,,,,,,,,,,,,201,2023-04-24_10h25.06.662,Main,2022.1.1,60.30464700470326,
neutral,neutral,2,k,k,,,,,1,4,22,10,,,,,,,,,,,,,prac,2,2,2,neutral,neutral,k,k,1,0.5466231999453157,84.37470140005462,85.38745000003837,85.37081280001439,None,84.37470140005462,None,84.37470140005462,None,84.37470140005462,None,85.91868307997939,None,85.91868307997939,None,85.91868307997939,None,,,,,,,,,,,,,,201,2023-04-24_10h25.06.662,Main,2022.1.1,60.30464700470326,
neutral,neutral,1,k,k,,,,,1,5,23,1,,,,,,,,,,,,,prac,2,2,1,neutral,neutral,k,k,1,0.5171816000947729,85.92168829997536,86.92069679999258,86.90407869999763,None,85.92168829997536,None,85.92168829997536,None,85.92168829997536,None,87.43743198001758,None,87.43743198001758,None,87.43743198001758,None,,,,,,,,,,,,,,201,2023-04-24_10h25.06.662,Main,2022.1.1,60.30464700470326,
negative,neutral,1,j,l,,,,,1,6,24,3,,,,,,,,,,,,,prac,1,1,1,neutral,negative,l,l,1,0.6133825000142679,87.4395817000186,88.45155760005582,88.43488459999207,None,87.4395817000186,None,87.4395817000186,None,87.4395817000186,None,89.05155757998583,None,89.05155757998583,None,89.05155757998583,None,,,,,,,,,,,,,,201,2023-04-24_10h25.06.662,Main,2022.1.1,60.30464700470326,
neutral,positive,2,k,k,,,,,1,7,25,13,,,,,,,,,,,,,prac,1,1,2,positive,neutral,k,k,1,0.8820870999479666,89.05151520005893,90.05157910007983,90.05157910007983,None,89.05151520005893,None,89.05151520005893,None,89.05151520005893,None,90.93524528001436,None,90.93524528001436,None,90.93524528001436,None,,,,,,,,,,,,,,201,2023-04-24_10h25.06.662,Main,2022.1.1,60.30464700470326,
positive,neutral,1,l,j,,,,,1,8,26,8,,,,,,,,,,,,,prac,2,2,1,neutral,positive,j,j,1,0.7168393000029027,90.95208429999184,91.95399910002016,91.93740860000253,None,90.95208429999184,None,90.95208429999184,None,90.95208429999184,None,92.65406248006039,None,92.65406248006039,None,92.65406248006039,None,,,,,,,,,,,,,,201,2023-04-24_10h25.06.662,Main,2022.1.1,60.30464700470326,
positive,positive,2,l,j,,,,,1,9,27,11,,,,,,,,,,,,,prac,2,2,2,positive,positive,j,j,1,0.6987467999570072,92.65680820005946,93.67059700004756,93.6540084000444,None,92.65680820005946,None,92.65680820005946,None,92.65680820005946,None,94.35408698008396,None,94.35408698008396,None,94.35408698008396,None,,,,,,,,,,,,,,201,2023-04-24_10h25.06.662,Main,2022.1.1,60.30464700470326,
negative,neutral,2,j,l,,,,,1,10,28,12,,,,,,,,,,,,,prac,2,2,2,neutral,negative,l,l,1,0.69897500006482,94.35670220002066,95.37059110007249,95.35400010005105,None,94.35670220002066,None,94.35670220002066,None,94.35670220002066,None,96.05411608002615,None,96.05411608002615,None,96.05411608002615,None,,,,,,,,,,,,,,201,2023-04-24_10h25.06.662,Main,2022.1.1,60.30464700470326,
negative,negative,2,j,l,,,,,1,11,29,9,,,,,,,,,,,,,prac,1,1,2,negative,negative,l,l,1,0.6167350999312475,96.05786479997914,97.07056150003336,97.05392860004213,None,96.05786479997914,None,96.05786479997914,None,96.05786479997914,None,97.67009678003379,None,97.67009678003379,None,97.67009678003379,None,,,,,,,,,,,,,,201,2023-04-24_10h25.06.662,Main,2022.1.1,60.30464700470326,
negative,positive,1,j,l,,,,,1,12,30,6,,,,,,,,,,,,,prac,1,1,1,positive,negative,l,l,1,0.5609618000453338,97.67538160004187,98.68465020006988,98.66797459998634,None,97.67538160004187,None,97.67538160004187,None,97.67538160004187,None,99.23463737997227,None,99.23463737997227,None,99.23463737997227,None,,,,,,,,,,,,,,201,2023-04-24_10h25.06.662,Main,2022.1.1,60.30464700470326,
positive,positive,1,l,j,,,,,1,13,31,2,,,,,,,,,,,,,prac,2,2,1,positive,positive,j,j,1,0.7319424001034349,99.23462360003032,100.2347415999975,100.2347415999975,None,99.23462360003032,None,99.23462360003032,None,99.23462360003032,None,100.96804838008248,None,100.96804838008248,None,100.96804838008248,None,,,,,,,,,,,,,,201,2023-04-24_10h25.06.662,Main,2022.1.1,60.30464700470326,
negative,negative,1,j,l,,,,,1,14,32,0,,,,,,,,,,,,,prac,2,2,1,negative,negative,l,l,1,0.6992455999134108,100.97087149997242,101.97046650003176,101.95385679998435,None,100.97087149997242,None,100.97087149997242,None,100.97087149997242,None,102.66834988000338,None,102.66834988000338,None,102.66834988000338,None,,,,,,,,,,,,,,201,2023-04-24_10h25.06.662,Main,2022.1.1,60.30464700470326,
positive,neutral,2,l,j,,,,,1,15,33,17,,,,,,,,,,,,,prac,2,2,2,neutral,positive,j,j,1,0.6651034000096843,102.67397530004382,103.68709790008143,103.67049639998004,None,102.67397530004382,None,102.67397530004382,None,102.67397530004382,None,104.3348264799919,None,104.3348264799919,None,104.3348264799919,None,,,,,,,,,,,,,,201,2023-04-24_10h25.06.662,Main,2022.1.1,60.30464700470326,
neutral,positive,1,k,k,,,,,1,16,34,4,,,,,,,,,,,,,prac,2,2,1,positive,neutral,k,k,1,0.584484799997881,104.34071810008027,105.3537379000336,105.32046239997726,None,104.34071810008027,None,104.34071810008027,None,104.34071810008027,None,105.92044227998704,None,105.92044227998704,None,105.92044227998704,None,,,,,,,,,,,,,,201,2023-04-24_10h25.06.662,Main,2022.1.1,60.30464700470326,
positive,negative,1,l,j,,,,,1,17,35,5,,,,,,,,,,,,,prac,2,2,1,negative,positive,j,j,1,0.6799841999309137,105.92338180006482,106.9370118000079,106.92044999997597,None,105.92338180006482,None,105.92338180006482,None,105.92338180006482,None,107.60155307999813,None,107.60155307999813,None,107.60155307999813,None,,,,,,,,,,,,,,201,2023-04-24_10h25.06.662,Main,2022.1.1,60.30464700470326,
,,,,,,,,,,,,,,,,,,,,,,,,,,,,,,,,,,,,,,,,,,,,,,,,,,,107.601666499977,None,space,5.55514559999574,,,,,,,,,,201,2023-04-24_10h25.06.662,Main,2022.1.1,60.30464700470326,
,,,,,,,,,,,,,,,,,,,,,,,,,,,,,,,,,,,,,,,,,,,,,,,,,,,,,,,0.6388889,-0.3962963,0,0,0,0.010832180036231875,None,,,201,2023-04-24_10h25.06.662,Main,2022.1.1,60.30464700470326,
neutral,positive,1,k,k,,,,,,,,,0,0,0,4,,,,,,,113.18697679997422,None,main,2,2,1,positive,neutral,k,k,1,0.6626561000011861,115.19178440002725,116.2036228000652,116.18690209998749,None,115.19178440002725,None,115.19178440002725,None,115.19178440002725,None,116.85137738005724,None,116.85137738005724,None,116.85137738005724,None,,,,,,,,,,,,,,201,2023-04-24_10h25.06.662,Main,2022.1.1,60.30464700470326,
neutral,negative,1,k,k,,,,,,,,,0,1,1,7,,,,,,,,,main,1,1,1,negative,neutral,k,k,1,0.49568230006843805,116.85755070007872,117.87009250000119,117.85350930003915,None,116.85755070007872,None,116.85755070007872,None,116.85755070007872,None,118.35093678007834,None,118.35093678007834,None,118.35093678007834,None,,,,,,,,,,,,,,201,2023-04-24_10h25.06.662,Main,2022.1.1,60.30464700470326,
positive,neutral,1,l,j,,,,,,,,,0,2,2,8,,,,,,,,,main,2,2,1,neutral,positive,j,j,1,0.6648462999146432,118.3533128000563,119.36760800005868,119.3510721999919,None,118.3533128000563,None,118.3533128000563,None,118.3533128000563,None,120.01761868000031,None,120.01761868000031,None,120.01761868000031,None,,,,,,,,,,,,,,201,2023-04-24_10h25.06.662,Main,2022.1.1,60.30464700470326,
neutral,positive,2,k,k,,,,,,,,,0,3,3,13,,,,,,,,,main,1,1,2,positive,neutral,k,k,1,0.6852198999840766,120.01914230000693,121.02018620003946,121.02018620003946,None,120.01914230000693,None,120.01914230000693,None,120.01914230000693,None,121.70416138004512,None,121.70416138004512,None,121.70416138004512,None,,,,,,,,,,,,,,201,2023-04-24_10h25.06.662,Main,2022.1.1,60.30464700470326,
positive,negative,2,l,j,,,,,,,,,0,4,4,14,,,,,,,,,main,1,1,2,negative,positive,j,j,1,0.6643869000254199,121.7082051000325,122.7200501000043,122.70342020003591,None,121.7082051000325,None,121.7082051000325,None,121.7082051000325,None,123.3703899800079,None,123.3703899800079,None,123.3703899800079,None,,,,,,,,,,,,,,201,2023-04-24_10h25.06.662,Main,2022.1.1,60.30464700470326,
neutral,neutral,1,k,k,,,,,,,,,0,5,5,1,,,,,,,,,main,2,2,1,neutral,neutral,k,k,1,0.6458727000281215,123.37399120000191,124.38671940006316,124.3701111000264,None,123.37399120000191,None,123.37399120000191,None,123.37399120000191,None,125.01787707998884,None,125.01787707998884,None,125.01787707998884,None,,,,,,,,,,,,,,201,2023-04-24_10h25.06.662,Main,2022.1.1,60.30464700470326,
negative,negative,2,j,l,,,,,,,,,0,6,6,9,,,,,,,,,main,1,1,2,negative,negative,l,l,1,0.8506261999718845,125.02094630000647,126.0200711999787,126.0200711999787,None,125.02094630000647,None,125.02094630000647,None,125.02094630000647,None,126.86997708000709,None,126.86997708000709,None,126.86997708000709,None,,,,,,,,,,,,,,201,2023-04-24_10h25.06.662,Main,2022.1.1,60.30464700470326,
positive,positive,2,l,j,,,,,,,,,0,7,7,11,,,,,,,,,main,2,2,2,positive,positive,j,j,1,0.6162754000397399,126.87409870000556,127.88660229998641,127.86994730005972,None,126.87409870000556,None,126.87409870000556,None,126.87409870000556,None,128.48776308002417,None,128.48776308002417,None,128.48776308002417,None,,,,,,,,,,,,,,201,2023-04-24_10h25.06.662,Main,2022.1.1,60.30464700470326,
negative,neutral,1,j,l,,,,,,,,,0,8,8,3,,,,,,,,,main,2,2,1,neutral,negative,l,l,1,0.6792679000645876,128.48751040000934,129.50075700005982,129.48410080000758,None,128.48751040000934,None,128.48751040000934,None,128.48751040000934,None,130.16744098006748,None,130.16744098006748,None,130.16744098006748,None,,,,,,,,,,,,,,201,2023-04-24_10h25.06.662,Main,2022.1.1,60.30464700470326,
positive,neutral,2,l,j,,,,,,,,,0,9,9,17,,,,,,,,,main,1,1,2,neutral,positive,j,j,1,0.6973618000047281,130.1686173999915,131.18411230004858,131.16743829997722,None,130.1686173999915,None,130.1686173999915,None,130.1686173999915,None,131.8677677800646,None,131.8677677800646,None,131.8677677800646,None,,,,,,,,,,,,,,201,2023-04-24_10h25.06.662,Main,2022.1.1,60.30464700470326,
negative,positive,1,j,l,,,,,,,,,0,10,10,6,,,,,,,,,main,1,1,1,positive,negative,l,l,1,0.8985064999433234,131.87372979999054,132.88658080005553,132.8687544000568,None,131.87372979999054,None,131.87372979999054,None,131.87372979999054,None,133.7674919800833,None,133.7674919800833,None,133.7674919800833,None,,,,,,,,,,,,,,201,2023-04-24_10h25.06.662,Main,2022.1.1,60.30464700470326,
negative,negative,1,j,l,,,,,,,,,0,11,11,0,,,,,,,,,main,2,2,1,negative,negative,l,l,1,0.5485214999644086,133.77395719999913,134.78647430008277,134.76989640004467,None,133.77395719999913,None,133.77395719999913,None,133.77395719999913,None,135.31767948004418,None,135.31767948004418,None,135.31767948004418,None,,,,,,,,,,,,,,201,2023-04-24_10h25.06.662,Main,2022.1.1,60.30464700470326,
negative,neutral,2,j,l,,,,,,,,,0,12,12,12,,,,,,,,,main,1,1,2,neutral,negative,l,l,1,0.7484172999393195,135.32161109999288,136.33644169999752,136.31989639997482,None,135.32161109999288,None,135.32161109999288,None,135.32161109999288,None,137.06775378002786,None,137.06775378002786,None,137.06775378002786,None,,,,,,,,,,,,,,201,2023-04-24_10h25.06.662,Main,2022.1.1,60.30464700470326,
neutral,neutral,2,k,k,,,,,,,,,0,13,13,10,,,,,,,,,main,1,1,2,neutral,neutral,k,k,1,0.6393153999233618,137.07376310008112,138.08643180003855,138.06981180002913,None,137.07376310008112,None,137.07376310008112,None,137.07376310008112,None,138.70904577998445,None,138.70904577998445,None,138.70904577998445,None,,,,,,,,,,,,,,201,2023-04-24_10h25.06.662,Main,2022.1.1,60.30464700470326,
neutral,negative,2,k,k,,,,,,,,,0,14,14,16,,,,,,,,,main,2,2,2,negative,neutral,k,k,1,0.5730286000762135,138.72423539997544,139.73388980003074,139.70056779996958,None,138.72423539997544,None,138.72423539997544,None,138.72423539997544,None,140.2838941800641,None,140.2838941800641,None,140.2838941800641,None,,,,,,,,,,,,,,201,2023-04-24_10h25.06.662,Main,2022.1.1,60.30464700470326,
positive,positive,1,l,j,,,,,,,,,0,15,15,2,,,,,,,,,main,2,2,1,positive,positive,j,j,1,0.8825560000259429,140.28433819999918,141.28391300002113,141.28391300002113,None,140.28433819999918,None,140.28433819999918,None,140.28433819999918,None,142.1676085800631,None,142.1676085800631,None,142.1676085800631,None,,,,,,,,,,,,,,201,2023-04-24_10h25.06.662,Main,2022.1.1,60.30464700470326,
positive,negative,1,l,j,,,,,,,,,0,16,16,5,,,,,,,,,main,2,2,1,negative,positive,j,j,1,0.5502268000273034,142.1736930999905,143.18629520002287,143.16962339996826,None,142.1736930999905,None,142.1736930999905,None,142.1736930999905,None,143.71966738007032,None,143.71966738007032,None,143.71966738007032,None,,,,,,,,,,,,,,201,2023-04-24_10h25.06.662,Main,2022.1.1,60.30464700470326,
negative,positive,2,j,l,,,,,,,,,0,17,17,15,,,,,,,,,main,2,2,2,positive,negative,l,l,1,0.6488713999278843,143.72225840005558,144.73634289996698,144.71972829999868,None,143.72225840005558,None,143.72225840005558,None,143.72225840005558,None,145.36972098003608,None,145.36972098003608,None,145.36972098003608,None,,,,,,,,,,,,,,201,2023-04-24_10h25.06.662,Main,2022.1.1,60.30464700470326,
positive,neutral,1,l,j,,,,,,,,,1,0,18,8,,,,,,,,,main,2,2,1,neutral,positive,j,j,1,1.0481222999515012,145.37314939999487,146.3862748000538,146.3696666000178,None,145.37314939999487,None,145.37314939999487,None,145.37314939999487,None,147.41966848003213,None,147.41966848003213,None,147.41966848003213,None,,,,,,,,,,,,,,201,2023-04-24_10h25.06.662,Main,2022.1.1,60.30464700470326,
neutral,neutral,2,k,k,,,,,,,,,1,1,19,10,,,,,,,,,main,2,2,2,neutral,neutral,k,k,1,0.6143286000005901,147.42367980000563,148.43622130004223,148.41961680003442,None,147.42367980000563,None,147.42367980000563,None,147.42367980000563,None,149.0354125799844,None,149.0354125799844,None,149.0354125799844,None,,,,,,,,,,,,,,201,2023-04-24_10h25.06.662,Main,2022.1.1,60.30464700470326,
negative,neutral,2,j,l,,,,,,,,,1,2,20,12,,,,,,,,,main,1,1,2,neutral,negative,l,l,1,0.6968215999659151,149.03597880003508,150.05036920006387,150.03369760001078,None,149.03597880003508,None,149.03597880003508,None,149.03597880003508,None,150.73369197999128,None,150.73369197999128,None,150.73369197999128,None,,,,,,,,,,,,,,201,2023-04-24_10h25.06.662,Main,2022.1.1,60.30464700470326,
positive,neutral,2,l,j,,,,,,,,,1,3,21,17,,,,,,,,,main,2,2,2,neutral,positive,j,j,1,0.6647585000609979,150.7337564000627,151.73369600006845,151.73369600006845,None,150.7337564000627,None,150.7337564000627,None,150.7337564000627,None,152.40034398003482,None,152.40034398003482,None,152.40034398003482,None,,,,,,,,,,,,,,201,2023-04-24_10h25.06.662,Main,2022.1.1,60.30464700470326,
negative,negative,2,j,l,,,,,,,,,1,4,22,9,,,,,,,,,main,2,2,2,negative,negative,l,l,1,0.667746499995701,152.4029828000348,153.40288539999165,153.40288539999165,None,152.4029828000348,None,152.4029828000348,None,152.4029828000348,None,154.0695965799736,None,154.0695965799736,None,154.0695965799736,None,,,,,,,,,,,,,,201,2023-04-24_10h25.06.662,Main,2022.1.1,60.30464700470326,
positive,positive,1,l,j,,,,,,,,,1,5,23,2,,,,,,,,,main,1,1,1,positive,positive,j,j,1,0.762977399979718,154.0724387000082,155.08610169996973,155.06947910005692,None,154.0724387000082,None,154.0724387000082,None,154.0724387000082,None,155.83397588003427,None,155.83397588003427,None,155.83397588003427,None,,,,,,,,,,,,,,201,2023-04-24_10h25.06.662,Main,2022.1.1,60.30464700470326,
positive,negative,2,l,j,,,,,,,,,1,6,24,14,,,,,,,,,main,2,2,2,negative,positive,j,j,1,0.7982440000632778,155.83930810005404,156.85275449999608,156.83612550003454,None,155.83930810005404,None,155.83930810005404,None,155.83930810005404,None,157.63360698006582,None,157.63360698006582,None,157.63360698006582,None,,,,,,,,,,,,,,201,2023-04-24_10h25.06.662,Main,2022.1.1,60.30464700470326,
positive,positive,2,l,j,,,,,,,,,1,7,25,11,,,,,,,,,main,2,2,2,positive,positive,j,j,1,0.6174900999758393,157.64008020004258,158.65261160000227,158.6361185000278,None,157.64008020004258,None,157.64008020004258,None,157.64008020004258,None,159.25270518006292,None,159.25270518006292,None,159.25270518006292,None,,,,,,,,,,,,,,201,2023-04-24_10h25.06.662,Main,2022.1.1,60.30464700470326,
neutral,negative,2,k,k,,,,,,,,,1,8,26,16,,,,,,,,,main,1,1,2,negative,neutral,k,k,1,0.5790736000053585,159.25722849997692,160.26701950002462,160.25271080003586,None,159.25722849997692,None,159.25722849997692,None,159.25722849997692,None,160.83349788000342,None,160.83349788000342,None,160.83349788000342,None,,,,,,,,,,,,,,201,2023-04-24_10h25.06.662,Main,2022.1.1,60.30464700470326,
negative,negative,1,j,l,,,,,,,,,1,9,27,0,,,,,,,,,main,2,2,1,negative,negative,l,l,1,0.7485646000131965,160.83340750006028,161.83344529999886,161.83344529999886,None,160.83340750006028,None,160.83340750006028,None,160.83340750006028,None,162.5835046800552,None,162.5835046800552,None,162.5835046800552,None,,,,,,,,,,,,,,201,2023-04-24_10h25.06.662,Main,2022.1.1,60.30464700470326,
neutral,neutral,1,k,k,,,,,,,,,1,10,28,1,,,,,,,,,main,2,2,1,neutral,neutral,k,k,1,0.5987549999263138,162.58708239998668,163.6025591000216,163.58597590005957,None,162.58708239998668,None,162.58708239998668,None,162.58708239998668,None,164.18382408001926,None,164.18382408001926,None,164.18382408001926,None,,,,,,,,,,,,,,201,2023-04-24_10h25.06.662,Main,2022.1.1,60.30464700470326,
neutral,positive,1,k,k,,,,,,,,,1,11,29,4,,,,,,,,,main,1,1,1,positive,neutral,k,k,1,0.5480892000487074,164.20261849998496,165.20255779998843,165.1859334000619,None,164.20261849998496,None,164.20261849998496,None,164.20261849998496,None,165.73374298003037,None,165.73374298003037,None,165.73374298003037,None,,,,,,,,,,,,,,201,2023-04-24_10h25.06.662,Main,2022.1.1,60.30464700470326,
negative,positive,1,j,l,,,,,,,,,1,12,30,6,,,,,,,,,main,2,2,1,positive,negative,l,l,1,0.7642123999539763,165.73782020004,166.75256960000843,166.73596790002193,None,165.73782020004,None,165.73782020004,None,165.73782020004,None,167.50010538005736,None,167.50010538005736,None,167.50010538005736,None,,,,,,,,,,,,,,201,2023-04-24_10h25.06.662,Main,2022.1.1,60.30464700470326,
negative,neutral,1,j,l,,,,,,,,,1,13,31,3,,,,,,,,,main,2,2,1,neutral,negative,l,l,1,0.966219300054945,167.50363489997108,168.51918110006955,168.50258039997425,None,167.50363489997108,None,167.50363489997108,None,167.50363489997108,None,169.4667334800819,None,169.4667334800819,None,169.4667334800819,None,,,,,,,,,,,,,,201,2023-04-24_10h25.06.662,Main,2022.1.1,60.30464700470326,
positive,negative,1,l,j,,,,,,,,,1,14,32,5,,,,,,,,,main,1,1,1,negative,positive,j,j,1,0.8472757000708953,169.47354400006589,170.48577700008173,170.4691632000031,None,169.47354400006589,None,169.47354400006589,None,169.47354400006589,None,171.3165834800806,None,171.3165834800806,None,171.3165834800806,None,,,,,,,,,,,,,,201,2023-04-24_10h25.06.662,Main,2022.1.1,60.30464700470326,
neutral,positive,2,k,k,,,,,,,,,1,15,33,13,,,,,,,,,main,1,1,2,positive,neutral,k,k,1,0.6853879999835044,171.31668010004796,172.31657580006868,172.31657580006868,None,171.31668010004796,None,171.31668010004796,None,171.31668010004796,None,172.99996888006572,None,172.99996888006572,None,172.99996888006572,None,,,,,,,,,,,,,,201,2023-04-24_10h25.06.662,Main,2022.1.1,60.30464700470326,
negative,positive,2,j,l,,,,,,,,,1,16,34,15,,,,,,,,,main,2,2,2,positive,negative,l,l,1,0.6631290999939665,173.00640620000195,174.0190394000383,174.00246710004285,None,173.00640620000195,None,173.00640620000195,None,173.00640620000195,None,174.66690558006522,None,174.66690558006522,None,174.66690558006522,None,,,,,,,,,,,,,,201,2023-04-24_10h25.06.662,Main,2022.1.1,60.30464700470326,
neutral,negative,1,k,k,,,,,,,,,1,17,35,7,,,,,,,,,main,1,1,1,negative,neutral,k,k,1,0.7140872000018135,174.67133230005857,175.68569529999513,175.66909700003453,None,174.67133230005857,None,174.67133230005857,None,174.67133230005857,None,176.3835785800824,None,176.3835785800824,None,176.3835785800824,None,,,,,,,,,,,,,,201,2023-04-24_10h25.06.662,Main,2022.1.1,60.30464700470326,
positive,neutral,1,l,j,,,,,,,,,2,0,36,8,,,,,,,,,main,2,2,1,neutral,positive,j,j,1,0.6637033000588417,176.3899051999906,177.40223370003514,177.3856461000396,None,176.3899051999906,None,176.3899051999906,None,176.3899051999906,None,178.05019867999945,None,178.05019867999945,None,178.05019867999945,None,,,,,,,,,,,,,,201,2023-04-24_10h25.06.662,Main,2022.1.1,60.30464700470326,
neutral,neutral,1,k,k,,,,,,,,,2,1,37,1,,,,,,,,,main,1,1,1,neutral,neutral,k,k,1,0.6486936999717727,178.0551814000355,179.06894859997556,179.0357079000678,None,178.0551814000355,None,178.0551814000355,None,178.0551814000355,None,179.70019808001817,None,179.70019808001817,None,179.70019808001817,None,,,,,,,,,,,,,,201,2023-04-24_10h25.06.662,Main,2022.1.1,60.30464700470326,
positive,negative,2,l,j,,,,,,,,,2,2,38,14,,,,,,,,,main,2,2,2,negative,positive,j,j,1,0.5979188000783324,179.7059177000774,180.7189078000374,180.70232470007613,None,179.7059177000774,None,179.7059177000774,None,179.7059177000774,None,181.29967478008476,None,181.29967478008476,None,181.29967478008476,None,,,,,,,,,,,,,,201,2023-04-24_10h25.06.662,Main,2022.1.1,60.30464700470326,
negative,neutral,1,j,l,,,,,,,,,2,3,39,3,,,,,,,,,main,1,1,1,neutral,negative,l,l,1,0.5487589000258595,181.30086090008263,182.31643230002373,182.2997588000726,None,181.30086090008263,None,181.30086090008263,None,181.30086090008263,None,182.8497782799881,None,182.8497782799881,None,182.8497782799881,None,,,,,,,,,,,,,,201,2023-04-24_10h25.06.662,Main,2022.1.1,60.30464700470326,
neutral,negative,1,k,k,,,,,,,,,2,4,40,7,,,,,,,,,main,2,2,1,negative,neutral,k,k,1,0.6654631999554113,182.85323220002465,183.85218929999974,183.85218929999974,None,182.85323220002465,None,182.85323220002465,None,182.85323220002465,None,184.51686468007975,None,184.51686468007975,None,184.51686468007975,None,,,,,,,,,,,,,,201,2023-04-24_10h25.06.662,Main,2022.1.1,60.30464700470326,
positive,positive,2,l,j,,,,,,,,,2,5,41,11,,,,,,,,,main,1,1,2,positive,positive,j,j,1,0.5495759000768885,184.52287930005696,185.53550620004535,185.5189194000559,None,184.52287930005696,None,184.52287930005696,None,184.52287930005696,None,186.0687559799757,None,186.0687559799757,None,186.0687559799757,None,,,,,,,,,,,,,,201,2023-04-24_10h25.06.662,Main,2022.1.1,60.30464700470326,
positive,negative,1,l,j,,,,,,,,,2,6,42,5,,,,,,,,,main,2,2,1,negative,positive,j,j,1,0.6131326999748126,186.07162020006217,187.08548280003015,187.06885979999788,None,186.07162020006217,None,186.07162020006217,None,186.07162020006217,None,187.68300727996976,None,187.68300727996976,None,187.68300727996976,None,,,,,,,,,,,,,,201,2023-04-24_10h25.06.662,Main,2022.1.1,60.30464700470326,
neutral,positive,2,k,k,,,,,,,,,2,7,43,13,,,,,,,,,main,2,2,2,positive,neutral,k,k,1,0.6820413999957964,187.68955180002376,188.70216109999456,188.68549040006474,None,187.68955180002376,None,187.68955180002376,None,187.68955180002376,None,189.36668597997632,None,189.36668597997632,None,189.36668597997632,None,,,,,,,,,,,,,,201,2023-04-24_10h25.06.662,Main,2022.1.1,60.30464700470326,
neutral,negative,2,k,k,,,,,,,,,2,8,44,16,,,,,,,,,main,2,2,2,negative,neutral,k,k,1,0.6514781001023948,189.37214540003333,190.3854065000778,190.36883060005493,None,189.37214540003333,None,189.37214540003333,None,189.37214540003333,None,191.01879387998488,None,191.01879387998488,None,191.01879387998488,None,,,,,,,,,,,,,,201,2023-04-24_10h25.06.662,Main,2022.1.1,60.30464700470326,
negative,negative,2,j,l,,,,,,,,,2,9,45,9,,,,,,,,,main,2,2,2,negative,negative,l,l,1,0.6282619000412524,191.02261950005777,192.03285529999994,192.01618689997122,None,191.02261950005777,None,191.02261950005777,None,191.02261950005777,None,192.64953278002795,None,192.64953278002795,None,192.64953278002795,None,,,,,,,,,,,,,,201,2023-04-24_10h25.06.662,Main,2022.1.1,60.30464700470326,
negative,neutral,2,j,l,,,,,,,,,2,10,46,12,,,,,,,,,main,2,2,2,neutral,negative,l,l,1,0.8149358000373468,192.6494944000151,193.64952289999928,193.64952289999928,None,192.6494944000151,None,192.6494944000151,None,192.6494944000151,None,194.46618657999207,None,194.46618657999207,None,194.46618657999207,None,,,,,,,,,,,,,,201,2023-04-24_10h25.06.662,Main,2022.1.1,60.30464700470326,
neutral,positive,1,k,k,,,,,,,,,2,11,47,4,,,,,,,,,main,1,1,1,positive,neutral,k,k,1,0.7509960000170395,194.4674462999683,195.48287100007292,195.46634629997425,None,194.4674462999683,None,194.4674462999683,None,194.4674462999683,None,196.21862728006673,None,196.21862728006673,None,196.21862728006673,None,,,,,,,,,,,,,,201,2023-04-24_10h25.06.662,Main,2022.1.1,60.30464700470326,
neutral,neutral,2,k,k,,,,,,,,,2,12,48,10,,,,,,,,,main,2,2,2,neutral,neutral,k,k,1,0.6975436999928206,196.22344990004785,197.2352637000149,197.21868549997453,None,196.22344990004785,None,196.22344990004785,None,196.22344990004785,None,197.91866138004698,None,197.91866138004698,None,197.91866138004698,None,,,,,,,,,,,,,,201,2023-04-24_10h25.06.662,Main,2022.1.1,60.30464700470326,
negative,positive,2,j,l,,,,,,,,,2,13,49,15,,,,,,,,,main,2,2,2,positive,negative,l,l,1,0.6965709999203682,197.92262189998291,198.93522700003814,198.91866139997728,None,197.92262189998291,None,197.92262189998291,None,197.92262189998291,None,199.61644277998712,None,199.61644277998712,None,199.61644277998712,None,,,,,,,,,,,,,,201,2023-04-24_10h25.06.662,Main,2022.1.1,60.30464700470326,
negative,negative,1,j,l,,,,,,,,,2,14,50,0,,,,,,,,,main,1,1,1,negative,negative,l,l,1,1.2670592999784276,199.62014310003724,200.63522210007068,200.6185947000049,None,199.62014310003724,None,199.62014310003724,None,199.62014310003724,None,201.88522088001483,None,201.88522088001483,None,201.88522088001483,None,,,,,,,,,,,,,,201,2023-04-24_10h25.06.662,Main,2022.1.1,60.30464700470326,
positive,positive,1,l,j,,,,,,,,,2,15,51,2,,,,,,,,,main,1,1,1,positive,positive,j,j,1,0.9621592999901623,201.8896993000526,202.90179839998018,202.88526350003667,None,201.8896993000526,None,201.8896993000526,None,201.8896993000526,None,203.8492416799767,None,203.8492416799767,None,203.8492416799767,None,,,,,,,,,,,,,,201,2023-04-24_10h25.06.662,Main,2022.1.1,60.30464700470326,
positive,neutral,2,l,j,,,,,,,,,2,16,52,17,,,,,,,,,main,2,2,2,neutral,positive,j,j,1,0.615088100079447,203.84924180002417,204.84930910007097,204.84930910007097,None,203.84924180002417,None,203.84924180002417,None,203.84924180002417,None,205.46593108002563,None,205.46593108002563,None,205.46593108002563,None,,,,,,,,,,,,,,201,2023-04-24_10h25.06.662,Main,2022.1.1,60.30464700470326,
negative,positive,1,j,l,,,,,,,,,2,17,53,6,,,,,,,,,main,1,1,1,positive,negative,l,l,1,0.6497593000531197,205.46628579997923,206.46594590006862,206.46594590006862,None,205.46628579997923,None,205.46628579997923,None,205.46628579997923,None,207.11595247997903,None,207.11595247997903,None,207.11595247997903,None,,,,,,,,,,,,,,201,2023-04-24_10h25.06.662,Main,2022.1.1,60.30464700470326,
negative,neutral,1,j,l,,,,,,,,,3,0,54,3,,,,,,,,,main,2,2,1,neutral,negative,l,l,1,0.8971403000177816,207.12088120006956,208.13507620000746,208.11846570007037,None,207.12088120006956,None,207.12088120006956,None,207.12088120006956,None,209.01591767997016,None,209.01591767997016,None,209.01591767997016,None,,,,,,,,,,,,,,201,2023-04-24_10h25.06.662,Main,2022.1.1,60.30464700470326,
negative,negative,1,j,l,,,,,,,,,3,1,55,0,,,,,,,,,main,2,2,1,negative,negative,l,l,1,0.6509188000345603,209.02197150001302,210.03506120003294,210.01841480005533,None,209.02197150001302,None,209.02197150001302,None,209.02197150001302,None,210.66830758003053,None,210.66830758003053,None,210.66830758003053,None,,,,,,,,,,,,,,201,2023-04-24_10h25.06.662,Main,2022.1.1,60.30464700470326,
positive,negative,1,l,j,,,,,,,,,3,2,56,5,,,,,,,,,main,2,2,1,negative,positive,j,j,1,0.647211299976334,210.67197550006676,211.68497709999792,211.66838320007082,None,210.67197550006676,None,210.67197550006676,None,210.67197550006676,None,212.3171477800701,None,212.3171477800701,None,212.3171477800701,None,,,,,,,,,,,,,,201,2023-04-24_10h25.06.662,Main,2022.1.1,60.30464700470326,
positive,neutral,1,l,j,,,,,,,,,3,3,57,8,,,,,,,,,main,2,2,1,neutral,positive,j,j,1,0.5654014999745414,212.3229145000223,213.33490560005885,213.3183656000765,None,212.3229145000223,None,212.3229145000223,None,212.3229145000223,None,213.88498737998307,None,213.88498737998307,None,213.88498737998307,None,,,,,,,,,,,,,,201,2023-04-24_10h25.06.662,Main,2022.1.1,60.30464700470326,
negative,neutral,2,j,l,,,,,,,,,3,4,58,12,,,,,,,,,main,2,2,2,neutral,negative,l,l,1,0.6959286000346765,213.88799000007566,214.89900159998797,214.88233940000646,None,213.88799000007566,None,213.88799000007566,None,213.88799000007566,None,215.5823447800707,None,215.5823447800707,None,215.5823447800707,None,,,,,,,,,,,,,,201,2023-04-24_10h25.06.662,Main,2022.1.1,60.30464700470326,
negative,negative,2,j,l,,,,,,,,,3,5,59,9,,,,,,,,,main,1,1,2,negative,negative,l,l,1,0.6148498000111431,215.58235629997216,216.5823742999928,216.5823742999928,None,215.58235629997216,None,215.58235629997216,None,215.58235629997216,None,217.1991100799991,None,217.1991100799991,None,217.1991100799991,None,,,,,,,,,,,,,,201,2023-04-24_10h25.06.662,Main,2022.1.1,60.30464700470326,
neutral,positive,1,k,k,,,,,,,,,3,6,60,4,,,,,,,,,main,2,2,1,positive,neutral,k,k,1,0.7175657000625506,217.20330569997896,218.21818510000594,218.2016014000401,None,217.20330569997896,None,217.20330569997896,None,217.20330569997896,None,218.9181451800745,None,218.9181451800745,None,218.9181451800745,None,,,,,,,,,,,,,,201,2023-04-24_10h25.06.662,Main,2022.1.1,60.30464700470326,
neutral,neutral,2,k,k,,,,,,,,,3,7,61,10,,,,,,,,,main,2,2,2,neutral,neutral,k,k,1,0.6318786001065746,218.92211929999758,219.9348055999726,219.91818639996927,None,218.92211929999758,None,218.92211929999758,None,218.92211929999758,None,220.55158568008338,None,220.55158568008338,None,220.55158568008338,None,,,,,,,,,,,,,,201,2023-04-24_10h25.06.662,Main,2022.1.1,60.30464700470326,
negative,positive,1,j,l,,,,,,,,,3,8,62,6,,,,,,,,,main,1,1,1,positive,negative,l,l,1,0.6964547000825405,220.55559600004926,221.5680965000065,221.55146310001146,None,220.55559600004926,None,220.55559600004926,None,220.55559600004926,None,222.24930908004754,None,222.24930908004754,None,222.24930908004754,None,,,,,,,,,,,,,,201,2023-04-24_10h25.06.662,Main,2022.1.1,60.30464700470326,
negative,positive,2,j,l,,,,,,,,,3,9,63,15,,,,,,,,,main,2,2,2,positive,negative,l,l,1,0.6813818999798968,222.2552227000706,223.26804430002812,223.25146900000982,None,222.2552227000706,None,222.2552227000706,None,222.2552227000706,None,223.93258398000617,None,223.93258398000617,None,223.93258398000617,None,,,,,,,,,,,,,,201,2023-04-24_10h25.06.662,Main,2022.1.1,60.30464700470326,
neutral,positive,2,k,k,,,,,,,,,3,10,64,13,,,,,,,,,main,1,1,2,positive,neutral,k,k,1,0.797898399992846,223.94046650000382,224.94886540004518,224.93220060004387,None,223.94046650000382,None,223.94046650000382,None,223.94046650000382,None,225.73220238005743,None,225.73220238005743,None,225.73220238005743,None,,,,,,,,,,,,,,201,2023-04-24_10h25.06.662,Main,2022.1.1,60.30464700470326,
neutral,negative,2,k,k,,,,,,,,,3,11,65,16,,,,,,,,,main,2,2,2,negative,neutral,k,k,1,0.5814853999763727,225.73224540008232,226.73221110005397,226.73221110005397,None,225.73224540008232,None,225.73224540008232,None,225.73224540008232,None,227.3155128800776,None,227.3155128800776,None,227.3155128800776,None,,,,,,,,,,,,,,201,2023-04-24_10h25.06.662,Main,2022.1.1,60.30464700470326,
neutral,negative,1,k,k,,,,,,,,,3,12,66,7,,,,,,,,,main,1,1,1,negative,neutral,k,k,1,0.6318650000030175,227.31663540005684,228.3321681000525,228.31549820001237,None,227.31663540005684,None,227.31663540005684,None,227.31663540005684,None,228.9488567800494,None,228.9488567800494,None,228.9488567800494,None,,,,,,,,,,,,,,201,2023-04-24_10h25.06.662,Main,2022.1.1,60.30464700470326,
positive,positive,1,l,j,,,,,,,,,3,13,67,2,,,,,,,,,main,2,2,1,positive,positive,j,j,1,0.7342102000257,228.95488239999395,229.9680004999973,229.95138189999852,None,228.95488239999395,None,228.95488239999395,None,228.95488239999395,None,230.68473388007843,None,230.68473388007843,None,230.68473388007843,None,,,,,,,,,,,,,,201,2023-04-24_10h25.06.662,Main,2022.1.1,60.30464700470326,
positive,positive,2,l,j,,,,,,,,,3,14,68,11,,,,,,,,,main,1,1,2,positive,positive,j,j,1,0.7626776999095455,230.68866029998753,231.70129960007034,231.68466070003342,None,230.68866029998753,None,230.68866029998753,None,230.68866029998753,None,232.4491255800007,None,232.4491255800007,None,232.4491255800007,None,,,,,,,,,,,,,,201,2023-04-24_10h25.06.662,Main,2022.1.1,60.30464700470326,
positive,neutral,2,l,j,,,,,,,,,3,15,69,17,,,,,,,,,main,2,2,2,neutral,positive,j,j,1,0.6340562000405043,232.45236630004365,233.46786580001935,233.4512837000657,None,232.45236630004365,None,232.45236630004365,None,232.45236630004365,None,234.08457018001937,None,234.08457018001937,None,234.08457018001937,None,,,,,,,,,,,,,,201,2023-04-24_10h25.06.662,Main,2022.1.1,60.30464700470326,
positive,negative,2,l,j,,,,,,,,,3,16,70,14,,,,,,,,,main,1,1,2,negative,positive,j,j,1,1.0816001000348479,234.08750570006669,235.1011656000046,235.0845810000319,None,234.08750570006669,None,234.08750570006669,None,234.08750570006669,None,236.16776527997573,None,236.16776527997573,None,236.16776527997573,None,,,,,,,,,,,,,,201,2023-04-24_10h25.06.662,Main,2022.1.1,60.30464700470326,
neutral,neutral,1,k,k,,,,,,,,,3,17,71,1,,,,,,,,,main,2,2,1,neutral,neutral,k,k,1,0.6791241000173613,236.17088009999134,237.18190810002852,237.16523779998533,None,236.17088009999134,None,236.17088009999134,None,236.17088009999134,None,237.84858667999507,None,237.84858667999507,None,237.84858667999507,None,,,,,,,,,,,,,,201,2023-04-24_10h25.06.662,Main,2022.1.1,60.30464700470326,
positive,negative,1,l,j,,,,,,,,,4,0,72,5,,,,,,,,,main,2,2,1,negative,positive,j,j,1,0.7985705999890342,237.84854739997536,238.84863150003366,238.84863150003366,None,237.84854739997536,None,237.84854739997536,None,237.84854739997536,None,239.64859018006828,None,239.64859018006828,None,239.64859018006828,None,,,,,,,,,,,,,,201,2023-04-24_10h25.06.662,Main,2022.1.1,60.30464700470326,
neutral,negative,2,k,k,,,,,,,,,4,1,73,16,,,,,,,,,main,1,1,2,negative,neutral,k,k,1,0.7482161000370979,239.6487907000119,240.6486256000353,240.6486256000353,None,239.6487907000119,None,239.6487907000119,None,239.6487907000119,None,241.3986069800798,None,241.3986069800798,None,241.3986069800798,None,,,,,,,,,,,,,,201,2023-04-24_10h25.06.662,Main,2022.1.1,60.30464700470326,
negative,positive,1,j,l,,,,,,,,,4,2,74,6,,,,,,,,,main,2,2,1,positive,negative,l,l,1,0.7998241999885067,241.4042477000039,242.41771870001685,242.40110250003636,None,241.4042477000039,None,241.4042477000039,None,241.4042477000039,None,243.19956657998264,None,243.19956657998264,None,243.19956657998264,None,,,,,,,,,,,,,,201,2023-04-24_10h25.06.662,Main,2022.1.1,60.30464700470326,
negative,negative,1,j,l,,,,,,,,,4,3,75,0,,,,,,,,,main,2,2,1,negative,negative,l,l,1,0.6495681999949738,243.2056678000372,244.21761689998675,244.20107140007894,None,243.2056678000372,None,243.2056678000372,None,243.2056678000372,None,244.85105478004553,None,244.85105478004553,None,244.85105478004553,None,,,,,,,,,,,,,,201,2023-04-24_10h25.06.662,Main,2022.1.1,60.30464700470326,
positive,negative,2,l,j,,,,,,,,,4,4,76,14,,,,,,,,,main,1,1,2,negative,positive,j,j,1,0.7800692999735475,244.85377460008021,245.8676178000169,245.8510210000677,None,244.85377460008021,None,244.85377460008021,None,244.85377460008021,None,246.6321713800775,None,246.6321713800775,None,246.6321713800775,None,,,,,,,,,,,,,,201,2023-04-24_10h25.06.662,Main,2022.1.1,60.30464700470326,
negative,negative,2,j,l,,,,,,,,,4,5,77,9,,,,,,,,,main,1,1,2,negative,negative,l,l,1,1.0997865999815986,246.6382397999987,247.65089659998193,247.63432479999028,None,246.6382397999987,None,246.6382397999987,None,246.6382397999987,None,248.73428927999922,None,248.73428927999922,None,248.73428927999922,None,,,,,,,,,,,,,,201,2023-04-24_10h25.06.662,Main,2022.1.1,60.30464700470326,
positive,neutral,1,l,j,,,,,,,,,4,6,78,8,,,,,,,,,main,2,2,1,neutral,positive,j,j,1,0.9624721000436693,248.73806020000484,249.74837769998703,249.73172939999495,None,248.73806020000484,None,248.73806020000484,None,248.73806020000484,None,250.6983700800687,None,250.6983700800687,None,250.6983700800687,None,,,,,,,,,,,,,,201,2023-04-24_10h25.06.662,Main,2022.1.1,60.30464700470326,
positive,positive,1,l,j,,,,,,,,,4,7,79,2,,,,,,,,,main,1,1,1,positive,positive,j,j,1,0.9174063000828028,250.69835169997532,251.69837520003784,251.69837520003784,None,250.69835169997532,None,250.69835169997532,None,250.69835169997532,None,252.6175178800244,None,252.6175178800244,None,252.6175178800244,None,,,,,,,,,,,,,,201,2023-04-24_10h25.06.662,Main,2022.1.1,60.30464700470326,
positive,positive,2,l,j,,,,,,,,,4,8,80,11,,,,,,,,,main,1,1,2,positive,positive,j,j,1,0.6795484999893233,252.6205921000801,253.63417720003054,253.61756020004395,None,252.6205921000801,None,252.6205921000801,None,252.6205921000801,None,254.29866707997863,None,254.29866707997863,None,254.29866707997863,None,,,,,,,,,,,,,,201,2023-04-24_10h25.06.662,Main,2022.1.1,60.30464700470326,
negative,neutral,2,j,l,,,,,,,,,4,9,81,12,,,,,,,,,main,2,2,2,neutral,negative,l,l,1,0.8033250999869779,254.30544829997234,255.31744780007284,255.30084330006503,None,254.30544829997234,None,254.30544829997234,None,254.30544829997234,None,256.10075627998447,None,256.10075627998447,None,256.10075627998447,None,,,,,,,,,,,,,,201,2023-04-24_10h25.06.662,Main,2022.1.1,60.30464700470326,
neutral,neutral,2,k,k,,,,,,,,,4,10,82,10,,,,,,,,,main,2,2,2,neutral,neutral,k,k,1,0.6793931999709457,256.1075926000485,257.1173648000695,257.1007934000809,None,256.1075926000485,None,256.1075926000485,None,256.1075926000485,None,257.78412967999463,None,257.78412967999463,None,257.78412967999463,None,,,,,,,,,,,,,,201,2023-04-24_10h25.06.662,Main,2022.1.1,60.30464700470326,
negative,neutral,1,j,l,,,,,,,,,4,11,83,3,,,,,,,,,main,1,1,1,neutral,negative,l,l,1,0.8444717000238597,257.7885666000657,258.8007110999897,258.78411170002073,None,257.7885666000657,None,257.7885666000657,None,257.7885666000657,None,259.63145988001486,None,259.63145988001486,None,259.63145988001486,None,,,,,,,,,,,,,,201,2023-04-24_10h25.06.662,Main,2022.1.1,60.30464700470326,
neutral,neutral,1,k,k,,,,,,,,,4,12,84,1,,,,,,,,,main,1,1,1,neutral,neutral,k,k,1,0.7152852000435814,259.6314544000197,260.6314965999918,260.6314965999918,None,259.6314544000197,None,259.6314544000197,None,259.6314544000197,None,261.3482019799761,None,261.3482019799761,None,261.3482019799761,None,,,,,,,,,,,,,,201,2023-04-24_10h25.06.662,Main,2022.1.1,60.30464700470326,
positive,neutral,2,l,j,,,,,,,,,4,13,85,17,,,,,,,,,main,1,1,2,neutral,positive,j,j,1,0.6655564999673516,261.3545063000638,262.36731230001897,262.35071400005836,None,261.3545063000638,None,261.3545063000638,None,261.3545063000638,None,263.01615148000417,None,263.01615148000417,None,263.01615148000417,None,,,,,,,,,,,,,,201,2023-04-24_10h25.06.662,Main,2022.1.1,60.30464700470326,
neutral,positive,2,k,k,,,,,,,,,4,14,86,13,,,,,,,,,main,2,2,2,positive,neutral,k,k,1,0.6829641999211162,263.02190880000126,264.0339289000258,264.01727940002456,None,263.02190880000126,None,263.02190880000126,None,263.02190880000126,None,264.70069228005593,None,264.70069228005593,None,264.70069228005593,None,,,,,,,,,,,,,,201,2023-04-24_10h25.06.662,Main,2022.1.1,60.30464700470326,
neutral,negative,1,k,k,,,,,,,,,4,15,87,7,,,,,,,,,main,2,2,1,negative,neutral,k,k,1,0.6629232000559568,264.7050901000621,265.7172514999984,265.70063360000495,None,264.7050901000621,None,264.7050901000621,None,264.7050901000621,None,266.3651066800579,None,266.3651066800579,None,266.3651066800579,None,,,,,,,,,,,,,,201,2023-04-24_10h25.06.662,Main,2022.1.1,60.30464700470326,
neutral,positive,1,k,k,,,,,,,,,4,16,88,4,,,,,,,,,main,1,1,1,positive,neutral,k,k,1,0.5481520999455824,266.37090710003395,267.3838984000031,267.36726940004155,None,266.37090710003395,None,266.37090710003395,None,266.37090710003395,None,267.9150382800493,None,267.9150382800493,None,267.9150382800493,None,,,,,,,,,,,,,,201,2023-04-24_10h25.06.662,Main,2022.1.1,60.30464700470326,
negative,positive,2,j,l,,,,,,,,,4,17,89,15,,,,,,,,,main,2,2,2,positive,negative,l,l,1,0.7179251000052318,267.92137860006187,268.93384740001056,268.91724650003016,None,267.92137860006187,None,267.92137860006187,None,267.92137860006187,None,269.6351497800555,None,269.6351497800555,None,269.6351497800555,None,,,,,,,,,,,,,,201,2023-04-24_10h25.06.662,Main,2022.1.1,60.30464700470326,
neutral,neutral,2,k,k,,,,,,,,,5,0,90,10,,,,,,,,,main,1,1,2,neutral,neutral,k,k,1,0.6941943999845535,269.64813490002416,270.6479450999759,270.63129779999144,None,269.64813490002416,None,269.64813490002416,None,269.64813490002416,None,271.33122848006894,None,271.33122848006894,None,271.33122848006894,None,,,,,,,,,,,,,,201,2023-04-24_10h25.06.662,Main,2022.1.1,60.30464700470326,
negative,positive,2,j,l,,,,,,,,,5,1,91,15,,,,,,,,,main,2,2,2,positive,negative,l,l,1,0.6821026999969035,271.33124880003743,272.3313065000111,272.3313065000111,None,271.33124880003743,None,271.33124880003743,None,271.33124880003743,None,273.0146112800343,None,273.0146112800343,None,273.0146112800343,None,,,,,,,,,,,,,,201,2023-04-24_10h25.06.662,Main,2022.1.1,60.30464700470326,
neutral,positive,1,k,k,,,,,,,,,5,2,92,4,,,,,,,,,main,2,2,1,positive,neutral,k,k,1,0.7344661999959499,273.0153457999695,274.0146185000194,274.0146185000194,None,273.0153457999695,None,273.0153457999695,None,273.0153457999695,None,274.7504381800303,None,274.7504381800303,None,274.7504381800303,None,,,,,,,,,,,,,,201,2023-04-24_10h25.06.662,Main,2022.1.1,60.30464700470326,
negative,positive,1,j,l,,,,,,,,,5,3,93,6,,,,,,,,,main,1,1,1,positive,negative,l,l,1,0.6143342000432312,274.75435679999646,275.76697360002436,275.75036800000817,None,274.75435679999646,None,274.75435679999646,None,274.75435679999646,None,276.36666208002714,None,276.36666208002714,None,276.36666208002714,None,,,,,,,,,,,,,,201,2023-04-24_10h25.06.662,Main,2022.1.1,60.30464700470326,
positive,neutral,1,l,j,,,,,,,,,5,4,94,8,,,,,,,,,main,1,1,1,neutral,positive,j,j,1,1.0317837999900803,276.3717420999892,277.3837028000271,277.36705470003653,None,276.3717420999892,None,276.3717420999892,None,276.3717420999892,None,278.4004225800512,None,278.4004225800512,None,278.4004225800512,None,,,,,,,,,,,,,,201,2023-04-24_10h25.06.662,Main,2022.1.1,60.30464700470326,
neutral,negative,2,k,k,,,,,,,,,5,5,95,16,,,,,,,,,main,2,2,2,negative,neutral,k,k,1,0.7182009000098333,278.4031324000098,279.4169698000187,279.400332899997,None,278.4031324000098,None,278.4031324000098,None,278.4031324000098,None,280.11830318006685,None,280.11830318006685,None,280.11830318006685,None,,,,,,,,,,,,,,201,2023-04-24_10h25.06.662,Main,2022.1.1,60.30464700470326,
positive,positive,1,l,j,,,,,,,,,5,6,96,2,,,,,,,,,main,2,2,1,positive,positive,j,j,1,0.7928871000185609,280.1233929999871,281.13066760008223,281.1133845000295,None,280.1233929999871,None,280.1233929999871,None,280.1233929999871,None,281.91433658006133,None,281.91433658006133,None,281.91433658006133,None,,,,,,,,,,,,,,201,2023-04-24_10h25.06.662,Main,2022.1.1,60.30464700470326,
positive,negative,1,l,j,,,,,,,,,5,7,97,5,,,,,,,,,main,2,2,1,negative,positive,j,j,1,0.71618510002736,281.9143590000458,282.9143750000512,282.9143750000512,None,281.9143590000458,None,281.9143590000458,None,281.9143590000458,None,283.63118017998056,None,283.63118017998056,None,283.63118017998056,None,,,,,,,,,,,,,,201,2023-04-24_10h25.06.662,Main,2022.1.1,60.30464700470326,
neutral,negative,1,k,k,,,,,,,,,5,8,98,7,,,,,,,,,main,1,1,1,negative,neutral,k,k,1,0.6841708000283688,283.6353134000674,284.6501857000403,284.633608300006,None,283.6353134000674,None,283.6353134000674,None,283.6353134000674,None,285.31778758005237,None,285.31778758005237,None,285.31778758005237,None,,,,,,,,,,,,,,201,2023-04-24_10h25.06.662,Main,2022.1.1,60.30464700470326,
negative,neutral,2,j,l,,,,,,,,,5,9,99,12,,,,,,,,,main,1,1,2,neutral,negative,l,l,1,0.5807096000062302,285.3215476999758,286.333477600012,286.31690570001956,None,285.3215476999758,None,285.3215476999758,None,285.3215476999758,None,286.9002528800396,None,286.9002528800396,None,286.9002528800396,None,,,,,,,,,,,,,,201,2023-04-24_10h25.06.662,Main,2022.1.1,60.30464700470326,
positive,neutral,2,l,j,,,,,,,,,5,10,100,17,,,,,,,,,main,2,2,2,neutral,positive,j,j,1,1.2483473001047969,286.90298550005537,287.91671380004846,287.90015010000207,None,286.90298550005537,None,286.90298550005537,None,286.90298550005537,None,289.150124579994,None,289.150124579994,None,289.150124579994,None,,,,,,,,,,,,,,201,2023-04-24_10h25.06.662,Main,2022.1.1,60.30464700470326,
neutral,neutral,1,k,k,,,,,,,,,5,11,101,1,,,,,,,,,main,1,1,1,neutral,neutral,k,k,1,0.7042706999927759,289.15286240004934,290.16673060005996,290.1501444000751,None,289.15286240004934,None,289.15286240004934,None,289.15286240004934,None,290.85594638003965,None,290.85594638003965,None,290.85594638003965,None,,,,,,,,,,,,,,201,2023-04-24_10h25.06.662,Main,2022.1.1,60.30464700470326,
positive,positive,2,l,j,,,,,,,,,5,12,102,11,,,,,,,,,main,2,2,2,positive,positive,j,j,1,0.6731949000386521,290.85618820006493,291.86417860002257,291.8474955999991,None,290.85618820006493,None,290.85618820006493,None,290.85618820006493,None,292.5308581799967,None,292.5308581799967,None,292.5308581799967,None,,,,,,,,,,,,,,201,2023-04-24_10h25.06.662,Main,2022.1.1,60.30464700470326,
negative,neutral,1,j,l,,,,,,,,,5,13,103,3,,,,,,,,,main,2,2,1,neutral,negative,l,l,1,0.6983617000514641,292.53078879998066,293.53089589998126,293.53089589998126,None,292.53078879998066,None,292.53078879998066,None,292.53078879998066,None,294.23083438000174,None,294.23083438000174,None,294.23083438000174,None,,,,,,,,,,,,,,201,2023-04-24_10h25.06.662,Main,2022.1.1,60.30464700470326,
negative,negative,1,j,l,,,,,,,,,5,14,104,0,,,,,,,,,main,2,2,1,negative,negative,l,l,1,0.634105599950999,294.23133069998585,295.2308749000076,295.2308749000076,None,294.23133069998585,None,294.23133069998585,None,294.23133069998585,None,295.8666202800581,None,295.8666202800581,None,295.8666202800581,None,,,,,,,,,,,,,,201,2023-04-24_10h25.06.662,Main,2022.1.1,60.30464700470326,
negative,negative,2,j,l,,,,,,,,,5,15,105,9,,,,,,,,,main,2,2,2,negative,negative,l,l,1,1.1170062000164762,295.87061710003763,296.8832731000148,296.8666768000694,None,295.87061710003763,None,295.87061710003763,None,295.87061710003763,None,297.9850829799892,None,297.9850829799892,None,297.9850829799892,None,,,,,,,,,,,,,,201,2023-04-24_10h25.06.662,Main,2022.1.1,60.30464700470326,
positive,negative,2,l,j,,,,,,,,,5,16,106,14,,,,,,,,,main,1,1,2,negative,positive,j,j,1,0.7610008000629023,297.98847340000793,298.9998976000352,298.98326440004166,None,297.98847340000793,None,297.98847340000793,None,297.98847340000793,None,299.7478390800301,None,299.7478390800301,None,299.7478390800301,None,,,,,,,,,,,,,,201,2023-04-24_10h25.06.662,Main,2022.1.1,60.30464700470326,
neutral,positive,2,k,k,,,,,,,,,5,17,107,13,,,,,,,,,main,2,2,2,positive,neutral,k,k,1,0.584052599966526,299.75367670005653,300.766516600037,300.7499173000688,None,299.75367670005653,None,299.75367670005653,None,299.75367670005653,None,301.3334831800079,None,301.3334831800079,None,301.3334831800079,None,,,,,,,,,,,,,,201,2023-04-24_10h25.06.662,Main,2022.1.1,60.30464700470326,
positive,positive,2,l,j,,,,,,,,,6,0,108,11,,,,,,,,,main,2,2,2,positive,positive,j,j,1,1.477976799942553,301.33825739996973,302.3498333999887,302.3333013000665,None,301.33825739996973,None,301.33825739996973,None,301.33825739996973,None,303.8139785800362,None,303.8139785800362,None,303.8139785800362,None,,,,,,,,,,,,,,201,2023-04-24_10h25.06.662,Main,2022.1.1,60.30464700470326,
negative,neutral,1,j,l,,,,,,,,,6,1,109,3,,,,,,,,,main,2,2,1,neutral,negative,l,l,1,0.6815570000326261,303.81393870001193,304.81395780004095,304.81395780004095,None,303.81393870001193,None,303.81393870001193,None,303.81393870001193,None,305.4972826799843,None,305.4972826799843,None,305.4972826799843,None,,,,,,,,,,,,,,201,2023-04-24_10h25.06.662,Main,2022.1.1,60.30464700470326,
positive,positive,1,l,j,,,,,,,,,6,2,110,2,,,,,,,,,main,2,2,1,positive,positive,j,j,1,0.7818076000548899,305.4989967000438,306.51397129998077,306.49732490000315,None,305.4989967000438,None,305.4989967000438,None,305.4989967000438,None,307.2806407799711,None,307.2806407799711,None,307.2806407799711,None,,,,,,,,,,,,,,201,2023-04-24_10h25.06.662,Main,2022.1.1,60.30464700470326,
neutral,negative,1,k,k,,,,,,,,,6,3,111,7,,,,,,,,,main,2,2,1,negative,neutral,k,k,1,0.701219700044021,307.2842856000643,308.299734900007,308.2831020000158,None,307.2842856000643,None,307.2842856000643,None,307.2842856000643,None,308.9833262800006,None,308.9833262800006,None,308.9833262800006,None,,,,,,,,,,,,,,201,2023-04-24_10h25.06.662,Main,2022.1.1,60.30464700470326,
negative,negative,1,j,l,,,,,,,,,6,4,112,0,,,,,,,,,main,2,2,1,negative,negative,l,l,1,0.8614134999224916,308.98770320008043,309.99964589998126,309.9831080000149,None,308.98770320008043,None,308.98770320008043,None,308.98770320008043,None,310.8472245799843,None,310.8472245799843,None,310.8472245799843,None,,,,,,,,,,,,,,201,2023-04-24_10h25.06.662,Main,2022.1.1,60.30464700470326,
neutral,positive,2,k,k,,,,,,,,,6,5,113,13,,,,,,,,,main,1,1,2,positive,neutral,k,k,1,0.698385399999097,310.85373279999476,311.8662320000585,311.8497610000195,None,310.85373279999476,None,310.85373279999476,None,310.85373279999476,None,312.5471946800593,None,312.5471946800593,None,312.5471946800593,None,,,,,,,,,,,,,,201,2023-04-24_10h25.06.662,Main,2022.1.1,60.30464700470326,
neutral,neutral,2,k,k,,,,,,,,,6,6,114,10,,,,,,,,,main,2,2,2,neutral,neutral,k,k,1,1.2175677000777796,312.55386460002046,313.566301700077,313.54969140002504,None,312.55386460002046,None,312.55386460002046,None,312.55386460002046,None,314.76625348008236,None,314.76625348008236,None,314.76625348008236,None,,,,,,,,,,,,,,201,2023-04-24_10h25.06.662,Main,2022.1.1,60.30464700470326,
positive,neutral,1,l,j,,,,,,,,,6,7,115,8,,,,,,,,,main,2,2,1,neutral,positive,j,j,1,0.8454135999782011,314.76966390002053,315.7803462999873,315.76370410004165,None,314.76966390002053,None,314.76966390002053,None,314.76966390002053,None,316.6136839800514,None,316.6136839800514,None,316.6136839800514,None,,,,,,,,,,,,,,201,2023-04-24_10h25.06.662,Main,2022.1.1,60.30464700470326,
neutral,negative,2,k,k,,,,,,,,,6,8,116,16,,,,,,,,,main,2,2,2,negative,neutral,k,k,1,0.6652365000918508,316.613654899993,317.6137265000725,317.6137265000725,None,316.613654899993,None,316.613654899993,None,316.613654899993,None,318.2803741800366,None,318.2803741800366,None,318.2803741800366,None,,,,,,,,,,,,,,201,2023-04-24_10h25.06.662,Main,2022.1.1,60.30464700470326,
positive,negative,1,l,j,,,,,,,,,6,9,117,5,,,,,,,,,main,2,2,1,negative,positive,j,j,1,0.5817311001010239,318.28144000004977,319.2970444000093,319.28037980000954,None,318.28144000004977,None,318.28144000004977,None,318.28144000004977,None,319.8637056799838,None,319.8637056799838,None,319.8637056799838,None,,,,,,,,,,,,,,201,2023-04-24_10h25.06.662,Main,2022.1.1,60.30464700470326,
negative,positive,2,j,l,,,,,,,,,6,10,118,15,,,,,,,,,main,1,1,2,positive,negative,l,l,1,0.6009123999392614,319.8679309000727,320.88278600003105,320.8661508000223,None,319.8679309000727,None,319.8679309000727,None,319.8679309000727,None,321.4661577800056,None,321.4661577800056,None,321.4661577800056,None,,,,,,,,,,,,,,201,2023-04-24_10h25.06.662,Main,2022.1.1,60.30464700470326,
negative,positive,1,j,l,,,,,,,,,6,11,119,6,,,,,,,,,main,1,1,1,positive,negative,l,l,1,0.8127983000595123,321.46915989997797,322.4827570000198,322.466163199977,None,321.46915989997797,None,321.46915989997797,None,321.46915989997797,None,323.2806614800123,None,323.2806614800123,None,323.2806614800123,None,,,,,,,,,,,,,,201,2023-04-24_10h25.06.662,Main,2022.1.1,60.30464700470326,
neutral,positive,1,k,k,,,,,,,,,6,12,120,4,,,,,,,,,main,1,1,1,positive,neutral,k,k,1,0.6650195000693202,323.28391550004017,324.2993730000453,324.28276680002455,None,323.28391550004017,None,323.28391550004017,None,323.28391550004017,None,324.9472693800693,None,324.9472693800693,None,324.9472693800693,None,,,,,,,,,,,,,,201,2023-04-24_10h25.06.662,Main,2022.1.1,60.30464700470326,
negative,neutral,2,j,l,,,,,,,,,6,13,121,12,,,,,,,,,main,2,2,2,neutral,negative,l,l,1,0.6983306999318302,324.9527286000084,325.96608959999867,325.9493487,None,324.9527286000084,None,324.9527286000084,None,324.9527286000084,None,326.64692218005655,None,326.64692218005655,None,326.64692218005655,None,,,,,,,,,,,,,,201,2023-04-24_10h25.06.662,Main,2022.1.1,60.30464700470326,
positive,neutral,2,l,j,,,,,,,,,6,14,122,17,,,,,,,,,main,1,1,2,neutral,positive,j,j,1,0.9984572000103071,326.653105400037,327.66343519999646,327.64677840005606,None,326.653105400037,None,326.653105400037,None,326.653105400037,None,328.64679177999494,None,328.64679177999494,None,328.64679177999494,None,,,,,,,,,,,,,,201,2023-04-24_10h25.06.662,Main,2022.1.1,60.30464700470326,
positive,negative,2,l,j,,,,,,,,,6,15,123,14,,,,,,,,,main,1,1,2,negative,positive,j,j,1,0.5148007000098005,328.64674770005513,329.6467892000219,329.6467892000219,None,328.64674770005513,None,328.64674770005513,None,328.64674770005513,None,330.16347187999634,None,330.16347187999634,None,330.16347187999634,None,,,,,,,,,,,,,,201,2023-04-24_10h25.06.662,Main,2022.1.1,60.30464700470326,
neutral,neutral,1,k,k,,,,,,,,,6,16,124,1,,,,,,,,,main,2,2,1,neutral,neutral,k,k,1,0.6153251000214368,330.1635622000322,331.1634680000134,331.1634680000134,None,330.1635622000322,None,330.1635622000322,None,330.1635622000322,None,331.78013747998045,None,331.78013747998045,None,331.78013747998045,None,,,,,,,,,,,,,,201,2023-04-24_10h25.06.662,Main,2022.1.1,60.30464700470326,
negative,negative,2,j,l,,,,,,,,,6,17,125,9,,,,,,,,,main,2,2,2,negative,negative,l,l,1,0.6172494000056759,331.78308740002103,332.782649800065,332.782649800065,None,331.78308740002103,None,331.78308740002103,None,331.78308740002103,None,333.3992192799691,None,333.3992192799691,None,333.3992192799691,None,,,,,,,,,,,,,,201,2023-04-24_10h25.06.662,Main,2022.1.1,60.30464700470326,
negative,positive,2,j,l,,,,,,,,,7,0,126,15,,,,,,,,,main,1,1,2,positive,negative,l,l,1,0.5988092999905348,333.40170380007476,334.41587560006883,334.399260199978,None,333.40170380007476,None,333.40170380007476,None,333.40170380007476,None,334.9992953800596,None,334.9992953800596,None,334.9992953800596,None,,,,,,,,,,,,,,201,2023-04-24_10h25.06.662,Main,2022.1.1,60.30464700470326,
neutral,neutral,1,k,k,,,,,,,,,7,1,127,1,,,,,,,,,main,1,1,1,neutral,neutral,k,k,1,0.6491984000895172,335.0021435000235,336.01577310007997,335.99918849999085,None,335.0021435000235,None,335.0021435000235,None,335.0021435000235,None,336.64917878000995,None,336.64917878000995,None,336.64917878000995,None,,,,,,,,,,,,,,201,2023-04-24_10h25.06.662,Main,2022.1.1,60.30464700470326,
negative,neutral,1,j,l,,,,,,,,,7,2,128,3,,,,,,,,,main,1,1,1,neutral,negative,l,l,1,0.711894000065513,336.65314980002586,337.6658262000419,337.64924170007,None,336.65314980002586,None,336.65314980002586,None,336.65314980002586,None,338.36331418002953,None,338.36331418002953,None,338.36331418002953,None,,,,,,,,,,,,,,201,2023-04-24_10h25.06.662,Main,2022.1.1,60.30464700470326,
neutral,neutral,2,k,k,,,,,,,,,7,3,129,10,,,,,,,,,main,1,1,2,neutral,neutral,k,k,1,0.6639411000069231,338.36756980000064,339.37987890001386,339.363213500008,None,338.36756980000064,None,338.36756980000064,None,338.36756980000064,None,340.02987468007484,None,340.02987468007484,None,340.02987468007484,None,,,,,,,,,,,,,,201,2023-04-24_10h25.06.662,Main,2022.1.1,60.30464700470326,
neutral,positive,1,k,k,,,,,,,,,7,4,130,4,,,,,,,,,main,2,2,1,positive,neutral,k,k,1,0.6152526999358088,340.02981420001015,341.0299164999742,341.0299164999742,None,340.02981420001015,None,340.02981420001015,None,340.02981420001015,None,341.64658198002724,None,341.64658198002724,None,341.64658198002724,None,,,,,,,,,,,,,,201,2023-04-24_10h25.06.662,Main,2022.1.1,60.30464700470326,
positive,neutral,2,l,j,,,,,,,,,7,5,131,17,,,,,,,,,main,2,2,2,neutral,positive,j,j,1,0.7482931999256834,341.6471371999942,342.6466041000094,342.6466041000094,None,341.6471371999942,None,341.6471371999942,None,341.6471371999942,None,343.3965618799906,None,343.3965618799906,None,343.3965618799906,None,,,,,,,,,,,,,,201,2023-04-24_10h25.06.662,Main,2022.1.1,60.30464700470326,
positive,negative,1,l,j,,,,,,,,,7,6,132,5,,,,,,,,,main,2,2,1,negative,positive,j,j,1,0.7652852000901476,343.4000028000446,344.3990135000786,344.3990135000786,None,343.4000028000446,None,343.4000028000446,None,343.4000028000446,None,345.1632238799706,None,345.1632238799706,None,345.1632238799706,None,,,,,,,,,,,,,,201,2023-04-24_10h25.06.662,Main,2022.1.1,60.30464700470326,
neutral,negative,1,k,k,,,,,,,,,7,7,133,7,,,,,,,,,main,2,2,1,negative,neutral,k,k,1,0.6163163000019267,345.16701059998013,346.18227540003136,346.1656949999742,None,345.16701059998013,None,345.16701059998013,None,345.16701059998013,None,346.7801603800384,None,346.7801603800384,None,346.7801603800384,None,,,,,,,,,,,,,,201,2023-04-24_10h25.06.662,Main,2022.1.1,60.30464700470326,
positive,positive,1,l,j,,,,,,,,,7,8,134,2,,,,,,,,,main,2,2,1,positive,positive,j,j,1,0.7340254000155255,346.78629760001786,347.7989428000292,347.78233830002137,None,346.78629760001786,None,346.78629760001786,None,346.78629760001786,None,348.5156942800153,None,348.5156942800153,None,348.5156942800153,None,,,,,,,,,,,,,,201,2023-04-24_10h25.06.662,Main,2022.1.1,60.30464700470326,
negative,neutral,2,j,l,,,,,,,,,7,9,135,12,,,,,,,,,main,2,2,2,neutral,negative,l,l,1,0.6453301999717951,348.51995340001304,349.532212399994,349.5155997000402,None,348.51995340001304,None,348.51995340001304,None,348.51995340001304,None,350.1634224799694,None,350.1634224799694,None,350.1634224799694,None,,,,,,,,,,,,,,201,2023-04-24_10h25.06.662,Main,2022.1.1,60.30464700470326,
negative,negative,2,j,l,,,,,,,,,7,10,136,9,,,,,,,,,main,2,2,2,negative,negative,l,l,1,0.6645041999872774,350.1667814999819,351.17924079997465,351.1626410000026,None,350.1667814999819,None,350.1667814999819,None,350.1667814999819,None,351.82968488007316,None,351.82968488007316,None,351.82968488007316,None,,,,,,,,,,,,,,201,2023-04-24_10h25.06.662,Main,2022.1.1,60.30464700470326,
neutral,positive,2,k,k,,,,,,,,,7,11,137,13,,,,,,,,,main,2,2,2,positive,neutral,k,k,1,0.6317044999450445,351.8298030999722,352.82968029996846,352.82968029996846,None,351.8298030999722,None,351.8298030999722,None,351.8298030999722,None,353.46298847997093,None,353.46298847997093,None,353.46298847997093,None,,,,,,,,,,,,,,201,2023-04-24_10h25.06.662,Main,2022.1.1,60.30464700470326,
positive,negative,2,l,j,,,,,,,,,7,12,138,14,,,,,,,,,main,1,1,2,negative,positive,j,j,1,0.68137140001636,353.4646230000071,354.47965230001137,354.4629868000047,None,353.4646230000071,None,353.4646230000071,None,353.4646230000071,None,355.14629088002255,None,355.14629088002255,None,355.14629088002255,None,,,,,,,,,,,,,,201,2023-04-24_10h25.06.662,Main,2022.1.1,60.30464700470326,
neutral,negative,2,k,k,,,,,,,,,7,13,139,16,,,,,,,,,main,1,1,2,negative,neutral,k,k,1,0.632698200060986,355.1472383000655,356.1488582000602,356.1488582000602,None,355.1472383000655,None,355.1472383000655,None,355.1472383000655,None,356.7799485800555,None,356.7799485800555,None,356.7799485800555,None,,,,,,,,,,,,,,201,2023-04-24_10h25.06.662,Main,2022.1.1,60.30464700470326,
negative,negative,1,j,l,,,,,,,,,7,14,140,0,,,,,,,,,main,2,2,1,negative,negative,l,l,1,0.6321968999691308,356.785944400006,357.7987192000728,357.78206410002895,None,356.785944400006,None,356.785944400006,None,356.785944400006,None,358.4139162800042,None,358.4139162800042,None,358.4139162800042,None,,,,,,,,,,,,,,201,2023-04-24_10h25.06.662,Main,2022.1.1,60.30464700470326,
positive,neutral,1,l,j,,,,,,,,,7,15,141,8,,,,,,,,,main,1,1,1,neutral,positive,j,j,1,0.9331590000074357,358.4320425000042,359.4320365000749,359.4154258000199,None,358.4320425000042,None,358.4320425000042,None,358.4320425000042,None,360.3486956800101,None,360.3486956800101,None,360.3486956800101,None,,,,,,,,,,,,,,201,2023-04-24_10h25.06.662,Main,2022.1.1,60.30464700470326,
positive,positive,2,l,j,,,,,,,,,7,16,142,11,,,,,,,,,main,1,1,2,positive,positive,j,j,1,1.0474041000707075,360.35308909998275,361.3652996000601,361.3486951000523,None,360.35308909998275,None,360.35308909998275,None,360.35308909998275,None,362.39874258006455,None,362.39874258006455,None,362.39874258006455,None,,,,,,,,,,,,,,201,2023-04-24_10h25.06.662,Main,2022.1.1,60.30464700470326,
negative,positive,1,j,l,,,,,,,,,7,17,143,6,,,,,,,,,main,2,2,1,positive,negative,l,l,1,0.6804648999823257,362.4017748000333,363.4126860999968,363.39604550006334,None,362.4017748000333,None,362.4017748000333,None,362.4017748000333,None,364.0793447800446,None,364.0793447800446,None,364.0793447800446,None,,,,,,,,,,,,,,201,2023-04-24_10h25.06.662,Main,2022.1.1,60.30464700470326,
positive,neutral,1,l,j,,,,,,,,,8,0,144,8,,,,,,,,,main,2,2,1,neutral,positive,j,j,1,0.7320867999223992,364.08029399998486,365.0793698000489,365.0793698000489,None,364.08029399998486,None,364.08029399998486,None,364.08029399998486,None,365.8127383800223,None,365.8127383800223,None,365.8127383800223,None,,,,,,,,,,,,,,201,2023-04-24_10h25.06.662,Main,2022.1.1,60.30464700470326,
negative,negative,1,j,l,,,,,,,,,8,1,145,0,,,,,,,,,main,1,1,1,negative,negative,l,l,1,0.6636833000229672,365.81478110002354,366.8293814000208,366.8127161000157,None,365.81478110002354,None,365.81478110002354,None,365.81478110002354,None,367.479395179986,None,367.479395179986,None,367.479395179986,None,,,,,,,,,,,,,,201,2023-04-24_10h25.06.662,Main,2022.1.1,60.30464700470326,
neutral,positive,2,k,k,,,,,,,,,8,2,146,13,,,,,,,,,main,1,1,2,positive,neutral,k,k,1,0.6674675999674946,367.4826814000262,368.48196150001604,368.48196150001604,None,367.4826814000262,None,367.4826814000262,None,367.4826814000262,None,369.1485855800332,None,369.1485855800332,None,369.1485855800332,None,,,,,,,,,,,,,,201,2023-04-24_10h25.06.662,Main,2022.1.1,60.30464700470326,
neutral,negative,2,k,k,,,,,,,,,8,3,147,16,,,,,,,,,main,1,1,2,negative,neutral,k,k,1,0.5646450000349432,369.15153689996805,370.1650989999762,370.1485467000166,None,369.15153689996805,None,369.15153689996805,None,369.15153689996805,None,370.7151044800179,None,370.7151044800179,None,370.7151044800179,None,,,,,,,,,,,,,,201,2023-04-24_10h25.06.662,Main,2022.1.1,60.30464700470326,
positive,negative,2,l,j,,,,,,,,,8,4,148,14,,,,,,,,,main,1,1,2,negative,positive,j,j,1,0.7987848999910057,370.71887360000983,371.7317852000706,371.715147000039,None,370.71887360000983,None,370.71887360000983,None,370.71887360000983,None,372.5150321799796,None,372.5150321799796,None,372.5150321799796,None,,,,,,,,,,,,,,201,2023-04-24_10h25.06.662,Main,2022.1.1,60.30464700470326,
positive,negative,1,l,j,,,,,,,,,8,5,149,5,,,,,,,,,main,2,2,1,negative,positive,j,j,1,0.6485637999139726,372.51811379997525,373.53173679998145,373.5151509999996,None,372.51811379997525,None,372.51811379997525,None,372.51811379997525,None,374.16511888008097,None,374.16511888008097,None,374.16511888008097,None,,,,,,,,,,,,,,201,2023-04-24_10h25.06.662,Main,2022.1.1,60.30464700470326,
neutral,positive,1,k,k,,,,,,,,,8,6,150,4,,,,,,,,,main,2,2,1,positive,neutral,k,k,1,0.6129253000253811,374.1688454999821,375.18263890000526,375.16507810004987,None,374.1688454999821,None,374.1688454999821,None,374.1688454999821,None,375.7791629800107,None,375.7791629800107,None,375.7791629800107,None,,,,,,,,,,,,,,201,2023-04-24_10h25.06.662,Main,2022.1.1,60.30464700470326,
positive,positive,2,l,j,,,,,,,,,8,7,151,11,,,,,,,,,main,2,2,2,positive,positive,j,j,1,0.6687742000212893,375.77970369998366,376.77915469999425,376.77915469999425,None,375.77970369998366,None,375.77970369998366,None,375.77970369998366,None,377.4458466800628,None,377.4458466800628,None,377.4458466800628,None,,,,,,,,,,,,,,201,2023-04-24_10h25.06.662,Main,2022.1.1,60.30464700470326,
negative,positive,1,j,l,,,,,,,,,8,8,152,6,,,,,,,,,main,1,1,1,positive,negative,l,l,1,0.7944704999681562,377.4503225000808,378.4624741000589,378.44583550002426,None,377.4503225000808,None,377.4503225000808,None,377.4503225000808,None,379.24584637999067,None,379.24584637999067,None,379.24584637999067,None,,,,,,,,,,,,,,201,2023-04-24_10h25.06.662,Main,2022.1.1,60.30464700470326,
neutral,neutral,1,k,k,,,,,,,,,8,9,153,1,,,,,,,,,main,1,1,1,neutral,neutral,k,k,1,0.5981437000446022,379.24878600006923,380.24827940005343,380.2317088000709,None,379.24878600006923,None,379.24878600006923,None,379.24878600006923,None,380.84579088001044,None,380.84579088001044,None,380.84579088001044,None,,,,,,,,,,,,,,201,2023-04-24_10h25.06.662,Main,2022.1.1,60.30464700470326,
neutral,negative,1,k,k,,,,,,,,,8,10,154,7,,,,,,,,,main,2,2,1,negative,neutral,k,k,1,0.6178666999330744,380.85002690006513,381.86491810006555,381.84832129999995,None,380.85002690006513,None,380.85002690006513,None,380.85002690006513,None,382.4649064800236,None,382.4649064800236,None,382.4649064800236,None,,,,,,,,,,,,,,201,2023-04-24_10h25.06.662,Main,2022.1.1,60.30464700470326,
neutral,neutral,2,k,k,,,,,,,,,8,11,155,10,,,,,,,,,main,1,1,2,neutral,neutral,k,k,1,0.5481916998978704,382.4680039000232,383.4814951000735,383.46488810004666,None,382.4680039000232,None,382.4680039000232,None,382.4680039000232,None,384.0148911800701,None,384.0148911800701,None,384.0148911800701,None,,,,,,,,,,,,,,201,2023-04-24_10h25.06.662,Main,2022.1.1,60.30464700470326,
negative,positive,2,j,l,,,,,,,,,8,12,156,15,,,,,,,,,main,2,2,2,positive,negative,l,l,1,0.6792396000819281,384.01795060001314,385.03152720001526,385.0149031999754,None,384.01795060001314,None,384.01795060001314,None,384.01795060001314,None,385.69570037999654,None,385.69570037999654,None,385.69570037999654,None,,,,,,,,,,,,,,201,2023-04-24_10h25.06.662,Main,2022.1.1,60.30464700470326,
negative,neutral,2,j,l,,,,,,,,,8,13,157,12,,,,,,,,,main,2,2,2,neutral,negative,l,l,1,0.6252385000698268,385.6991917999694,386.69820240000263,386.69820240000263,None,385.6991917999694,None,385.6991917999694,None,385.6991917999694,None,387.32258047999346,None,387.32258047999346,None,387.32258047999346,None,,,,,,,,,,,,,,201,2023-04-24_10h25.06.662,Main,2022.1.1,60.30464700470326,
positive,neutral,2,l,j,,,,,,,,,8,14,158,17,,,,,,,,,main,2,2,2,neutral,positive,j,j,1,0.6378095999825746,387.33823720004875,388.3455688999966,388.3122180000646,None,387.33823720004875,None,387.33823720004875,None,387.33823720004875,None,388.9621963799931,None,388.9621963799931,None,388.9621963799931,None,,,,,,,,,,,,,,201,2023-04-24_10h25.06.662,Main,2022.1.1,60.30464700470326,
positive,positive,1,l,j,,,,,,,,,8,15,159,2,,,,,,,,,main,2,2,1,positive,positive,j,j,1,0.7652417999925092,388.9621792000253,389.9622433000477,389.9622433000477,None,388.9621792000253,None,388.9621792000253,None,388.9621792000253,None,390.7288939800113,None,390.7288939800113,None,390.7288939800113,None,,,,,,,,,,,,,,201,2023-04-24_10h25.06.662,Main,2022.1.1,60.30464700470326,
negative,neutral,1,j,l,,,,,,,,,8,16,160,3,,,,,,,,,main,2,2,1,neutral,negative,l,l,1,0.6832858000416309,390.7304556000745,391.7456119999988,391.72893720003776,None,390.7304556000745,None,390.7304556000745,None,390.7304556000745,None,392.4146729800617,None,392.4146729800617,None,392.4146729800617,None,,,,,,,,,,,,,,201,2023-04-24_10h25.06.662,Main,2022.1.1,60.30464700470326,
negative,negative,2,j,l,,,,,,,,,8,17,161,9,,,,,,,,,main,1,1,2,negative,negative,l,l,1,0.5816493999445811,392.41746150003746,393.43134760006797,393.4147277000593,None,392.41746150003746,None,392.41746150003746,None,392.41746150003746,None,393.99793488006105,None,393.99793488006105,None,393.99793488006105,None,,,,,,,,,,,,,,201,2023-04-24_10h25.06.662,Main,2022.1.1,60.30464700470326,
positive,neutral,2,l,j,,,,,,,,,9,0,162,17,,,,,,,,,main,2,2,2,neutral,positive,j,j,1,0.6983377001015469,394.00120810000226,395.0146240000613,394.998052900075,None,394.00120810000226,None,394.00120810000226,None,394.00120810000226,None,395.6979599799728,None,395.6979599799728,None,395.6979599799728,None,,,,,,,,,,,,,,201,2023-04-24_10h25.06.662,Main,2022.1.1,60.30464700470326,
negative,negative,1,j,l,,,,,,,,,9,1,163,0,,,,,,,,,main,2,2,1,negative,negative,l,l,1,0.6652294000377879,395.70199990004767,396.71450630004983,396.6980295999674,None,395.70199990004767,None,395.70199990004767,None,395.70199990004767,None,397.36453848003873,None,397.36453848003873,None,397.36453848003873,None,,,,,,,,,,,,,,201,2023-04-24_10h25.06.662,Main,2022.1.1,60.30464700470326,
neutral,positive,2,k,k,,,,,,,,,9,2,164,13,,,,,,,,,main,2,2,2,positive,neutral,k,k,1,0.6629692000569776,397.3687086000573,398.3811263999669,398.36471320001874,None,397.3687086000573,None,397.3687086000573,None,397.3687086000573,None,399.02909947999285,None,399.02909947999285,None,399.02909947999285,None,,,,,,,,,,,,,,201,2023-04-24_10h25.06.662,Main,2022.1.1,60.30464700470326,
neutral,negative,1,k,k,,,,,,,,,9,3,165,7,,,,,,,,,main,1,1,1,negative,neutral,k,k,1,0.5644808999495581,399.03269490005914,400.04536160000134,400.0286931999726,None,399.03269490005914,None,399.03269490005914,None,399.03269490005914,None,400.59533368002155,None,400.59533368002155,None,400.59533368002155,None,,,,,,,,,,,,,,201,2023-04-24_10h25.06.662,Main,2022.1.1,60.30464700470326,
positive,neutral,1,l,j,,,,,,,,,9,4,166,8,,,,,,,,,main,1,1,1,neutral,positive,j,j,1,0.7180971000343561,400.6119974000612,401.61200690001715,401.59535580000374,None,400.6119974000612,None,400.6119974000612,None,400.6119974000612,None,402.312093980005,None,402.312093980005,None,402.312093980005,None,,,,,,,,,,,,,,201,2023-04-24_10h25.06.662,Main,2022.1.1,60.30464700470326,
positive,positive,2,l,j,,,,,,,,,9,5,167,11,,,,,,,,,main,1,1,2,positive,positive,j,j,1,0.5945385999511927,402.3174980999902,403.32865530007984,403.31193329999223,None,402.3174980999902,None,402.3174980999902,None,402.3174980999902,None,403.91201528008094,None,403.91201528008094,None,403.91201528008094,None,,,,,,,,,,,,,,201,2023-04-24_10h25.06.662,Main,2022.1.1,60.30464700470326,
negative,negative,2,j,l,,,,,,,,,9,6,168,9,,,,,,,,,main,2,2,2,negative,negative,l,l,1,0.6350031000329182,403.9151544000488,404.9144967000466,404.9144967000466,None,403.9151544000488,None,403.9151544000488,None,403.9151544000488,None,405.5478208800545,None,405.5478208800545,None,405.5478208800545,None,,,,,,,,,,,,,,201,2023-04-24_10h25.06.662,Main,2022.1.1,60.30464700470326,
negative,neutral,2,j,l,,,,,,,,,9,7,169,12,,,,,,,,,main,2,2,2,neutral,negative,l,l,1,0.547555899946019,405.5521209000144,406.56441570003517,406.54779590002727,None,405.5521209000144,None,405.5521209000144,None,405.5521209000144,None,407.09774627999866,None,407.09774627999866,None,407.09774627999866,None,,,,,,,,,,,,,,201,2023-04-24_10h25.06.662,Main,2022.1.1,60.30464700470326,
positive,negative,2,l,j,,,,,,,,,9,8,170,14,,,,,,,,,main,1,1,2,negative,positive,j,j,1,0.6289622000185773,407.1006792000262,408.1143795000389,408.0978311999934,None,407.1006792000262,None,407.1006792000262,None,407.1006792000262,None,408.72857828005215,None,408.72857828005215,None,408.72857828005215,None,,,,,,,,,,,,,,201,2023-04-24_10h25.06.662,Main,2022.1.1,60.30464700470326,
neutral,negative,2,k,k,,,,,,,,,9,9,171,16,,,,,,,,,main,1,1,2,negative,neutral,k,k,1,0.6478737998986617,408.7350723000709,409.74765010003466,409.7310641000513,None,408.7350723000709,None,408.7350723000709,None,408.7350723000709,None,410.3786447799997,None,410.3786447799997,None,410.3786447799997,None,,,,,,,,,,,,,,201,2023-04-24_10h25.06.662,Main,2022.1.1,60.30464700470326,
neutral,positive,1,k,k,,,,,,,,,9,10,172,4,,,,,,,,,main,2,2,1,positive,neutral,k,k,1,0.5479703999590129,410.3850874999771,411.4005169000011,411.38101090001874,None,410.3850874999771,None,410.3850874999771,None,410.3850874999771,None,411.92840657997874,None,411.92840657997874,None,411.92840657997874,None,,,,,,,,,,,,,,201,2023-04-24_10h25.06.662,Main,2022.1.1,60.30464700470326,
negative,positive,2,j,l,,,,,,,,,9,11,173,15,,,,,,,,,main,2,2,2,positive,negative,l,l,1,0.6311178000178188,411.9451127999928,412.9450877000345,412.9284397000447,None,411.9451127999928,None,411.9451127999928,None,411.9451127999928,None,413.5617738800123,None,413.5617738800123,None,413.5617738800123,None,,,,,,,,,,,,,,201,2023-04-24_10h25.06.662,Main,2022.1.1,60.30464700470326,
negative,neutral,1,j,l,,,,,,,,,9,12,174,3,,,,,,,,,main,1,1,1,neutral,negative,l,l,1,0.8493354000383988,413.56219279998913,414.5617414000444,414.5617414000444,None,413.56219279998913,None,413.56219279998913,None,413.56219279998913,None,415.4117385800695,None,415.4117385800695,None,415.4117385800695,None,,,,,,,,,,,,,,201,2023-04-24_10h25.06.662,Main,2022.1.1,60.30464700470326,
positive,negative,1,l,j,,,,,,,,,9,13,175,5,,,,,,,,,main,2,2,1,negative,positive,j,j,1,0.6804920999566093,415.4137363000773,416.4284329999937,416.4117475000676,None,415.4137363000773,None,415.4137363000773,None,415.4137363000773,None,417.0950631800573,None,417.0950631800573,None,417.0950631800573,None,,,,,,,,,,,,,,201,2023-04-24_10h25.06.662,Main,2022.1.1,60.30464700470326,
negative,positive,1,j,l,,,,,,,,,9,14,176,6,,,,,,,,,main,1,1,1,positive,negative,l,l,1,0.7321134000085294,417.0991869000718,418.1141920000082,418.08092970005237,None,417.0991869000718,None,417.0991869000718,None,417.0991869000718,None,418.8287255799863,None,418.8287255799863,None,418.8287255799863,None,,,,,,,,,,,,,,201,2023-04-24_10h25.06.662,Main,2022.1.1,60.30464700470326,
neutral,neutral,2,k,k,,,,,,,,,9,15,177,10,,,,,,,,,main,2,2,2,neutral,neutral,k,k,1,0.6342694000340998,418.83480780001264,419.84745540004224,419.83085550006945,None,418.83480780001264,None,418.83480780001264,None,418.83480780001264,None,420.4641613800544,None,420.4641613800544,None,420.4641613800544,None,,,,,,,,,,,,,,201,2023-04-24_10h25.06.662,Main,2022.1.1,60.30464700470326,
positive,positive,1,l,j,,,,,,,,,9,16,178,2,,,,,,,,,main,2,2,1,positive,positive,j,j,1,0.7149218000704423,420.4674972000066,421.4807440000586,421.46415600006003,None,420.4674972000066,None,420.4674972000066,None,420.4674972000066,None,422.18071387996895,None,422.18071387996895,None,422.18071387996895,None,,,,,,,,,,,,,,201,2023-04-24_10h25.06.662,Main,2022.1.1,60.30464700470326,
neutral,neutral,1,k,k,,,,,,,,,9,17,179,1,,,,,,,,,main,2,2,1,neutral,neutral,k,k,1,0.6127599000465125,422.18462339998223,423.19738839997444,423.1807967000641,None,422.18462339998223,None,422.18462339998223,None,422.18462339998223,None,423.79526108000425,None,423.79526108000425,None,423.79526108000425,None,,,,,,,,,,,,,,201,2023-04-24_10h25.06.662,Main,2022.1.1,60.30464700470326,
negative,neutral,2,j,l,,,,,,,,,10,0,180,12,,,,,,,,,main,2,2,2,neutral,negative,l,l,1,0.7139281999552622,423.80141219997313,424.81147740001325,424.7947952999966,None,423.80141219997313,None,423.80141219997313,None,423.80141219997313,None,425.5114630800439,None,425.5114630800439,None,425.5114630800439,None,,,,,,,,,,,,,,201,2023-04-24_10h25.06.662,Main,2022.1.1,60.30464700470326,
positive,positive,1,l,j,,,,,,,,,10,1,181,2,,,,,,,,,main,1,1,1,positive,positive,j,j,1,1.3175453000003472,425.51283859997056,426.52819330000784,426.51154810003936,None,425.51283859997056,None,425.51283859997056,None,425.51283859997056,None,427.8306234800024,None,427.8306234800024,None,427.8306234800024,None,,,,,,,,,,,,,,201,2023-04-24_10h25.06.662,Main,2022.1.1,60.30464700470326,
neutral,positive,2,k,k,,,,,,,,,10,2,182,13,,,,,,,,,main,2,2,2,positive,neutral,k,k,1,0.8795727998949587,427.83388950000517,428.8472918000771,428.83069119998254,None,427.83388950000517,None,427.83388950000517,None,427.83388950000517,None,429.7118113799719,None,429.7118113799719,None,429.7118113799719,None,,,,,,,,,,,,,,201,2023-04-24_10h25.06.662,Main,2022.1.1,60.30464700470326,
neutral,neutral,2,k,k,,,,,,,,,10,3,183,10,,,,,,,,,main,1,1,2,neutral,neutral,k,k,1,0.782215099898167,429.7169972000411,430.73057450004853,430.7139820000157,None,429.7169972000411,None,429.7169972000411,None,429.7169972000411,None,431.495130880014,None,431.495130880014,None,431.495130880014,None,,,,,,,,,,,,,,201,2023-04-24_10h25.06.662,Main,2022.1.1,60.30464700470326,
negative,negative,1,j,l,,,,,,,,,10,4,184,0,,,,,,,,,main,2,2,1,negative,negative,l,l,1,0.8989765000296757,431.51415369997267,432.5138740000548,432.4972730000736,None,431.51415369997267,None,431.51415369997267,None,431.51415369997267,None,433.3960371800698,None,433.3960371800698,None,433.3960371800698,None,,,,,,,,,,,,,,201,2023-04-24_10h25.06.662,Main,2022.1.1,60.30464700470326,
positive,neutral,2,l,j,,,,,,,,,10,5,185,17,,,,,,,,,main,2,2,2,neutral,positive,j,j,1,0.8970937000121921,433.40171960007865,434.4113017000491,434.3946453999961,None,433.40171960007865,None,433.40171960007865,None,433.40171960007865,None,435.29462728006763,None,435.29462728006763,None,435.29462728006763,None,,,,,,,,,,,,,,201,2023-04-24_10h25.06.662,Main,2022.1.1,60.30464700470326,
positive,positive,2,l,j,,,,,,,,,10,6,186,11,,,,,,,,,main,2,2,2,positive,positive,j,j,1,0.8676850000629202,435.2946200000588,436.2946764000226,436.2946764000226,None,435.2946200000588,None,435.2946200000588,None,435.2946200000588,None,437.16387758005874,None,437.16387758005874,None,437.16387758005874,None,,,,,,,,,,,,,,201,2023-04-24_10h25.06.662,Main,2022.1.1,60.30464700470326,
neutral,negative,1,k,k,,,,,,,,,10,7,187,7,,,,,,,,,main,2,2,1,negative,neutral,k,k,1,0.7810232000192627,437.1676564000081,438.1804314000765,438.1638102000579,None,437.1676564000081,None,437.1676564000081,None,437.1676564000081,None,438.9470730799716,None,438.9470730799716,None,438.9470730799716,None,,,,,,,,,,,,,,201,2023-04-24_10h25.06.662,Main,2022.1.1,60.30464700470326,
positive,neutral,1,l,j,,,,,,,,,10,8,188,8,,,,,,,,,main,1,1,1,neutral,positive,j,j,1,0.7650353000499308,438.95020830002613,439.9636921000201,439.9470944000641,None,438.95020830002613,None,438.95020830002613,None,438.95020830002613,None,440.7137083799811,None,440.7137083799811,None,440.7137083799811,None,,,,,,,,,,,,,,201,2023-04-24_10h25.06.662,Main,2022.1.1,60.30464700470326,
negative,positive,2,j,l,,,,,,,,,10,9,189,15,,,,,,,,,main,2,2,2,positive,negative,l,l,1,0.713133400073275,440.7170887000393,441.7303484000731,441.7137771999696,None,440.7170887000393,None,440.7170887000393,None,440.7170887000393,None,442.4282333800569,None,442.4282333800569,None,442.4282333800569,None,,,,,,,,,,,,,,201,2023-04-24_10h25.06.662,Main,2022.1.1,60.30464700470326,
neutral,neutral,1,k,k,,,,,,,,,10,10,190,1,,,,,,,,,main,1,1,1,neutral,neutral,k,k,1,0.7069034000160173,442.4318458000198,443.44701010000426,443.43043100007344,None,442.4318458000198,None,442.4318458000198,None,442.4318458000198,None,444.1359543800121,None,444.1359543800121,None,444.1359543800121,None,,,,,,,,,,,,,,201,2023-04-24_10h25.06.662,Main,2022.1.1,60.30464700470326,
positive,negative,1,l,j,,,,,,,,,10,11,191,5,,,,,,,,,main,2,2,1,negative,positive,j,j,1,0.6061639999970794,444.1526409999933,445.1610656999983,445.127732599969,None,444.1526409999933,None,444.1526409999933,None,444.1526409999933,None,445.7444088799879,None,445.7444088799879,None,445.7444088799879,None,,,,,,,,,,,,,,201,2023-04-24_10h25.06.662,Main,2022.1.1,60.30464700470326,
positive,negative,2,l,j,,,,,,,,,10,12,192,14,,,,,,,,,main,1,1,2,negative,positive,j,j,1,0.617657299968414,445.74438160005957,446.74700079998,446.74700079998,None,445.74438160005957,None,445.74438160005957,None,445.74438160005957,None,447.3636205800343,None,447.3636205800343,None,447.3636205800343,None,,,,,,,,,,,,,,201,2023-04-24_10h25.06.662,Main,2022.1.1,60.30464700470326,
negative,neutral,1,j,l,,,,,,,,,10,13,193,3,,,,,,,,,main,2,2,1,neutral,negative,l,l,1,0.7626184000400826,447.36710979999043,448.38021219999064,448.3636300000362,None,447.36710979999043,None,447.36710979999043,None,447.36710979999043,None,449.12809207998214,None,449.12809207998214,None,449.12809207998214,None,,,,,,,,,,,,,,201,2023-04-24_10h25.06.662,Main,2022.1.1,60.30464700470326,
negative,positive,1,j,l,,,,,,,,,10,14,194,6,,,,,,,,,main,1,1,1,positive,negative,l,l,1,0.567140799947083,449.13389210007153,450.14692039997317,450.1301934000803,None,449.13389210007153,None,449.13389210007153,None,449.13389210007153,None,450.69678367997983,None,450.69678367997983,None,450.69678367997983,None,,,,,,,,,,,,,,201,2023-04-24_10h25.06.662,Main,2022.1.1,60.30464700470326,
neutral,positive,1,k,k,,,,,,,,,10,15,195,4,,,,,,,,,main,2,2,1,positive,neutral,k,k,1,0.6797587999608368,450.6999520000536,451.71346950007137,451.6968739000149,None,450.6999520000536,None,450.6999520000536,None,450.6999520000536,None,452.3780707800528,None,452.3780707800528,None,452.3780707800528,None,,,,,,,,,,,,,,201,2023-04-24_10h25.06.662,Main,2022.1.1,60.30464700470326,
negative,negative,2,j,l,,,,,,,,,10,16,196,9,,,,,,,,,main,1,1,2,negative,negative,l,l,1,0.7479072000132874,452.3837806000374,453.39678160008043,453.38018790003844,None,452.3837806000374,None,452.3837806000374,None,452.3837806000374,None,454.12760127997024,None,454.12760127997024,None,454.12760127997024,None,,,,,,,,,,,,,,201,2023-04-24_10h25.06.662,Main,2022.1.1,60.30464700470326,
neutral,negative,2,k,k,,,,,,,,,10,17,197,16,,,,,,,,,main,2,2,2,negative,neutral,k,k,1,0.5316346000181511,454.12754010001663,455.12755480001215,455.12755480001215,None,454.12754010001663,None,454.12754010001663,None,454.12754010001663,None,455.66092418003825,None,455.66092418003825,None,455.66092418003825,None,,,,,,,,,,,,,,201,2023-04-24_10h25.06.662,Main,2022.1.1,60.30464700470326,
neutral,neutral,2,k,k,,,,,,,,,11,0,198,10,,,,,,,,,main,1,1,2,neutral,neutral,k,k,1,0.49812410003505647,455.66106159996707,456.6609935000306,456.6609935000306,None,455.66106159996707,None,455.66106159996707,None,455.66106159996707,None,457.1608741800068,None,457.1608741800068,None,457.1608741800068,None,,,,,,,,,,,,,,201,2023-04-24_10h25.06.662,Main,2022.1.1,60.30464700470326,
neutral,positive,2,k,k,,,,,,,,,11,1,199,13,,,,,,,,,main,2,2,2,positive,neutral,k,k,1,0.5319943999638781,457.16219830000773,458.17756450001616,458.16101360006724,None,457.16219830000773,None,457.16219830000773,None,457.16219830000773,None,458.69424938000736,None,458.69424938000736,None,458.69424938000736,None,,,,,,,,,,,,,,201,2023-04-24_10h25.06.662,Main,2022.1.1,60.30464700470326,
positive,negative,1,l,j,,,,,,,,,11,2,200,5,,,,,,,,,main,1,1,1,negative,positive,j,j,1,0.5341712998924777,458.69758320006076,459.69670089997817,459.68002480000723,None,458.69758320006076,None,458.69758320006076,None,458.69758320006076,None,460.229997480032,None,460.229997480032,None,460.229997480032,None,,,,,,,,,,,,,,201,2023-04-24_10h25.06.662,Main,2022.1.1,60.30464700470326,
negative,positive,1,j,l,,,,,,,,,11,3,201,6,,,,,,,,,main,1,1,1,positive,negative,l,l,1,0.9985507000237703,460.2330748999957,461.2466539000161,461.2300396000501,None,460.2330748999957,None,460.2330748999957,None,460.2330748999957,None,462.22992857997303,None,462.22992857997303,None,462.22992857997303,None,,,,,,,,,,,,,,201,2023-04-24_10h25.06.662,Main,2022.1.1,60.30464700470326,
positive,neutral,1,l,j,,,,,,,,,11,4,202,8,,,,,,,,,main,2,2,1,neutral,positive,j,j,1,0.7316888999193907,462.23317730007693,463.24658240005374,463.22995970002376,None,462.23317730007693,None,462.23317730007693,None,462.23317730007693,None,463.96330718006936,None,463.96330718006936,None,463.96330718006936,None,,,,,,,,,,,,,,201,2023-04-24_10h25.06.662,Main,2022.1.1,60.30464700470326,
neutral,neutral,1,k,k,,,,,,,,,11,5,203,1,,,,,,,,,main,1,1,1,neutral,neutral,k,k,1,0.61225809995085,463.96728960005566,464.9799001000356,464.96327369997744,None,463.96728960005566,None,463.96728960005566,None,463.96728960005566,None,465.5773937799735,None,465.5773937799735,None,465.5773937799735,None,,,,,,,,,,,,,,201,2023-04-24_10h25.06.662,Main,2022.1.1,60.30464700470326,
negative,neutral,2,j,l,,,,,,,,,11,6,204,12,,,,,,,,,main,2,2,2,neutral,negative,l,l,1,0.7488854000112042,465.5838139000116,466.5939974000212,466.57728269998915,None,465.5838139000116,None,465.5838139000116,None,465.5838139000116,None,467.32729478003455,None,467.32729478003455,None,467.32729478003455,None,,,,,,,,,,,,,,201,2023-04-24_10h25.06.662,Main,2022.1.1,60.30464700470326,
positive,positive,2,l,j,,,,,,,,,11,7,205,11,,,,,,,,,main,1,1,2,positive,positive,j,j,1,0.7806629000697285,467.3282666000305,468.32735390006565,468.32735390006565,None,467.3282666000305,None,467.3282666000305,None,467.3282666000305,None,469.110660980083,None,469.110660980083,None,469.110660980083,None,,,,,,,,,,,,,,201,2023-04-24_10h25.06.662,Main,2022.1.1,60.30464700470326,
neutral,negative,1,k,k,,,,,,,,,11,8,206,7,,,,,,,,,main,2,2,1,negative,neutral,k,k,1,0.6487394000869244,469.1130624000216,470.12731030001305,470.1106416999828,None,469.1130624000216,None,469.1130624000216,None,469.1130624000216,None,470.7610588799929,None,470.7610588799929,None,470.7610588799929,None,,,,,,,,,,,,,,201,2023-04-24_10h25.06.662,Main,2022.1.1,60.30464700470326,
neutral,positive,1,k,k,,,,,,,,,11,9,207,4,,,,,,,,,main,2,2,1,positive,neutral,k,k,1,0.7032651000190526,470.7673323000781,471.7776504000649,471.7631433000788,None,470.7673323000781,None,470.7673323000781,None,470.7673323000781,None,472.46321428006047,None,472.46321428006047,None,472.46321428006047,None,,,,,,,,,,,,,,201,2023-04-24_10h25.06.662,Main,2022.1.1,60.30464700470326,
negative,negative,1,j,l,,,,,,,,,11,10,208,0,,,,,,,,,main,1,1,1,negative,negative,l,k,0,-0.789963599992916,472.4687205000082,None,None,None,472.4687205000082,None,472.4687205000082,None,472.4687205000082,None,472.68199750001077,None,472.68199750001077,None,472.68199750001077,None,,,,,,,,,,,,,,201,2023-04-24_10h25.06.662,Main,2022.1.1,60.30464700470326,
negative,negative,2,j,l,,,,,,,,,11,11,209,9,,,,,,,,,main,2,2,2,negative,negative,l,l,1,0.9509346999693662,475.6946714000078,476.69628230005037,476.6797016999917,None,475.6946714000078,None,475.6946714000078,None,475.6946714000078,None,477.643753680028,None,477.643753680028,None,477.643753680028,None,,,,,,,,,,,,,,201,2023-04-24_10h25.06.662,Main,2022.1.1,60.30464700470326,
positive,neutral,2,l,j,,,,,,,,,11,12,210,17,,,,,,,,,main,1,1,2,neutral,positive,j,j,1,0.6987109000328928,477.64400880003814,478.64375130005646,478.64375130005646,None,477.64400880003814,None,477.64400880003814,None,477.64400880003814,None,479.34379268004557,None,479.34379268004557,None,479.34379268004557,None,,,,,,,,,,,,,,201,2023-04-24_10h25.06.662,Main,2022.1.1,60.30464700470326,
neutral,negative,2,k,k,,,,,,,,,11,13,211,16,,,,,,,,,main,1,1,2,negative,neutral,k,k,1,0.6172220999142155,479.34784220007714,480.3628784000175,480.3462778000394,None,479.34784220007714,None,479.34784220007714,None,479.34784220007714,None,480.96320607999803,None,480.96320607999803,None,480.96320607999803,None,,,,,,,,,,,,,,201,2023-04-24_10h25.06.662,Main,2022.1.1,60.30464700470326,
negative,neutral,1,j,l,,,,,,,,,11,14,212,3,,,,,,,,,main,2,2,1,neutral,negative,l,l,1,0.6123567000031471,480.9670750000514,481.9795293000061,481.9629292000318,None,480.9670750000514,None,480.9670750000514,None,480.9670750000514,None,482.5770395800704,None,482.5770395800704,None,482.5770395800704,None,,,,,,,,,,,,,,201,2023-04-24_10h25.06.662,Main,2022.1.1,60.30464700470326,
positive,positive,1,l,j,,,,,,,,,11,15,213,2,,,,,,,,,main,2,2,1,positive,positive,j,j,1,0.6176404999569058,482.58073619997595,483.5961714000441,483.5795697000576,None,482.58073619997595,None,482.58073619997595,None,482.58073619997595,None,484.19616068000903,None,484.19616068000903,None,484.19616068000903,None,,,,,,,,,,,,,,201,2023-04-24_10h25.06.662,Main,2022.1.1,60.30464700470326,
positive,negative,2,l,j,,,,,,,,,11,16,214,14,,,,,,,,,main,2,2,2,negative,positive,j,j,1,0.7656797000672668,484.19905769999605,485.21276660007425,485.1961646999698,None,484.19905769999605,None,484.19905769999605,None,484.19905769999605,None,485.96334077997597,None,485.96334077997597,None,485.96334077997597,None,,,,,,,,,,,,,,201,2023-04-24_10h25.06.662,Main,2022.1.1,60.30464700470326,
negative,positive,2,j,l,,,,,,,,,11,17,215,15,,,,,,,,,main,2,2,2,positive,negative,l,l,1,0.6786963000195101,485.967648299993,486.9764810000779,486.95923909998965,None,485.967648299993,None,485.967648299993,None,485.967648299993,None,487.6435169799719,None,487.6435169799719,None,487.6435169799719,None,,,,,,,,,,,,,,201,2023-04-24_10h25.06.662,Main,2022.1.1,60.30464700470326,
negative,negative,2,j,l,,,,,,,,,12,0,216,9,,,,,,,,,main,2,2,2,negative,negative,l,l,1,0.6482337999623269,487.6435075000627,488.6435599999968,488.6435599999968,None,487.6435075000627,None,487.6435075000627,None,487.6435075000627,None,489.29356638002207,None,489.29356638002207,None,489.29356638002207,None,,,,,,,,,,,,,,201,2023-04-24_10h25.06.662,Main,2022.1.1,60.30464700470326,
neutral,negative,1,k,k,,,,,,,,,12,1,217,7,,,,,,,,,main,1,1,1,negative,neutral,k,k,1,0.6986381999449804,489.2939470000565,490.29355359997135,490.29355359997135,None,489.2939470000565,None,489.2939470000565,None,489.2939470000565,None,490.99356038004623,None,490.99356038004623,None,490.99356038004623,None,,,,,,,,,,,,,,201,2023-04-24_10h25.06.662,Main,2022.1.1,60.30464700470326,
negative,positive,2,j,l,,,,,,,,,12,2,218,15,,,,,,,,,main,2,2,2,positive,negative,l,k,0,-0.7850394999841228,490.9956764000235,None,None,None,490.9956764000235,None,490.9956764000235,None,490.9956764000235,None,491.2101970000658,None,491.2101970000658,None,491.2101970000658,None,,,,,,,,,,,,,,201,2023-04-24_10h25.06.662,Main,2022.1.1,60.30464700470326,
negative,neutral,1,j,l,,,,,,,,,12,3,219,3,,,,,,,,,main,1,1,1,neutral,negative,l,l,1,0.7012987999478355,494.21106730005704,495.21262300002854,495.1960266000824,None,494.21106730005704,None,494.21106730005704,None,494.21106730005704,None,495.9104728799779,None,495.9104728799779,None,495.9104728799779,None,,,,,,,,,,,,,,201,2023-04-24_10h25.06.662,Main,2022.1.1,60.30464700470326,
neutral,positive,2,k,k,,,,,,,,,12,4,220,13,,,,,,,,,main,2,2,2,positive,neutral,k,k,1,0.6488255000440404,495.9272345000645,496.9291729000397,496.9126494000666,None,495.9272345000645,None,495.9272345000645,None,495.9272345000645,None,497.5604505800642,None,497.5604505800642,None,497.5604505800642,None,,,,,,,,,,,,,,201,2023-04-24_10h25.06.662,Main,2022.1.1,60.30464700470326,
negative,negative,1,j,l,,,,,,,,,12,5,221,0,,,,,,,,,main,2,2,1,negative,negative,l,l,1,0.8643879999872297,497.56648989999667,498.5791354000103,498.5625517000444,None,497.56648989999667,None,497.56648989999667,None,497.56648989999667,None,499.42678817999547,None,499.42678817999547,None,499.42678817999547,None,,,,,,,,,,,,,,201,2023-04-24_10h25.06.662,Main,2022.1.1,60.30464700470326,
neutral,neutral,2,k,k,,,,,,,,,12,6,222,10,,,,,,,,,main,1,1,2,neutral,neutral,k,k,1,0.7313402999425307,499.43308029999025,500.4433225999819,500.42662430007476,None,499.43308029999025,None,499.43308029999025,None,499.43308029999025,None,501.1599669800838,None,501.1599669800838,None,501.1599669800838,None,,,,,,,,,,,,,,201,2023-04-24_10h25.06.662,Main,2022.1.1,60.30464700470326,
negative,neutral,2,j,l,,,,,,,,,12,7,223,12,,,,,,,,,main,2,2,2,neutral,negative,l,l,1,0.6344012999907136,501.1598916000221,502.15999750001356,502.15999750001356,None,501.1598916000221,None,501.1598916000221,None,501.1598916000221,None,502.79579507999586,None,502.79579507999586,None,502.79579507999586,None,,,,,,,,,,,,,,201,2023-04-24_10h25.06.662,Main,2022.1.1,60.30464700470326,
