target,distractor,set,ans1,ans2,rep_loop2.thisRepN,rep_loop2.thisTrialN,rep_loop2.thisN,rep_loop2.thisIndex,flanker_prac_loop.thisRepN,flanker_prac_loop.thisTrialN,flanker_prac_loop.thisN,flanker_prac_loop.thisIndex,flanker_main_loop.thisRepN,flanker_main_loop.thisTrialN,flanker_main_loop.thisN,flanker_main_loop.thisIndex,fl_inst_resp.keys,fl_inst_resp.rt,sound_1.started,sound_1.stopped,image_4.started,image_4.stopped,back_2.started,back_2.stopped,main_prac,fl_cold,fl_colt,fl_set,fl_dcond,fl_tcond,fl_ans,fl_res,fl_corr,fl_rt,fix_fl.started,fix_fl.stopped,targ.started,targ.stopped,j_button.started,j_button.stopped,k_button.started,k_button.stopped,l_button.started,l_button.stopped,j_button2.started,j_button2.stopped,k_button2.started,k_button2.stopped,l_button2.started,l_button2.stopped,mainback.started,mainback.stopped,key_resp.keys,mouse_6.x,mouse_6.y,mouse_6.leftButton,mouse_6.midButton,mouse_6.rightButton,mouse_6.started,mouse_6.stopped,text_2.started,text_2.stopped,id*,date,expName,psychopyVersion,frameRate,
,,,,,0,0,0,0,,,,,,,,,space,24.17472050001379,29.7527539199451,None,53.94839929998852,None,,,,,,,,,,,,,,,,,,,,,,,,,,,,,,,,,,,,,,,,,203,2023-04-26_17h06.57.514,Main,2022.1.1,60.44407048677523,
positive,positive,1,l,j,,,,,0,0,0,2,,,,,,,,,,,61.196210699970834,None,prac,1,1,1,positive,positive,j,j,1,0.724730100017041,63.20945910003502,64.21509820001666,64.19850279996172,None,63.20945910003502,None,63.20945910003502,None,63.20945910003502,None,64.93183121995534,None,64.93183121995534,None,64.93183121995534,None,,,,,,,,,,,,,203,2023-04-26_17h06.57.514,Main,2022.1.1,60.44407048677523,
positive,negative,2,l,j,,,,,0,1,1,14,,,,,,,,,,,,,prac,1,1,2,negative,positive,j,j,1,0.7635983000509441,64.93579929997213,65.94839799997862,65.93179629999213,None,64.93579929997213,None,64.93579929997213,None,64.93579929997213,None,66.69736351994797,None,66.69736351994797,None,66.69736351994797,None,,,,,,,,,,,,,203,2023-04-26_17h06.57.514,Main,2022.1.1,60.44407048677523,
neutral,neutral,1,k,k,,,,,0,2,2,1,,,,,,,,,,,,,prac,1,1,1,neutral,neutral,k,k,1,0.7684574000304565,66.70240219996776,67.71501060004812,67.69843580003362,None,66.70240219996776,None,66.70240219996776,None,66.70240219996776,None,68.46528641998302,None,68.46528641998302,None,68.46528641998302,None,,,,,,,,,,,,,203,2023-04-26_17h06.57.514,Main,2022.1.1,60.44407048677523,
negative,negative,1,j,l,,,,,0,3,3,0,,,,,,,,,,,,,prac,2,2,1,negative,negative,l,l,1,0.643676400068216,68.47147740004584,69.48158200003672,69.46510589995887,None,68.47147740004584,None,68.47147740004584,None,68.47147740004584,None,70.11251922000665,None,70.11251922000665,None,70.11251922000665,None,,,,,,,,,,,,,203,2023-04-26_17h06.57.514,Main,2022.1.1,60.44407048677523,
positive,positive,2,l,j,,,,,0,4,4,11,,,,,,,,,,,,,prac,2,2,2,positive,positive,j,j,1,0.6483030000235885,70.11641909996979,71.12940149998758,71.11242200003471,None,70.11641909996979,None,70.11641909996979,None,70.11641909996979,None,71.76236422001384,None,71.76236422001384,None,71.76236422001384,None,,,,,,,,,,,,,203,2023-04-26_17h06.57.514,Main,2022.1.1,60.44407048677523,
positive,neutral,2,l,j,,,,,0,5,5,17,,,,,,,,,,,,,prac,1,1,2,neutral,positive,j,j,1,0.5822287000482902,71.76238379999995,72.76246060000267,72.76246060000267,None,71.76238379999995,None,71.76238379999995,None,71.76238379999995,None,73.34577862001024,None,73.34577862001024,None,73.34577862001024,None,,,,,,,,,,,,,203,2023-04-26_17h06.57.514,Main,2022.1.1,60.44407048677523,
positive,negative,1,l,j,,,,,0,6,6,5,,,,,,,,,,,,,prac,1,1,1,negative,positive,j,j,1,0.6831218999577686,73.34674259996973,74.34595560003072,74.34595560003072,None,73.34674259996973,None,73.34674259996973,None,73.34674259996973,None,75.02910251999273,None,75.02910251999273,None,75.02910251999273,None,,,,,,,,,,,,,203,2023-04-26_17h06.57.514,Main,2022.1.1,60.44407048677523,
negative,neutral,1,j,l,,,,,0,7,7,3,,,,,,,,,,,,,prac,2,2,1,neutral,negative,l,l,1,0.732121599954553,75.03358839999419,76.04822720005177,76.03160069999285,None,75.03358839999419,None,75.03358839999419,None,75.03358839999419,None,76.76249801998492,None,76.76249801998492,None,76.76249801998492,None,,,,,,,,,,,,,203,2023-04-26_17h06.57.514,Main,2022.1.1,60.44407048677523,
neutral,positive,2,k,k,,,,,0,8,8,13,,,,,,,,,,,,,prac,2,2,2,positive,neutral,k,k,1,0.5830338000087067,76.77416549995542,77.78148530004546,77.76491090003401,None,76.77416549995542,None,76.77416549995542,None,76.77416549995542,None,78.34817641999106,None,78.34817641999106,None,78.34817641999106,None,,,,,,,,,,,,,203,2023-04-26_17h06.57.514,Main,2022.1.1,60.44407048677523,
positive,neutral,1,l,j,,,,,0,9,9,8,,,,,,,,,,,,,prac,2,2,1,neutral,positive,j,j,1,1.1815772000700235,78.3516466000583,79.36481209995691,79.34824780002236,None,78.3516466000583,None,78.3516466000583,None,78.3516466000583,None,80.53142041994724,None,80.53142041994724,None,80.53142041994724,None,,,,,,,,,,,,,203,2023-04-26_17h06.57.514,Main,2022.1.1,60.44407048677523,
neutral,neutral,2,k,k,,,,,0,10,10,10,,,,,,,,,,,,,prac,1,1,2,neutral,neutral,k,k,1,0.6821193000068888,80.53401359997224,81.54809910000768,81.53149860003032,None,80.53401359997224,None,80.53401359997224,None,80.53401359997224,None,82.2148668200476,None,82.2148668200476,None,82.2148668200476,None,,,,,,,,,,,,,203,2023-04-26_17h06.57.514,Main,2022.1.1,60.44407048677523,
negative,neutral,2,j,l,,,,,0,11,11,12,,,,,,,,,,,,,prac,2,2,2,neutral,negative,l,l,1,0.729635399999097,82.21798810001928,83.22882730001584,83.21242330002133,None,82.21798810001928,None,82.21798810001928,None,82.21798810001928,None,83.94552382002584,None,83.94552382002584,None,83.94552382002584,None,,,,,,,,,,,,,203,2023-04-26_17h06.57.514,Main,2022.1.1,60.44407048677523,
negative,negative,2,j,l,,,,,0,12,12,9,,,,,,,,,,,,,prac,2,2,2,negative,negative,l,l,1,0.5652552000246942,83.94550639996305,84.94556180003565,84.94556180003565,None,83.94550639996305,None,83.94550639996305,None,83.94550639996305,None,85.51216051997616,None,85.51216051997616,None,85.51216051997616,None,,,,,,,,,,,,,203,2023-04-26_17h06.57.514,Main,2022.1.1,60.44407048677523,
negative,positive,2,j,l,,,,,0,13,13,15,,,,,,,,,,,,,prac,2,2,2,positive,negative,l,l,1,0.6986886999802664,85.51265789999161,86.51217430003453,86.51217430003453,None,85.51265789999161,None,85.51265789999161,None,85.51265789999161,None,87.21218001996166,None,87.21218001996166,None,87.21218001996166,None,,,,,,,,,,,,,203,2023-04-26_17h06.57.514,Main,2022.1.1,60.44407048677523,
neutral,positive,1,k,k,,,,,0,14,14,4,,,,,,,,,,,,,prac,1,1,1,positive,neutral,k,k,1,0.6493312999373302,87.21621680003591,88.23133910004981,88.214720100048,None,87.21621680003591,None,87.21621680003591,None,87.21621680003591,None,88.86272392005193,None,88.86272392005193,None,88.86272392005193,None,,,,,,,,,,,,,203,2023-04-26_17h06.57.514,Main,2022.1.1,60.44407048677523,
negative,positive,1,j,l,,,,,0,15,15,6,,,,,,,,,,,,,prac,1,1,1,positive,negative,l,l,1,0.747880999930203,88.88125690002926,89.88129569997545,89.86468170001172,None,88.88125690002926,None,88.88125690002926,None,88.88125690002926,None,90.61212911994662,None,90.61212911994662,None,90.61212911994662,None,,,,,,,,,,,,,203,2023-04-26_17h06.57.514,Main,2022.1.1,60.44407048677523,
neutral,negative,2,k,k,,,,,0,16,16,16,,,,,,,,,,,,,prac,1,1,2,negative,neutral,k,k,1,0.7345065999543294,90.61833680002019,91.63127530005295,91.59789309999906,None,90.61833680002019,None,90.61833680002019,None,90.61833680002019,None,92.34783911998383,None,92.34783911998383,None,92.34783911998383,None,,,,,,,,,,,,,203,2023-04-26_17h06.57.514,Main,2022.1.1,60.44407048677523,
neutral,negative,1,k,k,,,,,0,17,17,7,,,,,,,,,,,,,prac,1,1,1,negative,neutral,k,k,1,0.598495899932459,92.35084560001269,93.36452499998268,93.347921699984,None,92.35084560001269,None,92.35084560001269,None,92.35084560001269,None,93.94785311995074,None,93.94785311995074,None,93.94785311995074,None,,,,,,,,,,,,,203,2023-04-26_17h06.57.514,Main,2022.1.1,60.44407048677523,
positive,positive,1,l,j,,,,,1,0,18,2,,,,,,,,,,,,,prac,2,2,1,positive,positive,j,j,1,0.5630517998943105,93.95088999997824,94.96199159999378,94.93941430002451,None,93.95088999997824,None,93.95088999997824,None,93.95088999997824,None,95.51193632001522,None,95.51193632001522,None,95.51193632001522,None,,,,,,,,,,,,,203,2023-04-26_17h06.57.514,Main,2022.1.1,60.44407048677523,
neutral,negative,1,k,k,,,,,1,1,19,7,,,,,,,,,,,,,prac,2,2,1,negative,neutral,k,k,1,0.582031000056304,95.51192109996919,96.5119467000477,96.5119467000477,None,95.51192109996919,None,95.51192109996919,None,95.51192109996919,None,97.09529392004478,None,97.09529392004478,None,97.09529392004478,None,,,,,,,,,,,,,203,2023-04-26_17h06.57.514,Main,2022.1.1,60.44407048677523,
positive,neutral,1,l,j,,,,,1,2,20,8,,,,,,,,,,,,,prac,2,2,1,neutral,positive,j,j,1,0.698621999938041,97.0954638000112,98.0953148000408,98.0953148000408,None,97.0954638000112,None,97.0954638000112,None,97.0954638000112,None,98.79525162002537,None,98.79525162002537,None,98.79525162002537,None,,,,,,,,,,,,,203,2023-04-26_17h06.57.514,Main,2022.1.1,60.44407048677523,
neutral,positive,1,k,k,,,,,1,3,21,4,,,,,,,,,,,,,prac,2,2,1,positive,neutral,k,k,1,0.5825251000933349,98.79562099999748,99.79785440000705,99.79785440000705,None,98.79562099999748,None,98.79562099999748,None,98.79562099999748,None,100.37889422001317,None,100.37889422001317,None,100.37889422001317,None,,,,,,,,,,,,,203,2023-04-26_17h06.57.514,Main,2022.1.1,60.44407048677523,
positive,positive,2,l,j,,,,,1,4,22,11,,,,,,,,,,,,,prac,2,2,2,positive,positive,j,j,1,0.6175236999988556,100.38577890000306,101.39785369997844,101.38137309998274,None,100.38577890000306,None,100.38577890000306,None,100.38577890000306,None,101.99767212001606,None,101.99767212001606,None,101.99767212001606,None,,,,,,,,,,,,,203,2023-04-26_17h06.57.514,Main,2022.1.1,60.44407048677523,
negative,neutral,1,j,l,,,,,1,5,23,3,,,,,,,,,,,,,prac,1,1,1,neutral,negative,l,l,1,0.7151800999417901,102.0006656999467,103.01437790005002,102.9977482999675,None,102.0006656999467,None,102.0006656999467,None,102.0006656999467,None,103.71424912000074,None,103.71424912000074,None,103.71424912000074,None,,,,,,,,,,,,,203,2023-04-26_17h06.57.514,Main,2022.1.1,60.44407048677523,
neutral,neutral,2,k,k,,,,,1,6,24,10,,,,,,,,,,,,,prac,1,1,2,neutral,neutral,k,k,1,0.5817567999474704,103.71727719996125,104.73097519995645,104.71438460005447,None,103.71727719996125,None,103.71727719996125,None,103.71727719996125,None,105.29763382000382,None,105.29763382000382,None,105.29763382000382,None,,,,,,,,,,,,,203,2023-04-26_17h06.57.514,Main,2022.1.1,60.44407048677523,
negative,negative,1,j,l,,,,,1,7,25,0,,,,,,,,,,,,,prac,1,1,1,negative,negative,l,l,1,0.639906800002791,105.30010870005935,106.31428629998118,106.29767949995585,None,105.30010870005935,None,105.30010870005935,None,105.30010870005935,None,106.93838102000299,None,106.93838102000299,None,106.93838102000299,None,,,,,,,,,,,,,203,2023-04-26_17h06.57.514,Main,2022.1.1,60.44407048677523,
positive,negative,2,l,j,,,,,1,8,26,14,,,,,,,,,,,,,prac,1,1,2,negative,positive,j,j,1,1.0752906000707299,106.95393790001981,107.96198639995418,107.93079230003059,None,106.95393790001981,None,106.95393790001981,None,106.95393790001981,None,109.01501112002879,None,109.01501112002879,None,109.01501112002879,None,,,,,,,,,,,,,203,2023-04-26_17h06.57.514,Main,2022.1.1,60.44407048677523,
positive,negative,1,l,j,,,,,1,9,27,5,,,,,,,,,,,,,prac,1,1,1,negative,positive,j,j,1,0.8291000999743119,109.01835799997207,110.03073050000239,110.01416070002597,None,109.01835799997207,None,109.01835799997207,None,109.01835799997207,None,110.84536712002009,None,110.84536712002009,None,110.84536712002009,None,,,,,,,,,,,,,203,2023-04-26_17h06.57.514,Main,2022.1.1,60.44407048677523,
negative,positive,2,j,l,,,,,1,10,28,15,,,,,,,,,,,,,prac,2,2,2,positive,negative,l,l,1,0.764890699996613,110.85124490002636,111.86194590001833,111.84528749994934,None,110.85124490002636,None,110.85124490002636,None,110.85124490002636,None,112.61164912001695,None,112.61164912001695,None,112.61164912001695,None,,,,,,,,,,,,,203,2023-04-26_17h06.57.514,Main,2022.1.1,60.44407048677523,
negative,neutral,2,j,l,,,,,1,11,29,12,,,,,,,,,,,,,prac,2,2,2,neutral,negative,l,l,1,0.6990645000478253,112.61690809996799,113.63064910005778,113.61411470000166,None,112.61690809996799,None,112.61690809996799,None,112.61690809996799,None,114.31190392004791,None,114.31190392004791,None,114.31190392004791,None,,,,,,,,,,,,,203,2023-04-26_17h06.57.514,Main,2022.1.1,60.44407048677523,
neutral,negative,2,k,k,,,,,1,12,30,16,,,,,,,,,,,,,prac,2,2,2,negative,neutral,k,k,1,0.6320486000040546,114.31507699994836,115.33070849999785,115.31188269995619,None,114.31507699994836,None,114.31507699994836,None,114.31507699994836,None,115.94519431996159,None,115.94519431996159,None,115.94519431996159,None,,,,,,,,,,,,,203,2023-04-26_17h06.57.514,Main,2022.1.1,60.44407048677523,
negative,positive,1,j,l,,,,,1,13,31,6,,,,,,,,,,,,,prac,1,1,1,positive,negative,l,l,1,0.632155800005421,115.96399920003023,116.96397859998979,116.94755240005907,None,115.96399920003023,None,115.96399920003023,None,115.96399920003023,None,117.57840361995622,None,117.57840361995622,None,117.57840361995622,None,,,,,,,,,,,,,203,2023-04-26_17h06.57.514,Main,2022.1.1,60.44407048677523,
negative,negative,2,j,l,,,,,1,14,32,9,,,,,,,,,,,,,prac,1,1,2,negative,negative,l,l,1,0.7151972999563441,117.5841020999942,118.59729800000787,118.58075630001258,None,117.5841020999942,None,117.5841020999942,None,117.5841020999942,None,119.29511582003906,None,119.29511582003906,None,119.29511582003906,None,,,,,,,,,,,,,203,2023-04-26_17h06.57.514,Main,2022.1.1,60.44407048677523,
neutral,positive,2,k,k,,,,,1,15,33,13,,,,,,,,,,,,,prac,1,1,2,positive,neutral,k,k,1,0.6184970999602228,119.30125949997455,120.31393589999061,120.29735100001562,None,119.30125949997455,None,119.30125949997455,None,119.30125949997455,None,120.91400661997031,None,120.91400661997031,None,120.91400661997031,None,,,,,,,,,,,,,203,2023-04-26_17h06.57.514,Main,2022.1.1,60.44407048677523,
positive,neutral,2,l,j,,,,,1,16,34,17,,,,,,,,,,,,,prac,2,2,2,neutral,positive,j,j,1,0.5288907999638468,120.91798010002822,121.9281336000422,121.91145639994647,None,120.91798010002822,None,120.91798010002822,None,120.91798010002822,None,122.44496301994658,None,122.44496301994658,None,122.44496301994658,None,,,,,,,,,,,,,203,2023-04-26_17h06.57.514,Main,2022.1.1,60.44407048677523,
neutral,neutral,1,k,k,,,,,1,17,35,1,,,,,,,,,,,,,prac,2,2,1,neutral,neutral,k,k,1,0.5676249000243843,122.44473999994807,123.44483559997752,123.44483559997752,None,122.44473999994807,None,122.44473999994807,None,122.44473999994807,None,124.01401171998586,None,124.01401171998586,None,124.01401171998586,None,,,,,,,,,,,,,203,2023-04-26_17h06.57.514,Main,2022.1.1,60.44407048677523,
,,,,,,,,,,,,,,,,,,,,,,,,,,,,,,,,,,,,,,,,,,,,,,,,,,,124.01395060005598,None,None,,,,,,,,,,203,2023-04-26_17h06.57.514,Main,2022.1.1,60.44407048677523,
,,,,,,,,,,,,,,,,,,,,,,,,,,,,,,,,,,,,,,,,,,,,,,,,,,,,,,0.69722223,-0.2,1,0,0,0.011120519833639264,None,,,203,2023-04-26_17h06.57.514,Main,2022.1.1,60.44407048677523,
negative,negative,2,j,l,,,,,,,,,0,0,0,9,,,,,,,128.89717230002861,None,main,2,2,2,negative,negative,l,l,1,0.594498599995859,130.90189400000963,131.91125340003055,131.89458590000868,None,130.90189400000963,None,130.90189400000963,None,130.90189400000963,None,132.49455182000528,None,132.49455182000528,None,132.49455182000528,None,,,,,,,,,,,,,203,2023-04-26_17h06.57.514,Main,2022.1.1,60.44407048677523,
negative,neutral,2,j,l,,,,,,,,,0,1,1,12,,,,,,,,,main,2,2,2,neutral,negative,l,l,1,0.5628084000200033,132.49723690003157,133.51126449997537,133.49459450005088,None,132.49723690003157,None,132.49723690003157,None,132.49723690003157,None,134.06123651997186,None,134.06123651997186,None,134.06123651997186,None,,,,,,,,,,,,,203,2023-04-26_17h06.57.514,Main,2022.1.1,60.44407048677523,
neutral,neutral,1,k,k,,,,,,,,,0,2,2,1,,,,,,,,,main,1,1,1,neutral,neutral,k,k,1,0.581818800070323,134.0616254999768,135.06124119996093,135.06124119996093,None,134.0616254999768,None,134.0616254999768,None,134.0616254999768,None,135.6445706200553,None,135.6445706200553,None,135.6445706200553,None,,,,,,,,,,,,,203,2023-04-26_17h06.57.514,Main,2022.1.1,60.44407048677523,
neutral,negative,1,k,k,,,,,,,,,0,3,3,7,,,,,,,,,main,2,2,1,negative,neutral,k,k,1,0.5176948000444099,135.65028830000665,136.6637064999668,136.6471139000496,None,135.65028830000665,None,135.65028830000665,None,135.65028830000665,None,137.16355091999284,None,137.16355091999284,None,137.16355091999284,None,,,,,,,,,,,,,203,2023-04-26_17h06.57.514,Main,2022.1.1,60.44407048677523,
neutral,positive,2,k,k,,,,,,,,,0,4,4,13,,,,,,,,,main,1,1,2,positive,neutral,k,k,1,0.5818018999416381,137.16726260003634,138.18033730005845,138.16372579999734,None,137.16726260003634,None,137.16726260003634,None,137.16726260003634,None,138.74696692000143,None,138.74696692000143,None,138.74696692000143,None,,,,,,,,,,,,,203,2023-04-26_17h06.57.514,Main,2022.1.1,60.44407048677523,
neutral,neutral,2,k,k,,,,,,,,,0,5,5,10,,,,,,,,,main,2,2,2,neutral,neutral,k,k,1,0.5821431999793276,138.75040090002585,139.763650399982,139.7470368000213,None,138.75040090002585,None,138.75040090002585,None,138.75040090002585,None,140.33090292001143,None,140.33090292001143,None,140.33090292001143,None,,,,,,,,,,,,,203,2023-04-26_17h06.57.514,Main,2022.1.1,60.44407048677523,
positive,negative,2,l,j,,,,,,,,,0,6,6,14,,,,,,,,,main,2,2,2,negative,positive,j,j,1,0.6449701000237837,140.3350056000054,141.3470076000085,141.33043269999325,None,140.3350056000054,None,140.3350056000054,None,140.3350056000054,None,141.97779061996843,None,141.97779061996843,None,141.97779061996843,None,,,,,,,,,,,,,203,2023-04-26_17h06.57.514,Main,2022.1.1,60.44407048677523,
negative,positive,2,j,l,,,,,,,,,0,7,7,15,,,,,,,,,main,1,1,2,positive,negative,l,l,1,0.6486944999778643,141.98339399998076,142.99700770003255,142.96364730002824,None,141.98339399998076,None,141.98339399998076,None,141.98339399998076,None,143.62762772003188,None,143.62762772003188,None,143.62762772003188,None,,,,,,,,,,,,,203,2023-04-26_17h06.57.514,Main,2022.1.1,60.44407048677523,
negative,positive,1,j,l,,,,,,,,,0,8,8,6,,,,,,,,,main,2,2,1,positive,negative,l,l,1,0.6161486000055447,143.62788229994476,144.62767419999,144.62767419999,None,143.62788229994476,None,143.62788229994476,None,143.62788229994476,None,145.2443168199621,None,145.2443168199621,None,145.2443168199621,None,,,,,,,,,,,,,203,2023-04-26_17h06.57.514,Main,2022.1.1,60.44407048677523,
positive,positive,1,l,j,,,,,,,,,0,9,9,2,,,,,,,,,main,1,1,1,positive,positive,j,j,1,0.6140407000202686,145.2460940000601,146.26104330003727,146.24437229998875,None,145.2460940000601,None,145.2460940000601,None,145.2460940000601,None,146.86099741994403,None,146.86099741994403,None,146.86099741994403,None,,,,,,,,,,,,,203,2023-04-26_17h06.57.514,Main,2022.1.1,60.44407048677523,
positive,negative,1,l,j,,,,,,,,,0,10,10,5,,,,,,,,,main,2,2,1,negative,positive,j,j,1,0.5651804000372067,146.8619646000443,147.86101100000087,147.86101100000087,None,146.8619646000443,None,146.8619646000443,None,146.8619646000443,None,148.4277533199871,None,148.4277533199871,None,148.4277533199871,None,,,,,,,,,,,,,203,2023-04-26_17h06.57.514,Main,2022.1.1,60.44407048677523,
positive,positive,2,l,j,,,,,,,,,0,11,11,11,,,,,,,,,main,2,2,2,positive,positive,j,j,1,0.6976883000461385,148.43495110003278,149.44684400002006,149.43023820000235,None,148.43495110003278,None,148.43495110003278,None,148.43495110003278,None,150.12790951996575,None,150.12790951996575,None,150.12790951996575,None,,,,,,,,,,,,,203,2023-04-26_17h06.57.514,Main,2022.1.1,60.44407048677523,
neutral,positive,1,k,k,,,,,,,,,0,12,12,4,,,,,,,,,main,2,2,1,positive,neutral,k,k,1,0.6174970999127254,150.13477590004914,151.14668550004717,151.1301478999667,None,150.13477590004914,None,150.13477590004914,None,150.13477590004914,None,151.74673862000927,None,151.74673862000927,None,151.74673862000927,None,,,,,,,,,,,,,203,2023-04-26_17h06.57.514,Main,2022.1.1,60.44407048677523,
neutral,negative,2,k,k,,,,,,,,,0,13,13,16,,,,,,,,,main,1,1,2,negative,neutral,k,k,1,0.562662799959071,151.74964880000334,152.76337319996674,152.7468041999964,None,151.74964880000334,None,151.74964880000334,None,151.74964880000334,None,153.31121152001433,None,153.31121152001433,None,153.31121152001433,None,,,,,,,,,,,,,203,2023-04-26_17h06.57.514,Main,2022.1.1,60.44407048677523,
negative,negative,1,j,l,,,,,,,,,0,14,14,0,,,,,,,,,main,2,2,1,negative,negative,l,l,1,0.5842450000345707,153.3165403000312,154.32999810006004,154.29670049995184,None,153.3165403000312,None,153.3165403000312,None,153.3165403000312,None,154.8965892200591,None,154.8965892200591,None,154.8965892200591,None,,,,,,,,,,,,,203,2023-04-26_17h06.57.514,Main,2022.1.1,60.44407048677523,
positive,neutral,2,l,j,,,,,,,,,0,15,15,17,,,,,,,,,main,2,2,2,neutral,positive,j,j,1,0.6959591000340879,154.89986720005982,155.91077620000578,155.8941336000571,None,154.89986720005982,None,154.89986720005982,None,154.89986720005982,None,156.59408272001892,None,156.59408272001892,None,156.59408272001892,None,,,,,,,,,,,,,203,2023-04-26_17h06.57.514,Main,2022.1.1,60.44407048677523,
positive,neutral,1,l,j,,,,,,,,,0,16,16,8,,,,,,,,,main,2,2,1,neutral,positive,j,j,1,0.6483727999730036,156.5940821999684,157.59412679995876,157.59412679995876,None,156.5940821999684,None,156.5940821999684,None,156.5940821999684,None,158.24410561998374,None,158.24410561998374,None,158.24410561998374,None,,,,,,,,,,,,,203,2023-04-26_17h06.57.514,Main,2022.1.1,60.44407048677523,
negative,neutral,1,j,l,,,,,,,,,0,17,17,3,,,,,,,,,main,1,1,1,neutral,negative,l,l,1,0.7316016000695527,158.24433120002504,159.24415709997993,159.24415709997993,None,158.24433120002504,None,158.24433120002504,None,158.24433120002504,None,159.97740721995942,None,159.97740721995942,None,159.97740721995942,None,,,,,,,,,,,,,203,2023-04-26_17h06.57.514,Main,2022.1.1,60.44407048677523,
neutral,positive,1,k,k,,,,,,,,,1,0,18,4,,,,,,,,,main,1,1,1,positive,neutral,k,k,1,0.518534200033173,159.98131800000556,160.99656939995475,160.96332460001577,None,159.98131800000556,None,159.98131800000556,None,159.98131800000556,None,161.49660512004047,None,161.49660512004047,None,161.49660512004047,None,,,,,,,,,,,,,203,2023-04-26_17h06.57.514,Main,2022.1.1,60.44407048677523,
positive,neutral,1,l,j,,,,,,,,,1,1,19,8,,,,,,,,,main,2,2,1,neutral,positive,j,j,1,0.6640445999801159,161.50093029998243,162.51310830004513,162.4965212000534,None,161.50093029998243,None,161.50093029998243,None,161.50093029998243,None,163.16315612001344,None,163.16315612001344,None,163.16315612001344,None,,,,,,,,,,,,,203,2023-04-26_17h06.57.514,Main,2022.1.1,60.44407048677523,
neutral,neutral,1,k,k,,,,,,,,,1,2,20,1,,,,,,,,,main,1,1,1,neutral,neutral,k,k,1,0.8651698000030592,163.1660000999691,164.17979169997852,164.16319830005523,None,163.1660000999691,None,163.1660000999691,None,163.1660000999691,None,165.02992571997456,None,165.02992571997456,None,165.02992571997456,None,,,,,,,,,,,,,203,2023-04-26_17h06.57.514,Main,2022.1.1,60.44407048677523,
positive,negative,2,l,j,,,,,,,,,1,3,21,14,,,,,,,,,main,1,1,2,negative,positive,j,j,1,0.712698100018315,165.0331209000433,166.04641690000426,166.02982579998206,None,165.0331209000433,None,165.0331209000433,None,165.0331209000433,None,166.74395441999658,None,166.74395441999658,None,166.74395441999658,None,,,,,,,,,,,,,203,2023-04-26_17h06.57.514,Main,2022.1.1,60.44407048677523,
positive,neutral,2,l,j,,,,,,,,,1,4,22,17,,,,,,,,,main,1,1,2,neutral,positive,j,j,1,0.6305208000121638,166.75447479996365,167.76053450000472,167.74385570001323,None,166.75447479996365,None,166.75447479996365,None,166.75447479996365,None,168.37716992003843,None,168.37716992003843,None,168.37716992003843,None,,,,,,,,,,,,,203,2023-04-26_17h06.57.514,Main,2022.1.1,60.44407048677523,
negative,positive,2,j,l,,,,,,,,,1,5,23,15,,,,,,,,,main,1,1,2,positive,negative,l,l,1,0.6487903000088409,168.3784479999449,169.3939165000338,169.37725559994578,None,168.3784479999449,None,168.3784479999449,None,168.3784479999449,None,170.02718202003743,None,170.02718202003743,None,170.02718202003743,None,,,,,,,,,,,,,203,2023-04-26_17h06.57.514,Main,2022.1.1,60.44407048677523,
neutral,negative,1,k,k,,,,,,,,,1,6,24,7,,,,,,,,,main,1,1,1,negative,neutral,k,k,1,0.5480541000142694,170.02805530000478,171.02722489996813,171.02722489996813,None,170.02805530000478,None,170.02805530000478,None,170.02805530000478,None,171.57718321997672,None,171.57718321997672,None,171.57718321997672,None,,,,,,,,,,,,,203,2023-04-26_17h06.57.514,Main,2022.1.1,60.44407048677523,
positive,negative,1,l,j,,,,,,,,,1,7,25,5,,,,,,,,,main,1,1,1,negative,positive,j,j,1,0.6011381999123842,171.58140569995157,172.59631649998482,172.56309409998357,None,171.58140569995157,None,171.58140569995157,None,171.58140569995157,None,173.17973392005078,None,173.17973392005078,None,173.17973392005078,None,,,,,,,,,,,,,203,2023-04-26_17h06.57.514,Main,2022.1.1,60.44407048677523,
positive,positive,2,l,j,,,,,,,,,1,8,26,11,,,,,,,,,main,2,2,2,positive,positive,j,j,1,0.5818704999983311,173.18446959997527,174.19630740000866,174.17970440001227,None,173.18446959997527,None,173.18446959997527,None,173.18446959997527,None,174.76320031997747,None,174.76320031997747,None,174.76320031997747,None,,,,,,,,,,,,,203,2023-04-26_17h06.57.514,Main,2022.1.1,60.44407048677523,
negative,neutral,2,j,l,,,,,,,,,1,9,27,12,,,,,,,,,main,2,2,2,neutral,negative,l,l,1,0.6293350000632927,174.76697490003426,175.779650600045,175.76306010002736,None,174.76697490003426,None,174.76697490003426,None,174.76697490003426,None,176.3939504199894,None,176.3939504199894,None,176.3939504199894,None,,,,,,,,,,,,,203,2023-04-26_17h06.57.514,Main,2022.1.1,60.44407048677523,
negative,negative,1,j,l,,,,,,,,,1,10,28,0,,,,,,,,,main,2,2,1,negative,negative,l,l,1,0.6493028999539092,176.402623699978,177.4129237999441,177.3963254999835,None,176.402623699978,None,176.402623699978,None,176.402623699978,None,178.04620531995315,None,178.04620531995315,None,178.04620531995315,None,,,,,,,,,,,,,203,2023-04-26_17h06.57.514,Main,2022.1.1,60.44407048677523,
neutral,neutral,2,k,k,,,,,,,,,1,11,29,10,,,,,,,,,main,1,1,2,neutral,neutral,k,k,1,0.5126328999176621,178.05029419995844,179.06287060002796,179.04626500001177,None,178.05029419995844,None,178.05029419995844,None,178.05029419995844,None,179.56031032002065,None,179.56031032002065,None,179.56031032002065,None,,,,,,,,,,,,,203,2023-04-26_17h06.57.514,Main,2022.1.1,60.44407048677523,
positive,positive,1,l,j,,,,,,,,,1,12,30,2,,,,,,,,,main,2,2,1,positive,positive,j,j,1,0.5482824000064284,179.56042550003622,180.5603197000455,180.5603197000455,None,179.56042550003622,None,179.56042550003622,None,179.56042550003622,None,181.11025892002507,None,181.11025892002507,None,181.11025892002507,None,,,,,,,,,,,,,203,2023-04-26_17h06.57.514,Main,2022.1.1,60.44407048677523,
negative,negative,2,j,l,,,,,,,,,1,13,31,9,,,,,,,,,main,1,1,2,negative,negative,l,l,1,0.6651183000067249,181.11024419998284,182.11031579994597,182.11031579994597,None,181.11024419998284,None,181.11024419998284,None,181.11024419998284,None,182.77693412001244,None,182.77693412001244,None,182.77693412001244,None,,,,,,,,,,,,,203,2023-04-26_17h06.57.514,Main,2022.1.1,60.44407048677523,
neutral,negative,2,k,k,,,,,,,,,1,14,32,16,,,,,,,,,main,2,2,2,negative,neutral,k,k,1,0.5819006999954581,182.77754240005743,183.77699210005812,183.77699210005812,None,182.77754240005743,None,182.77754240005743,None,182.77754240005743,None,184.36028311997651,None,184.36028311997651,None,184.36028311997651,None,,,,,,,,,,,,,203,2023-04-26_17h06.57.514,Main,2022.1.1,60.44407048677523,
neutral,positive,2,k,k,,,,,,,,,1,15,33,13,,,,,,,,,main,1,1,2,positive,neutral,k,k,1,0.5509096999885514,184.36617729999125,185.37949049996678,185.36285839998163,None,184.36617729999125,None,184.36617729999125,None,184.36617729999125,None,185.91273102003615,None,185.91273102003615,None,185.91273102003615,None,,,,,,,,,,,,,203,2023-04-26_17h06.57.514,Main,2022.1.1,60.44407048677523,
negative,neutral,1,j,l,,,,,,,,,1,16,34,3,,,,,,,,,main,1,1,1,neutral,negative,l,l,1,0.6790598999941722,185.91597700002603,186.9298932000529,186.91278150002472,None,185.91597700002603,None,185.91597700002603,None,185.91597700002603,None,187.59358022003434,None,187.59358022003434,None,187.59358022003434,None,,,,,,,,,,,,,203,2023-04-26_17h06.57.514,Main,2022.1.1,60.44407048677523,
negative,positive,1,j,l,,,,,,,,,1,17,35,6,,,,,,,,,main,2,2,1,positive,negative,l,l,1,0.6822329999413341,187.59805939998478,188.61270850000437,188.5960441000061,None,187.59805939998478,None,187.59805939998478,None,187.59805939998478,None,189.27706531996373,None,189.27706531996373,None,189.27706531996373,None,,,,,,,,,,,,,203,2023-04-26_17h06.57.514,Main,2022.1.1,60.44407048677523,
positive,negative,2,l,j,,,,,,,,,2,0,36,14,,,,,,,,,main,1,1,2,negative,positive,j,j,1,0.5530087999068201,189.28347649995703,190.29595539998263,190.27936040004715,None,189.28347649995703,None,189.28347649995703,None,189.28347649995703,None,190.8268891199492,None,190.8268891199492,None,190.8268891199492,None,,,,,,,,,,,,,203,2023-04-26_17h06.57.514,Main,2022.1.1,60.44407048677523,
negative,neutral,2,j,l,,,,,,,,,2,1,37,12,,,,,,,,,main,2,2,2,neutral,negative,l,l,1,0.6091502000344917,190.83621860004496,191.84339870000258,191.82672110002022,None,190.83621860004496,None,190.83621860004496,None,190.83621860004496,None,192.4434696199838,None,192.4434696199838,None,192.4434696199838,None,,,,,,,,,,,,,203,2023-04-26_17h06.57.514,Main,2022.1.1,60.44407048677523,
negative,positive,2,j,l,,,,,,,,,2,2,38,15,,,,,,,,,main,2,2,2,positive,negative,l,l,1,0.5484907999634743,192.4436884999741,193.44341790000908,193.44341790000908,None,192.4436884999741,None,192.4436884999741,None,192.4436884999741,None,193.9936700200429,None,193.9936700200429,None,193.9936700200429,None,,,,,,,,,,,,,203,2023-04-26_17h06.57.514,Main,2022.1.1,60.44407048677523,
positive,positive,1,l,j,,,,,,,,,2,3,39,2,,,,,,,,,main,1,1,1,positive,positive,j,j,1,0.697905799956061,193.9953309999546,195.0101131000556,194.99344120000023,None,193.9953309999546,None,193.9953309999546,None,193.9953309999546,None,195.69338702005334,None,195.69338702005334,None,195.69338702005334,None,,,,,,,,,,,,,203,2023-04-26_17h06.57.514,Main,2022.1.1,60.44407048677523,
neutral,positive,2,k,k,,,,,,,,,2,4,40,13,,,,,,,,,main,1,1,2,positive,neutral,k,k,1,0.5659875000128523,195.6988251999719,196.71251410001423,196.69595600001048,None,195.6988251999719,None,195.6988251999719,None,195.6988251999719,None,197.2609074199805,None,197.2609074199805,None,197.2609074199805,None,,,,,,,,,,,,,203,2023-04-26_17h06.57.514,Main,2022.1.1,60.44407048677523,
neutral,negative,2,k,k,,,,,,,,,2,5,41,16,,,,,,,,,main,1,1,2,negative,neutral,k,k,1,0.5834043000359088,197.26710339996498,198.27915139996912,198.26252740004566,None,197.26710339996498,None,197.26710339996498,None,197.26710339996498,None,198.8457875199616,None,198.8457875199616,None,198.8457875199616,None,,,,,,,,,,,,,203,2023-04-26_17h06.57.514,Main,2022.1.1,60.44407048677523,
positive,negative,1,l,j,,,,,,,,,2,6,42,5,,,,,,,,,main,1,1,1,negative,positive,j,j,1,0.5628660999936983,198.8492036999669,199.86247010005172,199.84586480003782,None,198.8492036999669,None,198.8492036999669,None,198.8492036999669,None,200.41056441995315,None,200.41056441995315,None,200.41056441995315,None,,,,,,,,,,,,,203,2023-04-26_17h06.57.514,Main,2022.1.1,60.44407048677523,
negative,negative,2,j,l,,,,,,,,,2,7,43,9,,,,,,,,,main,2,2,2,negative,negative,l,l,1,0.6165279999841005,200.41712550004013,201.42909860005602,201.41252370004077,None,200.41712550004013,None,200.41712550004013,None,200.41712550004013,None,202.02918032000306,None,202.02918032000306,None,202.02918032000306,None,,,,,,,,,,,,,203,2023-04-26_17h06.57.514,Main,2022.1.1,60.44407048677523,
neutral,negative,1,k,k,,,,,,,,,2,8,44,7,,,,,,,,,main,1,1,1,negative,neutral,k,k,1,0.5122598999878392,202.03247910004575,203.03200130001642,203.0255239000544,None,202.03247910004575,None,202.03247910004575,None,202.03247910004575,None,203.54314761995337,None,203.54314761995337,None,203.54314761995337,None,,,,,,,,,,,,,203,2023-04-26_17h06.57.514,Main,2022.1.1,60.44407048677523,
positive,neutral,2,l,j,,,,,,,,,2,9,45,17,,,,,,,,,main,1,1,2,neutral,positive,j,j,1,1.0329228000482544,203.54327809996903,204.54318959999364,204.54318959999364,None,203.54327809996903,None,203.54327809996903,None,203.54327809996903,None,205.57668971994426,None,205.57668971994426,None,205.57668971994426,None,,,,,,,,,,,,,203,2023-04-26_17h06.57.514,Main,2022.1.1,60.44407048677523,
neutral,neutral,1,k,k,,,,,,,,,2,10,46,1,,,,,,,,,main,2,2,1,neutral,neutral,k,k,1,0.5877252999925986,205.5835325999651,206.59570720000193,206.57905659999233,None,205.5835325999651,None,205.5835325999651,None,205.5835325999651,None,207.1628804200096,None,207.1628804200096,None,207.1628804200096,None,,,,,,,,,,,,,203,2023-04-26_17h06.57.514,Main,2022.1.1,60.44407048677523,
positive,positive,2,l,j,,,,,,,,,2,11,47,11,,,,,,,,,main,2,2,2,positive,positive,j,j,1,0.5738009000197053,207.17156549997162,208.17893369996455,208.16238019999582,None,207.17156549997162,None,207.17156549997162,None,207.17156549997162,None,208.74346321998163,None,208.74346321998163,None,208.74346321998163,None,,,,,,,,,,,,,203,2023-04-26_17h06.57.514,Main,2022.1.1,60.44407048677523,
negative,neutral,1,j,l,,,,,,,,,2,12,48,3,,,,,,,,,main,2,2,1,neutral,negative,l,l,1,0.6983765000477433,208.7498644000152,209.76226139999926,209.74564340000506,None,208.7498644000152,None,208.7498644000152,None,208.7498644000152,None,210.44343821997754,None,210.44343821997754,None,210.44343821997754,None,,,,,,,,,,,,,203,2023-04-26_17h06.57.514,Main,2022.1.1,60.44407048677523,
neutral,positive,1,k,k,,,,,,,,,2,13,49,4,,,,,,,,,main,2,2,1,positive,neutral,k,k,1,0.6339818000560626,210.4490915000206,211.4622173999669,211.44563890004065,None,210.4490915000206,None,210.4490915000206,None,210.4490915000206,None,212.0789136199979,None,212.0789136199979,None,212.0789136199979,None,,,,,,,,,,,,,203,2023-04-26_17h06.57.514,Main,2022.1.1,60.44407048677523,
negative,negative,1,j,l,,,,,,,,,2,14,50,0,,,,,,,,,main,2,2,1,negative,negative,l,l,1,0.6794657999416813,212.08282440004405,213.10185750003438,213.07934249995742,None,212.08282440004405,None,212.08282440004405,None,212.08282440004405,None,213.75980631997808,None,213.75980631997808,None,213.75980631997808,None,,,,,,,,,,,,,203,2023-04-26_17h06.57.514,Main,2022.1.1,60.44407048677523,
neutral,neutral,2,k,k,,,,,,,,,2,15,51,10,,,,,,,,,main,1,1,2,neutral,neutral,k,k,1,0.5648775000590831,213.75974640005734,214.75965959997848,214.75965959997848,None,213.75974640005734,None,213.75974640005734,None,213.75974640005734,None,215.32634872002527,None,215.32634872002527,None,215.32634872002527,None,,,,,,,,,,,,,203,2023-04-26_17h06.57.514,Main,2022.1.1,60.44407048677523,
negative,positive,1,j,l,,,,,,,,,2,16,52,6,,,,,,,,,main,1,1,1,positive,negative,l,l,1,0.7010007000062615,215.33030979998875,216.34545979998074,216.32887209998444,None,215.33030979998875,None,215.33030979998875,None,215.33030979998875,None,217.0287991200108,None,217.0287991200108,None,217.0287991200108,None,,,,,,,,,,,,,203,2023-04-26_17h06.57.514,Main,2022.1.1,60.44407048677523,
positive,neutral,1,l,j,,,,,,,,,2,17,53,8,,,,,,,,,main,2,2,1,neutral,positive,j,j,1,0.7125694000860676,217.0323118000524,218.04546759999357,218.02887429995462,None,217.0323118000524,None,217.0323118000524,None,217.0323118000524,None,218.7432742200559,None,218.7432742200559,None,218.7432742200559,None,,,,,,,,,,,,,203,2023-04-26_17h06.57.514,Main,2022.1.1,60.44407048677523,
positive,positive,2,l,j,,,,,,,,,3,0,54,11,,,,,,,,,main,2,2,2,positive,positive,j,j,1,0.70081680000294,218.7495307000354,219.76205889997073,219.74546310002916,None,218.7495307000354,None,218.7495307000354,None,218.7495307000354,None,220.44541442000772,None,220.44541442000772,None,220.44541442000772,None,,,,,,,,,,,,,203,2023-04-26_17h06.57.514,Main,2022.1.1,60.44407048677523,
neutral,neutral,1,k,k,,,,,,,,,3,1,55,1,,,,,,,,,main,2,2,1,neutral,neutral,k,k,1,0.5817031000042334,220.44945229997393,221.46206669998355,221.44545819994528,None,220.44945229997393,None,220.44945229997393,None,220.44945229997393,None,222.02868831998202,None,222.02868831998202,None,222.02868831998202,None,,,,,,,,,,,,,203,2023-04-26_17h06.57.514,Main,2022.1.1,60.44407048677523,
negative,positive,2,j,l,,,,,,,,,3,2,56,15,,,,,,,,,main,2,2,2,positive,negative,l,l,1,0.7126365000149235,222.0318966000341,223.04290050000418,223.02610819996335,None,222.0318966000341,None,222.0318966000341,None,222.0318966000341,None,223.7427800200181,None,223.7427800200181,None,223.7427800200181,None,,,,,,,,,,,,,203,2023-04-26_17h06.57.514,Main,2022.1.1,60.44407048677523,
negative,positive,1,j,l,,,,,,,,,3,3,57,6,,,,,,,,,main,2,2,1,positive,negative,l,l,1,0.6153949999716133,223.74285819998477,224.74280829995405,224.74280829995405,None,223.74285819998477,None,223.74285819998477,None,223.74285819998477,None,225.3594870199682,None,225.3594870199682,None,225.3594870199682,None,,,,,,,,,,,,,203,2023-04-26_17h06.57.514,Main,2022.1.1,60.44407048677523,
negative,negative,2,j,l,,,,,,,,,3,4,58,9,,,,,,,,,main,2,2,2,negative,negative,l,l,1,0.6169310000259429,225.36332180001773,226.37858410004992,226.36199480004143,None,225.36332180001773,None,225.36332180001773,None,225.36332180001773,None,226.97855481996666,None,226.97855481996666,None,226.97855481996666,None,,,,,,,,,,,,,203,2023-04-26_17h06.57.514,Main,2022.1.1,60.44407048677523,
positive,positive,1,l,j,,,,,,,,,3,5,59,2,,,,,,,,,main,2,2,1,positive,positive,j,j,1,0.5796217999886721,226.98259220004547,227.9952274999814,227.9786626000423,None,226.98259220004547,None,226.98259220004547,None,226.98259220004547,None,228.5596804199973,None,228.5596804199973,None,228.5596804199973,None,,,,,,,,,,,,,203,2023-04-26_17h06.57.514,Main,2022.1.1,60.44407048677523,
positive,negative,2,l,j,,,,,,,,,3,6,60,14,,,,,,,,,main,2,2,2,negative,positive,j,j,1,0.6682249000295997,228.56626919994596,229.57847700000275,229.5619157999754,None,228.56626919994596,None,228.56626919994596,None,228.56626919994596,None,230.2284489199752,None,230.2284489199752,None,230.2284489199752,None,,,,,,,,,,,,,203,2023-04-26_17h06.57.514,Main,2022.1.1,60.44407048677523,
negative,neutral,1,j,l,,,,,,,,,3,7,61,3,,,,,,,,,main,2,2,1,neutral,negative,l,l,1,0.6308908000355586,230.23244289995637,231.24514739995357,231.2285257000476,None,230.23244289995637,None,230.23244289995637,None,230.23244289995637,None,231.8617341199657,None,231.8617341199657,None,231.8617341199657,None,,,,,,,,,,,,,203,2023-04-26_17h06.57.514,Main,2022.1.1,60.44407048677523,
neutral,negative,1,k,k,,,,,,,,,3,8,62,7,,,,,,,,,main,1,1,1,negative,neutral,k,k,1,0.612518300069496,231.86498790001497,232.8784157000482,232.86186790000647,None,231.86498790001497,None,231.86498790001497,None,231.86498790001497,None,233.47589032005052,None,233.47589032005052,None,233.47589032005052,None,,,,,,,,,,,,,203,2023-04-26_17h06.57.514,Main,2022.1.1,60.44407048677523,
positive,negative,1,l,j,,,,,,,,,3,9,63,5,,,,,,,,,main,1,1,1,negative,positive,j,j,1,0.6318065000232309,233.47608239995316,234.47610910004005,234.47610910004005,None,233.47608239995316,None,233.47608239995316,None,233.47608239995316,None,235.10928472005762,None,235.10928472005762,None,235.10928472005762,None,,,,,,,,,,,,,203,2023-04-26_17h06.57.514,Main,2022.1.1,60.44407048677523,
positive,neutral,1,l,j,,,,,,,,,3,10,64,8,,,,,,,,,main,2,2,1,neutral,positive,j,j,1,0.7153113000094891,235.1134626000421,236.128527999972,236.11202959995717,None,235.1134626000421,None,235.1134626000421,None,235.1134626000421,None,236.82623641998507,None,236.82623641998507,None,236.82623641998507,None,,,,,,,,,,,,,203,2023-04-26_17h06.57.514,Main,2022.1.1,60.44407048677523,
negative,negative,1,j,l,,,,,,,,,3,11,65,0,,,,,,,,,main,1,1,1,negative,negative,l,l,1,0.6156063000671566,236.83207040000707,237.84503179998137,237.81173810001928,None,236.83207040000707,None,236.83207040000707,None,236.83207040000707,None,238.4431555200368,None,238.4431555200368,None,238.4431555200368,None,,,,,,,,,,,,,203,2023-04-26_17h06.57.514,Main,2022.1.1,60.44407048677523,
negative,neutral,2,j,l,,,,,,,,,3,12,66,12,,,,,,,,,main,2,2,2,neutral,negative,l,l,1,0.6321502999635413,238.44917909998912,239.4615946999984,239.44499900005758,None,238.44917909998912,None,238.44917909998912,None,238.44917909998912,None,240.07593091998714,None,240.07593091998714,None,240.07593091998714,None,,,,,,,,,,,,,203,2023-04-26_17h06.57.514,Main,2022.1.1,60.44407048677523,
neutral,positive,2,k,k,,,,,,,,,3,13,67,13,,,,,,,,,main,2,2,2,positive,neutral,k,k,1,0.6164568000240251,240.08289960003458,241.09487230004743,241.07827000005636,None,240.08289960003458,None,240.08289960003458,None,240.08289960003458,None,241.69506071999203,None,241.69506071999203,None,241.69506071999203,None,,,,,,,,,,,,,203,2023-04-26_17h06.57.514,Main,2022.1.1,60.44407048677523,
neutral,positive,1,k,k,,,,,,,,,3,14,68,4,,,,,,,,,main,1,1,1,positive,neutral,k,k,1,0.6122315999818966,241.69811470003333,242.70316619996447,242.70316619996447,None,241.69811470003333,None,241.69811470003333,None,241.69811470003333,None,243.30898302004206,None,243.30898302004206,None,243.30898302004206,None,,,,,,,,,,,,,203,2023-04-26_17h06.57.514,Main,2022.1.1,60.44407048677523,
neutral,neutral,2,k,k,,,,,,,,,3,15,69,10,,,,,,,,,main,2,2,2,neutral,neutral,k,k,1,0.5823810999281704,243.3090178000275,244.30902799998876,244.30902799998876,None,243.3090178000275,None,243.3090178000275,None,243.3090178000275,None,244.8923706199508,None,244.8923706199508,None,244.8923706199508,None,,,,,,,,,,,,,203,2023-04-26_17h06.57.514,Main,2022.1.1,60.44407048677523,
neutral,negative,2,k,k,,,,,,,,,3,16,70,16,,,,,,,,,main,2,2,2,negative,neutral,k,k,1,0.5645373999141157,244.89443480002228,245.90961570001673,245.89240879996214,None,244.89443480002228,None,244.89443480002228,None,244.89443480002228,None,246.4590087200282,None,246.4590087200282,None,246.4590087200282,None,,,,,,,,,,,,,203,2023-04-26_17h06.57.514,Main,2022.1.1,60.44407048677523,
positive,neutral,2,l,j,,,,,,,,,3,17,71,17,,,,,,,,,main,2,2,2,neutral,positive,j,j,1,0.6169536999659613,246.46072780003306,247.47589310002513,247.46149100002367,None,246.46072780003306,None,246.46072780003306,None,246.46072780003306,None,248.07814142005518,None,248.07814142005518,None,248.07814142005518,None,,,,,,,,,,,,,203,2023-04-26_17h06.57.514,Main,2022.1.1,60.44407048677523,
positive,positive,2,l,j,,,,,,,,,4,0,72,11,,,,,,,,,main,1,1,2,positive,positive,j,j,1,0.6019824999384582,248.08158230001573,249.09480570000596,249.0782241000561,None,248.08158230001573,None,248.08158230001573,None,248.08158230001573,None,249.6795478200307,None,249.6795478200307,None,249.6795478200307,None,,,,,,,,,,,,,203,2023-04-26_17h06.57.514,Main,2022.1.1,60.44407048677523,
negative,negative,1,j,l,,,,,,,,,4,1,73,0,,,,,,,,,main,2,2,1,negative,negative,l,l,1,0.6138650000793859,249.68533220002428,250.69477159995586,250.67819560004864,None,249.68533220002428,None,249.68533220002428,None,249.68533220002428,None,251.29690422003623,None,251.29690422003623,None,251.29690422003623,None,,,,,,,,,,,,,203,2023-04-26_17h06.57.514,Main,2022.1.1,60.44407048677523,
negative,positive,1,j,l,,,,,,,,,4,2,74,6,,,,,,,,,main,2,2,1,positive,negative,l,l,1,0.5793154999846593,251.30064290005248,252.31138710002415,252.29481810005382,None,251.30064290005248,None,251.30064290005248,None,251.30064290005248,None,252.8770838199649,None,252.8770838199649,None,252.8770838199649,None,,,,,,,,,,,,,203,2023-04-26_17h06.57.514,Main,2022.1.1,60.44407048677523,
negative,negative,2,j,l,,,,,,,,,4,3,75,9,,,,,,,,,main,2,2,2,negative,negative,l,l,1,0.715174000011757,252.88262679998297,253.89470730000176,253.87809110002127,None,252.88262679998297,None,252.88262679998297,None,252.88262679998297,None,254.59477971997111,None,254.59477971997111,None,254.59477971997111,None,,,,,,,,,,,,,203,2023-04-26_17h06.57.514,Main,2022.1.1,60.44407048677523,
neutral,neutral,2,k,k,,,,,,,,,4,4,76,10,,,,,,,,,main,2,2,2,neutral,neutral,k,k,1,0.5286857000319287,254.59884099999908,255.60877880000044,255.59209189994726,None,254.59884099999908,None,254.59884099999908,None,254.59884099999908,None,256.1256397200283,None,256.1256397200283,None,256.1256397200283,None,,,,,,,,,,,,,203,2023-04-26_17h06.57.514,Main,2022.1.1,60.44407048677523,
neutral,positive,2,k,k,,,,,,,,,4,5,77,13,,,,,,,,,main,1,1,2,positive,neutral,k,k,1,0.5174874999793246,256.12574809999205,257.125514299958,257.125514299958,None,256.12574809999205,None,256.12574809999205,None,256.12574809999205,None,257.6422085199971,None,257.6422085199971,None,257.6422085199971,None,,,,,,,,,,,,,203,2023-04-26_17h06.57.514,Main,2022.1.1,60.44407048677523,
negative,positive,2,j,l,,,,,,,,,4,6,78,15,,,,,,,,,main,2,2,2,positive,negative,l,l,1,0.6964173000305891,257.6453413000563,258.65880119998474,258.64215289999265,None,257.6453413000563,None,257.6453413000563,None,257.6453413000563,None,259.34237302003896,None,259.34237302003896,None,259.34237302003896,None,,,,,,,,,,,,,203,2023-04-26_17h06.57.514,Main,2022.1.1,60.44407048677523,
positive,negative,1,l,j,,,,,,,,,4,7,79,5,,,,,,,,,main,2,2,1,negative,positive,j,j,1,1.1347225999925286,259.3464772000443,260.36123899999075,260.3446445000591,None,259.3464772000443,None,259.3464772000443,None,259.3464772000443,None,261.47798801995816,None,261.47798801995816,None,261.47798801995816,None,,,,,,,,,,,,,203,2023-04-26_17h06.57.514,Main,2022.1.1,60.44407048677523,
positive,neutral,2,l,j,,,,,,,,,4,8,80,17,,,,,,,,,main,1,1,2,neutral,positive,j,j,1,0.6300634000217542,261.4823143000249,262.49451770004816,262.4779609000543,None,261.4823143000249,None,261.4823143000249,None,261.4823143000249,None,263.11063081994655,None,263.11063081994655,None,263.11063081994655,None,,,,,,,,,,,,,203,2023-04-26_17h06.57.514,Main,2022.1.1,60.44407048677523,
positive,negative,2,l,j,,,,,,,,,4,9,81,14,,,,,,,,,main,2,2,2,negative,positive,j,j,1,0.5154310000361875,263.11590049997903,264.12784560001455,264.11123799998313,None,263.11590049997903,None,263.11590049997903,None,263.11590049997903,None,264.6278455199441,None,264.6278455199441,None,264.6278455199441,None,,,,,,,,,,,,,203,2023-04-26_17h06.57.514,Main,2022.1.1,60.44407048677523,
positive,neutral,1,l,j,,,,,,,,,4,10,82,8,,,,,,,,,main,1,1,1,neutral,positive,j,j,1,0.6126558999530971,264.63138270005584,265.6444823000347,265.6278694999637,None,264.63138270005584,None,264.63138270005584,None,264.63138270005584,None,266.24207722002177,None,266.24207722002177,None,266.24207722002177,None,,,,,,,,,,,,,203,2023-04-26_17h06.57.514,Main,2022.1.1,60.44407048677523,
negative,neutral,1,j,l,,,,,,,,,4,11,83,3,,,,,,,,,main,1,1,1,neutral,negative,l,l,1,0.6486777000827715,266.24804960004985,267.25857019994874,267.2422051000176,None,266.24804960004985,None,266.24804960004985,None,266.24804960004985,None,267.89210051998964,None,267.89210051998964,None,267.89210051998964,None,,,,,,,,,,,,,203,2023-04-26_17h06.57.514,Main,2022.1.1,60.44407048677523,
neutral,neutral,1,k,k,,,,,,,,,4,12,84,1,,,,,,,,,main,2,2,1,neutral,neutral,k,k,1,0.6155540000181645,267.891997299972,268.8919517999748,268.8919517999748,None,267.891997299972,None,267.891997299972,None,267.891997299972,None,269.5087644199608,None,269.5087644199608,None,269.5087644199608,None,,,,,,,,,,,,,203,2023-04-26_17h06.57.514,Main,2022.1.1,60.44407048677523,
neutral,negative,2,k,k,,,,,,,,,4,13,85,16,,,,,,,,,main,1,1,2,negative,neutral,k,k,1,0.5653218999505043,269.50944699998945,270.5085614999989,270.5085614999989,None,269.50944699998945,None,269.50944699998945,None,269.50944699998945,None,271.07542151995005,None,271.07542151995005,None,271.07542151995005,None,,,,,,,,,,,,,203,2023-04-26_17h06.57.514,Main,2022.1.1,60.44407048677523,
neutral,negative,1,k,k,,,,,,,,,4,14,86,7,,,,,,,,,main,2,2,1,negative,neutral,k,k,1,0.5167482000542805,271.0795208000345,272.0944376999978,272.07799709995743,None,271.0795208000345,None,271.0795208000345,None,271.0795208000345,None,272.5943698199932,None,272.5943698199932,None,272.5943698199932,None,,,,,,,,,,,,,203,2023-04-26_17h06.57.514,Main,2022.1.1,60.44407048677523,
positive,positive,1,l,j,,,,,,,,,4,15,87,2,,,,,,,,,main,2,2,1,positive,positive,j,j,1,0.5796468000626191,272.59760850004386,273.6109962000046,273.59440049994737,None,272.59760850004386,None,272.59760850004386,None,272.59760850004386,None,274.17552592002323,None,274.17552592002323,None,274.17552592002323,None,,,,,,,,,,,,,203,2023-04-26_17h06.57.514,Main,2022.1.1,60.44407048677523,
neutral,positive,1,k,k,,,,,,,,,4,16,88,4,,,,,,,,,main,2,2,1,positive,neutral,k,k,1,0.5670400999952108,274.1814218000509,275.1943008999806,275.17772569996305,None,274.1814218000509,None,274.1814218000509,None,274.1814218000509,None,275.7443603199441,None,275.7443603199441,None,275.7443603199441,None,,,,,,,,,,,,,203,2023-04-26_17h06.57.514,Main,2022.1.1,60.44407048677523,
negative,neutral,2,j,l,,,,,,,,,4,17,89,12,,,,,,,,,main,2,2,2,neutral,negative,l,l,1,0.6131376998964697,275.74859760003164,276.7609322000062,276.7443363999482,None,275.74859760003164,None,275.74859760003164,None,275.74859760003164,None,277.3596063199453,None,277.3596063199453,None,277.3596063199453,None,,,,,,,,,,,,,203,2023-04-26_17h06.57.514,Main,2022.1.1,60.44407048677523,
neutral,positive,2,k,k,,,,,,,,,5,0,90,13,,,,,,,,,main,1,1,2,positive,neutral,k,k,1,0.6747476999880746,277.3655351999914,278.37758089997806,278.36098540003877,None,277.3655351999914,None,277.3655351999914,None,277.3655351999914,None,279.03605611997193,None,279.03605611997193,None,279.03605611997193,None,,,,,,,,,,,,,203,2023-04-26_17h06.57.514,Main,2022.1.1,60.44407048677523,
positive,positive,2,l,j,,,,,,,,,5,1,91,11,,,,,,,,,main,2,2,2,positive,positive,j,j,1,0.5906070999335498,279.05185980000533,280.05863480002154,280.0252849999815,None,279.05185980000533,None,279.05185980000533,None,279.05185980000533,None,280.6273690200411,None,280.6273690200411,None,280.6273690200411,None,,,,,,,,,,,,,203,2023-04-26_17h06.57.514,Main,2022.1.1,60.44407048677523,
negative,neutral,2,j,l,,,,,,,,,5,2,92,12,,,,,,,,,main,2,2,2,neutral,negative,l,l,1,0.5977487999480218,280.63136889995076,281.6440179999918,281.6252610000083,None,280.63136889995076,None,280.63136889995076,None,280.63136889995076,None,282.22734671996443,None,282.22734671996443,None,282.22734671996443,None,,,,,,,,,,,,,203,2023-04-26_17h06.57.514,Main,2022.1.1,60.44407048677523,
positive,positive,1,l,j,,,,,,,,,5,3,93,2,,,,,,,,,main,2,2,1,positive,positive,j,j,1,0.5458522000117227,282.2306999999564,283.24405069998465,283.2273983999621,None,282.2306999999564,None,282.2306999999564,None,282.2306999999564,None,283.77494431999514,None,283.77494431999514,None,283.77494431999514,None,,,,,,,,,,,,,203,2023-04-26_17h06.57.514,Main,2022.1.1,60.44407048677523,
negative,neutral,1,j,l,,,,,,,,,5,4,94,3,,,,,,,,,main,1,1,1,neutral,negative,l,l,1,0.600682400050573,283.78081539995037,284.794077700004,284.7774572999915,None,283.78081539995037,None,283.78081539995037,None,283.78081539995037,None,285.3773565199459,None,285.3773565199459,None,285.3773565199459,None,,,,,,,,,,,,,203,2023-04-26_17h06.57.514,Main,2022.1.1,60.44407048677523,
negative,negative,2,j,l,,,,,,,,,5,5,95,9,,,,,,,,,main,1,1,2,negative,negative,l,l,1,0.6286606999346986,285.3886268000351,286.39407439995557,286.3773977999808,None,285.3886268000351,None,285.3886268000351,None,285.3886268000351,None,287.0084949200042,None,287.0084949200042,None,287.0084949200042,None,,,,,,,,,,,,,203,2023-04-26_17h06.57.514,Main,2022.1.1,60.44407048677523,
negative,negative,1,j,l,,,,,,,,,5,6,96,0,,,,,,,,,main,1,1,1,negative,negative,l,l,1,0.6818790000397712,287.0121235999977,288.0272925000172,288.01075510005467,None,287.0121235999977,None,287.0121235999977,None,287.0121235999977,None,288.69180572000334,None,288.69180572000334,None,288.69180572000334,None,,,,,,,,,,,,,203,2023-04-26_17h06.57.514,Main,2022.1.1,60.44407048677523,
neutral,negative,2,k,k,,,,,,,,,5,7,97,16,,,,,,,,,main,2,2,2,negative,neutral,k,k,1,0.6495177999604493,288.69526609999593,289.71058369998354,289.6939623999642,None,288.69526609999593,None,288.69526609999593,None,288.69526609999593,None,290.3426252199803,None,290.3426252199803,None,290.3426252199803,None,,,,,,,,,,,,,203,2023-04-26_17h06.57.514,Main,2022.1.1,60.44407048677523,
neutral,neutral,2,k,k,,,,,,,,,5,8,98,10,,,,,,,,,main,1,1,2,neutral,neutral,k,k,1,0.5666266999905929,290.35177840001415,291.36067940003704,291.3440189999528,None,290.35177840001415,None,290.35177840001415,None,290.35177840001415,None,291.91188612000553,None,291.91188612000553,None,291.91188612000553,None,,,,,,,,,,,,,203,2023-04-26_17h06.57.514,Main,2022.1.1,60.44407048677523,
negative,positive,2,j,l,,,,,,,,,5,9,99,15,,,,,,,,,main,2,2,2,positive,negative,l,l,1,0.7448345000157133,291.92497469997033,292.92470770003274,292.90837640000973,None,291.92497469997033,None,291.92497469997033,None,291.92497469997033,None,293.65801401997453,None,293.65801401997453,None,293.65801401997453,None,,,,,,,,,,,,,203,2023-04-26_17h06.57.514,Main,2022.1.1,60.44407048677523,
neutral,negative,1,k,k,,,,,,,,,5,10,100,7,,,,,,,,,main,1,1,1,negative,neutral,k,k,1,0.6819931999780238,293.65805349999573,294.66062940005213,294.66062940005213,None,293.65805349999573,None,293.65805349999573,None,293.65805349999573,None,295.3414263200481,None,295.3414263200481,None,295.3414263200481,None,,,,,,,,,,,,,203,2023-04-26_17h06.57.514,Main,2022.1.1,60.44407048677523,
negative,positive,1,j,l,,,,,,,,,5,11,101,6,,,,,,,,,main,1,1,1,positive,negative,l,l,1,0.7006714000599459,295.34517520002555,296.36052930005826,296.3439276999561,None,295.34517520002555,None,295.34517520002555,None,295.34517520002555,None,297.0438265200006,None,297.0438265200006,None,297.0438265200006,None,,,,,,,,,,,,,203,2023-04-26_17h06.57.514,Main,2022.1.1,60.44407048677523,
positive,neutral,1,l,j,,,,,,,,,5,12,102,8,,,,,,,,,main,1,1,1,neutral,positive,j,j,1,0.729129399987869,297.0468068999471,298.0605970999459,298.0438771999907,None,297.0468068999471,None,297.0468068999471,None,297.0468068999471,None,298.7746753200423,None,298.7746753200423,None,298.7746753200423,None,,,,,,,,,,,,,203,2023-04-26_17h06.57.514,Main,2022.1.1,60.44407048677523,
positive,negative,1,l,j,,,,,,,,,5,13,103,5,,,,,,,,,main,2,2,1,negative,positive,j,j,1,0.5155787001131102,298.78112149995286,299.79383249999955,299.7772023000289,None,298.78112149995286,None,298.78112149995286,None,298.78112149995286,None,300.2916491199518,None,300.2916491199518,None,300.2916491199518,None,,,,,,,,,,,,,203,2023-04-26_17h06.57.514,Main,2022.1.1,60.44407048677523,
neutral,positive,1,k,k,,,,,,,,,5,14,104,4,,,,,,,,,main,2,2,1,positive,neutral,k,k,1,0.6209333000006154,300.2975889999652,301.3104154999601,301.29382709995843,None,300.2975889999652,None,300.2975889999652,None,300.2975889999652,None,301.9141606199788,None,301.9141606199788,None,301.9141606199788,None,,,,,,,,,,,,,203,2023-04-26_17h06.57.514,Main,2022.1.1,60.44407048677523,
positive,negative,2,l,j,,,,,,,,,5,15,105,14,,,,,,,,,main,1,1,2,negative,positive,j,j,1,0.6424349999288097,301.9305213999469,302.9414958000416,302.9081483000191,None,301.9305213999469,None,301.9305213999469,None,301.9305213999469,None,303.55817492005883,None,303.55817492005883,None,303.55817492005883,None,,,,,,,,,,,,,203,2023-04-26_17h06.57.514,Main,2022.1.1,60.44407048677523,
positive,neutral,2,l,j,,,,,,,,,5,16,106,17,,,,,,,,,main,2,2,2,neutral,positive,j,j,1,0.6648221999639645,303.568885799963,304.5769196000183,304.5581291000126,None,303.568885799963,None,303.568885799963,None,303.568885799963,None,305.22477781996133,None,305.22477781996133,None,305.22477781996133,None,,,,,,,,,,,,,203,2023-04-26_17h06.57.514,Main,2022.1.1,60.44407048677523,
neutral,neutral,1,k,k,,,,,,,,,5,17,107,1,,,,,,,,,main,1,1,1,neutral,neutral,k,k,1,0.6170544000342488,305.22806350002065,306.2436860000016,306.22700640000403,None,305.22806350002065,None,305.22806350002065,None,305.22806350002065,None,306.8434839199996,None,306.8434839199996,None,306.8434839199996,None,,,,,,,,,,,,,203,2023-04-26_17h06.57.514,Main,2022.1.1,60.44407048677523,
positive,positive,2,l,j,,,,,,,,,6,0,108,11,,,,,,,,,main,2,2,2,positive,positive,j,j,1,0.5798353999853134,306.84632390004117,307.8602238999447,307.8435134999454,None,306.84632390004117,None,306.84632390004117,None,306.84632390004117,None,308.4247586200014,None,308.4247586200014,None,308.4247586200014,None,,,,,,,,,,,,,203,2023-04-26_17h06.57.514,Main,2022.1.1,60.44407048677523,
negative,positive,2,j,l,,,,,,,,,6,1,109,15,,,,,,,,,main,2,2,2,positive,negative,l,l,1,0.6325974999926984,308.4287129000295,309.44348340004217,309.42475370003376,None,308.4287129000295,None,308.4287129000295,None,308.4287129000295,None,310.0591064200504,None,310.0591064200504,None,310.0591064200504,None,,,,,,,,,,,,,203,2023-04-26_17h06.57.514,Main,2022.1.1,60.44407048677523,
positive,negative,1,l,j,,,,,,,,,6,2,110,5,,,,,,,,,main,1,1,1,negative,positive,j,j,1,0.6806564000435174,310.06459319998976,311.0768303000368,311.0603090999648,None,310.06459319998976,None,310.06459319998976,None,310.06459319998976,None,311.7413309200434,None,311.7413309200434,None,311.7413309200434,None,,,,,,,,,,,,,203,2023-04-26_17h06.57.514,Main,2022.1.1,60.44407048677523,
neutral,positive,2,k,k,,,,,,,,,6,3,111,13,,,,,,,,,main,1,1,2,positive,neutral,k,k,1,0.5675933000165969,311.7448501000181,312.7601243000245,312.74134029995184,None,311.7448501000181,None,311.7448501000181,None,311.7448501000181,None,313.3079892200418,None,313.3079892200418,None,313.3079892200418,None,,,,,,,,,,,,,203,2023-04-26_17h06.57.514,Main,2022.1.1,60.44407048677523,
positive,negative,2,l,j,,,,,,,,,6,4,112,14,,,,,,,,,main,2,2,2,negative,positive,j,j,1,0.645220399950631,313.3146169000538,314.32682299998123,314.31020890001673,None,313.3146169000538,None,313.3146169000538,None,313.3146169000538,None,314.9579685200239,None,314.9579685200239,None,314.9579685200239,None,,,,,,,,,,,,,203,2023-04-26_17h06.57.514,Main,2022.1.1,60.44407048677523,
neutral,negative,1,k,k,,,,,,,,,6,5,113,7,,,,,,,,,main,2,2,1,negative,neutral,k,k,1,0.5824994000140578,314.9636037000455,315.97427160001826,315.9576064000139,None,314.9636037000455,None,314.9636037000455,None,314.9636037000455,None,316.54086162000897,None,316.54086162000897,None,316.54086162000897,None,,,,,,,,,,,,,203,2023-04-26_17h06.57.514,Main,2022.1.1,60.44407048677523,
positive,neutral,2,l,j,,,,,,,,,6,6,114,17,,,,,,,,,main,2,2,2,neutral,positive,j,j,1,0.6307318999897689,316.5576238000067,317.5576437000418,317.5409644000465,None,316.5576238000067,None,316.5576238000067,None,316.5576238000067,None,318.1743221200537,None,318.1743221200537,None,318.1743221200537,None,,,,,,,,,,,,,203,2023-04-26_17h06.57.514,Main,2022.1.1,60.44407048677523,
positive,positive,1,l,j,,,,,,,,,6,7,115,2,,,,,,,,,main,2,2,1,positive,positive,j,j,1,0.6485700999619439,318.1807715999894,319.19339749997016,319.17681650002487,None,318.1807715999894,None,318.1807715999894,None,318.1807715999894,None,319.8245899200207,None,319.8245899200207,None,319.8245899200207,None,,,,,,,,,,,,,203,2023-04-26_17h06.57.514,Main,2022.1.1,60.44407048677523,
neutral,neutral,1,k,k,,,,,,,,,6,8,116,1,,,,,,,,,main,1,1,1,neutral,neutral,k,k,1,0.5813208000035957,319.82776879996527,320.843325200025,320.8267115999479,None,319.82776879996527,None,319.82776879996527,None,319.82776879996527,None,321.40756971996746,None,321.40756971996746,None,321.40756971996746,None,,,,,,,,,,,,,203,2023-04-26_17h06.57.514,Main,2022.1.1,60.44407048677523,
neutral,negative,2,k,k,,,,,,,,,6,9,117,16,,,,,,,,,main,1,1,2,negative,neutral,k,k,1,0.5486265999497846,321.4127271999605,322.42659889999777,322.39333560003433,None,321.4127271999605,None,321.4127271999605,None,321.4127271999605,None,322.9576518200571,None,322.9576518200571,None,322.9576518200571,None,,,,,,,,,,,,,203,2023-04-26_17h06.57.514,Main,2022.1.1,60.44407048677523,
negative,negative,2,j,l,,,,,,,,,6,10,118,9,,,,,,,,,main,1,1,2,negative,negative,l,l,1,0.7509590999688953,322.9638647000538,323.9766962999711,323.96006239997223,None,322.9638647000538,None,322.9638647000538,None,322.9638647000538,None,324.70995332000314,None,324.70995332000314,None,324.70995332000314,None,,,,,,,,,,,,,203,2023-04-26_17h06.57.514,Main,2022.1.1,60.44407048677523,
negative,positive,1,j,l,,,,,,,,,6,11,119,6,,,,,,,,,main,2,2,1,positive,negative,l,l,1,0.7793082999996841,324.713097400032,325.7240599000361,325.70739230001345,None,324.713097400032,None,324.713097400032,None,324.713097400032,None,326.49067671995147,None,326.49067671995147,None,326.49067671995147,None,,,,,,,,,,,,,203,2023-04-26_17h06.57.514,Main,2022.1.1,60.44407048677523,
negative,neutral,1,j,l,,,,,,,,,6,12,120,3,,,,,,,,,main,2,2,1,neutral,negative,l,l,1,0.6818365999497473,326.49069060001057,327.4907873000484,327.4907873000484,None,326.49069060001057,None,326.49069060001057,None,326.49069060001057,None,328.17407162000893,None,328.17407162000893,None,328.17407162000893,None,,,,,,,,,,,,,203,2023-04-26_17h06.57.514,Main,2022.1.1,60.44407048677523,
neutral,neutral,2,k,k,,,,,,,,,6,13,121,10,,,,,,,,,main,2,2,2,neutral,neutral,k,k,1,0.615314400056377,328.1773693000432,329.176638099947,329.176638099947,None,328.1773693000432,None,328.1773693000432,None,328.1773693000432,None,329.7909404200269,None,329.7909404200269,None,329.7909404200269,None,,,,,,,,,,,,,203,2023-04-26_17h06.57.514,Main,2022.1.1,60.44407048677523,
positive,neutral,1,l,j,,,,,,,,,6,14,122,8,,,,,,,,,main,1,1,1,neutral,positive,j,j,1,0.6158136000158265,329.7965621999465,330.80981480004266,330.7765112000052,None,329.7965621999465,None,329.7965621999465,None,329.7965621999465,None,331.40794802005405,None,331.40794802005405,None,331.40794802005405,None,,,,,,,,,,,,,203,2023-04-26_17h06.57.514,Main,2022.1.1,60.44407048677523,
negative,neutral,2,j,l,,,,,,,,,6,15,123,12,,,,,,,,,main,2,2,2,neutral,negative,l,l,1,0.7169474000111222,331.4143574000336,332.4264035000233,332.4098949000472,None,331.4143574000336,None,331.4143574000336,None,331.4143574000336,None,333.1263450200437,None,333.1263450200437,None,333.1263450200437,None,,,,,,,,,,,,,203,2023-04-26_17h06.57.514,Main,2022.1.1,60.44407048677523,
neutral,positive,1,k,k,,,,,,,,,6,16,124,4,,,,,,,,,main,2,2,1,positive,neutral,k,k,1,0.6314332999754697,333.12979529995937,334.14303829998244,334.1264390000142,None,333.12979529995937,None,333.12979529995937,None,333.12979529995937,None,334.7596557199955,None,334.7596557199955,None,334.7596557199955,None,,,,,,,,,,,,,203,2023-04-26_17h06.57.514,Main,2022.1.1,60.44407048677523,
negative,negative,1,j,l,,,,,,,,,6,17,125,0,,,,,,,,,main,2,2,1,negative,negative,l,l,1,0.6628357999725267,334.7632150000427,335.77347200002987,335.75682380003855,None,334.7632150000427,None,334.7632150000427,None,334.7632150000427,None,336.42379001996017,None,336.42379001996017,None,336.42379001996017,None,,,,,,,,,,,,,203,2023-04-26_17h06.57.514,Main,2022.1.1,60.44407048677523,
neutral,negative,2,k,k,,,,,,,,,7,0,126,16,,,,,,,,,main,2,2,2,negative,neutral,k,k,1,0.5652239000191912,336.4238087000558,337.42389350000303,337.42389350000303,None,336.4238087000558,None,336.4238087000558,None,336.4238087000558,None,337.9905930200126,None,337.9905930200126,None,337.9905930200126,None,,,,,,,,,,,,,203,2023-04-26_17h06.57.514,Main,2022.1.1,60.44407048677523,
neutral,positive,1,k,k,,,,,,,,,7,1,127,4,,,,,,,,,main,1,1,1,positive,neutral,k,k,1,0.6168281000573188,337.9948466999922,339.0096800000174,338.99309210001957,None,337.9948466999922,None,337.9948466999922,None,337.9948466999922,None,339.6097200199962,None,339.6097200199962,None,339.6097200199962,None,,,,,,,,,,,,,203,2023-04-26_17h06.57.514,Main,2022.1.1,60.44407048677523,
positive,positive,2,l,j,,,,,,,,,7,2,128,11,,,,,,,,,main,2,2,2,positive,positive,j,j,1,0.5815732999471948,339.6130894999951,340.6263256999664,340.6096963000018,None,339.6130894999951,None,339.6130894999951,None,339.6130894999951,None,341.1930552199716,None,341.1930552199716,None,341.1930552199716,None,,,,,,,,,,,,,203,2023-04-26_17h06.57.514,Main,2022.1.1,60.44407048677523,
positive,positive,1,l,j,,,,,,,,,7,3,129,2,,,,,,,,,main,2,2,1,positive,positive,j,j,1,1.0660057999193668,341.19734029995743,342.2097411999712,342.193060599966,None,341.19734029995743,None,341.19734029995743,None,341.19734029995743,None,343.26033562005034,None,343.26033562005034,None,343.26033562005034,None,,,,,,,,,,,,,203,2023-04-26_17h06.57.514,Main,2022.1.1,60.44407048677523,
neutral,neutral,1,k,k,,,,,,,,,7,4,130,1,,,,,,,,,main,2,2,1,neutral,neutral,k,k,1,0.5776513000018895,343.26429029996507,344.27634440001566,344.25966280000284,None,343.26429029996507,None,343.26429029996507,None,343.26429029996507,None,344.84043232004626,None,344.84043232004626,None,344.84043232004626,None,,,,,,,,,,,,,203,2023-04-26_17h06.57.514,Main,2022.1.1,60.44407048677523,
negative,neutral,2,j,l,,,,,,,,,7,5,131,12,,,,,,,,,main,2,2,2,neutral,negative,l,l,1,0.6652997999917716,344.84651359997224,345.85701609996613,345.8403473000508,None,344.84651359997224,None,344.84651359997224,None,344.84651359997224,None,346.5069745199522,None,346.5069745199522,None,346.5069745199522,None,,,,,,,,,,,,,203,2023-04-26_17h06.57.514,Main,2022.1.1,60.44407048677523,
neutral,negative,1,k,k,,,,,,,,,7,6,132,7,,,,,,,,,main,1,1,1,negative,neutral,k,k,1,0.5314688999205828,346.5072972000344,347.50815470004454,347.50815470004454,None,346.5072972000344,None,346.5072972000344,None,346.5072972000344,None,348.0403317200486,None,348.0403317200486,None,348.0403317200486,None,,,,,,,,,,,,,203,2023-04-26_17h06.57.514,Main,2022.1.1,60.44407048677523,
negative,neutral,1,j,l,,,,,,,,,7,7,133,3,,,,,,,,,main,2,2,1,neutral,negative,l,l,1,0.5986361000686884,348.0407970000524,349.04165170004126,349.04165170004126,None,348.0407970000524,None,348.0407970000524,None,348.0407970000524,None,349.6403504200513,None,349.6403504200513,None,349.6403504200513,None,,,,,,,,,,,,,203,2023-04-26_17h06.57.514,Main,2022.1.1,60.44407048677523,
negative,positive,2,j,l,,,,,,,,,7,8,134,15,,,,,,,,,main,1,1,2,positive,negative,l,l,1,0.631866900017485,349.64378779998515,350.6428962999489,350.6428962999489,None,349.64378779998515,None,349.64378779998515,None,349.64378779998515,None,351.27363312002274,None,351.27363312002274,None,351.27363312002274,None,,,,,,,,,,,,,203,2023-04-26_17h06.57.514,Main,2022.1.1,60.44407048677523,
negative,positive,1,j,l,,,,,,,,,7,9,135,6,,,,,,,,,main,2,2,1,positive,negative,l,l,1,0.6684936999808997,351.28011689998675,352.2927799000172,352.27616919996217,None,351.28011689998675,None,351.28011689998675,None,351.28011689998675,None,352.9433664200129,None,352.9433664200129,None,352.9433664200129,None,,,,,,,,,,,,,203,2023-04-26_17h06.57.514,Main,2022.1.1,60.44407048677523,
positive,negative,1,l,j,,,,,,,,,7,10,136,5,,,,,,,,,main,2,2,1,negative,positive,j,j,1,0.7474026000127196,352.94710740004666,353.95940050005447,353.9427949000383,None,352.94710740004666,None,352.94710740004666,None,352.94710740004666,None,354.69270942001606,None,354.69270942001606,None,354.69270942001606,None,,,,,,,,,,,,,203,2023-04-26_17h06.57.514,Main,2022.1.1,60.44407048677523,
positive,neutral,1,l,j,,,,,,,,,7,11,137,8,,,,,,,,,main,1,1,1,neutral,positive,j,j,1,0.5622882000170648,354.6959158000536,355.7093176000053,355.6927407999756,None,354.6959158000536,None,354.6959158000536,None,354.6959158000536,None,356.2569260200486,None,356.2569260200486,None,356.2569260200486,None,,,,,,,,,,,,,203,2023-04-26_17h06.57.514,Main,2022.1.1,60.44407048677523,
positive,negative,2,l,j,,,,,,,,,7,12,138,14,,,,,,,,,main,1,1,2,negative,positive,j,j,1,0.7309812000021338,356.26109589997213,357.27594830002636,357.2594181000022,None,356.26109589997213,None,356.26109589997213,None,356.26109589997213,None,357.99012212003583,None,357.99012212003583,None,357.99012212003583,None,,,,,,,,,,,,,203,2023-04-26_17h06.57.514,Main,2022.1.1,60.44407048677523,
neutral,positive,2,k,k,,,,,,,,,7,13,139,13,,,,,,,,,main,2,2,2,positive,neutral,k,k,1,0.6320431000785902,357.9909897999605,358.99012510001194,358.99012510001194,None,357.9909897999605,None,357.9909897999605,None,357.9909897999605,None,359.6234327199869,None,359.6234327199869,None,359.6234327199869,None,,,,,,,,,,,,,203,2023-04-26_17h06.57.514,Main,2022.1.1,60.44407048677523,
positive,neutral,2,l,j,,,,,,,,,7,14,140,17,,,,,,,,,main,2,2,2,neutral,positive,j,j,1,0.5990587000269443,359.6242506999988,360.62346459995024,360.62346459995024,None,359.6242506999988,None,359.6242506999988,None,359.6242506999988,None,361.223394520022,None,361.223394520022,None,361.223394520022,None,,,,,,,,,,,,,203,2023-04-26_17h06.57.514,Main,2022.1.1,60.44407048677523,
negative,negative,2,j,l,,,,,,,,,7,15,141,9,,,,,,,,,main,2,2,2,negative,negative,l,l,1,1.099918600055389,361.22513909998816,362.24012460000813,362.2234467000235,None,361.22513909998816,None,361.22513909998816,None,361.22513909998816,None,363.32583961999046,None,363.32583961999046,None,363.32583961999046,None,,,,,,,,,,,,,203,2023-04-26_17h06.57.514,Main,2022.1.1,60.44407048677523,
neutral,neutral,2,k,k,,,,,,,,,7,16,142,10,,,,,,,,,main,2,2,2,neutral,neutral,k,k,1,0.6464066000189632,363.32924340001773,364.34259230003227,364.32600789994467,None,363.32924340001773,None,363.32924340001773,None,363.32924340001773,None,364.97355092004875,None,364.97355092004875,None,364.97355092004875,None,,,,,,,,,,,,,203,2023-04-26_17h06.57.514,Main,2022.1.1,60.44407048677523,
negative,negative,1,j,l,,,,,,,,,7,17,143,0,,,,,,,,,main,1,1,1,negative,negative,l,l,1,0.7507144999690354,364.98036639997736,365.9925835999893,365.9759126000572,None,364.98036639997736,None,364.98036639997736,None,364.98036639997736,None,366.7258871200262,None,366.7258871200262,None,366.7258871200262,None,,,,,,,,,,,,,203,2023-04-26_17h06.57.514,Main,2022.1.1,60.44407048677523,
neutral,neutral,1,k,k,,,,,,,,,8,0,144,1,,,,,,,,,main,2,2,1,neutral,neutral,k,k,1,0.5982242999598384,366.72920599998906,367.74244379997253,367.7258406999754,None,366.72920599998906,None,366.72920599998906,None,366.72920599998906,None,368.3258524199715,None,368.3258524199715,None,368.3258524199715,None,,,,,,,,,,,,,203,2023-04-26_17h06.57.514,Main,2022.1.1,60.44407048677523,
negative,positive,1,j,l,,,,,,,,,8,1,145,6,,,,,,,,,main,2,2,1,positive,negative,l,l,1,0.8291496000019833,368.32911040005274,369.3424591999501,369.32582220004406,None,368.32911040005274,None,368.32911040005274,None,368.32911040005274,None,370.15651751998814,None,370.15651751998814,None,370.15651751998814,None,,,,,,,,,,,,,203,2023-04-26_17h06.57.514,Main,2022.1.1,60.44407048677523,
positive,positive,1,l,j,,,,,,,,,8,2,146,2,,,,,,,,,main,2,2,1,positive,positive,j,j,1,0.6314678000053391,370.15652850002516,371.15650210005697,371.15650210005697,None,370.15652850002516,None,370.15652850002516,None,370.15652850002516,None,371.7898429200519,None,371.7898429200519,None,371.7898429200519,None,,,,,,,,,,,,,203,2023-04-26_17h06.57.514,Main,2022.1.1,60.44407048677523,
positive,neutral,1,l,j,,,,,,,,,8,3,147,8,,,,,,,,,main,2,2,1,neutral,positive,j,j,1,0.548623500042595,371.78986160003114,372.78983180003706,372.78983180003706,None,371.78986160003114,None,371.78986160003114,None,371.78986160003114,None,373.33993972002065,None,373.33993972002065,None,373.33993972002065,None,,,,,,,,,,,,,203,2023-04-26_17h06.57.514,Main,2022.1.1,60.44407048677523,
positive,negative,1,l,j,,,,,,,,,8,4,148,5,,,,,,,,,main,1,1,1,negative,positive,j,j,1,0.5510152999777347,373.34332840004936,374.3422729000449,374.3257455000421,None,373.34332840004936,None,373.34332840004936,None,373.34332840004936,None,374.89240551998375,None,374.89240551998375,None,374.89240551998375,None,,,,,,,,,,,,,203,2023-04-26_17h06.57.514,Main,2022.1.1,60.44407048677523,
neutral,positive,1,k,k,,,,,,,,,8,5,149,4,,,,,,,,,main,1,1,1,positive,neutral,k,k,1,0.6650842999806628,374.8951749999542,375.90895359998103,375.8923090000171,None,374.8951749999542,None,374.8951749999542,None,374.8951749999542,None,376.55870242000094,None,376.55870242000094,None,376.55870242000094,None,,,,,,,,,,,,,203,2023-04-26_17h06.57.514,Main,2022.1.1,60.44407048677523,
neutral,negative,2,k,k,,,,,,,,,8,6,150,16,,,,,,,,,main,2,2,2,negative,neutral,k,k,1,0.581872700015083,376.5636093999492,377.575508799986,377.55892500001937,None,376.5636093999492,None,376.5636093999492,None,376.5636093999492,None,378.14221462004355,None,378.14221462004355,None,378.14221462004355,None,,,,,,,,,,,,,203,2023-04-26_17h06.57.514,Main,2022.1.1,60.44407048677523,
positive,negative,2,l,j,,,,,,,,,8,7,151,14,,,,,,,,,main,2,2,2,negative,positive,j,j,1,0.6311592001002282,378.1508045999799,379.1588121999521,379.14230690000113,None,378.1508045999799,None,378.1508045999799,None,378.1508045999799,None,379.77559032002466,None,379.77559032002466,None,379.77559032002466,None,,,,,,,,,,,,,203,2023-04-26_17h06.57.514,Main,2022.1.1,60.44407048677523,
neutral,positive,2,k,k,,,,,,,,,8,8,152,13,,,,,,,,,main,2,2,2,positive,neutral,k,k,1,0.5295211999909952,379.77860099996906,380.79224340000656,380.7756037999643,None,379.77860099996906,None,379.77860099996906,None,379.77860099996906,None,381.30630792004524,None,381.30630792004524,None,381.30630792004524,None,,,,,,,,,,,,,203,2023-04-26_17h06.57.514,Main,2022.1.1,60.44407048677523,
negative,negative,1,j,l,,,,,,,,,8,9,153,0,,,,,,,,,main,2,2,1,negative,negative,l,l,1,0.698467000038363,381.3063662999775,382.30650960002095,382.30650960002095,None,381.3063662999775,None,381.3063662999775,None,381.3063662999775,None,383.0063045199728,None,383.0063045199728,None,383.0063045199728,None,,,,,,,,,,,,,203,2023-04-26_17h06.57.514,Main,2022.1.1,60.44407048677523,
negative,neutral,1,j,l,,,,,,,,,8,10,154,3,,,,,,,,,main,1,1,1,neutral,negative,l,l,1,0.6987777999602258,383.00967810000293,384.00891189998947,384.00891189998947,None,383.00967810000293,None,383.00967810000293,None,383.00967810000293,None,384.7066029199865,None,384.7066029199865,None,384.7066029199865,None,,,,,,,,,,,,,203,2023-04-26_17h06.57.514,Main,2022.1.1,60.44407048677523,
positive,positive,2,l,j,,,,,,,,,8,11,155,11,,,,,,,,,main,2,2,2,positive,positive,j,j,1,0.6832822000142187,384.7127229999751,385.7254202000331,385.70876740000676,None,384.7127229999751,None,384.7127229999751,None,384.7127229999751,None,386.39025842004924,None,386.39025842004924,None,386.39025842004924,None,,,,,,,,,,,,,203,2023-04-26_17h06.57.514,Main,2022.1.1,60.44407048677523,
negative,neutral,2,j,l,,,,,,,,,8,12,156,12,,,,,,,,,main,1,1,2,neutral,negative,l,l,1,0.6463553999783471,386.3967123000184,387.4087149000261,387.3920827000402,None,386.3967123000184,None,386.3967123000184,None,386.3967123000184,None,388.03958282005044,None,388.03958282005044,None,388.03958282005044,None,,,,,,,,,,,,,203,2023-04-26_17h06.57.514,Main,2022.1.1,60.44407048677523,
positive,neutral,2,l,j,,,,,,,,,8,13,157,17,,,,,,,,,main,1,1,2,neutral,positive,j,j,1,0.6984398000640795,388.04264290002175,389.0420043000486,389.0253712000558,None,388.04264290002175,None,388.04264290002175,None,388.04264290002175,None,389.7396091199713,None,389.7396091199713,None,389.7396091199713,None,,,,,,,,,,,,,203,2023-04-26_17h06.57.514,Main,2022.1.1,60.44407048677523,
neutral,negative,1,k,k,,,,,,,,,8,14,158,7,,,,,,,,,main,1,1,1,negative,neutral,k,k,1,0.6151152999373153,389.7458978999639,390.75305669999216,390.73846070002764,None,389.7458978999639,None,389.7458978999639,None,389.7458978999639,None,391.35608322001065,None,391.35608322001065,None,391.35608322001065,None,,,,,,,,,,,,,203,2023-04-26_17h06.57.514,Main,2022.1.1,60.44407048677523,
neutral,neutral,2,k,k,,,,,,,,,8,15,159,10,,,,,,,,,main,2,2,2,neutral,neutral,k,k,1,0.6818912000162527,391.3560579000041,392.3561020999914,392.3561020999914,None,391.3560579000041,None,391.3560579000041,None,391.3560579000041,None,393.03941871996506,None,393.03941871996506,None,393.03941871996506,None,,,,,,,,,,,,,203,2023-04-26_17h06.57.514,Main,2022.1.1,60.44407048677523,
negative,negative,2,j,l,,,,,,,,,8,16,160,9,,,,,,,,,main,1,1,2,negative,negative,l,l,1,0.748687700019218,393.0561050999677,394.0561278000241,394.0394596999977,None,393.0561050999677,None,393.0561050999677,None,393.0561050999677,None,394.78944562005347,None,394.78944562005347,None,394.78944562005347,None,,,,,,,,,,,,,203,2023-04-26_17h06.57.514,Main,2022.1.1,60.44407048677523,
negative,positive,2,j,l,,,,,,,,,8,17,161,15,,,,,,,,,main,2,2,2,positive,negative,l,l,1,0.6320507999043912,394.7937923000427,395.80858609999996,395.7919508999912,None,394.7937923000427,None,394.7937923000427,None,394.7937923000427,None,396.42403431995774,None,396.42403431995774,None,396.42403431995774,None,,,,,,,,,,,,,203,2023-04-26_17h06.57.514,Main,2022.1.1,60.44407048677523,
negative,negative,2,j,l,,,,,,,,,9,0,162,9,,,,,,,,,main,1,1,2,negative,negative,l,l,1,0.6492720999522135,396.42993029998615,397.44183869997505,397.42522119998466,None,396.42993029998615,None,396.42993029998615,None,396.42993029998615,None,398.0751991200028,None,398.0751991200028,None,398.0751991200028,None,,,,,,,,,,,,,203,2023-04-26_17h06.57.514,Main,2022.1.1,60.44407048677523,
neutral,positive,1,k,k,,,,,,,,,9,1,163,4,,,,,,,,,main,1,1,1,positive,neutral,k,k,1,0.6315743000013754,398.07812620000914,399.09174910001457,399.0751531999558,None,398.07812620000914,None,398.07812620000914,None,398.07812620000914,None,399.70847801994535,None,399.70847801994535,None,399.70847801994535,None,,,,,,,,,,,,,203,2023-04-26_17h06.57.514,Main,2022.1.1,60.44407048677523,
neutral,negative,2,k,k,,,,,,,,,9,2,164,16,,,,,,,,,main,2,2,2,negative,neutral,k,k,1,0.5814108999911696,399.7121150000021,400.7251273000147,400.70851909997873,None,399.7121150000021,None,399.7121150000021,None,399.7121150000021,None,401.29187152001543,None,401.29187152001543,None,401.29187152001543,None,,,,,,,,,,,,,203,2023-04-26_17h06.57.514,Main,2022.1.1,60.44407048677523,
positive,negative,2,l,j,,,,,,,,,9,3,165,14,,,,,,,,,main,1,1,2,negative,positive,j,j,1,0.6122809000080451,401.2948835999705,402.3083672999637,402.2917295000516,None,401.2948835999705,None,401.2948835999705,None,401.2948835999705,None,402.9058160200017,None,402.9058160200017,None,402.9058160200017,None,,,,,,,,,,,,,203,2023-04-26_17h06.57.514,Main,2022.1.1,60.44407048677523,
negative,positive,2,j,l,,,,,,,,,9,4,166,15,,,,,,,,,main,1,1,2,positive,negative,l,l,1,0.7645880000200123,402.9063366999617,403.905858800048,403.905858800048,None,402.9063366999617,None,402.9063366999617,None,402.9063366999617,None,404.6725377199706,None,404.6725377199706,None,404.6725377199706,None,,,,,,,,,,,,,203,2023-04-26_17h06.57.514,Main,2022.1.1,60.44407048677523,
positive,positive,1,l,j,,,,,,,,,9,5,167,2,,,,,,,,,main,2,2,1,positive,positive,j,j,1,0.6317213999573141,404.6745496999938,405.689180699992,405.6725281999679,None,404.6745496999938,None,404.6745496999938,None,404.6745496999938,None,406.30581912004857,None,406.30581912004857,None,406.30581912004857,None,,,,,,,,,,,,,203,2023-04-26_17h06.57.514,Main,2022.1.1,60.44407048677523,
negative,neutral,1,j,l,,,,,,,,,9,6,168,3,,,,,,,,,main,1,1,1,neutral,negative,l,l,1,0.5845216000452638,406.30584589997306,407.3058678000234,407.2892012000084,None,406.30584589997306,None,406.30584589997306,None,406.30584589997306,None,407.89164492001294,None,407.89164492001294,None,407.89164492001294,None,,,,,,,,,,,,,203,2023-04-26_17h06.57.514,Main,2022.1.1,60.44407048677523,
positive,positive,2,l,j,,,,,,,,,9,7,169,11,,,,,,,,,main,2,2,2,positive,positive,j,j,1,0.6648824000731111,407.89524390001316,408.9083112999797,408.8917387999827,None,407.89524390001316,None,407.89524390001316,None,407.89524390001316,None,409.55827261998786,None,409.55827261998786,None,409.55827261998786,None,,,,,,,,,,,,,203,2023-04-26_17h06.57.514,Main,2022.1.1,60.44407048677523,
positive,neutral,1,l,j,,,,,,,,,9,8,170,8,,,,,,,,,main,1,1,1,neutral,positive,j,j,1,1.1976202999940142,409.56214199995156,410.5749395999592,410.558323699981,None,409.56214199995156,None,409.56214199995156,None,409.56214199995156,None,411.7582084200345,None,411.7582084200345,None,411.7582084200345,None,,,,,,,,,,,,,203,2023-04-26_17h06.57.514,Main,2022.1.1,60.44407048677523,
positive,negative,1,l,j,,,,,,,,,9,9,171,5,,,,,,,,,main,2,2,1,negative,positive,j,j,1,0.5959432000527158,411.7620359000284,412.7748910000082,412.7582533999812,None,411.7620359000284,None,411.7620359000284,None,411.7620359000284,None,413.3557289199904,None,413.3557289199904,None,413.3557289199904,None,,,,,,,,,,,,,203,2023-04-26_17h06.57.514,Main,2022.1.1,60.44407048677523,
neutral,positive,2,k,k,,,,,,,,,9,10,172,13,,,,,,,,,main,1,1,2,positive,neutral,k,k,1,0.6984666000353172,413.3593105999753,414.3748887999682,414.3582833999535,None,413.3593105999753,None,413.3593105999753,None,413.3593105999753,None,415.0555857200176,None,415.0555857200176,None,415.0555857200176,None,,,,,,,,,,,,,203,2023-04-26_17h06.57.514,Main,2022.1.1,60.44407048677523,
neutral,neutral,1,k,k,,,,,,,,,9,11,173,1,,,,,,,,,main,2,2,1,neutral,neutral,k,k,1,0.7315780000062659,415.055603899993,416.0556076000212,416.0556076000212,None,415.055603899993,None,415.055603899993,None,415.055603899993,None,416.78894042004833,None,416.78894042004833,None,416.78894042004833,None,,,,,,,,,,,,,203,2023-04-26_17h06.57.514,Main,2022.1.1,60.44407048677523,
neutral,neutral,2,k,k,,,,,,,,,9,12,174,10,,,,,,,,,main,2,2,2,neutral,neutral,k,k,1,0.6315571999875829,416.7895857000258,417.78894600004423,417.78894600004423,None,416.7895857000258,None,416.7895857000258,None,416.7895857000258,None,418.42226591999645,None,418.42226591999645,None,418.42226591999645,None,,,,,,,,,,,,,203,2023-04-26_17h06.57.514,Main,2022.1.1,60.44407048677523,
negative,positive,1,j,l,,,,,,,,,9,13,175,6,,,,,,,,,main,2,2,1,positive,negative,l,l,1,0.5985857000341639,418.4266190000344,419.44137919996865,419.42485820001457,None,418.4266190000344,None,418.4266190000344,None,418.4266190000344,None,420.02223932000345,None,420.02223932000345,None,420.02223932000345,None,,,,,,,,,,,,,203,2023-04-26_17h06.57.514,Main,2022.1.1,60.44407048677523,
negative,negative,1,j,l,,,,,,,,,9,14,176,0,,,,,,,,,main,2,2,1,negative,negative,l,l,1,0.5675494000315666,420.0258837000001,421.0413290000288,421.02473980002105,None,420.0258837000001,None,420.0258837000001,None,420.0258837000001,None,421.5914730200544,None,421.5914730200544,None,421.5914730200544,None,,,,,,,,,,,,,203,2023-04-26_17h06.57.514,Main,2022.1.1,60.44407048677523,
negative,neutral,2,j,l,,,,,,,,,9,15,177,12,,,,,,,,,main,1,1,2,neutral,negative,l,l,1,0.6648105999920517,421.5942550000036,422.6079685000004,422.59134729998186,None,421.5942550000036,None,421.5942550000036,None,421.5942550000036,None,423.2578925199574,None,423.2578925199574,None,423.2578925199574,None,,,,,,,,,,,,,203,2023-04-26_17h06.57.514,Main,2022.1.1,60.44407048677523,
positive,neutral,2,l,j,,,,,,,,,9,16,178,17,,,,,,,,,main,1,1,2,neutral,positive,j,j,1,0.6798112000105903,423.26063999999315,424.27458660001867,424.25798290001694,None,423.26063999999315,None,423.26063999999315,None,423.26063999999315,None,424.9391425199807,None,424.9391425199807,None,424.9391425199807,None,,,,,,,,,,,,,203,2023-04-26_17h06.57.514,Main,2022.1.1,60.44407048677523,
neutral,negative,1,k,k,,,,,,,,,9,17,179,7,,,,,,,,,main,2,2,1,negative,neutral,k,k,1,0.5840202999534085,424.9445629999973,425.9578812000109,425.9412566999672,None,424.9445629999973,None,424.9445629999973,None,424.9445629999973,None,426.52457611998545,None,426.52457611998545,None,426.52457611998545,None,,,,,,,,,,,,,203,2023-04-26_17h06.57.514,Main,2022.1.1,60.44407048677523,
negative,positive,1,j,l,,,,,,,,,10,0,180,6,,,,,,,,,main,1,1,1,positive,negative,l,l,1,0.7459317999891937,426.52725769998506,427.5387588000158,427.52199859998655,None,426.52725769998506,None,426.52725769998506,None,426.52725769998506,None,428.27201761994513,None,428.27201761994513,None,428.27201761994513,None,,,,,,,,,,,,,203,2023-04-26_17h06.57.514,Main,2022.1.1,60.44407048677523,
neutral,positive,1,k,k,,,,,,,,,10,1,181,4,,,,,,,,,main,2,2,1,positive,neutral,k,k,1,0.6153638999676332,428.27217869996093,429.2720481000142,429.2720481000142,None,428.27217869996093,None,428.27217869996093,None,428.27217869996093,None,429.88868372004947,None,429.88868372004947,None,429.88868372004947,None,,,,,,,,,,,,,203,2023-04-26_17h06.57.514,Main,2022.1.1,60.44407048677523,
neutral,neutral,1,k,k,,,,,,,,,10,2,182,1,,,,,,,,,main,2,2,1,neutral,neutral,k,k,1,0.6149996999884024,429.88886810000986,430.88867689995095,430.88867689995095,None,429.88886810000986,None,429.88886810000986,None,429.88886810000986,None,431.5053392199567,None,431.5053392199567,None,431.5053392199567,None,,,,,,,,,,,,,203,2023-04-26_17h06.57.514,Main,2022.1.1,60.44407048677523,
negative,neutral,1,j,l,,,,,,,,,10,3,183,3,,,,,,,,,main,1,1,1,neutral,negative,l,l,1,0.716857000021264,431.51142780005466,432.5244818000356,432.50791579997167,None,431.51142780005466,None,431.51142780005466,None,431.51142780005466,None,433.22437622004657,None,433.22437622004657,None,433.22437622004657,None,,,,,,,,,,,,,203,2023-04-26_17h06.57.514,Main,2022.1.1,60.44407048677523,
negative,positive,2,j,l,,,,,,,,,10,4,184,15,,,,,,,,,main,2,2,2,positive,negative,l,l,1,0.6303270000498742,433.22844490001444,434.2410676999716,434.2244603000581,None,433.22844490001444,None,433.22844490001444,None,433.22844490001444,None,434.85584571994843,None,434.85584571994843,None,434.85584571994843,None,,,,,,,,,,,,,203,2023-04-26_17h06.57.514,Main,2022.1.1,60.44407048677523,
neutral,negative,2,k,k,,,,,,,,,10,5,185,16,,,,,,,,,main,2,2,2,negative,neutral,k,k,1,0.5665484999772161,434.8744402000448,435.87435820000246,435.85773219994735,None,434.8744402000448,None,434.8744402000448,None,434.8744402000448,None,436.42436262001286,None,436.42436262001286,None,436.42436262001286,None,,,,,,,,,,,,,203,2023-04-26_17h06.57.514,Main,2022.1.1,60.44407048677523,
negative,neutral,2,j,l,,,,,,,,,10,6,186,12,,,,,,,,,main,1,1,2,neutral,negative,l,l,1,0.6653051999164745,436.4285531999776,437.4410546000581,437.42441870004404,None,436.4285531999776,None,436.4285531999776,None,436.4285531999776,None,438.0910151200602,None,438.0910151200602,None,438.0910151200602,None,,,,,,,,,,,,,203,2023-04-26_17h06.57.514,Main,2022.1.1,60.44407048677523,
negative,negative,1,j,l,,,,,,,,,10,7,187,0,,,,,,,,,main,1,1,1,negative,negative,l,l,1,0.8301131000043824,438.0937900999561,439.1050978000276,439.0884164000163,None,438.0937900999561,None,438.0937900999561,None,438.0937900999561,None,439.9217765199952,None,439.9217765199952,None,439.9217765199952,None,,,,,,,,,,,,,203,2023-04-26_17h06.57.514,Main,2022.1.1,60.44407048677523,
positive,neutral,2,l,j,,,,,,,,,10,8,188,17,,,,,,,,,main,1,1,2,neutral,positive,j,j,1,0.7319782000267878,439.92215120000765,440.9218028000323,440.9218028000323,None,439.92215120000765,None,439.92215120000765,None,439.92215120000765,None,441.6551335200435,None,441.6551335200435,None,441.6551335200435,None,,,,,,,,,,,,,203,2023-04-26_17h06.57.514,Main,2022.1.1,60.44407048677523,
positive,negative,2,l,j,,,,,,,,,10,9,189,14,,,,,,,,,main,1,1,2,negative,positive,j,j,1,0.6306938999332488,441.6564704000484,442.6717747000512,442.65511900000274,None,441.6564704000484,None,441.6564704000484,None,441.6564704000484,None,443.2884259199724,None,443.2884259199724,None,443.2884259199724,None,,,,,,,,,,,,,203,2023-04-26_17h06.57.514,Main,2022.1.1,60.44407048677523,
positive,positive,1,l,j,,,,,,,,,10,10,190,2,,,,,,,,,main,2,2,1,positive,positive,j,j,1,0.6821843000361696,443.2912853000453,444.2908575000474,444.2742883999599,None,443.2912853000453,None,443.2912853000453,None,443.2912853000453,None,444.97187541997994,None,444.97187541997994,None,444.97187541997994,None,,,,,,,,,,,,,203,2023-04-26_17h06.57.514,Main,2022.1.1,60.44407048677523,
positive,neutral,1,l,j,,,,,,,,,10,11,191,8,,,,,,,,,main,2,2,1,neutral,positive,j,j,1,0.6161010999931023,444.9784199000569,445.99085159995593,445.97417099995073,None,444.9784199000569,None,444.9784199000569,None,444.9784199000569,None,446.58868051997854,None,446.58868051997854,None,446.58868051997854,None,,,,,,,,,,,,,203,2023-04-26_17h06.57.514,Main,2022.1.1,60.44407048677523,
neutral,negative,1,k,k,,,,,,,,,10,12,192,7,,,,,,,,,main,1,1,1,negative,neutral,k,k,1,0.6307184000033885,446.5955459000543,447.60753639996983,447.5908973000478,None,446.5955459000543,None,446.5955459000543,None,446.5955459000543,None,448.2217876200099,None,448.2217876200099,None,448.2217876200099,None,,,,,,,,,,,,,203,2023-04-26_17h06.57.514,Main,2022.1.1,60.44407048677523,
neutral,neutral,2,k,k,,,,,,,,,10,13,193,10,,,,,,,,,main,2,2,2,neutral,neutral,k,k,1,0.6488407999277115,448.2281726000365,449.2408783000428,449.22422580001876,None,448.2281726000365,None,448.2281726000365,None,448.2281726000365,None,449.8720017200336,None,449.8720017200336,None,449.8720017200336,None,,,,,,,,,,,,,203,2023-04-26_17h06.57.514,Main,2022.1.1,60.44407048677523,
positive,positive,2,l,j,,,,,,,,,10,14,194,11,,,,,,,,,main,2,2,2,positive,positive,j,j,1,0.6144027000991628,449.87818400003016,450.89077930001076,450.87418749998324,None,449.87818400003016,None,449.87818400003016,None,449.87818400003016,None,451.48817561999897,None,451.48817561999897,None,451.48817561999897,None,,,,,,,,,,,,,203,2023-04-26_17h06.57.514,Main,2022.1.1,60.44407048677523,
neutral,positive,2,k,k,,,,,,,,,10,15,195,13,,,,,,,,,main,2,2,2,positive,neutral,k,k,1,0.6653804000234231,451.5049398000119,452.50492259999737,452.48841830005404,None,451.5049398000119,None,451.5049398000119,None,451.5049398000119,None,453.1548990200041,None,453.1548990200041,None,453.1548990200041,None,,,,,,,,,,,,,203,2023-04-26_17h06.57.514,Main,2022.1.1,60.44407048677523,
negative,negative,2,j,l,,,,,,,,,10,16,196,9,,,,,,,,,main,2,2,2,negative,negative,l,l,1,0.7648938000202179,453.1552772000432,454.1551027999958,454.1551027999958,None,453.1552772000432,None,453.1552772000432,None,453.1552772000432,None,454.9215569199529,None,454.9215569199529,None,454.9215569199529,None,,,,,,,,,,,,,203,2023-04-26_17h06.57.514,Main,2022.1.1,60.44407048677523,
positive,negative,1,l,j,,,,,,,,,10,17,197,5,,,,,,,,,main,1,1,1,negative,positive,j,j,1,0.6845415000570938,454.92176619998645,455.9218408999732,455.9218408999732,None,454.92176619998645,None,454.92176619998645,None,454.92176619998645,None,456.6074810200604,None,456.6074810200604,None,456.6074810200604,None,,,,,,,,,,,,,203,2023-04-26_17h06.57.514,Main,2022.1.1,60.44407048677523,
neutral,negative,1,k,k,,,,,,,,,11,0,198,7,,,,,,,,,main,1,1,1,negative,neutral,k,k,1,0.5644527999684215,456.610747299972,457.6239851999562,457.6073885000078,None,456.610747299972,None,456.610747299972,None,456.610747299972,None,458.17395771995655,None,458.17395771995655,None,458.17395771995655,None,,,,,,,,,,,,,203,2023-04-26_17h06.57.514,Main,2022.1.1,60.44407048677523,
positive,negative,1,l,j,,,,,,,,,11,1,199,5,,,,,,,,,main,1,1,1,negative,positive,j,j,1,0.6287593999877572,458.1777549999533,459.19068120000884,459.17415580002125,None,458.1777549999533,None,458.1777549999533,None,458.1777549999533,None,459.8048064200208,None,459.8048064200208,None,459.8048064200208,None,,,,,,,,,,,,,203,2023-04-26_17h06.57.514,Main,2022.1.1,60.44407048677523,
positive,negative,2,l,j,,,,,,,,,11,2,200,14,,,,,,,,,main,1,1,2,negative,positive,j,j,1,0.5482948999851942,459.8105903000105,460.82390239997767,460.7906365999952,None,459.8105903000105,None,459.8105903000105,None,459.8105903000105,None,461.3547485199757,None,461.3547485199757,None,461.3547485199757,None,,,,,,,,,,,,,203,2023-04-26_17h06.57.514,Main,2022.1.1,60.44407048677523,
neutral,positive,2,k,k,,,,,,,,,11,3,201,13,,,,,,,,,main,2,2,2,positive,neutral,k,k,1,0.6179788999725133,461.37389199994504,462.3738732000347,462.34061199997086,None,461.37389199994504,None,461.37389199994504,None,461.37389199994504,None,462.97384272005877,None,462.97384272005877,None,462.97384272005877,None,,,,,,,,,,,,,203,2023-04-26_17h06.57.514,Main,2022.1.1,60.44407048677523,
negative,positive,1,j,l,,,,,,,,,11,4,202,6,,,,,,,,,main,2,2,1,positive,negative,l,l,1,0.6625880999490619,462.9774426999502,463.9887785000028,463.9715326000005,None,462.9774426999502,None,462.9774426999502,None,462.9774426999502,None,464.6379729199922,None,464.6379729199922,None,464.6379729199922,None,,,,,,,,,,,,,203,2023-04-26_17h06.57.514,Main,2022.1.1,60.44407048677523,
positive,positive,2,l,j,,,,,,,,,11,5,203,11,,,,,,,,,main,1,1,2,positive,positive,j,j,1,0.5482310000807047,464.63815410004463,465.63799149997067,465.63799149997067,None,464.63815410004463,None,464.63815410004463,None,464.63815410004463,None,466.18799521997573,None,466.18799521997573,None,466.18799521997573,None,,,,,,,,,,,,,203,2023-04-26_17h06.57.514,Main,2022.1.1,60.44407048677523,
neutral,neutral,2,k,k,,,,,,,,,11,6,204,10,,,,,,,,,main,2,2,2,neutral,neutral,k,k,1,0.5840560999931768,466.18876140005887,467.1882099000504,467.1882099000504,None,466.18876140005887,None,466.18876140005887,None,466.18876140005887,None,467.77380072001836,None,467.77380072001836,None,467.77380072001836,None,,,,,,,,,,,,,203,2023-04-26_17h06.57.514,Main,2022.1.1,60.44407048677523,
negative,negative,1,j,l,,,,,,,,,11,7,205,0,,,,,,,,,main,2,2,1,negative,negative,l,l,1,0.6630861999001354,467.7780042999657,468.7904686999973,468.77384949999396,None,467.7780042999657,None,467.7780042999657,None,467.7780042999657,None,469.43829042001164,None,469.43829042001164,None,469.43829042001164,None,,,,,,,,,,,,,203,2023-04-26_17h06.57.514,Main,2022.1.1,60.44407048677523,
negative,negative,2,j,l,,,,,,,,,11,8,206,9,,,,,,,,,main,2,2,2,negative,negative,l,l,1,0.6671583000570536,469.4441361000063,470.45707120001316,470.4404765999643,None,469.4441361000063,None,469.4441361000063,None,469.4441361000063,None,471.10704702001533,None,471.10704702001533,None,471.10704702001533,None,,,,,,,,,,,,,203,2023-04-26_17h06.57.514,Main,2022.1.1,60.44407048677523,
positive,positive,1,l,j,,,,,,,,,11,9,207,2,,,,,,,,,main,1,1,1,positive,positive,j,j,1,0.5622697999933735,471.1104968000436,472.12368169997353,472.1070784999756,None,471.1104968000436,None,471.1104968000436,None,471.1104968000436,None,472.67121652003846,None,472.67121652003846,None,472.67121652003846,None,,,,,,,,,,,,,203,2023-04-26_17h06.57.514,Main,2022.1.1,60.44407048677523,
neutral,negative,2,k,k,,,,,,,,,11,10,208,16,,,,,,,,,main,1,1,2,negative,neutral,k,k,1,0.5675314000109211,472.67410870001186,473.67366660002153,473.6570617000107,None,472.67410870001186,None,472.67410870001186,None,472.67410870001186,None,474.2403207200347,None,474.2403207200347,None,474.2403207200347,None,,,,,,,,,,,,,203,2023-04-26_17h06.57.514,Main,2022.1.1,60.44407048677523,
negative,neutral,2,j,l,,,,,,,,,11,11,209,12,,,,,,,,,main,2,2,2,neutral,negative,l,l,1,0.6293745000148192,474.24295240000356,475.25437239999883,475.2377071999945,None,474.24295240000356,None,474.24295240000356,None,474.24295240000356,None,475.8709867199883,None,475.8709867199883,None,475.8709867199883,None,,,,,,,,,,,,,203,2023-04-26_17h06.57.514,Main,2022.1.1,60.44407048677523,
negative,neutral,1,j,l,,,,,,,,,11,12,210,3,,,,,,,,,main,2,2,1,neutral,negative,l,l,1,0.5512961000204086,475.87104390002787,476.87112340005115,476.87112340005115,None,475.87104390002787,None,475.87104390002787,None,475.87104390002787,None,477.4236686199671,None,477.4236686199671,None,477.4236686199671,None,,,,,,,,,,,,,203,2023-04-26_17h06.57.514,Main,2022.1.1,60.44407048677523,
neutral,positive,1,k,k,,,,,,,,,11,13,211,4,,,,,,,,,main,1,1,1,positive,neutral,k,k,1,0.531453000032343,477.4322582000168,478.44024340005126,478.4236114999512,None,477.4322582000168,None,477.4322582000168,None,477.4322582000168,None,478.95698201996277,None,478.95698201996277,None,478.95698201996277,None,,,,,,,,,,,,,203,2023-04-26_17h06.57.514,Main,2022.1.1,60.44407048677523,
positive,neutral,1,l,j,,,,,,,,,11,14,212,8,,,,,,,,,main,2,2,1,neutral,positive,j,j,1,0.5122997999424115,478.960737299989,479.973572100047,479.9569229000481,None,478.960737299989,None,478.960737299989,None,478.960737299989,None,480.47104052002544,None,480.47104052002544,None,480.47104052002544,None,,,,,,,,,,,,,203,2023-04-26_17h06.57.514,Main,2022.1.1,60.44407048677523,
negative,positive,2,j,l,,,,,,,,,11,15,213,15,,,,,,,,,main,2,2,2,positive,negative,l,l,1,0.6163946000160649,480.4772442999529,481.49015900003724,481.4735472999746,None,480.4772442999529,None,480.4772442999529,None,480.4772442999529,None,482.0876721199835,None,482.0876721199835,None,482.0876721199835,None,,,,,,,,,,,,,203,2023-04-26_17h06.57.514,Main,2022.1.1,60.44407048677523,
neutral,neutral,1,k,k,,,,,,,,,11,16,214,1,,,,,,,,,main,2,2,1,neutral,neutral,k,k,1,0.5662371000507846,482.0947784000309,483.10679490002804,483.0902055000188,None,482.0947784000309,None,482.0947784000309,None,482.0947784000309,None,483.6567494200077,None,483.6567494200077,None,483.6567494200077,None,,,,,,,,,,,,,203,2023-04-26_17h06.57.514,Main,2022.1.1,60.44407048677523,
positive,neutral,2,l,j,,,,,,,,,11,17,215,17,,,,,,,,,main,1,1,2,neutral,positive,j,j,1,0.5292647000169381,483.6599827000173,484.6709422999993,484.654190500034,None,483.6599827000173,None,483.6599827000173,None,483.6599827000173,None,485.18756441995504,None,485.18756441995504,None,485.18756441995504,None,,,,,,,,,,,,,203,2023-04-26_17h06.57.514,Main,2022.1.1,60.44407048677523,
negative,neutral,2,j,l,,,,,,,,,12,0,216,12,,,,,,,,,main,1,1,2,neutral,negative,l,l,1,0.7815325000556186,485.18756220000796,486.18760309997015,486.18760309997015,None,485.18756220000796,None,485.18756220000796,None,485.18756220000796,None,486.970899319998,None,486.970899319998,None,486.970899319998,None,,,,,,,,,,,,,203,2023-04-26_17h06.57.514,Main,2022.1.1,60.44407048677523,
negative,negative,1,j,l,,,,,,,,,12,1,217,0,,,,,,,,,main,2,2,1,negative,negative,l,l,1,0.6986242999555543,486.9720069000032,487.98758960003033,487.9709032999817,None,486.9720069000032,None,486.9720069000032,None,486.9720069000032,None,488.67089622004426,None,488.67089622004426,None,488.67089622004426,None,,,,,,,,,,,,,203,2023-04-26_17h06.57.514,Main,2022.1.1,60.44407048677523,
negative,positive,1,j,l,,,,,,,,,12,2,218,6,,,,,,,,,main,2,2,1,positive,negative,l,l,1,0.5843335000099614,488.6742733999854,489.6734356000088,489.6734356000088,None,488.6742733999854,None,488.6742733999854,None,488.6742733999854,None,490.2566155200126,None,490.2566155200126,None,490.2566155200126,None,,,,,,,,,,,,,203,2023-04-26_17h06.57.514,Main,2022.1.1,60.44407048677523,
positive,neutral,1,l,j,,,,,,,,,12,3,219,8,,,,,,,,,main,2,2,1,neutral,positive,j,j,1,0.6624545999802649,490.25996419996955,491.2733307000017,491.25672810000833,None,490.25996419996955,None,490.25996419996955,None,490.25996419996955,None,491.92095162000044,None,491.92095162000044,None,491.92095162000044,None,,,,,,,,,,,,,203,2023-04-26_17h06.57.514,Main,2022.1.1,60.44407048677523,
neutral,negative,2,k,k,,,,,,,,,12,4,220,16,,,,,,,,,main,1,1,2,negative,neutral,k,k,1,0.6000086000422016,491.9400678999955,492.93994870001916,492.9233569999924,None,491.9400678999955,None,491.9400678999955,None,491.9400678999955,None,493.5231600200292,None,493.5231600200292,None,493.5231600200292,None,,,,,,,,,,,,,203,2023-04-26_17h06.57.514,Main,2022.1.1,60.44407048677523,
positive,neutral,2,l,j,,,,,,,,,12,5,221,17,,,,,,,,,main,1,1,2,neutral,positive,j,j,1,0.6820265999995172,493.52606529998593,494.53984890005086,494.5233346000314,None,493.52606529998593,None,493.52606529998593,None,493.52606529998593,None,495.20666461999065,None,495.20666461999065,None,495.20666461999065,None,,,,,,,,,,,,,203,2023-04-26_17h06.57.514,Main,2022.1.1,60.44407048677523,
positive,positive,2,l,j,,,,,,,,,12,6,222,11,,,,,,,,,main,1,1,2,positive,positive,j,j,1,0.5957962999818847,495.2097749999957,496.2363883999642,496.2140974999638,None,495.2097749999957,None,495.2097749999957,None,495.2097749999957,None,496.80397801999936,None,496.80397801999936,None,496.80397801999936,None,,,,,,,,,,,,,203,2023-04-26_17h06.57.514,Main,2022.1.1,60.44407048677523,
positive,negative,1,l,j,,,,,,,,,12,7,223,5,,,,,,,,,main,2,2,1,negative,positive,j,j,1,0.5818968000821769,496.80401700001676,497.8039871000219,497.8039871000219,None,496.80401700001676,None,496.80401700001676,None,496.80401700001676,None,498.38734091995286,None,498.38734091995286,None,498.38734091995286,None,,,,,,,,,,,,,203,2023-04-26_17h06.57.514,Main,2022.1.1,60.44407048677523,
