target,distractor,set,ans1,ans2,rep_loop2.thisRepN,rep_loop2.thisTrialN,rep_loop2.thisN,rep_loop2.thisIndex,flanker_prac_loop.thisRepN,flanker_prac_loop.thisTrialN,flanker_prac_loop.thisN,flanker_prac_loop.thisIndex,flanker_main_loop.thisRepN,flanker_main_loop.thisTrialN,flanker_main_loop.thisN,flanker_main_loop.thisIndex,fl_inst_resp.keys,fl_inst_resp.rt,sound_1.started,sound_1.stopped,image_4.started,image_4.stopped,back_2.started,back_2.stopped,main_prac,fl_cold,fl_colt,fl_set,fl_dcond,fl_tcond,fl_ans,fl_res,fl_corr,fl_rt,fix_fl.started,fix_fl.stopped,targ.started,targ.stopped,j_button.started,j_button.stopped,k_button.started,k_button.stopped,l_button.started,l_button.stopped,j_button2.started,j_button2.stopped,k_button2.started,k_button2.stopped,l_button2.started,l_button2.stopped,mainback.started,mainback.stopped,key_resp.keys,key_resp.rt,mouse_6.x,mouse_6.y,mouse_6.leftButton,mouse_6.midButton,mouse_6.rightButton,mouse_6.started,mouse_6.stopped,text_2.started,text_2.stopped,id*,date,expName,psychopyVersion,frameRate,
,,,,,0,0,0,0,,,,,,,,,space,11.385568500030786,29.10448316996917,None,40.52088119997643,None,,,,,,,,,,,,,,,,,,,,,,,,,,,,,,,,,,,,,,,,,,206,2023-04-21_10h19.32.383,Main,2022.1.1,60.0670227978992,
neutral,neutral,1,k,k,,,,,0,0,0,1,,,,,,,,,,,46.854227099975105,None,prac,1,1,1,neutral,neutral,k,k,1,1.3023170999949798,48.88449359999504,49.88744889997179,49.87079299998004,None,48.88449359999504,None,48.88449359999504,None,48.88449359999504,None,51.187308569962624,None,51.187308569962624,None,51.187308569962624,None,,,,,,,,,,,,,,206,2023-04-21_10h19.32.383,Main,2022.1.1,60.0670227978992,
positive,negative,2,l,j,,,,,0,1,1,14,,,,,,,,,,,,,prac,2,2,2,negative,positive,l,l,1,1.1626880000112578,51.191163299954496,52.20196259999648,52.18750120000914,None,51.191163299954496,None,51.191163299954496,None,51.191163299954496,None,53.351892769976985,None,53.351892769976985,None,53.351892769976985,None,,,,,,,,,,,,,,206,2023-04-21_10h19.32.383,Main,2022.1.1,60.0670227978992,
neutral,positive,1,k,k,,,,,0,2,2,4,,,,,,,,,,,,,prac,1,1,1,positive,neutral,k,k,1,0.9008303000009619,53.35841529996833,54.37071009998908,54.35406639997382,None,53.35841529996833,None,53.35841529996833,None,53.35841529996833,None,55.254052669974044,None,55.254052669974044,None,55.254052669974044,None,,,,,,,,,,,,,,206,2023-04-21_10h19.32.383,Main,2022.1.1,60.0670227978992,
positive,neutral,2,l,j,,,,,0,3,3,17,,,,,,,,,,,,,prac,2,2,2,neutral,positive,l,l,1,0.8469842000049539,55.25707269995473,56.27076549996855,56.25412529997993,None,55.25707269995473,None,55.25707269995473,None,55.25707269995473,None,57.101841569994576,None,57.101841569994576,None,57.101841569994576,None,,,,,,,,,,,,,,206,2023-04-21_10h19.32.383,Main,2022.1.1,60.0670227978992,
neutral,negative,2,k,k,,,,,0,4,4,16,,,,,,,,,,,,,prac,1,1,2,negative,neutral,k,k,1,0.6308123999624513,57.10578949999763,58.11805729998741,58.10140899999533,None,57.10578949999763,None,57.10578949999763,None,57.10578949999763,None,58.73470696998993,None,58.73470696998993,None,58.73470696998993,None,,,,,,,,,,,,,,206,2023-04-21_10h19.32.383,Main,2022.1.1,60.0670227978992,
negative,negative,1,j,l,,,,,0,5,5,0,,,,,,,,,,,,,prac,1,1,1,negative,negative,j,j,1,0.6823566000093706,58.737704399973154,59.751404999988154,59.73472439998295,None,58.737704399973154,None,58.737704399973154,None,58.737704399973154,None,60.41806547000306,None,60.41806547000306,None,60.41806547000306,None,,,,,,,,,,,,,,206,2023-04-21_10h19.32.383,Main,2022.1.1,60.0670227978992,
negative,neutral,1,j,l,,,,,0,6,6,3,,,,,,,,,,,,,prac,1,1,1,neutral,negative,j,j,1,0.648922800028231,60.418183300003875,61.418143999995664,61.418143999995664,None,60.418183300003875,None,60.418183300003875,None,60.418183300003875,None,62.06803086999571,None,62.06803086999571,None,62.06803086999571,None,,,,,,,,,,,,,,206,2023-04-21_10h19.32.383,Main,2022.1.1,60.0670227978992,
positive,neutral,1,l,j,,,,,0,7,7,8,,,,,,,,,,,,,prac,1,1,1,neutral,positive,l,l,1,0.8320638000150211,62.071830499975476,63.087216799962334,63.07056249998277,None,62.071830499975476,None,62.071830499975476,None,62.071830499975476,None,63.90169336996041,None,63.90169336996041,None,63.90169336996041,None,,,,,,,,,,,,,,206,2023-04-21_10h19.32.383,Main,2022.1.1,60.0670227978992,
neutral,negative,1,k,k,,,,,0,8,8,7,,,,,,,,,,,,,prac,1,1,1,negative,neutral,k,k,1,0.6175999999977648,63.90551539999433,64.92053619999206,64.887307099998,None,63.90551539999433,None,63.90551539999433,None,63.90551539999433,None,65.52039906999562,None,65.52039906999562,None,65.52039906999562,None,,,,,,,,,,,,,,206,2023-04-21_10h19.32.383,Main,2022.1.1,60.0670227978992,
negative,neutral,2,j,l,,,,,0,9,9,12,,,,,,,,,,,,,prac,1,1,2,neutral,negative,j,j,1,0.746474199986551,65.52393609995488,66.53719030000502,66.52053739997791,None,65.52393609995488,None,65.52393609995488,None,65.52393609995488,None,67.26828046998708,None,67.26828046998708,None,67.26828046998708,None,,,,,,,,,,,,,,206,2023-04-21_10h19.32.383,Main,2022.1.1,60.0670227978992,
positive,positive,1,l,j,,,,,0,10,10,2,,,,,,,,,,,,,prac,2,2,1,positive,positive,l,l,1,0.751177900005132,67.27172359998804,68.28700630000094,68.27058779995423,None,67.27172359998804,None,67.27172359998804,None,67.27172359998804,None,69.02040976996068,None,69.02040976996068,None,69.02040976996068,None,,,,,,,,,,,,,,206,2023-04-21_10h19.32.383,Main,2022.1.1,60.0670227978992,
positive,negative,1,l,j,,,,,0,11,11,5,,,,,,,,,,,,,prac,2,2,1,negative,positive,l,l,1,0.6960320999496616,69.02429380000103,70.03039510000963,70.03039510000963,None,69.02429380000103,None,69.02429380000103,None,69.02429380000103,None,70.71783906995552,None,70.71783906995552,None,70.71783906995552,None,,,,,,,,,,,,,,206,2023-04-21_10h19.32.383,Main,2022.1.1,60.0670227978992,
negative,positive,2,j,l,,,,,0,12,12,15,,,,,,,,,,,,,prac,2,2,2,positive,negative,j,j,1,0.8486006000312045,70.71783919999143,71.71784969995497,71.71784969995497,None,70.71783919999143,None,70.71783919999143,None,70.71783919999143,None,72.56784586998401,None,72.56784586998401,None,72.56784586998401,None,,,,,,,,,,,,,,206,2023-04-21_10h19.32.383,Main,2022.1.1,60.0670227978992,
positive,positive,2,l,j,,,,,0,13,13,11,,,,,,,,,,,,,prac,2,2,2,positive,positive,l,l,1,0.7345518000074662,72.5741669999552,73.58709619997535,73.57035709999036,None,72.5741669999552,None,72.5741669999552,None,72.5741669999552,None,74.30357436998747,None,74.30357436998747,None,74.30357436998747,None,,,,,,,,,,,,,,206,2023-04-21_10h19.32.383,Main,2022.1.1,60.0670227978992,
negative,negative,2,j,l,,,,,0,14,14,9,,,,,,,,,,,,,prac,2,2,2,negative,negative,j,j,1,0.6985502000316046,74.30730300000869,75.32035890000407,75.3037133999751,None,74.30730300000869,None,74.30730300000869,None,74.30730300000869,None,76.0035914699547,None,76.0035914699547,None,76.0035914699547,None,,,,,,,,,,,,,,206,2023-04-21_10h19.32.383,Main,2022.1.1,60.0670227978992,
neutral,positive,2,k,k,,,,,0,15,15,13,,,,,,,,,,,,,prac,2,2,2,positive,neutral,k,k,1,0.6637136000208557,76.00629140000092,77.0181071999832,77.0036478000111,None,76.00629140000092,None,76.00629140000092,None,76.00629140000092,None,77.66815506998682,None,77.66815506998682,None,77.66815506998682,None,,,,,,,,,,,,,,206,2023-04-21_10h19.32.383,Main,2022.1.1,60.0670227978992,
neutral,neutral,2,k,k,,,,,0,16,16,10,,,,,,,,,,,,,prac,1,1,2,neutral,neutral,k,k,1,0.5834671999909915,77.67404059995897,78.68690019997302,78.6702546000015,None,77.67404059995897,None,77.67404059995897,None,77.67404059995897,None,79.25344096997287,None,79.25344096997287,None,79.25344096997287,None,,,,,,,,,,,,,,206,2023-04-21_10h19.32.383,Main,2022.1.1,60.0670227978992,
negative,positive,1,j,l,,,,,0,17,17,6,,,,,,,,,,,,,prac,1,1,1,positive,negative,j,j,1,0.6786457999842241,79.25717539998004,80.2572274999693,80.2572274999693,None,79.25717539998004,None,79.25717539998004,None,79.25717539998004,None,80.93420396995498,None,80.93420396995498,None,80.93420396995498,None,,,,,,,,,,,,,,206,2023-04-21_10h19.32.383,Main,2022.1.1,60.0670227978992,
negative,neutral,1,j,l,,,,,1,0,18,3,,,,,,,,,,,,,prac,1,1,1,neutral,negative,j,j,1,0.7156531999935396,80.9342790999799,81.93431260000216,81.93431260000216,None,80.9342790999799,None,80.9342790999799,None,80.9342790999799,None,82.65100016997894,None,82.65100016997894,None,82.65100016997894,None,,,,,,,,,,,,,,206,2023-04-21_10h19.32.383,Main,2022.1.1,60.0670227978992,
negative,negative,2,j,l,,,,,1,1,19,9,,,,,,,,,,,,,prac,2,2,2,negative,negative,j,j,1,0.8677220999961719,82.65392569999676,83.65343629999552,83.6368431999581,None,82.65392569999676,None,82.65392569999676,None,82.65392569999676,None,84.51999736996368,None,84.51999736996368,None,84.51999736996368,None,,,,,,,,,,,,,,206,2023-04-21_10h19.32.383,Main,2022.1.1,60.0670227978992,
positive,negative,2,l,j,,,,,1,2,20,14,,,,,,,,,,,,,prac,1,1,2,negative,positive,l,l,1,0.8485754000139423,84.52303959999699,85.53684359998442,85.52014669997152,None,84.52303959999699,None,84.52303959999699,None,84.52303959999699,None,86.37000196997542,None,86.37000196997542,None,86.37000196997542,None,,,,,,,,,,,,,,206,2023-04-21_10h19.32.383,Main,2022.1.1,60.0670227978992,
negative,positive,2,j,l,,,,,1,3,21,15,,,,,,,,,,,,,prac,2,2,2,positive,negative,j,j,1,0.7133460000040941,86.37331549997907,87.38673199998448,87.37016180000501,None,86.37331549997907,None,86.37331549997907,None,86.37331549997907,None,88.084495469986,None,88.084495469986,None,88.084495469986,None,,,,,,,,,,,,,,206,2023-04-21_10h19.32.383,Main,2022.1.1,60.0670227978992,
positive,positive,2,l,j,,,,,1,4,22,11,,,,,,,,,,,,,prac,1,1,2,positive,positive,l,l,1,1.6185000999830663,88.09071339998627,89.1012214999646,89.08669979998376,None,88.09071339998627,None,88.09071339998627,None,88.09071339998627,None,90.70793749997392,None,90.70793749997392,None,90.70793749997392,None,,,,,,,,,,,,,,206,2023-04-21_10h19.32.383,Main,2022.1.1,60.0670227978992,
positive,negative,1,l,j,,,,,1,5,23,5,,,,,,,,,,,,,prac,1,1,1,negative,positive,l,l,1,0.8202805999899283,91.71744539996143,92.71741699997801,92.70074890000978,None,91.71744539996143,None,91.71744539996143,None,91.71744539996143,None,93.53407656995114,None,93.53407656995114,None,93.53407656995114,None,,,,,,,,,,,,,,206,2023-04-21_10h19.32.383,Main,2022.1.1,60.0670227978992,
neutral,negative,1,k,k,,,,,1,6,24,7,,,,,,,,,,,,,prac,1,1,1,negative,neutral,k,k,1,0.632071600004565,93.55078309995588,94.55323339998722,94.51997099997243,None,93.55078309995588,None,93.55078309995588,None,93.55078309995588,None,95.16738577000797,None,95.16738577000797,None,95.16738577000797,None,,,,,,,,,,,,,,206,2023-04-21_10h19.32.383,Main,2022.1.1,60.0670227978992,
positive,positive,1,l,j,,,,,1,7,25,2,,,,,,,,,,,,,prac,2,2,1,positive,positive,l,l,1,0.7661984000005759,95.17138809995959,96.18441230000462,96.16991329996381,None,95.17138809995959,None,95.17138809995959,None,95.17138809995959,None,96.93516506999731,None,96.93516506999731,None,96.93516506999731,None,,,,,,,,,,,,,,206,2023-04-21_10h19.32.383,Main,2022.1.1,60.0670227978992,
negative,neutral,2,j,l,,,,,1,8,26,12,,,,,,,,,,,,,prac,1,1,2,neutral,negative,j,j,1,0.7332501000491902,96.94106789998477,97.95324850000907,97.9365421999828,None,96.94106789998477,None,96.94106789998477,None,96.94106789998477,None,98.66975856997306,None,98.66975856997306,None,98.66975856997306,None,,,,,,,,,,,,,,206,2023-04-21_10h19.32.383,Main,2022.1.1,60.0670227978992,
positive,neutral,2,l,j,,,,,1,9,27,17,,,,,,,,,,,,,prac,1,1,2,neutral,positive,l,l,1,0.7135038000415079,98.672489199962,99.68653839995386,99.66992539999774,None,98.672489199962,None,98.672489199962,None,98.672489199962,None,100.38457266998012,None,100.38457266998012,None,100.38457266998012,None,,,,,,,,,,,,,,206,2023-04-21_10h19.32.383,Main,2022.1.1,60.0670227978992,
negative,negative,1,j,l,,,,,1,10,28,0,,,,,,,,,,,,,prac,1,1,1,negative,negative,j,j,1,0.7146980999968946,100.39069430000382,101.4135735000018,101.39119219995337,None,100.39069430000382,None,100.39069430000382,None,100.39069430000382,None,102.10046056995634,None,102.10046056995634,None,102.10046056995634,None,,,,,,,,,,,,,,206,2023-04-21_10h19.32.383,Main,2022.1.1,60.0670227978992,
neutral,positive,1,k,k,,,,,1,11,29,4,,,,,,,,,,,,,prac,2,2,1,positive,neutral,k,k,1,0.6321593999746256,102.10069839999778,103.10055380000267,103.10055380000267,None,102.10069839999778,None,102.10069839999778,None,102.10069839999778,None,103.73386476997985,None,103.73386476997985,None,103.73386476997985,None,,,,,,,,,,,,,,206,2023-04-21_10h19.32.383,Main,2022.1.1,60.0670227978992,
positive,neutral,1,l,j,,,,,1,12,30,8,,,,,,,,,,,,,prac,1,1,1,neutral,positive,l,l,1,0.7346005999715999,103.73929559998214,104.75306449999334,104.71984809997957,None,103.73929559998214,None,103.73929559998214,None,103.73929559998214,None,105.46960936998948,None,105.46960936998948,None,105.46960936998948,None,,,,,,,,,,,,,,206,2023-04-21_10h19.32.383,Main,2022.1.1,60.0670227978992,
neutral,neutral,2,k,k,,,,,1,13,31,10,,,,,,,,,,,,,prac,2,2,2,neutral,neutral,k,k,1,0.7629151999717578,105.47280160000082,106.48632279998856,106.46970680000959,None,105.47280160000082,None,105.47280160000082,None,105.47280160000082,None,107.23393296997529,None,107.23393296997529,None,107.23393296997529,None,,,,,,,,,,,,,,206,2023-04-21_10h19.32.383,Main,2022.1.1,60.0670227978992,
neutral,positive,2,k,k,,,,,1,14,32,13,,,,,,,,,,,,,prac,2,2,2,positive,neutral,k,k,1,0.6320104000042193,107.24030119995587,108.25305050000316,108.23641289997613,None,107.24030119995587,None,107.24030119995587,None,107.24030119995587,None,108.86744826997165,None,108.86744826997165,None,108.86744826997165,None,,,,,,,,,,,,,,206,2023-04-21_10h19.32.383,Main,2022.1.1,60.0670227978992,
neutral,negative,2,k,k,,,,,1,15,33,16,,,,,,,,,,,,,prac,2,2,2,negative,neutral,k,k,1,0.6842912000138313,108.87362159998156,109.88631109998096,109.85306399996625,None,108.87362159998156,None,108.87362159998156,None,108.87362159998156,None,110.55286946997512,None,110.55286946997512,None,110.55286946997512,None,,,,,,,,,,,,,,206,2023-04-21_10h19.32.383,Main,2022.1.1,60.0670227978992,
negative,positive,1,j,l,,,,,1,16,34,6,,,,,,,,,,,,,prac,1,1,1,positive,negative,j,j,1,0.6293456999701448,110.55579620000208,111.56964070000686,111.5529943999718,None,110.55579620000208,None,110.55579620000208,None,110.55579620000208,None,112.18358106998494,None,112.18358106998494,None,112.18358106998494,None,,,,,,,,,,,,,,206,2023-04-21_10h19.32.383,Main,2022.1.1,60.0670227978992,
neutral,neutral,1,k,k,,,,,1,17,35,1,,,,,,,,,,,,,prac,1,1,1,neutral,neutral,k,k,1,0.7653009999776259,112.18367160001071,113.18366599996807,113.18366599996807,None,112.18367160001071,None,112.18367160001071,None,112.18367160001071,None,113.9503269699635,None,113.9503269699635,None,113.9503269699635,None,,,,,,,,,,,,,,206,2023-04-21_10h19.32.383,Main,2022.1.1,60.0670227978992,
,,,,,,,,,,,,,,,,,,,,,,,,,,,,,,,,,,,,,,,,,,,,,,,,,,,113.9503657000023,None,space,7.075978100008797,,,,,,,,,,206,2023-04-21_10h19.32.383,Main,2022.1.1,60.0670227978992,
,,,,,,,,,,,,,,,,,,,,,,,,,,,,,,,,,,,,,,,,,,,,,,,,,,,,,,,0.0129629625,0.0027777778,0,0,0,0.011137270019389689,None,,,206,2023-04-21_10h19.32.383,Main,2022.1.1,60.0670227978992,
negative,neutral,2,j,l,,,,,,,,,0,0,0,12,,,,,,,121.05278389999876,None,main,1,1,2,neutral,negative,j,j,1,0.7777491000015289,123.0574035999598,124.06680589995813,124.0501532999915,None,123.0574035999598,None,123.0574035999598,None,123.0574035999598,None,124.83339876995888,None,124.83339876995888,None,124.83339876995888,None,,,,,,,,,,,,,,206,2023-04-21_10h19.32.383,Main,2022.1.1,60.0670227978992,
negative,neutral,1,j,l,,,,,,,,,0,1,1,3,,,,,,,,,main,2,2,1,neutral,negative,j,j,1,0.7819898999878205,124.83404250000603,125.8359599999967,125.8359599999967,None,124.83404250000603,None,124.83404250000603,None,124.83404250000603,None,126.61710226995638,None,126.61710226995638,None,126.61710226995638,None,,,,,,,,,,,,,,206,2023-04-21_10h19.32.383,Main,2022.1.1,60.0670227978992,
positive,neutral,2,l,j,,,,,,,,,0,2,2,17,,,,,,,,,main,2,2,2,neutral,positive,l,l,1,0.6830769999651238,126.62127619999228,127.63586280000163,127.61938950000331,None,126.62127619999228,None,126.62127619999228,None,126.62127619999228,None,128.30248696997296,None,128.30248696997296,None,128.30248696997296,None,,,,,,,,,,,,,,206,2023-04-21_10h19.32.383,Main,2022.1.1,60.0670227978992,
neutral,positive,1,k,k,,,,,,,,,0,3,3,4,,,,,,,,,main,2,2,1,positive,neutral,k,k,1,0.6183505000080913,128.3065743999905,129.3192429000046,129.30254269996658,None,128.3065743999905,None,128.3065743999905,None,128.3065743999905,None,129.91910006996477,None,129.91910006996477,None,129.91910006996477,None,,,,,,,,,,,,,,206,2023-04-21_10h19.32.383,Main,2022.1.1,60.0670227978992,
positive,neutral,1,l,j,,,,,,,,,0,4,4,8,,,,,,,,,main,2,2,1,neutral,positive,l,l,1,0.7454011999652721,129.9260415000026,130.93588339997223,130.91924179997295,None,129.9260415000026,None,129.9260415000026,None,129.9260415000026,None,131.66910856997129,None,131.66910856997129,None,131.66910856997129,None,,,,,,,,,,,,,,206,2023-04-21_10h19.32.383,Main,2022.1.1,60.0670227978992,
positive,negative,2,l,j,,,,,,,,,0,5,5,14,,,,,,,,,main,2,2,2,negative,positive,l,l,1,0.8163010999560356,131.67254830000456,132.68570049997652,132.66695909999544,None,131.67254830000456,None,131.67254830000456,None,131.67254830000456,None,133.48724276997382,None,133.48724276997382,None,133.48724276997382,None,,,,,,,,,,,,,,206,2023-04-21_10h19.32.383,Main,2022.1.1,60.0670227978992,
neutral,neutral,2,k,k,,,,,,,,,0,6,6,10,,,,,,,,,main,2,2,2,neutral,neutral,k,k,1,0.7277658000239171,133.5001176999649,134.50223609997192,134.4834880999988,None,133.5001176999649,None,133.5001176999649,None,133.5001176999649,None,135.21676737000234,None,135.21676737000234,None,135.21676737000234,None,,,,,,,,,,,,,,206,2023-04-21_10h19.32.383,Main,2022.1.1,60.0670227978992,
neutral,positive,2,k,k,,,,,,,,,0,7,7,13,,,,,,,,,main,2,2,2,positive,neutral,k,k,1,0.5984028999810107,135.22031859995332,136.23348459997214,136.21680210001068,None,135.22031859995332,None,135.22031859995332,None,135.22031859995332,None,136.81674807000672,None,136.81674807000672,None,136.81674807000672,None,,,,,,,,,,,,,,206,2023-04-21_10h19.32.383,Main,2022.1.1,60.0670227978992,
positive,negative,1,l,j,,,,,,,,,0,8,8,5,,,,,,,,,main,2,2,1,negative,positive,l,l,1,0.666035300004296,136.8204839999671,137.83343259996036,137.81676009995863,None,136.8204839999671,None,136.8204839999671,None,136.8204839999671,None,138.48341066995636,None,138.48341066995636,None,138.48341066995636,None,,,,,,,,,,,,,,206,2023-04-21_10h19.32.383,Main,2022.1.1,60.0670227978992,
negative,positive,1,j,l,,,,,,,,,0,9,9,6,,,,,,,,,main,2,2,1,positive,negative,j,j,1,0.7315488000167534,138.4879197999835,139.5021657999605,139.48343550000573,None,138.4879197999835,None,138.4879197999835,None,138.4879197999835,None,140.21671586995944,None,140.21671586995944,None,140.21671586995944,None,,,,,,,,,,,,,,206,2023-04-21_10h19.32.383,Main,2022.1.1,60.0670227978992,
negative,positive,2,j,l,,,,,,,,,0,10,10,15,,,,,,,,,main,1,1,2,positive,negative,j,j,1,0.7138484999886714,140.22133939998457,141.23340599995572,141.2188679999672,None,140.22133939998457,None,140.22133939998457,None,140.22133939998457,None,141.9333700700081,None,141.9333700700081,None,141.9333700700081,None,,,,,,,,,,,,,,206,2023-04-21_10h19.32.383,Main,2022.1.1,60.0670227978992,
neutral,neutral,1,k,k,,,,,,,,,0,11,11,1,,,,,,,,,main,1,1,1,neutral,neutral,k,k,1,0.713982000015676,141.93943349999608,142.95209029997932,142.93339679995552,None,141.93943349999608,None,141.93943349999608,None,141.93943349999608,None,143.64997957000742,None,143.64997957000742,None,143.64997957000742,None,,,,,,,,,,,,,,206,2023-04-21_10h19.32.383,Main,2022.1.1,60.0670227978992,
negative,negative,1,j,l,,,,,,,,,0,12,12,0,,,,,,,,,main,2,2,1,negative,negative,j,j,1,0.7509317999938503,143.6687804000103,144.68544189998647,144.65004069998395,None,143.6687804000103,None,143.6687804000103,None,143.6687804000103,None,145.4021019699867,None,145.4021019699867,None,145.4021019699867,None,,,,,,,,,,,,,,206,2023-04-21_10h19.32.383,Main,2022.1.1,60.0670227978992,
neutral,negative,1,k,k,,,,,,,,,0,13,13,7,,,,,,,,,main,2,2,1,negative,neutral,k,k,1,0.8283900000387803,145.4063769999775,146.4163040999556,146.39964329998475,None,145.4063769999775,None,145.4063769999775,None,145.4063769999775,None,147.2328791699838,None,147.2328791699838,None,147.2328791699838,None,,,,,,,,,,,,,,206,2023-04-21_10h19.32.383,Main,2022.1.1,60.0670227978992,
neutral,negative,2,k,k,,,,,,,,,0,14,14,16,,,,,,,,,main,1,1,2,negative,neutral,k,k,1,0.6651582999620587,147.23302869999316,148.23303539998597,148.23303539998597,None,147.23302869999316,None,147.23302869999316,None,147.23302869999316,None,148.89963046996854,None,148.89963046996854,None,148.89963046996854,None,,,,,,,,,,,,,,206,2023-04-21_10h19.32.383,Main,2022.1.1,60.0670227978992,
positive,positive,1,l,j,,,,,,,,,0,15,15,2,,,,,,,,,main,1,1,1,positive,positive,l,l,1,0.7185792999807745,148.9053775999928,149.9188473999966,149.90208649996202,None,148.9053775999928,None,148.9053775999928,None,148.9053775999928,None,150.61871816997882,None,150.61871816997882,None,150.61871816997882,None,,,,,,,,,,,,,,206,2023-04-21_10h19.32.383,Main,2022.1.1,60.0670227978992,
negative,negative,2,j,l,,,,,,,,,0,16,16,9,,,,,,,,,main,1,1,2,negative,negative,j,j,1,0.8285820999881253,150.6227904999978,151.6354483999894,151.6188986999914,None,150.6227904999978,None,150.6227904999978,None,150.6227904999978,None,152.44988656998612,None,152.44988656998612,None,152.44988656998612,None,,,,,,,,,,,,,,206,2023-04-21_10h19.32.383,Main,2022.1.1,60.0670227978992,
positive,positive,2,l,j,,,,,,,,,0,17,17,11,,,,,,,,,main,1,1,2,positive,positive,l,l,1,0.7151237000362016,152.45586579997325,153.46879069996066,153.45217199996114,None,152.45586579997325,None,152.45586579997325,None,152.45586579997325,None,154.16654206998646,None,154.16654206998646,None,154.16654206998646,None,,,,,,,,,,,,,,206,2023-04-21_10h19.32.383,Main,2022.1.1,60.0670227978992,
positive,negative,1,l,j,,,,,,,,,1,0,18,5,,,,,,,,,main,2,2,1,negative,positive,l,l,1,0.7171837000059895,154.17051239998545,155.18536969996057,155.16869969997788,None,154.17051239998545,None,154.17051239998545,None,154.17051239998545,None,155.8852836699807,None,155.8852836699807,None,155.8852836699807,None,,,,,,,,,,,,,,206,2023-04-21_10h19.32.383,Main,2022.1.1,60.0670227978992,
positive,neutral,1,l,j,,,,,,,,,1,1,19,8,,,,,,,,,main,1,1,1,neutral,positive,l,l,1,0.6633898000000045,155.88866419997066,156.89964570000302,156.88527899998007,None,155.88866419997066,None,155.88866419997066,None,155.88866419997066,None,157.54936136998003,None,157.54936136998003,None,157.54936136998003,None,,,,,,,,,,,,,,206,2023-04-21_10h19.32.383,Main,2022.1.1,60.0670227978992,
negative,negative,2,j,l,,,,,,,,,1,2,20,9,,,,,,,,,main,2,2,2,negative,negative,j,j,1,0.8306588999694213,157.5503386000055,158.54942799999844,158.54942799999844,None,157.5503386000055,None,157.5503386000055,None,157.5503386000055,None,159.3827134699677,None,159.3827134699677,None,159.3827134699677,None,,,,,,,,,,,,,,206,2023-04-21_10h19.32.383,Main,2022.1.1,60.0670227978992,
positive,positive,1,l,j,,,,,,,,,1,3,21,2,,,,,,,,,main,1,1,1,positive,positive,l,l,1,0.6986369999940507,159.38581050001085,160.39942559995688,160.38276859995676,None,159.38581050001085,None,159.38581050001085,None,159.38581050001085,None,161.0826838699868,None,161.0826838699868,None,161.0826838699868,None,,,,,,,,,,,,,,206,2023-04-21_10h19.32.383,Main,2022.1.1,60.0670227978992,
negative,negative,1,j,l,,,,,,,,,1,4,22,0,,,,,,,,,main,2,2,1,negative,negative,j,j,1,0.7490815999917686,161.08365489996504,162.08531789999688,162.08531789999688,None,161.08365489996504,None,161.08365489996504,None,161.08365489996504,None,162.8330768699525,None,162.8330768699525,None,162.8330768699525,None,,,,,,,,,,,,,,206,2023-04-21_10h19.32.383,Main,2022.1.1,60.0670227978992,
positive,negative,2,l,j,,,,,,,,,1,5,23,14,,,,,,,,,main,2,2,2,negative,positive,l,l,1,1.3334118999773636,162.839036499965,163.85187929996755,163.83308670000406,None,162.839036499965,None,162.839036499965,None,162.839036499965,None,165.16856967000058,None,165.16856967000058,None,165.16856967000058,None,,,,,,,,,,,,,,206,2023-04-21_10h19.32.383,Main,2022.1.1,60.0670227978992,
negative,neutral,1,j,l,,,,,,,,,1,6,24,3,,,,,,,,,main,2,2,1,neutral,negative,j,j,1,0.7628315999754705,165.17290349997347,166.18508189998101,166.16637639998225,None,165.17290349997347,None,165.17290349997347,None,165.17290349997347,None,166.93301797000458,None,166.93301797000458,None,166.93301797000458,None,,,,,,,,,,,,,,206,2023-04-21_10h19.32.383,Main,2022.1.1,60.0670227978992,
positive,positive,2,l,j,,,,,,,,,1,7,25,11,,,,,,,,,main,2,2,2,positive,positive,l,l,1,0.7481123000034131,166.93911019997904,167.9518067999743,167.9352213999955,None,166.93911019997904,None,166.93911019997904,None,166.93911019997904,None,168.68260866997298,None,168.68260866997298,None,168.68260866997298,None,,,,,,,,,,,,,,206,2023-04-21_10h19.32.383,Main,2022.1.1,60.0670227978992,
neutral,negative,1,k,k,,,,,,,,,1,8,26,7,,,,,,,,,main,2,2,1,negative,neutral,k,k,1,0.6814586999826133,168.68971949996194,169.69904859998496,169.68210769997677,None,168.68971949996194,None,168.68971949996194,None,168.68971949996194,None,170.3657819699729,None,170.3657819699729,None,170.3657819699729,None,,,,,,,,,,,,,,206,2023-04-21_10h19.32.383,Main,2022.1.1,60.0670227978992,
negative,positive,1,j,l,,,,,,,,,1,9,27,6,,,,,,,,,main,2,2,1,positive,negative,j,j,1,0.8151767000090331,170.36581689998275,171.365850400005,171.365850400005,None,170.36581689998275,None,170.36581689998275,None,170.36581689998275,None,172.1824877699837,None,172.1824877699837,None,172.1824877699837,None,,,,,,,,,,,,,,206,2023-04-21_10h19.32.383,Main,2022.1.1,60.0670227978992,
negative,neutral,2,j,l,,,,,,,,,1,10,28,12,,,,,,,,,main,1,1,2,neutral,negative,j,j,1,0.8154282000032254,172.188176799973,173.2017424000078,173.185075699992,None,172.188176799973,None,172.188176799973,None,172.188176799973,None,173.99948166997638,None,173.99948166997638,None,173.99948166997638,None,,,,,,,,,,,,,,206,2023-04-21_10h19.32.383,Main,2022.1.1,60.0670227978992,
positive,neutral,2,l,j,,,,,,,,,1,11,29,17,,,,,,,,,main,2,2,2,neutral,positive,l,l,1,0.6984188000205904,174.0056445999653,175.01822359999642,175.00168099999428,None,174.0056445999653,None,174.0056445999653,None,174.0056445999653,None,175.69942217000062,None,175.69942217000062,None,175.69942217000062,None,,,,,,,,,,,,,,206,2023-04-21_10h19.32.383,Main,2022.1.1,60.0670227978992,
neutral,negative,2,k,k,,,,,,,,,1,12,30,16,,,,,,,,,main,2,2,2,negative,neutral,k,k,1,0.6340734999976121,175.70328580000205,176.71826549997786,176.70170209999196,None,175.70328580000205,None,175.70328580000205,None,175.70328580000205,None,177.33531866996782,None,177.33531866996782,None,177.33531866996782,None,,,,,,,,,,,,,,206,2023-04-21_10h19.32.383,Main,2022.1.1,60.0670227978992,
neutral,positive,2,k,k,,,,,,,,,1,13,31,13,,,,,,,,,main,1,1,2,positive,neutral,k,k,1,0.6284494000137784,177.3401334999944,178.35144870000659,178.3349121999927,None,177.3401334999944,None,177.3401334999944,None,177.3401334999944,None,178.9660124699585,None,178.9660124699585,None,178.9660124699585,None,,,,,,,,,,,,,,206,2023-04-21_10h19.32.383,Main,2022.1.1,60.0670227978992,
neutral,neutral,2,k,k,,,,,,,,,1,14,32,10,,,,,,,,,main,2,2,2,neutral,neutral,k,k,1,0.5644259999971837,178.97208269999828,179.98136839998187,179.9652206999599,None,178.97208269999828,None,178.97208269999828,None,178.97208269999828,None,180.53220846998738,None,180.53220846998738,None,180.53220846998738,None,,,,,,,,,,,,,,206,2023-04-21_10h19.32.383,Main,2022.1.1,60.0670227978992,
negative,positive,2,j,l,,,,,,,,,1,15,33,15,,,,,,,,,main,1,1,2,positive,negative,j,j,1,0.6809180999989621,180.53317599999718,181.5323134000064,181.5323134000064,None,180.53317599999718,None,180.53317599999718,None,180.53317599999718,None,182.21564596996177,None,182.21564596996177,None,182.21564596996177,None,,,,,,,,,,,,,,206,2023-04-21_10h19.32.383,Main,2022.1.1,60.0670227978992,
neutral,neutral,1,k,k,,,,,,,,,1,16,34,1,,,,,,,,,main,2,2,1,neutral,neutral,k,k,1,0.7156000999966636,182.22075380000751,183.23267150000902,183.20152589998906,None,182.22075380000751,None,182.22075380000751,None,182.22075380000751,None,183.93257196998456,None,183.93257196998456,None,183.93257196998456,None,,,,,,,,,,,,,,206,2023-04-21_10h19.32.383,Main,2022.1.1,60.0670227978992,
neutral,positive,1,k,k,,,,,,,,,1,17,35,4,,,,,,,,,main,1,1,1,positive,neutral,k,k,1,0.5652402999694459,183.9381349000032,184.9514698999701,184.93477029999485,None,183.9381349000032,None,183.9381349000032,None,183.9381349000032,None,185.4993149699876,None,185.4993149699876,None,185.4993149699876,None,,,,,,,,,,,,,,206,2023-04-21_10h19.32.383,Main,2022.1.1,60.0670227978992,
positive,neutral,2,l,j,,,,,,,,,2,0,36,17,,,,,,,,,main,1,1,2,neutral,positive,l,l,1,0.6991982000181451,185.50535659998422,186.51812389999395,186.50142129999585,None,185.50535659998422,None,185.50535659998422,None,185.50535659998422,None,187.1991590699763,None,187.1991590699763,None,187.1991590699763,None,,,,,,,,,,,,,,206,2023-04-21_10h19.32.383,Main,2022.1.1,60.0670227978992,
neutral,neutral,2,k,k,,,,,,,,,2,1,37,10,,,,,,,,,main,2,2,2,neutral,neutral,k,k,1,0.6828471999615431,187.2035968999844,188.21807149995584,188.2013772999635,None,187.2035968999844,None,187.2035968999844,None,187.2035968999844,None,188.88454886997351,None,188.88454886997351,None,188.88454886997351,None,,,,,,,,,,,,,,206,2023-04-21_10h19.32.383,Main,2022.1.1,60.0670227978992,
neutral,positive,2,k,k,,,,,,,,,2,2,38,13,,,,,,,,,main,1,1,2,positive,neutral,k,k,1,0.5791742000146769,188.88868079998065,189.89915369998198,189.88466429995606,None,188.88868079998065,None,188.88868079998065,None,188.88868079998065,None,190.46540816995548,None,190.46540816995548,None,190.46540816995548,None,,,,,,,,,,,,,,206,2023-04-21_10h19.32.383,Main,2022.1.1,60.0670227978992,
negative,positive,1,j,l,,,,,,,,,2,3,39,6,,,,,,,,,main,1,1,1,positive,negative,j,j,1,0.6661377000273205,190.46544339996763,191.46544070000527,191.46544070000527,None,190.46544339996763,None,190.46544339996763,None,190.46544339996763,None,192.13205226999708,None,192.13205226999708,None,192.13205226999708,None,,,,,,,,,,,,,,206,2023-04-21_10h19.32.383,Main,2022.1.1,60.0670227978992,
positive,neutral,1,l,j,,,,,,,,,2,4,40,8,,,,,,,,,main,2,2,1,neutral,positive,l,l,1,0.880972099956125,192.13352390000364,193.1487554999767,193.13209389999975,None,192.13352390000364,None,192.13352390000364,None,192.13352390000364,None,194.01537916995585,None,194.01537916995585,None,194.01537916995585,None,,,,,,,,,,,,,,206,2023-04-21_10h19.32.383,Main,2022.1.1,60.0670227978992,
negative,neutral,2,j,l,,,,,,,,,2,5,41,12,,,,,,,,,main,1,1,2,neutral,negative,j,j,1,0.6986423000344075,194.01577589998487,195.01541679998627,195.01541679998627,None,194.01577589998487,None,194.01577589998487,None,194.01577589998487,None,195.71571866999147,None,195.71571866999147,None,195.71571866999147,None,,,,,,,,,,,,,,206,2023-04-21_10h19.32.383,Main,2022.1.1,60.0670227978992,
positive,negative,2,l,j,,,,,,,,,2,6,42,14,,,,,,,,,main,2,2,2,negative,positive,l,l,1,0.7648881000350229,195.7215113999555,196.7345604999573,196.71791790000862,None,195.7215113999555,None,195.7215113999555,None,195.7215113999555,None,197.48200327000814,None,197.48200327000814,None,197.48200327000814,None,,,,,,,,,,,,,,206,2023-04-21_10h19.32.383,Main,2022.1.1,60.0670227978992,
negative,negative,2,j,l,,,,,,,,,2,7,43,9,,,,,,,,,main,2,2,2,negative,negative,j,j,1,0.6989602000103332,197.48830619995715,198.50122079998255,198.48461230000248,None,197.48830619995715,None,197.48830619995715,None,197.48830619995715,None,199.18266627000412,None,199.18266627000412,None,199.18266627000412,None,,,,,,,,,,,,,,206,2023-04-21_10h19.32.383,Main,2022.1.1,60.0670227978992,
neutral,negative,1,k,k,,,,,,,,,2,8,44,7,,,,,,,,,main,1,1,1,negative,neutral,k,k,1,0.6178687000065111,199.1890041999868,200.2010680999956,200.18451409996487,None,199.1890041999868,None,199.1890041999868,None,199.1890041999868,None,200.8010382700013,None,200.8010382700013,None,200.8010382700013,None,,,,,,,,,,,,,,206,2023-04-21_10h19.32.383,Main,2022.1.1,60.0670227978992,
neutral,negative,2,k,k,,,,,,,,,2,9,45,16,,,,,,,,,main,2,2,2,negative,neutral,k,k,1,0.6282382999779657,200.80535779998172,201.81765789998462,201.80114029999822,None,200.80535779998172,None,200.80535779998172,None,200.80535779998172,None,202.43189746997086,None,202.43189746997086,None,202.43189746997086,None,,,,,,,,,,,,,,206,2023-04-21_10h19.32.383,Main,2022.1.1,60.0670227978992,
negative,positive,2,j,l,,,,,,,,,2,10,46,15,,,,,,,,,main,2,2,2,positive,negative,j,j,1,0.7316103000193834,202.43545910000103,203.44854979997035,203.4318718999857,None,202.43545910000103,None,202.43545910000103,None,202.43545910000103,None,204.16514376999112,None,204.16514376999112,None,204.16514376999112,None,,,,,,,,,,,,,,206,2023-04-21_10h19.32.383,Main,2022.1.1,60.0670227978992,
neutral,neutral,1,k,k,,,,,,,,,2,11,47,1,,,,,,,,,main,2,2,1,neutral,neutral,k,k,1,0.6343680999707431,204.16511209995952,205.1652057999745,205.1652057999745,None,204.16511209995952,None,204.16511209995952,None,204.16511209995952,None,205.800935569976,None,205.800935569976,None,205.800935569976,None,,,,,,,,,,,,,,206,2023-04-21_10h19.32.383,Main,2022.1.1,60.0670227978992,
positive,negative,1,l,j,,,,,,,,,2,12,48,5,,,,,,,,,main,2,2,1,negative,positive,l,l,1,0.6793998999637552,205.80456600000616,206.81762929999968,206.80105259997072,None,205.80456600000616,None,205.80456600000616,None,205.80456600000616,None,207.4819047699566,None,207.4819047699566,None,207.4819047699566,None,,,,,,,,,,,,,,206,2023-04-21_10h19.32.383,Main,2022.1.1,60.0670227978992,
negative,neutral,1,j,l,,,,,,,,,2,13,49,3,,,,,,,,,main,2,2,1,neutral,negative,j,j,1,0.6671867999830283,207.4885386999813,208.50094910000917,208.48431039997377,None,207.4885386999813,None,207.4885386999813,None,207.4885386999813,None,209.1508623699774,None,209.1508623699774,None,209.1508623699774,None,,,,,,,,,,,,,,206,2023-04-21_10h19.32.383,Main,2022.1.1,60.0670227978992,
positive,positive,1,l,j,,,,,,,,,2,14,50,2,,,,,,,,,main,2,2,1,positive,positive,l,l,1,0.7961154999793507,209.1549943999853,210.16760799998883,210.1509434999898,None,209.1549943999853,None,209.1549943999853,None,209.1549943999853,None,210.9485546699725,None,210.9485546699725,None,210.9485546699725,None,,,,,,,,,,,,,,206,2023-04-21_10h19.32.383,Main,2022.1.1,60.0670227978992,
positive,positive,2,l,j,,,,,,,,,2,15,51,11,,,,,,,,,main,2,2,2,positive,positive,l,l,1,1.400487000006251,210.95493329997407,211.96751099999528,211.95099739998113,None,210.95493329997407,None,210.95493329997407,None,210.95493329997407,None,213.35050716996193,None,213.35050716996193,None,213.35050716996193,None,,,,,,,,,,,,,,206,2023-04-21_10h19.32.383,Main,2022.1.1,60.0670227978992,
negative,negative,1,j,l,,,,,,,,,2,16,52,0,,,,,,,,,main,2,2,1,negative,negative,j,j,1,0.7627335999859497,213.35535899997922,214.36533999996027,214.34829999995418,None,213.35535899997922,None,213.35535899997922,None,213.35535899997922,None,215.1150137700024,None,215.1150137700024,None,215.1150137700024,None,,,,,,,,,,,,,,206,2023-04-21_10h19.32.383,Main,2022.1.1,60.0670227978992,
neutral,positive,1,k,k,,,,,,,,,2,17,53,4,,,,,,,,,main,1,1,1,positive,neutral,k,k,1,1.1501024999888614,215.11589789995924,216.1149683999829,216.1149683999829,None,215.11589789995924,None,215.11589789995924,None,215.11589789995924,None,217.26734736998333,None,217.26734736998333,None,217.26734736998333,None,,,,,,,,,,,,,,206,2023-04-21_10h19.32.383,Main,2022.1.1,60.0670227978992,
positive,neutral,2,l,j,,,,,,,,,3,0,54,17,,,,,,,,,main,1,1,2,neutral,positive,l,l,1,0.7793188000214286,217.2709800999728,218.28406279999763,218.2674670999986,None,217.2709800999728,None,217.2709800999728,None,217.2709800999728,None,219.048513369984,None,219.048513369984,None,219.048513369984,None,,,,,,,,,,,,,,206,2023-04-21_10h19.32.383,Main,2022.1.1,60.0670227978992,
negative,neutral,2,j,l,,,,,,,,,3,1,55,12,,,,,,,,,main,2,2,2,neutral,negative,j,j,1,0.7856359999859706,219.0524632000015,220.06742219999433,220.05073169997195,None,219.0524632000015,None,219.0524632000015,None,219.0524632000015,None,220.83216126996558,None,220.83216126996558,None,220.83216126996558,None,,,,,,,,,,,,,,206,2023-04-21_10h19.32.383,Main,2022.1.1,60.0670227978992,
positive,positive,1,l,j,,,,,,,,,3,2,56,2,,,,,,,,,main,2,2,1,positive,positive,l,l,1,0.7120877000270411,220.8391880999552,221.85061520000454,221.83402000000933,None,220.8391880999552,None,220.8391880999552,None,220.8391880999552,None,222.54849726997782,None,222.54849726997782,None,222.54849726997782,None,,,,,,,,,,,,,,206,2023-04-21_10h19.32.383,Main,2022.1.1,60.0670227978992,
neutral,neutral,1,k,k,,,,,,,,,3,3,57,1,,,,,,,,,main,2,2,1,neutral,neutral,k,k,1,0.6304360999492928,222.5527460000012,223.5673761999933,223.5506621999666,None,222.5527460000012,None,222.5527460000012,None,222.5527460000012,None,224.18136946996674,None,224.18136946996674,None,224.18136946996674,None,,,,,,,,,,,,,,206,2023-04-21_10h19.32.383,Main,2022.1.1,60.0670227978992,
negative,neutral,1,j,l,,,,,,,,,3,4,58,3,,,,,,,,,main,2,2,1,neutral,negative,j,j,1,0.7198116999934427,224.18139719997998,225.18139669997618,225.18139669997618,None,224.18139719997998,None,224.18139719997998,None,224.18139719997998,None,225.89807216997724,None,225.89807216997724,None,225.89807216997724,None,,,,,,,,,,,,,,206,2023-04-21_10h19.32.383,Main,2022.1.1,60.0670227978992,
negative,negative,2,j,l,,,,,,,,,3,5,59,9,,,,,,,,,main,2,2,2,negative,negative,j,j,1,0.8963376999599859,225.90297769999597,226.91733129997738,226.90059699997073,None,225.90297769999597,None,225.90297769999597,None,225.90297769999597,None,227.80045216996223,None,227.80045216996223,None,227.80045216996223,None,,,,,,,,,,,,,,206,2023-04-21_10h19.32.383,Main,2022.1.1,60.0670227978992,
neutral,negative,1,k,k,,,,,,,,,3,6,60,7,,,,,,,,,main,2,2,1,negative,neutral,k,k,1,0.5985849000280723,227.8040124999825,228.8171863000025,228.80057979997946,None,227.8040124999825,None,227.8040124999825,None,227.8040124999825,None,229.40047046996187,None,229.40047046996187,None,229.40047046996187,None,,,,,,,,,,,,,,206,2023-04-21_10h19.32.383,Main,2022.1.1,60.0670227978992,
neutral,negative,2,k,k,,,,,,,,,3,7,61,16,,,,,,,,,main,2,2,2,negative,neutral,k,k,1,0.6145961000001989,229.4038450999651,230.41717849997804,230.40055159997428,None,229.4038450999651,None,229.4038450999651,None,229.4038450999651,None,231.0170232699602,None,231.0170232699602,None,231.0170232699602,None,,,,,,,,,,,,,,206,2023-04-21_10h19.32.383,Main,2022.1.1,60.0670227978992,
positive,positive,2,l,j,,,,,,,,,3,8,62,11,,,,,,,,,main,2,2,2,positive,positive,l,l,1,0.7130373000400141,231.02052799996454,232.03370319999522,232.01710949995322,None,231.02052799996454,None,231.02052799996454,None,231.02052799996454,None,232.73157736996654,None,232.73157736996654,None,232.73157736996654,None,,,,,,,,,,,,,,206,2023-04-21_10h19.32.383,Main,2022.1.1,60.0670227978992,
positive,neutral,1,l,j,,,,,,,,,3,9,63,8,,,,,,,,,main,2,2,1,neutral,positive,l,l,1,0.8312696000211872,232.73525599995628,233.750383400009,233.73388139996678,None,232.73525599995628,None,232.73525599995628,None,232.73525599995628,None,234.56450436997693,None,234.56450436997693,None,234.56450436997693,None,,,,,,,,,,,,,,206,2023-04-21_10h19.32.383,Main,2022.1.1,60.0670227978992,
neutral,positive,2,k,k,,,,,,,,,3,10,64,13,,,,,,,,,main,2,2,2,positive,neutral,k,k,1,0.6319295999710448,234.56722139997873,235.5812335999799,235.5645513999625,None,234.56722139997873,None,234.56722139997873,None,234.56722139997873,None,236.19786126998952,None,236.19786126998952,None,236.19786126998952,None,,,,,,,,,,,,,,206,2023-04-21_10h19.32.383,Main,2022.1.1,60.0670227978992,
neutral,positive,1,k,k,,,,,,,,,3,11,65,4,,,,,,,,,main,1,1,1,positive,neutral,k,k,1,0.7513156000059098,236.20130879996577,237.20046550000552,237.20046550000552,None,236.20130879996577,None,236.20130879996577,None,236.20130879996577,None,237.9503455699887,None,237.9503455699887,None,237.9503455699887,None,,,,,,,,,,,,,,206,2023-04-21_10h19.32.383,Main,2022.1.1,60.0670227978992,
negative,positive,1,j,l,,,,,,,,,3,12,66,6,,,,,,,,,main,2,2,1,positive,negative,j,j,1,0.7625049999915063,237.9541585999541,238.96696499997051,238.95033379999222,None,237.9541585999541,None,237.9541585999541,None,237.9541585999541,None,239.71481017000042,None,239.71481017000042,None,239.71481017000042,None,,,,,,,,,,,,,,206,2023-04-21_10h19.32.383,Main,2022.1.1,60.0670227978992,
neutral,neutral,2,k,k,,,,,,,,,3,13,67,10,,,,,,,,,main,1,1,2,neutral,neutral,k,k,1,0.5979813000303693,239.71864360000473,240.73367970000254,240.7170444999938,None,239.71864360000473,None,239.71864360000473,None,239.71864360000473,None,241.31473256996833,None,241.31473256996833,None,241.31473256996833,None,,,,,,,,,,,,,,206,2023-04-21_10h19.32.383,Main,2022.1.1,60.0670227978992,
negative,positive,2,j,l,,,,,,,,,3,14,68,15,,,,,,,,,main,2,2,2,positive,negative,j,j,1,0.7820026999688707,241.31877610000083,242.3336541999597,242.31704980001086,None,241.31877610000083,None,241.31877610000083,None,241.31877610000083,None,243.09807916998398,None,243.09807916998398,None,243.09807916998398,None,,,,,,,,,,,,,,206,2023-04-21_10h19.32.383,Main,2022.1.1,60.0670227978992,
positive,negative,1,l,j,,,,,,,,,3,15,69,5,,,,,,,,,main,1,1,1,negative,positive,l,l,1,0.9314236999489367,243.10163119999925,244.1167851999635,244.10032639995916,None,243.10163119999925,None,243.10163119999925,None,243.10163119999925,None,245.03091097000288,None,245.03091097000288,None,245.03091097000288,None,,,,,,,,,,,,,,206,2023-04-21_10h19.32.383,Main,2022.1.1,60.0670227978992,
negative,negative,1,j,l,,,,,,,,,3,16,70,0,,,,,,,,,main,1,1,1,negative,negative,j,j,1,0.7662639999762177,245.03157739999006,246.0309839999536,246.0309839999536,None,245.03157739999006,None,245.03157739999006,None,245.03157739999006,None,246.79762766999193,None,246.79762766999193,None,246.79762766999193,None,,,,,,,,,,,,,,206,2023-04-21_10h19.32.383,Main,2022.1.1,60.0670227978992,
positive,negative,2,l,j,,,,,,,,,3,17,71,14,,,,,,,,,main,1,1,2,negative,positive,l,l,1,0.7317399000166915,246.79914019996068,247.81434699997772,247.79768239997793,None,246.79914019996068,None,246.79914019996068,None,246.79914019996068,None,248.5309031700017,None,248.5309031700017,None,248.5309031700017,None,,,,,,,,,,,,,,206,2023-04-21_10h19.32.383,Main,2022.1.1,60.0670227978992,
positive,neutral,1,l,j,,,,,,,,,4,0,72,8,,,,,,,,,main,1,1,1,neutral,positive,l,l,1,0.7641607000259683,248.5324610999669,249.53349739999976,249.53349739999976,None,248.5324610999669,None,248.5324610999669,None,248.5324610999669,None,250.29758616996696,None,250.29758616996696,None,250.29758616996696,None,,,,,,,,,,,,,,206,2023-04-21_10h19.32.383,Main,2022.1.1,60.0670227978992,
neutral,negative,1,k,k,,,,,,,,,4,1,73,7,,,,,,,,,main,1,1,1,negative,neutral,k,k,1,0.6319813000154682,250.30126679997193,251.30009319999954,251.30009319999954,None,250.30126679997193,None,250.30126679997193,None,250.30126679997193,None,251.93121866998263,None,251.93121866998263,None,251.93121866998263,None,,,,,,,,,,,,,,206,2023-04-21_10h19.32.383,Main,2022.1.1,60.0670227978992,
negative,negative,1,j,l,,,,,,,,,4,2,74,0,,,,,,,,,main,1,1,1,negative,negative,j,j,1,0.7645643999567255,251.93471760000102,252.95008169999346,252.9335230999859,None,251.93471760000102,None,251.93471760000102,None,251.93471760000102,None,253.697525769996,None,253.697525769996,None,253.697525769996,None,,,,,,,,,,,,,,206,2023-04-21_10h19.32.383,Main,2022.1.1,60.0670227978992,
negative,positive,2,j,l,,,,,,,,,4,3,75,15,,,,,,,,,main,2,2,2,positive,negative,j,j,1,1.0646904000313953,253.7170560999657,254.71663419995457,254.70008310000412,None,253.7170560999657,None,253.7170560999657,None,253.7170560999657,None,255.76447627000744,None,255.76447627000744,None,255.76447627000744,None,,,,,,,,,,,,,,206,2023-04-21_10h19.32.383,Main,2022.1.1,60.0670227978992,
negative,positive,1,j,l,,,,,,,,,4,4,76,6,,,,,,,,,main,1,1,1,positive,negative,j,j,1,0.6821635999949649,255.76826559996698,256.783259799995,256.7666481999913,None,255.76826559996698,None,255.76826559996698,None,255.76826559996698,None,257.44732696999563,None,257.44732696999563,None,257.44732696999563,None,,,,,,,,,,,,,,206,2023-04-21_10h19.32.383,Main,2022.1.1,60.0670227978992,
neutral,negative,2,k,k,,,,,,,,,4,5,77,16,,,,,,,,,main,2,2,2,negative,neutral,k,k,1,0.6808838000288233,257.46409819996916,258.4640875000041,258.4474014999578,None,257.46409819996916,None,257.46409819996916,None,257.46409819996916,None,259.13075926998863,None,259.13075926998863,None,259.13075926998863,None,,,,,,,,,,,,,,206,2023-04-21_10h19.32.383,Main,2022.1.1,60.0670227978992,
positive,positive,2,l,j,,,,,,,,,4,6,78,11,,,,,,,,,main,2,2,2,positive,positive,l,l,1,0.6986580000375398,259.1474478999735,260.1477769999765,260.11663909995696,None,259.1474478999735,None,259.1474478999735,None,259.1474478999735,None,260.8307131699985,None,260.8307131699985,None,260.8307131699985,None,,,,,,,,,,,,,,206,2023-04-21_10h19.32.383,Main,2022.1.1,60.0670227978992,
neutral,positive,1,k,k,,,,,,,,,4,7,79,4,,,,,,,,,main,2,2,1,positive,neutral,k,k,1,0.5496938999858685,260.83722529996885,261.8498520999565,261.83327659999486,None,260.83722529996885,None,260.83722529996885,None,260.83722529996885,None,262.3810847699642,None,262.3810847699642,None,262.3810847699642,None,,,,,,,,,,,,,,206,2023-04-21_10h19.32.383,Main,2022.1.1,60.0670227978992,
positive,negative,2,l,j,,,,,,,,,4,8,80,14,,,,,,,,,main,2,2,2,negative,positive,l,l,1,0.9491433000075631,262.38769379997393,263.3998963999911,263.3831976999645,None,262.38769379997393,None,262.38769379997393,None,262.38769379997393,None,264.33310627000174,None,264.33310627000174,None,264.33310627000174,None,,,,,,,,,,,,,,206,2023-04-21_10h19.32.383,Main,2022.1.1,60.0670227978992,
positive,neutral,2,l,j,,,,,,,,,4,9,81,17,,,,,,,,,main,1,1,2,neutral,positive,l,l,1,0.8319363999762572,264.33688899996923,265.34982629999286,265.3332283999771,None,264.33688899996923,None,264.33688899996923,None,264.33688899996923,None,266.1662707699579,None,266.1662707699579,None,266.1662707699579,None,,,,,,,,,,,,,,206,2023-04-21_10h19.32.383,Main,2022.1.1,60.0670227978992,
positive,negative,1,l,j,,,,,,,,,4,10,82,5,,,,,,,,,main,2,2,1,negative,positive,l,l,1,0.9794731000438333,266.16973799996777,267.1831103999866,267.166501300002,None,266.16973799996777,None,266.16973799996777,None,266.16973799996777,None,268.1471408699872,None,268.1471408699872,None,268.1471408699872,None,,,,,,,,,,,,,,206,2023-04-21_10h19.32.383,Main,2022.1.1,60.0670227978992,
neutral,neutral,1,k,k,,,,,,,,,4,11,83,1,,,,,,,,,main,2,2,1,neutral,neutral,k,k,1,0.6815454000025056,268.1472170999623,269.147175399994,269.147175399994,None,268.1472170999623,None,268.1472170999623,None,268.1472170999623,None,269.83053316996666,None,269.83053316996666,None,269.83053316996666,None,,,,,,,,,,,,,,206,2023-04-21_10h19.32.383,Main,2022.1.1,60.0670227978992,
negative,negative,2,j,l,,,,,,,,,4,12,84,9,,,,,,,,,main,2,2,2,negative,negative,j,j,1,0.7841271999641322,269.83623929996975,270.84975649998523,270.83307709998917,None,269.83623929996975,None,269.83623929996975,None,269.83623929996975,None,271.61626876995433,None,271.61626876995433,None,271.61626876995433,None,,,,,,,,,,,,,,206,2023-04-21_10h19.32.383,Main,2022.1.1,60.0670227978992,
negative,neutral,1,j,l,,,,,,,,,4,13,85,3,,,,,,,,,main,1,1,1,neutral,negative,j,j,1,0.732092099962756,271.61943669995526,272.6329898999538,272.61637109995354,None,271.61943669995526,None,271.61943669995526,None,271.61943669995526,None,273.34972216997994,None,273.34972216997994,None,273.34972216997994,None,,,,,,,,,,,,,,206,2023-04-21_10h19.32.383,Main,2022.1.1,60.0670227978992,
neutral,neutral,2,k,k,,,,,,,,,4,14,86,10,,,,,,,,,main,1,1,2,neutral,neutral,k,k,1,0.5955736999749206,273.35312819998944,274.36622229998466,274.34970959997736,None,273.35312819998944,None,273.35312819998944,None,273.35312819998944,None,274.94736826996086,None,274.94736826996086,None,274.94736826996086,None,,,,,,,,,,,,,,206,2023-04-21_10h19.32.383,Main,2022.1.1,60.0670227978992,
neutral,positive,2,k,k,,,,,,,,,4,15,87,13,,,,,,,,,main,1,1,2,positive,neutral,k,k,1,0.6175444999826141,274.95072409999557,275.96620109997457,275.94962480000686,None,274.95072409999557,None,274.95072409999557,None,274.95072409999557,None,276.5662089699763,None,276.5662089699763,None,276.5662089699763,None,,,,,,,,,,,,,,206,2023-04-21_10h19.32.383,Main,2022.1.1,60.0670227978992,
positive,positive,1,l,j,,,,,,,,,4,16,88,2,,,,,,,,,main,1,1,1,positive,positive,l,l,1,0.7957189999870025,276.5699636999634,277.5828337999992,277.5663018999621,None,276.5699636999634,None,276.5699636999634,None,276.5699636999634,None,278.36357586999657,None,278.36357586999657,None,278.36357586999657,None,,,,,,,,,,,,,,206,2023-04-21_10h19.32.383,Main,2022.1.1,60.0670227978992,
negative,neutral,2,j,l,,,,,,,,,4,17,89,12,,,,,,,,,main,1,1,2,neutral,negative,j,j,1,0.7652847999706864,278.3636208999669,279.36365159996785,279.36365159996785,None,278.3636208999669,None,278.3636208999669,None,278.3636208999669,None,280.1302905699704,None,280.1302905699704,None,280.1302905699704,None,,,,,,,,,,,,,,206,2023-04-21_10h19.32.383,Main,2022.1.1,60.0670227978992,
negative,negative,1,j,l,,,,,,,,,5,0,90,0,,,,,,,,,main,2,2,1,negative,negative,j,j,1,0.7646818999783136,280.13263329997426,281.1469691999955,281.1302945999778,None,280.13263329997426,None,280.13263329997426,None,280.13263329997426,None,281.896962269966,None,281.896962269966,None,281.896962269966,None,,,,,,,,,,,,,,206,2023-04-21_10h19.32.383,Main,2022.1.1,60.0670227978992,
positive,neutral,1,l,j,,,,,,,,,5,1,91,8,,,,,,,,,main,2,2,1,neutral,positive,l,l,1,0.8815233000204898,281.9136528999661,282.9162734999554,282.89957059995504,None,281.9136528999661,None,281.9136528999661,None,281.9136528999661,None,283.780626569991,None,283.780626569991,None,283.780626569991,None,,,,,,,,,,,,,,206,2023-04-21_10h19.32.383,Main,2022.1.1,60.0670227978992,
neutral,neutral,2,k,k,,,,,,,,,5,2,92,10,,,,,,,,,main,2,2,2,neutral,neutral,k,k,1,0.6813413999625482,283.7845148000051,284.79936740000267,284.7827713000006,None,283.7845148000051,None,283.7845148000051,None,283.7845148000051,None,285.46354207000695,None,285.46354207000695,None,285.46354207000695,None,,,,,,,,,,,,,,206,2023-04-21_10h19.32.383,Main,2022.1.1,60.0670227978992,
neutral,neutral,1,k,k,,,,,,,,,5,3,93,1,,,,,,,,,main,1,1,1,neutral,neutral,k,k,1,0.7818226999952458,285.4702611999819,286.4826940000057,286.4660164999659,None,285.4702611999819,None,285.4702611999819,None,285.4702611999819,None,287.2471256699646,None,287.2471256699646,None,287.2471256699646,None,,,,,,,,,,,,,,206,2023-04-21_10h19.32.383,Main,2022.1.1,60.0670227978992,
positive,positive,2,l,j,,,,,,,,,5,4,94,11,,,,,,,,,main,2,2,2,positive,positive,l,l,1,0.7820168999605812,287.2530710999854,288.2659461000003,288.249325199984,None,287.2530710999854,None,287.2530710999854,None,287.2530710999854,None,289.03045646997634,None,289.03045646997634,None,289.03045646997634,None,,,,,,,,,,,,,,206,2023-04-21_10h19.32.383,Main,2022.1.1,60.0670227978992,
neutral,positive,1,k,k,,,,,,,,,5,5,95,4,,,,,,,,,main,2,2,1,positive,neutral,k,k,1,0.6979788999888115,289.0340720000095,290.0471120000002,290.03265129996,None,289.0340720000095,None,289.0340720000095,None,289.0340720000095,None,290.7300623699557,None,290.7300623699557,None,290.7300623699557,None,,,,,,,,,,,,,,206,2023-04-21_10h19.32.383,Main,2022.1.1,60.0670227978992,
positive,positive,1,l,j,,,,,,,,,5,6,96,2,,,,,,,,,main,2,2,1,positive,positive,l,l,1,0.6986428000382148,290.7301088999957,291.7300810999586,291.7300810999586,None,290.7301088999957,None,290.7301088999957,None,290.7301088999957,None,292.43005826999433,None,292.43005826999433,None,292.43005826999433,None,,,,,,,,,,,,,,206,2023-04-21_10h19.32.383,Main,2022.1.1,60.0670227978992,
negative,negative,2,j,l,,,,,,,,,5,7,97,9,,,,,,,,,main,2,2,2,negative,negative,j,j,1,0.8170848999870941,292.4359475999954,293.4492288999609,293.4326008000062,None,292.4359475999954,None,292.4359475999954,None,292.4359475999954,None,294.249278770003,None,294.249278770003,None,294.249278770003,None,,,,,,,,,,,,,,206,2023-04-21_10h19.32.383,Main,2022.1.1,60.0670227978992,
neutral,negative,2,k,k,,,,,,,,,5,8,98,16,,,,,,,,,main,1,1,2,negative,neutral,k,k,1,0.5964650000096299,294.2533770999871,295.26581630000146,295.24933439999586,None,294.2533770999871,None,294.2533770999871,None,294.2533770999871,None,295.8469722699956,None,295.8469722699956,None,295.8469722699956,None,,,,,,,,,,,,,,206,2023-04-21_10h19.32.383,Main,2022.1.1,60.0670227978992,
positive,neutral,2,l,j,,,,,,,,,5,9,99,17,,,,,,,,,main,1,1,2,neutral,positive,l,l,1,0.8311829000012949,295.85073519998696,296.86581329995533,296.8491744999774,None,295.85073519998696,None,295.85073519998696,None,295.85073519998696,None,297.67996096995194,None,297.67996096995194,None,297.67996096995194,None,,,,,,,,,,,,,,206,2023-04-21_10h19.32.383,Main,2022.1.1,60.0670227978992,
positive,negative,2,l,j,,,,,,,,,5,10,100,14,,,,,,,,,main,2,2,2,negative,positive,l,l,1,0.6985708000138402,297.685439999972,298.6969819999649,298.6658116999897,None,297.685439999972,None,297.685439999972,None,297.685439999972,None,299.3799386699684,None,299.3799386699684,None,299.3799386699684,None,,,,,,,,,,,,,,206,2023-04-21_10h19.32.383,Main,2022.1.1,60.0670227978992,
neutral,positive,2,k,k,,,,,,,,,5,11,101,13,,,,,,,,,main,2,2,2,positive,neutral,k,k,1,0.6987842000089586,299.3862129999907,300.39912379998714,300.3824686000007,None,299.3862129999907,None,299.3862129999907,None,299.3862129999907,None,301.08006586995907,None,301.08006586995907,None,301.08006586995907,None,,,,,,,,,,,,,,206,2023-04-21_10h19.32.383,Main,2022.1.1,60.0670227978992,
positive,negative,1,l,j,,,,,,,,,5,12,102,5,,,,,,,,,main,1,1,1,negative,positive,l,l,1,0.731669700006023,301.0842045999598,302.0988538999809,302.08014789997833,None,301.0842045999598,None,301.0842045999598,None,301.0842045999598,None,302.813163469953,None,302.813163469953,None,302.813163469953,None,,,,,,,,,,,,,,206,2023-04-21_10h19.32.383,Main,2022.1.1,60.0670227978992,
negative,neutral,2,j,l,,,,,,,,,5,13,103,12,,,,,,,,,main,2,2,2,neutral,negative,j,j,1,0.6835903000319377,302.8171786000021,303.83008419995895,303.81342610000866,None,302.8171786000021,None,302.8171786000021,None,302.8171786000021,None,304.4987623699708,None,304.4987623699708,None,304.4987623699708,None,,,,,,,,,,,,,,206,2023-04-21_10h19.32.383,Main,2022.1.1,60.0670227978992,
neutral,negative,1,k,k,,,,,,,,,5,14,104,7,,,,,,,,,main,2,2,1,negative,neutral,k,k,1,0.6483084000064991,304.50187509995885,305.5154604999698,305.4988085000077,None,304.50187509995885,None,304.50187509995885,None,304.50187509995885,None,306.1474812699598,None,306.1474812699598,None,306.1474812699598,None,,,,,,,,,,,,,,206,2023-04-21_10h19.32.383,Main,2022.1.1,60.0670227978992,
negative,neutral,1,j,l,,,,,,,,,5,15,105,3,,,,,,,,,main,2,2,1,neutral,negative,j,j,1,0.696228000044357,306.1531849000021,307.1654620000045,307.1488127000048,None,306.1531849000021,None,306.1531849000021,None,306.1531849000021,None,307.8466817699955,None,307.8466817699955,None,307.8466817699955,None,,,,,,,,,,,,,,206,2023-04-21_10h19.32.383,Main,2022.1.1,60.0670227978992,
negative,positive,1,j,l,,,,,,,,,5,16,106,6,,,,,,,,,main,1,1,1,positive,negative,j,j,1,0.66730109998025,307.8507365999976,308.8633321999805,308.84667860000627,None,307.8507365999976,None,307.8507365999976,None,307.8507365999976,None,309.5153316700016,None,309.5153316700016,None,309.5153316700016,None,,,,,,,,,,,,,,206,2023-04-21_10h19.32.383,Main,2022.1.1,60.0670227978992,
negative,positive,2,j,l,,,,,,,,,5,17,107,15,,,,,,,,,main,1,1,2,positive,negative,j,j,1,0.7130305000464432,309.5184427999775,310.5299842999666,310.51331680000294,None,309.5184427999775,None,309.5184427999775,None,309.5184427999775,None,311.2299376699957,None,311.2299376699957,None,311.2299376699957,None,,,,,,,,,,,,,,206,2023-04-21_10h19.32.383,Main,2022.1.1,60.0670227978992,
neutral,neutral,1,k,k,,,,,,,,,6,0,108,1,,,,,,,,,main,2,2,1,neutral,neutral,k,k,1,0.6812514999764971,311.23369989998173,312.24874989996897,312.23209189996123,None,311.23369989998173,None,311.23369989998173,None,311.23369989998173,None,312.91288086998975,None,312.91288086998975,None,312.91288086998975,None,,,,,,,,,,,,,,206,2023-04-21_10h19.32.383,Main,2022.1.1,60.0670227978992,
negative,neutral,2,j,l,,,,,,,,,6,1,109,12,,,,,,,,,main,2,2,2,neutral,negative,j,j,1,0.8815656999940984,312.913066899986,313.9129399000085,313.9129399000085,None,312.913066899986,None,312.913066899986,None,312.913066899986,None,314.79628606996266,None,314.79628606996266,None,314.79628606996266,None,,,,,,,,,,,,,,206,2023-04-21_10h19.32.383,Main,2022.1.1,60.0670227978992,
neutral,positive,1,k,k,,,,,,,,,6,2,110,4,,,,,,,,,main,2,2,1,positive,neutral,k,k,1,0.648670399968978,314.81298059999244,315.8155443999567,315.79664299997967,None,314.81298059999244,None,314.81298059999244,None,314.81298059999244,None,316.44625426997663,None,316.44625426997663,None,316.44625426997663,None,,,,,,,,,,,,,,206,2023-04-21_10h19.32.383,Main,2022.1.1,60.0670227978992,
negative,negative,2,j,l,,,,,,,,,6,3,111,9,,,,,,,,,main,2,2,2,negative,negative,j,j,1,0.8150436000432819,316.4500575999846,317.4654010999948,317.4488129999954,None,316.4500575999846,None,316.4500575999846,None,316.4500575999846,None,318.2631646699738,None,318.2631646699738,None,318.2631646699738,None,,,,,,,,,,,,,,206,2023-04-21_10h19.32.383,Main,2022.1.1,60.0670227978992,
neutral,negative,1,k,k,,,,,,,,,6,4,112,7,,,,,,,,,main,2,2,1,negative,neutral,k,k,1,0.5653271999908611,318.2691780999885,319.2820646999753,319.26545129995793,None,318.2691780999885,None,318.2691780999885,None,318.2691780999885,None,319.82983616995625,None,319.82983616995625,None,319.82983616995625,None,,,,,,,,,,,,,,206,2023-04-21_10h19.32.383,Main,2022.1.1,60.0670227978992,
neutral,positive,2,k,k,,,,,,,,,6,5,113,13,,,,,,,,,main,1,1,2,positive,neutral,k,k,1,0.7983959999983199,319.8357516999822,320.848540499981,320.8298239999567,None,319.8357516999822,None,319.8357516999822,None,319.8357516999822,None,321.62979827000527,None,321.62979827000527,None,321.62979827000527,None,,,,,,,,,,,,,,206,2023-04-21_10h19.32.383,Main,2022.1.1,60.0670227978992,
negative,neutral,1,j,l,,,,,,,,,6,6,114,3,,,,,,,,,main,2,2,1,neutral,negative,j,j,1,0.5808988999924622,321.633574699983,322.648583400005,322.63203229999635,None,321.633574699983,None,321.633574699983,None,321.633574699983,None,323.21265547000803,None,323.21265547000803,None,323.21265547000803,None,,,,,,,,,,,,,,206,2023-04-21_10h19.32.383,Main,2022.1.1,60.0670227978992,
negative,positive,1,j,l,,,,,,,,,6,7,115,6,,,,,,,,,main,2,2,1,positive,negative,j,j,1,0.6821399999898858,323.21333389997017,324.21275129995774,324.21275129995774,None,323.21333389997017,None,323.21333389997017,None,323.21333389997017,None,324.89602096995804,None,324.89602096995804,None,324.89602096995804,None,,,,,,,,,,,,,,206,2023-04-21_10h19.32.383,Main,2022.1.1,60.0670227978992,
neutral,neutral,2,k,k,,,,,,,,,6,8,116,10,,,,,,,,,main,2,2,2,neutral,neutral,k,k,1,0.5494853000272997,324.8960080999532,325.89607159997104,325.89607159997104,None,324.8960080999532,None,324.8960080999532,None,324.8960080999532,None,326.4459992699558,None,326.4459992699558,None,326.4459992699558,None,,,,,,,,,,,,,,206,2023-04-21_10h19.32.383,Main,2022.1.1,60.0670227978992,
negative,positive,2,j,l,,,,,,,,,6,9,117,15,,,,,,,,,main,2,2,2,positive,negative,j,j,1,0.6311482000164688,326.4475633999682,327.46272279997356,327.4460506999749,None,326.4475633999682,None,326.4475633999682,None,326.4475633999682,None,328.0793387699523,None,328.0793387699523,None,328.0793387699523,None,,,,,,,,,,,,,,206,2023-04-21_10h19.32.383,Main,2022.1.1,60.0670227978992,
positive,positive,1,l,j,,,,,,,,,6,10,118,2,,,,,,,,,main,1,1,1,positive,positive,l,l,1,0.7816477000014856,328.0831715000095,329.0984784999746,329.0818896999699,None,328.0831715000095,None,328.0831715000095,None,328.0831715000095,None,329.86284936999436,None,329.86284936999436,None,329.86284936999436,None,,,,,,,,,,,,,,206,2023-04-21_10h19.32.383,Main,2022.1.1,60.0670227978992,
positive,negative,2,l,j,,,,,,,,,6,11,119,14,,,,,,,,,main,2,2,2,negative,positive,l,l,1,0.6652640999527648,329.88174949999666,330.8818487999961,330.86515510000754,None,329.88174949999666,None,329.88174949999666,None,329.88174949999666,None,331.52962096995907,None,331.52962096995907,None,331.52962096995907,None,,,,,,,,,,,,,,206,2023-04-21_10h19.32.383,Main,2022.1.1,60.0670227978992,
positive,neutral,1,l,j,,,,,,,,,6,12,120,8,,,,,,,,,main,2,2,1,neutral,positive,l,l,1,0.7323350999504328,331.5357459000079,332.5484060999588,332.53187649999745,None,331.5357459000079,None,331.5357459000079,None,331.5357459000079,None,333.263716669986,None,333.263716669986,None,333.263716669986,None,,,,,,,,,,,,,,206,2023-04-21_10h19.32.383,Main,2022.1.1,60.0670227978992,
negative,negative,1,j,l,,,,,,,,,6,13,121,0,,,,,,,,,main,1,1,1,negative,negative,j,j,1,0.7805875000194646,333.26954839995597,334.28169669996714,334.26519309997093,None,333.26954839995597,None,333.26954839995597,None,333.26954839995597,None,335.04575886996463,None,335.04575886996463,None,335.04575886996463,None,,,,,,,,,,,,,,206,2023-04-21_10h19.32.383,Main,2022.1.1,60.0670227978992,
neutral,negative,2,k,k,,,,,,,,,6,14,122,16,,,,,,,,,main,2,2,2,negative,neutral,k,k,1,0.5322610000148416,335.0458014999749,336.0458491999889,336.0458491999889,None,335.0458014999749,None,335.0458014999749,None,335.0458014999749,None,336.5791576699703,None,336.5791576699703,None,336.5791576699703,None,,,,,,,,,,,,,,206,2023-04-21_10h19.32.383,Main,2022.1.1,60.0670227978992,
positive,neutral,2,l,j,,,,,,,,,6,15,123,17,,,,,,,,,main,1,1,2,neutral,positive,l,l,1,0.9150018999935128,336.5832032999606,337.5982885999838,337.5817509999615,None,336.5832032999606,None,336.5832032999606,None,336.5832032999606,None,338.49615346995415,None,338.49615346995415,None,338.49615346995415,None,,,,,,,,,,,,,,206,2023-04-21_10h19.32.383,Main,2022.1.1,60.0670227978992,
positive,positive,2,l,j,,,,,,,,,6,16,124,11,,,,,,,,,main,2,2,2,positive,positive,l,l,1,0.8004325000219978,338.4999132999801,339.5150231999578,339.4983156999806,None,338.4999132999801,None,338.4999132999801,None,338.4999132999801,None,340.2981131699635,None,340.2981131699635,None,340.2981131699635,None,,,,,,,,,,,,,,206,2023-04-21_10h19.32.383,Main,2022.1.1,60.0670227978992,
positive,negative,1,l,j,,,,,,,,,6,17,125,5,,,,,,,,,main,2,2,1,negative,positive,l,l,1,0.7288161999895237,340.30254359997343,341.3149443999864,341.298338899971,None,340.30254359997343,None,340.30254359997343,None,340.30254359997343,None,342.02937836997444,None,342.02937836997444,None,342.02937836997444,None,,,,,,,,,,,,,,206,2023-04-21_10h19.32.383,Main,2022.1.1,60.0670227978992,
neutral,negative,1,k,k,,,,,,,,,7,0,126,7,,,,,,,,,main,2,2,1,negative,neutral,k,k,1,0.664367499994114,342.0338299999712,343.04822569998214,343.0316043999628,None,342.0338299999712,None,342.0338299999712,None,342.0338299999712,None,343.69602057000156,None,343.69602057000156,None,343.69602057000156,None,,,,,,,,,,,,,,206,2023-04-21_10h19.32.383,Main,2022.1.1,60.0670227978992,
neutral,positive,1,k,k,,,,,,,,,7,1,127,4,,,,,,,,,main,2,2,1,positive,neutral,k,k,1,0.5812231000163592,343.7018026000005,344.70665279997047,344.684652499971,None,343.7018026000005,None,343.7018026000005,None,343.7018026000005,None,345.27887586998986,None,345.27887586998986,None,345.27887586998986,None,,,,,,,,,,,,,,206,2023-04-21_10h19.32.383,Main,2022.1.1,60.0670227978992,
positive,neutral,1,l,j,,,,,,,,,7,2,128,8,,,,,,,,,main,1,1,1,neutral,positive,l,l,1,0.8819165999884717,345.2789177999948,346.27896450000117,346.27896450000117,None,345.2789177999948,None,345.2789177999948,None,345.2789177999948,None,347.16231196996523,None,347.16231196996523,None,347.16231196996523,None,,,,,,,,,,,,,,206,2023-04-21_10h19.32.383,Main,2022.1.1,60.0670227978992,
negative,neutral,1,j,l,,,,,,,,,7,3,129,3,,,,,,,,,main,1,1,1,neutral,negative,j,j,1,0.7341725000296719,347.16529729997274,348.16478679998545,348.16478679998545,None,347.16529729997274,None,347.16529729997274,None,347.16529729997274,None,348.8981584699941,None,348.8981584699941,None,348.8981584699941,None,,,,,,,,,,,,,,206,2023-04-21_10h19.32.383,Main,2022.1.1,60.0670227978992,
positive,neutral,2,l,j,,,,,,,,,7,4,130,17,,,,,,,,,main,2,2,2,neutral,positive,l,l,1,0.713230499997735,348.9014404999907,349.91482219996396,349.89818540000124,None,348.9014404999907,None,348.9014404999907,None,348.9014404999907,None,350.61254716996336,None,350.61254716996336,None,350.61254716996336,None,,,,,,,,,,,,,,206,2023-04-21_10h19.32.383,Main,2022.1.1,60.0670227978992,
neutral,neutral,1,k,k,,,,,,,,,7,5,131,1,,,,,,,,,main,2,2,1,neutral,neutral,k,k,1,0.683899299998302,350.6161807999597,351.6313785999664,351.6146702999831,None,350.6161807999597,None,350.6161807999597,None,350.6161807999597,None,352.2981221699738,None,352.2981221699738,None,352.2981221699738,None,,,,,,,,,,,,,,206,2023-04-21_10h19.32.383,Main,2022.1.1,60.0670227978992,
neutral,positive,2,k,k,,,,,,,,,7,6,132,13,,,,,,,,,main,1,1,2,positive,neutral,k,k,1,0.6794111999915913,352.3015014999546,353.3146527999779,353.2979576999787,None,352.3015014999546,None,352.3015014999546,None,352.3015014999546,None,353.9791056700051,None,353.9791056700051,None,353.9791056700051,None,,,,,,,,,,,,,,206,2023-04-21_10h19.32.383,Main,2022.1.1,60.0670227978992,
negative,negative,1,j,l,,,,,,,,,7,7,133,0,,,,,,,,,main,1,1,1,negative,negative,j,j,1,0.6979348000022583,353.98304839996854,354.9945585000096,354.9783155999612,None,353.98304839996854,None,353.98304839996854,None,353.98304839996854,None,355.6787191699841,None,355.6787191699841,None,355.6787191699841,None,,,,,,,,,,,,,,206,2023-04-21_10h19.32.383,Main,2022.1.1,60.0670227978992,
negative,positive,1,j,l,,,,,,,,,7,8,134,6,,,,,,,,,main,2,2,1,positive,negative,j,j,1,0.764646899944637,355.6794382999651,356.67873270000564,356.67873270000564,None,355.6794382999651,None,355.6794382999651,None,355.6794382999651,None,357.44539427000564,None,357.44539427000564,None,357.44539427000564,None,,,,,,,,,,,,,,206,2023-04-21_10h19.32.383,Main,2022.1.1,60.0670227978992,
positive,negative,2,l,j,,,,,,,,,7,9,135,14,,,,,,,,,main,2,2,2,negative,positive,l,l,1,0.7840594999724999,357.449088399997,358.46445450000465,358.448009499989,None,357.449088399997,None,357.449088399997,None,357.449088399997,None,359.2311275699758,None,359.2311275699758,None,359.2311275699758,None,,,,,,,,,,,,,,206,2023-04-21_10h19.32.383,Main,2022.1.1,60.0670227978992,
positive,positive,2,l,j,,,,,,,,,7,10,136,11,,,,,,,,,main,2,2,2,positive,positive,l,l,1,0.7156019000103697,359.2345294999541,360.2478325999691,360.2312223999761,None,359.2345294999541,None,359.2345294999541,None,359.2345294999541,None,360.9478415699559,None,360.9478415699559,None,360.9478415699559,None,,,,,,,,,,,,,,206,2023-04-21_10h19.32.383,Main,2022.1.1,60.0670227978992,
neutral,neutral,2,k,k,,,,,,,,,7,11,137,10,,,,,,,,,main,1,1,2,neutral,neutral,k,k,1,0.6467621000483632,360.95164059998933,361.96453749999637,361.9478406999842,None,360.95164059998933,None,360.95164059998933,None,360.95164059998933,None,362.59694026998477,None,362.59694026998477,None,362.59694026998477,None,,,,,,,,,,,,,,206,2023-04-21_10h19.32.383,Main,2022.1.1,60.0670227978992,
negative,positive,2,j,l,,,,,,,,,7,12,138,15,,,,,,,,,main,2,2,2,positive,negative,j,j,1,0.7471691999817267,362.6024196000071,363.61452589998953,363.59788969997317,None,362.6024196000071,None,362.6024196000071,None,362.6024196000071,None,364.345586069976,None,364.345586069976,None,364.345586069976,None,,,,,,,,,,,,,,206,2023-04-21_10h19.32.383,Main,2022.1.1,60.0670227978992,
negative,negative,2,j,l,,,,,,,,,7,13,139,9,,,,,,,,,main,2,2,2,negative,negative,j,j,1,0.7146076000062749,364.3491568999598,365.3643608999555,365.3477829999756,None,364.3491568999598,None,364.3491568999598,None,364.3491568999598,None,366.0618274699664,None,366.0618274699664,None,366.0618274699664,None,,,,,,,,,,,,,,206,2023-04-21_10h19.32.383,Main,2022.1.1,60.0670227978992,
positive,positive,1,l,j,,,,,,,,,7,14,140,2,,,,,,,,,main,2,2,1,positive,positive,l,l,1,0.7488075000001118,366.061860399961,367.06189059995813,367.06189059995813,None,366.061860399961,None,366.061860399961,None,366.061860399961,None,367.8118514699745,None,367.8118514699745,None,367.8118514699745,None,,,,,,,,,,,,,,206,2023-04-21_10h19.32.383,Main,2022.1.1,60.0670227978992,
positive,negative,1,l,j,,,,,,,,,7,15,141,5,,,,,,,,,main,1,1,1,negative,positive,l,l,1,0.6318592000170611,367.8154409999843,368.8310032999725,368.81436369998846,None,367.8154409999843,None,367.8154409999843,None,367.8154409999843,None,369.44550186995184,None,369.44550186995184,None,369.44550186995184,None,,,,,,,,,,,,,,206,2023-04-21_10h19.32.383,Main,2022.1.1,60.0670227978992,
neutral,negative,2,k,k,,,,,,,,,7,16,142,16,,,,,,,,,main,2,2,2,negative,neutral,k,k,1,0.6838838999974541,369.44984269997803,370.46427309996216,370.44777420000173,None,369.44984269997803,None,369.44984269997803,None,369.44984269997803,None,371.13089296995895,None,371.13089296995895,None,371.13089296995895,None,,,,,,,,,,,,,,206,2023-04-21_10h19.32.383,Main,2022.1.1,60.0670227978992,
negative,neutral,2,j,l,,,,,,,,,7,17,143,12,,,,,,,,,main,2,2,2,neutral,negative,j,j,1,0.6985825999872759,371.1337505999836,372.14758819999406,372.13098889996763,None,371.1337505999836,None,371.1337505999836,None,371.1337505999836,None,372.83078826998826,None,372.83078826998826,None,372.83078826998826,None,,,,,,,,,,,,,,206,2023-04-21_10h19.32.383,Main,2022.1.1,60.0670227978992,
neutral,negative,2,k,k,,,,,,,,,8,0,144,16,,,,,,,,,main,1,1,2,negative,neutral,k,k,1,0.6986489000264555,372.83383419999154,373.8475871999981,373.8287311999593,None,372.83383419999154,None,372.83383419999154,None,372.83383419999154,None,374.53090297000017,None,374.53090297000017,None,374.53090297000017,None,,,,,,,,,,,,,,206,2023-04-21_10h19.32.383,Main,2022.1.1,60.0670227978992,
neutral,negative,1,k,k,,,,,,,,,8,1,145,7,,,,,,,,,main,2,2,1,negative,neutral,k,k,1,0.7043720999499783,374.534565799986,375.54742979997536,375.5286911999574,None,374.534565799986,None,374.534565799986,None,374.534565799986,None,376.2369954699534,None,376.2369954699534,None,376.2369954699534,None,,,,,,,,,,,,,,206,2023-04-21_10h19.32.383,Main,2022.1.1,60.0670227978992,
positive,negative,1,l,j,,,,,,,,,8,2,146,5,,,,,,,,,main,2,2,1,negative,positive,l,l,1,0.7730556999449618,376.25073520001024,377.2616813000059,377.22830699995393,None,376.25073520001024,None,376.25073520001024,None,376.25073520001024,None,378.0115923699923,None,378.0115923699923,None,378.0115923699923,None,,,,,,,,,,,,,,206,2023-04-21_10h19.32.383,Main,2022.1.1,60.0670227978992,
negative,negative,2,j,l,,,,,,,,,8,3,147,9,,,,,,,,,main,1,1,2,negative,negative,j,j,1,0.6653203999740072,378.01214529998833,379.01418170001125,379.01418170001125,None,378.01214529998833,None,378.01214529998833,None,378.01214529998833,None,379.67866346996743,None,379.67866346996743,None,379.67866346996743,None,,,,,,,,,,,,,,206,2023-04-21_10h19.32.383,Main,2022.1.1,60.0670227978992,
neutral,positive,2,k,k,,,,,,,,,8,4,148,13,,,,,,,,,main,2,2,2,positive,neutral,k,k,1,0.6170976999565028,379.68252899998333,380.69739539996954,380.6808258999954,None,379.68252899998333,None,379.68252899998333,None,379.68252899998333,None,381.2974538700073,None,381.2974538700073,None,381.2974538700073,None,,,,,,,,,,,,,,206,2023-04-21_10h19.32.383,Main,2022.1.1,60.0670227978992,
positive,neutral,2,l,j,,,,,,,,,8,5,149,17,,,,,,,,,main,1,1,2,neutral,positive,l,l,1,0.7960071999696083,381.3003470999538,382.31399659998715,382.2974751999718,None,381.3003470999538,None,381.3003470999538,None,381.3003470999538,None,383.0948977699736,None,383.0948977699736,None,383.0948977699736,None,,,,,,,,,,,,,,206,2023-04-21_10h19.32.383,Main,2022.1.1,60.0670227978992,
positive,negative,2,l,j,,,,,,,,,8,6,150,14,,,,,,,,,main,2,2,2,negative,positive,l,l,1,0.7188287999597378,383.10134940000717,384.1140147999977,384.0973464999697,None,383.10134940000717,None,383.10134940000717,None,383.10134940000717,None,384.81426106998697,None,384.81426106998697,None,384.81426106998697,None,,,,,,,,,,,,,,206,2023-04-21_10h19.32.383,Main,2022.1.1,60.0670227978992,
neutral,neutral,1,k,k,,,,,,,,,8,7,151,1,,,,,,,,,main,2,2,1,neutral,neutral,k,k,1,0.6379956000018865,384.8232005999889,385.82848599995486,385.8140991999535,None,384.8232005999889,None,384.8232005999889,None,384.8232005999889,None,386.4548934699851,None,386.4548934699851,None,386.4548934699851,None,,,,,,,,,,,,,,206,2023-04-21_10h19.32.383,Main,2022.1.1,60.0670227978992,
negative,neutral,1,j,l,,,,,,,,,8,8,152,3,,,,,,,,,main,2,2,1,neutral,negative,j,j,1,0.9386216999846511,386.4656351999729,387.47834549995605,387.4450175999664,None,386.4656351999729,None,386.4656351999729,None,386.4656351999729,None,388.39495736995013,None,388.39495736995013,None,388.39495736995013,None,,,,,,,,,,,,,,206,2023-04-21_10h19.32.383,Main,2022.1.1,60.0670227978992,
negative,neutral,2,j,l,,,,,,,,,8,9,153,12,,,,,,,,,main,2,2,2,neutral,negative,j,j,1,0.8480953999678604,388.3986195999896,389.41385539999465,389.3949896999984,None,388.3986195999896,None,388.3986195999896,None,388.3986195999896,None,390.2449305699556,None,390.2449305699556,None,390.2449305699556,None,,,,,,,,,,,,,,206,2023-04-21_10h19.32.383,Main,2022.1.1,60.0670227978992,
neutral,positive,1,k,k,,,,,,,,,8,10,154,4,,,,,,,,,main,1,1,1,positive,neutral,k,k,1,0.7317175999633037,390.2489394999575,391.26389989996096,391.24713549995795,None,390.2489394999575,None,390.2489394999575,None,390.2489394999575,None,391.97826796997106,None,391.97826796997106,None,391.97826796997106,None,,,,,,,,,,,,,,206,2023-04-21_10h19.32.383,Main,2022.1.1,60.0670227978992,
positive,neutral,1,l,j,,,,,,,,,8,11,155,8,,,,,,,,,main,2,2,1,neutral,positive,l,l,1,0.7659474000101909,391.9970934999874,393.0116182999918,392.9782690999564,None,391.9970934999874,None,391.9970934999874,None,391.9970934999874,None,393.7446918700007,None,393.7446918700007,None,393.7446918700007,None,,,,,,,,,,,,,,206,2023-04-21_10h19.32.383,Main,2022.1.1,60.0670227978992,
negative,positive,2,j,l,,,,,,,,,8,12,156,15,,,,,,,,,main,2,2,2,positive,negative,j,j,1,0.6831167999771424,393.76359699998284,394.7803741999669,394.74491740000667,None,393.76359699998284,None,393.76359699998284,None,393.76359699998284,None,395.4303594699595,None,395.4303594699595,None,395.4303594699595,None,,,,,,,,,,,,,,206,2023-04-21_10h19.32.383,Main,2022.1.1,60.0670227978992,
negative,positive,1,j,l,,,,,,,,,8,13,157,6,,,,,,,,,main,1,1,1,positive,negative,j,j,1,0.646508099976927,395.4343210000079,396.4449122999795,396.42824879998807,None,395.4343210000079,None,395.4343210000079,None,395.4343210000079,None,397.0781933699618,None,397.0781933699618,None,397.0781933699618,None,,,,,,,,,,,,,,206,2023-04-21_10h19.32.383,Main,2022.1.1,60.0670227978992,
positive,positive,1,l,j,,,,,,,,,8,14,158,2,,,,,,,,,main,1,1,1,positive,positive,l,l,1,0.8977701999829151,397.08217419998255,398.09449599997606,398.077837299963,None,397.08217419998255,None,397.08217419998255,None,397.08217419998255,None,398.9777997699566,None,398.9777997699566,None,398.9777997699566,None,,,,,,,,,,,,,,206,2023-04-21_10h19.32.383,Main,2022.1.1,60.0670227978992,
neutral,neutral,2,k,k,,,,,,,,,8,15,159,10,,,,,,,,,main,2,2,2,neutral,neutral,k,k,1,0.6342777000390925,398.97784020000836,399.9779039999703,399.9779039999703,None,398.97784020000836,None,398.97784020000836,None,398.97784020000836,None,400.6137374700047,None,400.6137374700047,None,400.6137374700047,None,,,,,,,,,,,,,,206,2023-04-21_10h19.32.383,Main,2022.1.1,60.0670227978992,
negative,negative,1,j,l,,,,,,,,,8,16,160,0,,,,,,,,,main,1,1,1,negative,negative,j,j,1,0.7127452999702655,400.6199043999659,401.6304080999689,401.6137438999722,None,400.6199043999659,None,400.6199043999659,None,400.6199043999659,None,402.3281589699909,None,402.3281589699909,None,402.3281589699909,None,,,,,,,,,,,,,,206,2023-04-21_10h19.32.383,Main,2022.1.1,60.0670227978992,
positive,positive,2,l,j,,,,,,,,,8,17,161,11,,,,,,,,,main,1,1,2,positive,positive,l,l,1,0.865434399980586,402.3343982999795,403.34697929996764,403.33036099997116,None,402.3343982999795,None,402.3343982999795,None,402.3343982999795,None,404.19477946998086,None,404.19477946998086,None,404.19477946998086,None,,,,,,,,,,,,,,206,2023-04-21_10h19.32.383,Main,2022.1.1,60.0670227978992,
negative,neutral,1,j,l,,,,,,,,,9,0,162,3,,,,,,,,,main,2,2,1,neutral,negative,j,j,1,0.8163892999873497,404.19867319997866,405.21364699996775,405.1944671999663,None,404.19867319997866,None,404.19867319997866,None,404.19867319997866,None,406.0128034699592,None,406.0128034699592,None,406.0128034699592,None,,,,,,,,,,,,,,206,2023-04-21_10h19.32.383,Main,2022.1.1,60.0670227978992,
positive,negative,1,l,j,,,,,,,,,9,1,163,5,,,,,,,,,main,1,1,1,negative,positive,l,l,1,0.7491071000113152,406.0182652999647,407.0278834999772,407.01368179998826,None,406.0182652999647,None,406.0182652999647,None,406.0182652999647,None,407.76343637000537,None,407.76343637000537,None,407.76343637000537,None,,,,,,,,,,,,,,206,2023-04-21_10h19.32.383,Main,2022.1.1,60.0670227978992,
negative,negative,2,j,l,,,,,,,,,9,2,164,9,,,,,,,,,main,2,2,2,negative,negative,j,j,1,0.7287305000354536,407.76747859996976,408.77766179997707,408.76100189995486,None,407.76747859996976,None,407.76747859996976,None,407.76747859996976,None,409.49425106996205,None,409.49425106996205,None,409.49425106996205,None,,,,,,,,,,,,,,206,2023-04-21_10h19.32.383,Main,2022.1.1,60.0670227978992,
neutral,neutral,1,k,k,,,,,,,,,9,3,165,1,,,,,,,,,main,2,2,1,neutral,neutral,k,k,1,0.7491455000126734,409.4946310999803,410.494357699994,410.494357699994,None,409.4946310999803,None,409.4946310999803,None,409.4946310999803,None,411.24471626995364,None,411.24471626995364,None,411.24471626995364,None,,,,,,,,,,,,,,206,2023-04-21_10h19.32.383,Main,2022.1.1,60.0670227978992,
neutral,positive,2,k,k,,,,,,,,,9,4,166,13,,,,,,,,,main,2,2,2,positive,neutral,k,k,1,0.6306955000036396,411.2509100000025,412.26390299998457,412.2468899000087,None,411.2509100000025,None,411.2509100000025,None,411.2509100000025,None,412.8776199700078,None,412.8776199700078,None,412.8776199700078,None,,,,,,,,,,,,,,206,2023-04-21_10h19.32.383,Main,2022.1.1,60.0670227978992,
negative,positive,2,j,l,,,,,,,,,9,5,167,15,,,,,,,,,main,1,1,2,positive,negative,j,j,1,0.7484766999841668,412.8814716999768,413.89671479997924,413.88012519996846,None,412.8814716999768,None,412.8814716999768,None,412.8814716999768,None,414.6278949700063,None,414.6278949700063,None,414.6278949700063,None,,,,,,,,,,,,,,206,2023-04-21_10h19.32.383,Main,2022.1.1,60.0670227978992,
neutral,negative,2,k,k,,,,,,,,,9,6,168,16,,,,,,,,,main,2,2,2,negative,neutral,k,k,1,0.6170760000240989,414.6314279999933,415.6467694999883,415.62785180000355,None,414.6314279999933,None,414.6314279999933,None,414.6314279999933,None,416.246581269952,None,416.246581269952,None,416.246581269952,None,,,,,,,,,,,,,,206,2023-04-21_10h19.32.383,Main,2022.1.1,60.0670227978992,
neutral,positive,1,k,k,,,,,,,,,9,7,169,4,,,,,,,,,main,1,1,1,positive,neutral,k,k,1,0.5628329000319354,416.2499233999988,417.26343240001006,417.244509799988,None,416.2499233999988,None,416.2499233999988,None,416.2499233999988,None,417.8111407699762,None,417.8111407699762,None,417.8111407699762,None,,,,,,,,,,,,,,206,2023-04-21_10h19.32.383,Main,2022.1.1,60.0670227978992,
positive,negative,2,l,j,,,,,,,,,9,8,170,14,,,,,,,,,main,2,2,2,negative,positive,l,l,1,0.7980817999923602,417.8150338999694,418.8274507999886,418.81080310000107,None,417.8150338999694,None,417.8150338999694,None,417.8150338999694,None,419.61073636997025,None,419.61073636997025,None,419.61073636997025,None,,,,,,,,,,,,,,206,2023-04-21_10h19.32.383,Main,2022.1.1,60.0670227978992,
positive,neutral,1,l,j,,,,,,,,,9,9,171,8,,,,,,,,,main,2,2,1,neutral,positive,l,l,1,0.6843148000189103,419.6274327999563,420.62747119995765,420.61080229998333,None,419.6274327999563,None,419.6274327999563,None,419.6274327999563,None,421.2966957699973,None,421.2966957699973,None,421.2966957699973,None,,,,,,,,,,,,,,206,2023-04-21_10h19.32.383,Main,2022.1.1,60.0670227978992,
negative,neutral,2,j,l,,,,,,,,,9,10,172,12,,,,,,,,,main,1,1,2,neutral,negative,j,j,1,0.7291578999720514,421.30002799996873,422.31329389999155,422.296729099995,None,421.30002799996873,None,421.30002799996873,None,421.30002799996873,None,423.0276943699573,None,423.0276943699573,None,423.0276943699573,None,,,,,,,,,,,,,,206,2023-04-21_10h19.32.383,Main,2022.1.1,60.0670227978992,
positive,positive,1,l,j,,,,,,,,,9,11,173,2,,,,,,,,,main,2,2,1,positive,positive,l,l,1,0.8673981000320055,423.0334268999868,424.0464967999724,424.02990829997,None,423.0334268999868,None,423.0334268999868,None,423.0334268999868,None,424.89646936999634,None,424.89646936999634,None,424.89646936999634,None,,,,,,,,,,,,,,206,2023-04-21_10h19.32.383,Main,2022.1.1,60.0670227978992,
positive,neutral,2,l,j,,,,,,,,,9,12,174,17,,,,,,,,,main,2,2,2,neutral,positive,l,l,1,0.981663300015498,424.9000897000078,425.91314279998187,425.8966214999673,None,424.9000897000078,None,424.9000897000078,None,424.9000897000078,None,426.8797521700035,None,426.8797521700035,None,426.8797521700035,None,,,,,,,,,,,,,,206,2023-04-21_10h19.32.383,Main,2022.1.1,60.0670227978992,
negative,positive,1,j,l,,,,,,,,,9,13,175,6,,,,,,,,,main,2,2,1,positive,negative,j,j,1,0.6803763999487273,426.8834848999977,427.8942868000013,427.879861399997,None,426.8834848999977,None,426.8834848999977,None,426.8834848999977,None,428.56089926999994,None,428.56089926999994,None,428.56089926999994,None,,,,,,,,,,,,,,206,2023-04-21_10h19.32.383,Main,2022.1.1,60.0670227978992,
negative,negative,1,j,l,,,,,,,,,9,14,176,0,,,,,,,,,main,2,2,1,negative,negative,j,j,1,0.6968787999940105,428.5768664999632,429.577235499979,429.56055729999207,None,428.5768664999632,None,428.5768664999632,None,428.5768664999632,None,430.26054046995705,None,430.26054046995705,None,430.26054046995705,None,,,,,,,,,,,,,,206,2023-04-21_10h19.32.383,Main,2022.1.1,60.0670227978992,
positive,positive,2,l,j,,,,,,,,,9,15,177,11,,,,,,,,,main,1,1,2,positive,positive,l,l,1,0.7813860999885947,430.2618578999536,431.2772516999976,431.26057839998975,None,430.2618578999536,None,430.2618578999536,None,430.2618578999536,None,432.0438529700041,None,432.0438529700041,None,432.0438529700041,None,,,,,,,,,,,,,,206,2023-04-21_10h19.32.383,Main,2022.1.1,60.0670227978992,
neutral,negative,1,k,k,,,,,,,,,9,16,178,7,,,,,,,,,main,1,1,1,negative,neutral,k,k,1,0.6317294000182301,432.044590000005,433.0438734999625,433.0438734999625,None,432.044590000005,None,432.044590000005,None,432.044590000005,None,433.6772549699526,None,433.6772549699526,None,433.6772549699526,None,,,,,,,,,,,,,,206,2023-04-21_10h19.32.383,Main,2022.1.1,60.0670227978992,
neutral,neutral,2,k,k,,,,,,,,,9,17,179,10,,,,,,,,,main,2,2,2,neutral,neutral,k,k,1,0.664880299998913,433.6836335999542,434.69631179998396,434.679712299956,None,433.6836335999542,None,433.6836335999542,None,433.6836335999542,None,435.343830369995,None,435.343830369995,None,435.343830369995,None,,,,,,,,,,,,,,206,2023-04-21_10h19.32.383,Main,2022.1.1,60.0670227978992,
neutral,positive,1,k,k,,,,,,,,,10,0,180,4,,,,,,,,,main,1,1,1,positive,neutral,k,k,1,0.6993456000345759,435.35005859995726,436.36294139997335,436.34632579999743,None,435.35005859995726,None,435.35005859995726,None,435.35005859995726,None,437.04460646997904,None,437.04460646997904,None,437.04460646997904,None,,,,,,,,,,,,,,206,2023-04-21_10h19.32.383,Main,2022.1.1,60.0670227978992,
positive,negative,2,l,j,,,,,,,,,10,1,181,14,,,,,,,,,main,1,1,2,negative,positive,l,l,1,0.7668270000140183,437.0630436000065,438.06288739998126,438.04644099995494,None,437.0630436000065,None,437.0630436000065,None,437.0630436000065,None,438.812841070001,None,438.812841070001,None,438.812841070001,None,,,,,,,,,,,,,,206,2023-04-21_10h19.32.383,Main,2022.1.1,60.0670227978992,
negative,neutral,2,j,l,,,,,,,,,10,2,182,12,,,,,,,,,main,1,1,2,neutral,negative,j,j,1,0.7125372000155039,438.81643740000436,439.82951730000786,439.8129483999801,None,438.81643740000436,None,438.81643740000436,None,438.81643740000436,None,440.52733856998384,None,440.52733856998384,None,440.52733856998384,None,,,,,,,,,,,,,,206,2023-04-21_10h19.32.383,Main,2022.1.1,60.0670227978992,
neutral,neutral,2,k,k,,,,,,,,,10,3,183,10,,,,,,,,,main,2,2,2,neutral,neutral,k,k,1,0.6649554999894463,440.5309161999612,441.5436597999651,441.5269749999861,None,440.5309161999612,None,440.5309161999612,None,440.5309161999612,None,442.19361416995525,None,442.19361416995525,None,442.19361416995525,None,,,,,,,,,,,,,,206,2023-04-21_10h19.32.383,Main,2022.1.1,60.0670227978992,
negative,negative,1,j,l,,,,,,,,,10,4,184,0,,,,,,,,,main,2,2,1,negative,negative,j,j,1,0.7485478000016883,442.19362189999083,443.1936190999695,443.1936190999695,None,442.19362189999083,None,442.19362189999083,None,442.19362189999083,None,443.94363796996186,None,443.94363796996186,None,443.94363796996186,None,,,,,,,,,,,,,,206,2023-04-21_10h19.32.383,Main,2022.1.1,60.0670227978992,
negative,negative,2,j,l,,,,,,,,,10,5,185,9,,,,,,,,,main,2,2,2,negative,negative,j,j,1,0.7698990000062622,443.94732289999956,444.96276649995707,444.94615189998876,None,443.94732289999956,None,443.94732289999956,None,443.94732289999956,None,445.7127098699566,None,445.7127098699566,None,445.7127098699566,None,,,,,,,,,,,,,,206,2023-04-21_10h19.32.383,Main,2022.1.1,60.0670227978992,
negative,neutral,1,j,l,,,,,,,,,10,6,186,3,,,,,,,,,main,1,1,1,neutral,negative,j,j,1,0.7102145000244491,445.7185797999846,446.72692799998913,446.7130747999763,None,445.7185797999846,None,445.7185797999846,None,445.7185797999846,None,447.4271815699758,None,447.4271815699758,None,447.4271815699758,None,,,,,,,,,,,,,,206,2023-04-21_10h19.32.383,Main,2022.1.1,60.0670227978992,
positive,negative,1,l,j,,,,,,,,,10,7,187,5,,,,,,,,,main,2,2,1,negative,positive,l,l,1,0.7845534000080079,447.43074039998464,448.4460826999857,448.42942289996427,None,447.43074039998464,None,447.43074039998464,None,447.43074039998464,None,449.2127365699853,None,449.2127365699853,None,449.2127365699853,None,,,,,,,,,,,,,,206,2023-04-21_10h19.32.383,Main,2022.1.1,60.0670227978992,
neutral,negative,2,k,k,,,,,,,,,10,8,188,16,,,,,,,,,main,2,2,2,negative,neutral,k,k,1,0.6177728000329807,449.2163989999681,450.2294145000051,450.21279610000784,None,449.2163989999681,None,449.2163989999681,None,449.2163989999681,None,450.8323555699899,None,450.8323555699899,None,450.8323555699899,None,,,,,,,,,,,,,,206,2023-04-21_10h19.32.383,Main,2022.1.1,60.0670227978992,
neutral,positive,2,k,k,,,,,,,,,10,9,189,13,,,,,,,,,main,2,2,2,positive,neutral,k,k,1,0.6426219000131823,450.8358861999586,451.8434099999722,451.82672650000313,None,450.8358861999586,None,450.8358861999586,None,450.8358861999586,None,452.4766968699987,None,452.4766968699987,None,452.4766968699987,None,,,,,,,,,,,,,,206,2023-04-21_10h19.32.383,Main,2022.1.1,60.0670227978992,
negative,positive,2,j,l,,,,,,,,,10,10,190,15,,,,,,,,,main,2,2,2,positive,negative,j,j,1,0.7485167999984697,452.4767171999556,453.4767548000091,453.4767548000091,None,452.4767171999556,None,452.4767171999556,None,452.4767171999556,None,454.2267582700006,None,454.2267582700006,None,454.2267582700006,None,,,,,,,,,,,,,,206,2023-04-21_10h19.32.383,Main,2022.1.1,60.0670227978992,
positive,neutral,1,l,j,,,,,,,,,10,11,191,8,,,,,,,,,main,2,2,1,neutral,positive,l,l,1,0.7507484999950975,454.23331459995825,455.2459347000113,455.2293529000017,None,454.23331459995825,None,454.23331459995825,None,454.23331459995825,None,455.97910676995525,None,455.97910676995525,None,455.97910676995525,None,,,,,,,,,,,,,,206,2023-04-21_10h19.32.383,Main,2022.1.1,60.0670227978992,
positive,positive,2,l,j,,,,,,,,,10,12,192,11,,,,,,,,,main,1,1,2,positive,positive,l,l,1,0.8955576000153087,455.9833643999882,456.99591719999444,456.9793329999666,None,455.9833643999882,None,455.9833643999882,None,455.9833643999882,None,457.87695986998733,None,457.87695986998733,None,457.87695986998733,None,,,,,,,,,,,,,,206,2023-04-21_10h19.32.383,Main,2022.1.1,60.0670227978992,
neutral,neutral,1,k,k,,,,,,,,,10,13,193,1,,,,,,,,,main,2,2,1,neutral,neutral,k,k,1,0.7319734999909997,457.88319059996866,458.89587700000266,458.87666889996035,None,457.88319059996866,None,457.88319059996866,None,457.88319059996866,None,459.61026986996876,None,459.61026986996876,None,459.61026986996876,None,,,,,,,,,,,,,,206,2023-04-21_10h19.32.383,Main,2022.1.1,60.0670227978992,
negative,positive,1,j,l,,,,,,,,,10,14,194,6,,,,,,,,,main,1,1,1,positive,negative,j,j,1,0.7317294999957085,459.6164280999801,460.6290680000093,460.6124499999569,None,459.6164280999801,None,459.6164280999801,None,459.6164280999801,None,461.3435829699738,None,461.3435829699738,None,461.3435829699738,None,,,,,,,,,,,,,,206,2023-04-21_10h19.32.383,Main,2022.1.1,60.0670227978992,
positive,positive,1,l,j,,,,,,,,,10,15,195,2,,,,,,,,,main,1,1,1,positive,positive,l,l,1,0.6976654999889433,461.34746469999664,462.35987210000167,462.3432155000046,None,461.34746469999664,None,461.34746469999664,None,461.34746469999664,None,463.043123069976,None,463.043123069976,None,463.043123069976,None,,,,,,,,,,,,,,206,2023-04-21_10h19.32.383,Main,2022.1.1,60.0670227978992,
neutral,negative,1,k,k,,,,,,,,,10,16,196,7,,,,,,,,,main,1,1,1,negative,neutral,k,k,1,0.7321549000334926,463.0431602000026,464.04320429998916,464.04320429998916,None,463.0431602000026,None,463.0431602000026,None,463.0431602000026,None,464.77650696999626,None,464.77650696999626,None,464.77650696999626,None,,,,,,,,,,,,,,206,2023-04-21_10h19.32.383,Main,2022.1.1,60.0670227978992,
positive,neutral,2,l,j,,,,,,,,,10,17,197,17,,,,,,,,,main,2,2,2,neutral,positive,l,l,1,0.7319184000371024,464.7776458999724,465.7932074999553,465.7765525999712,None,464.7776458999724,None,464.7776458999724,None,464.7776458999724,None,466.5101970699616,None,466.5101970699616,None,466.5101970699616,None,,,,,,,,,,,,,,206,2023-04-21_10h19.32.383,Main,2022.1.1,60.0670227978992,
neutral,positive,1,k,k,,,,,,,,,11,0,198,4,,,,,,,,,main,2,2,1,positive,neutral,k,k,1,0.7815101000014693,466.51411960000405,467.5289811999537,467.5124185999739,None,466.51411960000405,None,466.51411960000405,None,466.51411960000405,None,468.2930974699557,None,468.2930974699557,None,468.2930974699557,None,,,,,,,,,,,,,,206,2023-04-21_10h19.32.383,Main,2022.1.1,60.0670227978992,
positive,neutral,2,l,j,,,,,,,,,11,1,199,17,,,,,,,,,main,2,2,2,neutral,positive,l,l,1,0.8339677999611013,468.30005640001036,469.3123624,469.295652300003,None,468.30005640001036,None,468.30005640001036,None,468.30005640001036,None,470.1290139699704,None,470.1290139699704,None,470.1290139699704,None,,,,,,,,,,,,,,206,2023-04-21_10h19.32.383,Main,2022.1.1,60.0670227978992,
negative,positive,2,j,l,,,,,,,,,11,2,200,15,,,,,,,,,main,1,1,2,positive,negative,j,j,1,0.8123144999844953,470.13244729995495,471.145658799971,471.1289419999812,None,470.13244729995495,None,470.13244729995495,None,470.13244729995495,None,471.9431032699649,None,471.9431032699649,None,471.9431032699649,None,,,,,,,,,,,,,,206,2023-04-21_10h19.32.383,Main,2022.1.1,60.0670227978992,
positive,negative,2,l,j,,,,,,,,,11,3,201,14,,,,,,,,,main,1,1,2,negative,positive,l,l,1,0.8689262000261806,471.949438599986,472.96225009998307,472.9433716000058,None,471.949438599986,None,471.949438599986,None,471.949438599986,None,473.8120581699768,None,473.8120581699768,None,473.8120581699768,None,,,,,,,,,,,,,,206,2023-04-21_10h19.32.383,Main,2022.1.1,60.0670227978992,
neutral,neutral,2,k,k,,,,,,,,,11,4,202,10,,,,,,,,,main,1,1,2,neutral,neutral,k,k,1,0.6932843999820761,473.81821359996684,474.82631509995554,474.8096485999995,None,473.81821359996684,None,473.81821359996684,None,473.81821359996684,None,475.5095832700026,None,475.5095832700026,None,475.5095832700026,None,,,,,,,,,,,,,,206,2023-04-21_10h19.32.383,Main,2022.1.1,60.0670227978992,
positive,positive,1,l,j,,,,,,,,,11,5,203,2,,,,,,,,,main,1,1,1,positive,positive,l,l,1,0.7847817000001669,475.51000199996633,476.5096620999975,476.5096620999975,None,475.51000199996633,None,475.51000199996633,None,475.51000199996633,None,477.2929196699988,None,477.2929196699988,None,477.2929196699988,None,,,,,,,,,,,,,,206,2023-04-21_10h19.32.383,Main,2022.1.1,60.0670227978992,
positive,positive,2,l,j,,,,,,,,,11,6,204,11,,,,,,,,,main,1,1,2,positive,positive,l,l,1,0.8982569999643601,477.29622359998757,478.3096030000015,478.2929404999595,None,477.29622359998757,None,477.29622359998757,None,477.29622359998757,None,479.1953449699795,None,479.1953449699795,None,479.1953449699795,None,,,,,,,,,,,,,,206,2023-04-21_10h19.32.383,Main,2022.1.1,60.0670227978992,
neutral,positive,2,k,k,,,,,,,,,11,7,205,13,,,,,,,,,main,1,1,2,positive,neutral,k,k,1,0.695939700002782,479.19844760000706,480.21219869999913,480.19548489997396,None,479.19844760000706,None,479.19844760000706,None,479.19844760000706,None,480.8929781699553,None,480.8929781699553,None,480.8929781699553,None,,,,,,,,,,,,,,206,2023-04-21_10h19.32.383,Main,2022.1.1,60.0670227978992,
negative,neutral,2,j,l,,,,,,,,,11,8,206,12,,,,,,,,,main,1,1,2,neutral,negative,j,j,1,0.8006465999642387,480.8990376999718,481.91192479996243,481.8953249999904,None,480.8990376999718,None,480.8990376999718,None,480.8990376999718,None,482.6952546699904,None,482.6952546699904,None,482.6952546699904,None,,,,,,,,,,,,,,206,2023-04-21_10h19.32.383,Main,2022.1.1,60.0670227978992,
negative,positive,1,j,l,,,,,,,,,11,9,207,6,,,,,,,,,main,2,2,1,positive,negative,j,j,1,0.8456961999763735,482.69958319998113,483.7119482999551,483.69543610000983,None,482.69958319998113,None,482.69958319998113,None,482.69958319998113,None,484.5431142699672,None,484.5431142699672,None,484.5431142699672,None,,,,,,,,,,,,,,206,2023-04-21_10h19.32.383,Main,2022.1.1,60.0670227978992,
neutral,negative,1,k,k,,,,,,,,,11,10,208,7,,,,,,,,,main,1,1,1,negative,neutral,k,k,1,0.8169423000072129,484.5468787999707,485.56198040000163,485.5453957999707,None,484.5468787999707,None,484.5468787999707,None,484.5468787999707,None,486.3618200699566,None,486.3618200699566,None,486.3618200699566,None,,,,,,,,,,,,,,206,2023-04-21_10h19.32.383,Main,2022.1.1,60.0670227978992,
neutral,neutral,1,k,k,,,,,,,,,11,11,209,1,,,,,,,,,main,2,2,1,neutral,neutral,k,k,1,0.595866699994076,486.3647543999832,487.37602619995596,487.3593459999538,None,486.3647543999832,None,486.3647543999832,None,486.3647543999832,None,487.95928296999773,None,487.95928296999773,None,487.95928296999773,None,,,,,,,,,,,,,,206,2023-04-21_10h19.32.383,Main,2022.1.1,60.0670227978992,
neutral,negative,2,k,k,,,,,,,,,11,12,210,16,,,,,,,,,main,1,1,2,negative,neutral,k,k,1,0.6009241999709047,487.95934209995903,488.95940339996014,488.95940339996014,None,487.95934209995903,None,487.95934209995903,None,487.95934209995903,None,489.5617898699711,None,489.5617898699711,None,489.5617898699711,None,,,,,,,,,,,,,,206,2023-04-21_10h19.32.383,Main,2022.1.1,60.0670227978992,
negative,negative,2,j,l,,,,,,,,,11,13,211,9,,,,,,,,,main,2,2,2,negative,negative,j,j,1,0.8462582000065595,489.5647275999654,490.5785922000068,490.5618880999973,None,489.5647275999654,None,489.5647275999654,None,489.5647275999654,None,491.4096383699798,None,491.4096383699798,None,491.4096383699798,None,,,,,,,,,,,,,,206,2023-04-21_10h19.32.383,Main,2022.1.1,60.0670227978992,
positive,negative,1,l,j,,,,,,,,,11,14,212,5,,,,,,,,,main,2,2,1,negative,positive,l,l,1,0.8009145999676548,491.41324609995354,492.42842189996736,492.4119131999905,None,491.41324609995354,None,491.41324609995354,None,491.41324609995354,None,493.2117660699878,None,493.2117660699878,None,493.2117660699878,None,,,,,,,,,,,,,,206,2023-04-21_10h19.32.383,Main,2022.1.1,60.0670227978992,
positive,neutral,1,l,j,,,,,,,,,11,15,213,8,,,,,,,,,main,2,2,1,neutral,positive,l,l,1,0.8129814999992959,493.2170008000103,494.2284146999591,494.2118373999838,None,493.2170008000103,None,493.2170008000103,None,493.2170008000103,None,495.0266793699702,None,495.0266793699702,None,495.0266793699702,None,,,,,,,,,,,,,,206,2023-04-21_10h19.32.383,Main,2022.1.1,60.0670227978992,
negative,negative,1,j,l,,,,,,,,,11,16,214,0,,,,,,,,,main,2,2,1,negative,negative,j,j,1,0.7312740000197664,495.03306819999125,496.04503819998354,496.02831619995413,None,495.03306819999125,None,495.03306819999125,None,495.03306819999125,None,496.75952446996234,None,496.75952446996234,None,496.75952446996234,None,,,,,,,,,,,,,,206,2023-04-21_10h19.32.383,Main,2022.1.1,60.0670227978992,
negative,neutral,1,j,l,,,,,,,,,11,17,215,3,,,,,,,,,main,1,1,1,neutral,negative,j,j,1,0.6145536000258289,496.7694910999853,497.775836899993,497.75919209996937,None,496.7694910999853,None,496.7694910999853,None,496.7694910999853,None,498.37577996996697,None,498.37577996996697,None,498.37577996996697,None,,,,,,,,,,,,,,206,2023-04-21_10h19.32.383,Main,2022.1.1,60.0670227978992,
positive,positive,2,l,j,,,,,,,,,12,0,216,11,,,,,,,,,main,2,2,2,positive,positive,l,l,1,0.7322536000283435,498.37590459996136,499.37585129996296,499.37585129996296,None,498.37590459996136,None,498.37590459996136,None,498.37590459996136,None,500.1094260700047,None,500.1094260700047,None,500.1094260700047,None,,,,,,,,,,,,,,206,2023-04-21_10h19.32.383,Main,2022.1.1,60.0670227978992,
positive,neutral,2,l,j,,,,,,,,,12,1,217,17,,,,,,,,,main,1,1,2,neutral,positive,l,l,1,0.7170421999762766,500.1132866999833,501.12841219996335,501.11166180000873,None,500.1132866999833,None,500.1132866999833,None,500.1132866999833,None,501.8281473699608,None,501.8281473699608,None,501.8281473699608,None,,,,,,,,,,,,,,206,2023-04-21_10h19.32.383,Main,2022.1.1,60.0670227978992,
positive,neutral,1,l,j,,,,,,,,,12,2,218,8,,,,,,,,,main,2,2,1,neutral,positive,l,l,1,0.6461411999771371,501.83162359998096,502.8450003999751,502.8283010000014,None,501.83162359998096,None,501.83162359998096,None,501.83162359998096,None,503.4758624699898,None,503.4758624699898,None,503.4758624699898,None,,,,,,,,,,,,,,206,2023-04-21_10h19.32.383,Main,2022.1.1,60.0670227978992,
negative,negative,1,j,l,,,,,,,,,12,3,219,0,,,,,,,,,main,2,2,1,negative,negative,j,j,1,0.7316277000354603,503.4824627999915,504.49498239997774,504.47832039999776,None,503.4824627999915,None,503.4824627999915,None,503.4824627999915,None,505.20931056997506,None,505.20931056997506,None,505.20931056997506,None,,,,,,,,,,,,,,206,2023-04-21_10h19.32.383,Main,2022.1.1,60.0670227978992,
neutral,positive,1,k,k,,,,,,,,,12,4,220,4,,,,,,,,,main,1,1,1,positive,neutral,k,k,1,0.6983761999872513,505.2152535999776,506.228137099999,506.21154459996615,None,505.2152535999776,None,505.2152535999776,None,505.2152535999776,None,506.90935887000524,None,506.90935887000524,None,506.90935887000524,None,,,,,,,,,,,,,,206,2023-04-21_10h19.32.383,Main,2022.1.1,60.0670227978992,
negative,negative,2,j,l,,,,,,,,,12,5,221,9,,,,,,,,,main,1,1,2,negative,negative,j,j,1,0.7302637999528088,506.9134075999609,507.9256226999569,507.9089777999907,None,506.9134075999609,None,506.9134075999609,None,506.9134075999609,None,508.64221896999516,None,508.64221896999516,None,508.64221896999516,None,,,,,,,,,,,,,,206,2023-04-21_10h19.32.383,Main,2022.1.1,60.0670227978992,
neutral,positive,2,k,k,,,,,,,,,12,6,222,13,,,,,,,,,main,2,2,2,positive,neutral,k,k,1,0.6647507000016049,508.6428859999869,509.6422751999926,509.6422751999926,None,508.6428859999869,None,508.6428859999869,None,508.6428859999869,None,510.3088864699821,None,510.3088864699821,None,510.3088864699821,None,,,,,,,,,,,,,,206,2023-04-21_10h19.32.383,Main,2022.1.1,60.0670227978992,
neutral,neutral,2,k,k,,,,,,,,,12,7,223,10,,,,,,,,,main,2,2,2,neutral,neutral,k,k,1,0.5984799999860115,510.30935449997196,511.3089404999628,511.3089404999628,None,510.30935449997196,None,510.30935449997196,None,510.30935449997196,None,511.90889306995086,None,511.90889306995086,None,511.90889306995086,None,,,,,,,,,,,,,,206,2023-04-21_10h19.32.383,Main,2022.1.1,60.0670227978992,
negative,neutral,2,j,l,,,,,,,,,12,8,224,12,,,,,,,,,main,1,1,2,neutral,negative,j,j,1,0.6479721000068821,511.9147901000106,512.9280453000101,512.9114643000066,None,511.9147901000106,None,511.9147901000106,None,511.9147901000106,None,513.5588763699634,None,513.5588763699634,None,513.5588763699634,None,,,,,,,,,,,,,,206,2023-04-21_10h19.32.383,Main,2022.1.1,60.0670227978992,
