target,distractor,set,ans1,ans2,rep_loop2.thisRepN,rep_loop2.thisTrialN,rep_loop2.thisN,rep_loop2.thisIndex,flanker_prac_loop.thisRepN,flanker_prac_loop.thisTrialN,flanker_prac_loop.thisN,flanker_prac_loop.thisIndex,flanker_main_loop.thisRepN,flanker_main_loop.thisTrialN,flanker_main_loop.thisN,flanker_main_loop.thisIndex,fl_inst_resp.keys,fl_inst_resp.rt,sound_1.started,sound_1.stopped,image_4.started,image_4.stopped,back_2.started,back_2.stopped,main_prac,fl_cold,fl_colt,fl_set,fl_dcond,fl_tcond,fl_ans,fl_res,fl_corr,fl_rt,fix_fl.started,fix_fl.stopped,targ.started,targ.stopped,j_button.started,j_button.stopped,k_button.started,k_button.stopped,l_button.started,l_button.stopped,j_button2.started,j_button2.stopped,k_button2.started,k_button2.stopped,l_button2.started,l_button2.stopped,mainback.started,mainback.stopped,key_resp.keys,key_resp.rt,mouse_6.x,mouse_6.y,mouse_6.leftButton,mouse_6.midButton,mouse_6.rightButton,mouse_6.started,mouse_6.stopped,text_2.started,text_2.stopped,id*,date,expName,psychopyVersion,frameRate,
,,,,,0,0,0,0,,,,,,,,,space,21.955569199984893,24.787405909982045,None,46.770194499986246,None,,,,,,,,,,,,,,,,,,,,,,,,,,,,,,,,,,,,,,,,,,207,2023-04-26_13h15.44.102,Main,2022.1.1,59.85751515908863,
neutral,positive,2,k,k,,,,,0,0,0,13,,,,,,,,,,,51.936891000019386,None,prac,2,2,2,positive,neutral,k,k,1,0.9282564000459388,53.94250010000542,54.95348400005605,54.93695010000374,None,53.94250010000542,None,53.94250010000542,None,53.94250010000542,None,55.86801071000518,None,55.86801071000518,None,55.86801071000518,None,,,,,,,,,,,,,,207,2023-04-26_13h15.44.102,Main,2022.1.1,59.85751515908863,
neutral,neutral,2,k,k,,,,,0,1,1,10,,,,,,,,,,,,,prac,1,1,2,neutral,neutral,k,k,1,0.7580695999786258,55.87200189998839,56.88692009996157,56.870192200061865,None,55.87200189998839,None,55.87200189998839,None,55.87200189998839,None,57.628307510062584,None,57.628307510062584,None,57.628307510062584,None,,,,,,,,,,,,,,207,2023-04-26_13h15.44.102,Main,2022.1.1,59.85751515908863,
neutral,negative,1,k,k,,,,,0,2,2,7,,,,,,,,,,,,,prac,2,2,1,negative,neutral,k,k,1,0.9047325999708846,57.6294161999831,58.63424899999518,58.61758159997407,None,57.6294161999831,None,57.6294161999831,None,57.6294161999831,None,59.53423131002346,None,59.53423131002346,None,59.53423131002346,None,,,,,,,,,,,,,,207,2023-04-26_13h15.44.102,Main,2022.1.1,59.85751515908863,
negative,positive,2,j,l,,,,,0,3,3,15,,,,,,,,,,,,,prac,1,1,2,positive,negative,l,l,1,1.1824293999234214,59.53496149997227,60.53425240004435,60.53425240004435,None,59.53496149997227,None,59.53496149997227,None,59.53496149997227,None,61.718149909994096,None,61.718149909994096,None,61.718149909994096,None,,,,,,,,,,,,,,207,2023-04-26_13h15.44.102,Main,2022.1.1,59.85751515908863,
negative,negative,1,j,l,,,,,0,4,4,0,,,,,,,,,,,,,prac,2,2,1,negative,negative,l,l,1,0.7341810000361875,61.724485700018704,62.73676440003328,62.720173500012606,None,61.724485700018704,None,61.724485700018704,None,61.724485700018704,None,63.45355000999989,None,63.45355000999989,None,63.45355000999989,None,,,,,,,,,,,,,,207,2023-04-26_13h15.44.102,Main,2022.1.1,59.85751515908863,
negative,negative,2,j,l,,,,,0,5,5,9,,,,,,,,,,,,,prac,2,2,2,negative,negative,l,l,1,0.8124944000737742,63.4568803999573,64.46995329996571,64.45339210005477,None,63.4568803999573,None,63.4568803999573,None,63.4568803999573,None,65.26748540998669,None,65.26748540998669,None,65.26748540998669,None,,,,,,,,,,,,,,207,2023-04-26_13h15.44.102,Main,2022.1.1,59.85751515908863,
positive,neutral,1,l,j,,,,,0,6,6,8,,,,,,,,,,,,,prac,2,2,1,neutral,positive,j,j,1,1.1176668000407517,65.27396420005243,66.28667429997586,66.27006210002583,None,65.27396420005243,None,65.27396420005243,None,65.27396420005243,None,67.38653890999267,None,67.38653890999267,None,67.38653890999267,None,,,,,,,,,,,,,,207,2023-04-26_13h15.44.102,Main,2022.1.1,59.85751515908863,
neutral,negative,2,k,k,,,,,0,7,7,16,,,,,,,,,,,,,prac,1,1,2,negative,neutral,k,k,1,0.7122396000195295,67.3895870000124,68.40316440002061,68.38668690004852,None,67.3895870000124,None,67.3895870000124,None,67.3895870000124,None,69.10028181005036,None,69.10028181005036,None,69.10028181005036,None,,,,,,,,,,,,,,207,2023-04-26_13h15.44.102,Main,2022.1.1,59.85751515908863,
positive,negative,2,l,j,,,,,0,8,8,14,,,,,,,,,,,,,prac,2,2,2,negative,positive,j,j,1,1.0157881999621168,69.09992129995953,70.10068809997756,70.10068809997756,None,69.09992129995953,None,69.09992129995953,None,69.09992129995953,None,71.11737271003658,None,71.11737271003658,None,71.11737271003658,None,,,,,,,,,,,,,,207,2023-04-26_13h15.44.102,Main,2022.1.1,59.85751515908863,
negative,neutral,2,j,l,,,,,0,9,9,12,,,,,,,,,,,,,prac,1,1,2,neutral,negative,l,l,1,0.8679373000049964,71.12037779996172,72.11977860005572,72.10318039997946,None,71.12037779996172,None,71.12037779996172,None,71.12037779996172,None,72.98637080996996,None,72.98637080996996,None,72.98637080996996,None,,,,,,,,,,,,,,207,2023-04-26_13h15.44.102,Main,2022.1.1,59.85751515908863,
positive,positive,1,l,j,,,,,0,10,10,2,,,,,,,,,,,,,prac,1,1,1,positive,positive,j,j,1,0.9308638999937102,72.99063150002621,74.00310299999546,73.98659290000796,None,72.99063150002621,None,72.99063150002621,None,72.99063150002621,None,74.91972531006904,None,74.91972531006904,None,74.91972531006904,None,,,,,,,,,,,,,,207,2023-04-26_13h15.44.102,Main,2022.1.1,59.85751515908863,
positive,negative,1,l,j,,,,,0,11,11,5,,,,,,,,,,,,,prac,1,1,1,negative,positive,j,j,1,0.7636454999446869,74.92243939999025,75.93425980000757,75.91758979996666,None,74.92243939999025,None,74.92243939999025,None,74.92243939999025,None,76.6842368099722,None,76.6842368099722,None,76.6842368099722,None,,,,,,,,,,,,,,207,2023-04-26_13h15.44.102,Main,2022.1.1,59.85751515908863,
positive,positive,2,l,j,,,,,0,12,12,11,,,,,,,,,,,,,prac,1,1,2,positive,positive,j,j,1,0.7309265000512823,76.68886210001074,77.70309209998231,77.68636489997152,None,76.68886210001074,None,76.68886210001074,None,76.68886210001074,None,78.41756111000431,None,78.41756111000431,None,78.41756111000431,None,,,,,,,,,,,,,,207,2023-04-26_13h15.44.102,Main,2022.1.1,59.85751515908863,
negative,neutral,1,j,l,,,,,0,13,13,3,,,,,,,,,,,,,prac,2,2,1,neutral,negative,l,l,1,0.7975166999967769,78.4234746999573,79.4337833999889,79.41712500003632,None,78.4234746999573,None,78.4234746999573,None,78.4234746999573,None,80.21713221004465,None,80.21713221004465,None,80.21713221004465,None,,,,,,,,,,,,,,207,2023-04-26_13h15.44.102,Main,2022.1.1,59.85751515908863,
negative,positive,1,j,l,,,,,0,14,14,6,,,,,,,,,,,,,prac,1,1,1,positive,negative,l,l,1,0.8822683999314904,80.21710380003788,81.21721030003391,81.21721030003391,None,80.21710380003788,None,80.21710380003788,None,80.21710380003788,None,82.10083890998503,None,82.10083890998503,None,82.10083890998503,None,,,,,,,,,,,,,,207,2023-04-26_13h15.44.102,Main,2022.1.1,59.85751515908863,
neutral,neutral,1,k,k,,,,,0,15,15,1,,,,,,,,,,,,,prac,2,2,1,neutral,neutral,k,k,1,0.6320934999966994,82.10521900001913,83.1174875999568,83.10300909995567,None,82.10521900001913,None,82.10521900001913,None,82.10521900001913,None,83.73412660999456,None,83.73412660999456,None,83.73412660999456,None,,,,,,,,,,,,,,207,2023-04-26_13h15.44.102,Main,2022.1.1,59.85751515908863,
neutral,positive,1,k,k,,,,,0,16,16,4,,,,,,,,,,,,,prac,1,1,1,positive,neutral,k,k,1,0.6652218999806792,83.73779579997063,84.75288010004442,84.73413999995682,None,83.73779579997063,None,83.73779579997063,None,83.73779579997063,None,85.40069731000112,None,85.40069731000112,None,85.40069731000112,None,,,,,,,,,,,,,,207,2023-04-26_13h15.44.102,Main,2022.1.1,59.85751515908863,
positive,neutral,2,l,j,,,,,0,17,17,17,,,,,,,,,,,,,prac,1,1,2,neutral,positive,j,j,1,0.8820529000367969,85.40614460001234,86.41955150000285,86.40297809999902,None,85.40614460001234,None,85.40614460001234,None,85.40614460001234,None,87.28415160999866,None,87.28415160999866,None,87.28415160999866,None,,,,,,,,,,,,,,207,2023-04-26_13h15.44.102,Main,2022.1.1,59.85751515908863,
positive,positive,1,l,j,,,,,1,0,18,2,,,,,,,,,,,,,prac,2,2,1,positive,positive,j,j,1,0.6319228999782354,87.28818070003763,88.30067959998269,88.28618599998299,None,87.28818070003763,None,87.28818070003763,None,87.28818070003763,None,88.91728661000961,None,88.91728661000961,None,88.91728661000961,None,,,,,,,,,,,,,,207,2023-04-26_13h15.44.102,Main,2022.1.1,59.85751515908863,
neutral,positive,2,k,k,,,,,1,1,19,13,,,,,,,,,,,,,prac,1,1,2,positive,neutral,k,k,1,0.6159100999357179,88.92333759996109,89.93359859997872,89.91692430002149,None,88.92333759996109,None,88.92333759996109,None,88.92333759996109,None,90.53356211005011,None,90.53356211005011,None,90.53356211005011,None,,,,,,,,,,,,,,207,2023-04-26_13h15.44.102,Main,2022.1.1,59.85751515908863,
positive,positive,2,l,j,,,,,1,2,20,11,,,,,,,,,,,,,prac,2,2,2,positive,positive,j,j,1,0.8480007000034675,90.53449250000995,91.53365120000672,91.53365120000672,None,90.53449250000995,None,90.53449250000995,None,90.53449250000995,None,92.38394791005412,None,92.38394791005412,None,92.38394791005412,None,,,,,,,,,,,,,,207,2023-04-26_13h15.44.102,Main,2022.1.1,59.85751515908863,
neutral,negative,1,k,k,,,,,1,3,21,7,,,,,,,,,,,,,prac,2,2,1,negative,neutral,k,k,1,0.6160736000165343,92.38735930004623,93.40283210005146,93.38607200002298,None,92.38735930004623,None,92.38735930004623,None,92.38735930004623,None,94.00025510998675,None,94.00025510998675,None,94.00025510998675,None,,,,,,,,,,,,,,207,2023-04-26_13h15.44.102,Main,2022.1.1,59.85751515908863,
negative,neutral,2,j,l,,,,,1,4,22,12,,,,,,,,,,,,,prac,1,1,2,neutral,negative,l,l,1,0.6143068999517709,94.00901409995276,95.01933220005594,95.00279769999906,None,94.00901409995276,None,94.00901409995276,None,94.00901409995276,None,95.61687480997061,None,95.61687480997061,None,95.61687480997061,None,,,,,,,,,,,,,,207,2023-04-26_13h15.44.102,Main,2022.1.1,59.85751515908863,
negative,negative,1,j,l,,,,,1,5,23,0,,,,,,,,,,,,,prac,1,1,1,negative,negative,l,l,1,0.6490576000651345,95.62407490005717,96.63598639995325,96.61946770001668,None,95.62407490005717,None,95.62407490005717,None,95.62407490005717,None,97.26713901002658,None,97.26713901002658,None,97.26713901002658,None,,,,,,,,,,,,,,207,2023-04-26_13h15.44.102,Main,2022.1.1,59.85751515908863,
negative,positive,2,j,l,,,,,1,6,24,15,,,,,,,,,,,,,prac,1,1,2,positive,negative,l,l,1,0.7007913999259472,97.27284160000272,98.28602460003458,98.26931500004139,None,97.27284160000272,None,97.27284160000272,None,97.27284160000272,None,98.96923490999033,None,98.96923490999033,None,98.96923490999033,None,,,,,,,,,,,,,,207,2023-04-26_13h15.44.102,Main,2022.1.1,59.85751515908863,
negative,neutral,1,j,l,,,,,1,7,25,3,,,,,,,,,,,,,prac,2,2,1,neutral,negative,l,l,1,0.6457849000580609,98.9725432000123,99.98345030006021,99.96675899997354,None,98.9725432000123,None,98.9725432000123,None,98.9725432000123,None,100.61671040999936,None,100.61671040999936,None,100.61671040999936,None,,,,,,,,,,,,,,207,2023-04-26_13h15.44.102,Main,2022.1.1,59.85751515908863,
positive,negative,2,l,j,,,,,1,8,26,14,,,,,,,,,,,,,prac,2,2,2,negative,positive,j,j,1,0.8157516999635845,100.63343439996243,101.63340960000642,101.61673959996551,None,100.63343439996243,None,100.63343439996243,None,100.63343439996243,None,102.43341300998581,None,102.43341300998581,None,102.43341300998581,None,,,,,,,,,,,,,,207,2023-04-26_13h15.44.102,Main,2022.1.1,59.85751515908863,
negative,positive,1,j,l,,,,,1,9,27,6,,,,,,,,,,,,,prac,2,2,1,positive,negative,l,l,1,0.815313300001435,102.43428769998718,103.43342470005155,103.43342470005155,None,102.43428769998718,None,102.43428769998718,None,102.43428769998718,None,104.250109610043,None,104.250109610043,None,104.250109610043,None,,,,,,,,,,,,,,207,2023-04-26_13h15.44.102,Main,2022.1.1,59.85751515908863,
positive,neutral,1,l,j,,,,,1,10,28,8,,,,,,,,,,,,,prac,2,2,1,neutral,positive,j,j,1,0.9823258999967948,104.25703880004585,105.2692107000621,105.25259110005572,None,104.25703880004585,None,104.25703880004585,None,104.25703880004585,None,106.23367391003994,None,106.23367391003994,None,106.23367391003994,None,,,,,,,,,,,,,,207,2023-04-26_13h15.44.102,Main,2022.1.1,59.85751515908863,
neutral,neutral,2,k,k,,,,,1,11,29,10,,,,,,,,,,,,,prac,1,1,2,neutral,neutral,k,k,1,0.5820357999764383,106.23963349999394,107.25254420004785,107.23584109998774,None,106.23963349999394,None,106.23963349999394,None,106.23963349999394,None,107.81711781002814,None,107.81711781002814,None,107.81711781002814,None,,,,,,,,,,,,,,207,2023-04-26_13h15.44.102,Main,2022.1.1,59.85751515908863,
neutral,negative,2,k,k,,,,,1,12,30,16,,,,,,,,,,,,,prac,2,2,2,negative,neutral,k,k,1,0.5012459000572562,107.82381289999466,108.83583620004356,108.81698390003294,None,107.82381289999466,None,107.82381289999466,None,107.82381289999466,None,109.3190480100573,None,109.3190480100573,None,109.3190480100573,None,,,,,,,,,,,,,,207,2023-04-26_13h15.44.102,Main,2022.1.1,59.85751515908863,
neutral,neutral,1,k,k,,,,,1,13,31,1,,,,,,,,,,,,,prac,2,2,1,neutral,neutral,k,k,1,0.7148046999936923,109.32287999999244,110.33566520002205,110.31899930001236,None,109.32287999999244,None,109.32287999999244,None,109.32287999999244,None,111.03584560997551,None,111.03584560997551,None,111.03584560997551,None,,,,,,,,,,,,,,207,2023-04-26_13h15.44.102,Main,2022.1.1,59.85751515908863,
positive,neutral,2,l,j,,,,,1,14,32,17,,,,,,,,,,,,,prac,2,2,2,neutral,positive,j,j,1,0.8137692000018433,111.04012130002957,112.04981740005314,112.03314139996655,None,111.04012130002957,None,111.04012130002957,None,111.04012130002957,None,112.84983122001867,None,112.84983122001867,None,112.84983122001867,None,,,,,,,,,,,,,,207,2023-04-26_13h15.44.102,Main,2022.1.1,59.85751515908863,
neutral,positive,1,k,k,,,,,1,15,33,4,,,,,,,,,,,,,prac,2,2,1,positive,neutral,k,k,1,0.7967650000937283,112.85158090002369,113.86650330002885,113.84984000003897,None,112.85158090002369,None,112.85158090002369,None,112.85158090002369,None,114.64982330998173,None,114.64982330998173,None,114.64982330998173,None,,,,,,,,,,,,,,207,2023-04-26_13h15.44.102,Main,2022.1.1,59.85751515908863,
positive,negative,1,l,j,,,,,1,16,34,5,,,,,,,,,,,,,prac,1,1,1,negative,positive,j,j,1,0.8817624000366777,114.65052340005059,115.6498512000544,115.6498512000544,None,114.65052340005059,None,114.65052340005059,None,114.65052340005059,None,116.53318760999245,None,116.53318760999245,None,116.53318760999245,None,,,,,,,,,,,,,,207,2023-04-26_13h15.44.102,Main,2022.1.1,59.85751515908863,
negative,negative,2,j,l,,,,,1,17,35,9,,,,,,,,,,,,,prac,1,1,2,negative,negative,l,l,1,0.7335523000219837,116.5393290000502,117.54993930005003,117.51904439995997,None,116.5393290000502,None,116.5393290000502,None,116.5393290000502,None,118.26812281006714,None,118.26812281006714,None,118.26812281006714,None,,,,,,,,,,,,,,207,2023-04-26_13h15.44.102,Main,2022.1.1,59.85751515908863,
,,,,,,,,,,,,,,,,,,,,,,,,,,,,,,,,,,,,,,,,,,,,,,,,,,,118.26677320001181,None,space,5.124413500074297,,,,,,,,,,207,2023-04-26_13h15.44.102,Main,2022.1.1,59.85751515908863,
,,,,,,,,,,,,,,,,,,,,,,,,,,,,,,,,,,,,,,,,,,,,,,,,,,,,,,,0.80277777,-0.19722222,0,0,0,0.011063410085625947,None,,,207,2023-04-26_13h15.44.102,Main,2022.1.1,59.85751515908863,
neutral,positive,1,k,k,,,,,,,,,0,0,0,4,,,,,,,123.41629159997683,None,main,2,2,1,positive,neutral,k,k,1,0.7649440999375656,125.42059470003005,126.43548200000077,126.41881589998957,None,125.42059470003005,None,125.42059470003005,None,125.42059470003005,None,127.18334461004706,None,127.18334461004706,None,127.18334461004706,None,,,,,,,,,,,,,,207,2023-04-26_13h15.44.102,Main,2022.1.1,59.85751515908863,
negative,positive,2,j,l,,,,,,,,,0,1,1,15,,,,,,,,,main,2,2,2,positive,negative,l,l,1,0.5969948000274599,127.18807060003746,128.20209659996908,128.18550979997963,None,127.18807060003746,None,127.18807060003746,None,127.18807060003746,None,128.78318480997115,None,128.78318480997115,None,128.78318480997115,None,,,,,,,,,,,,,,207,2023-04-26_13h15.44.102,Main,2022.1.1,59.85751515908863,
neutral,negative,1,k,k,,,,,,,,,0,2,2,7,,,,,,,,,main,2,2,1,negative,neutral,k,k,1,0.6149460999295115,128.78766609996092,129.80210820003413,129.7832298000576,None,128.78766609996092,None,128.78766609996092,None,128.78766609996092,None,130.39980241005543,None,130.39980241005543,None,130.39980241005543,None,,,,,,,,,,,,,,207,2023-04-26_13h15.44.102,Main,2022.1.1,59.85751515908863,
negative,negative,1,j,l,,,,,,,,,0,3,3,0,,,,,,,,,main,2,2,1,negative,negative,l,l,1,0.715922600007616,130.40324699995108,131.41876779997256,131.40205869998317,None,130.40324699995108,None,130.40324699995108,None,130.40324699995108,None,132.11700561003528,None,132.11700561003528,None,132.11700561003528,None,,,,,,,,,,,,,,207,2023-04-26_13h15.44.102,Main,2022.1.1,59.85751515908863,
neutral,neutral,1,k,k,,,,,,,,,0,4,4,1,,,,,,,,,main,1,1,1,neutral,neutral,k,k,1,0.680323600070551,132.13526979996823,133.151825799956,133.1164531999966,None,132.13526979996823,None,132.13526979996823,None,132.13526979996823,None,133.7993520100252,None,133.7993520100252,None,133.7993520100252,None,,,,,,,,,,,,,,207,2023-04-26_13h15.44.102,Main,2022.1.1,59.85751515908863,
negative,neutral,1,j,l,,,,,,,,,0,5,5,3,,,,,,,,,main,2,2,1,neutral,negative,l,l,1,0.715531500056386,133.7993828000035,134.79939259996172,134.79939259996172,None,133.7993828000035,None,133.7993828000035,None,133.7993828000035,None,135.5161181100528,None,135.5161181100528,None,135.5161181100528,None,,,,,,,,,,,,,,207,2023-04-26_13h15.44.102,Main,2022.1.1,59.85751515908863,
negative,negative,2,j,l,,,,,,,,,0,6,6,9,,,,,,,,,main,2,2,2,negative,negative,l,l,1,0.6983323999447748,135.5197948999703,136.53311029996257,136.51859820005484,None,135.5197948999703,None,135.5197948999703,None,135.5197948999703,None,137.21621291002958,None,137.21621291002958,None,137.21621291002958,None,,,,,,,,,,,,,,207,2023-04-26_13h15.44.102,Main,2022.1.1,59.85751515908863,
neutral,negative,2,k,k,,,,,,,,,0,7,7,16,,,,,,,,,main,2,2,2,negative,neutral,k,k,1,0.5645649000070989,137.22295460000169,138.2352803000249,138.21855930006132,None,137.22295460000169,None,137.22295460000169,None,137.22295460000169,None,138.78304021003424,None,138.78304021003424,None,138.78304021003424,None,,,,,,,,,,,,,,207,2023-04-26_13h15.44.102,Main,2022.1.1,59.85751515908863,
positive,negative,1,l,j,,,,,,,,,0,8,8,5,,,,,,,,,main,2,2,1,negative,positive,j,j,1,0.5816066999686882,138.78693930001464,139.8017961999867,139.78527800005395,None,138.78693930001464,None,138.78693930001464,None,138.78693930001464,None,140.36633291003528,None,140.36633291003528,None,140.36633291003528,None,,,,,,,,,,,,,,207,2023-04-26_13h15.44.102,Main,2022.1.1,59.85751515908863,
positive,neutral,1,l,j,,,,,,,,,0,9,9,8,,,,,,,,,main,1,1,1,neutral,positive,j,j,1,0.6171081000939012,140.3722816000227,141.38509979995433,141.36848379997537,None,140.3722816000227,None,140.3722816000227,None,140.3722816000227,None,141.98514021002921,None,141.98514021002921,None,141.98514021002921,None,,,,,,,,,,,,,,207,2023-04-26_13h15.44.102,Main,2022.1.1,59.85751515908863,
positive,neutral,2,l,j,,,,,,,,,0,10,10,17,,,,,,,,,main,2,2,2,neutral,positive,j,j,1,0.6962202000431716,141.988541000057,143.00169629999436,142.9852203000337,None,141.988541000057,None,141.988541000057,None,141.988541000057,None,143.68288591004676,None,143.68288591004676,None,143.68288591004676,None,,,,,,,,,,,,,,207,2023-04-26_13h15.44.102,Main,2022.1.1,59.85751515908863,
positive,positive,2,l,j,,,,,,,,,0,11,11,11,,,,,,,,,main,1,1,2,positive,positive,j,j,1,0.6308858999982476,143.70186779997312,144.71580969996285,144.68249729997478,None,143.70186779997312,None,143.70186779997312,None,143.70186779997312,None,145.31582620997216,None,145.31582620997216,None,145.31582620997216,None,,,,,,,,,,,,,,207,2023-04-26_13h15.44.102,Main,2022.1.1,59.85751515908863,
neutral,neutral,2,k,k,,,,,,,,,0,12,12,10,,,,,,,,,main,2,2,2,neutral,neutral,k,k,1,0.6843017999781296,145.317382200039,146.3325574999908,146.3159023000626,None,145.317382200039,None,145.317382200039,None,145.317382200039,None,147.00175370998915,None,147.00175370998915,None,147.00175370998915,None,,,,,,,,,,,,,,207,2023-04-26_13h15.44.102,Main,2022.1.1,59.85751515908863,
neutral,positive,2,k,k,,,,,,,,,0,13,13,13,,,,,,,,,main,2,2,2,positive,neutral,k,k,1,0.6127773000625893,147.00522739998996,148.01828509999905,148.00179050001316,None,147.00522739998996,None,147.00522739998996,None,147.00522739998996,None,148.61612061004854,None,148.61612061004854,None,148.61612061004854,None,,,,,,,,,,,,,,207,2023-04-26_13h15.44.102,Main,2022.1.1,59.85751515908863,
negative,positive,1,j,l,,,,,,,,,0,14,14,6,,,,,,,,,main,2,2,1,positive,negative,l,l,1,0.6506645999616012,148.61999739997555,149.63502250006422,149.61834869999439,None,148.61999739997555,None,148.61999739997555,None,148.61999739997555,None,150.26825661003824,None,150.26825661003824,None,150.26825661003824,None,,,,,,,,,,,,,,207,2023-04-26_13h15.44.102,Main,2022.1.1,59.85751515908863,
negative,neutral,2,j,l,,,,,,,,,0,15,15,12,,,,,,,,,main,2,2,2,neutral,negative,l,l,1,0.7127319000428542,150.27293370000552,151.28501770005096,151.26610400003847,None,150.27293370000552,None,150.27293370000552,None,150.27293370000552,None,151.98274151004154,None,151.98274151004154,None,151.98274151004154,None,,,,,,,,,,,,,,207,2023-04-26_13h15.44.102,Main,2022.1.1,59.85751515908863,
positive,positive,1,l,j,,,,,,,,,0,16,16,2,,,,,,,,,main,1,1,1,positive,positive,j,j,1,0.6982158001046628,151.98982909996994,153.0015803000424,152.98491130000912,None,151.98982909996994,None,151.98982909996994,None,151.98982909996994,None,153.68272061006866,None,153.68272061006866,None,153.68272061006866,None,,,,,,,,,,,,,,207,2023-04-26_13h15.44.102,Main,2022.1.1,59.85751515908863,
positive,negative,2,l,j,,,,,,,,,0,17,17,14,,,,,,,,,main,2,2,2,negative,positive,j,j,1,0.6650300000328571,153.68610130005982,154.69901580002625,154.68234840000514,None,153.68610130005982,None,153.68610130005982,None,153.68610130005982,None,155.3489630100201,None,155.3489630100201,None,155.3489630100201,None,,,,,,,,,,,,,,207,2023-04-26_13h15.44.102,Main,2022.1.1,59.85751515908863,
negative,negative,2,j,l,,,,,,,,,1,0,18,9,,,,,,,,,main,1,1,2,negative,negative,l,l,1,1.18117620004341,155.3493062000489,156.34899079997558,156.34899079997558,None,155.3493062000489,None,155.3493062000489,None,155.3493062000489,None,157.53232591006673,None,157.53232591006673,None,157.53232591006673,None,,,,,,,,,,,,,,207,2023-04-26_13h15.44.102,Main,2022.1.1,59.85751515908863,
positive,neutral,1,l,j,,,,,,,,,1,1,19,8,,,,,,,,,main,1,1,1,neutral,positive,j,j,1,0.7653744999552146,157.53288219997194,158.53481179999653,158.53481179999653,None,157.53288219997194,None,157.53288219997194,None,157.53288219997194,None,159.2993098100531,None,159.2993098100531,None,159.2993098100531,None,,,,,,,,,,,,,,207,2023-04-26_13h15.44.102,Main,2022.1.1,59.85751515908863,
neutral,negative,1,k,k,,,,,,,,,1,2,20,7,,,,,,,,,main,1,1,1,negative,neutral,k,k,1,0.5829521999694407,159.30520930001512,160.31806820002384,160.30145669996273,None,159.30520930001512,None,159.30520930001512,None,159.30520930001512,None,160.88261281001616,None,160.88261281001616,None,160.88261281001616,None,,,,,,,,,,,,,,207,2023-04-26_13h15.44.102,Main,2022.1.1,59.85751515908863,
neutral,positive,1,k,k,,,,,,,,,1,3,21,4,,,,,,,,,main,2,2,1,positive,neutral,k,k,1,0.6660120999440551,160.88745240005665,161.90152139996644,161.8847607000498,None,160.88745240005665,None,160.88745240005665,None,160.88745240005665,None,162.55134231004632,None,162.55134231004632,None,162.55134231004632,None,,,,,,,,,,,,,,207,2023-04-26_13h15.44.102,Main,2022.1.1,59.85751515908863,
positive,neutral,2,l,j,,,,,,,,,1,4,22,17,,,,,,,,,main,2,2,2,neutral,positive,j,j,1,1.0959997000172734,162.55504550004844,163.56795449997298,163.5514656000305,None,162.55504550004844,None,162.55504550004844,None,162.55504550004844,None,164.6491864100215,None,164.6491864100215,None,164.6491864100215,None,,,,,,,,,,,,,,207,2023-04-26_13h15.44.102,Main,2022.1.1,59.85751515908863,
positive,positive,2,l,j,,,,,,,,,1,5,23,11,,,,,,,,,main,1,1,2,positive,positive,j,j,1,0.6479456999804825,164.65502010006458,165.64909680001438,165.6291306000203,None,164.65502010006458,None,164.65502010006458,None,164.65502010006458,None,166.2987577100401,None,166.2987577100401,None,166.2987577100401,None,,,,,,,,,,,,,,207,2023-04-26_13h15.44.102,Main,2022.1.1,59.85751515908863,
positive,negative,1,l,j,,,,,,,,,1,6,24,5,,,,,,,,,main,1,1,1,negative,positive,j,j,1,0.7152046000119299,166.29883910005447,167.29874600004405,167.29874600004405,None,166.29883910005447,None,166.29883910005447,None,166.29883910005447,None,168.01537720999914,None,168.01537720999914,None,168.01537720999914,None,,,,,,,,,,,,,,207,2023-04-26_13h15.44.102,Main,2022.1.1,59.85751515908863,
positive,positive,1,l,j,,,,,,,,,1,7,25,2,,,,,,,,,main,2,2,1,positive,positive,j,j,1,0.5984687000745907,168.01575430005323,169.01544330001343,169.01544330001343,None,168.01575430005323,None,168.01575430005323,None,168.01575430005323,None,169.61539921002696,None,169.61539921002696,None,169.61539921002696,None,,,,,,,,,,,,,,207,2023-04-26_13h15.44.102,Main,2022.1.1,59.85751515908863,
negative,negative,1,j,l,,,,,,,,,1,8,26,0,,,,,,,,,main,1,1,1,negative,negative,l,l,1,0.6988614000147209,169.62136890005786,170.63447759998962,170.61783899995498,None,169.62136890005786,None,169.62136890005786,None,169.62136890005786,None,171.31571351004533,None,171.31571351004533,None,171.31571351004533,None,,,,,,,,,,,,,,207,2023-04-26_13h15.44.102,Main,2022.1.1,59.85751515908863,
negative,positive,1,j,l,,,,,,,,,1,9,27,6,,,,,,,,,main,1,1,1,positive,negative,l,l,1,0.6826603000517935,171.32280650001485,172.33458969998173,172.31790719996206,None,171.32280650001485,None,171.32280650001485,None,171.32280650001485,None,172.99895580998856,None,172.99895580998856,None,172.99895580998856,None,,,,,,,,,,,,,,207,2023-04-26_13h15.44.102,Main,2022.1.1,59.85751515908863,
negative,neutral,2,j,l,,,,,,,,,1,10,28,12,,,,,,,,,main,2,2,2,neutral,negative,l,l,1,0.6657889999914914,173.00524199998472,174.01780859997962,174.00119800004177,None,173.00524199998472,None,173.00524199998472,None,173.00524199998472,None,174.6677847099607,None,174.6677847099607,None,174.6677847099607,None,,,,,,,,,,,,,,207,2023-04-26_13h15.44.102,Main,2022.1.1,59.85751515908863,
neutral,neutral,2,k,k,,,,,,,,,1,11,29,10,,,,,,,,,main,1,1,2,neutral,neutral,k,k,1,0.5960824999492615,174.67200220003724,175.68448729999363,175.66790610004682,None,174.67200220003724,None,174.67200220003724,None,174.67200220003724,None,176.2656029099715,None,176.2656029099715,None,176.2656029099715,None,,,,,,,,,,,,,,207,2023-04-26_13h15.44.102,Main,2022.1.1,59.85751515908863,
positive,negative,2,l,j,,,,,,,,,1,12,30,14,,,,,,,,,main,2,2,2,negative,positive,j,j,1,0.7145767000038177,176.2695253000129,177.28445919998921,177.2677714000456,None,176.2695253000129,None,176.2695253000129,None,176.2695253000129,None,177.98185141001596,None,177.98185141001596,None,177.98185141001596,None,,,,,,,,,,,,,,207,2023-04-26_13h15.44.102,Main,2022.1.1,59.85751515908863,
neutral,neutral,1,k,k,,,,,,,,,1,13,31,1,,,,,,,,,main,1,1,1,neutral,neutral,k,k,1,0.5981572000309825,177.98192910000216,178.98185330000706,178.98185330000706,None,177.98192910000216,None,177.98192910000216,None,177.98192910000216,None,179.58188180999133,None,179.58188180999133,None,179.58188180999133,None,,,,,,,,,,,,,,207,2023-04-26_13h15.44.102,Main,2022.1.1,59.85751515908863,
neutral,positive,2,k,k,,,,,,,,,1,14,32,13,,,,,,,,,main,2,2,2,positive,neutral,k,k,1,0.7011625000741333,179.58525670005474,180.5844558000099,180.5844558000099,None,179.58525670005474,None,179.58525670005474,None,179.58525670005474,None,181.2843215100118,None,181.2843215100118,None,181.2843215100118,None,,,,,,,,,,,,,,207,2023-04-26_13h15.44.102,Main,2022.1.1,59.85751515908863,
neutral,negative,2,k,k,,,,,,,,,1,15,33,16,,,,,,,,,main,2,2,2,negative,neutral,k,k,1,0.6461327000288293,181.28739149996545,182.3010674000252,182.2843899000436,None,181.28739149996545,None,181.28739149996545,None,181.28739149996545,None,182.9321034100256,None,182.9321034100256,None,182.9321034100256,None,,,,,,,,,,,,,,207,2023-04-26_13h15.44.102,Main,2022.1.1,59.85751515908863,
negative,neutral,1,j,l,,,,,,,,,1,16,34,3,,,,,,,,,main,2,2,1,neutral,negative,l,l,1,1.1652539999922737,182.93589550000615,183.95092600001954,183.9321166999871,None,182.93589550000615,None,182.93589550000615,None,182.93589550000615,None,185.0988199099782,None,185.0988199099782,None,185.0988199099782,None,,,,,,,,,,,,,,207,2023-04-26_13h15.44.102,Main,2022.1.1,59.85751515908863,
negative,positive,2,j,l,,,,,,,,,1,17,35,15,,,,,,,,,main,2,2,2,positive,negative,l,l,1,0.6318459999747574,185.10560310003348,186.11756130005233,186.1009519000072,None,185.10560310003348,None,185.10560310003348,None,185.10560310003348,None,186.73212911003503,None,186.73212911003503,None,186.73212911003503,None,,,,,,,,,,,,,,207,2023-04-26_13h15.44.102,Main,2022.1.1,59.85751515908863,
negative,negative,2,j,l,,,,,,,,,2,0,36,9,,,,,,,,,main,1,1,2,negative,negative,l,l,1,0.5809833999956027,186.73580839997157,187.74870410002768,187.73427859996445,None,186.73580839997157,None,186.73580839997157,None,186.73580839997157,None,188.31495840999997,None,188.31495840999997,None,188.31495840999997,None,,,,,,,,,,,,,,207,2023-04-26_13h15.44.102,Main,2022.1.1,59.85751515908863,
neutral,neutral,1,k,k,,,,,,,,,2,1,37,1,,,,,,,,,main,1,1,1,neutral,neutral,k,k,1,0.5819345000199974,188.31495929998346,189.3150644999696,189.3150644999696,None,188.31495929998346,None,188.31495929998346,None,188.31495929998346,None,189.898317910044,None,189.898317910044,None,189.898317910044,None,,,,,,,,,,,,,,207,2023-04-26_13h15.44.102,Main,2022.1.1,59.85751515908863,
negative,neutral,2,j,l,,,,,,,,,2,2,38,12,,,,,,,,,main,1,1,2,neutral,negative,l,l,1,0.7488141000503674,189.90164469997399,190.91739890002646,190.89869980001822,None,189.90164469997399,None,189.90164469997399,None,189.90164469997399,None,191.64864740999184,None,191.64864740999184,None,191.64864740999184,None,,,,,,,,,,,,,,207,2023-04-26_13h15.44.102,Main,2022.1.1,59.85751515908863,
neutral,negative,1,k,k,,,,,,,,,2,3,39,7,,,,,,,,,main,1,1,1,negative,neutral,k,k,1,0.6484260000288486,191.65214719995856,192.66746789996978,192.65074009995442,None,191.65214719995856,None,191.65214719995856,None,191.65214719995856,None,193.29859840999126,None,193.29859840999126,None,193.29859840999126,None,,,,,,,,,,,,,,207,2023-04-26_13h15.44.102,Main,2022.1.1,59.85751515908863,
positive,negative,2,l,j,,,,,,,,,2,4,40,14,,,,,,,,,main,2,2,2,negative,positive,j,j,1,0.6842293000081554,193.30225379997864,194.3173766999971,194.30073869996704,None,193.30225379997864,None,193.30225379997864,None,193.30225379997864,None,194.98424650997623,None,194.98424650997623,None,194.98424650997623,None,,,,,,,,,,,,,,207,2023-04-26_13h15.44.102,Main,2022.1.1,59.85751515908863,
positive,negative,1,l,j,,,,,,,,,2,5,41,5,,,,,,,,,main,2,2,1,negative,positive,j,j,1,0.6295581000158563,194.98805909999646,196.00072819995694,195.98188099998515,None,194.98805909999646,None,194.98805909999646,None,194.98805909999646,None,196.61517800997245,None,196.61517800997245,None,196.61517800997245,None,,,,,,,,,,,,,,207,2023-04-26_13h15.44.102,Main,2022.1.1,59.85751515908863,
negative,positive,1,j,l,,,,,,,,,2,6,42,6,,,,,,,,,main,1,1,1,positive,negative,l,l,1,0.652787399943918,196.61910010001156,197.63164909998886,197.61524379998446,None,196.61910010001156,None,196.61910010001156,None,196.61910010001156,None,198.27000021004352,None,198.27000021004352,None,198.27000021004352,None,,,,,,,,,,,,,,207,2023-04-26_13h15.44.102,Main,2022.1.1,59.85751515908863,
positive,neutral,1,l,j,,,,,,,,,2,7,43,8,,,,,,,,,main,2,2,1,neutral,positive,j,j,1,0.7597534999949858,198.27024410001468,199.28144000004977,199.2647738000378,None,198.27024410001468,None,198.27024410001468,None,198.27024410001468,None,200.03139900999378,None,200.03139900999378,None,200.03139900999378,None,,,,,,,,,,,,,,207,2023-04-26_13h15.44.102,Main,2022.1.1,59.85751515908863,
negative,negative,1,j,l,,,,,,,,,2,8,44,0,,,,,,,,,main,1,1,1,negative,negative,l,l,1,0.8176462999545038,200.03138619998936,201.0339718000032,201.0339718000032,None,200.03138619998936,None,200.03138619998936,None,200.03138619998936,None,201.8505433100625,None,201.8505433100625,None,201.8505433100625,None,,,,,,,,,,,,,,207,2023-04-26_13h15.44.102,Main,2022.1.1,59.85751515908863,
negative,neutral,1,j,l,,,,,,,,,2,9,45,3,,,,,,,,,main,2,2,1,neutral,negative,l,l,1,0.6309103000676259,201.85515119996853,202.86724539997522,202.8483935999684,None,201.85515119996853,None,201.85515119996853,None,201.85515119996853,None,203.4838507099892,None,203.4838507099892,None,203.4838507099892,None,,,,,,,,,,,,,,207,2023-04-26_13h15.44.102,Main,2022.1.1,59.85751515908863,
neutral,positive,2,k,k,,,,,,,,,2,10,46,13,,,,,,,,,main,1,1,2,positive,neutral,k,k,1,0.6314378000097349,203.48725010000635,204.50058480002917,204.48394179996103,None,203.48725010000635,None,203.48725010000635,None,203.48725010000635,None,205.11712581001922,None,205.11712581001922,None,205.11712581001922,None,,,,,,,,,,,,,,207,2023-04-26_13h15.44.102,Main,2022.1.1,59.85751515908863,
negative,positive,2,j,l,,,,,,,,,2,11,47,15,,,,,,,,,main,1,1,2,positive,negative,l,l,1,0.5985363000072539,205.12035760004073,206.1338870000327,206.1172672000248,None,205.12035760004073,None,205.12035760004073,None,205.12035760004073,None,206.71712991002715,None,206.71712991002715,None,206.71712991002715,None,,,,,,,,,,,,,,207,2023-04-26_13h15.44.102,Main,2022.1.1,59.85751515908863,
neutral,neutral,2,k,k,,,,,,,,,2,12,48,10,,,,,,,,,main,2,2,2,neutral,neutral,k,k,1,0.6675412999466062,206.72037450002972,207.7337947000051,207.7172124000499,None,206.72037450002972,None,206.72037450002972,None,206.72037450002972,None,208.386285610043,None,208.386285610043,None,208.386285610043,None,,,,,,,,,,,,,,207,2023-04-26_13h15.44.102,Main,2022.1.1,59.85751515908863,
neutral,negative,2,k,k,,,,,,,,,2,13,49,16,,,,,,,,,main,1,1,2,negative,neutral,k,k,1,0.6600457000313327,208.3980550999986,209.39791749999858,209.38123980001546,None,208.3980550999986,None,208.3980550999986,None,208.3980550999986,None,210.04787970999024,None,210.04787970999024,None,210.04787970999024,None,,,,,,,,,,,,,,207,2023-04-26_13h15.44.102,Main,2022.1.1,59.85751515908863,
positive,positive,1,l,j,,,,,,,,,2,14,50,2,,,,,,,,,main,1,1,1,positive,positive,j,j,1,0.6981995000969619,210.04848590004258,211.04789919999894,211.04789919999894,None,210.04848590004258,None,210.04848590004258,None,210.04848590004258,None,211.7478905100259,None,211.7478905100259,None,211.7478905100259,None,,,,,,,,,,,,,,207,2023-04-26_13h15.44.102,Main,2022.1.1,59.85751515908863,
positive,neutral,2,l,j,,,,,,,,,2,15,51,17,,,,,,,,,main,1,1,2,neutral,positive,j,j,1,0.6652898999163881,211.75379800004885,212.76702390005812,212.75038280000445,None,211.75379800004885,None,211.75379800004885,None,211.75379800004885,None,213.41497220996536,None,213.41497220996536,None,213.41497220996536,None,,,,,,,,,,,,,,207,2023-04-26_13h15.44.102,Main,2022.1.1,59.85751515908863,
neutral,positive,1,k,k,,,,,,,,,2,16,52,4,,,,,,,,,main,1,1,1,positive,neutral,k,k,1,0.6013723999494687,213.41907880001236,214.43154679995496,214.4171424000524,None,213.41907880001236,None,213.41907880001236,None,213.41907880001236,None,215.01765611000593,None,215.01765611000593,None,215.01765611000593,None,,,,,,,,,,,,,,207,2023-04-26_13h15.44.102,Main,2022.1.1,59.85751515908863,
positive,positive,2,l,j,,,,,,,,,2,17,53,11,,,,,,,,,main,2,2,2,positive,positive,j,j,1,0.7451899999286979,215.02160970005207,216.03367899998557,216.01708030002192,None,215.02160970005207,None,215.02160970005207,None,215.02160970005207,None,216.76475711005043,None,216.76475711005043,None,216.76475711005043,None,,,,,,,,,,,,,,207,2023-04-26_13h15.44.102,Main,2022.1.1,59.85751515908863,
positive,negative,1,l,j,,,,,,,,,3,0,54,5,,,,,,,,,main,2,2,1,negative,positive,j,j,1,0.7325177999446169,216.7704435000196,217.78360950003844,217.76693739998154,None,216.7704435000196,None,216.7704435000196,None,216.7704435000196,None,218.49773831003114,None,218.49773831003114,None,218.49773831003114,None,,,,,,,,,,,,,,207,2023-04-26_13h15.44.102,Main,2022.1.1,59.85751515908863,
neutral,negative,2,k,k,,,,,,,,,3,1,55,16,,,,,,,,,main,1,1,2,negative,neutral,k,k,1,0.6806341999908909,218.5169634000631,219.5169529999839,219.50025579996873,None,218.5169634000631,None,218.5169634000631,None,218.5169634000631,None,220.18092481001514,None,220.18092481001514,None,220.18092481001514,None,,,,,,,,,,,,,,207,2023-04-26_13h15.44.102,Main,2022.1.1,59.85751515908863,
neutral,neutral,2,k,k,,,,,,,,,3,2,56,10,,,,,,,,,main,1,1,2,neutral,neutral,k,k,1,0.615549199981615,220.18096699996386,221.18099370005075,221.18099370005075,None,220.18096699996386,None,220.18096699996386,None,220.18096699996386,None,221.7976889100508,None,221.7976889100508,None,221.7976889100508,None,,,,,,,,,,,,,,207,2023-04-26_13h15.44.102,Main,2022.1.1,59.85751515908863,
negative,positive,1,j,l,,,,,,,,,3,3,57,6,,,,,,,,,main,1,1,1,positive,negative,l,l,1,0.7674047000473365,221.80144890001975,222.81691150006372,222.8002360999817,None,221.80144890001975,None,221.80144890001975,None,221.80144890001975,None,223.5667500100215,None,223.5667500100215,None,223.5667500100215,None,,,,,,,,,,,,,,207,2023-04-26_13h15.44.102,Main,2022.1.1,59.85751515908863,
negative,positive,2,j,l,,,,,,,,,3,4,58,15,,,,,,,,,main,2,2,2,positive,negative,l,l,1,0.7129669999703765,223.5713610999519,224.58338289998937,224.56466589996126,None,223.5713610999519,None,223.5713610999519,None,223.5713610999519,None,225.2812396100606,None,225.2812396100606,None,225.2812396100606,None,,,,,,,,,,,,,,207,2023-04-26_13h15.44.102,Main,2022.1.1,59.85751515908863,
neutral,positive,1,k,k,,,,,,,,,3,5,59,4,,,,,,,,,main,1,1,1,positive,neutral,k,k,1,0.6171515999594703,225.28566269995645,226.29793160001282,226.2835223999573,None,225.28566269995645,None,225.28566269995645,None,225.28566269995645,None,226.89998581005494,None,226.89998581005494,None,226.89998581005494,None,,,,,,,,,,,,,,207,2023-04-26_13h15.44.102,Main,2022.1.1,59.85751515908863,
positive,neutral,1,l,j,,,,,,,,,3,6,60,8,,,,,,,,,main,2,2,1,neutral,positive,j,j,1,0.7458223999710754,226.9034344999818,227.91673469997477,227.90013920003548,None,226.9034344999818,None,226.9034344999818,None,226.9034344999818,None,228.64757111006185,None,228.64757111006185,None,228.64757111006185,None,,,,,,,,,,,,,,207,2023-04-26_13h15.44.102,Main,2022.1.1,59.85751515908863,
negative,negative,2,j,l,,,,,,,,,3,7,61,9,,,,,,,,,main,2,2,2,negative,negative,l,l,1,0.731493299943395,228.65398010006174,229.66665949998423,229.65006859996356,None,228.65398010006174,None,228.65398010006174,None,228.65398010006174,None,230.38074430999114,None,230.38074430999114,None,230.38074430999114,None,,,,,,,,,,,,,,207,2023-04-26_13h15.44.102,Main,2022.1.1,59.85751515908863,
neutral,neutral,1,k,k,,,,,,,,,3,8,62,1,,,,,,,,,main,1,1,1,neutral,neutral,k,k,1,0.7317873999709263,230.38076299999375,231.38080000004265,231.38080000004265,None,230.38076299999375,None,230.38076299999375,None,230.38076299999375,None,232.11414621003206,None,232.11414621003206,None,232.11414621003206,None,,,,,,,,,,,,,,207,2023-04-26_13h15.44.102,Main,2022.1.1,59.85751515908863,
positive,positive,1,l,j,,,,,,,,,3,9,63,2,,,,,,,,,main,2,2,1,positive,positive,j,j,1,1.017568500014022,232.1175735000288,233.1167650000425,233.1167650000425,None,232.1175735000288,None,232.1175735000288,None,232.1175735000288,None,234.13313831005945,None,234.13313831005945,None,234.13313831005945,None,,,,,,,,,,,,,,207,2023-04-26_13h15.44.102,Main,2022.1.1,59.85751515908863,
neutral,positive,2,k,k,,,,,,,,,3,10,64,13,,,,,,,,,main,1,1,2,positive,neutral,k,k,1,1.1816961000440642,234.1364665000001,235.14998840005137,235.13332230004016,None,234.1364665000001,None,234.1364665000001,None,234.1364665000001,None,236.31647621003214,None,236.31647621003214,None,236.31647621003214,None,,,,,,,,,,,,,,207,2023-04-26_13h15.44.102,Main,2022.1.1,59.85751515908863,
positive,negative,2,l,j,,,,,,,,,3,11,65,14,,,,,,,,,main,1,1,2,negative,positive,j,j,1,0.8128267000429332,236.31975470006,237.3332856000634,237.31667420000304,None,236.31975470006,None,236.31975470006,None,236.31975470006,None,238.13102321001935,None,238.13102321001935,None,238.13102321001935,None,,,,,,,,,,,,,,207,2023-04-26_13h15.44.102,Main,2022.1.1,59.85751515908863,
neutral,negative,1,k,k,,,,,,,,,3,12,66,7,,,,,,,,,main,2,2,1,negative,neutral,k,k,1,0.6339702000841498,238.13463590003084,239.14987359999213,239.13321110000834,None,238.13463590003084,None,238.13463590003084,None,238.13463590003084,None,239.7663827099721,None,239.7663827099721,None,239.7663827099721,None,,,,,,,,,,,,,,207,2023-04-26_13h15.44.102,Main,2022.1.1,59.85751515908863,
positive,positive,2,l,j,,,,,,,,,3,13,67,11,,,,,,,,,main,2,2,2,positive,positive,j,j,1,0.6636766999727115,239.76977300003637,240.78060519997962,240.7639014000306,None,239.76977300003637,None,239.76977300003637,None,239.76977300003637,None,241.43058400998126,None,241.43058400998126,None,241.43058400998126,None,,,,,,,,,,,,,,207,2023-04-26_13h15.44.102,Main,2022.1.1,59.85751515908863,
negative,neutral,2,j,l,,,,,,,,,3,14,68,12,,,,,,,,,main,2,2,2,neutral,negative,l,l,1,0.7809260999783874,241.43209490005393,242.44730200001504,242.43063139996957,None,241.43209490005393,None,241.43209490005393,None,241.43209490005393,None,243.21404461005005,None,243.21404461005005,None,243.21404461005005,None,,,,,,,,,,,,,,207,2023-04-26_13h15.44.102,Main,2022.1.1,59.85751515908863,
positive,neutral,2,l,j,,,,,,,,,3,15,69,17,,,,,,,,,main,1,1,2,neutral,positive,j,j,1,0.6652868000091985,243.22059100004844,244.23301480000373,244.2166869000066,None,243.22059100004844,None,243.22059100004844,None,243.22059100004844,None,244.88095391007374,None,244.88095391007374,None,244.88095391007374,None,,,,,,,,,,,,,,207,2023-04-26_13h15.44.102,Main,2022.1.1,59.85751515908863,
negative,neutral,1,j,l,,,,,,,,,3,16,70,3,,,,,,,,,main,1,1,1,neutral,negative,l,l,1,0.8302497999975458,244.88542359997518,245.89974220003933,245.8831036000047,None,244.88542359997518,None,244.88542359997518,None,244.88542359997518,None,246.71385260998505,None,246.71385260998505,None,246.71385260998505,None,,,,,,,,,,,,,,207,2023-04-26_13h15.44.102,Main,2022.1.1,59.85751515908863,
negative,negative,1,j,l,,,,,,,,,3,17,71,0,,,,,,,,,main,1,1,1,negative,negative,l,l,1,0.6821378999156877,246.72002380003687,247.73286580003332,247.716292600031,None,246.72002380003687,None,246.72002380003687,None,246.72002380003687,None,248.39737001004397,None,248.39737001004397,None,248.39737001004397,None,,,,,,,,,,,,,,207,2023-04-26_13h15.44.102,Main,2022.1.1,59.85751515908863,
positive,positive,2,l,j,,,,,,,,,4,0,72,11,,,,,,,,,main,2,2,2,positive,positive,j,j,1,0.7651081000221893,248.40415099996608,249.41617910005152,249.39745619997848,None,248.40415099996608,None,248.40415099996608,None,248.40415099996608,None,250.1641341099865,None,250.1641341099865,None,250.1641341099865,None,,,,,,,,,,,,,,207,2023-04-26_13h15.44.102,Main,2022.1.1,59.85751515908863,
neutral,neutral,1,k,k,,,,,,,,,4,1,73,1,,,,,,,,,main,2,2,1,neutral,neutral,k,k,1,0.6311959000304341,250.16999710001983,251.18040349998046,251.16373170004226,None,250.16999710001983,None,250.16999710001983,None,250.16999710001983,None,251.79699180998142,None,251.79699180998142,None,251.79699180998142,None,,,,,,,,,,,,,,207,2023-04-26_13h15.44.102,Main,2022.1.1,59.85751515908863,
positive,neutral,1,l,j,,,,,,,,,4,2,74,8,,,,,,,,,main,2,2,1,neutral,positive,j,j,1,0.6983064999803901,251.79820880002808,252.8137251000153,252.797056099982,None,251.79820880002808,None,251.79820880002808,None,251.79820880002808,None,253.49703431002564,None,253.49703431002564,None,253.49703431002564,None,,,,,,,,,,,,,,207,2023-04-26_13h15.44.102,Main,2022.1.1,59.85751515908863,
positive,negative,2,l,j,,,,,,,,,4,3,75,14,,,,,,,,,main,1,1,2,negative,positive,j,j,1,0.7013475000858307,253.49743430002127,254.49705690005794,254.49705690005794,None,253.49743430002127,None,253.49743430002127,None,253.49743430002127,None,255.19988030999667,None,255.19988030999667,None,255.19988030999667,None,,,,,,,,,,,,,,207,2023-04-26_13h15.44.102,Main,2022.1.1,59.85751515908863,
neutral,negative,2,k,k,,,,,,,,,4,4,76,16,,,,,,,,,main,2,2,2,negative,neutral,k,k,1,0.6813389000017196,255.20431729999837,256.2161974000046,256.1995462999912,None,255.20431729999837,None,255.20431729999837,None,255.20431729999837,None,256.8828003100469,None,256.8828003100469,None,256.8828003100469,None,,,,,,,,,,,,,,207,2023-04-26_13h15.44.102,Main,2022.1.1,59.85751515908863,
negative,negative,1,j,l,,,,,,,,,4,5,77,0,,,,,,,,,main,1,1,1,negative,negative,l,l,1,0.6963963999878615,256.8858880000189,257.8995499999728,257.8828500000527,None,256.8858880000189,None,256.8858880000189,None,256.8858880000189,None,258.58062380995835,None,258.58062380995835,None,258.58062380995835,None,,,,,,,,,,,,,,207,2023-04-26_13h15.44.102,Main,2022.1.1,59.85751515908863,
negative,negative,2,j,l,,,,,,,,,4,6,78,9,,,,,,,,,main,2,2,2,negative,negative,l,l,1,0.7815891000209376,258.584535800037,259.5993973000441,259.58292089996394,None,258.584535800037,None,258.584535800037,None,258.584535800037,None,260.3640129100648,None,260.3640129100648,None,260.3640129100648,None,,,,,,,,,,,,,,207,2023-04-26_13h15.44.102,Main,2022.1.1,59.85751515908863,
positive,neutral,2,l,j,,,,,,,,,4,7,79,17,,,,,,,,,main,2,2,2,neutral,positive,j,j,1,1.0981375999981537,260.3678904999979,261.38279369997326,261.36617890000343,None,260.3678904999979,None,260.3678904999979,None,260.3678904999979,None,262.4638359099743,None,262.4638359099743,None,262.4638359099743,None,,,,,,,,,,,,,,207,2023-04-26_13h15.44.102,Main,2022.1.1,59.85751515908863,
negative,neutral,1,j,l,,,,,,,,,4,8,80,3,,,,,,,,,main,2,2,1,neutral,negative,l,l,1,0.847981599974446,262.4675175000448,263.4801494999556,263.46347650000826,None,262.4675175000448,None,262.4675175000448,None,262.4675175000448,None,264.31342991000275,None,264.31342991000275,None,264.31342991000275,None,,,,,,,,,,,,,,207,2023-04-26_13h15.44.102,Main,2022.1.1,59.85751515908863,
neutral,negative,1,k,k,,,,,,,,,4,9,81,7,,,,,,,,,main,2,2,1,negative,neutral,k,k,1,0.748585999943316,264.31339789996855,265.313472299953,265.313472299953,None,264.31339789996855,None,264.31339789996855,None,264.31339789996855,None,266.0634458100074,None,266.0634458100074,None,266.0634458100074,None,,,,,,,,,,,,,,207,2023-04-26_13h15.44.102,Main,2022.1.1,59.85751515908863,
negative,positive,2,j,l,,,,,,,,,4,10,82,15,,,,,,,,,main,1,1,2,positive,negative,l,l,1,0.6650304000359029,266.0657618000405,267.08010749996174,267.06345819996204,None,266.0657618000405,None,266.0657618000405,None,266.0657618000405,None,267.7301440100535,None,267.7301440100535,None,267.7301440100535,None,,,,,,,,,,,,,,207,2023-04-26_13h15.44.102,Main,2022.1.1,59.85751515908863,
neutral,positive,2,k,k,,,,,,,,,4,11,83,13,,,,,,,,,main,2,2,2,positive,neutral,k,k,1,0.666017199982889,267.7366272000363,268.7492443000665,268.7327156000538,None,267.7366272000363,None,267.7366272000363,None,267.7366272000363,None,269.3975699100527,None,269.3975699100527,None,269.3975699100527,None,,,,,,,,,,,,,,207,2023-04-26_13h15.44.102,Main,2022.1.1,59.85751515908863,
negative,neutral,2,j,l,,,,,,,,,4,12,84,12,,,,,,,,,main,2,2,2,neutral,negative,l,l,1,0.6646442000055686,269.40388490003534,270.41586469998583,270.39927199995145,None,269.40388490003534,None,269.40388490003534,None,269.40388490003534,None,271.0636500100489,None,271.0636500100489,None,271.0636500100489,None,,,,,,,,,,,,,,207,2023-04-26_13h15.44.102,Main,2022.1.1,59.85751515908863,
neutral,positive,1,k,k,,,,,,,,,4,13,85,4,,,,,,,,,main,1,1,1,positive,neutral,k,k,1,0.5497362000169232,271.06824409996625,272.0824442000594,272.0658655000152,None,271.06824409996625,None,271.06824409996625,None,271.06824409996625,None,272.6160144100548,None,272.6160144100548,None,272.6160144100548,None,,,,,,,,,,,,,,207,2023-04-26_13h15.44.102,Main,2022.1.1,59.85751515908863,
positive,positive,1,l,j,,,,,,,,,4,14,86,2,,,,,,,,,main,1,1,1,positive,positive,j,j,1,0.779059199965559,272.61951099999715,273.6324692000635,273.61584460001905,None,272.61951099999715,None,272.61951099999715,None,272.61951099999715,None,274.39687410999323,None,274.39687410999323,None,274.39687410999323,None,,,,,,,,,,,,,,207,2023-04-26_13h15.44.102,Main,2022.1.1,59.85751515908863,
positive,negative,1,l,j,,,,,,,,,4,15,87,5,,,,,,,,,main,2,2,1,negative,positive,j,j,1,0.5649260999634862,274.40298110002186,275.4132619999582,275.39656749996357,None,274.40298110002186,None,274.40298110002186,None,274.40298110002186,None,275.9631974100019,None,275.9631974100019,None,275.9631974100019,None,,,,,,,,,,,,,,207,2023-04-26_13h15.44.102,Main,2022.1.1,59.85751515908863,
neutral,neutral,2,k,k,,,,,,,,,4,16,88,10,,,,,,,,,main,1,1,2,neutral,neutral,k,k,1,0.5815104999346659,275.9651653000619,276.9799008000409,276.96322609996423,None,275.9651653000619,None,275.9651653000619,None,275.9651653000619,None,277.5465060100076,None,277.5465060100076,None,277.5465060100076,None,,,,,,,,,,,,,,207,2023-04-26_13h15.44.102,Main,2022.1.1,59.85751515908863,
negative,positive,1,j,l,,,,,,,,,4,17,89,6,,,,,,,,,main,2,2,1,positive,negative,l,l,1,0.6669003000715747,277.5473958000075,278.5465547000058,278.5465547000058,None,277.5473958000075,None,277.5473958000075,None,277.5473958000075,None,279.21356280999026,None,279.21356280999026,None,279.21356280999026,None,,,,,,,,,,,,,,207,2023-04-26_13h15.44.102,Main,2022.1.1,59.85751515908863,
positive,positive,2,l,j,,,,,,,,,5,0,90,11,,,,,,,,,main,1,1,2,positive,positive,j,l,0,-0.6673340999986976,279.21854420006275,None,None,None,279.21854420006275,None,279.21854420006275,None,279.21854420006275,None,279.55099689995404,None,279.55099689995404,None,279.55099689995404,None,,,,,,,,,,,,,,207,2023-04-26_13h15.44.102,Main,2022.1.1,59.85751515908863,
positive,negative,2,l,j,,,,,,,,,5,1,91,14,,,,,,,,,main,1,1,2,negative,positive,j,j,1,0.8513564999448135,282.56425759999547,283.56557380000595,283.5468163000187,None,282.56425759999547,None,282.56425759999547,None,282.56425759999547,None,284.413405310025,None,284.413405310025,None,284.413405310025,None,,,,,,,,,,,,,,207,2023-04-26_13h15.44.102,Main,2022.1.1,59.85751515908863,
positive,negative,1,l,j,,,,,,,,,5,2,92,5,,,,,,,,,main,2,2,1,negative,positive,j,j,1,0.732097000000067,284.4195326999761,285.43228680000175,285.4156726000365,None,284.4195326999761,None,284.4195326999761,None,284.4195326999761,None,286.14751031006455,None,286.14751031006455,None,286.14751031006455,None,,,,,,,,,,,,,,207,2023-04-26_13h15.44.102,Main,2022.1.1,59.85751515908863,
negative,positive,2,j,l,,,,,,,,,5,3,93,15,,,,,,,,,main,1,1,2,positive,negative,l,l,1,0.7638786999741569,286.1528865,287.16296149999835,287.14629199996125,None,286.1528865,None,286.1528865,None,286.1528865,None,287.9129457100178,None,287.9129457100178,None,287.9129457100178,None,,,,,,,,,,,,,,207,2023-04-26_13h15.44.102,Main,2022.1.1,59.85751515908863,
negative,negative,2,j,l,,,,,,,,,5,4,94,9,,,,,,,,,main,1,1,2,negative,negative,l,l,1,0.632093199994415,287.91295140003785,288.9135163000319,288.9135163000319,None,287.91295140003785,None,287.91295140003785,None,287.91295140003785,None,289.5466589100077,None,289.5466589100077,None,289.5466589100077,None,,,,,,,,,,,,,,207,2023-04-26_13h15.44.102,Main,2022.1.1,59.85751515908863,
neutral,neutral,2,k,k,,,,,,,,,5,5,95,10,,,,,,,,,main,1,1,2,neutral,neutral,k,k,1,0.7487770000007004,289.5502350999741,290.5654334999854,290.5488356000278,None,289.5502350999741,None,289.5502350999741,None,289.5502350999741,None,291.296594509983,None,291.296594509983,None,291.296594509983,None,,,,,,,,,,,,,,207,2023-04-26_13h15.44.102,Main,2022.1.1,59.85751515908863,
positive,positive,1,l,j,,,,,,,,,5,6,96,2,,,,,,,,,main,2,2,1,positive,positive,j,j,1,0.8170168000506237,291.3005242999643,292.3154631999787,292.2988701000577,None,291.3005242999643,None,291.3005242999643,None,291.3005242999643,None,293.1153782099835,None,293.1153782099835,None,293.1153782099835,None,,,,,,,,,,,,,,207,2023-04-26_13h15.44.102,Main,2022.1.1,59.85751515908863,
positive,neutral,1,l,j,,,,,,,,,5,7,97,8,,,,,,,,,main,2,2,1,neutral,positive,j,j,1,0.6801540000597015,293.11876460001804,294.13213869999163,294.1153655999806,None,293.11876460001804,None,293.11876460001804,None,293.11876460001804,None,294.7974723100313,None,294.7974723100313,None,294.7974723100313,None,,,,,,,,,,,,,,207,2023-04-26_13h15.44.102,Main,2022.1.1,59.85751515908863,
neutral,positive,2,k,k,,,,,,,,,5,8,98,13,,,,,,,,,main,2,2,2,positive,neutral,k,k,1,0.6143635999178514,294.80332469998393,295.81530190003105,295.7987090999959,None,294.80332469998393,None,294.80332469998393,None,294.80332469998393,None,296.4131406099885,None,296.4131406099885,None,296.4131406099885,None,,,,,,,,,,,,,,207,2023-04-26_13h15.44.102,Main,2022.1.1,59.85751515908863,
negative,negative,1,j,l,,,,,,,,,5,9,99,0,,,,,,,,,main,2,2,1,negative,negative,l,l,1,0.6979975999565795,296.41976940003224,297.429441699991,297.41279329999816,None,296.41976940003224,None,296.41976940003224,None,296.41976940003224,None,298.11275611004095,None,298.11275611004095,None,298.11275611004095,None,,,,,,,,,,,,,,207,2023-04-26_13h15.44.102,Main,2022.1.1,59.85751515908863,
neutral,positive,1,k,k,,,,,,,,,5,10,100,4,,,,,,,,,main,2,2,1,positive,neutral,k,k,1,0.6846523999702185,298.11281980003696,299.11281149997376,299.11281149997376,None,298.11281980003696,None,298.11281980003696,None,298.11281980003696,None,299.79878180999077,None,299.79878180999077,None,299.79878180999077,None,,,,,,,,,,,,,,207,2023-04-26_13h15.44.102,Main,2022.1.1,59.85751515908863,
negative,neutral,1,j,l,,,,,,,,,5,11,101,3,,,,,,,,,main,1,1,1,neutral,negative,l,l,1,0.7814383000368252,299.8026448000455,300.8153144000098,300.7986186000053,None,299.8026448000455,None,299.8026448000455,None,299.8026448000455,None,301.58190791007365,None,301.58190791007365,None,301.58190791007365,None,,,,,,,,,,,,,,207,2023-04-26_13h15.44.102,Main,2022.1.1,59.85751515908863,
negative,positive,1,j,l,,,,,,,,,5,12,102,6,,,,,,,,,main,2,2,1,positive,negative,l,l,1,0.7294800999807194,301.5864691999741,302.5985258000437,302.5818900000304,None,301.5864691999741,None,301.5864691999741,None,301.5864691999741,None,303.31303901005305,None,303.31303901005305,None,303.31303901005305,None,,,,,,,,,,,,,,207,2023-04-26_13h15.44.102,Main,2022.1.1,59.85751515908863,
neutral,negative,2,k,k,,,,,,,,,5,13,103,16,,,,,,,,,main,2,2,2,negative,neutral,k,k,1,0.6672663999488577,303.3193703000434,304.3317577999551,304.3152013999643,None,303.3193703000434,None,303.3193703000434,None,303.3193703000434,None,304.98191771005514,None,304.98191771005514,None,304.98191771005514,None,,,,,,,,,,,,,,207,2023-04-26_13h15.44.102,Main,2022.1.1,59.85751515908863,
negative,neutral,2,j,l,,,,,,,,,5,14,104,12,,,,,,,,,main,1,1,2,neutral,negative,l,l,1,0.8523001000285149,304.9850076000439,305.9963346000295,305.98179670004174,None,304.9850076000439,None,304.9850076000439,None,304.9850076000439,None,306.8347509100684,None,306.8347509100684,None,306.8347509100684,None,,,,,,,,,,,,,,207,2023-04-26_13h15.44.102,Main,2022.1.1,59.85751515908863,
positive,neutral,2,l,j,,,,,,,,,5,15,105,17,,,,,,,,,main,2,2,2,neutral,positive,j,j,1,0.7921922000823542,306.8463146999711,307.8483827000018,307.8294832999818,None,306.8463146999711,None,306.8463146999711,None,306.8463146999711,None,308.62945810997627,None,308.62945810997627,None,308.62945810997627,None,,,,,,,,,,,,,,207,2023-04-26_13h15.44.102,Main,2022.1.1,59.85751515908863,
neutral,negative,1,k,k,,,,,,,,,5,16,106,7,,,,,,,,,main,1,1,1,negative,neutral,k,k,1,0.6484298000577837,308.6330503000645,309.6461432999931,309.63160540000536,None,308.6330503000645,None,308.6330503000645,None,308.6330503000645,None,310.27943541005953,None,310.27943541005953,None,310.27943541005953,None,,,,,,,,,,,,,,207,2023-04-26_13h15.44.102,Main,2022.1.1,59.85751515908863,
neutral,neutral,1,k,k,,,,,,,,,5,17,107,1,,,,,,,,,main,2,2,1,neutral,neutral,k,k,1,0.6144492999883369,310.28575150005054,311.29817650001496,311.2794434999814,None,310.28575150005054,None,310.28575150005054,None,310.28575150005054,None,311.8965430100332,None,311.8965430100332,None,311.8965430100332,None,,,,,,,,,,,,,,207,2023-04-26_13h15.44.102,Main,2022.1.1,59.85751515908863,
negative,positive,1,j,l,,,,,,,,,6,0,108,6,,,,,,,,,main,1,1,1,positive,negative,l,l,1,0.8480060000438243,311.9022775000194,312.9148151000263,312.8981819000328,None,311.9022775000194,None,311.9022775000194,None,311.9022775000194,None,313.74604950997747,None,313.74604950997747,None,313.74604950997747,None,,,,,,,,,,,,,,207,2023-04-26_13h15.44.102,Main,2022.1.1,59.85751515908863,
neutral,positive,1,k,k,,,,,,,,,6,1,109,4,,,,,,,,,main,2,2,1,positive,neutral,k,k,1,0.8665143999969587,313.7503008999629,314.76273179997224,314.7483311999822,None,313.7503008999629,None,313.7503008999629,None,313.7503008999629,None,315.61473690998974,None,315.61473690998974,None,315.61473690998974,None,,,,,,,,,,,,,,207,2023-04-26_13h15.44.102,Main,2022.1.1,59.85751515908863,
positive,positive,1,l,j,,,,,,,,,6,2,110,2,,,,,,,,,main,2,2,1,positive,positive,j,j,1,1.0802014999790117,315.61825409997255,316.63159640005324,316.61492139997426,None,315.61825409997255,None,315.61825409997255,None,315.61825409997255,None,317.6968691100017,None,317.6968691100017,None,317.6968691100017,None,,,,,,,,,,,,,,207,2023-04-26_13h15.44.102,Main,2022.1.1,59.85751515908863,
neutral,negative,2,k,k,,,,,,,,,6,3,111,16,,,,,,,,,main,1,1,2,negative,neutral,k,k,1,0.6679750999901444,317.7027392999735,318.71268270001747,318.6960162000032,None,317.7027392999735,None,317.7027392999735,None,317.7027392999735,None,319.3660047099809,None,319.3660047099809,None,319.3660047099809,None,,,,,,,,,,,,,,207,2023-04-26_13h15.44.102,Main,2022.1.1,59.85751515908863,
neutral,negative,1,k,k,,,,,,,,,6,4,112,7,,,,,,,,,main,2,2,1,negative,neutral,k,k,1,0.5949103999882936,319.37916100001894,320.3792221000185,320.3626023000106,None,319.37916100001894,None,319.37916100001894,None,319.37916100001894,None,320.96252400999657,None,320.96252400999657,None,320.96252400999657,None,,,,,,,,,,,,,,207,2023-04-26_13h15.44.102,Main,2022.1.1,59.85751515908863,
positive,neutral,1,l,j,,,,,,,,,6,5,113,8,,,,,,,,,main,1,1,1,neutral,positive,j,j,1,0.7639226999599487,320.967035699985,321.9792160000652,321.9625905000139,None,320.967035699985,None,320.967035699985,None,320.967035699985,None,322.7291774100275,None,322.7291774100275,None,322.7291774100275,None,,,,,,,,,,,,,,207,2023-04-26_13h15.44.102,Main,2022.1.1,59.85751515908863,
negative,neutral,2,j,l,,,,,,,,,6,6,114,12,,,,,,,,,main,2,2,2,neutral,negative,l,l,1,0.8155340000521392,322.73281009995844,323.74585020006634,323.72917269996833,None,322.73281009995844,None,322.73281009995844,None,322.73281009995844,None,324.5461958099739,None,324.5461958099739,None,324.5461958099739,None,,,,,,,,,,,,,,207,2023-04-26_13h15.44.102,Main,2022.1.1,59.85751515908863,
positive,neutral,2,l,j,,,,,,,,,6,7,115,17,,,,,,,,,main,1,1,2,neutral,positive,j,j,1,1.1975944999139756,324.5521301999688,325.5625026000198,325.54807070002425,None,324.5521301999688,None,324.5521301999688,None,324.5521301999688,None,326.745595910016,None,326.745595910016,None,326.745595910016,None,,,,,,,,,,,,,,207,2023-04-26_13h15.44.102,Main,2022.1.1,59.85751515908863,
negative,positive,2,j,l,,,,,,,,,6,8,116,15,,,,,,,,,main,2,2,2,positive,negative,l,l,1,1.0010304000461474,326.7515192000428,327.7646827000426,327.7479163999669,None,326.7515192000428,None,326.7515192000428,None,326.7515192000428,None,328.7479241100489,None,328.7479241100489,None,328.7479241100489,None,,,,,,,,,,,,,,207,2023-04-26_13h15.44.102,Main,2022.1.1,59.85751515908863,
negative,neutral,1,j,l,,,,,,,,,6,9,117,3,,,,,,,,,main,1,1,1,neutral,negative,l,l,1,1.0148331000236794,328.75129789998755,329.7624370000558,329.7457662000088,None,328.75129789998755,None,328.75129789998755,None,328.75129789998755,None,330.7646259099827,None,330.7646259099827,None,330.7646259099827,None,,,,,,,,,,,,,,207,2023-04-26_13h15.44.102,Main,2022.1.1,59.85751515908863,
positive,negative,1,l,j,,,,,,,,,6,10,118,5,,,,,,,,,main,1,1,1,negative,positive,j,j,1,1.1293089999817312,330.7690236000344,331.7811084999703,331.764554399997,None,330.7690236000344,None,330.7690236000344,None,330.7690236000344,None,332.89532870998374,None,332.89532870998374,None,332.89532870998374,None,,,,,,,,,,,,,,207,2023-04-26_13h15.44.102,Main,2022.1.1,59.85751515908863,
positive,negative,2,l,j,,,,,,,,,6,11,119,14,,,,,,,,,main,1,1,2,negative,positive,j,j,1,0.8305094999959692,332.8965879000025,333.9120519000571,333.8953876000596,None,332.8965879000025,None,332.8965879000025,None,332.8965879000025,None,334.72872680997244,None,334.72872680997244,None,334.72872680997244,None,,,,,,,,,,,,,,207,2023-04-26_13h15.44.102,Main,2022.1.1,59.85751515908863,
positive,positive,2,l,j,,,,,,,,,6,12,120,11,,,,,,,,,main,1,1,2,positive,positive,j,j,1,0.7161900999490172,334.7370452999603,335.74791010003537,335.7312328000553,None,334.7370452999603,None,334.7370452999603,None,334.7370452999603,None,336.44579760999187,None,336.44579760999187,None,336.44579760999187,None,,,,,,,,,,,,,,207,2023-04-26_13h15.44.102,Main,2022.1.1,59.85751515908863,
neutral,positive,2,k,k,,,,,,,,,6,13,121,13,,,,,,,,,main,2,2,2,positive,neutral,k,k,1,0.633559999987483,336.4496286000358,337.464493000065,337.44790889997967,None,336.4496286000358,None,336.4496286000358,None,336.4496286000358,None,338.08113841003507,None,338.08113841003507,None,338.08113841003507,None,,,,,,,,,,,,,,207,2023-04-26_13h15.44.102,Main,2022.1.1,59.85751515908863,
neutral,neutral,2,k,k,,,,,,,,,6,14,122,10,,,,,,,,,main,2,2,2,neutral,neutral,k,k,1,0.5959676000056788,338.0854974000249,339.09784389997367,339.08114859997295,None,338.0854974000249,None,338.0854974000249,None,338.0854974000249,None,339.67892301002286,None,339.67892301002286,None,339.67892301002286,None,,,,,,,,,,,,,,207,2023-04-26_13h15.44.102,Main,2022.1.1,59.85751515908863,
neutral,neutral,1,k,k,,,,,,,,,6,15,123,1,,,,,,,,,main,1,1,1,neutral,neutral,k,k,1,0.5643262000521645,339.6829342000419,340.6978474999778,340.6811375999823,None,339.6829342000419,None,339.6829342000419,None,339.6829342000419,None,341.24556110998384,None,341.24556110998384,None,341.24556110998384,None,,,,,,,,,,,,,,207,2023-04-26_13h15.44.102,Main,2022.1.1,59.85751515908863,
negative,negative,1,j,l,,,,,,,,,6,16,124,0,,,,,,,,,main,1,1,1,negative,negative,l,l,1,0.7147441999986768,341.24888710002415,342.2622151999967,342.2477305000648,None,341.24888710002415,None,341.24888710002415,None,341.24888710002415,None,342.9617692100699,None,342.9617692100699,None,342.9617692100699,None,,,,,,,,,,,,,,207,2023-04-26_13h15.44.102,Main,2022.1.1,59.85751515908863,
negative,negative,2,j,l,,,,,,,,,6,17,125,9,,,,,,,,,main,2,2,2,negative,negative,l,l,1,0.6984144999878481,342.9618166000582,343.96190610004123,343.96190610004123,None,342.9618166000582,None,342.9618166000582,None,342.9618166000582,None,344.6618674100726,None,344.6618674100726,None,344.6618674100726,None,,,,,,,,,,,,,,207,2023-04-26_13h15.44.102,Main,2022.1.1,59.85751515908863,
positive,neutral,1,l,j,,,,,,,,,7,0,126,8,,,,,,,,,main,1,1,1,neutral,positive,j,j,1,0.734299200004898,344.6651128999656,345.6644007000141,345.6644007000141,None,344.6651128999656,None,344.6651128999656,None,344.6651128999656,None,346.39766011004104,None,346.39766011004104,None,346.39766011004104,None,,,,,,,,,,,,,,207,2023-04-26_13h15.44.102,Main,2022.1.1,59.85751515908863,
neutral,neutral,2,k,k,,,,,,,,,7,1,127,10,,,,,,,,,main,1,1,2,neutral,neutral,k,k,1,0.6797679000301287,346.4006184999598,347.41448000003584,347.3976777000353,None,346.4006184999598,None,346.4006184999598,None,346.4006184999598,None,348.07879410999595,None,348.07879410999595,None,348.07879410999595,None,,,,,,,,,,,,,,207,2023-04-26_13h15.44.102,Main,2022.1.1,59.85751515908863,
neutral,positive,2,k,k,,,,,,,,,7,2,128,13,,,,,,,,,main,1,1,2,positive,neutral,k,k,1,0.5339919999241829,348.0824661999941,349.0976768999826,349.0809400000144,None,348.0824661999941,None,348.0824661999941,None,348.0824661999941,None,349.6143696099869,None,349.6143696099869,None,349.6143696099869,None,,,,,,,,,,,,,,207,2023-04-26_13h15.44.102,Main,2022.1.1,59.85751515908863,
neutral,neutral,1,k,k,,,,,,,,,7,3,129,1,,,,,,,,,main,2,2,1,neutral,neutral,k,k,1,0.7121743999887258,349.6185096000554,350.6308883000165,350.61435739998706,None,349.6185096000554,None,349.6185096000554,None,349.6185096000554,None,351.32837061003085,None,351.32837061003085,None,351.32837061003085,None,,,,,,,,,,,,,,207,2023-04-26_13h15.44.102,Main,2022.1.1,59.85751515908863,
positive,positive,1,l,j,,,,,,,,,7,4,130,2,,,,,,,,,main,2,2,1,positive,positive,j,j,1,0.8650006999960169,351.332079899963,352.3475908000255,352.3308856000658,None,351.332079899963,None,351.332079899963,None,351.332079899963,None,353.19494251,None,353.19494251,None,353.19494251,None,,,,,,,,,,,,,,207,2023-04-26_13h15.44.102,Main,2022.1.1,59.85751515908863,
negative,negative,2,j,l,,,,,,,,,7,5,131,9,,,,,,,,,main,2,2,2,negative,negative,l,l,1,0.7976641000714153,353.2116470000474,354.21164059999865,354.1949756999966,None,353.2116470000474,None,353.2116470000474,None,353.2116470000474,None,354.994995709986,None,354.994995709986,None,354.994995709986,None,,,,,,,,,,,,,,207,2023-04-26_13h15.44.102,Main,2022.1.1,59.85751515908863,
positive,neutral,2,l,j,,,,,,,,,7,6,132,17,,,,,,,,,main,1,1,2,neutral,positive,j,j,1,0.8508477000286803,354.99831840000115,355.997484200052,355.997484200052,None,354.99831840000115,None,354.99831840000115,None,354.99831840000115,None,356.8473537099897,None,356.8473537099897,None,356.8473537099897,None,,,,,,,,,,,,,,207,2023-04-26_13h15.44.102,Main,2022.1.1,59.85751515908863,
positive,negative,2,l,j,,,,,,,,,7,7,133,14,,,,,,,,,main,2,2,2,negative,positive,j,j,1,0.7651274000527337,356.85028060001787,357.86415330006275,357.84754560003057,None,356.85028060001787,None,356.85028060001787,None,356.85028060001787,None,358.6139877099893,None,358.6139877099893,None,358.6139877099893,None,,,,,,,,,,,,,,207,2023-04-26_13h15.44.102,Main,2022.1.1,59.85751515908863,
neutral,negative,2,k,k,,,,,,,,,7,8,134,16,,,,,,,,,main,1,1,2,negative,neutral,k,k,1,0.7141147999791428,358.6191252999706,359.6285442999797,359.61403120006435,None,358.6191252999706,None,358.6191252999706,None,358.6191252999706,None,360.3306186100352,None,360.3306186100352,None,360.3306186100352,None,,,,,,,,,,,,,,207,2023-04-26_13h15.44.102,Main,2022.1.1,59.85751515908863,
negative,neutral,2,j,l,,,,,,,,,7,9,135,12,,,,,,,,,main,1,1,2,neutral,negative,l,l,1,0.6965957999927923,360.3341333999997,361.3452132999664,361.3285077000037,None,360.3341333999997,None,360.3341333999997,None,360.3341333999997,None,362.0284855100443,None,362.0284855100443,None,362.0284855100443,None,,,,,,,,,,,,,,207,2023-04-26_13h15.44.102,Main,2022.1.1,59.85751515908863,
negative,neutral,1,j,l,,,,,,,,,7,10,136,3,,,,,,,,,main,2,2,1,neutral,negative,l,l,1,0.6814505999209359,362.0320029000286,363.04482700000517,363.0281326000113,None,362.0320029000286,None,362.0320029000286,None,362.0320029000286,None,363.71141521005194,None,363.71141521005194,None,363.71141521005194,None,,,,,,,,,,,,,,207,2023-04-26_13h15.44.102,Main,2022.1.1,59.85751515908863,
positive,positive,2,l,j,,,,,,,,,7,11,137,11,,,,,,,,,main,2,2,2,positive,positive,j,j,1,0.698319899966009,363.71142710000277,364.7114409999922,364.7114409999922,None,363.71142710000277,None,363.71142710000277,None,363.71142710000277,None,365.41139331007145,None,365.41139331007145,None,365.41139331007145,None,,,,,,,,,,,,,,207,2023-04-26_13h15.44.102,Main,2022.1.1,59.85751515908863,
negative,negative,1,j,l,,,,,,,,,7,12,138,0,,,,,,,,,main,2,2,1,negative,negative,l,l,1,0.6492982000345364,365.4118030000245,366.41143760003615,366.41143760003615,None,365.4118030000245,None,365.4118030000245,None,365.4118030000245,None,367.06183540996864,None,367.06183540996864,None,367.06183540996864,None,,,,,,,,,,,,,,207,2023-04-26_13h15.44.102,Main,2022.1.1,59.85751515908863,
neutral,positive,1,k,k,,,,,,,,,7,13,139,4,,,,,,,,,main,2,2,1,positive,neutral,k,k,1,0.6814949000254273,367.06565510004293,368.0805255000014,368.0640060000587,None,367.06565510004293,None,367.06565510004293,None,367.06565510004293,None,368.74493771001,None,368.74493771001,None,368.74493771001,None,,,,,,,,,,,,,,207,2023-04-26_13h15.44.102,Main,2022.1.1,59.85751515908863,
positive,negative,1,l,j,,,,,,,,,7,14,140,5,,,,,,,,,main,1,1,1,negative,positive,j,j,1,0.7832095000194386,368.7518130999524,369.7639121999964,369.74731660005637,None,368.7518130999524,None,368.7518130999524,None,368.7518130999524,None,370.5304575100425,None,370.5304575100425,None,370.5304575100425,None,,,,,,,,,,,,,,207,2023-04-26_13h15.44.102,Main,2022.1.1,59.85751515908863,
negative,positive,1,j,l,,,,,,,,,7,15,141,6,,,,,,,,,main,2,2,1,positive,negative,l,l,1,0.7468389999121428,370.5344049000414,371.5470689999638,371.5305248000659,None,370.5344049000414,None,370.5344049000414,None,370.5344049000414,None,372.2789874100243,None,372.2789874100243,None,372.2789874100243,None,,,,,,,,,,,,,,207,2023-04-26_13h15.44.102,Main,2022.1.1,59.85751515908863,
neutral,negative,1,k,k,,,,,,,,,7,16,142,7,,,,,,,,,main,2,2,1,negative,neutral,k,k,1,0.7177435000194237,372.28495020000264,373.2971060000127,373.28053990006447,None,372.28495020000264,None,372.28495020000264,None,372.28495020000264,None,373.998322810058,None,373.998322810058,None,373.998322810058,None,,,,,,,,,,,,,,207,2023-04-26_13h15.44.102,Main,2022.1.1,59.85751515908863,
negative,positive,2,j,l,,,,,,,,,7,17,143,15,,,,,,,,,main,2,2,2,positive,negative,l,l,1,0.7277606000425294,374.0018490999937,375.01117449998856,374.9945085999789,None,374.0018490999937,None,374.0018490999937,None,374.0018490999937,None,375.72777980997927,None,375.72777980997927,None,375.72777980997927,None,,,,,,,,,,,,,,207,2023-04-26_13h15.44.102,Main,2022.1.1,59.85751515908863,
positive,positive,2,l,j,,,,,,,,,8,0,144,11,,,,,,,,,main,2,2,2,positive,positive,j,l,0,-0.7682257000124082,375.72800919995643,None,None,None,375.72800919995643,None,375.72800919995643,None,375.72800919995643,None,375.96119950001594,None,375.96119950001594,None,375.96119950001594,None,,,,,,,,,,,,,,207,2023-04-26_13h15.44.102,Main,2022.1.1,59.85751515908863,
negative,negative,1,j,l,,,,,,,,,8,1,145,0,,,,,,,,,main,2,2,1,negative,negative,l,l,1,0.7395765000255778,378.96235929999966,379.96361490001436,379.94701919995714,None,378.96235929999966,None,378.96235929999966,None,378.96235929999966,None,380.6969887099811,None,380.6969887099811,None,380.6969887099811,None,,,,,,,,,,,,,,207,2023-04-26_13h15.44.102,Main,2022.1.1,59.85751515908863,
positive,negative,1,l,j,,,,,,,,,8,2,146,5,,,,,,,,,main,1,1,1,negative,positive,j,j,1,0.7622866999590769,380.70308889995795,381.7135792999761,381.69697289995383,None,380.70308889995795,None,380.70308889995795,None,380.70308889995795,None,382.4636952100671,None,382.4636952100671,None,382.4636952100671,None,,,,,,,,,,,,,,207,2023-04-26_13h15.44.102,Main,2022.1.1,59.85751515908863,
positive,neutral,1,l,j,,,,,,,,,8,3,147,8,,,,,,,,,main,2,2,1,neutral,positive,j,j,1,0.7128525000298396,382.4672429000493,383.4802430999698,383.46365170006175,None,382.4672429000493,None,382.4672429000493,None,382.4672429000493,None,384.17851910997416,None,384.17851910997416,None,384.17851910997416,None,,,,,,,,,,,,,,207,2023-04-26_13h15.44.102,Main,2022.1.1,59.85751515908863,
positive,positive,1,l,j,,,,,,,,,8,4,148,2,,,,,,,,,main,1,1,1,positive,positive,j,j,1,0.6814908999949694,384.18436900002416,385.1968666999601,385.1780237000203,None,384.18436900002416,None,384.18436900002416,None,384.18436900002416,None,385.86136101001176,None,385.86136101001176,None,385.86136101001176,None,,,,,,,,,,,,,,207,2023-04-26_13h15.44.102,Main,2022.1.1,59.85751515908863,
positive,neutral,2,l,j,,,,,,,,,8,5,149,17,,,,,,,,,main,2,2,2,neutral,positive,j,j,1,0.7316490000812337,385.86518329998944,386.8776043000398,386.86093209998216,None,385.86518329998944,None,385.86518329998944,None,385.86518329998944,None,387.59426670999966,None,387.59426670999966,None,387.59426670999966,None,,,,,,,,,,,,,,207,2023-04-26_13h15.44.102,Main,2022.1.1,59.85751515908863,
negative,neutral,2,j,l,,,,,,,,,8,6,150,12,,,,,,,,,main,2,2,2,neutral,negative,l,l,1,0.7481682000216097,387.5946795999771,388.5943071000511,388.5943071000511,None,387.5946795999771,None,387.5946795999771,None,387.5946795999771,None,389.3442878100439,None,389.3442878100439,None,389.3442878100439,None,,,,,,,,,,,,,,207,2023-04-26_13h15.44.102,Main,2022.1.1,59.85751515908863,
negative,positive,2,j,l,,,,,,,,,8,7,151,15,,,,,,,,,main,1,1,2,positive,negative,l,l,1,0.7342348999809474,389.3448079000227,390.34426939999685,390.34426939999685,None,389.3448079000227,None,389.3448079000227,None,389.3448079000227,None,391.08005151002436,None,391.08005151002436,None,391.08005151002436,None,,,,,,,,,,,,,,207,2023-04-26_13h15.44.102,Main,2022.1.1,59.85751515908863,
neutral,negative,1,k,k,,,,,,,,,8,8,152,7,,,,,,,,,main,1,1,1,negative,neutral,k,k,1,0.698452000040561,391.08315299998503,392.0967857000651,392.0800430000527,None,391.08315299998503,None,391.08315299998503,None,391.08315299998503,None,392.77999911004446,None,392.77999911004446,None,392.77999911004446,None,,,,,,,,,,,,,,207,2023-04-26_13h15.44.102,Main,2022.1.1,59.85751515908863,
neutral,negative,2,k,k,,,,,,,,,8,9,153,16,,,,,,,,,main,2,2,2,negative,neutral,k,k,1,0.648656600038521,392.7831102999626,393.7967036999762,393.7800638000481,None,392.7831102999626,None,392.7831102999626,None,392.7831102999626,None,394.4301435100031,None,394.4301435100031,None,394.4301435100031,None,,,,,,,,,,,,,,207,2023-04-26_13h15.44.102,Main,2022.1.1,59.85751515908863,
neutral,positive,1,k,k,,,,,,,,,8,10,154,4,,,,,,,,,main,1,1,1,positive,neutral,k,k,1,0.6957117000129074,394.4345081000356,395.4467333999928,395.43002890003845,None,394.4345081000356,None,394.4345081000356,None,394.4345081000356,None,396.1275786099839,None,396.1275786099839,None,396.1275786099839,None,,,,,,,,,,,,,,207,2023-04-26_13h15.44.102,Main,2022.1.1,59.85751515908863,
neutral,positive,2,k,k,,,,,,,,,8,11,155,13,,,,,,,,,main,1,1,2,positive,neutral,k,k,1,0.748871500021778,396.1339154000161,397.1444958000211,397.12997260002885,None,396.1339154000161,None,396.1339154000161,None,396.1339154000161,None,397.87779691001634,None,397.87779691001634,None,397.87779691001634,None,,,,,,,,,,,,,,207,2023-04-26_13h15.44.102,Main,2022.1.1,59.85751515908863,
neutral,neutral,1,k,k,,,,,,,,,8,12,156,1,,,,,,,,,main,1,1,1,neutral,neutral,k,k,1,0.7813669999595731,397.8941369999666,398.894065600005,398.8774228000548,None,397.8941369999666,None,397.8941369999666,None,397.8941369999666,None,399.66069420998684,None,399.66069420998684,None,399.66069420998684,None,,,,,,,,,,,,,,207,2023-04-26_13h15.44.102,Main,2022.1.1,59.85751515908863,
positive,negative,2,l,j,,,,,,,,,8,13,157,14,,,,,,,,,main,2,2,2,negative,positive,j,j,1,0.8320606000488624,399.6608772999607,400.66104230005294,400.66104230005294,None,399.6608772999607,None,399.6608772999607,None,399.6608772999607,None,401.4943408100051,None,401.4943408100051,None,401.4943408100051,None,,,,,,,,,,,,,,207,2023-04-26_13h15.44.102,Main,2022.1.1,59.85751515908863,
negative,negative,2,j,l,,,,,,,,,8,14,158,9,,,,,,,,,main,1,1,2,negative,negative,l,l,1,0.8168887000065297,401.49809640005697,402.513167600031,402.4965626000194,None,401.49809640005697,None,401.49809640005697,None,401.49809640005697,None,403.31308890996735,None,403.31308890996735,None,403.31308890996735,None,,,,,,,,,,,,,,207,2023-04-26_13h15.44.102,Main,2022.1.1,59.85751515908863,
neutral,neutral,2,k,k,,,,,,,,,8,15,159,10,,,,,,,,,main,1,1,2,neutral,neutral,k,k,1,0.7151212999597192,403.3168648000574,404.32980109995697,404.31317540002055,None,403.3168648000574,None,403.3168648000574,None,403.3168648000574,None,405.0297116100672,None,405.0297116100672,None,405.0297116100672,None,,,,,,,,,,,,,,207,2023-04-26_13h15.44.102,Main,2022.1.1,59.85751515908863,
negative,positive,1,j,l,,,,,,,,,8,16,160,6,,,,,,,,,main,2,2,1,positive,negative,l,l,1,0.763970100088045,405.03362760005984,406.0443102000281,406.0298785000341,None,405.03362760005984,None,405.03362760005984,None,405.03362760005984,None,406.79391471006676,None,406.79391471006676,None,406.79391471006676,None,,,,,,,,,,,,,,207,2023-04-26_13h15.44.102,Main,2022.1.1,59.85751515908863,
negative,neutral,1,j,l,,,,,,,,,8,17,161,3,,,,,,,,,main,2,2,1,neutral,negative,l,l,1,0.8804643999319524,406.7985622000415,407.81304190005176,407.7963751000352,None,406.7985622000415,None,406.7985622000415,None,406.7985622000415,None,408.6771538100555,None,408.6771538100555,None,408.6771538100555,None,,,,,,,,,,,,,,207,2023-04-26_13h15.44.102,Main,2022.1.1,59.85751515908863,
positive,neutral,1,l,j,,,,,,,,,9,0,162,8,,,,,,,,,main,1,1,1,neutral,positive,j,j,1,0.9317607999546453,408.6771662000101,409.67726440005936,409.67726440005936,None,408.6771662000101,None,408.6771662000101,None,408.6771662000101,None,410.61052641005955,None,410.61052641005955,None,410.61052641005955,None,,,,,,,,,,,,,,207,2023-04-26_13h15.44.102,Main,2022.1.1,59.85751515908863,
positive,negative,1,l,j,,,,,,,,,9,1,163,5,,,,,,,,,main,2,2,1,negative,positive,j,j,1,0.650110200047493,410.6139511000365,411.6130010000197,411.6130010000197,None,410.6139511000365,None,410.6139511000365,None,410.6139511000365,None,412.2608331099735,None,412.2608331099735,None,412.2608331099735,None,,,,,,,,,,,,,,207,2023-04-26_13h15.44.102,Main,2022.1.1,59.85751515908863,
positive,neutral,2,l,j,,,,,,,,,9,2,164,17,,,,,,,,,main,1,1,2,neutral,positive,j,j,1,0.8659688999177888,412.26751619996503,413.27953679999337,413.2629519000184,None,412.26751619996503,None,412.26751619996503,None,412.26751619996503,None,414.1296782100224,None,414.1296782100224,None,414.1296782100224,None,,,,,,,,,,,,,,207,2023-04-26_13h15.44.102,Main,2022.1.1,59.85751515908863,
neutral,neutral,2,k,k,,,,,,,,,9,3,165,10,,,,,,,,,main,1,1,2,neutral,neutral,k,k,1,0.7461803000187501,414.13275520002935,415.1440966000082,415.1296972000273,None,414.13275520002935,None,414.13275520002935,None,414.13275520002935,None,415.87741531002104,None,415.87741531002104,None,415.87741531002104,None,,,,,,,,,,,,,,207,2023-04-26_13h15.44.102,Main,2022.1.1,59.85751515908863,
neutral,negative,1,k,k,,,,,,,,,9,4,166,7,,,,,,,,,main,2,2,1,negative,neutral,k,k,1,0.7159383000107482,415.88126880000345,416.8962812999962,416.8773862000089,None,415.88126880000345,None,415.88126880000345,None,415.88126880000345,None,417.59498961003266,None,417.59498961003266,None,417.59498961003266,None,,,,,,,,,,,,,,207,2023-04-26_13h15.44.102,Main,2022.1.1,59.85751515908863,
positive,negative,2,l,j,,,,,,,,,9,5,167,14,,,,,,,,,main,2,2,2,negative,positive,j,j,1,0.8478332000086084,417.6010419999948,418.6098776999861,418.59268190001603,None,417.6010419999948,None,417.6010419999948,None,417.6010419999948,None,419.4435435100575,None,419.4435435100575,None,419.4435435100575,None,,,,,,,,,,,,,,207,2023-04-26_13h15.44.102,Main,2022.1.1,59.85751515908863,
negative,positive,2,j,l,,,,,,,,,9,6,168,15,,,,,,,,,main,2,2,2,positive,negative,l,l,1,0.7840806000167504,419.44459099997766,420.4436546000652,420.4436546000652,None,419.44459099997766,None,419.44459099997766,None,419.44459099997766,None,421.22979580996326,None,421.22979580996326,None,421.22979580996326,None,,,,,,,,,,,,,,207,2023-04-26_13h15.44.102,Main,2022.1.1,59.85751515908863,
neutral,positive,1,k,k,,,,,,,,,9,7,169,4,,,,,,,,,main,2,2,1,positive,neutral,k,k,1,0.7125899000093341,421.2364380999934,422.2462135000387,422.2271283000009,None,421.2364380999934,None,421.2364380999934,None,421.2364380999934,None,422.94393721002854,None,422.94393721002854,None,422.94393721002854,None,,,,,,,,,,,,,,207,2023-04-26_13h15.44.102,Main,2022.1.1,59.85751515908863,
negative,negative,2,j,l,,,,,,,,,9,8,170,9,,,,,,,,,main,2,2,2,negative,negative,l,l,1,0.7651700000278652,422.9478387000272,423.9627905000234,423.94612550002057,None,422.9478387000272,None,422.9478387000272,None,422.9478387000272,None,424.71065400996014,None,424.71065400996014,None,424.71065400996014,None,,,,,,,,,,,,,,207,2023-04-26_13h15.44.102,Main,2022.1.1,59.85751515908863,
negative,negative,1,j,l,,,,,,,,,9,9,171,0,,,,,,,,,main,1,1,1,negative,negative,l,l,1,0.7814122999552637,424.7166545999935,425.7271927000256,425.712779100053,None,424.7166545999935,None,424.7166545999935,None,424.7166545999935,None,426.49380360998913,None,426.49380360998913,None,426.49380360998913,None,,,,,,,,,,,,,,207,2023-04-26_13h15.44.102,Main,2022.1.1,59.85751515908863,
negative,positive,1,j,l,,,,,,,,,9,10,172,6,,,,,,,,,main,1,1,1,positive,negative,l,l,1,0.7484859999967739,426.49965220002923,427.5126787000336,427.49601600004826,None,426.49965220002923,None,426.49965220002923,None,426.49965220002923,None,428.24383360998473,None,428.24383360998473,None,428.24383360998473,None,,,,,,,,,,,,,,207,2023-04-26_13h15.44.102,Main,2022.1.1,59.85751515908863,
positive,positive,1,l,j,,,,,,,,,9,11,173,2,,,,,,,,,main,2,2,1,positive,positive,j,j,1,0.8143974998965859,428.2499120000284,429.2626633000327,429.2459739999613,None,428.2499120000284,None,428.2499120000284,None,428.2499120000284,None,430.0600956099923,None,430.0600956099923,None,430.0600956099923,None,,,,,,,,,,,,,,207,2023-04-26_13h15.44.102,Main,2022.1.1,59.85751515908863,
negative,neutral,1,j,l,,,,,,,,,9,12,174,3,,,,,,,,,main,2,2,1,neutral,negative,l,l,1,0.9150367999682203,430.06096120004077,431.0600915000541,431.0600915000541,None,430.06096120004077,None,430.06096120004077,None,430.06096120004077,None,431.9767269099946,None,431.9767269099946,None,431.9767269099946,None,,,,,,,,,,,,,,207,2023-04-26_13h15.44.102,Main,2022.1.1,59.85751515908863,
positive,positive,2,l,j,,,,,,,,,9,13,175,11,,,,,,,,,main,2,2,2,positive,positive,j,j,1,0.949209599988535,431.98272520001046,432.9959688000381,432.9793198000407,None,431.98272520001046,None,431.98272520001046,None,431.98272520001046,None,433.9267977100215,None,433.9267977100215,None,433.9267977100215,None,,,,,,,,,,,,,,207,2023-04-26_13h15.44.102,Main,2022.1.1,59.85751515908863,
neutral,neutral,1,k,k,,,,,,,,,9,14,176,1,,,,,,,,,main,1,1,1,neutral,neutral,k,k,1,0.797275000018999,433.93380220001563,434.9458189000143,434.92930519999936,None,433.93380220001563,None,433.93380220001563,None,433.93380220001563,None,435.72696251004237,None,435.72696251004237,None,435.72696251004237,None,,,,,,,,,,,,,,207,2023-04-26_13h15.44.102,Main,2022.1.1,59.85751515908863,
negative,neutral,2,j,l,,,,,,,,,9,15,177,12,,,,,,,,,main,2,2,2,neutral,negative,l,l,1,0.9343613999662921,435.7325171000557,436.7458730000071,436.7292972999858,None,435.7325171000557,None,435.7325171000557,None,435.7325171000557,None,437.66244091001573,None,437.66244091001573,None,437.66244091001573,None,,,,,,,,,,,,,,207,2023-04-26_13h15.44.102,Main,2022.1.1,59.85751515908863,
neutral,positive,2,k,k,,,,,,,,,9,16,178,13,,,,,,,,,main,1,1,2,positive,neutral,k,k,1,0.6982101000612602,437.6660326999845,438.6791058999952,438.6624968999531,None,437.6660326999845,None,437.6660326999845,None,437.6660326999845,None,439.36235140998616,None,439.36235140998616,None,439.36235140998616,None,,,,,,,,,,,,,,207,2023-04-26_13h15.44.102,Main,2022.1.1,59.85751515908863,
neutral,negative,2,k,k,,,,,,,,,9,17,179,16,,,,,,,,,main,1,1,2,negative,neutral,k,k,1,0.6459523000521585,439.36529660003725,440.37657209997997,440.3599101,None,439.36529660003725,None,439.36529660003725,None,439.36529660003725,None,441.00984741003487,None,441.00984741003487,None,441.00984741003487,None,,,,,,,,,,,,,,207,2023-04-26_13h15.44.102,Main,2022.1.1,59.85751515908863,
positive,positive,2,l,j,,,,,,,,,10,0,180,11,,,,,,,,,main,2,2,2,positive,positive,j,j,1,0.8817471000365913,441.0098997000605,442.0098997000605,442.0098997000605,None,441.0098997000605,None,441.0098997000605,None,441.0098997000605,None,442.89318780998,None,442.89318780998,None,442.89318780998,None,,,,,,,,,,,,,,207,2023-04-26_13h15.44.102,Main,2022.1.1,59.85751515908863,
neutral,neutral,1,k,k,,,,,,,,,10,1,181,1,,,,,,,,,main,1,1,1,neutral,neutral,k,k,1,0.6508256000233814,442.89905650005676,443.9123894000659,443.87901479995344,None,442.89905650005676,None,442.89905650005676,None,442.89905650005676,None,444.5455785100465,None,444.5455785100465,None,444.5455785100465,None,,,,,,,,,,,,,,207,2023-04-26_13h15.44.102,Main,2022.1.1,59.85751515908863,
positive,neutral,2,l,j,,,,,,,,,10,2,182,17,,,,,,,,,main,2,2,2,neutral,positive,j,j,1,0.8482795000309125,444.5488975000335,445.5622597000329,445.5457088999683,None,444.5488975000335,None,444.5488975000335,None,444.5488975000335,None,446.39559621004156,None,446.39559621004156,None,446.39559621004156,None,,,,,,,,,,,,,,207,2023-04-26_13h15.44.102,Main,2022.1.1,59.85751515908863,
neutral,positive,2,k,k,,,,,,,,,10,3,183,13,,,,,,,,,main,2,2,2,positive,neutral,k,k,1,0.8630005000159144,446.39976509998087,447.4123057000106,447.39342740003485,None,446.39976509998087,None,446.39976509998087,None,446.39976509998087,None,448.26008650999285,None,448.26008650999285,None,448.26008650999285,None,,,,,,,,,,,,,,207,2023-04-26_13h15.44.102,Main,2022.1.1,59.85751515908863,
negative,negative,1,j,l,,,,,,,,,10,4,184,0,,,,,,,,,main,1,1,1,negative,negative,l,l,1,0.7792548999423161,448.2661742999917,449.2789200999541,449.26234759995714,None,448.2661742999917,None,448.2661742999917,None,448.2661742999917,None,450.0380836100201,None,450.0380836100201,None,450.0380836100201,None,,,,,,,,,,,,,,207,2023-04-26_13h15.44.102,Main,2022.1.1,59.85751515908863,
positive,negative,2,l,j,,,,,,,,,10,5,185,14,,,,,,,,,main,1,1,2,negative,positive,j,j,1,0.7670133999781683,450.0407530000666,451.04299370001536,451.04299370001536,None,450.0407530000666,None,450.0407530000666,None,450.0407530000666,None,451.8095954100252,None,451.8095954100252,None,451.8095954100252,None,,,,,,,,,,,,,,207,2023-04-26_13h15.44.102,Main,2022.1.1,59.85751515908863,
positive,neutral,1,l,j,,,,,,,,,10,6,186,8,,,,,,,,,main,2,2,1,neutral,positive,j,j,1,0.6486495999852195,451.80984949995764,452.8096939000534,452.8096939000534,None,451.80984949995764,None,451.80984949995764,None,451.80984949995764,None,453.4596626099781,None,453.4596626099781,None,453.4596626099781,None,,,,,,,,,,,,,,207,2023-04-26_13h15.44.102,Main,2022.1.1,59.85751515908863,
positive,positive,1,l,j,,,,,,,,,10,7,187,2,,,,,,,,,main,2,2,1,positive,positive,j,j,1,0.6174811000237241,453.4635308999568,454.4788092999952,454.46216090000235,None,453.4635308999568,None,453.4635308999568,None,453.4635308999568,None,455.078709610051,None,455.078709610051,None,455.078709610051,None,,,,,,,,,,,,,,207,2023-04-26_13h15.44.102,Main,2022.1.1,59.85751515908863,
neutral,negative,2,k,k,,,,,,,,,10,8,188,16,,,,,,,,,main,1,1,2,negative,neutral,k,k,1,0.7283761999569833,455.0831832999829,456.09540210000705,456.07879830000456,None,455.0831832999829,None,455.0831832999829,None,455.0831832999829,None,456.80987760996214,None,456.80987760996214,None,456.80987760996214,None,,,,,,,,,,,,,,207,2023-04-26_13h15.44.102,Main,2022.1.1,59.85751515908863,
negative,neutral,2,j,l,,,,,,,,,10,9,189,12,,,,,,,,,main,2,2,2,neutral,negative,l,l,1,0.5998066000174731,456.8141703000292,457.82876890001353,457.8120694999816,None,456.8141703000292,None,456.8141703000292,None,456.8141703000292,None,458.41191001004773,None,458.41191001004773,None,458.41191001004773,None,,,,,,,,,,,,,,207,2023-04-26_13h15.44.102,Main,2022.1.1,59.85751515908863,
negative,neutral,1,j,l,,,,,,,,,10,10,190,3,,,,,,,,,main,2,2,1,neutral,negative,l,l,1,0.8296246000099927,458.4150563000003,459.42873419995885,459.41210640000645,None,458.4150563000003,None,458.4150563000003,None,458.4150563000003,None,460.2431486100075,None,460.2431486100075,None,460.2431486100075,None,,,,,,,,,,,,,,207,2023-04-26_13h15.44.102,Main,2022.1.1,59.85751515908863,
neutral,negative,1,k,k,,,,,,,,,10,11,191,7,,,,,,,,,main,2,2,1,negative,neutral,k,k,1,0.7314374999841675,460.247552899993,461.2596563999541,461.24531230004504,None,460.247552899993,None,460.247552899993,None,460.247552899993,None,461.9760382099892,None,461.9760382099892,None,461.9760382099892,None,,,,,,,,,,,,,,207,2023-04-26_13h15.44.102,Main,2022.1.1,59.85751515908863,
positive,negative,1,l,j,,,,,,,,,10,12,192,5,,,,,,,,,main,2,2,1,negative,positive,j,j,1,0.615421500056982,461.9780191000318,462.99275790003594,462.9760837999638,None,461.9780191000318,None,461.9780191000318,None,461.9780191000318,None,463.5927587100421,None,463.5927587100421,None,463.5927587100421,None,,,,,,,,,,,,,,207,2023-04-26_13h15.44.102,Main,2022.1.1,59.85751515908863,
negative,positive,1,j,l,,,,,,,,,10,13,193,6,,,,,,,,,main,2,2,1,positive,negative,l,l,1,1.017533399979584,463.59676270000637,464.6118952999823,464.59528590005357,None,463.59676270000637,None,463.59676270000637,None,463.59676270000637,None,465.60949771002635,None,465.60949771002635,None,465.60949771002635,None,,,,,,,,,,,,,,207,2023-04-26_13h15.44.102,Main,2022.1.1,59.85751515908863,
negative,positive,2,j,l,,,,,,,,,10,14,194,15,,,,,,,,,main,2,2,2,positive,negative,l,l,1,0.7648737999843433,465.6156147000147,466.6285847000545,466.6118947999785,None,465.6156147000147,None,465.6156147000147,None,465.6156147000147,None,467.3784938099678,None,467.3784938099678,None,467.3784938099678,None,,,,,,,,,,,,,,207,2023-04-26_13h15.44.102,Main,2022.1.1,59.85751515908863,
neutral,positive,1,k,k,,,,,,,,,10,15,195,4,,,,,,,,,main,1,1,1,positive,neutral,k,k,1,0.6482322999509051,467.3818120000651,468.39299770002253,468.3785437999759,None,467.3818120000651,None,467.3818120000651,None,467.3818120000651,None,469.0284580100677,None,469.0284580100677,None,469.0284580100677,None,,,,,,,,,,,,,,207,2023-04-26_13h15.44.102,Main,2022.1.1,59.85751515908863,
negative,negative,2,j,l,,,,,,,,,10,16,196,9,,,,,,,,,main,1,1,2,negative,negative,l,l,1,0.8293299999786541,469.0324366999557,470.0451318999985,470.0285082999617,None,469.0324366999557,None,469.0324366999557,None,469.0324366999557,None,470.85965341004777,None,470.85965341004777,None,470.85965341004777,None,,,,,,,,,,,,,,207,2023-04-26_13h15.44.102,Main,2022.1.1,59.85751515908863,
neutral,neutral,2,k,k,,,,,,,,,10,17,197,10,,,,,,,,,main,1,1,2,neutral,neutral,k,k,1,0.7655530000338331,470.8635201000143,471.87582229997497,471.85917019995395,None,470.8635201000143,None,470.8635201000143,None,470.8635201000143,None,472.6258087100112,None,472.6258087100112,None,472.6258087100112,None,,,,,,,,,,,,,,207,2023-04-26_13h15.44.102,Main,2022.1.1,59.85751515908863,
negative,positive,2,j,l,,,,,,,,,11,0,198,15,,,,,,,,,main,1,1,2,positive,negative,l,l,1,0.7479400000302121,472.642585100024,473.6425831000088,473.6259310999885,None,472.642585100024,None,472.642585100024,None,472.642585100024,None,474.3759081100696,None,474.3759081100696,None,474.3759081100696,None,,,,,,,,,,,,,,207,2023-04-26_13h15.44.102,Main,2022.1.1,59.85751515908863,
negative,neutral,2,j,l,,,,,,,,,11,1,199,12,,,,,,,,,main,2,2,2,neutral,negative,l,l,1,0.7005206999601796,474.37985360005405,475.39496549998876,475.3783918999834,None,474.37985360005405,None,474.37985360005405,None,474.37985360005405,None,476.07827040996636,None,476.07827040996636,None,476.07827040996636,None,,,,,,,,,,,,,,207,2023-04-26_13h15.44.102,Main,2022.1.1,59.85751515908863,
neutral,positive,1,k,k,,,,,,,,,11,2,200,4,,,,,,,,,main,1,1,1,positive,neutral,k,k,1,0.615418899920769,476.0823761000065,477.0949840999674,477.0761937999632,None,476.0823761000065,None,476.0823761000065,None,476.0823761000065,None,477.6950255100499,None,477.6950255100499,None,477.6950255100499,None,,,,,,,,,,,,,,207,2023-04-26_13h15.44.102,Main,2022.1.1,59.85751515908863,
positive,negative,1,l,j,,,,,,,,,11,3,201,5,,,,,,,,,main,2,2,1,negative,positive,j,j,1,0.7790914000943303,477.69857050001156,478.71156379999593,478.6949677000521,None,477.69857050001156,None,477.69857050001156,None,477.69857050001156,None,479.4757785099908,None,479.4757785099908,None,479.4757785099908,None,,,,,,,,,,,,,,207,2023-04-26_13h15.44.102,Main,2022.1.1,59.85751515908863,
positive,negative,2,l,j,,,,,,,,,11,4,202,14,,,,,,,,,main,1,1,2,negative,positive,j,j,1,0.6173667000839487,479.4823288000189,480.49492289999034,480.47832460002974,None,479.4823288000189,None,479.4823288000189,None,479.4823288000189,None,481.09495180997766,None,481.09495180997766,None,481.09495180997766,None,,,,,,,,,,,,,,207,2023-04-26_13h15.44.102,Main,2022.1.1,59.85751515908863,
neutral,neutral,2,k,k,,,,,,,,,11,5,203,10,,,,,,,,,main,2,2,2,neutral,neutral,k,k,1,0.6803107999730855,481.0989248000551,482.10898260003887,482.09231189999264,None,481.0989248000551,None,481.0989248000551,None,481.0989248000551,None,482.7756073100143,None,482.7756073100143,None,482.7756073100143,None,,,,,,,,,,,,,,207,2023-04-26_13h15.44.102,Main,2022.1.1,59.85751515908863,
negative,neutral,1,j,l,,,,,,,,,11,6,204,3,,,,,,,,,main,1,1,1,neutral,negative,l,l,1,0.8811373000498861,482.7923522000201,483.79239399998914,483.7756431000307,None,482.7923522000201,None,482.7923522000201,None,482.7923522000201,None,484.6593515100074,None,484.6593515100074,None,484.6593515100074,None,,,,,,,,,,,,,,207,2023-04-26_13h15.44.102,Main,2022.1.1,59.85751515908863,
negative,negative,1,j,l,,,,,,,,,11,7,205,0,,,,,,,,,main,1,1,1,negative,negative,l,l,1,0.7316623000660911,484.6630471999524,485.6780809999909,485.6615246000001,None,484.6630471999524,None,484.6630471999524,None,484.6630471999524,None,486.39264831006295,None,486.39264831006295,None,486.39264831006295,None,,,,,,,,,,,,,,207,2023-04-26_13h15.44.102,Main,2022.1.1,59.85751515908863,
positive,neutral,2,l,j,,,,,,,,,11,8,206,17,,,,,,,,,main,2,2,2,neutral,positive,j,j,1,0.8005262999795377,486.39849890000187,487.4114059000276,487.3948211000534,None,486.39849890000187,None,486.39849890000187,None,486.39849890000187,None,488.1947771100211,None,488.1947771100211,None,488.1947771100211,None,,,,,,,,,,,,,,207,2023-04-26_13h15.44.102,Main,2022.1.1,59.85751515908863,
positive,positive,1,l,j,,,,,,,,,11,9,207,2,,,,,,,,,main,1,1,1,positive,positive,j,j,1,0.6149677999783307,488.1989498999901,489.2113756999606,489.1925529000582,None,488.1989498999901,None,488.1989498999901,None,488.1989498999901,None,489.81132151001367,None,489.81132151001367,None,489.81132151001367,None,,,,,,,,,,,,,,207,2023-04-26_13h15.44.102,Main,2022.1.1,59.85751515908863,
positive,positive,2,l,j,,,,,,,,,11,10,208,11,,,,,,,,,main,2,2,2,positive,positive,j,j,1,0.7296238999115303,489.81473420001566,490.8279925000388,490.811456299969,None,489.81473420001566,None,489.81473420001566,None,489.81473420001566,None,491.54250471004053,None,491.54250471004053,None,491.54250471004053,None,,,,,,,,,,,,,,207,2023-04-26_13h15.44.102,Main,2022.1.1,59.85751515908863,
negative,positive,1,j,l,,,,,,,,,11,11,209,6,,,,,,,,,main,1,1,1,positive,negative,l,l,1,0.9814576000208035,491.5461668999633,492.5588359000394,492.542192599969,None,491.5461668999633,None,491.5461668999633,None,491.5461668999633,None,493.525454910018,None,493.525454910018,None,493.525454910018,None,,,,,,,,,,,,,,207,2023-04-26_13h15.44.102,Main,2022.1.1,59.85751515908863,
negative,negative,2,j,l,,,,,,,,,11,12,210,9,,,,,,,,,main,2,2,2,negative,negative,l,l,1,-0.4517890999559313,493.52543290005997,None,None,None,493.52543290005997,None,493.52543290005997,None,493.52543290005997,None,494.0754523000214,None,494.0754523000214,None,494.0754523000214,None,,,,,,,,,,,,,,207,2023-04-26_13h15.44.102,Main,2022.1.1,59.85751515908863,
neutral,negative,1,k,k,,,,,,,,,11,13,211,7,,,,,,,,,main,2,2,1,negative,neutral,k,k,1,0.7367815000470728,497.07781260006595,498.0780114000663,498.06130139995366,None,497.07781260006595,None,497.07781260006595,None,497.07781260006595,None,498.81121681003134,None,498.81121681003134,None,498.81121681003134,None,,,,,,,,,,,,,,207,2023-04-26_13h15.44.102,Main,2022.1.1,59.85751515908863,
neutral,positive,2,k,k,,,,,,,,,11,14,212,13,,,,,,,,,main,2,2,2,positive,neutral,k,k,1,0.6627597999759018,498.81608120002784,499.82777560001705,499.8091143000638,None,498.81608120002784,None,498.81608120002784,None,498.81608120002784,None,500.4756898100139,None,500.4756898100139,None,500.4756898100139,None,,,,,,,,,,,,,,207,2023-04-26_13h15.44.102,Main,2022.1.1,59.85751515908863,
neutral,neutral,1,k,k,,,,,,,,,11,15,213,1,,,,,,,,,main,2,2,1,neutral,neutral,k,k,1,0.6513131000101566,500.4794480999699,501.49449389998335,501.477889199974,None,500.4794480999699,None,500.4794480999699,None,500.4794480999699,None,502.12862171001035,None,502.12862171001035,None,502.12862171001035,None,,,,,,,,,,,,,,207,2023-04-26_13h15.44.102,Main,2022.1.1,59.85751515908863,
neutral,negative,2,k,k,,,,,,,,,11,16,214,16,,,,,,,,,main,2,2,2,negative,neutral,k,k,1,0.7114290999015793,502.1321192999603,503.14233249996323,503.1279247000348,None,502.1321192999603,None,502.1321192999603,None,502.1321192999603,None,503.8418886100524,None,503.8418886100524,None,503.8418886100524,None,,,,,,,,,,,,,,207,2023-04-26_13h15.44.102,Main,2022.1.1,59.85751515908863,
positive,neutral,1,l,j,,,,,,,,,11,17,215,8,,,,,,,,,main,2,2,1,neutral,positive,j,j,1,0.8153630999149755,503.8419077000581,504.84186090005096,504.84186090005096,None,503.8419077000581,None,503.8419077000581,None,503.8419077000581,None,505.6585707099992,None,505.6585707099992,None,505.6585707099992,None,,,,,,,,,,,,,,207,2023-04-26_13h15.44.102,Main,2022.1.1,59.85751515908863,
positive,neutral,2,l,j,,,,,,,,,12,0,216,17,,,,,,,,,main,1,1,2,neutral,positive,j,j,1,1.2157795999664813,505.6656815999886,506.67552090005483,506.6610545000294,None,505.6656815999886,None,505.6656815999886,None,505.6656815999886,None,507.875963410025,None,507.875963410025,None,507.875963410025,None,,,,,,,,,,,,,,207,2023-04-26_13h15.44.102,Main,2022.1.1,59.85751515908863,
negative,positive,1,j,l,,,,,,,,,12,1,217,6,,,,,,,,,main,1,1,1,positive,negative,l,l,1,0.6978982998989522,507.88191330002155,508.8943232999882,508.8776964000426,None,507.88191330002155,None,507.88191330002155,None,507.88191330002155,None,509.57549611002906,None,509.57549611002906,None,509.57549611002906,None,,,,,,,,,,,,,,207,2023-04-26_13h15.44.102,Main,2022.1.1,59.85751515908863,
neutral,neutral,1,k,k,,,,,,,,,12,2,218,1,,,,,,,,,main,1,1,1,neutral,neutral,k,k,1,0.6158065000781789,509.5792419000063,510.594368900056,510.5776928999694,None,509.5792419000063,None,509.5792419000063,None,509.5792419000063,None,511.1931114100269,None,511.1931114100269,None,511.1931114100269,None,,,,,,,,,,,,,,207,2023-04-26_13h15.44.102,Main,2022.1.1,59.85751515908863,
negative,negative,1,j,l,,,,,,,,,12,3,219,0,,,,,,,,,main,2,2,1,negative,negative,l,l,1,0.7642283000750467,511.1989933999721,512.2108698999509,512.1921015999978,None,511.1989933999721,None,511.1989933999721,None,511.1989933999721,None,512.9587592099676,None,512.9587592099676,None,512.9587592099676,None,,,,,,,,,,,,,,207,2023-04-26_13h15.44.102,Main,2022.1.1,59.85751515908863,
neutral,positive,1,k,k,,,,,,,,,12,4,220,4,,,,,,,,,main,1,1,1,positive,neutral,k,k,1,0.6979364999569952,512.9626481999876,513.9743263999699,513.9583544000052,None,512.9626481999876,None,512.9626481999876,None,512.9626481999876,None,514.6583242099848,None,514.6583242099848,None,514.6583242099848,None,,,,,,,,,,,,,,207,2023-04-26_13h15.44.102,Main,2022.1.1,59.85751515908863,
neutral,positive,2,k,k,,,,,,,,,12,5,221,13,,,,,,,,,main,2,2,2,positive,neutral,k,k,1,0.5651378999464214,514.658439300023,515.6583486000309,515.6583486000309,None,514.658439300023,None,514.658439300023,None,514.658439300023,None,516.2250409099622,None,516.2250409099622,None,516.2250409099622,None,,,,,,,,,,,,,,207,2023-04-26_13h15.44.102,Main,2022.1.1,59.85751515908863,
neutral,negative,2,k,k,,,,,,,,,12,6,222,16,,,,,,,,,main,1,1,2,negative,neutral,k,k,1,0.6156244999729097,516.2284099999815,517.227570499992,517.227570499992,None,516.2284099999815,None,516.2284099999815,None,516.2284099999815,None,517.8424654100206,None,517.8424654100206,None,517.8424654100206,None,,,,,,,,,,,,,,207,2023-04-26_13h15.44.102,Main,2022.1.1,59.85751515908863,
negative,negative,2,j,l,,,,,,,,,12,7,223,9,,,,,,,,,main,2,2,2,negative,negative,l,l,1,0.9312733999686316,517.8485271000536,518.860878800042,518.8442503999686,None,517.8485271000536,None,517.8485271000536,None,517.8485271000536,None,519.775254710007,None,519.775254710007,None,519.775254710007,None,,,,,,,,,,,,,,207,2023-04-26_13h15.44.102,Main,2022.1.1,59.85751515908863,
