target,distractor,set,ans1,ans2,rep_loop2.thisRepN,rep_loop2.thisTrialN,rep_loop2.thisN,rep_loop2.thisIndex,flanker_prac_loop.thisRepN,flanker_prac_loop.thisTrialN,flanker_prac_loop.thisN,flanker_prac_loop.thisIndex,flanker_main_loop.thisRepN,flanker_main_loop.thisTrialN,flanker_main_loop.thisN,flanker_main_loop.thisIndex,fl_inst_resp.keys,fl_inst_resp.rt,sound_1.started,sound_1.stopped,image_4.started,image_4.stopped,back_2.started,back_2.stopped,main_prac,fl_cold,fl_colt,fl_set,fl_dcond,fl_tcond,fl_ans,fl_res,fl_corr,fl_rt,fix_fl.started,fix_fl.stopped,targ.started,targ.stopped,j_button.started,j_button.stopped,k_button.started,k_button.stopped,l_button.started,l_button.stopped,j_button2.started,j_button2.stopped,k_button2.started,k_button2.stopped,l_button2.started,l_button2.stopped,mainback.started,mainback.stopped,key_resp.keys,key_resp.rt,mouse_6.x,mouse_6.y,mouse_6.leftButton,mouse_6.midButton,mouse_6.rightButton,mouse_6.started,mouse_6.stopped,text_2.started,text_2.stopped,id*,date,expName,psychopyVersion,frameRate,
,,,,,0,0,0,0,,,,,,,,,space,10.094648399972357,31.052169930015225,None,41.16632750001736,None,,,,,,,,,,,,,,,,,,,,,,,,,,,,,,,,,,,,,,,,,,210,2023-04-25_19h00.23.173,Main,2022.1.1,60.04058743861693,
,,,,,1,0,1,0,,,,,,,,,space,0.29010990005917847,45.505076629982796,None,45.81818059994839,None,,,,,,,,,,,,,,,,,,,,,,,,,,,,,,,,,,,,,,,,,,210,2023-04-25_19h00.23.173,Main,2022.1.1,60.04058743861693,
positive,negative,2,l,j,,,,,0,0,0,14,,,,,,,,,,,48.51855069992598,None,prac,1,1,2,negative,positive,l,l,1,1.539019800024107,50.531966599985026,51.5329338000156,51.518513199989684,None,50.531966599985026,None,50.531966599985026,None,50.531966599985026,None,53.08517380000558,None,53.08517380000558,None,53.08517380000558,None,,,,,,,,,,,,,,210,2023-04-25_19h00.23.173,Main,2022.1.1,60.04058743861693,
negative,positive,1,j,l,,,,,0,1,1,6,,,,,,,,,,,,,prac,1,1,1,positive,negative,j,j,1,0.7677782999817282,54.0840765000321,55.1045680999523,55.06603520002682,None,54.0840765000321,None,54.0840765000321,None,54.0840765000321,None,55.849199730029795,None,55.849199730029795,None,55.849199730029795,None,,,,,,,,,,,,,,210,2023-04-25_19h00.23.173,Main,2022.1.1,60.04058743861693,
negative,neutral,1,j,l,,,,,0,2,2,3,,,,,,,,,,,,,prac,2,2,1,neutral,negative,j,j,1,0.7472268000710756,55.85086629993748,56.86586899997201,56.849457899923436,None,55.85086629993748,None,55.85086629993748,None,55.85086629993748,None,57.5992121300078,None,57.5992121300078,None,57.5992121300078,None,,,,,,,,,,,,,,210,2023-04-25_19h00.23.173,Main,2022.1.1,60.04058743861693,
positive,neutral,1,l,j,,,,,0,3,3,8,,,,,,,,,,,,,prac,1,1,1,neutral,positive,l,l,1,0.6826565000228584,57.60521529999096,58.61832719994709,58.58506810001563,None,57.60521529999096,None,57.60521529999096,None,57.60521529999096,None,59.283000830037054,None,59.283000830037054,None,59.283000830037054,None,,,,,,,,,,,,,,210,2023-04-25_19h00.23.173,Main,2022.1.1,60.04058743861693,
neutral,negative,2,k,k,,,,,0,4,4,16,,,,,,,,,,,,,prac,2,2,2,negative,neutral,k,k,1,0.6817280000541359,59.28873879997991,60.301617500022985,60.28503319993615,None,59.28873879997991,None,59.28873879997991,None,59.28873879997991,None,60.96581512998091,None,60.96581512998091,None,60.96581512998091,None,,,,,,,,,,,,,,210,2023-04-25_19h00.23.173,Main,2022.1.1,60.04058743861693,
negative,negative,2,j,l,,,,,0,5,5,9,,,,,,,,,,,,,prac,1,1,2,negative,negative,j,j,1,0.6323708000127226,60.97448079998139,61.98492239997722,61.96832210000139,None,60.97448079998139,None,60.97448079998139,None,60.97448079998139,None,62.60043583001243,None,62.60043583001243,None,62.60043583001243,None,,,,,,,,,,,,,,210,2023-04-25_19h00.23.173,Main,2022.1.1,60.04058743861693,
positive,positive,1,l,j,,,,,0,6,6,2,,,,,,,,,,,,,prac,1,1,1,positive,positive,l,l,1,0.6644114999799058,62.60620009992272,63.618195499992,63.60164419992361,None,62.60620009992272,None,62.60620009992272,None,62.60620009992272,None,64.26608532998944,None,64.26608532998944,None,64.26608532998944,None,,,,,,,,,,,,,,210,2023-04-25_19h00.23.173,Main,2022.1.1,60.04058743861693,
neutral,negative,1,k,k,,,,,0,7,7,7,,,,,,,,,,,,,prac,1,1,1,negative,neutral,k,k,1,0.680628800066188,64.27084350003861,65.28231429995503,65.2656576000154,None,64.27084350003861,None,64.27084350003861,None,64.27084350003861,None,65.94899732997874,None,65.94899732997874,None,65.94899732997874,None,,,,,,,,,,,,,,210,2023-04-25_19h00.23.173,Main,2022.1.1,60.04058743861693,
positive,negative,1,l,j,,,,,0,8,8,5,,,,,,,,,,,,,prac,2,2,1,negative,positive,l,l,1,0.6646855999715626,65.94975289993454,66.94918879994657,66.94918879994657,None,65.94975289993454,None,65.94975289993454,None,65.94975289993454,None,67.61569803004386,None,67.61569803004386,None,67.61569803004386,None,,,,,,,,,,,,,,210,2023-04-25_19h00.23.173,Main,2022.1.1,60.04058743861693,
neutral,positive,2,k,k,,,,,0,9,9,13,,,,,,,,,,,,,prac,2,2,2,positive,neutral,k,k,1,0.6651163999922574,67.61973239993677,68.63484019995667,68.61823369993363,None,67.61973239993677,None,67.61973239993677,None,67.61973239993677,None,69.28233132994501,None,69.28233132994501,None,69.28233132994501,None,,,,,,,,,,,,,,210,2023-04-25_19h00.23.173,Main,2022.1.1,60.04058743861693,
negative,negative,1,j,l,,,,,0,10,10,0,,,,,,,,,,,,,prac,2,2,1,negative,negative,j,j,1,0.6319764000363648,69.28860570001416,70.3014617000008,70.26816780003719,None,69.28860570001416,None,69.28860570001416,None,69.28860570001416,None,70.91573763004271,None,70.91573763004271,None,70.91573763004271,None,,,,,,,,,,,,,,210,2023-04-25_19h00.23.173,Main,2022.1.1,60.04058743861693,
negative,positive,2,j,l,,,,,0,11,11,15,,,,,,,,,,,,,prac,2,2,2,positive,negative,j,j,1,0.60114549996797,70.93479680002201,71.93476219999138,71.90146910003386,None,70.93479680002201,None,70.93479680002201,None,70.93479680002201,None,72.51806373003637,None,72.51806373003637,None,72.51806373003637,None,,,,,,,,,,,,,,210,2023-04-25_19h00.23.173,Main,2022.1.1,60.04058743861693,
negative,neutral,2,j,l,,,,,0,12,12,12,,,,,,,,,,,,,prac,2,2,2,neutral,negative,j,j,1,0.6493057999759912,72.52130359993316,73.5347171999747,73.51809499994852,None,72.52130359993316,None,72.52130359993316,None,72.52130359993316,None,74.1679539300385,None,74.1679539300385,None,74.1679539300385,None,,,,,,,,,,,,,,210,2023-04-25_19h00.23.173,Main,2022.1.1,60.04058743861693,
positive,neutral,2,l,j,,,,,0,13,13,17,,,,,,,,,,,,,prac,1,1,2,neutral,positive,l,l,1,0.6643284999299794,74.17249269993044,75.18468419997953,75.16807519993745,None,74.17249269993044,None,74.17249269993044,None,74.17249269993044,None,75.83465653000167,None,75.83465653000167,None,75.83465653000167,None,,,,,,,,,,,,,,210,2023-04-25_19h00.23.173,Main,2022.1.1,60.04058743861693,
neutral,neutral,2,k,k,,,,,0,14,14,10,,,,,,,,,,,,,prac,1,1,2,neutral,neutral,k,k,1,0.4792292999336496,75.84147909993771,76.8488120000111,76.83292089996394,None,75.84147909993771,None,75.84147909993771,None,75.84147909993771,None,77.3154535299982,None,77.3154535299982,None,77.3154535299982,None,,,,,,,,,,,,,,210,2023-04-25_19h00.23.173,Main,2022.1.1,60.04058743861693,
positive,positive,2,l,j,,,,,0,15,15,11,,,,,,,,,,,,,prac,2,2,2,positive,positive,l,l,1,0.5679350999416783,77.33214880002197,78.33245699992403,78.31551570002921,None,77.33214880002197,None,77.33214880002197,None,77.33214880002197,None,78.88472502998775,None,78.88472502998775,None,78.88472502998775,None,,,,,,,,,,,,,,210,2023-04-25_19h00.23.173,Main,2022.1.1,60.04058743861693,
neutral,positive,1,k,k,,,,,0,16,16,4,,,,,,,,,,,,,prac,2,2,1,positive,neutral,k,k,1,0.5292737999698147,78.88815389992669,79.90124000003561,79.88465549994726,None,78.88815389992669,None,78.88815389992669,None,78.88815389992669,None,80.41544403001899,None,80.41544403001899,None,80.41544403001899,None,,,,,,,,,,,,,,210,2023-04-25_19h00.23.173,Main,2022.1.1,60.04058743861693,
neutral,neutral,1,k,k,,,,,0,17,17,1,,,,,,,,,,,,,prac,1,1,1,neutral,neutral,k,k,1,0.6160567000042647,80.4214710999513,81.43456600001082,81.40122559992597,None,80.4214710999513,None,80.4214710999513,None,80.4214710999513,None,82.03206972993212,None,82.03206972993212,None,82.03206972993212,None,,,,,,,,,,,,,,210,2023-04-25_19h00.23.173,Main,2022.1.1,60.04058743861693,
neutral,positive,2,k,k,,,,,1,0,18,13,,,,,,,,,,,,,prac,2,2,2,positive,neutral,k,k,1,0.7816152001032606,82.03798349993303,83.05117500002962,83.03460250003263,None,82.03798349993303,None,82.03798349993303,None,82.03798349993303,None,83.81555592996301,None,83.81555592996301,None,83.81555592996301,None,,,,,,,,,,,,,,210,2023-04-25_19h00.23.173,Main,2022.1.1,60.04058743861693,
positive,neutral,2,l,j,,,,,1,1,19,17,,,,,,,,,,,,,prac,1,1,2,neutral,positive,l,l,1,0.6172840999206528,83.82238239992876,84.83452439995017,84.81785350001883,None,83.82238239992876,None,83.82238239992876,None,83.82238239992876,None,85.43448422994697,None,85.43448422994697,None,85.43448422994697,None,,,,,,,,,,,,,,210,2023-04-25_19h00.23.173,Main,2022.1.1,60.04058743861693,
negative,negative,1,j,l,,,,,1,2,20,0,,,,,,,,,,,,,prac,2,2,1,negative,negative,j,j,1,0.6296064000343904,85.43719740002416,86.44859569997061,86.43192689993884,None,85.43719740002416,None,85.43719740002416,None,85.43719740002416,None,87.06523702997947,None,87.06523702997947,None,87.06523702997947,None,,,,,,,,,,,,,,210,2023-04-25_19h00.23.173,Main,2022.1.1,60.04058743861693,
negative,neutral,1,j,l,,,,,1,3,21,3,,,,,,,,,,,,,prac,2,2,1,neutral,negative,j,j,1,0.5652013999642804,87.06524419994093,88.06535869999789,88.06535869999789,None,87.06524419994093,None,87.06524419994093,None,87.06524419994093,None,88.63193043001229,None,88.63193043001229,None,88.63193043001229,None,,,,,,,,,,,,,,210,2023-04-25_19h00.23.173,Main,2022.1.1,60.04058743861693,
negative,positive,1,j,l,,,,,1,4,22,6,,,,,,,,,,,,,prac,2,2,1,positive,negative,j,j,1,0.6664447999792174,88.63202299992554,89.63191739993636,89.63191739993636,None,88.63202299992554,None,88.63202299992554,None,88.63202299992554,None,90.29914143000497,None,90.29914143000497,None,90.29914143000497,None,,,,,,,,,,,,,,210,2023-04-25_19h00.23.173,Main,2022.1.1,60.04058743861693,
positive,negative,2,l,j,,,,,1,5,23,14,,,,,,,,,,,,,prac,2,2,2,negative,positive,l,l,1,0.551456700079143,90.30571129999589,91.317679699976,91.3010872999439,None,90.30571129999589,None,90.30571129999589,None,90.30571129999589,None,91.85291463002795,None,91.85291463002795,None,91.85291463002795,None,,,,,,,,,,,,,,210,2023-04-25_19h00.23.173,Main,2022.1.1,60.04058743861693,
neutral,negative,2,k,k,,,,,1,6,24,16,,,,,,,,,,,,,prac,2,2,2,negative,neutral,k,k,1,0.5965850000502542,91.85566260002088,92.86759399995208,92.85099750000518,None,91.85566260002088,None,91.85566260002088,None,91.85566260002088,None,93.45091832993785,None,93.45091832993785,None,93.45091832993785,None,,,,,,,,,,,,,,210,2023-04-25_19h00.23.173,Main,2022.1.1,60.04058743861693,
negative,positive,2,j,l,,,,,1,7,25,15,,,,,,,,,,,,,prac,2,2,2,positive,negative,j,j,1,0.6487308999057859,93.45928339997772,94.46758479997516,94.450994099956,None,93.45928339997772,None,93.45928339997772,None,93.45928339997772,None,95.10087212995859,None,95.10087212995859,None,95.10087212995859,None,,,,,,,,,,,,,,210,2023-04-25_19h00.23.173,Main,2022.1.1,60.04058743861693,
positive,positive,1,l,j,,,,,1,8,26,2,,,,,,,,,,,,,prac,2,2,1,positive,positive,l,l,1,0.6290311999619007,95.10471709992271,96.11759499995969,96.10096479998901,None,95.10471709992271,None,95.10471709992271,None,95.10471709992271,None,96.73176162998425,None,96.73176162998425,None,96.73176162998425,None,,,,,,,,,,,,,,210,2023-04-25_19h00.23.173,Main,2022.1.1,60.04058743861693,
neutral,neutral,1,k,k,,,,,1,9,27,1,,,,,,,,,,,,,prac,2,2,1,neutral,neutral,k,k,1,0.5651991000631824,96.73492830002215,97.7483298999723,97.73166099993978,None,96.73492830002215,None,96.73492830002215,None,96.73492830002215,None,98.29833752993727,None,98.29833752993727,None,98.29833752993727,None,,,,,,,,,,,,,,210,2023-04-25_19h00.23.173,Main,2022.1.1,60.04058743861693,
positive,negative,1,l,j,,,,,1,10,28,5,,,,,,,,,,,,,prac,2,2,1,negative,positive,l,l,1,0.6171419000020251,98.29906999995,99.29841579997446,99.29841579997446,None,98.29906999995,None,98.29906999995,None,98.29906999995,None,99.91744813002879,None,99.91744813002879,None,99.91744813002879,None,,,,,,,,,,,,,,210,2023-04-25_19h00.23.173,Main,2022.1.1,60.04058743861693,
neutral,neutral,2,k,k,,,,,1,11,29,10,,,,,,,,,,,,,prac,1,1,2,neutral,neutral,k,k,1,0.5973204999463633,99.92010949994437,100.93412079999689,100.91747270000633,None,99.92010949994437,None,99.92010949994437,None,99.92010949994437,None,101.51532743003918,None,101.51532743003918,None,101.51532743003918,None,,,,,,,,,,,,,,210,2023-04-25_19h00.23.173,Main,2022.1.1,60.04058743861693,
positive,neutral,1,l,j,,,,,1,12,30,8,,,,,,,,,,,,,prac,1,1,1,neutral,positive,l,l,1,0.5143211999675259,101.51922939997166,102.53409929992631,102.51746869995259,None,101.51922939997166,None,101.51922939997166,None,101.51922939997166,None,103.03163933003088,None,103.03163933003088,None,103.03163933003088,None,,,,,,,,,,,,,,210,2023-04-25_19h00.23.173,Main,2022.1.1,60.04058743861693,
positive,positive,2,l,j,,,,,1,13,31,11,,,,,,,,,,,,,prac,2,2,2,positive,positive,l,l,1,0.5515777999535203,103.03487089998089,104.0340286999708,104.01745089993346,None,103.03487089998089,None,103.03487089998089,None,103.03487089998089,None,104.58401953004068,None,104.58401953004068,None,104.58401953004068,None,,,,,,,,,,,,,,210,2023-04-25_19h00.23.173,Main,2022.1.1,60.04058743861693,
neutral,negative,1,k,k,,,,,1,14,32,7,,,,,,,,,,,,,prac,2,2,1,negative,neutral,k,k,1,0.5817428999580443,104.58726599998772,105.60072220000438,105.58411289996002,None,104.58726599998772,None,104.58726599998772,None,104.58726599998772,None,106.16737932997057,None,106.16737932997057,None,106.16737932997057,None,,,,,,,,,,,,,,210,2023-04-25_19h00.23.173,Main,2022.1.1,60.04058743861693,
negative,negative,2,j,l,,,,,1,15,33,9,,,,,,,,,,,,,prac,2,2,2,negative,negative,j,j,1,0.5626986999996006,106.17136349994689,107.18149450002238,107.16512979997788,None,106.17136349994689,None,106.17136349994689,None,106.17136349994689,None,107.73150843003532,None,107.73150843003532,None,107.73150843003532,None,,,,,,,,,,,,,,210,2023-04-25_19h00.23.173,Main,2022.1.1,60.04058743861693,
neutral,positive,1,k,k,,,,,1,16,34,4,,,,,,,,,,,,,prac,2,2,1,positive,neutral,k,k,1,0.5326564999995753,107.73146679997444,108.73151429998688,108.73151429998688,None,107.73146679997444,None,107.73146679997444,None,107.73146679997444,None,109.26508123002714,None,109.26508123002714,None,109.26508123002714,None,,,,,,,,,,,,,,210,2023-04-25_19h00.23.173,Main,2022.1.1,60.04058743861693,
negative,neutral,2,j,l,,,,,1,17,35,12,,,,,,,,,,,,,prac,1,1,2,neutral,negative,j,j,1,0.6158623999217525,109.26573260000441,110.26486110000405,110.26486110000405,None,109.26573260000441,None,109.26573260000441,None,109.26573260000441,None,110.8814957299619,None,110.8814957299619,None,110.8814957299619,None,,,,,,,,,,,,,,210,2023-04-25_19h00.23.173,Main,2022.1.1,60.04058743861693,
,,,,,,,,,,,,,,,,,,,,,,,,,,,,,,,,,,,,,,,,,,,,,,,,,,,110.88153679994866,None,space,3.569522599922493,,,,,,,,,,210,2023-04-25_19h00.23.173,Main,2022.1.1,60.04058743861693,
,,,,,,,,,,,,,,,,,,,,,,,,,,,,,,,,,,,,,,,,,,,,,,,,,,,,,,,0.37037036,-0.1,0,0,0,0.010024130111560225,None,,,210,2023-04-25_19h00.23.173,Main,2022.1.1,60.04058743861693,
neutral,neutral,1,k,k,,,,,,,,,0,0,0,1,,,,,,,114.48395969998091,None,main,2,2,1,neutral,neutral,k,k,1,0.578662300016731,116.48777419992257,117.5004458000185,117.48391069995705,None,116.48777419992257,None,116.48777419992257,None,116.48777419992257,None,118.0646799300448,None,118.0646799300448,None,118.0646799300448,None,,,,,,,,,,,,,,210,2023-04-25_19h00.23.173,Main,2022.1.1,60.04058743861693,
neutral,positive,2,k,k,,,,,,,,,0,1,1,13,,,,,,,,,main,1,1,2,positive,neutral,k,k,1,0.5304450000403449,118.06948910001665,119.08123210002668,119.06457009993028,None,118.06948910001665,None,118.06948910001665,None,118.06948910001665,None,119.59793782996712,None,119.59793782996712,None,119.59793782996712,None,,,,,,,,,,,,,,210,2023-04-25_19h00.23.173,Main,2022.1.1,60.04058743861693,
negative,negative,1,j,l,,,,,,,,,0,2,2,0,,,,,,,,,main,1,1,1,negative,negative,j,j,1,0.6154414000920951,119.59882329998072,120.5979922999395,120.5979922999395,None,119.59882329998072,None,119.59882329998072,None,119.59882329998072,None,121.21465963002993,None,121.21465963002993,None,121.21465963002993,None,,,,,,,,,,,,,,210,2023-04-25_19h00.23.173,Main,2022.1.1,60.04058743861693,
neutral,neutral,2,k,k,,,,,,,,,0,3,3,10,,,,,,,,,main,1,1,2,neutral,neutral,k,k,1,0.6171506999526173,121.21849909995217,122.23376149998512,122.21716599992942,None,121.21849909995217,None,121.21849909995217,None,121.21849909995217,None,122.83373272995232,None,122.83373272995232,None,122.83373272995232,None,,,,,,,,,,,,,,210,2023-04-25_19h00.23.173,Main,2022.1.1,60.04058743861693,
neutral,negative,2,k,k,,,,,,,,,0,4,4,16,,,,,,,,,main,2,2,2,negative,neutral,k,k,1,0.6129880000371486,122.83818109997083,123.8503853000002,123.83377579995431,None,122.83818109997083,None,122.83818109997083,None,122.83818109997083,None,124.44902902998729,None,124.44902902998729,None,124.44902902998729,None,,,,,,,,,,,,,,210,2023-04-25_19h00.23.173,Main,2022.1.1,60.04058743861693,
negative,neutral,1,j,l,,,,,,,,,0,5,5,3,,,,,,,,,main,2,2,1,neutral,negative,j,j,1,0.6486388999037445,124.45499779994134,125.46701939997729,125.45040249999147,None,124.45499779994134,None,124.45499779994134,None,124.45499779994134,None,126.09915433003334,None,126.09915433003334,None,126.09915433003334,None,,,,,,,,,,,,,,210,2023-04-25_19h00.23.173,Main,2022.1.1,60.04058743861693,
neutral,negative,1,k,k,,,,,,,,,0,6,6,7,,,,,,,,,main,2,2,1,negative,neutral,k,k,1,0.7006206000223756,126.10499649995472,127.11698809999507,127.10038590000477,None,126.10499649995472,None,126.10499649995472,None,126.10499649995472,None,127.80107512994437,None,127.80107512994437,None,127.80107512994437,None,,,,,,,,,,,,,,210,2023-04-25_19h00.23.173,Main,2022.1.1,60.04058743861693,
positive,neutral,1,l,j,,,,,,,,,0,7,7,8,,,,,,,,,main,2,2,1,neutral,positive,l,l,1,0.6947416999610141,127.80495549994521,128.81443959998433,128.79775329993572,None,127.80495549994521,None,127.80495549994521,None,127.80495549994521,None,129.49774063000223,None,129.49774063000223,None,129.49774063000223,None,,,,,,,,,,,,,,210,2023-04-25_19h00.23.173,Main,2022.1.1,60.04058743861693,
negative,positive,1,j,l,,,,,,,,,0,8,8,6,,,,,,,,,main,2,2,1,positive,negative,j,j,1,0.6141012000152841,129.4991480000317,130.5144222000381,130.49775560002308,None,129.4991480000317,None,129.4991480000317,None,129.4991480000317,None,131.1144164299476,None,131.1144164299476,None,131.1144164299476,None,,,,,,,,,,,,,,210,2023-04-25_19h00.23.173,Main,2022.1.1,60.04058743861693,
neutral,positive,1,k,k,,,,,,,,,0,9,9,4,,,,,,,,,main,2,2,1,positive,neutral,k,k,1,0.5006556001026183,131.11651730001904,132.13107330002822,132.11440610000864,None,131.11651730001904,None,131.11651730001904,None,131.11651730001904,None,132.61684153001988,None,132.61684153001988,None,132.61684153001988,None,,,,,,,,,,,,,,210,2023-04-25_19h00.23.173,Main,2022.1.1,60.04058743861693,
positive,positive,2,l,j,,,,,,,,,0,10,10,11,,,,,,,,,main,1,1,2,positive,positive,l,l,1,0.5152796999318525,132.61964940000325,133.63351089996286,133.616939599975,None,132.61964940000325,None,132.61964940000325,None,132.61964940000325,None,134.1336170299328,None,134.1336170299328,None,134.1336170299328,None,,,,,,,,,,,,,,210,2023-04-25_19h00.23.173,Main,2022.1.1,60.04058743861693,
negative,neutral,2,j,l,,,,,,,,,0,11,11,12,,,,,,,,,main,2,2,2,neutral,negative,j,j,1,0.5983525000046939,134.13681589998305,135.15012330003083,135.1334838999901,None,134.13681589998305,None,134.13681589998305,None,134.13681589998305,None,135.73358593002195,None,135.73358593002195,None,135.73358593002195,None,,,,,,,,,,,,,,210,2023-04-25_19h00.23.173,Main,2022.1.1,60.04058743861693,
positive,neutral,2,l,j,,,,,,,,,0,12,12,17,,,,,,,,,main,2,2,2,neutral,positive,l,l,1,0.7150550000369549,135.73665959993377,136.75010469998233,136.73346359992865,None,135.73665959993377,None,135.73665959993377,None,135.73665959993377,None,137.4476057299762,None,137.4476057299762,None,137.4476057299762,None,,,,,,,,,,,,,,210,2023-04-25_19h00.23.173,Main,2022.1.1,60.04058743861693,
positive,negative,2,l,j,,,,,,,,,0,13,13,14,,,,,,,,,main,2,2,2,negative,positive,l,l,1,0.9323813000228256,137.4610572999809,138.46670440002345,138.43340420001186,None,137.4610572999809,None,137.4610572999809,None,137.4610572999809,None,139.38537243002793,None,139.38537243002793,None,139.38537243002793,None,,,,,,,,,,,,,,210,2023-04-25_19h00.23.173,Main,2022.1.1,60.04058743861693,
negative,positive,2,j,l,,,,,,,,,0,14,14,15,,,,,,,,,main,2,2,2,positive,negative,j,j,1,0.6939509999938309,139.3976987999631,140.39746979996562,140.380796500016,None,139.3976987999631,None,139.3976987999631,None,139.3976987999631,None,141.08077122998657,None,141.08077122998657,None,141.08077122998657,None,,,,,,,,,,,,,,210,2023-04-25_19h00.23.173,Main,2022.1.1,60.04058743861693,
positive,negative,1,l,j,,,,,,,,,0,15,15,5,,,,,,,,,main,2,2,1,negative,positive,l,l,1,0.617424999945797,141.08076299994718,142.0833417000249,142.06673780002166,None,141.08076299994718,None,141.08076299994718,None,141.08076299994718,None,142.69945702998666,None,142.69945702998666,None,142.69945702998666,None,,,,,,,,,,,,,,210,2023-04-25_19h00.23.173,Main,2022.1.1,60.04058743861693,
positive,positive,1,l,j,,,,,,,,,0,16,16,2,,,,,,,,,main,2,2,1,positive,positive,l,l,1,0.5643394999206066,142.704561999999,143.7166411000071,143.70003990002442,None,142.704561999999,None,142.704561999999,None,142.704561999999,None,144.2643434299971,None,144.2643434299971,None,144.2643434299971,None,,,,,,,,,,,,,,210,2023-04-25_19h00.23.173,Main,2022.1.1,60.04058743861693,
negative,negative,2,j,l,,,,,,,,,0,17,17,9,,,,,,,,,main,2,2,2,negative,negative,j,j,1,0.6161666000261903,144.27132479997817,145.2832809999818,145.26667069992982,None,144.27132479997817,None,144.27132479997817,None,144.27132479997817,None,145.88332043000264,None,145.88332043000264,None,145.88332043000264,None,,,,,,,,,,,,,,210,2023-04-25_19h00.23.173,Main,2022.1.1,60.04058743861693,
neutral,negative,2,k,k,,,,,,,,,1,0,18,16,,,,,,,,,main,1,1,2,negative,neutral,k,k,1,0.5969141999958083,145.88729839993175,146.89991279994138,146.88331149995793,None,145.88729839993175,None,145.88729839993175,None,145.88729839993175,None,147.4814324300387,None,147.4814324300387,None,147.4814324300387,None,,,,,,,,,,,,,,210,2023-04-25_19h00.23.173,Main,2022.1.1,60.04058743861693,
negative,negative,1,j,l,,,,,,,,,1,1,19,0,,,,,,,,,main,1,1,1,negative,negative,j,j,1,0.6475584999425337,147.4875863000052,148.49987930001225,148.48326210002415,None,147.4875863000052,None,147.4875863000052,None,147.4875863000052,None,149.1307754299487,None,149.1307754299487,None,149.1307754299487,None,,,,,,,,,,,,,,210,2023-04-25_19h00.23.173,Main,2022.1.1,60.04058743861693,
neutral,neutral,2,k,k,,,,,,,,,1,2,20,10,,,,,,,,,main,1,1,2,neutral,neutral,k,k,1,0.5325735999504104,149.1370894999709,150.1481106999563,150.13087430002633,None,149.1370894999709,None,149.1370894999709,None,149.1370894999709,None,150.66399323003134,None,150.66399323003134,None,150.66399323003134,None,,,,,,,,,,,,,,210,2023-04-25_19h00.23.173,Main,2022.1.1,60.04058743861693,
neutral,negative,1,k,k,,,,,,,,,1,3,21,7,,,,,,,,,main,1,1,1,negative,neutral,k,k,1,0.7474334000144154,150.6652802999597,151.6807034999365,151.6640348000219,None,150.6652802999597,None,150.6652802999597,None,150.6652802999597,None,152.41403713001637,None,152.41403713001637,None,152.41403713001637,None,,,,,,,,,,,,,,210,2023-04-25_19h00.23.173,Main,2022.1.1,60.04058743861693,
negative,neutral,2,j,l,,,,,,,,,1,4,22,12,,,,,,,,,main,1,1,2,neutral,negative,j,j,1,0.6004658999154344,152.41892199998256,153.43310569995083,153.41646979993675,None,152.41892199998256,None,152.41892199998256,None,152.41892199998256,None,154.01647183002206,None,154.01647183002206,None,154.01647183002206,None,,,,,,,,,,,,,,210,2023-04-25_19h00.23.173,Main,2022.1.1,60.04058743861693,
negative,negative,2,j,l,,,,,,,,,1,5,23,9,,,,,,,,,main,1,1,2,negative,negative,j,j,1,0.5977034999523312,154.01969250000548,155.03304380003829,155.01654179999605,None,154.01969250000548,None,154.01969250000548,None,154.01969250000548,None,155.61565552995307,None,155.61565552995307,None,155.61565552995307,None,,,,,,,,,,,,,,210,2023-04-25_19h00.23.173,Main,2022.1.1,60.04058743861693,
positive,negative,2,l,j,,,,,,,,,1,6,24,14,,,,,,,,,main,2,2,2,negative,positive,l,l,1,0.6135550999315456,155.62095160002355,156.63300639996305,156.61641329992563,None,155.62095160002355,None,155.62095160002355,None,155.62095160002355,None,157.23085892997915,None,157.23085892997915,None,157.23085892997915,None,,,,,,,,,,,,,,210,2023-04-25_19h00.23.173,Main,2022.1.1,60.04058743861693,
negative,positive,1,j,l,,,,,,,,,1,7,25,6,,,,,,,,,main,1,1,1,positive,negative,j,j,1,0.5657950000604615,157.2372584999539,158.24963570002,158.23303639993537,None,157.2372584999539,None,157.2372584999539,None,157.2372584999539,None,158.797506730014,None,158.797506730014,None,158.797506730014,None,,,,,,,,,,,,,,210,2023-04-25_19h00.23.173,Main,2022.1.1,60.04058743861693,
negative,neutral,1,j,l,,,,,,,,,1,8,26,3,,,,,,,,,main,1,1,1,neutral,negative,j,j,1,0.5638177000219002,158.80212280002888,159.8137477999553,159.7970776000293,None,158.80212280002888,None,158.80212280002888,None,158.80212280002888,None,160.36371972999768,None,160.36371972999768,None,160.36371972999768,None,,,,,,,,,,,,,,210,2023-04-25_19h00.23.173,Main,2022.1.1,60.04058743861693,
positive,negative,1,l,j,,,,,,,,,1,9,27,5,,,,,,,,,main,1,1,1,negative,positive,l,l,1,0.6653051000321284,160.36374960001558,161.36383869999554,161.36383869999554,None,160.36374960001558,None,160.36374960001558,None,160.36374960001558,None,162.0304584300029,None,162.0304584300029,None,162.0304584300029,None,,,,,,,,,,,,,,210,2023-04-25_19h00.23.173,Main,2022.1.1,60.04058743861693,
positive,positive,2,l,j,,,,,,,,,1,10,28,11,,,,,,,,,main,1,1,2,positive,positive,l,l,1,0.5343123999191448,162.03476239996962,163.04957509995438,163.03296670003328,None,162.03476239996962,None,162.03476239996962,None,162.03476239996962,None,163.56613892997848,None,163.56613892997848,None,163.56613892997848,None,,,,,,,,,,,,,,210,2023-04-25_19h00.23.173,Main,2022.1.1,60.04058743861693,
neutral,positive,2,k,k,,,,,,,,,1,11,29,13,,,,,,,,,main,2,2,2,positive,neutral,k,k,1,0.5780289000831544,163.5755389999831,164.5828878999455,164.5662980999332,None,163.5755389999831,None,163.5755389999831,None,163.5755389999831,None,165.14708692993736,None,165.14708692993736,None,165.14708692993736,None,,,,,,,,,,,,,,210,2023-04-25_19h00.23.173,Main,2022.1.1,60.04058743861693,
neutral,positive,1,k,k,,,,,,,,,1,12,30,4,,,,,,,,,main,2,2,1,positive,neutral,k,k,1,0.5816792999394238,165.15347859996837,166.16622759995516,166.14960569993127,None,165.15347859996837,None,165.15347859996837,None,165.15347859996837,None,166.73060543002794,None,166.73060543002794,None,166.73060543002794,None,,,,,,,,,,,,,,210,2023-04-25_19h00.23.173,Main,2022.1.1,60.04058743861693,
negative,positive,2,j,l,,,,,,,,,1,13,31,15,,,,,,,,,main,1,1,2,positive,negative,j,j,1,0.7483153999783099,166.73717760003638,167.74951619992498,167.7329206999857,None,166.73717760003638,None,166.73717760003638,None,166.73717760003638,None,168.48038953001378,None,168.48038953001378,None,168.48038953001378,None,,,,,,,,,,,,,,210,2023-04-25_19h00.23.173,Main,2022.1.1,60.04058743861693,
positive,neutral,1,l,j,,,,,,,,,1,14,32,8,,,,,,,,,main,2,2,1,neutral,positive,l,l,1,0.6984016000060365,168.48419069999363,169.49695910001174,169.4802957000211,None,168.48419069999363,None,168.48419069999363,None,168.48419069999363,None,170.18028602999402,None,170.18028602999402,None,170.18028602999402,None,,,,,,,,,,,,,,210,2023-04-25_19h00.23.173,Main,2022.1.1,60.04058743861693,
positive,positive,1,l,j,,,,,,,,,1,15,33,2,,,,,,,,,main,2,2,1,positive,positive,l,l,1,0.5341251000063494,170.18107779999264,171.18031059997156,171.18031059997156,None,170.18107779999264,None,170.18107779999264,None,170.18107779999264,None,171.7161005299422,None,171.7161005299422,None,171.7161005299422,None,,,,,,,,,,,,,,210,2023-04-25_19h00.23.173,Main,2022.1.1,60.04058743861693,
positive,neutral,2,l,j,,,,,,,,,1,16,34,17,,,,,,,,,main,1,1,2,neutral,positive,l,l,1,0.6476751000154763,171.7193474000087,172.7327053999761,172.71609579992946,None,171.7193474000087,None,171.7193474000087,None,171.7193474000087,None,173.36535683000693,None,173.36535683000693,None,173.36535683000693,None,,,,,,,,,,,,,,210,2023-04-25_19h00.23.173,Main,2022.1.1,60.04058743861693,
neutral,neutral,1,k,k,,,,,,,,,1,17,35,1,,,,,,,,,main,1,1,1,neutral,neutral,k,k,1,0.5657155000371858,173.37078050000127,174.38277020002715,174.36614239995833,None,173.37078050000127,None,173.37078050000127,None,173.37078050000127,None,174.93271362996893,None,174.93271362996893,None,174.93271362996893,None,,,,,,,,,,,,,,210,2023-04-25_19h00.23.173,Main,2022.1.1,60.04058743861693,
negative,negative,2,j,l,,,,,,,,,2,0,36,9,,,,,,,,,main,1,1,2,negative,negative,j,j,1,0.5651506000431255,174.9358138999669,175.9493525000289,175.9327657999238,None,174.9358138999669,None,174.9358138999669,None,174.9358138999669,None,176.49942932993872,None,176.49942932993872,None,176.49942932993872,None,,,,,,,,,,,,,,210,2023-04-25_19h00.23.173,Main,2022.1.1,60.04058743861693,
positive,negative,1,l,j,,,,,,,,,2,1,37,5,,,,,,,,,main,1,1,1,negative,positive,l,l,1,0.5626479999627918,176.50383409997448,177.5159519999288,177.4993615000276,None,176.50383409997448,None,176.50383409997448,None,176.50383409997448,None,178.06376752996584,None,178.06376752996584,None,178.06376752996584,None,,,,,,,,,,,,,,210,2023-04-25_19h00.23.173,Main,2022.1.1,60.04058743861693,
neutral,neutral,1,k,k,,,,,,,,,2,2,38,1,,,,,,,,,main,2,2,1,neutral,neutral,k,k,1,0.5812810000497848,178.0701799999224,179.08260219998192,179.06602499994915,None,178.0701799999224,None,178.0701799999224,None,178.0701799999224,None,179.64668433001498,None,179.64668433001498,None,179.64668433001498,None,,,,,,,,,,,,,,210,2023-04-25_19h00.23.173,Main,2022.1.1,60.04058743861693,
neutral,negative,2,k,k,,,,,,,,,2,3,39,16,,,,,,,,,main,2,2,2,negative,neutral,k,k,1,0.5816680999705568,179.64672079996672,180.64673619996756,180.64673619996756,None,179.64672079996672,None,179.64672079996672,None,179.64672079996672,None,181.23006652999902,None,181.23006652999902,None,181.23006652999902,None,,,,,,,,,,,,,,210,2023-04-25_19h00.23.173,Main,2022.1.1,60.04058743861693,
negative,neutral,2,j,l,,,,,,,,,2,4,40,12,,,,,,,,,main,2,2,2,neutral,negative,j,j,1,0.5679695999715477,181.23067229997832,182.23027429997455,182.23027429997455,None,181.23067229997832,None,181.23067229997832,None,181.23067229997832,None,182.79914303001715,None,182.79914303001715,None,182.79914303001715,None,,,,,,,,,,,,,,210,2023-04-25_19h00.23.173,Main,2022.1.1,60.04058743861693,
neutral,negative,1,k,k,,,,,,,,,2,5,41,7,,,,,,,,,main,2,2,1,negative,neutral,k,k,1,0.5454717000247911,182.80533539992757,183.81588889996056,183.7992433999898,None,182.80533539992757,None,182.80533539992757,None,182.80533539992757,None,184.34676332998788,None,184.34676332998788,None,184.34676332998788,None,,,,,,,,,,,,,,210,2023-04-25_19h00.23.173,Main,2022.1.1,60.04058743861693,
neutral,positive,2,k,k,,,,,,,,,2,6,42,13,,,,,,,,,main,1,1,2,positive,neutral,k,k,1,0.5354181999573484,184.3530873999698,185.36582549999002,185.34923119994346,None,184.3530873999698,None,184.3530873999698,None,184.3530873999698,None,185.88250983000034,None,185.88250983000034,None,185.88250983000034,None,,,,,,,,,,,,,,210,2023-04-25_19h00.23.173,Main,2022.1.1,60.04058743861693,
neutral,positive,1,k,k,,,,,,,,,2,7,43,4,,,,,,,,,main,2,2,1,positive,neutral,k,k,1,0.5139937000349164,185.88699329993688,186.89915349998046,186.88253940001596,None,185.88699329993688,None,185.88699329993688,None,185.88699329993688,None,187.3991147300112,None,187.3991147300112,None,187.3991147300112,None,,,,,,,,,,,,,,210,2023-04-25_19h00.23.173,Main,2022.1.1,60.04058743861693,
positive,neutral,1,l,j,,,,,,,,,2,8,44,8,,,,,,,,,main,2,2,1,neutral,positive,l,l,1,0.546542500029318,187.40239379997365,188.41576759994496,188.3991825999692,None,187.40239379997365,None,187.40239379997365,None,187.40239379997365,None,188.94722763000755,None,188.94722763000755,None,188.94722763000755,None,,,,,,,,,,,,,,210,2023-04-25_19h00.23.173,Main,2022.1.1,60.04058743861693,
negative,positive,2,j,l,,,,,,,,,2,9,45,15,,,,,,,,,main,1,1,2,positive,negative,j,j,1,0.59765020001214,188.95361470000353,189.96574829996098,189.9491457999684,None,188.95361470000353,None,188.95361470000353,None,188.95361470000353,None,190.5464728299412,None,190.5464728299412,None,190.5464728299412,None,,,,,,,,,,,,,,210,2023-04-25_19h00.23.173,Main,2022.1.1,60.04058743861693,
negative,positive,1,j,l,,,,,,,,,2,10,46,6,,,,,,,,,main,1,1,1,positive,negative,j,j,1,0.5996416000416502,190.5632040000055,191.56317570002284,191.54652810003608,None,190.5632040000055,None,190.5632040000055,None,190.5632040000055,None,192.1483918299782,None,192.1483918299782,None,192.1483918299782,None,,,,,,,,,,,,,,210,2023-04-25_19h00.23.173,Main,2022.1.1,60.04058743861693,
positive,positive,2,l,j,,,,,,,,,2,11,47,11,,,,,,,,,main,2,2,2,positive,positive,l,l,1,0.647620499948971,192.15356789994985,193.16570709994994,193.14906169997994,None,192.15356789994985,None,192.15356789994985,None,192.15356789994985,None,193.79713132994948,None,193.79713132994948,None,193.79713132994948,None,,,,,,,,,,,,,,210,2023-04-25_19h00.23.173,Main,2022.1.1,60.04058743861693,
positive,negative,2,l,j,,,,,,,,,2,12,48,14,,,,,,,,,main,2,2,2,negative,positive,l,l,1,0.5484457000857219,193.803614799981,194.81563049997203,194.7990391999483,None,193.803614799981,None,193.803614799981,None,193.803614799981,None,195.3472949299612,None,195.3472949299612,None,195.3472949299612,None,,,,,,,,,,,,,,210,2023-04-25_19h00.23.173,Main,2022.1.1,60.04058743861693,
negative,negative,1,j,l,,,,,,,,,2,13,49,0,,,,,,,,,main,2,2,1,negative,negative,j,j,1,0.6483654000330716,195.3536345999455,196.36560349992942,196.34901539993007,None,195.3536345999455,None,195.3536345999455,None,195.3536345999455,None,196.9973412299878,None,196.9973412299878,None,196.9973412299878,None,,,,,,,,,,,,,,210,2023-04-25_19h00.23.173,Main,2022.1.1,60.04058743861693,
positive,neutral,2,l,j,,,,,,,,,2,14,50,17,,,,,,,,,main,2,2,2,neutral,positive,l,l,1,0.5825161999091506,197.0035795000149,198.01554719998967,197.9989783000201,None,197.0035795000149,None,197.0035795000149,None,197.0035795000149,None,198.58147743000882,None,198.58147743000882,None,198.58147743000882,None,,,,,,,,,,,,,,210,2023-04-25_19h00.23.173,Main,2022.1.1,60.04058743861693,
positive,positive,1,l,j,,,,,,,,,2,15,51,2,,,,,,,,,main,1,1,1,positive,positive,l,l,1,0.6802086998941377,198.58684619993437,199.59882169996854,199.58219290000852,None,198.58684619993437,None,198.58684619993437,None,198.58684619993437,None,200.26293582998915,None,200.26293582998915,None,200.26293582998915,None,,,,,,,,,,,,,,210,2023-04-25_19h00.23.173,Main,2022.1.1,60.04058743861693,
negative,neutral,1,j,l,,,,,,,,,2,16,52,3,,,,,,,,,main,2,2,1,neutral,negative,j,j,1,0.6650733000133187,200.26294829999097,201.2629671000177,201.2629671000177,None,200.26294829999097,None,200.26294829999097,None,200.26294829999097,None,201.92968312994344,None,201.92968312994344,None,201.92968312994344,None,,,,,,,,,,,,,,210,2023-04-25_19h00.23.173,Main,2022.1.1,60.04058743861693,
neutral,neutral,2,k,k,,,,,,,,,2,17,53,10,,,,,,,,,main,2,2,2,neutral,neutral,k,k,1,0.6175813000882044,201.93333149992395,202.94881420000456,202.9322009999305,None,201.93333149992395,None,201.93333149992395,None,201.93333149992395,None,203.5487897300045,None,203.5487897300045,None,203.5487897300045,None,,,,,,,,,,,,,,210,2023-04-25_19h00.23.173,Main,2022.1.1,60.04058743861693,
neutral,negative,1,k,k,,,,,,,,,3,0,54,7,,,,,,,,,main,2,2,1,negative,neutral,k,k,1,0.5481897999998182,203.55218030000106,204.56544709997252,204.54883719992358,None,203.55218030000106,None,203.55218030000106,None,203.55218030000106,None,205.09867012995528,None,205.09867012995528,None,205.09867012995528,None,,,,,,,,,,,,,,210,2023-04-25_19h00.23.173,Main,2022.1.1,60.04058743861693,
negative,positive,2,j,l,,,,,,,,,3,1,55,15,,,,,,,,,main,2,2,2,positive,negative,j,j,1,0.6145286000100896,205.10303659993224,206.11545889999252,206.0988001000369,None,205.10303659993224,None,205.10303659993224,None,205.10303659993224,None,206.71550812997157,None,206.71550812997157,None,206.71550812997157,None,,,,,,,,,,,,,,210,2023-04-25_19h00.23.173,Main,2022.1.1,60.04058743861693,
positive,negative,2,l,j,,,,,,,,,3,2,56,14,,,,,,,,,main,2,2,2,negative,positive,l,l,1,0.6150872999569401,206.7189005999826,207.73203229997307,207.71544980001636,None,206.7189005999826,None,206.7189005999826,None,206.7189005999826,None,208.33207763003884,None,208.33207763003884,None,208.33207763003884,None,,,,,,,,,,,,,,210,2023-04-25_19h00.23.173,Main,2022.1.1,60.04058743861693,
positive,neutral,2,l,j,,,,,,,,,3,3,57,17,,,,,,,,,main,2,2,2,neutral,positive,l,l,1,0.5626190999755636,208.33662319998257,209.34866929997224,209.3321027000202,None,208.33662319998257,None,208.33662319998257,None,208.33662319998257,None,209.89612193003995,None,209.89612193003995,None,209.89612193003995,None,,,,,,,,,,,,,,210,2023-04-25_19h00.23.173,Main,2022.1.1,60.04058743861693,
negative,positive,1,j,l,,,,,,,,,3,4,58,6,,,,,,,,,main,2,2,1,positive,negative,j,j,1,0.5813609000761062,209.8963880999945,210.8961025000317,210.8961025000317,None,209.8963880999945,None,209.8963880999945,None,209.8963880999945,None,211.47943272994598,None,211.47943272994598,None,211.47943272994598,None,,,,,,,,,,,,,,210,2023-04-25_19h00.23.173,Main,2022.1.1,60.04058743861693,
neutral,neutral,2,k,k,,,,,,,,,3,5,59,10,,,,,,,,,main,2,2,2,neutral,neutral,k,k,1,0.6148487000027671,211.48508629994467,212.49613470002078,212.47946679999586,None,211.48508629994467,None,211.48508629994467,None,211.48508629994467,None,213.09611343004508,None,213.09611343004508,None,213.09611343004508,None,,,,,,,,,,,,,,210,2023-04-25_19h00.23.173,Main,2022.1.1,60.04058743861693,
negative,neutral,1,j,l,,,,,,,,,3,6,60,3,,,,,,,,,main,1,1,1,neutral,negative,j,j,1,0.6350327000254765,213.0995860999683,214.09858570003416,214.09858570003416,None,213.0995860999683,None,213.0995860999683,None,213.0995860999683,None,214.7318771299324,None,214.7318771299324,None,214.7318771299324,None,,,,,,,,,,,,,,210,2023-04-25_19h00.23.173,Main,2022.1.1,60.04058743861693,
neutral,positive,1,k,k,,,,,,,,,3,7,61,4,,,,,,,,,main,2,2,1,positive,neutral,k,k,1,0.547641700017266,214.73602770001162,215.74847819993738,215.73186359996907,None,214.73602770001162,None,214.73602770001162,None,214.73602770001162,None,216.28197473002365,None,216.28197473002365,None,216.28197473002365,None,,,,,,,,,,,,,,210,2023-04-25_19h00.23.173,Main,2022.1.1,60.04058743861693,
neutral,negative,2,k,k,,,,,,,,,3,8,62,16,,,,,,,,,main,1,1,2,negative,neutral,k,k,1,0.5816820999607444,216.2850198999513,217.29852880002,217.28185219992884,None,216.2850198999513,None,216.2850198999513,None,216.2850198999513,None,217.86519952997332,None,217.86519952997332,None,217.86519952997332,None,,,,,,,,,,,,,,210,2023-04-25_19h00.23.173,Main,2022.1.1,60.04058743861693,
positive,positive,1,l,j,,,,,,,,,3,9,63,2,,,,,,,,,main,2,2,1,positive,positive,l,l,1,0.5631796000525355,217.86838839994743,218.8817613000283,218.8651670999825,None,217.86838839994743,None,217.86838839994743,None,217.86838839994743,None,219.42967883002711,None,219.42967883002711,None,219.42967883002711,None,,,,,,,,,,,,,,210,2023-04-25_19h00.23.173,Main,2022.1.1,60.04058743861693,
neutral,positive,2,k,k,,,,,,,,,3,10,64,13,,,,,,,,,main,2,2,2,positive,neutral,k,k,1,0.5701489000348374,219.44844860001467,220.448425999959,220.4318263999885,None,219.44844860001467,None,219.44844860001467,None,219.44844860001467,None,221.00150353001663,None,221.00150353001663,None,221.00150353001663,None,,,,,,,,,,,,,,210,2023-04-25_19h00.23.173,Main,2022.1.1,60.04058743861693,
negative,negative,2,j,l,,,,,,,,,3,11,65,9,,,,,,,,,main,1,1,2,negative,negative,j,j,1,0.5091116999974474,221.01275330001954,222.01255139999557,221.99589000002015,None,221.01275330001954,None,221.01275330001954,None,221.01275330001954,None,222.51251632993808,None,222.51251632993808,None,222.51251632993808,None,,,,,,,,,,,,,,210,2023-04-25_19h00.23.173,Main,2022.1.1,60.04058743861693,
neutral,neutral,1,k,k,,,,,,,,,3,12,66,1,,,,,,,,,main,1,1,1,neutral,neutral,k,k,1,0.6153758000582457,222.5125339999795,223.51501289999578,223.49840939999558,None,222.5125339999795,None,222.5125339999795,None,222.5125339999795,None,224.12927183002466,None,224.12927183002466,None,224.12927183002466,None,,,,,,,,,,,,,,210,2023-04-25_19h00.23.173,Main,2022.1.1,60.04058743861693,
positive,positive,2,l,j,,,,,,,,,3,13,67,11,,,,,,,,,main,2,2,2,positive,positive,l,l,1,0.5488471999997273,224.13553630001843,225.14835299993865,225.13176329992712,None,224.13553630001843,None,224.13553630001843,None,224.13553630001843,None,225.67935793002835,None,225.67935793002835,None,225.67935793002835,None,,,,,,,,,,,,,,210,2023-04-25_19h00.23.173,Main,2022.1.1,60.04058743861693,
negative,neutral,2,j,l,,,,,,,,,3,14,68,12,,,,,,,,,main,1,1,2,neutral,negative,j,j,1,0.5983279999345541,225.68555039993953,226.69834260002244,226.68173539999407,None,225.68555039993953,None,225.68555039993953,None,225.68555039993953,None,227.27932693000184,None,227.27932693000184,None,227.27932693000184,None,,,,,,,,,,,,,,210,2023-04-25_19h00.23.173,Main,2022.1.1,60.04058743861693,
negative,negative,1,j,l,,,,,,,,,3,15,69,0,,,,,,,,,main,1,1,1,negative,negative,j,j,1,0.733473000000231,227.28611989994533,228.29825540003367,228.28169329999946,None,227.28611989994533,None,227.28611989994533,None,227.28611989994533,None,229.01501773000928,None,229.01501773000928,None,229.01501773000928,None,,,,,,,,,,,,,,210,2023-04-25_19h00.23.173,Main,2022.1.1,60.04058743861693,
positive,negative,1,l,j,,,,,,,,,3,16,70,5,,,,,,,,,main,2,2,1,negative,positive,l,l,1,0.6130708999698982,229.01958149997517,230.0315847999882,230.01498470001388,None,229.01958149997517,None,229.01958149997517,None,229.01958149997517,None,230.63055483001517,None,230.63055483001517,None,230.63055483001517,None,,,,,,,,,,,,,,210,2023-04-25_19h00.23.173,Main,2022.1.1,60.04058743861693,
positive,neutral,1,l,j,,,,,,,,,3,17,71,8,,,,,,,,,main,1,1,1,neutral,positive,l,l,1,0.580288799945265,230.6361915000016,231.64571459998842,231.6290513999993,None,230.6361915000016,None,230.6361915000016,None,230.6361915000016,None,232.21252452995395,None,232.21252452995395,None,232.21252452995395,None,,,,,,,,,,,,,,210,2023-04-25_19h00.23.173,Main,2022.1.1,60.04058743861693,
neutral,neutral,2,k,k,,,,,,,,,4,0,72,10,,,,,,,,,main,2,2,2,neutral,neutral,k,k,1,0.59753309993539,232.21358849992976,233.2124258999247,233.2124258999247,None,232.21358849992976,None,232.21358849992976,None,232.21358849992976,None,233.81238173000747,None,233.81238173000747,None,233.81238173000747,None,,,,,,,,,,,,,,210,2023-04-25_19h00.23.173,Main,2022.1.1,60.04058743861693,
negative,neutral,1,j,l,,,,,,,,,4,1,73,3,,,,,,,,,main,2,2,1,neutral,negative,j,j,1,0.5151507999980822,233.81617709994316,234.83149709994905,234.81488249998074,None,233.81617709994316,None,233.81617709994316,None,233.81617709994316,None,235.3290472300141,None,235.3290472300141,None,235.3290472300141,None,,,,,,,,,,,,,,210,2023-04-25_19h00.23.173,Main,2022.1.1,60.04058743861693,
negative,negative,1,j,l,,,,,,,,,4,2,74,0,,,,,,,,,main,1,1,1,negative,negative,j,j,1,0.5829821999650449,235.33550289995037,236.3481103000231,236.331522100023,None,235.33550289995037,None,235.33550289995037,None,235.33550289995037,None,236.91244963003555,None,236.91244963003555,None,236.91244963003555,None,,,,,,,,,,,,,,210,2023-04-25_19h00.23.173,Main,2022.1.1,60.04058743861693,
neutral,negative,1,k,k,,,,,,,,,4,3,75,7,,,,,,,,,main,1,1,1,negative,neutral,k,k,1,0.6331802000058815,236.9194416999817,237.93144770001527,237.91483439994045,None,236.9194416999817,None,236.9194416999817,None,236.9194416999817,None,238.548160729988,None,238.548160729988,None,238.548160729988,None,,,,,,,,,,,,,,210,2023-04-25_19h00.23.173,Main,2022.1.1,60.04058743861693,
neutral,positive,1,k,k,,,,,,,,,4,4,76,4,,,,,,,,,main,2,2,1,positive,neutral,k,k,1,0.5292902999790385,238.5516124999849,239.56474269996397,239.5481119999895,None,238.5516124999849,None,238.5516124999849,None,238.5516124999849,None,240.07907062995946,None,240.07907062995946,None,240.07907062995946,None,,,,,,,,,,,,,,210,2023-04-25_19h00.23.173,Main,2022.1.1,60.04058743861693,
neutral,negative,2,k,k,,,,,,,,,4,5,77,16,,,,,,,,,main,2,2,2,negative,neutral,k,k,1,0.548147999914363,240.08602019993123,241.09550850000232,241.07888859999366,None,240.08602019993123,None,240.08602019993123,None,240.08602019993123,None,241.62884343002224,None,241.62884343002224,None,241.62884343002224,None,,,,,,,,,,,,,,210,2023-04-25_19h00.23.173,Main,2022.1.1,60.04058743861693,
positive,positive,1,l,j,,,,,,,,,4,6,78,2,,,,,,,,,main,2,2,1,positive,positive,l,l,1,0.5507259001024067,241.62927109992597,242.62883129995316,242.62883129995316,None,241.62927109992597,None,241.62927109992597,None,241.62927109992597,None,243.17887152993353,None,243.17887152993353,None,243.17887152993353,None,,,,,,,,,,,,,,210,2023-04-25_19h00.23.173,Main,2022.1.1,60.04058743861693,
neutral,positive,2,k,k,,,,,,,,,4,7,79,13,,,,,,,,,main,1,1,2,positive,neutral,k,k,1,0.514976599952206,243.1847121999599,244.19799359992612,244.1813731000293,None,243.1847121999599,None,243.1847121999599,None,243.1847121999599,None,244.69792382995365,None,244.69792382995365,None,244.69792382995365,None,,,,,,,,,,,,,,210,2023-04-25_19h00.23.173,Main,2022.1.1,60.04058743861693,
positive,negative,1,l,j,,,,,,,,,4,8,80,5,,,,,,,,,main,2,2,1,negative,positive,l,l,1,0.5481805999297649,244.70137090003118,245.7146015999606,245.69802280003205,None,244.70137090003118,None,244.70137090003118,None,244.70137090003118,None,246.2478814300266,None,246.2478814300266,None,246.2478814300266,None,,,,,,,,,,,,,,210,2023-04-25_19h00.23.173,Main,2022.1.1,60.04058743861693,
positive,negative,2,l,j,,,,,,,,,4,9,81,14,,,,,,,,,main,1,1,2,negative,positive,l,l,1,0.6119771000230685,246.2522534999298,247.26459439995233,247.24798510002438,None,246.2522534999298,None,246.2522534999298,None,246.2522534999298,None,247.86211292998632,None,247.86211292998632,None,247.86211292998632,None,,,,,,,,,,,,,,210,2023-04-25_19h00.23.173,Main,2022.1.1,60.04058743861693,
positive,neutral,1,l,j,,,,,,,,,4,10,82,8,,,,,,,,,main,2,2,1,neutral,positive,l,l,1,0.5316600000951439,247.88123679999262,248.88122440001462,248.8646397999255,None,247.88123679999262,None,247.88123679999262,None,247.88123679999262,None,249.39548652997473,None,249.39548652997473,None,249.39548652997473,None,,,,,,,,,,,,,,210,2023-04-25_19h00.23.173,Main,2022.1.1,60.04058743861693,
negative,negative,2,j,l,,,,,,,,,4,11,83,9,,,,,,,,,main,1,1,2,negative,negative,j,j,1,0.6472724999766797,249.40436159993988,250.41534349997528,250.3979493000079,None,249.40436159993988,None,249.40436159993988,None,249.40436159993988,None,251.045286329987,None,251.045286329987,None,251.045286329987,None,,,,,,,,,,,,,,210,2023-04-25_19h00.23.173,Main,2022.1.1,60.04058743861693,
positive,positive,2,l,j,,,,,,,,,4,12,84,11,,,,,,,,,main,2,2,2,positive,positive,l,l,1,0.6163770999992266,251.04530460003298,252.04528580000624,252.04528580000624,None,251.04530460003298,None,251.04530460003298,None,251.04530460003298,None,252.66200203000335,None,252.66200203000335,None,252.66200203000335,None,,,,,,,,,,,,,,210,2023-04-25_19h00.23.173,Main,2022.1.1,60.04058743861693,
negative,positive,2,j,l,,,,,,,,,4,13,85,15,,,,,,,,,main,1,1,2,positive,negative,j,j,1,0.5480760000646114,252.666315499926,253.68112119997386,253.66454509994946,None,252.666315499926,None,252.666315499926,None,252.666315499926,None,254.21281952998834,None,254.21281952998834,None,254.21281952998834,None,,,,,,,,,,,,,,210,2023-04-25_19h00.23.173,Main,2022.1.1,60.04058743861693,
neutral,neutral,1,k,k,,,,,,,,,4,14,86,1,,,,,,,,,main,2,2,1,neutral,neutral,k,k,1,0.5810621000127867,254.21894539997447,255.23109369992744,255.2145233999472,None,254.21894539997447,None,254.21894539997447,None,254.21894539997447,None,255.79530302999774,None,255.79530302999774,None,255.79530302999774,None,,,,,,,,,,,,,,210,2023-04-25_19h00.23.173,Main,2022.1.1,60.04058743861693,
negative,positive,1,j,l,,,,,,,,,4,15,87,6,,,,,,,,,main,1,1,1,positive,negative,j,j,1,0.6674147999146953,255.80165659997147,256.81439870002214,256.7977953000227,None,255.80165659997147,None,255.80165659997147,None,255.80165659997147,None,257.46430723002413,None,257.46430723002413,None,257.46430723002413,None,,,,,,,,,,,,,,210,2023-04-25_19h00.23.173,Main,2022.1.1,60.04058743861693,
positive,neutral,2,l,j,,,,,,,,,4,16,88,17,,,,,,,,,main,2,2,2,neutral,positive,l,l,1,0.5815472999820486,257.46778740000445,258.4810251999879,258.4643820000347,None,257.46778740000445,None,257.46778740000445,None,257.46778740000445,None,259.04767393000657,None,259.04767393000657,None,259.04767393000657,None,,,,,,,,,,,,,,210,2023-04-25_19h00.23.173,Main,2022.1.1,60.04058743861693,
negative,neutral,2,j,l,,,,,,,,,4,17,89,12,,,,,,,,,main,1,1,2,neutral,negative,j,j,1,0.6552928999299183,259.0519917999627,260.06436610000674,260.047733000014,None,259.0519917999627,None,259.0519917999627,None,259.0519917999627,None,260.7053698299569,None,260.7053698299569,None,260.7053698299569,None,,,,,,,,,,,,,,210,2023-04-25_19h00.23.173,Main,2022.1.1,60.04058743861693,
neutral,neutral,2,k,k,,,,,,,,,5,0,90,10,,,,,,,,,main,2,2,2,neutral,neutral,k,k,1,0.6054304999997839,260.72113610000815,261.72840190003626,261.69504609995056,None,260.72113610000815,None,260.72113610000815,None,260.72113610000815,None,262.3117332299589,None,262.3117332299589,None,262.3117332299589,None,,,,,,,,,,,,,,210,2023-04-25_19h00.23.173,Main,2022.1.1,60.04058743861693,
positive,neutral,2,l,j,,,,,,,,,5,1,91,17,,,,,,,,,main,2,2,2,neutral,positive,l,l,1,0.5653416001005098,262.3136603999883,263.3286979999393,263.31181169999763,None,262.3136603999883,None,262.3136603999883,None,262.3136603999883,None,263.87878413003637,None,263.87878413003637,None,263.87878413003637,None,,,,,,,,,,,,,,210,2023-04-25_19h00.23.173,Main,2022.1.1,60.04058743861693,
positive,positive,1,l,j,,,,,,,,,5,2,92,2,,,,,,,,,main,2,2,1,positive,positive,l,l,1,0.6500603000167757,263.89514889998827,264.8975984000135,264.8810316999443,None,263.89514889998827,None,263.89514889998827,None,263.89514889998827,None,265.5308600300341,None,265.5308600300341,None,265.5308600300341,None,,,,,,,,,,,,,,210,2023-04-25_19h00.23.173,Main,2022.1.1,60.04058743861693,
negative,negative,1,j,l,,,,,,,,,5,3,93,0,,,,,,,,,main,1,1,1,negative,negative,j,j,1,0.7126999000320211,265.53428549994715,266.5475485000061,266.53095469996333,None,265.53428549994715,None,265.53428549994715,None,265.53428549994715,None,267.2450972300139,None,267.2450972300139,None,267.2450972300139,None,,,,,,,,,,,,,,210,2023-04-25_19h00.23.173,Main,2022.1.1,60.04058743861693,
negative,positive,1,j,l,,,,,,,,,5,4,94,6,,,,,,,,,main,2,2,1,positive,negative,j,j,1,0.5983779999660328,267.2518393000355,268.26418129995,268.24756970000453,None,267.2518393000355,None,267.2518393000355,None,267.2518393000355,None,268.84501392993843,None,268.84501392993843,None,268.84501392993843,None,,,,,,,,,,,,,,210,2023-04-25_19h00.23.173,Main,2022.1.1,60.04058743861693,
negative,neutral,2,j,l,,,,,,,,,5,5,95,12,,,,,,,,,main,1,1,2,neutral,negative,j,j,1,0.6174035000149161,268.8484867999796,269.8475267000031,269.8475267000031,None,268.8484867999796,None,268.8484867999796,None,268.8484867999796,None,270.46415613003774,None,270.46415613003774,None,270.46415613003774,None,,,,,,,,,,,,,,210,2023-04-25_19h00.23.173,Main,2022.1.1,60.04058743861693,
positive,neutral,1,l,j,,,,,,,,,5,6,96,8,,,,,,,,,main,1,1,1,neutral,positive,l,j,0,0.46228960005100816,270.4671991999494,271.4807913999539,271.4640830999706,None,270.4671991999494,None,270.4671991999494,None,270.4671991999494,None,271.9281633000355,None,271.9281633000355,None,271.9281633000355,None,,,,,,,,,,,,,,210,2023-04-25_19h00.23.173,Main,2022.1.1,60.04058743861693,
positive,negative,1,l,j,,,,,,,,,5,7,97,5,,,,,,,,,main,2,2,1,negative,positive,l,l,1,0.759316400042735,272.9282131999498,273.9285845999839,273.91158820001874,None,272.9282131999498,None,272.9282131999498,None,272.9282131999498,None,274.68378362996737,None,274.68378362996737,None,274.68378362996737,None,,,,,,,,,,,,,,210,2023-04-25_19h00.23.173,Main,2022.1.1,60.04058743861693,
neutral,neutral,1,k,k,,,,,,,,,5,8,98,1,,,,,,,,,main,1,1,1,neutral,neutral,k,k,1,0.6595027999719605,274.68729809997603,275.69735189992934,275.68074630002957,None,274.68729809997603,None,274.68729809997603,None,274.68729809997603,None,276.34486872999696,None,276.34486872999696,None,276.34486872999696,None,,,,,,,,,,,,,,210,2023-04-25_19h00.23.173,Main,2022.1.1,60.04058743861693,
negative,positive,2,j,l,,,,,,,,,5,9,99,15,,,,,,,,,main,1,1,2,positive,negative,j,j,1,0.8156901999609545,276.3490907000378,277.3639755999902,277.3473773000296,None,276.3490907000378,None,276.3490907000378,None,276.3490907000378,None,278.16255102999276,None,278.16255102999276,None,278.16255102999276,None,,,,,,,,,,,,,,210,2023-04-25_19h00.23.173,Main,2022.1.1,60.04058743861693,
neutral,negative,1,k,k,,,,,,,,,5,10,100,7,,,,,,,,,main,1,1,1,negative,neutral,k,k,1,0.6319147000322118,278.16856519994326,279.18060560000595,279.1640430999687,None,278.16856519994326,None,278.16856519994326,None,278.16856519994326,None,279.7958801299683,None,279.7958801299683,None,279.7958801299683,None,,,,,,,,,,,,,,210,2023-04-25_19h00.23.173,Main,2022.1.1,60.04058743861693,
negative,neutral,1,j,l,,,,,,,,,5,11,101,3,,,,,,,,,main,2,2,1,neutral,negative,j,j,1,0.6327849999070168,279.8019212000072,280.8139288999373,280.7972552999854,None,279.8019212000072,None,279.8019212000072,None,279.8019212000072,None,281.43061842996394,None,281.43061842996394,None,281.43061842996394,None,,,,,,,,,,,,,,210,2023-04-25_19h00.23.173,Main,2022.1.1,60.04058743861693,
positive,negative,2,l,j,,,,,,,,,5,12,102,14,,,,,,,,,main,2,2,2,negative,positive,l,l,1,0.6126465999986976,281.43342699995264,282.4446332999505,282.42799989995547,None,281.43342699995264,None,281.43342699995264,None,281.43342699995264,None,283.0446134299855,None,283.0446134299855,None,283.0446134299855,None,,,,,,,,,,,,,,210,2023-04-25_19h00.23.173,Main,2022.1.1,60.04058743861693,
neutral,positive,2,k,k,,,,,,,,,5,13,103,13,,,,,,,,,main,2,2,2,positive,neutral,k,k,1,0.6149339999537915,283.0447326999856,284.0446671999525,284.0446671999525,None,283.0447326999856,None,283.0447326999856,None,283.0447326999856,None,284.6613212299417,None,284.6613212299417,None,284.6613212299417,None,,,,,,,,,,,,,,210,2023-04-25_19h00.23.173,Main,2022.1.1,60.04058743861693,
neutral,positive,1,k,k,,,,,,,,,5,14,104,4,,,,,,,,,main,2,2,1,positive,neutral,k,k,1,0.5986918000271544,284.66128989995923,285.66134550003335,285.66134550003335,None,284.66128989995923,None,284.66128989995923,None,284.66128989995923,None,286.2613026300096,None,286.2613026300096,None,286.2613026300096,None,,,,,,,,,,,,,,210,2023-04-25_19h00.23.173,Main,2022.1.1,60.04058743861693,
negative,negative,2,j,l,,,,,,,,,5,15,105,9,,,,,,,,,main,2,2,2,negative,negative,j,j,1,0.5854723999509588,286.2650202999357,287.28039919992443,287.2637732999865,None,286.2650202999357,None,286.2650202999357,None,286.2650202999357,None,287.8483684299863,None,287.8483684299863,None,287.8483684299863,None,,,,,,,,,,,,,,210,2023-04-25_19h00.23.173,Main,2022.1.1,60.04058743861693,
neutral,negative,2,k,k,,,,,,,,,5,16,106,16,,,,,,,,,main,2,2,2,negative,neutral,k,k,1,0.6136987999780104,287.8514448000351,288.8637709999457,288.8471645999234,None,287.8514448000351,None,287.8514448000351,None,287.8514448000351,None,289.46381012996426,None,289.46381012996426,None,289.46381012996426,None,,,,,,,,,,,,,,210,2023-04-25_19h00.23.173,Main,2022.1.1,60.04058743861693,
positive,positive,2,l,j,,,,,,,,,5,17,107,11,,,,,,,,,main,2,2,2,positive,positive,l,l,1,0.5959823000011966,289.467183599947,290.48038580000866,290.46382369997445,None,289.467183599947,None,289.467183599947,None,289.467183599947,None,291.0612807300058,None,291.0612807300058,None,291.0612807300058,None,,,,,,,,,,,,,,210,2023-04-25_19h00.23.173,Main,2022.1.1,60.04058743861693,
negative,neutral,2,j,l,,,,,,,,,6,0,108,12,,,,,,,,,main,1,1,2,neutral,negative,j,j,1,0.6474555999739096,291.06776779994834,292.0803541999776,292.06375109998044,None,291.06776779994834,None,291.06776779994834,None,291.06776779994834,None,292.7105707299779,None,292.7105707299779,None,292.7105707299779,None,,,,,,,,,,,,,,210,2023-04-25_19h00.23.173,Main,2022.1.1,60.04058743861693,
negative,positive,1,j,l,,,,,,,,,6,1,109,6,,,,,,,,,main,1,1,1,positive,negative,j,j,1,0.6660921999718994,292.72607879992574,293.72803380002733,293.71115600003395,None,292.72607879992574,None,292.72607879992574,None,292.72607879992574,None,294.37776322994614,None,294.37776322994614,None,294.37776322994614,None,,,,,,,,,,,,,,210,2023-04-25_19h00.23.173,Main,2022.1.1,60.04058743861693,
neutral,neutral,1,k,k,,,,,,,,,6,2,110,1,,,,,,,,,main,1,1,1,neutral,neutral,k,k,1,0.5839780999813229,294.3785007999977,295.3807167999912,295.3807167999912,None,294.3785007999977,None,294.3785007999977,None,294.3785007999977,None,295.96370793000096,None,295.96370793000096,None,295.96370793000096,None,,,,,,,,,,,,,,210,2023-04-25_19h00.23.173,Main,2022.1.1,60.04058743861693,
positive,positive,1,l,j,,,,,,,,,6,3,111,2,,,,,,,,,main,1,1,1,positive,positive,l,l,1,0.682182400021702,295.9668148999335,296.98026089998893,296.9636581999948,None,295.9668148999335,None,295.9668148999335,None,295.9668148999335,None,297.6470565299387,None,297.6470565299387,None,297.6470565299387,None,,,,,,,,,,,,,,210,2023-04-25_19h00.23.173,Main,2022.1.1,60.04058743861693,
neutral,positive,1,k,k,,,,,,,,,6,4,112,4,,,,,,,,,main,2,2,1,positive,neutral,k,k,1,0.5958408999722451,297.650716300006,298.6634648999898,298.6469420000212,None,297.650716300006,None,297.650716300006,None,297.650716300006,None,299.24475592997624,None,299.24475592997624,None,299.24475592997624,None,,,,,,,,,,,,,,210,2023-04-25_19h00.23.173,Main,2022.1.1,60.04058743861693,
positive,negative,1,l,j,,,,,,,,,6,5,113,5,,,,,,,,,main,1,1,1,negative,positive,l,l,1,0.566973999957554,299.250935100019,300.26348930003587,300.2469363999553,None,299.250935100019,None,299.250935100019,None,299.250935100019,None,300.81349092995515,None,300.81349092995515,None,300.81349092995515,None,,,,,,,,,,,,,,210,2023-04-25_19h00.23.173,Main,2022.1.1,60.04058743861693,
negative,negative,2,j,l,,,,,,,,,6,6,114,9,,,,,,,,,main,2,2,2,negative,negative,j,j,1,0.7481206000084057,300.8220344999572,301.8302032999927,301.8135454999283,None,300.8220344999572,None,300.8220344999572,None,300.8220344999572,None,302.5634325299761,None,302.5634325299761,None,302.5634325299761,None,,,,,,,,,,,,,,210,2023-04-25_19h00.23.173,Main,2022.1.1,60.04058743861693,
negative,positive,2,j,l,,,,,,,,,6,7,115,15,,,,,,,,,main,2,2,2,positive,negative,j,j,1,0.6294723999453709,302.5664957999252,303.57755129993893,303.56089079997037,None,302.5664957999252,None,302.5664957999252,None,302.5664957999252,None,304.1944144300069,None,304.1944144300069,None,304.1944144300069,None,,,,,,,,,,,,,,210,2023-04-25_19h00.23.173,Main,2022.1.1,60.04058743861693,
positive,neutral,2,l,j,,,,,,,,,6,8,116,17,,,,,,,,,main,2,2,2,neutral,positive,l,l,1,0.631413200055249,304.1954540000297,305.19430199998897,305.19430199998897,None,304.1954540000297,None,304.1954540000297,None,304.1954540000297,None,305.8275877299602,None,305.8275877299602,None,305.8275877299602,None,,,,,,,,,,,,,,210,2023-04-25_19h00.23.173,Main,2022.1.1,60.04058743861693,
neutral,neutral,2,k,k,,,,,,,,,6,9,117,10,,,,,,,,,main,2,2,2,neutral,neutral,k,k,1,0.5817138999700546,305.8290906000184,306.84425830002874,306.82759350002743,None,305.8290906000184,None,305.8290906000184,None,305.8290906000184,None,307.410932830011,None,307.410932830011,None,307.410932830011,None,,,,,,,,,,,,,,210,2023-04-25_19h00.23.173,Main,2022.1.1,60.04058743861693,
positive,negative,2,l,j,,,,,,,,,6,10,118,14,,,,,,,,,main,2,2,2,negative,positive,l,l,1,0.732358800014481,307.4301443999866,308.43005179998,308.41343499999493,None,307.4301443999866,None,307.4301443999866,None,307.4301443999866,None,309.1443644299288,None,309.1443644299288,None,309.1443644299288,None,,,,,,,,,,,,,,210,2023-04-25_19h00.23.173,Main,2022.1.1,60.04058743861693,
neutral,negative,1,k,k,,,,,,,,,6,11,119,7,,,,,,,,,main,2,2,1,negative,neutral,k,k,1,0.599707700079307,309.15139379992615,310.1633487000363,310.14670099993236,None,309.15139379992615,None,309.15139379992615,None,309.15139379992615,None,310.74675223004306,None,310.74675223004306,None,310.74675223004306,None,,,,,,,,,,,,,,210,2023-04-25_19h00.23.173,Main,2022.1.1,60.04058743861693,
negative,neutral,1,j,l,,,,,,,,,6,12,120,3,,,,,,,,,main,1,1,1,neutral,negative,j,j,1,0.5648258000146598,310.7500900999876,311.7632717000088,311.7467021000339,None,310.7500900999876,None,310.7500900999876,None,310.7500900999876,None,312.31343633000506,None,312.31343633000506,None,312.31343633000506,None,,,,,,,,,,,,,,210,2023-04-25_19h00.23.173,Main,2022.1.1,60.04058743861693,
positive,positive,2,l,j,,,,,,,,,6,13,121,11,,,,,,,,,main,2,2,2,positive,positive,l,l,1,0.5986452999059111,312.3178183999844,313.3299667999381,313.3135490999557,None,312.3178183999844,None,312.3178183999844,None,312.3178183999844,None,313.91333862993633,None,313.91333862993633,None,313.91333862993633,None,,,,,,,,,,,,,,210,2023-04-25_19h00.23.173,Main,2022.1.1,60.04058743861693,
neutral,negative,2,k,k,,,,,,,,,6,14,122,16,,,,,,,,,main,1,1,2,negative,neutral,k,k,1,0.5453931000083685,313.9166298999917,314.9273456999799,314.9106848000083,None,313.9166298999917,None,313.9166298999917,None,313.9166298999917,None,315.4606118299416,None,315.4606118299416,None,315.4606118299416,None,,,,,,,,,,,,,,210,2023-04-25_19h00.23.173,Main,2022.1.1,60.04058743861693,
neutral,positive,2,k,k,,,,,,,,,6,15,123,13,,,,,,,,,main,2,2,2,positive,neutral,k,k,1,0.6321287000318989,315.46064449998084,316.4607264000224,316.4607264000224,None,315.46064449998084,None,315.46064449998084,None,315.46064449998084,None,317.0941038299934,None,317.0941038299934,None,317.0941038299934,None,,,,,,,,,,,,,,210,2023-04-25_19h00.23.173,Main,2022.1.1,60.04058743861693,
positive,neutral,1,l,j,,,,,,,,,6,16,124,8,,,,,,,,,main,2,2,1,neutral,positive,l,l,1,0.6008706000866368,317.10043069999665,318.1111736999592,318.09658190002665,None,317.10043069999665,None,317.10043069999665,None,317.10043069999665,None,318.69654942996567,None,318.69654942996567,None,318.69654942996567,None,,,,,,,,,,,,,,210,2023-04-25_19h00.23.173,Main,2022.1.1,60.04058743861693,
negative,negative,1,j,l,,,,,,,,,6,17,125,0,,,,,,,,,main,1,1,1,negative,negative,j,j,1,0.6649784001056105,318.6994171999395,319.71315149997827,319.69653099996503,None,318.6994171999395,None,318.6994171999395,None,318.6994171999395,None,320.36301893001655,None,320.36301893001655,None,320.36301893001655,None,,,,,,,,,,,,,,210,2023-04-25_19h00.23.173,Main,2022.1.1,60.04058743861693,
neutral,neutral,1,k,k,,,,,,,,,7,0,126,1,,,,,,,,,main,2,2,1,neutral,neutral,k,k,1,0.5983327999711037,320.3660418000072,321.3798117999686,321.36339109996334,None,320.3660418000072,None,320.3660418000072,None,320.3660418000072,None,321.9618338299333,None,321.9618338299333,None,321.9618338299333,None,,,,,,,,,,,,,,210,2023-04-25_19h00.23.173,Main,2022.1.1,60.04058743861693,
positive,neutral,2,l,j,,,,,,,,,7,1,127,17,,,,,,,,,main,2,2,2,neutral,positive,l,l,1,0.5817478001117706,321.96762749995105,322.97972169995774,322.963115499937,None,321.96762749995105,None,321.96762749995105,None,321.96762749995105,None,323.5462875300436,None,323.5462875300436,None,323.5462875300436,None,,,,,,,,,,,,,,210,2023-04-25_19h00.23.173,Main,2022.1.1,60.04058743861693,
negative,neutral,1,j,l,,,,,,,,,7,2,128,3,,,,,,,,,main,1,1,1,neutral,negative,j,j,1,0.6794454000191763,323.5491817999864,324.56048340001144,324.5438176000025,None,323.5491817999864,None,323.5491817999864,None,323.5491817999864,None,325.2271298299893,None,325.2271298299893,None,325.2271298299893,None,,,,,,,,,,,,,,210,2023-04-25_19h00.23.173,Main,2022.1.1,60.04058743861693,
positive,neutral,1,l,j,,,,,,,,,7,3,129,8,,,,,,,,,main,1,1,1,neutral,positive,l,l,1,0.6521685000043362,325.2271633000346,326.22714289999567,326.22714289999567,None,325.2271633000346,None,325.2271633000346,None,325.2271633000346,None,326.8772534300224,None,326.8772534300224,None,326.8772534300224,None,,,,,,,,,,,,,,210,2023-04-25_19h00.23.173,Main,2022.1.1,60.04058743861693,
neutral,negative,2,k,k,,,,,,,,,7,4,130,16,,,,,,,,,main,2,2,2,negative,neutral,k,k,1,0.5769243000540882,326.8838073000079,327.8938676000107,327.8771968999645,None,326.8838073000079,None,326.8838073000079,None,326.8838073000079,None,328.4611210299772,None,328.4611210299772,None,328.4611210299772,None,,,,,,,,,,,,,,210,2023-04-25_19h00.23.173,Main,2022.1.1,60.04058743861693,
neutral,negative,1,k,k,,,,,,,,,7,5,131,7,,,,,,,,,main,1,1,1,negative,neutral,k,k,1,0.5661451000487432,328.47972479998134,329.4795840999577,329.4629523999756,None,328.47972479998134,None,328.47972479998134,None,328.47972479998134,None,330.028889230045,None,330.028889230045,None,330.028889230045,None,,,,,,,,,,,,,,210,2023-04-25_19h00.23.173,Main,2022.1.1,60.04058743861693,
negative,positive,2,j,l,,,,,,,,,7,6,132,15,,,,,,,,,main,1,1,2,positive,negative,j,j,1,0.6639325000578538,330.03419929998927,331.0462983000325,331.02968459995463,None,330.03419929998927,None,330.03419929998927,None,330.03419929998927,None,331.6945536300191,None,331.6945536300191,None,331.6945536300191,None,,,,,,,,,,,,,,210,2023-04-25_19h00.23.173,Main,2022.1.1,60.04058743861693,
neutral,neutral,2,k,k,,,,,,,,,7,7,133,10,,,,,,,,,main,2,2,2,neutral,neutral,k,k,1,0.5988828000845388,331.7009348999709,332.71286460000556,332.696262500016,None,331.7009348999709,None,331.7009348999709,None,331.7009348999709,None,333.29504192998866,None,333.29504192998866,None,333.29504192998866,None,,,,,,,,,,,,,,210,2023-04-25_19h00.23.173,Main,2022.1.1,60.04058743861693,
positive,negative,2,l,j,,,,,,,,,7,8,134,14,,,,,,,,,main,2,2,2,negative,positive,l,l,1,0.5497085000388324,333.30082999996375,334.31291069998406,334.29628240002785,None,333.30082999996375,None,333.30082999996375,None,333.30082999996375,None,334.84632253000746,None,334.84632253000746,None,334.84632253000746,None,,,,,,,,,,,,,,210,2023-04-25_19h00.23.173,Main,2022.1.1,60.04058743861693,
positive,negative,1,l,j,,,,,,,,,7,9,135,5,,,,,,,,,main,1,1,1,negative,positive,l,l,1,0.6621113000437617,334.8500123999547,335.8604085999541,335.8436928000301,None,334.8500123999547,None,334.8500123999547,None,334.8500123999547,None,336.51026343001286,None,336.51026343001286,None,336.51026343001286,None,,,,,,,,,,,,,,210,2023-04-25_19h00.23.173,Main,2022.1.1,60.04058743861693,
positive,positive,2,l,j,,,,,,,,,7,10,136,11,,,,,,,,,main,1,1,2,positive,positive,l,l,1,0.6169597000116482,336.51131269999314,337.52702879998833,337.5104366999585,None,336.51131269999314,None,336.51131269999314,None,336.51131269999314,None,338.12954773003,None,338.12954773003,None,338.12954773003,None,,,,,,,,,,,,,,210,2023-04-25_19h00.23.173,Main,2022.1.1,60.04058743861693,
neutral,positive,1,k,k,,,,,,,,,7,11,137,4,,,,,,,,,main,2,2,1,positive,neutral,k,k,1,0.5813836999004707,338.1330896000145,339.14612509997096,339.12951520003844,None,338.1330896000145,None,338.1330896000145,None,338.1330896000145,None,339.7127432299894,None,339.7127432299894,None,339.7127432299894,None,,,,,,,,,,,,,,210,2023-04-25_19h00.23.173,Main,2022.1.1,60.04058743861693,
negative,negative,1,j,l,,,,,,,,,7,12,138,0,,,,,,,,,main,1,1,1,negative,negative,j,j,1,0.6120795999886468,339.71689429995604,340.7293691999512,340.7127768000355,None,339.71689429995604,None,339.71689429995604,None,339.71689429995604,None,341.3269854300306,None,341.3269854300306,None,341.3269854300306,None,,,,,,,,,,,,,,210,2023-04-25_19h00.23.173,Main,2022.1.1,60.04058743861693,
negative,positive,1,j,l,,,,,,,,,7,13,139,6,,,,,,,,,main,1,1,1,positive,negative,j,j,1,0.6012351999524981,341.3336475000251,342.3460044999374,342.32941330003086,None,341.3336475000251,None,341.3336475000251,None,341.3336475000251,None,342.92935272998875,None,342.92935272998875,None,342.92935272998875,None,,,,,,,,,,,,,,210,2023-04-25_19h00.23.173,Main,2022.1.1,60.04058743861693,
positive,positive,1,l,j,,,,,,,,,7,14,140,2,,,,,,,,,main,2,2,1,positive,positive,l,l,1,0.645257500000298,342.9335125000216,343.9458804000169,343.92934999999125,None,342.9335125000216,None,342.9335125000216,None,342.9335125000216,None,344.57678353000665,None,344.57678353000665,None,344.57678353000665,None,,,,,,,,,,,,,,210,2023-04-25_19h00.23.173,Main,2022.1.1,60.04058743861693,
negative,negative,2,j,l,,,,,,,,,7,15,141,9,,,,,,,,,main,1,1,2,negative,negative,j,j,1,0.614981499966234,344.57968369999435,345.5933529000031,345.57668769999873,None,344.57968369999435,None,344.57968369999435,None,344.57968369999435,None,346.1933219299535,None,346.1933219299535,None,346.1933219299535,None,,,,,,,,,,,,,,210,2023-04-25_19h00.23.173,Main,2022.1.1,60.04058743861693,
neutral,positive,2,k,k,,,,,,,,,7,16,142,13,,,,,,,,,main,1,1,2,positive,neutral,k,k,1,0.5653355999384075,346.1933495999547,347.193408699939,347.193408699939,None,346.1933495999547,None,346.1933495999547,None,346.1933495999547,None,347.7601350299665,None,347.7601350299665,None,347.7601350299665,None,,,,,,,,,,,,,,210,2023-04-25_19h00.23.173,Main,2022.1.1,60.04058743861693,
negative,neutral,2,j,l,,,,,,,,,7,17,143,12,,,,,,,,,main,2,2,2,neutral,negative,j,j,1,0.6318285000743344,347.76047290000133,348.76004470000044,348.76004470000044,None,347.76047290000133,None,347.76047290000133,None,347.76047290000133,None,349.3933829300222,None,349.3933829300222,None,349.3933829300222,None,,,,,,,,,,,,,,210,2023-04-25_19h00.23.173,Main,2022.1.1,60.04058743861693,
positive,negative,2,l,j,,,,,,,,,8,0,144,14,,,,,,,,,main,2,2,2,negative,positive,l,l,1,0.6177149000577629,349.39669249998406,350.39585450000595,350.39585450000595,None,349.39669249998406,None,349.39669249998406,None,349.39669249998406,None,351.0126327300095,None,351.0126327300095,None,351.0126327300095,None,,,,,,,,,,,,,,210,2023-04-25_19h00.23.173,Main,2022.1.1,60.04058743861693,
neutral,neutral,1,k,k,,,,,,,,,8,1,145,1,,,,,,,,,main,2,2,1,neutral,neutral,k,k,1,0.5325168000999838,351.01547919993754,352.0291698999936,352.01254339993466,None,351.01547919993754,None,351.01547919993754,None,351.01547919993754,None,352.5457541299402,None,352.5457541299402,None,352.5457541299402,None,,,,,,,,,,,,,,210,2023-04-25_19h00.23.173,Main,2022.1.1,60.04058743861693,
positive,neutral,2,l,j,,,,,,,,,8,2,146,17,,,,,,,,,main,2,2,2,neutral,positive,l,l,1,0.7463818999240175,352.5499055000255,353.5624028999591,353.5457451000111,None,352.5499055000255,None,352.5499055000255,None,352.5499055000255,None,354.2945786299533,None,354.2945786299533,None,354.2945786299533,None,,,,,,,,,,,,,,210,2023-04-25_19h00.23.173,Main,2022.1.1,60.04058743861693,
neutral,negative,1,k,k,,,,,,,,,8,3,147,7,,,,,,,,,main,1,1,1,negative,neutral,k,k,1,0.5996182999806479,354.30043289996684,355.3123626000015,355.2957625000272,None,354.30043289996684,None,354.30043289996684,None,354.30043289996684,None,355.895672129991,None,355.895672129991,None,355.895672129991,None,,,,,,,,,,,,,,210,2023-04-25_19h00.23.173,Main,2022.1.1,60.04058743861693,
neutral,neutral,2,k,k,,,,,,,,,8,4,148,10,,,,,,,,,main,1,1,2,neutral,neutral,k,k,1,0.6289912000065669,355.898864399991,356.90978250000626,356.8931171000004,None,355.898864399991,None,355.898864399991,None,355.898864399991,None,357.5264766299515,None,357.5264766299515,None,357.5264766299515,None,,,,,,,,,,,,,,210,2023-04-25_19h00.23.173,Main,2022.1.1,60.04058743861693,
neutral,positive,2,k,k,,,,,,,,,8,5,149,13,,,,,,,,,main,2,2,2,positive,neutral,k,k,1,0.5322967000538483,357.52646289998665,358.52648929995485,358.52648929995485,None,357.52646289998665,None,357.52646289998665,None,357.52646289998665,None,359.0599933299818,None,359.0599933299818,None,359.0599933299818,None,,,,,,,,,,,,,,210,2023-04-25_19h00.23.173,Main,2022.1.1,60.04058743861693,
negative,positive,2,j,l,,,,,,,,,8,6,150,15,,,,,,,,,main,2,2,2,positive,negative,j,j,1,0.6999883999815211,359.06558829999994,360.0789822000079,360.0623574999627,None,359.06558829999994,None,359.06558829999994,None,359.06558829999994,None,360.7623802299495,None,360.7623802299495,None,360.7623802299495,None,,,,,,,,,,,,,,210,2023-04-25_19h00.23.173,Main,2022.1.1,60.04058743861693,
negative,neutral,1,j,l,,,,,,,,,8,7,151,3,,,,,,,,,main,2,2,1,neutral,negative,j,j,1,0.5485391999827698,360.76573039998766,361.7789348999504,361.7623655999778,None,360.76573039998766,None,360.76573039998766,None,360.76573039998766,None,362.3123459299677,None,362.3123459299677,None,362.3123459299677,None,,,,,,,,,,,,,,210,2023-04-25_19h00.23.173,Main,2022.1.1,60.04058743861693,
positive,negative,1,l,j,,,,,,,,,8,8,152,5,,,,,,,,,main,1,1,1,negative,positive,l,l,1,0.6156432999996468,362.31598960002884,363.3288734999951,363.31224749994,None,362.31598960002884,None,362.31598960002884,None,362.31598960002884,None,363.92968003003625,None,363.92968003003625,None,363.92968003003625,None,,,,,,,,,,,,,,210,2023-04-25_19h00.23.173,Main,2022.1.1,60.04058743861693,
negative,negative,2,j,l,,,,,,,,,8,9,153,9,,,,,,,,,main,2,2,2,negative,negative,j,j,1,0.6139845999423414,363.93310589995235,364.94556619995274,364.92892620002385,None,363.93310589995235,None,363.93310589995235,None,363.93310589995235,None,365.545613830036,None,365.545613830036,None,365.545613830036,None,,,,,,,,,,,,,,210,2023-04-25_19h00.23.173,Main,2022.1.1,60.04058743861693,
positive,positive,1,l,j,,,,,,,,,8,10,154,2,,,,,,,,,main,1,1,1,positive,positive,l,l,1,0.6462819000007585,365.5484775999794,366.54295779997483,366.5327249999391,None,365.5484775999794,None,365.5484775999794,None,365.5484775999794,None,367.1931690299534,None,367.1931690299534,None,367.1931690299534,None,,,,,,,,,,,,,,210,2023-04-25_19h00.23.173,Main,2022.1.1,60.04058743861693,
positive,positive,2,l,j,,,,,,,,,8,11,155,11,,,,,,,,,main,2,2,2,positive,positive,l,l,1,0.6315993000753224,367.19348180003,368.19296879996546,368.19296879996546,None,367.19348180003,None,367.19348180003,None,367.19348180003,None,368.82630742999027,None,368.82630742999027,None,368.82630742999027,None,,,,,,,,,,,,,,210,2023-04-25_19h00.23.173,Main,2022.1.1,60.04058743861693,
negative,neutral,2,j,l,,,,,,,,,8,12,156,12,,,,,,,,,main,2,2,2,neutral,negative,j,j,1,0.7008315999992192,368.8270815999713,369.8263290999457,369.8263290999457,None,368.8270815999713,None,368.8270815999713,None,368.8270815999713,None,370.52880482998444,None,370.52880482998444,None,370.52880482998444,None,,,,,,,,,,,,,,210,2023-04-25_19h00.23.173,Main,2022.1.1,60.04058743861693,
negative,negative,1,j,l,,,,,,,,,8,13,157,0,,,,,,,,,main,2,2,1,negative,negative,j,j,1,0.7141153999837115,370.53316649992485,371.54543349996675,371.5288156999741,None,370.53316649992485,None,370.53316649992485,None,370.53316649992485,None,372.24551602994325,None,372.24551602994325,None,372.24551602994325,None,,,,,,,,,,,,,,210,2023-04-25_19h00.23.173,Main,2022.1.1,60.04058743861693,
neutral,positive,1,k,k,,,,,,,,,8,14,158,4,,,,,,,,,main,1,1,1,positive,neutral,k,k,1,0.7149739000014961,372.2495447000256,373.26206560002174,373.2454632000299,None,372.2495447000256,None,372.2495447000256,None,372.2495447000256,None,373.962023029977,None,373.962023029977,None,373.962023029977,None,,,,,,,,,,,,,,210,2023-04-25_19h00.23.173,Main,2022.1.1,60.04058743861693,
negative,positive,1,j,l,,,,,,,,,8,15,159,6,,,,,,,,,main,1,1,1,positive,negative,j,j,1,0.7000982000026852,373.9659908999456,374.97869549994357,374.96209589997306,None,373.9659908999456,None,373.9659908999456,None,373.9659908999456,None,375.659703829966,None,375.659703829966,None,375.659703829966,None,,,,,,,,,,,,,,210,2023-04-25_19h00.23.173,Main,2022.1.1,60.04058743861693,
neutral,negative,2,k,k,,,,,,,,,8,16,160,16,,,,,,,,,main,1,1,2,negative,neutral,k,k,1,0.5949539000866935,375.66629930003546,376.678639599937,376.66204009996727,None,375.66629930003546,None,375.66629930003546,None,375.66629930003546,None,377.26006523001706,None,377.26006523001706,None,377.26006523001706,None,,,,,,,,,,,,,,210,2023-04-25_19h00.23.173,Main,2022.1.1,60.04058743861693,
positive,neutral,1,l,j,,,,,,,,,8,17,161,8,,,,,,,,,main,2,2,1,neutral,positive,l,l,1,0.7146789999678731,377.266193700023,378.2760454999516,378.2593984999694,None,377.266193700023,None,377.266193700023,None,377.266193700023,None,378.9760144299944,None,378.9760144299944,None,378.9760144299944,None,,,,,,,,,,,,,,210,2023-04-25_19h00.23.173,Main,2022.1.1,60.04058743861693,
neutral,positive,2,k,k,,,,,,,,,9,0,162,13,,,,,,,,,main,1,1,2,positive,neutral,k,k,1,0.6149265998974442,378.9761387000326,379.9763033000054,379.9763033000054,None,378.9761387000326,None,378.9761387000326,None,378.9761387000326,None,380.5927520299447,None,380.5927520299447,None,380.5927520299447,None,,,,,,,,,,,,,,210,2023-04-25_19h00.23.173,Main,2022.1.1,60.04058743861693,
negative,neutral,2,j,l,,,,,,,,,9,1,163,12,,,,,,,,,main,1,1,2,neutral,negative,j,j,1,0.5818389999913052,380.5980632000137,381.61187859997153,381.57864490000065,None,380.5980632000137,None,380.5980632000137,None,380.5980632000137,None,382.1760525300051,None,382.1760525300051,None,382.1760525300051,None,,,,,,,,,,,,,,210,2023-04-25_19h00.23.173,Main,2022.1.1,60.04058743861693,
neutral,positive,1,k,k,,,,,,,,,9,2,164,4,,,,,,,,,main,1,1,1,positive,neutral,k,k,1,0.7155443000374362,382.1824684999883,383.1951690999558,383.1619099000236,None,382.1824684999883,None,382.1824684999883,None,382.1824684999883,None,383.89277093001874,None,383.89277093001874,None,383.89277093001874,None,,,,,,,,,,,,,,210,2023-04-25_19h00.23.173,Main,2022.1.1,60.04058743861693,
negative,neutral,1,j,l,,,,,,,,,9,3,165,3,,,,,,,,,main,2,2,1,neutral,negative,j,j,1,0.7840327000012621,383.8994099999545,384.9118157000048,384.8952464000322,None,383.8994099999545,None,383.8994099999545,None,383.8994099999545,None,385.67853383003967,None,385.67853383003967,None,385.67853383003967,None,,,,,,,,,,,,,,210,2023-04-25_19h00.23.173,Main,2022.1.1,60.04058743861693,
positive,positive,1,l,j,,,,,,,,,9,4,166,2,,,,,,,,,main,1,1,1,positive,positive,l,l,1,0.6308257000055164,385.6815031999722,386.6951146000065,386.6785011999309,None,385.6815031999722,None,385.6815031999722,None,385.6815031999722,None,387.3108790299739,None,387.3108790299739,None,387.3108790299739,None,,,,,,,,,,,,,,210,2023-04-25_19h00.23.173,Main,2022.1.1,60.04058743861693,
positive,neutral,1,l,j,,,,,,,,,9,5,167,8,,,,,,,,,main,1,1,1,neutral,positive,l,l,1,0.563109099981375,387.31634020002093,388.32618979993276,388.30943469994236,None,387.31634020002093,None,387.31634020002093,None,387.31634020002093,None,388.87584322999464,None,388.87584322999464,None,388.87584322999464,None,,,,,,,,,,,,,,210,2023-04-25_19h00.23.173,Main,2022.1.1,60.04058743861693,
negative,positive,2,j,l,,,,,,,,,9,6,168,15,,,,,,,,,main,2,2,2,positive,negative,j,j,1,0.6145102999871597,388.8767691999674,389.8761648000218,389.8761648000218,None,388.8767691999674,None,388.8767691999674,None,388.8767691999674,None,390.4925239299773,None,390.4925239299773,None,390.4925239299773,None,,,,,,,,,,,,,,210,2023-04-25_19h00.23.173,Main,2022.1.1,60.04058743861693,
neutral,neutral,2,k,k,,,,,,,,,9,7,169,10,,,,,,,,,main,2,2,2,neutral,neutral,k,k,1,0.5991532999323681,390.4937152999919,391.509228299954,391.49256559996866,None,390.4937152999919,None,390.4937152999919,None,390.4937152999919,None,392.09287223004503,None,392.09287223004503,None,392.09287223004503,None,,,,,,,,,,,,,,210,2023-04-25_19h00.23.173,Main,2022.1.1,60.04058743861693,
positive,positive,2,l,j,,,,,,,,,9,8,170,11,,,,,,,,,main,2,2,2,positive,positive,l,l,1,0.5985402999212965,392.09882499999367,393.11161649995483,393.0950109999394,None,392.09882499999367,None,392.09882499999367,None,392.09882499999367,None,393.69306422997033,None,393.69306422997033,None,393.69306422997033,None,,,,,,,,,,,,,,210,2023-04-25_19h00.23.173,Main,2022.1.1,60.04058743861693,
negative,negative,2,j,l,,,,,,,,,9,9,171,9,,,,,,,,,main,2,2,2,negative,negative,j,j,1,0.5836481000296772,393.6996450999286,394.7115888999542,394.6949447999941,None,393.6996450999286,None,393.6996450999286,None,393.6996450999286,None,395.2782655299525,None,395.2782655299525,None,395.2782655299525,None,,,,,,,,,,,,,,210,2023-04-25_19h00.23.173,Main,2022.1.1,60.04058743861693,
positive,negative,1,l,j,,,,,,,,,9,10,172,5,,,,,,,,,main,2,2,1,negative,positive,l,l,1,0.5150725999847054,395.28143019997515,396.2948524999665,396.27828900003806,None,395.28143019997515,None,395.28143019997515,None,395.28143019997515,None,396.79485003004083,None,396.79485003004083,None,396.79485003004083,None,,,,,,,,,,,,,,210,2023-04-25_19h00.23.173,Main,2022.1.1,60.04058743861693,
negative,positive,1,j,l,,,,,,,,,9,11,173,6,,,,,,,,,main,2,2,1,positive,negative,j,j,1,0.6135959000093862,396.79792299994733,397.8114935000194,397.79492539993953,None,396.79792299994733,None,396.79792299994733,None,396.79792299994733,None,398.40921262995107,None,398.40921262995107,None,398.40921262995107,None,,,,,,,,,,,,,,210,2023-04-25_19h00.23.173,Main,2022.1.1,60.04058743861693,
neutral,negative,1,k,k,,,,,,,,,9,12,174,7,,,,,,,,,main,1,1,1,negative,neutral,k,k,1,0.5475085999350995,398.428104099934,399.44237319997046,399.4089347999543,None,398.428104099934,None,398.428104099934,None,398.428104099934,None,399.9589498299756,None,399.9589498299756,None,399.9589498299756,None,,,,,,,,,,,,,,210,2023-04-25_19h00.23.173,Main,2022.1.1,60.04058743861693,
neutral,neutral,1,k,k,,,,,,,,,9,13,175,1,,,,,,,,,main,1,1,1,neutral,neutral,k,k,1,0.5487164000514895,399.9589594999561,400.95902119996026,400.95902119996026,None,399.9589594999561,None,399.9589594999561,None,399.9589594999561,None,401.50900182995247,None,401.50900182995247,None,401.50900182995247,None,,,,,,,,,,,,,,210,2023-04-25_19h00.23.173,Main,2022.1.1,60.04058743861693,
positive,neutral,2,l,j,,,,,,,,,9,14,176,17,,,,,,,,,main,2,2,2,neutral,positive,l,l,1,0.7664339999901131,401.5156190999551,402.5281077999389,402.5115184999304,None,401.5156190999551,None,401.5156190999551,None,401.5156190999551,None,403.2769110299996,None,403.2769110299996,None,403.2769110299996,None,,,,,,,,,,,,,,210,2023-04-25_19h00.23.173,Main,2022.1.1,60.04058743861693,
negative,negative,1,j,l,,,,,,,,,9,15,177,0,,,,,,,,,main,2,2,1,negative,negative,j,j,1,0.59721489995718,403.2828295000363,404.29477659997065,404.2781310999999,None,403.2828295000363,None,403.2828295000363,None,403.2828295000363,None,404.87562122993404,None,404.87562122993404,None,404.87562122993404,None,,,,,,,,,,,,,,210,2023-04-25_19h00.23.173,Main,2022.1.1,60.04058743861693,
positive,negative,2,l,j,,,,,,,,,9,16,178,14,,,,,,,,,main,2,2,2,negative,positive,l,l,1,0.550704300054349,404.8822532999329,405.8947159999516,405.87810620001983,None,404.8822532999329,None,404.8822532999329,None,404.8822532999329,None,406.4280525299837,None,406.4280525299837,None,406.4280525299837,None,,,,,,,,,,,,,,210,2023-04-25_19h00.23.173,Main,2022.1.1,60.04058743861693,
neutral,negative,2,k,k,,,,,,,,,9,17,179,16,,,,,,,,,main,2,2,2,negative,neutral,k,k,1,0.5475903999758884,406.43144389998633,407.4446928999387,407.4281113999896,None,406.43144389998633,None,406.43144389998633,None,406.43144389998633,None,407.97749442997156,None,407.97749442997156,None,407.97749442997156,None,,,,,,,,,,,,,,210,2023-04-25_19h00.23.173,Main,2022.1.1,60.04058743861693,
negative,positive,1,j,l,,,,,,,,,10,0,180,6,,,,,,,,,main,2,2,1,positive,negative,j,j,1,0.6800616000546142,407.98260699992534,408.9921188999433,408.97543719992973,None,407.98260699992534,None,407.98260699992534,None,407.98260699992534,None,409.65880753000965,None,409.65880753000965,None,409.65880753000965,None,,,,,,,,,,,,,,210,2023-04-25_19h00.23.173,Main,2022.1.1,60.04058743861693,
positive,neutral,2,l,j,,,,,,,,,10,1,181,17,,,,,,,,,main,1,1,2,neutral,positive,l,l,1,0.6818221000721678,409.6587546999799,410.6587838999694,410.6587838999694,None,409.6587546999799,None,409.6587546999799,None,409.6587546999799,None,411.34212113003014,None,411.34212113003014,None,411.34212113003014,None,,,,,,,,,,,,,,210,2023-04-25_19h00.23.173,Main,2022.1.1,60.04058743861693,
positive,neutral,1,l,j,,,,,,,,,10,2,182,8,,,,,,,,,main,2,2,1,neutral,positive,l,l,1,0.6325788999674842,411.34436849993654,412.35880699998233,412.3421493000351,None,411.34436849993654,None,411.34436849993654,None,411.34436849993654,None,412.9760878299712,None,412.9760878299712,None,412.9760878299712,None,,,,,,,,,,,,,,210,2023-04-25_19h00.23.173,Main,2022.1.1,60.04058743861693,
negative,negative,1,j,l,,,,,,,,,10,3,183,0,,,,,,,,,main,2,2,1,negative,negative,j,j,1,0.6142946999752894,412.9825610999251,413.99458860000595,413.9780056999298,None,412.9825610999251,None,412.9825610999251,None,412.9825610999251,None,414.59209592995467,None,414.59209592995467,None,414.59209592995467,None,,,,,,,,,,,,,,210,2023-04-25_19h00.23.173,Main,2022.1.1,60.04058743861693,
positive,negative,1,l,j,,,,,,,,,10,4,184,5,,,,,,,,,main,2,2,1,negative,positive,l,l,1,0.4992494999896735,414.595561599941,415.59460620000027,415.59460620000027,None,414.595561599941,None,414.595561599941,None,414.595561599941,None,416.09288142999867,None,416.09288142999867,None,416.09288142999867,None,,,,,,,,,,,,,,210,2023-04-25_19h00.23.173,Main,2022.1.1,60.04058743861693,
positive,positive,1,l,j,,,,,,,,,10,5,185,2,,,,,,,,,main,2,2,1,positive,positive,l,l,1,0.5810106000863016,416.099144399981,417.1111486000009,417.09458369994536,None,416.099144399981,None,416.099144399981,None,416.099144399981,None,417.6753622299875,None,417.6753622299875,None,417.6753622299875,None,,,,,,,,,,,,,,210,2023-04-25_19h00.23.173,Main,2022.1.1,60.04058743861693,
positive,negative,2,l,j,,,,,,,,,10,6,186,14,,,,,,,,,main,1,1,2,negative,positive,l,l,1,0.6663425000151619,417.6791906999424,418.6944703999907,418.6778665999882,None,417.6791906999424,None,417.6791906999424,None,417.6791906999424,None,419.3423074299353,None,419.3423074299353,None,419.3423074299353,None,,,,,,,,,,,,,,210,2023-04-25_19h00.23.173,Main,2022.1.1,60.04058743861693,
negative,negative,2,j,l,,,,,,,,,10,7,187,9,,,,,,,,,main,2,2,2,negative,negative,j,j,1,0.6466678999131545,419.34845059993677,420.3587327999994,420.3421014000196,None,419.34845059993677,None,419.34845059993677,None,419.34845059993677,None,420.9918518299819,None,420.9918518299819,None,420.9918518299819,None,,,,,,,,,,,,,,210,2023-04-25_19h00.23.173,Main,2022.1.1,60.04058743861693,
neutral,negative,1,k,k,,,,,,,,,10,8,188,7,,,,,,,,,main,1,1,1,negative,neutral,k,k,1,0.5492759000044316,420.9918514000019,421.99218239996117,421.99218239996117,None,420.9918514000019,None,420.9918514000019,None,420.9918514000019,None,422.5418910299777,None,422.5418910299777,None,422.5418910299777,None,,,,,,,,,,,,,,210,2023-04-25_19h00.23.173,Main,2022.1.1,60.04058743861693,
negative,positive,2,j,l,,,,,,,,,10,9,189,15,,,,,,,,,main,1,1,2,positive,negative,j,j,1,0.7320413000416011,422.54611400002614,423.56095990003087,423.5443764999509,None,422.54611400002614,None,422.54611400002614,None,422.54611400002614,None,424.27519352996023,None,424.27519352996023,None,424.27519352996023,None,,,,,,,,,,,,,,210,2023-04-25_19h00.23.173,Main,2022.1.1,60.04058743861693,
negative,neutral,2,j,l,,,,,,,,,10,10,190,12,,,,,,,,,main,2,2,2,neutral,negative,j,j,1,0.6662555999355391,424.27949650003575,425.2943430999294,425.27771229995415,None,424.27949650003575,None,424.27949650003575,None,424.27949650003575,None,425.9442298299982,None,425.9442298299982,None,425.9442298299982,None,,,,,,,,,,,,,,210,2023-04-25_19h00.23.173,Main,2022.1.1,60.04058743861693,
neutral,negative,2,k,k,,,,,,,,,10,11,191,16,,,,,,,,,main,2,2,2,negative,neutral,k,k,1,0.5985652999952435,425.9470650999574,426.9609567000298,426.94436930003576,None,425.9470650999574,None,425.9470650999574,None,425.9470650999574,None,427.54434852994746,None,427.54434852994746,None,427.54434852994746,None,,,,,,,,,,,,,,210,2023-04-25_19h00.23.173,Main,2022.1.1,60.04058743861693,
positive,positive,2,l,j,,,,,,,,,10,12,192,11,,,,,,,,,main,2,2,2,positive,positive,l,l,1,0.6317393999779597,427.54740859998856,428.5609533999814,428.5443224000046,None,427.54740859998856,None,427.54740859998856,None,427.54740859998856,None,429.1775671300129,None,429.1775671300129,None,429.1775671300129,None,,,,,,,,,,,,,,210,2023-04-25_19h00.23.173,Main,2022.1.1,60.04058743861693,
negative,neutral,1,j,l,,,,,,,,,10,13,193,3,,,,,,,,,main,1,1,1,neutral,negative,j,j,1,0.779012200073339,429.18178949994035,430.19166459992994,430.17498350003734,None,429.18178949994035,None,429.18178949994035,None,429.18178949994035,None,430.95828043000074,None,430.95828043000074,None,430.95828043000074,None,,,,,,,,,,,,,,210,2023-04-25_19h00.23.173,Main,2022.1.1,60.04058743861693,
neutral,positive,2,k,k,,,,,,,,,10,14,194,13,,,,,,,,,main,1,1,2,positive,neutral,k,k,1,0.6151867000153288,430.95828649995383,431.9583589999238,431.9583589999238,None,430.95828649995383,None,430.95828649995383,None,430.95828649995383,None,432.57498872996075,None,432.57498872996075,None,432.57498872996075,None,,,,,,,,,,,,,,210,2023-04-25_19h00.23.173,Main,2022.1.1,60.04058743861693,
neutral,positive,1,k,k,,,,,,,,,10,15,195,4,,,,,,,,,main,2,2,1,positive,neutral,k,k,1,0.5683483000611886,432.57547209993936,433.57501879998017,433.57501879998017,None,432.57547209993936,None,432.57547209993936,None,432.57547209993936,None,434.14409302995773,None,434.14409302995773,None,434.14409302995773,None,,,,,,,,,,,,,,210,2023-04-25_19h00.23.173,Main,2022.1.1,60.04058743861693,
neutral,neutral,2,k,k,,,,,,,,,10,16,196,10,,,,,,,,,main,1,1,2,neutral,neutral,k,k,1,0.6310954999644309,434.1479888999602,435.1607409999706,435.14415489998646,None,434.1479888999602,None,434.1479888999602,None,434.1479888999602,None,435.7775105300243,None,435.7775105300243,None,435.7775105300243,None,,,,,,,,,,,,,,210,2023-04-25_19h00.23.173,Main,2022.1.1,60.04058743861693,
neutral,neutral,1,k,k,,,,,,,,,10,17,197,1,,,,,,,,,main,2,2,1,neutral,neutral,k,k,1,0.5656213000183925,435.7805007999996,436.7940639000153,436.7774636999238,None,435.7805007999996,None,435.7805007999996,None,435.7805007999996,None,437.3440386299626,None,437.3440386299626,None,437.3440386299626,None,,,,,,,,,,,,,,210,2023-04-25_19h00.23.173,Main,2022.1.1,60.04058743861693,
positive,neutral,2,l,j,,,,,,,,,11,0,198,17,,,,,,,,,main,1,1,2,neutral,positive,l,l,1,0.5979296000441536,437.3483237000182,438.3606574999867,438.3440793999471,None,437.3483237000182,None,437.3483237000182,None,437.3483237000182,None,438.94404012995074,None,438.94404012995074,None,438.94404012995074,None,,,,,,,,,,,,,,210,2023-04-25_19h00.23.173,Main,2022.1.1,60.04058743861693,
negative,positive,1,j,l,,,,,,,,,11,1,199,6,,,,,,,,,main,2,2,1,positive,negative,j,j,1,0.5990082999924198,438.94751389999874,439.9606964000268,439.9440992999589,None,438.94751389999874,None,438.94751389999874,None,438.94751389999874,None,440.54399073001696,None,440.54399073001696,None,440.54399073001696,None,,,,,,,,,,,,,,210,2023-04-25_19h00.23.173,Main,2022.1.1,60.04058743861693,
neutral,positive,1,k,k,,,,,,,,,11,2,200,4,,,,,,,,,main,2,2,1,positive,neutral,k,k,1,0.6302579999901354,440.5483385999687,441.55814530001953,441.54148200002965,None,440.5483385999687,None,440.5483385999687,None,440.5483385999687,None,442.1747915299493,None,442.1747915299493,None,442.1747915299493,None,,,,,,,,,,,,,,210,2023-04-25_19h00.23.173,Main,2022.1.1,60.04058743861693,
negative,neutral,2,j,l,,,,,,,,,11,3,201,12,,,,,,,,,main,1,1,2,neutral,negative,j,j,1,0.7467132000019774,442.1765543000074,443.19153599999845,443.1748559999978,None,442.1765543000074,None,442.1765543000074,None,442.1765543000074,None,443.9249649299891,None,443.9249649299891,None,443.9249649299891,None,,,,,,,,,,,,,,210,2023-04-25_19h00.23.173,Main,2022.1.1,60.04058743861693,
positive,negative,2,l,j,,,,,,,,,11,4,202,14,,,,,,,,,main,2,2,2,negative,positive,l,l,1,0.617367499973625,443.9313574000262,444.943916899967,444.92730480001774,None,443.9313574000262,None,443.9313574000262,None,443.9313574000262,None,445.54391653003404,None,445.54391653003404,None,445.54391653003404,None,,,,,,,,,,,,,,210,2023-04-25_19h00.23.173,Main,2022.1.1,60.04058743861693,
neutral,positive,2,k,k,,,,,,,,,11,5,203,13,,,,,,,,,main,2,2,2,positive,neutral,k,k,1,0.5968654999742284,445.5472811999498,446.5605571999913,446.5440018000081,None,445.5472811999498,None,445.5472811999498,None,445.5472811999498,None,447.1422383300378,None,447.1422383300378,None,447.1422383300378,None,,,,,,,,,,,,,,210,2023-04-25_19h00.23.173,Main,2022.1.1,60.04058743861693,
negative,positive,2,j,l,,,,,,,,,11,6,204,15,,,,,,,,,main,1,1,2,positive,negative,j,j,1,0.516702099936083,447.1482912999345,448.1605474000098,448.14391380001325,None,447.1482912999345,None,447.1482912999345,None,447.1482912999345,None,448.6606233299826,None,448.6606233299826,None,448.6606233299826,None,,,,,,,,,,,,,,210,2023-04-25_19h00.23.173,Main,2022.1.1,60.04058743861693,
negative,negative,1,j,l,,,,,,,,,11,7,205,0,,,,,,,,,main,1,1,1,negative,negative,j,j,1,0.5809348999755457,448.66477829997893,449.67715000000317,449.6605686999392,None,448.66477829997893,None,448.66477829997893,None,448.66477829997893,None,450.24386123003205,None,450.24386123003205,None,450.24386123003205,None,,,,,,,,,,,,,,210,2023-04-25_19h00.23.173,Main,2022.1.1,60.04058743861693,
neutral,neutral,1,k,k,,,,,,,,,11,8,206,1,,,,,,,,,main,1,1,1,neutral,neutral,k,k,1,0.6123075999785215,450.2470668000169,451.25834299996495,451.2412595000351,None,450.2470668000169,None,450.2470668000169,None,450.2470668000169,None,451.85792593000224,None,451.85792593000224,None,451.85792593000224,None,,,,,,,,,,,,,,210,2023-04-25_19h00.23.173,Main,2022.1.1,60.04058743861693,
neutral,negative,1,k,k,,,,,,,,,11,9,207,7,,,,,,,,,main,1,1,1,negative,neutral,k,k,1,0.6142982000019401,451.8590021999553,452.8746384999249,452.85795029997826,None,451.8590021999553,None,451.8590021999553,None,451.8590021999553,None,453.4746080299956,None,453.4746080299956,None,453.4746080299956,None,,,,,,,,,,,,,,210,2023-04-25_19h00.23.173,Main,2022.1.1,60.04058743861693,
positive,positive,1,l,j,,,,,,,,,11,10,208,2,,,,,,,,,main,1,1,1,positive,positive,l,l,1,0.6818938000360504,453.4754874999635,454.47471999994013,454.47471999994013,None,453.4754874999635,None,453.4754874999635,None,453.4754874999635,None,455.15813723002793,None,455.15813723002793,None,455.15813723002793,None,,,,,,,,,,,,,,210,2023-04-25_19h00.23.173,Main,2022.1.1,60.04058743861693,
positive,positive,2,l,j,,,,,,,,,11,11,209,11,,,,,,,,,main,2,2,2,positive,positive,l,l,1,0.5839417000534013,455.16492749995086,456.1770130000077,456.16045570001006,None,455.16492749995086,None,455.16492749995086,None,455.16492749995086,None,456.7437897299533,None,456.7437897299533,None,456.7437897299533,None,,,,,,,,,,,,,,210,2023-04-25_19h00.23.173,Main,2022.1.1,60.04058743861693,
neutral,neutral,2,k,k,,,,,,,,,11,12,210,10,,,,,,,,,main,2,2,2,neutral,neutral,k,k,1,0.6132862999802455,456.74682190001477,457.7603632999817,457.7437315999996,None,456.74682190001477,None,456.74682190001477,None,456.74682190001477,None,458.35819732997334,None,458.35819732997334,None,458.35819732997334,None,,,,,,,,,,,,,,210,2023-04-25_19h00.23.173,Main,2022.1.1,60.04058743861693,
positive,negative,1,l,j,,,,,,,,,11,13,211,5,,,,,,,,,main,1,1,1,negative,positive,l,l,1,0.6307816000189632,458.36430639994796,459.37707349995617,459.35793890000787,None,458.36430639994796,None,458.36430639994796,None,458.36430639994796,None,459.9911851300276,None,459.9911851300276,None,459.9911851300276,None,,,,,,,,,,,,,,210,2023-04-25_19h00.23.173,Main,2022.1.1,60.04058743861693,
negative,neutral,1,j,l,,,,,,,,,11,14,212,3,,,,,,,,,main,2,2,1,neutral,negative,j,j,1,0.5833300999365747,459.9982633999316,461.0102479000343,460.9936583000235,None,459.9982633999316,None,459.9982633999316,None,459.9982633999316,None,461.5770139300148,None,461.5770139300148,None,461.5770139300148,None,,,,,,,,,,,,,,210,2023-04-25_19h00.23.173,Main,2022.1.1,60.04058743861693,
negative,negative,2,j,l,,,,,,,,,11,15,213,9,,,,,,,,,main,2,2,2,negative,negative,j,j,1,0.6297671000938863,461.5799175000284,462.59100999997463,462.5743433999596,None,461.5799175000284,None,461.5799175000284,None,461.5799175000284,None,463.2076547300094,None,463.2076547300094,None,463.2076547300094,None,,,,,,,,,,,,,,210,2023-04-25_19h00.23.173,Main,2022.1.1,60.04058743861693,
neutral,negative,2,k,k,,,,,,,,,11,16,214,16,,,,,,,,,main,2,2,2,negative,neutral,k,k,1,0.5483661000616848,463.2084191000322,464.2077481999295,464.2077481999295,None,463.2084191000322,None,463.2084191000322,None,463.2084191000322,None,464.7580618300126,None,464.7580618300126,None,464.7580618300126,None,,,,,,,,,,,,,,210,2023-04-25_19h00.23.173,Main,2022.1.1,60.04058743861693,
positive,neutral,1,l,j,,,,,,,,,11,17,215,8,,,,,,,,,main,2,2,1,neutral,positive,l,l,1,0.5814612000249326,464.7646252999548,465.77684820001014,465.76027650001924,None,464.7646252999548,None,464.7646252999548,None,464.7646252999548,None,466.3410436299746,None,466.3410436299746,None,466.3410436299746,None,,,,,,,,,,,,,,210,2023-04-25_19h00.23.173,Main,2022.1.1,60.04058743861693,
positive,negative,1,l,j,,,,,,,,,12,0,216,5,,,,,,,,,main,2,2,1,negative,positive,l,l,1,0.5653571999864653,466.3448487999849,467.3601373999845,467.34354439994786,None,466.3448487999849,None,466.3448487999849,None,466.3448487999849,None,467.90799122996395,None,467.90799122996395,None,467.90799122996395,None,,,,,,,,,,,,,,210,2023-04-25_19h00.23.173,Main,2022.1.1,60.04058743861693,
positive,positive,1,l,j,,,,,,,,,12,1,217,2,,,,,,,,,main,2,2,1,positive,positive,l,l,1,0.4648314999649301,467.9142270999728,468.9267712000292,468.9101853999309,None,467.9142270999728,None,467.9142270999728,None,467.9142270999728,None,469.37564893002855,None,469.37564893002855,None,469.37564893002855,None,,,,,,,,,,,,,,210,2023-04-25_19h00.23.173,Main,2022.1.1,60.04058743861693,
negative,negative,2,j,l,,,,,,,,,12,2,218,9,,,,,,,,,main,1,1,2,negative,negative,j,j,1,0.6634292000671849,469.3814412000356,470.39342660002876,470.3768244999228,None,469.3814412000356,None,469.3814412000356,None,469.3814412000356,None,471.0409195300308,None,471.0409195300308,None,471.0409195300308,None,,,,,,,,,,,,,,210,2023-04-25_19h00.23.173,Main,2022.1.1,60.04058743861693,
neutral,positive,1,k,k,,,,,,,,,12,3,219,4,,,,,,,,,main,1,1,1,positive,neutral,k,k,1,0.5524111000122502,471.0473526000278,472.05704640003387,472.0398131000111,None,471.0473526000278,None,471.0473526000278,None,471.0473526000278,None,472.5909603300388,None,472.5909603300388,None,472.5909603300388,None,,,,,,,,,,,,,,210,2023-04-25_19h00.23.173,Main,2022.1.1,60.04058743861693,
positive,neutral,2,l,j,,,,,,,,,12,4,220,17,,,,,,,,,main,2,2,2,neutral,positive,l,l,1,0.5947868999792263,472.59462410002016,473.6074464999838,473.59078540001065,None,472.59462410002016,None,472.59462410002016,None,472.59462410002016,None,474.19086082995636,None,474.19086082995636,None,474.19086082995636,None,,,,,,,,,,,,,,210,2023-04-25_19h00.23.173,Main,2022.1.1,60.04058743861693,
negative,neutral,2,j,l,,,,,,,,,12,5,221,12,,,,,,,,,main,2,2,2,neutral,negative,j,j,1,0.6149249000009149,474.1914366999408,475.1908537999261,475.1908537999261,None,474.1914366999408,None,474.1914366999408,None,474.1914366999408,None,475.80751072993735,None,475.80751072993735,None,475.80751072993735,None,,,,,,,,,,,,,,210,2023-04-25_19h00.23.173,Main,2022.1.1,60.04058743861693,
neutral,negative,1,k,k,,,,,,,,,12,6,222,7,,,,,,,,,main,2,2,1,negative,neutral,k,k,1,0.6484796000877395,475.8111475999467,476.8266409999924,476.810029599932,None,475.8111475999467,None,475.8111475999467,None,475.8111475999467,None,477.45746562996646,None,477.45746562996646,None,477.45746562996646,None,,,,,,,,,,,,,,210,2023-04-25_19h00.23.173,Main,2022.1.1,60.04058743861693,
