target,distractor,set,ans1,ans2,rep_loop2.thisRepN,rep_loop2.thisTrialN,rep_loop2.thisN,rep_loop2.thisIndex,flanker_prac_loop.thisRepN,flanker_prac_loop.thisTrialN,flanker_prac_loop.thisN,flanker_prac_loop.thisIndex,flanker_main_loop.thisRepN,flanker_main_loop.thisTrialN,flanker_main_loop.thisN,flanker_main_loop.thisIndex,fl_inst_resp.keys,fl_inst_resp.rt,sound_1.started,sound_1.stopped,image_4.started,image_4.stopped,back_2.started,back_2.stopped,main_prac,fl_cold,fl_colt,fl_set,fl_dcond,fl_tcond,fl_ans,fl_res,fl_corr,fl_rt,fix_fl.started,fix_fl.stopped,targ.started,targ.stopped,j_button.started,j_button.stopped,k_button.started,k_button.stopped,l_button.started,l_button.stopped,j_button2.started,j_button2.stopped,k_button2.started,k_button2.stopped,l_button2.started,l_button2.stopped,mainback.started,mainback.stopped,key_resp.keys,key_resp.rt,mouse_6.x,mouse_6.y,mouse_6.leftButton,mouse_6.midButton,mouse_6.rightButton,mouse_6.started,mouse_6.stopped,text_2.started,text_2.stopped,id*,date,expName,psychopyVersion,frameRate,
,,,,,0,0,0,0,,,,,,,,,space,53.743338300148025,17.319656259869227,None,71.08234029985033,None,,,,,,,,,,,,,,,,,,,,,,,,,,,,,,,,,,,,,,,,,,101,2023-03-27_10h52.27.598,Main,2022.1.1,60.024514058447785,
neutral,neutral,1,k,k,,,,,0,0,0,1,,,,,,,,,,,75.0155170999933,None,prac,2,2,1,neutral,neutral,k,k,1,1.7032297998666763,77.04220979986712,78.04908209992573,78.03522049984895,None,77.04220979986712,None,77.04220979986712,None,77.04220979986712,None,79.73290709988214,None,79.73290709988214,None,79.73290709988214,None,,,,,,,,,,,,,,101,2023-03-27_10h52.27.598,Main,2022.1.1,60.024514058447785,
positive,negative,1,l,j,,,,,0,1,1,5,,,,,,,,,,,,,prac,2,2,1,negative,positive,j,j,1,1.1840729999821633,80.73436699993908,81.73230359982699,81.71845020004548,None,80.73436699993908,None,80.73436699993908,None,80.73436699993908,None,82.91565935991238,None,82.91565935991238,None,82.91565935991238,None,,,,,,,,,,,,,,101,2023-03-27_10h52.27.598,Main,2022.1.1,60.024514058447785,
positive,positive,2,l,j,,,,,0,2,2,11,,,,,,,,,,,,,prac,2,2,2,positive,positive,j,j,1,0.7675690001342446,82.92930109985173,83.93235669983551,83.91848449991085,None,82.92930109985173,None,82.92930109985173,None,82.92930109985173,None,84.68489545981865,None,84.68489545981865,None,84.68489545981865,None,,,,,,,,,,,,,,101,2023-03-27_10h52.27.598,Main,2022.1.1,60.024514058447785,
negative,negative,2,j,l,,,,,0,3,3,9,,,,,,,,,,,,,prac,2,2,2,negative,negative,l,l,1,0.865419500041753,84.69768260000274,85.69888659985736,85.68224100000225,None,84.69768260000274,None,84.69768260000274,None,84.69768260000274,None,86.5516127599636,None,86.5516127599636,None,86.5516127599636,None,,,,,,,,,,,,,,101,2023-03-27_10h52.27.598,Main,2022.1.1,60.024514058447785,
neutral,positive,1,k,k,,,,,0,4,4,4,,,,,,,,,,,,,prac,1,1,1,positive,neutral,k,k,1,0.7453748001717031,86.5642142998986,87.56552279996686,87.55160939996131,None,86.5642142998986,None,86.5642142998986,None,86.5642142998986,None,88.29881865999195,None,88.29881865999195,None,88.29881865999195,None,,,,,,,,,,,,,,101,2023-03-27_10h52.27.598,Main,2022.1.1,60.024514058447785,
positive,neutral,2,l,j,,,,,0,5,5,17,,,,,,,,,,,,,prac,2,2,2,neutral,positive,j,j,1,0.5988981002010405,88.30353119992651,89.315486199921,89.28217689995654,None,88.30353119992651,None,88.30353119992651,None,88.30353119992651,None,89.8989362598164,None,89.8989362598164,None,89.8989362598164,None,,,,,,,,,,,,,,101,2023-03-27_10h52.27.598,Main,2022.1.1,60.024514058447785,
neutral,negative,1,k,k,,,,,0,6,6,7,,,,,,,,,,,,,prac,1,1,1,negative,neutral,k,k,1,0.9492969999555498,89.90402320004068,90.91807729983702,90.90148540004157,None,89.90402320004068,None,89.90402320004068,None,89.90402320004068,None,91.84875486001837,None,91.84875486001837,None,91.84875486001837,None,,,,,,,,,,,,,,101,2023-03-27_10h52.27.598,Main,2022.1.1,60.024514058447785,
positive,neutral,1,l,j,,,,,0,7,7,8,,,,,,,,,,,,,prac,1,1,1,neutral,positive,j,j,1,0.7311277000699192,91.8694211000111,92.88492810004391,92.8515124998521,None,91.8694211000111,None,91.8694211000111,None,91.8694211000111,None,93.58179665987845,None,93.58179665987845,None,93.58179665987845,None,,,,,,,,,,,,,,101,2023-03-27_10h52.27.598,Main,2022.1.1,60.024514058447785,
neutral,negative,2,k,k,,,,,0,8,8,16,,,,,,,,,,,,,prac,1,1,2,negative,neutral,k,k,1,0.8349856999702752,93.59238749998622,94.59872659994289,94.58204009989277,None,93.59238749998622,None,93.59238749998622,None,93.59238749998622,None,95.41814936001319,None,95.41814936001319,None,95.41814936001319,None,,,,,,,,,,,,,,101,2023-03-27_10h52.27.598,Main,2022.1.1,60.024514058447785,
negative,neutral,1,j,l,,,,,0,9,9,3,,,,,,,,,,,,,prac,1,1,1,neutral,negative,l,l,1,0.8292667998466641,95.42137999995612,96.43202929990366,96.41534559987485,None,95.42137999995612,None,95.42137999995612,None,95.42137999995612,None,97.24862595999147,None,97.24862595999147,None,97.24862595999147,None,,,,,,,,,,,,,,101,2023-03-27_10h52.27.598,Main,2022.1.1,60.024514058447785,
negative,negative,1,j,l,,,,,0,10,10,0,,,,,,,,,,,,,prac,1,1,1,negative,negative,l,j,0,0.8153714998625219,97.25432139984332,98.26531649986282,98.23198709986173,None,97.25432139984332,None,97.25432139984332,None,97.25432139984332,None,99.06529279984534,None,99.06529279984534,None,99.06529279984534,None,,,,,,,,,,,,,,101,2023-03-27_10h52.27.598,Main,2022.1.1,60.024514058447785,
positive,negative,2,l,j,,,,,0,11,11,14,,,,,,,,,,,,,prac,2,2,2,negative,positive,j,j,1,1.4211077000945807,100.06528500001878,101.06526289996691,101.04874049988575,None,100.06528500001878,None,100.06528500001878,None,100.06528500001878,None,102.48452545984182,None,102.48452545984182,None,102.48452545984182,None,,,,,,,,,,,,,,101,2023-03-27_10h52.27.598,Main,2022.1.1,60.024514058447785,
negative,positive,1,j,l,,,,,0,12,12,6,,,,,,,,,,,,,prac,1,1,1,positive,negative,l,l,1,0.878123699920252,102.48825449985452,103.50121719995514,103.48189019993879,None,102.48825449985452,None,102.48825449985452,None,102.48825449985452,None,104.36514686003792,None,104.36514686003792,None,104.36514686003792,None,,,,,,,,,,,,,,101,2023-03-27_10h52.27.598,Main,2022.1.1,60.024514058447785,
negative,neutral,2,j,l,,,,,0,13,13,12,,,,,,,,,,,,,prac,2,2,2,neutral,negative,l,l,1,0.8368253998924047,104.37002469995059,105.38473970000632,105.34852429991588,None,104.37002469995059,None,104.37002469995059,None,104.37002469995059,None,106.20159976000431,None,106.20159976000431,None,106.20159976000431,None,,,,,,,,,,,,,,101,2023-03-27_10h52.27.598,Main,2022.1.1,60.024514058447785,
positive,positive,1,l,j,,,,,0,14,14,2,,,,,,,,,,,,,prac,2,2,1,positive,positive,j,j,1,0.8770530000329018,106.20638829981908,107.21514729992487,107.19846210000105,None,106.20638829981908,None,106.20638829981908,None,106.20638829981908,None,108.081749159866,None,108.081749159866,None,108.081749159866,None,,,,,,,,,,,,,,101,2023-03-27_10h52.27.598,Main,2022.1.1,60.024514058447785,
neutral,neutral,2,k,k,,,,,0,15,15,10,,,,,,,,,,,,,prac,2,2,2,neutral,neutral,k,k,1,0.7806889000348747,108.08460339996964,109.08450739993714,109.06780469999649,None,108.08460339996964,None,108.08460339996964,None,108.08460339996964,None,109.86359145983587,None,109.86359145983587,None,109.86359145983587,None,,,,,,,,,,,,,,101,2023-03-27_10h52.27.598,Main,2022.1.1,60.024514058447785,
neutral,positive,2,k,k,,,,,0,16,16,13,,,,,,,,,,,,,prac,2,2,2,positive,neutral,k,k,1,0.736294399946928,109.867795499973,110.86776159983128,110.86776159983128,None,109.867795499973,None,109.867795499973,None,109.867795499973,None,111.60108055991586,None,111.60108055991586,None,111.60108055991586,None,,,,,,,,,,,,,,101,2023-03-27_10h52.27.598,Main,2022.1.1,60.024514058447785,
negative,positive,2,j,l,,,,,0,17,17,15,,,,,,,,,,,,,prac,1,1,2,positive,negative,l,l,1,0.8126139999367297,111.6141680998262,112.61500789993443,112.59835770004429,None,111.6141680998262,None,111.6141680998262,None,111.6141680998262,None,113.41497485993895,None,113.41497485993895,None,113.41497485993895,None,,,,,,,,,,,,,,101,2023-03-27_10h52.27.598,Main,2022.1.1,60.024514058447785,
neutral,positive,1,k,k,,,,,1,0,18,4,,,,,,,,,,,,,prac,1,1,1,positive,neutral,k,k,1,0.9153309999965131,113.41982059995644,114.43454589997418,114.41498310002498,None,113.41982059995644,None,113.41982059995644,None,113.41982059995644,None,115.33165235982742,None,115.33165235982742,None,115.33165235982742,None,,,,,,,,,,,,,,101,2023-03-27_10h52.27.598,Main,2022.1.1,60.024514058447785,
positive,neutral,1,l,j,,,,,1,1,19,8,,,,,,,,,,,,,prac,1,1,1,neutral,positive,j,j,1,0.6981401999946684,115.33713570004329,116.34830469987355,116.33162650000304,None,115.33713570004329,None,115.33713570004329,None,115.33713570004329,None,117.03163935991469,None,117.03163935991469,None,117.03163935991469,None,,,,,,,,,,,,,,101,2023-03-27_10h52.27.598,Main,2022.1.1,60.024514058447785,
neutral,neutral,1,k,k,,,,,1,2,20,1,,,,,,,,,,,,,prac,1,1,1,neutral,neutral,k,k,1,0.7984156999737024,117.03722619987093,118.0508497999981,118.03156919986941,None,117.03722619987093,None,117.03722619987093,None,117.03722619987093,None,118.83135995992924,None,118.83135995992924,None,118.83135995992924,None,,,,,,,,,,,,,,101,2023-03-27_10h52.27.598,Main,2022.1.1,60.024514058447785,
positive,positive,2,l,j,,,,,1,3,21,11,,,,,,,,,,,,,prac,1,1,2,positive,positive,j,j,1,0.9846371000166982,118.83785729994997,119.85086869983934,119.83161009987816,None,118.83785729994997,None,118.83785729994997,None,118.83785729994997,None,120.81752695983741,None,120.81752695983741,None,120.81752695983741,None,,,,,,,,,,,,,,101,2023-03-27_10h52.27.598,Main,2022.1.1,60.024514058447785,
positive,positive,1,l,j,,,,,1,4,22,2,,,,,,,,,,,,,prac,1,1,1,positive,positive,j,j,1,0.6459360001608729,120.82207189989276,121.83436219999567,121.81760389986448,None,120.82207189989276,None,120.82207189989276,None,120.82207189989276,None,122.46481045989785,None,122.46481045989785,None,122.46481045989785,None,,,,,,,,,,,,,,101,2023-03-27_10h52.27.598,Main,2022.1.1,60.024514058447785,
negative,positive,2,j,l,,,,,1,5,23,15,,,,,,,,,,,,,prac,1,1,2,positive,negative,l,l,1,0.8990469998680055,122.46898519992828,123.48412339994684,123.46751270000823,None,122.46898519992828,None,122.46898519992828,None,122.46898519992828,None,124.36476156001444,None,124.36476156001444,None,124.36476156001444,None,,,,,,,,,,,,,,101,2023-03-27_10h52.27.598,Main,2022.1.1,60.024514058447785,
positive,negative,1,l,j,,,,,1,6,24,5,,,,,,,,,,,,,prac,2,2,1,negative,positive,j,j,1,0.8179999999701977,124.3695237999782,125.38149899989367,125.36483450001106,None,124.3695237999782,None,124.3695237999782,None,124.3695237999782,None,126.18408635982777,None,126.18408635982777,None,126.18408635982777,None,,,,,,,,,,,,,,101,2023-03-27_10h52.27.598,Main,2022.1.1,60.024514058447785,
negative,negative,1,j,l,,,,,1,7,25,0,,,,,,,,,,,,,prac,1,1,1,negative,negative,l,l,1,0.8961840001866221,126.18694619997405,127.20075129996985,127.18146059988067,None,126.18694619997405,None,126.18694619997405,None,126.18694619997405,None,128.0813468599459,None,128.0813468599459,None,128.0813468599459,None,,,,,,,,,,,,,,101,2023-03-27_10h52.27.598,Main,2022.1.1,60.024514058447785,
negative,neutral,1,j,l,,,,,1,8,26,3,,,,,,,,,,,,,prac,1,1,1,neutral,negative,l,l,1,0.715428400086239,128.08605509996414,129.09802479995415,129.08146839984693,None,128.08605509996414,None,128.08605509996414,None,128.08605509996414,None,129.79798925996292,None,129.79798925996292,None,129.79798925996292,None,,,,,,,,,,,,,,101,2023-03-27_10h52.27.598,Main,2022.1.1,60.024514058447785,
neutral,negative,2,k,k,,,,,1,9,27,16,,,,,,,,,,,,,prac,1,1,2,negative,neutral,k,k,1,0.7987822000868618,129.80267390003428,130.81733440002427,130.79800649988465,None,129.80267390003428,None,129.80267390003428,None,129.80267390003428,None,131.5979609599104,None,131.5979609599104,None,131.5979609599104,None,,,,,,,,,,,,,,101,2023-03-27_10h52.27.598,Main,2022.1.1,60.024514058447785,
positive,negative,2,l,j,,,,,1,10,28,14,,,,,,,,,,,,,prac,2,2,2,negative,positive,j,j,1,0.932047100039199,131.60048020002432,132.6146780999843,132.5979692998808,None,131.60048020002432,None,131.60048020002432,None,131.60048020002432,None,133.53124645983334,None,133.53124645983334,None,133.53124645983334,None,,,,,,,,,,,,,,101,2023-03-27_10h52.27.598,Main,2022.1.1,60.024514058447785,
negative,negative,2,j,l,,,,,1,11,29,9,,,,,,,,,,,,,prac,2,2,2,negative,negative,l,l,1,0.7847569999285042,133.5356266000308,134.5506192999892,134.51461629988626,None,133.5356266000308,None,133.5356266000308,None,133.5356266000308,None,135.3172297599027,None,135.3172297599027,None,135.3172297599027,None,,,,,,,,,,,,,,101,2023-03-27_10h52.27.598,Main,2022.1.1,60.024514058447785,
neutral,negative,1,k,k,,,,,1,12,30,7,,,,,,,,,,,,,prac,2,2,1,negative,neutral,k,k,1,0.7804324999451637,135.32057340000756,136.33132599992678,136.31456890003756,None,135.32057340000756,None,135.32057340000756,None,135.32057340000756,None,137.09785085988696,None,137.09785085988696,None,137.09785085988696,None,,,,,,,,,,,,,,101,2023-03-27_10h52.27.598,Main,2022.1.1,60.024514058447785,
neutral,positive,2,k,k,,,,,1,13,31,13,,,,,,,,,,,,,prac,1,1,2,positive,neutral,k,k,1,0.7322477998677641,137.10359829990193,138.11454889993183,138.09786029998213,None,137.10359829990193,None,137.10359829990193,None,137.10359829990193,None,138.83113195982295,None,138.83113195982295,None,138.83113195982295,None,,,,,,,,,,,,,,101,2023-03-27_10h52.27.598,Main,2022.1.1,60.024514058447785,
negative,positive,1,j,l,,,,,1,14,32,6,,,,,,,,,,,,,prac,1,1,1,positive,negative,l,l,1,1.0338028999976814,138.83714840002358,139.8478200000245,139.8338782999199,None,138.83714840002358,None,138.83714840002358,None,138.83714840002358,None,140.86726595999207,None,140.86726595999207,None,140.86726595999207,None,,,,,,,,,,,,,,101,2023-03-27_10h52.27.598,Main,2022.1.1,60.024514058447785,
neutral,neutral,2,k,k,,,,,1,15,33,10,,,,,,,,,,,,,prac,2,2,2,neutral,neutral,k,k,1,0.8320806999690831,140.8704390998464,141.88382470002398,141.86449839989655,None,140.8704390998464,None,140.8704390998464,None,140.8704390998464,None,142.70049925989005,None,142.70049925989005,None,142.70049925989005,None,,,,,,,,,,,,,,101,2023-03-27_10h52.27.598,Main,2022.1.1,60.024514058447785,
positive,neutral,2,l,j,,,,,1,16,34,17,,,,,,,,,,,,,prac,2,2,2,neutral,positive,j,j,1,0.8300606000702828,142.70325809996575,143.71705989982001,143.69781249994412,None,142.70325809996575,None,142.70325809996575,None,142.70325809996575,None,144.53103845987934,None,144.53103845987934,None,144.53103845987934,None,,,,,,,,,,,,,,101,2023-03-27_10h52.27.598,Main,2022.1.1,60.024514058447785,
negative,neutral,2,j,l,,,,,1,17,35,12,,,,,,,,,,,,,prac,2,2,2,neutral,negative,l,l,1,0.8978868999984115,144.53704399988055,145.54776540002786,145.53387699997984,None,144.53704399988055,None,144.53704399988055,None,144.53704399988055,None,146.43100115985143,None,146.43100115985143,None,146.43100115985143,None,,,,,,,,,,,,,,101,2023-03-27_10h52.27.598,Main,2022.1.1,60.024514058447785,
,,,,,,,,,,,,,,,,,,,,,,,,,,,,,,,,,,,,,,,,,,,,,,,,,,,146.43380879983306,None,space,3.8781069999095052,,,,,,,,,,101,2023-03-27_10h52.27.598,Main,2022.1.1,60.024514058447785,
,,,,,,,,,,,,,,,,,,,,,,,,,,,,,,,,,,,,,,,,,,,,,,,,,,,,,,,0.62314814,-0.36018518,0,0,0,0.011253559729084373,None,,,101,2023-03-27_10h52.27.598,Main,2022.1.1,60.024514058447785,
positive,positive,1,l,j,,,,,,,,,0,0,0,2,,,,,,,150.3336505999323,None,main,2,2,1,positive,positive,j,j,1,1.0608963000122458,152.33812600001693,153.34757420001552,153.33357209991664,None,152.33812600001693,None,152.33812600001693,None,152.33812600001693,None,154.39732965992297,None,154.39732965992297,None,154.39732965992297,None,,,,,,,,,,,,,,101,2023-03-27_10h52.27.598,Main,2022.1.1,60.024514058447785,
neutral,positive,1,k,k,,,,,,,,,0,1,1,4,,,,,,,,,main,2,2,1,positive,neutral,k,k,1,0.6473205999936908,154.4043477999512,155.41421939991415,155.39753860002384,None,154.4043477999512,None,154.4043477999512,None,154.4043477999512,None,156.04749545992817,None,156.04749545992817,None,156.04749545992817,None,,,,,,,,,,,,,,101,2023-03-27_10h52.27.598,Main,2022.1.1,60.024514058447785,
neutral,positive,2,k,k,,,,,,,,,0,2,2,13,,,,,,,,,main,2,2,2,positive,neutral,k,k,1,0.6986073001753539,156.053231399972,157.06694990000688,157.05022239987738,None,156.053231399972,None,156.053231399972,None,156.053231399972,None,157.7474807598861,None,157.7474807598861,None,157.7474807598861,None,,,,,,,,,,,,,,101,2023-03-27_10h52.27.598,Main,2022.1.1,60.024514058447785,
negative,negative,1,j,l,,,,,,,,,0,3,3,0,,,,,,,,,main,1,1,1,negative,negative,l,l,1,0.7152150999754667,157.7501546998974,158.76416359981522,158.7308183000423,None,157.7501546998974,None,157.7501546998974,None,157.7501546998974,None,159.46406875995453,None,159.46406875995453,None,159.46406875995453,None,,,,,,,,,,,,,,101,2023-03-27_10h52.27.598,Main,2022.1.1,60.024514058447785,
positive,neutral,1,l,j,,,,,,,,,0,4,4,8,,,,,,,,,main,1,1,1,neutral,positive,j,j,1,0.6812810997944325,159.46888069994748,160.48076109983958,160.45021219993941,None,159.46888069994748,None,159.46888069994748,None,159.46888069994748,None,161.1472227599239,None,161.1472227599239,None,161.1472227599239,None,,,,,,,,,,,,,,101,2023-03-27_10h52.27.598,Main,2022.1.1,60.024514058447785,
positive,negative,1,l,j,,,,,,,,,0,5,5,5,,,,,,,,,main,2,2,1,negative,positive,j,j,1,0.7154461001046002,161.15332619985566,162.16676209983416,162.15028989990242,None,161.15332619985566,None,161.15332619985566,None,161.15332619985566,None,162.86402696000877,None,162.86402696000877,None,162.86402696000877,None,,,,,,,,,,,,,,101,2023-03-27_10h52.27.598,Main,2022.1.1,60.024514058447785,
neutral,negative,1,k,k,,,,,,,,,0,6,6,7,,,,,,,,,main,1,1,1,negative,neutral,k,k,1,0.6654010000638664,162.86882509989664,163.88071699999273,163.84738469985314,None,162.86882509989664,None,162.86882509989664,None,162.86882509989664,None,164.53078155990224,None,164.53078155990224,None,164.53078155990224,None,,,,,,,,,,,,,,101,2023-03-27_10h52.27.598,Main,2022.1.1,60.024514058447785,
negative,neutral,2,j,l,,,,,,,,,0,7,7,12,,,,,,,,,main,1,1,2,neutral,negative,l,l,1,0.8812619999516755,164.54592559998855,165.55016499990597,165.5306662998628,None,164.54592559998855,None,164.54592559998855,None,164.54592559998855,None,166.4139747598907,None,166.4139747598907,None,166.4139747598907,None,,,,,,,,,,,,,,101,2023-03-27_10h52.27.598,Main,2022.1.1,60.024514058447785,
neutral,negative,2,k,k,,,,,,,,,0,8,8,16,,,,,,,,,main,2,2,2,negative,neutral,k,k,1,0.7484666001982987,166.419195599854,167.43333769985475,167.41667239996605,None,166.419195599854,None,166.419195599854,None,166.419195599854,None,168.1639242598554,None,168.1639242598554,None,168.1639242598554,None,,,,,,,,,,,,,,101,2023-03-27_10h52.27.598,Main,2022.1.1,60.024514058447785,
positive,neutral,2,l,j,,,,,,,,,0,9,9,17,,,,,,,,,main,2,2,2,neutral,positive,j,j,1,0.784076499985531,168.16793009988032,169.18062549992464,169.1639516998548,None,168.16793009988032,None,168.16793009988032,None,168.16793009988032,None,169.94995116002391,None,169.94995116002391,None,169.94995116002391,None,,,,,,,,,,,,,,101,2023-03-27_10h52.27.598,Main,2022.1.1,60.024514058447785,
positive,negative,2,l,j,,,,,,,,,0,10,10,14,,,,,,,,,main,2,2,2,negative,positive,j,j,1,0.7784716999158263,169.9533013999462,170.96393029997125,170.94725969992578,None,169.9533013999462,None,169.9533013999462,None,169.9533013999462,None,171.7305051598465,None,171.7305051598465,None,171.7305051598465,None,,,,,,,,,,,,,,101,2023-03-27_10h52.27.598,Main,2022.1.1,60.024514058447785,
neutral,neutral,2,k,k,,,,,,,,,0,11,11,10,,,,,,,,,main,2,2,2,neutral,neutral,k,k,1,0.7817258001305163,171.73579089995474,172.74722439981997,172.7305425000377,None,171.73579089995474,None,171.73579089995474,None,171.73579089995474,None,173.51391985991503,None,173.51391985991503,None,173.51391985991503,None,,,,,,,,,,,,,,101,2023-03-27_10h52.27.598,Main,2022.1.1,60.024514058447785,
negative,neutral,1,j,l,,,,,,,,,0,12,12,3,,,,,,,,,main,1,1,1,neutral,negative,l,l,1,0.8982639999594539,173.5188621999696,174.53048369986936,174.4971566000022,None,173.5188621999696,None,173.5188621999696,None,173.5188621999696,None,175.41379575992468,None,175.41379575992468,None,175.41379575992468,None,,,,,,,,,,,,,,101,2023-03-27_10h52.27.598,Main,2022.1.1,60.024514058447785,
negative,positive,1,j,l,,,,,,,,,0,13,13,6,,,,,,,,,main,1,1,1,positive,negative,l,l,1,0.8321712999604642,175.41882779984735,176.43306680000387,176.41378369997256,None,175.41882779984735,None,175.41882779984735,None,175.41882779984735,None,177.24710775983985,None,177.24710775983985,None,177.24710775983985,None,,,,,,,,,,,,,,101,2023-03-27_10h52.27.598,Main,2022.1.1,60.024514058447785,
negative,positive,2,j,l,,,,,,,,,0,14,14,15,,,,,,,,,main,2,2,2,positive,negative,l,l,1,0.7314976998604834,177.25288389995694,178.26375479996204,178.24710409995168,None,177.25288389995694,None,177.25288389995694,None,177.25288389995694,None,178.98039535994175,None,178.98039535994175,None,178.98039535994175,None,,,,,,,,,,,,,,101,2023-03-27_10h52.27.598,Main,2022.1.1,60.024514058447785,
positive,positive,2,l,j,,,,,,,,,0,15,15,11,,,,,,,,,main,2,2,2,positive,positive,j,j,1,0.8649293000344187,178.98550039995462,179.99709479999729,179.98042489984073,None,178.98550039995462,None,178.98550039995462,None,178.98550039995462,None,180.84700565997045,None,180.84700565997045,None,180.84700565997045,None,,,,,,,,,,,,,,101,2023-03-27_10h52.27.598,Main,2022.1.1,60.024514058447785,
neutral,neutral,1,k,k,,,,,,,,,0,16,16,1,,,,,,,,,main,1,1,1,neutral,neutral,k,k,1,0.7345452001318336,180.8498442999553,181.84714359999634,181.84714359999634,None,180.8498442999553,None,180.8498442999553,None,180.8498442999553,None,182.58306445998605,None,182.58306445998605,None,182.58306445998605,None,,,,,,,,,,,,,,101,2023-03-27_10h52.27.598,Main,2022.1.1,60.024514058447785,
negative,negative,2,j,l,,,,,,,,,0,17,17,9,,,,,,,,,main,2,2,2,negative,negative,l,l,1,0.6790642999112606,182.58630319987424,183.59969149995595,183.58310179994442,None,182.58630319987424,None,182.58630319987424,None,182.58630319987424,None,184.26359305998776,None,184.26359305998776,None,184.26359305998776,None,,,,,,,,,,,,,,101,2023-03-27_10h52.27.598,Main,2022.1.1,60.024514058447785,
neutral,negative,1,k,k,,,,,,,,,1,0,18,7,,,,,,,,,main,2,2,1,negative,neutral,k,k,1,0.751509299967438,184.28303489997052,185.29694489995018,185.26361709996127,None,184.28303489997052,None,184.28303489997052,None,184.28303489997052,None,186.01627136000897,None,186.01627136000897,None,186.01627136000897,None,,,,,,,,,,,,,,101,2023-03-27_10h52.27.598,Main,2022.1.1,60.024514058447785,
positive,neutral,1,l,j,,,,,,,,,1,1,19,8,,,,,,,,,main,2,2,1,neutral,positive,j,j,1,0.6112355999648571,186.0200765999034,187.0304155999329,187.01356310001574,None,186.0200765999034,None,186.0200765999034,None,186.0200765999034,None,187.6302461598767,None,187.6302461598767,None,187.6302461598767,None,,,,,,,,,,,,,,101,2023-03-27_10h52.27.598,Main,2022.1.1,60.024514058447785,
neutral,neutral,1,k,k,,,,,,,,,1,2,20,1,,,,,,,,,main,1,1,1,neutral,neutral,k,k,1,0.7316497000865638,187.6353285999503,188.6468902998604,188.63036670000292,None,187.6353285999503,None,187.6353285999503,None,187.6353285999503,None,189.3635060598841,None,189.3635060598841,None,189.3635060598841,None,,,,,,,,,,,,,,101,2023-03-27_10h52.27.598,Main,2022.1.1,60.024514058447785,
positive,negative,1,l,j,,,,,,,,,1,3,21,5,,,,,,,,,main,2,2,1,negative,positive,j,j,1,0.7817135998047888,189.3688171999529,190.38285479997285,190.3635370999109,None,189.3688171999529,None,189.3688171999529,None,189.3688171999529,None,191.14680605989415,None,191.14680605989415,None,191.14680605989415,None,,,,,,,,,,,,,,101,2023-03-27_10h52.27.598,Main,2022.1.1,60.024514058447785,
neutral,neutral,2,k,k,,,,,,,,,1,4,22,10,,,,,,,,,main,2,2,2,neutral,neutral,k,k,1,0.6984459001105279,191.1635232998524,192.16350639984012,192.1301770999562,None,191.1635232998524,None,191.1635232998524,None,191.1635232998524,None,192.84680565984453,None,192.84680565984453,None,192.84680565984453,None,,,,,,,,,,,,,,101,2023-03-27_10h52.27.598,Main,2022.1.1,60.024514058447785,
positive,neutral,2,l,j,,,,,,,,,1,5,23,17,,,,,,,,,main,1,1,2,neutral,positive,j,j,1,0.7814204001333565,192.85241609998047,193.86346050002612,193.8467757999897,None,192.85241609998047,None,192.85241609998047,None,192.85241609998047,None,194.63007815999444,None,194.63007815999444,None,194.63007815999444,None,,,,,,,,,,,,,,101,2023-03-27_10h52.27.598,Main,2022.1.1,60.024514058447785,
negative,neutral,1,j,l,,,,,,,,,1,6,24,3,,,,,,,,,main,1,1,1,neutral,negative,l,l,1,0.801063199993223,194.6331249999348,195.63284910004586,195.63284910004586,None,194.6331249999348,None,194.6331249999348,None,194.6331249999348,None,196.4324581600027,None,196.4324581600027,None,196.4324581600027,None,,,,,,,,,,,,,,101,2023-03-27_10h52.27.598,Main,2022.1.1,60.024514058447785,
neutral,positive,2,k,k,,,,,,,,,1,7,25,13,,,,,,,,,main,2,2,2,positive,neutral,k,k,1,0.6622995999641716,196.43735679984093,197.44671079982072,197.4298773999326,None,196.43735679984093,None,196.43735679984093,None,196.43735679984093,None,198.09669105990324,None,198.09669105990324,None,198.09669105990324,None,,,,,,,,,,,,,,101,2023-03-27_10h52.27.598,Main,2022.1.1,60.024514058447785,
negative,neutral,2,j,l,,,,,,,,,1,8,26,12,,,,,,,,,main,2,2,2,neutral,negative,l,l,1,0.8487899000756443,198.1005764999427,199.11338149989024,199.0994283000473,None,198.1005764999427,None,198.1005764999427,None,198.1005764999427,None,199.94668885997962,None,199.94668885997962,None,199.94668885997962,None,,,,,,,,,,,,,,101,2023-03-27_10h52.27.598,Main,2022.1.1,60.024514058447785,
positive,positive,2,l,j,,,,,,,,,1,9,27,11,,,,,,,,,main,1,1,2,positive,positive,j,j,1,0.6842147000133991,199.95214459998533,200.96335690002888,200.94667889992706,None,199.95214459998533,None,199.95214459998533,None,199.95214459998533,None,201.63271965996827,None,201.63271965996827,None,201.63271965996827,None,,,,,,,,,,,,,,101,2023-03-27_10h52.27.598,Main,2022.1.1,60.024514058447785,
negative,negative,2,j,l,,,,,,,,,1,10,28,9,,,,,,,,,main,2,2,2,negative,negative,l,l,1,0.8123655000235885,201.63597729988396,202.64662060001865,202.6299701000098,None,201.63597729988396,None,201.63597729988396,None,201.63597729988396,None,203.44655836003366,None,203.44655836003366,None,203.44655836003366,None,,,,,,,,,,,,,,101,2023-03-27_10h52.27.598,Main,2022.1.1,60.024514058447785,
negative,positive,1,j,l,,,,,,,,,1,11,29,6,,,,,,,,,main,1,1,1,positive,negative,l,l,1,0.898500100011006,203.45151529996656,204.46594949997962,204.44658769993111,None,203.45151529996656,None,203.45151529996656,None,203.45151529996656,None,205.34655206000897,None,205.34655206000897,None,205.34655206000897,None,,,,,,,,,,,,,,101,2023-03-27_10h52.27.598,Main,2022.1.1,60.024514058447785,
negative,positive,2,j,l,,,,,,,,,1,12,30,15,,,,,,,,,main,1,1,2,positive,negative,l,l,1,1.0483474000357091,205.35199019988067,206.3631921999622,206.34656720003113,None,205.35199019988067,None,205.35199019988067,None,205.35199019988067,None,207.3964783598436,None,207.3964783598436,None,207.3964783598436,None,,,,,,,,,,,,,,101,2023-03-27_10h52.27.598,Main,2022.1.1,60.024514058447785,
positive,negative,2,l,j,,,,,,,,,1,13,31,14,,,,,,,,,main,2,2,2,negative,positive,j,j,1,0.7816785001195967,207.39979900000617,208.39921319996938,208.39921319996938,None,207.39979900000617,None,207.39979900000617,None,207.39979900000617,None,209.1797891599359,None,209.1797891599359,None,209.1797891599359,None,,,,,,,,,,,,,,101,2023-03-27_10h52.27.598,Main,2022.1.1,60.024514058447785,
neutral,positive,1,k,k,,,,,,,,,1,14,32,4,,,,,,,,,main,1,1,1,positive,neutral,k,k,1,0.7512230998836458,209.1858169999905,210.19647459988482,210.18255089991726,None,209.1858169999905,None,209.1858169999905,None,209.1858169999905,None,210.932665859838,None,210.932665859838,None,210.932665859838,None,,,,,,,,,,,,,,101,2023-03-27_10h52.27.598,Main,2022.1.1,60.024514058447785,
positive,positive,1,l,j,,,,,,,,,1,15,33,2,,,,,,,,,main,2,2,1,positive,positive,j,j,1,0.7288493998348713,210.93574929982424,211.94644089997746,211.92976369988173,None,210.93574929982424,None,210.93574929982424,None,210.93574929982424,None,212.66305305997375,None,212.66305305997375,None,212.66305305997375,None,,,,,,,,,,,,,,101,2023-03-27_10h52.27.598,Main,2022.1.1,60.024514058447785,
negative,negative,1,j,l,,,,,,,,,1,16,34,0,,,,,,,,,main,2,2,1,negative,negative,l,l,1,0.7830036000814289,212.66683309990913,213.67977119982243,213.6491551999934,None,212.66683309990913,None,212.66683309990913,None,212.66683309990913,None,214.44634715982247,None,214.44634715982247,None,214.44634715982247,None,,,,,,,,,,,,,,101,2023-03-27_10h52.27.598,Main,2022.1.1,60.024514058447785,
neutral,negative,2,k,k,,,,,,,,,1,17,35,16,,,,,,,,,main,2,2,2,negative,neutral,k,k,1,0.6970804000739008,214.45235449983738,215.46302379993722,215.44641319988295,None,214.45235449983738,None,214.45235449983738,None,214.45235449983738,None,216.1463381599402,None,216.1463381599402,None,216.1463381599402,None,,,,,,,,,,,,,,101,2023-03-27_10h52.27.598,Main,2022.1.1,60.024514058447785,
negative,negative,1,j,l,,,,,,,,,2,0,36,0,,,,,,,,,main,2,2,1,negative,negative,l,l,1,0.7011652998626232,216.15206500003114,217.16300579998642,217.1463621999137,None,216.15206500003114,None,216.15206500003114,None,216.15206500003114,None,217.84893726001027,None,217.84893726001027,None,217.84893726001027,None,,,,,,,,,,,,,,101,2023-03-27_10h52.27.598,Main,2022.1.1,60.024514058447785,
positive,neutral,2,l,j,,,,,,,,,2,1,37,17,,,,,,,,,main,2,2,2,neutral,positive,j,j,1,0.7124014999717474,217.85141629981808,218.86566939996555,218.846273599891,None,217.85141629981808,None,217.85141629981808,None,217.85141629981808,None,219.56297045995015,None,219.56297045995015,None,219.56297045995015,None,,,,,,,,,,,,,,101,2023-03-27_10h52.27.598,Main,2022.1.1,60.024514058447785,
negative,neutral,2,j,l,,,,,,,,,2,2,38,12,,,,,,,,,main,2,2,2,neutral,negative,l,l,1,0.7650178999174386,219.5678035998717,220.5796490998473,220.56292929989286,None,219.5678035998717,None,219.5678035998717,None,219.5678035998717,None,221.329539659922,None,221.329539659922,None,221.329539659922,None,,,,,,,,,,,,,,101,2023-03-27_10h52.27.598,Main,2022.1.1,60.024514058447785,
positive,positive,2,l,j,,,,,,,,,2,3,39,11,,,,,,,,,main,1,1,2,positive,positive,j,j,1,0.8837081999517977,221.34628229984082,222.34623599983752,222.33236290002242,None,221.34628229984082,None,221.34628229984082,None,221.34628229984082,None,223.21555055982898,None,223.21555055982898,None,223.21555055982898,None,,,,,,,,,,,,,,101,2023-03-27_10h52.27.598,Main,2022.1.1,60.024514058447785,
neutral,negative,2,k,k,,,,,,,,,2,4,40,16,,,,,,,,,main,1,1,2,negative,neutral,k,k,1,0.82877799984999,223.21879690000787,224.22953819995746,224.2131014999468,None,223.21879690000787,None,223.21879690000787,None,223.21879690000787,None,225.0461425599875,None,225.0461425599875,None,225.0461425599875,None,,,,,,,,,,,,,,101,2023-03-27_10h52.27.598,Main,2022.1.1,60.024514058447785,
negative,negative,2,j,l,,,,,,,,,2,5,41,9,,,,,,,,,main,2,2,2,negative,negative,l,l,1,0.7840102000627667,225.05176219996065,226.06552769988775,226.04622489982285,None,225.05176219996065,None,225.05176219996065,None,225.05176219996065,None,226.83219415999483,None,226.83219415999483,None,226.83219415999483,None,,,,,,,,,,,,,,101,2023-03-27_10h52.27.598,Main,2022.1.1,60.024514058447785,
neutral,negative,1,k,k,,,,,,,,,2,6,42,7,,,,,,,,,main,2,2,1,negative,neutral,k,k,1,0.7790908999741077,226.83540429989807,227.84615939995274,227.82945650001056,None,226.83540429989807,None,226.83540429989807,None,226.83540429989807,None,228.61274476002436,None,228.61274476002436,None,228.61274476002436,None,,,,,,,,,,,,,,101,2023-03-27_10h52.27.598,Main,2022.1.1,60.024514058447785,
negative,positive,2,j,l,,,,,,,,,2,7,43,15,,,,,,,,,main,1,1,2,positive,negative,l,l,1,0.7484693001024425,228.6180220998358,229.62951869983226,229.61281910003163,None,228.6180220998358,None,228.6180220998358,None,228.6180220998358,None,230.3628211599076,None,230.3628211599076,None,230.3628211599076,None,,,,,,,,,,,,,,101,2023-03-27_10h52.27.598,Main,2022.1.1,60.024514058447785,
positive,negative,1,l,j,,,,,,,,,2,8,44,5,,,,,,,,,main,2,2,1,negative,positive,j,j,1,0.6647814000025392,230.3683615999762,231.3794038000051,231.36274249991402,None,230.3683615999762,None,230.3683615999762,None,230.3683615999762,None,232.02934045998845,None,232.02934045998845,None,232.02934045998845,None,,,,,,,,,,,,,,101,2023-03-27_10h52.27.598,Main,2022.1.1,60.024514058447785,
negative,neutral,1,j,l,,,,,,,,,2,9,45,3,,,,,,,,,main,1,1,1,neutral,negative,l,l,1,0.8179235998541117,232.0323844999075,233.04602000000887,233.0293689998798,None,232.0323844999075,None,232.0323844999075,None,232.0323844999075,None,233.84876015994232,None,233.84876015994232,None,233.84876015994232,None,,,,,,,,,,,,,,101,2023-03-27_10h52.27.598,Main,2022.1.1,60.024514058447785,
positive,positive,1,l,j,,,,,,,,,2,10,46,2,,,,,,,,,main,1,1,1,positive,positive,j,j,1,0.7454305998980999,233.85204899986275,234.86534899985418,234.84598089987412,None,233.85204899986275,None,233.85204899986275,None,233.85204899986275,None,235.5959509599721,None,235.5959509599721,None,235.5959509599721,None,,,,,,,,,,,,,,101,2023-03-27_10h52.27.598,Main,2022.1.1,60.024514058447785,
positive,negative,2,l,j,,,,,,,,,2,11,47,14,,,,,,,,,main,1,1,2,negative,positive,j,j,1,0.9985390999354422,235.60072529991157,236.61261009983718,236.59863529982977,None,235.60072529991157,None,235.60072529991157,None,235.60072529991157,None,237.595954359998,None,237.595954359998,None,237.595954359998,None,,,,,,,,,,,,,,101,2023-03-27_10h52.27.598,Main,2022.1.1,60.024514058447785,
neutral,neutral,2,k,k,,,,,,,,,2,12,48,10,,,,,,,,,main,2,2,2,neutral,neutral,k,k,1,0.7150741000659764,237.6009267999325,238.61255329987034,238.59590299986303,None,237.6009267999325,None,237.6009267999325,None,237.6009267999325,None,239.31258206001948,None,239.31258206001948,None,239.31258206001948,None,,,,,,,,,,,,,,101,2023-03-27_10h52.27.598,Main,2022.1.1,60.024514058447785,
neutral,positive,2,k,k,,,,,,,,,2,13,49,13,,,,,,,,,main,2,2,2,positive,neutral,k,k,1,0.8010175998788327,239.3178669998888,240.32923739985563,240.31253629992716,None,239.3178669998888,None,239.3178669998888,None,239.3178669998888,None,241.1152146598557,None,241.1152146598557,None,241.1152146598557,None,,,,,,,,,,,,,,101,2023-03-27_10h52.27.598,Main,2022.1.1,60.024514058447785,
neutral,neutral,1,k,k,,,,,,,,,2,14,50,1,,,,,,,,,main,2,2,1,neutral,neutral,k,k,1,0.8791970000602305,241.1184709998779,242.12916049989872,242.11526339990087,None,241.1184709998779,None,241.1184709998779,None,241.1184709998779,None,242.9958598600002,None,242.9958598600002,None,242.9958598600002,None,,,,,,,,,,,,,,101,2023-03-27_10h52.27.598,Main,2022.1.1,60.024514058447785,
positive,neutral,1,l,j,,,,,,,,,2,15,51,8,,,,,,,,,main,2,2,1,neutral,positive,j,j,1,0.7649004000704736,243.00103479996324,244.01248889998533,243.99583070003428,None,243.00103479996324,None,243.00103479996324,None,243.00103479996324,None,244.7624302599812,None,244.7624302599812,None,244.7624302599812,None,,,,,,,,,,,,,,101,2023-03-27_10h52.27.598,Main,2022.1.1,60.024514058447785,
neutral,positive,1,k,k,,,,,,,,,2,16,52,4,,,,,,,,,main,2,2,1,positive,neutral,k,k,1,0.6650694999843836,244.76760699995793,245.77912129997276,245.74587709992193,None,244.76760699995793,None,244.76760699995793,None,244.76760699995793,None,246.42905815995763,None,246.42905815995763,None,246.42905815995763,None,,,,,,,,,,,,,,101,2023-03-27_10h52.27.598,Main,2022.1.1,60.024514058447785,
negative,positive,1,j,l,,,,,,,,,2,17,53,6,,,,,,,,,main,1,1,1,positive,negative,l,l,1,0.9320022000465542,246.43402549996972,247.4458059000317,247.41242099995725,None,246.43402549996972,None,246.43402549996972,None,246.43402549996972,None,248.3624646598706,None,248.3624646598706,None,248.3624646598706,None,,,,,,,,,,,,,,101,2023-03-27_10h52.27.598,Main,2022.1.1,60.024514058447785,
negative,neutral,2,j,l,,,,,,,,,3,0,54,12,,,,,,,,,main,1,1,2,neutral,negative,l,l,1,0.8482713000848889,248.36749059986323,249.37907549994998,249.3651566999033,None,248.36749059986323,None,248.36749059986323,None,248.36749059986323,None,250.21233736004214,None,250.21233736004214,None,250.21233736004214,None,,,,,,,,,,,,,,101,2023-03-27_10h52.27.598,Main,2022.1.1,60.024514058447785,
negative,negative,2,j,l,,,,,,,,,3,1,55,9,,,,,,,,,main,1,1,2,negative,negative,l,l,1,0.6821602000854909,250.2171181999147,251.2290129000321,251.19564939988777,None,250.2171181999147,None,250.2171181999147,None,250.2171181999147,None,251.89563135991338,None,251.89563135991338,None,251.89563135991338,None,,,,,,,,,,,,,,101,2023-03-27_10h52.27.598,Main,2022.1.1,60.024514058447785,
negative,negative,1,j,l,,,,,,,,,3,2,56,0,,,,,,,,,main,2,2,1,negative,negative,l,l,1,0.7982272999361157,251.90118479984812,252.91232210001908,252.8956555998884,None,251.90118479984812,None,251.90118479984812,None,251.90118479984812,None,253.6956648598658,None,253.6956648598658,None,253.6956648598658,None,,,,,,,,,,,,,,101,2023-03-27_10h52.27.598,Main,2022.1.1,60.024514058447785,
positive,positive,1,l,j,,,,,,,,,3,3,57,2,,,,,,,,,main,1,1,1,positive,positive,j,j,1,0.7316398001275957,253.7005278998986,254.7149727998767,254.67895770003088,None,253.7005278998986,None,253.7005278998986,None,253.7005278998986,None,255.42888805994298,None,255.42888805994298,None,255.42888805994298,None,,,,,,,,,,,,,,101,2023-03-27_10h52.27.598,Main,2022.1.1,60.024514058447785,
positive,negative,1,l,j,,,,,,,,,3,4,58,5,,,,,,,,,main,2,2,1,negative,positive,j,j,1,0.7650160000193864,255.43177299993113,256.44559819996357,256.4122762000188,None,255.43177299993113,None,255.43177299993113,None,255.43177299993113,None,257.19551525989084,None,257.19551525989084,None,257.19551525989084,None,,,,,,,,,,,,,,101,2023-03-27_10h52.27.598,Main,2022.1.1,60.024514058447785,
neutral,positive,2,k,k,,,,,,,,,3,5,59,13,,,,,,,,,main,1,1,2,positive,neutral,k,k,1,0.6976206998806447,257.19941599993035,258.21501879999414,258.19835029984824,None,257.19941599993035,None,257.19941599993035,None,257.19941599993035,None,258.89550325998573,None,258.89550325998573,None,258.89550325998573,None,,,,,,,,,,,,,,101,2023-03-27_10h52.27.598,Main,2022.1.1,60.024514058447785,
negative,positive,1,j,l,,,,,,,,,3,6,60,6,,,,,,,,,main,1,1,1,positive,negative,l,l,1,0.8819907000288367,258.89935679989867,259.9123004998546,259.87884839996696,None,258.89935679989867,None,258.89935679989867,None,258.89935679989867,None,260.7787900599884,None,260.7787900599884,None,260.7787900599884,None,,,,,,,,,,,,,,101,2023-03-27_10h52.27.598,Main,2022.1.1,60.024514058447785,
neutral,neutral,2,k,k,,,,,,,,,3,7,61,10,,,,,,,,,main,2,2,2,neutral,neutral,k,k,1,0.7651752000674605,260.7840410999488,261.79819249990396,261.78155749989673,None,260.7840410999488,None,260.7840410999488,None,260.7840410999488,None,262.54540815998337,None,262.54540815998337,None,262.54540815998337,None,,,,,,,,,,,,,,101,2023-03-27_10h52.27.598,Main,2022.1.1,60.024514058447785,
neutral,negative,2,k,k,,,,,,,,,3,8,62,16,,,,,,,,,main,1,1,2,negative,neutral,k,k,1,0.648219299968332,262.5505160000175,263.56215599994175,263.5454179998487,None,262.5505160000175,None,262.5505160000175,None,262.5505160000175,None,264.1953942599008,None,264.1953942599008,None,264.1953942599008,None,,,,,,,,,,,,,,101,2023-03-27_10h52.27.598,Main,2022.1.1,60.024514058447785,
positive,neutral,1,l,j,,,,,,,,,3,9,63,8,,,,,,,,,main,1,1,1,neutral,positive,j,j,1,0.7682125999126583,264.20017409999855,265.21490240003914,265.17876439983957,None,264.20017409999855,None,264.20017409999855,None,264.20017409999855,None,265.9647180598928,None,265.9647180598928,None,265.9647180598928,None,,,,,,,,,,,,,,101,2023-03-27_10h52.27.598,Main,2022.1.1,60.024514058447785,
positive,positive,2,l,j,,,,,,,,,3,10,64,11,,,,,,,,,main,2,2,2,positive,positive,j,k,0,0.7455434000585228,265.9680532999337,266.97873229999095,266.9620584999211,None,265.9680532999337,None,265.9680532999337,None,265.9680532999337,None,267.71204339992255,None,267.71204339992255,None,267.71204339992255,None,,,,,,,,,,,,,,101,2023-03-27_10h52.27.598,Main,2022.1.1,60.024514058447785,
positive,neutral,2,l,j,,,,,,,,,3,11,65,17,,,,,,,,,main,2,2,2,neutral,positive,j,j,1,0.7840122000779957,268.7128643000033,269.71201489982195,269.6953294998966,None,268.7128643000033,None,268.7128643000033,None,268.7128643000033,None,270.4952744599665,None,270.4952744599665,None,270.4952744599665,None,,,,,,,,,,,,,,101,2023-03-27_10h52.27.598,Main,2022.1.1,60.024514058447785,
neutral,positive,1,k,k,,,,,,,,,3,12,66,4,,,,,,,,,main,1,1,1,positive,neutral,k,k,1,0.7647355000954121,270.5004306000192,271.51202639983967,271.49818899994716,None,270.5004306000192,None,270.5004306000192,None,270.5004306000192,None,272.26188406001313,None,272.26188406001313,None,272.26188406001313,None,,,,,,,,,,,,,,101,2023-03-27_10h52.27.598,Main,2022.1.1,60.024514058447785,
neutral,neutral,1,k,k,,,,,,,,,3,13,67,1,,,,,,,,,main,2,2,1,neutral,neutral,k,k,1,0.8319045999087393,272.26750449999236,273.278563400032,273.26188550004736,None,272.26750449999236,None,272.26750449999236,None,272.26750449999236,None,274.0952030599816,None,274.0952030599816,None,274.0952030599816,None,,,,,,,,,,,,,,101,2023-03-27_10h52.27.598,Main,2022.1.1,60.024514058447785,
negative,neutral,1,j,l,,,,,,,,,3,14,68,3,,,,,,,,,main,2,2,1,neutral,negative,l,l,1,0.9357628000434488,274.1000587998424,275.1118892999366,275.0786810000427,None,274.1000587998424,None,274.1000587998424,None,274.1000587998424,None,276.03128665990664,None,276.03128665990664,None,276.03128665990664,None,,,,,,,,,,,,,,101,2023-03-27_10h52.27.598,Main,2022.1.1,60.024514058447785,
positive,negative,2,l,j,,,,,,,,,3,15,69,14,,,,,,,,,main,1,1,2,negative,positive,j,j,1,1.0445884000509977,276.03563349996693,277.04518330004066,277.02852229983546,None,276.03563349996693,None,276.03563349996693,None,276.03563349996693,None,278.07857406002006,None,278.07857406002006,None,278.07857406002006,None,,,,,,,,,,,,,,101,2023-03-27_10h52.27.598,Main,2022.1.1,60.024514058447785,
neutral,negative,1,k,k,,,,,,,,,3,16,70,7,,,,,,,,,main,2,2,1,negative,neutral,k,k,1,0.8317688999231905,278.0835674998816,279.09515059995465,279.0618359998334,None,278.0835674998816,None,278.0835674998816,None,278.0835674998816,None,279.91174915994054,None,279.91174915994054,None,279.91174915994054,None,,,,,,,,,,,,,,101,2023-03-27_10h52.27.598,Main,2022.1.1,60.024514058447785,
negative,positive,2,j,l,,,,,,,,,3,17,71,15,,,,,,,,,main,2,2,2,positive,negative,l,l,1,0.9817250999622047,279.91699810000136,280.9284810000099,280.91175760002807,None,279.91699810000136,None,279.91699810000136,None,279.91699810000136,None,281.895038859942,None,281.895038859942,None,281.895038859942,None,,,,,,,,,,,,,,101,2023-03-27_10h52.27.598,Main,2022.1.1,60.024514058447785,
neutral,positive,2,k,k,,,,,,,,,4,0,72,13,,,,,,,,,main,1,1,2,positive,neutral,k,k,1,0.8151597999967635,281.8998666999396,282.91171259991825,282.87838499993086,None,281.8998666999396,None,281.8998666999396,None,281.8998666999396,None,283.711672359868,None,283.711672359868,None,283.711672359868,None,,,,,,,,,,,,,,101,2023-03-27_10h52.27.598,Main,2022.1.1,60.024514058447785,
positive,neutral,1,l,j,,,,,,,,,4,1,73,8,,,,,,,,,main,1,1,1,neutral,positive,j,j,1,0.6641447001602501,283.71521409996785,284.7310162000358,284.7116951998323,None,283.71521409996785,None,283.71521409996785,None,283.71521409996785,None,285.3783071600134,None,285.3783071600134,None,285.3783071600134,None,,,,,,,,,,,,,,101,2023-03-27_10h52.27.598,Main,2022.1.1,60.024514058447785,
neutral,negative,1,k,k,,,,,,,,,4,2,74,7,,,,,,,,,main,1,1,1,negative,neutral,k,k,1,0.6655119000934064,285.38187239994295,286.39764279988594,286.3811055000406,None,285.38187239994295,None,285.38187239994295,None,285.38187239994295,None,287.04495676003864,None,287.04495676003864,None,287.04495676003864,None,,,,,,,,,,,,,,101,2023-03-27_10h52.27.598,Main,2022.1.1,60.024514058447785,
negative,positive,2,j,l,,,,,,,,,4,3,75,15,,,,,,,,,main,1,1,2,positive,negative,l,l,1,0.9984295000322163,287.0503030999098,288.0616315000225,288.0476842999924,None,287.0503030999098,None,287.0503030999098,None,287.0503030999098,None,289.0450934600318,None,289.0450934600318,None,289.0450934600318,None,,,,,,,,,,,,,,101,2023-03-27_10h52.27.598,Main,2022.1.1,60.024514058447785,
neutral,neutral,1,k,k,,,,,,,,,4,4,76,1,,,,,,,,,main,2,2,1,neutral,neutral,k,l,0,-0.4651605000253767,289.04805279988796,None,None,None,289.04805279988796,None,289.04805279988796,None,289.04805279988796,None,289.58047789987177,None,289.58047789987177,None,289.58047789987177,None,,,,,,,,,,,,,,101,2023-03-27_10h52.27.598,Main,2022.1.1,60.024514058447785,
positive,negative,1,l,j,,,,,,,,,4,5,77,5,,,,,,,,,main,2,2,1,negative,positive,j,j,1,0.7701754998415709,292.5788270998746,293.58086630003527,293.56434349995106,None,292.5788270998746,None,292.5788270998746,None,292.5788270998746,None,294.3474619598361,None,294.3474619598361,None,294.3474619598361,None,,,,,,,,,,,,,,101,2023-03-27_10h52.27.598,Main,2022.1.1,60.024514058447785,
positive,neutral,2,l,j,,,,,,,,,4,6,78,17,,,,,,,,,main,2,2,2,neutral,positive,j,j,1,0.694876299938187,294.35155589994974,295.36146349995397,295.3447889999952,None,294.35155589994974,None,294.35155589994974,None,294.35155589994974,None,296.04467705988793,None,296.04467705988793,None,296.04467705988793,None,,,,,,,,,,,,,,101,2023-03-27_10h52.27.598,Main,2022.1.1,60.024514058447785,
positive,positive,2,l,j,,,,,,,,,4,7,79,11,,,,,,,,,main,1,1,2,positive,positive,j,j,1,0.6482017999514937,296.0512570999563,297.0643058998976,297.0448018000461,None,296.0512570999563,None,296.0512570999563,None,296.0512570999563,None,297.69472125989853,None,297.69472125989853,None,297.69472125989853,None,,,,,,,,,,,,,,101,2023-03-27_10h52.27.598,Main,2022.1.1,60.024514058447785,
negative,negative,1,j,l,,,,,,,,,4,8,80,0,,,,,,,,,main,2,2,1,negative,negative,l,l,1,0.7669434000272304,297.711430599913,298.71140329982154,298.6974573000334,None,297.711430599913,None,297.711430599913,None,297.711430599913,None,299.4640339599224,None,299.4640339599224,None,299.4640339599224,None,,,,,,,,,,,,,,101,2023-03-27_10h52.27.598,Main,2022.1.1,60.024514058447785,
positive,positive,1,l,j,,,,,,,,,4,9,81,2,,,,,,,,,main,1,1,1,positive,positive,j,j,1,0.8288917001336813,299.46714710001834,300.48079880001023,300.46139839990065,None,299.46714710001834,None,299.46714710001834,None,299.46714710001834,None,301.294724060013,None,301.294724060013,None,301.294724060013,None,,,,,,,,,,,,,,101,2023-03-27_10h52.27.598,Main,2022.1.1,60.024514058447785,
negative,negative,2,j,l,,,,,,,,,4,10,82,9,,,,,,,,,main,1,1,2,negative,negative,l,l,1,0.9317296000663191,301.2974570998922,302.31403509993106,302.2974252998829,None,301.2974570998922,None,301.2974570998922,None,301.2974570998922,None,303.22768765992953,None,303.22768765992953,None,303.22768765992953,None,,,,,,,,,,,,,,101,2023-03-27_10h52.27.598,Main,2022.1.1,60.024514058447785,
negative,positive,1,j,l,,,,,,,,,4,11,83,6,,,,,,,,,main,1,1,1,positive,negative,l,l,1,0.7155895000323653,303.2327793999575,304.247294700006,304.2279792998452,None,303.2327793999575,None,303.2327793999575,None,303.2327793999575,None,304.94469765995166,None,304.94469765995166,None,304.94469765995166,None,,,,,,,,,,,,,,101,2023-03-27_10h52.27.598,Main,2022.1.1,60.024514058447785,
neutral,neutral,2,k,k,,,,,,,,,4,12,84,10,,,,,,,,,main,2,2,2,neutral,neutral,k,k,1,0.7816088001709431,304.9501038999297,305.9612898998894,305.94460259983316,None,304.9501038999297,None,304.9501038999297,None,304.9501038999297,None,306.72788375990933,None,306.72788375990933,None,306.72788375990933,None,,,,,,,,,,,,,,101,2023-03-27_10h52.27.598,Main,2022.1.1,60.024514058447785,
negative,neutral,1,j,l,,,,,,,,,4,13,85,3,,,,,,,,,main,2,2,1,neutral,negative,l,l,1,0.714998499955982,306.7312316999305,307.7279564999044,307.7279564999044,None,306.7312316999305,None,306.7312316999305,None,306.7312316999305,None,308.4445244600298,None,308.4445244600298,None,308.4445244600298,None,,,,,,,,,,,,,,101,2023-03-27_10h52.27.598,Main,2022.1.1,60.024514058447785,
neutral,negative,2,k,k,,,,,,,,,4,14,86,16,,,,,,,,,main,1,1,2,negative,neutral,k,k,1,0.6816559999715537,308.44952719984576,309.46121630002744,309.4445384000428,None,308.44952719984576,None,308.44952719984576,None,308.44952719984576,None,310.1278385599377,None,310.1278385599377,None,310.1278385599377,None,,,,,,,,,,,,,,101,2023-03-27_10h52.27.598,Main,2022.1.1,60.024514058447785,
neutral,positive,1,k,k,,,,,,,,,4,15,87,4,,,,,,,,,main,1,1,1,positive,neutral,k,k,1,0.7149757000152022,310.13124109990895,311.1445052998606,311.12783929985017,None,310.13124109990895,None,310.13124109990895,None,310.13124109990895,None,311.844239459862,None,311.844239459862,None,311.844239459862,None,,,,,,,,,,,,,,101,2023-03-27_10h52.27.598,Main,2022.1.1,60.024514058447785,
positive,negative,2,l,j,,,,,,,,,4,16,88,14,,,,,,,,,main,2,2,2,negative,positive,j,j,1,0.8151799000333995,311.8502577999607,312.86114139994606,312.8444974999875,None,311.8502577999607,None,311.8502577999607,None,311.8502577999607,None,313.66110175990036,None,313.66110175990036,None,313.66110175990036,None,,,,,,,,,,,,,,101,2023-03-27_10h52.27.598,Main,2022.1.1,60.024514058447785,
negative,neutral,2,j,l,,,,,,,,,4,17,89,12,,,,,,,,,main,2,2,2,neutral,negative,l,l,1,0.7984042000025511,313.66412810003385,314.6777965000365,314.6611193998251,None,313.66412810003385,None,313.66412810003385,None,313.66412810003385,None,315.46104375997095,None,315.46104375997095,None,315.46104375997095,None,,,,,,,,,,,,,,101,2023-03-27_10h52.27.598,Main,2022.1.1,60.024514058447785,
neutral,positive,1,k,k,,,,,,,,,5,0,90,4,,,,,,,,,main,1,1,1,positive,neutral,k,k,1,0.701142500154674,315.466475199908,316.47776879998855,316.4638643998187,None,315.466475199908,None,315.466475199908,None,315.466475199908,None,317.1636757599423,None,317.1636757599423,None,317.1636757599423,None,,,,,,,,,,,,,,101,2023-03-27_10h52.27.598,Main,2022.1.1,60.024514058447785,
neutral,negative,1,k,k,,,,,,,,,5,1,91,7,,,,,,,,,main,2,2,1,negative,neutral,k,k,1,0.6957553001120687,317.16635730001144,318.1777178000193,318.1610588999465,None,317.16635730001144,None,317.16635730001144,None,317.16635730001144,None,318.8609701600159,None,318.8609701600159,None,318.8609701600159,None,,,,,,,,,,,,,,101,2023-03-27_10h52.27.598,Main,2022.1.1,60.024514058447785,
positive,positive,1,l,j,,,,,,,,,5,2,92,2,,,,,,,,,main,2,2,1,positive,positive,j,j,1,0.8316720000002533,318.86609709984623,319.8776636000257,319.8637039999012,None,318.86609709984623,None,318.86609709984623,None,318.86609709984623,None,320.6943182598567,None,320.6943182598567,None,320.6943182598567,None,,,,,,,,,,,,,,101,2023-03-27_10h52.27.598,Main,2022.1.1,60.024514058447785,
neutral,neutral,2,k,k,,,,,,,,,5,3,93,10,,,,,,,,,main,1,1,2,neutral,neutral,k,k,1,0.6483560998458415,320.6981923999265,321.7109749999363,321.6804452999495,None,320.6981923999265,None,320.6981923999265,None,320.6981923999265,None,322.3443282598397,None,322.3443282598397,None,322.3443282598397,None,,,,,,,,,,,,,,101,2023-03-27_10h52.27.598,Main,2022.1.1,60.024514058447785,
neutral,positive,2,k,k,,,,,,,,,5,4,94,13,,,,,,,,,main,1,1,2,positive,neutral,k,k,1,0.6319522999692708,322.3471824999433,323.36094839987345,323.3276531000156,None,322.3471824999433,None,322.3471824999433,None,322.3471824999433,None,323.97756296002774,None,323.97756296002774,None,323.97756296002774,None,,,,,,,,,,,,,,101,2023-03-27_10h52.27.598,Main,2022.1.1,60.024514058447785,
positive,negative,1,l,j,,,,,,,,,5,5,95,5,,,,,,,,,main,1,1,1,negative,positive,j,j,1,0.8482973999343812,323.9807706999127,324.9775777000468,324.9775777000468,None,323.9807706999127,None,323.9807706999127,None,323.9807706999127,None,325.8275214599213,None,325.8275214599213,None,325.8275214599213,None,,,,,,,,,,,,,,101,2023-03-27_10h52.27.598,Main,2022.1.1,60.024514058447785,
positive,neutral,1,l,j,,,,,,,,,5,6,96,8,,,,,,,,,main,1,1,1,neutral,positive,j,j,1,0.6816458001267165,325.83067719987594,326.8468597000465,326.8303276998922,None,325.83067719987594,None,325.83067719987594,None,325.83067719987594,None,327.51080995986706,None,327.51080995986706,None,327.51080995986706,None,,,,,,,,,,,,,,101,2023-03-27_10h52.27.598,Main,2022.1.1,60.024514058447785,
negative,neutral,1,j,l,,,,,,,,,5,7,97,3,,,,,,,,,main,2,2,1,neutral,negative,l,l,1,0.9150012999307364,327.51608999981545,328.52747499989346,328.51082600001246,None,327.51608999981545,None,327.51608999981545,None,327.51608999981545,None,329.4274692598498,None,329.4274692598498,None,329.4274692598498,None,,,,,,,,,,,,,,101,2023-03-27_10h52.27.598,Main,2022.1.1,60.024514058447785,
positive,negative,2,l,j,,,,,,,,,5,8,98,14,,,,,,,,,main,2,2,2,negative,positive,j,j,1,0.9149424999486655,329.4325210999232,330.4441504999995,330.430367999943,None,329.4325210999232,None,329.4325210999232,None,329.4325210999232,None,331.34410105997233,None,331.34410105997233,None,331.34410105997233,None,,,,,,,,,,,,,,101,2023-03-27_10h52.27.598,Main,2022.1.1,60.024514058447785,
negative,negative,2,j,l,,,,,,,,,5,9,99,9,,,,,,,,,main,2,2,2,negative,negative,l,l,1,0.8152713000308722,331.34980709990487,332.3607872999273,332.3274327998515,None,331.34980709990487,None,331.34980709990487,None,331.34980709990487,None,333.1606856598752,None,333.1606856598752,None,333.1606856598752,None,,,,,,,,,,,,,,101,2023-03-27_10h52.27.598,Main,2022.1.1,60.024514058447785,
neutral,neutral,1,k,k,,,,,,,,,5,10,100,1,,,,,,,,,main,2,2,1,neutral,neutral,k,k,1,0.8981780000030994,333.1657679998316,334.1801503999159,334.16073019988835,None,333.1657679998316,None,333.1657679998316,None,333.1657679998316,None,335.0606669599889,None,335.0606669599889,None,335.0606669599889,None,,,,,,,,,,,,,,101,2023-03-27_10h52.27.598,Main,2022.1.1,60.024514058447785,
negative,positive,1,j,l,,,,,,,,,5,11,101,6,,,,,,,,,main,1,1,1,positive,negative,l,l,1,0.9650795999914408,335.0646466999315,336.07737679989077,336.0634469999932,None,335.0646466999315,None,335.0646466999315,None,335.0646466999315,None,337.02729265999517,None,337.02729265999517,None,337.02729265999517,None,,,,,,,,,,,,,,101,2023-03-27_10h52.27.598,Main,2022.1.1,60.024514058447785,
positive,positive,2,l,j,,,,,,,,,5,12,102,11,,,,,,,,,main,2,2,2,positive,positive,j,j,1,0.7510907999239862,337.0440615999978,338.0439989999868,338.03017199994065,None,337.0440615999978,None,337.0440615999978,None,337.0440615999978,None,338.7799564600224,None,338.7799564600224,None,338.7799564600224,None,,,,,,,,,,,,,,101,2023-03-27_10h52.27.598,Main,2022.1.1,60.024514058447785,
negative,positive,2,j,l,,,,,,,,,5,13,103,15,,,,,,,,,main,2,2,2,positive,negative,l,l,1,0.8789969000499696,338.7834689998999,339.7965698998887,339.7799754999578,None,338.7834689998999,None,338.7834689998999,None,338.7834689998999,None,340.6607425599592,None,340.6607425599592,None,340.6607425599592,None,,,,,,,,,,,,,,101,2023-03-27_10h52.27.598,Main,2022.1.1,60.024514058447785,
negative,neutral,2,j,l,,,,,,,,,5,14,104,12,,,,,,,,,main,2,2,2,neutral,negative,l,l,1,0.7645017001777887,340.66436059982516,341.6772259999998,341.66057699988596,None,340.66436059982516,None,340.66436059982516,None,340.66436059982516,None,342.4272075598361,None,342.4272075598361,None,342.4272075598361,None,,,,,,,,,,,,,,101,2023-03-27_10h52.27.598,Main,2022.1.1,60.024514058447785,
neutral,negative,2,k,k,,,,,,,,,5,15,105,16,,,,,,,,,main,2,2,2,negative,neutral,k,k,1,0.6482339999638498,342.43019309989177,343.4272121998947,343.41329209995456,None,342.43019309989177,None,342.43019309989177,None,342.43019309989177,None,344.07716586000754,None,344.07716586000754,None,344.07716586000754,None,,,,,,,,,,,,,,101,2023-03-27_10h52.27.598,Main,2022.1.1,60.024514058447785,
positive,neutral,2,l,j,,,,,,,,,5,16,106,17,,,,,,,,,main,2,2,2,neutral,positive,j,j,1,0.7819362001027912,344.08037029998377,345.0799121998716,345.0632807998918,None,344.08037029998377,None,344.08037029998377,None,344.08037029998377,None,345.86046495989433,None,345.86046495989433,None,345.86046495989433,None,,,,,,,,,,,,,,101,2023-03-27_10h52.27.598,Main,2022.1.1,60.024514058447785,
negative,negative,1,j,l,,,,,,,,,5,17,107,0,,,,,,,,,main,2,2,1,negative,negative,l,l,1,1.0150784999132156,345.86356329987757,346.879760999931,346.86046869982965,None,345.86356329987757,None,345.86356329987757,None,345.86356329987757,None,347.8770815599943,None,347.8770815599943,None,347.8770815599943,None,,,,,,,,,,,,,,101,2023-03-27_10h52.27.598,Main,2022.1.1,60.024514058447785,
neutral,positive,2,k,k,,,,,,,,,6,0,108,13,,,,,,,,,main,2,2,2,positive,neutral,k,k,1,0.948490499984473,347.8821443999186,348.8937941000331,348.8770965000149,None,347.8821443999186,None,347.8821443999186,None,347.8821443999186,None,349.82718016,None,349.82718016,None,349.82718016,None,,,,,,,,,,,,,,101,2023-03-27_10h52.27.598,Main,2022.1.1,60.024514058447785,
neutral,negative,2,k,k,,,,,,,,,6,1,109,16,,,,,,,,,main,1,1,2,negative,neutral,k,k,1,0.898116699885577,349.8301478999201,350.82706100004725,350.82706100004725,None,349.8301478999201,None,349.8301478999201,None,349.8301478999201,None,351.72702325999273,None,351.72702325999273,None,351.72702325999273,None,,,,,,,,,,,,,,101,2023-03-27_10h52.27.598,Main,2022.1.1,60.024514058447785,
negative,positive,1,j,l,,,,,,,,,6,2,110,6,,,,,,,,,main,2,2,1,positive,negative,l,l,1,0.7817041999660432,351.73040389991365,352.72985440003686,352.72985440003686,None,351.73040389991365,None,351.73040389991365,None,351.73040389991365,None,353.5103286598111,None,353.5103286598111,None,353.5103286598111,None,,,,,,,,,,,,,,101,2023-03-27_10h52.27.598,Main,2022.1.1,60.024514058447785,
neutral,neutral,1,k,k,,,,,,,,,6,3,111,1,,,,,,,,,main,2,2,1,neutral,neutral,k,k,1,0.7317790000233799,353.51328279986046,354.5130663998425,354.5130663998425,None,353.51328279986046,None,353.51328279986046,None,353.51328279986046,None,355.24365715987517,None,355.24365715987517,None,355.24365715987517,None,,,,,,,,,,,,,,101,2023-03-27_10h52.27.598,Main,2022.1.1,60.024514058447785,
negative,neutral,1,j,l,,,,,,,,,6,4,112,3,,,,,,,,,main,2,2,1,neutral,negative,l,l,1,0.7985010000411421,355.24668499990366,356.26033620000817,356.2269517998211,None,355.24668499990366,None,355.24668499990366,None,355.24668499990366,None,357.0435772598954,None,357.0435772598954,None,357.0435772598954,None,,,,,,,,,,,,,,101,2023-03-27_10h52.27.598,Main,2022.1.1,60.024514058447785,
positive,positive,1,l,j,,,,,,,,,6,5,113,2,,,,,,,,,main,1,1,1,positive,positive,j,j,1,0.8150131001602858,357.06314899981953,358.0630445999559,358.04644769988954,None,357.06314899981953,None,357.06314899981953,None,357.06314899981953,None,358.86019705983347,None,358.86019705983347,None,358.86019705983347,None,,,,,,,,,,,,,,101,2023-03-27_10h52.27.598,Main,2022.1.1,60.024514058447785,
negative,negative,1,j,l,,,,,,,,,6,6,114,0,,,,,,,,,main,2,2,1,negative,negative,l,l,1,1.1826687001157552,358.86338069988415,359.87951949983835,359.8630105999764,None,358.86338069988415,None,358.86338069988415,None,358.86338069988415,None,361.0435037599178,None,361.0435037599178,None,361.0435037599178,None,,,,,,,,,,,,,,101,2023-03-27_10h52.27.598,Main,2022.1.1,60.024514058447785,
positive,negative,2,l,j,,,,,,,,,6,7,115,14,,,,,,,,,main,1,1,2,negative,positive,j,j,1,0.8640922999475151,361.0473982999101,362.0602120999247,362.04636389994994,None,361.0473982999101,None,361.0473982999101,None,361.0473982999101,None,362.9101259599207,None,362.9101259599207,None,362.9101259599207,None,,,,,,,,,,,,,,101,2023-03-27_10h52.27.598,Main,2022.1.1,60.024514058447785,
negative,neutral,2,j,l,,,,,,,,,6,8,116,12,,,,,,,,,main,1,1,2,neutral,negative,l,l,1,1.06525110010989,362.91488950001076,363.92678370000795,363.89352929987945,None,362.91488950001076,None,362.91488950001076,None,362.91488950001076,None,364.9767615599791,None,364.9767615599791,None,364.9767615599791,None,,,,,,,,,,,,,,101,2023-03-27_10h52.27.598,Main,2022.1.1,60.024514058447785,
negative,negative,2,j,l,,,,,,,,,6,9,117,9,,,,,,,,,main,2,2,2,negative,negative,l,l,1,0.7820031999144703,364.981746400008,365.9934355998412,365.9767592998687,None,364.981746400008,None,364.981746400008,None,364.981746400008,None,366.7604321600171,None,366.7604321600171,None,366.7604321600171,None,,,,,,,,,,,,,,101,2023-03-27_10h52.27.598,Main,2022.1.1,60.024514058447785,
positive,positive,2,l,j,,,,,,,,,6,10,118,11,,,,,,,,,main,1,1,2,positive,positive,j,j,1,1.0336016998626292,366.7643819998484,367.77676020003855,367.7628987999633,None,366.7643819998484,None,366.7643819998484,None,366.7643819998484,None,368.79617115997246,None,368.79617115997246,None,368.79617115997246,None,,,,,,,,,,,,,,101,2023-03-27_10h52.27.598,Main,2022.1.1,60.024514058447785,
neutral,positive,1,k,k,,,,,,,,,6,11,119,4,,,,,,,,,main,2,2,1,positive,neutral,k,k,1,0.6961537001188844,368.7995465998538,369.8127389999572,369.796114299912,None,368.7995465998538,None,368.7995465998538,None,368.7995465998538,None,370.4933186599752,None,370.4933186599752,None,370.4933186599752,None,,,,,,,,,,,,,,101,2023-03-27_10h52.27.598,Main,2022.1.1,60.024514058447785,
negative,positive,2,j,l,,,,,,,,,6,12,120,15,,,,,,,,,main,1,1,2,positive,negative,l,l,1,0.7316604000516236,370.4973426000215,371.51283369981684,371.49335030000657,None,370.4973426000215,None,370.4973426000215,None,370.4973426000215,None,372.22662005994937,None,372.22662005994937,None,372.22662005994937,None,,,,,,,,,,,,,,101,2023-03-27_10h52.27.598,Main,2022.1.1,60.024514058447785,
neutral,neutral,2,k,k,,,,,,,,,6,13,121,10,,,,,,,,,main,1,1,2,neutral,neutral,k,k,1,0.6638279999606311,372.2305707000196,373.2459246998187,373.2266615999397,None,372.2305707000196,None,372.2305707000196,None,372.2305707000196,None,373.89323005990593,None,373.89323005990593,None,373.89323005990593,None,,,,,,,,,,,,,,101,2023-03-27_10h52.27.598,Main,2022.1.1,60.024514058447785,
neutral,negative,1,k,k,,,,,,,,,6,14,122,7,,,,,,,,,main,2,2,1,negative,neutral,k,k,1,0.6822357999626547,373.8955593998544,374.91253399988636,374.893317299895,None,373.8955593998544,None,373.8955593998544,None,373.8955593998544,None,375.5765643599676,None,375.5765643599676,None,375.5765643599676,None,,,,,,,,,,,,,,101,2023-03-27_10h52.27.598,Main,2022.1.1,60.024514058447785,
positive,neutral,1,l,j,,,,,,,,,6,15,123,8,,,,,,,,,main,1,1,1,neutral,positive,j,j,1,0.797751700039953,375.5800329998601,376.57661079987884,376.57661079987884,None,375.5800329998601,None,375.5800329998601,None,375.5800329998601,None,377.376577259996,None,377.376577259996,None,377.376577259996,None,,,,,,,,,,,,,,101,2023-03-27_10h52.27.598,Main,2022.1.1,60.024514058447785,
positive,negative,1,l,j,,,,,,,,,6,16,124,5,,,,,,,,,main,1,1,1,negative,positive,j,j,1,0.9016001001000404,377.38029749994166,378.3958870000206,378.37651939992793,None,377.38029749994166,None,377.38029749994166,None,377.38029749994166,None,379.2791840599617,None,379.2791840599617,None,379.2791840599617,None,,,,,,,,,,,,,,101,2023-03-27_10h52.27.598,Main,2022.1.1,60.024514058447785,
positive,neutral,2,l,j,,,,,,,,,6,17,125,17,,,,,,,,,main,2,2,2,neutral,positive,j,j,1,0.7979693999513984,379.28212119988166,380.2931756998878,380.2765216999687,None,379.28212119988166,None,379.28212119988166,None,379.28212119988166,None,381.07904745989947,None,381.07904745989947,None,381.07904745989947,None,,,,,,,,,,,,,,101,2023-03-27_10h52.27.598,Main,2022.1.1,60.024514058447785,
positive,negative,2,l,j,,,,,,,,,7,0,126,14,,,,,,,,,main,2,2,2,negative,positive,j,j,1,0.6490098999347538,381.08210100000724,382.0931758999359,382.07645890000276,None,381.08210100000724,None,381.08210100000724,None,381.08210100000724,None,382.729221759853,None,382.729221759853,None,382.729221759853,None,,,,,,,,,,,,,,101,2023-03-27_10h52.27.598,Main,2022.1.1,60.024514058447785,
negative,positive,2,j,l,,,,,,,,,7,1,127,15,,,,,,,,,main,1,1,2,positive,negative,l,l,1,0.7980116999242455,382.73249389999546,383.74315939983353,383.72640970000066,None,382.73249389999546,None,382.73249389999546,None,382.73249389999546,None,384.52907715996264,None,384.52907715996264,None,384.52907715996264,None,,,,,,,,,,,,,,101,2023-03-27_10h52.27.598,Main,2022.1.1,60.024514058447785,
neutral,neutral,2,k,k,,,,,,,,,7,2,128,10,,,,,,,,,main,1,1,2,neutral,neutral,k,k,1,0.6623538001440465,384.5324527998455,385.5430433000438,385.5264115999453,None,384.5324527998455,None,384.5324527998455,None,384.5324527998455,None,386.19301695984325,None,386.19301695984325,None,386.19301695984325,None,,,,,,,,,,,,,,101,2023-03-27_10h52.27.598,Main,2022.1.1,60.024514058447785,
neutral,negative,1,k,k,,,,,,,,,7,3,129,7,,,,,,,,,main,2,2,1,negative,neutral,k,k,1,0.6985969000961632,386.19589430000633,387.212356899865,387.19577879994176,None,386.19589430000633,None,386.19589430000633,None,386.19589430000633,None,387.89294515994845,None,387.89294515994845,None,387.89294515994845,None,,,,,,,,,,,,,,101,2023-03-27_10h52.27.598,Main,2022.1.1,60.024514058447785,
positive,positive,1,l,j,,,,,,,,,7,4,130,2,,,,,,,,,main,1,1,1,positive,positive,j,j,1,0.7985356000717729,387.8958870000206,388.9096377999522,388.87630589981563,None,387.8958870000206,None,387.8958870000206,None,387.8958870000206,None,389.6929570599692,None,389.6929570599692,None,389.6929570599692,None,,,,,,,,,,,,,,101,2023-03-27_10h52.27.598,Main,2022.1.1,60.024514058447785,
neutral,positive,2,k,k,,,,,,,,,7,5,131,13,,,,,,,,,main,2,2,2,positive,neutral,k,k,1,0.7154508999083191,389.6957233999856,390.71242449991405,390.6929510999471,None,389.6957233999856,None,389.6957233999856,None,389.6957233999856,None,391.4095733599039,None,391.4095733599039,None,391.4095733599039,None,,,,,,,,,,,,,,101,2023-03-27_10h52.27.598,Main,2022.1.1,60.024514058447785,
negative,neutral,2,j,l,,,,,,,,,7,6,132,12,,,,,,,,,main,2,2,2,neutral,negative,l,l,1,0.8480314000044018,391.41287139989436,392.4262545998208,392.40960759995505,None,391.41287139989436,None,391.41287139989436,None,391.41287139989436,None,393.2595589598874,None,393.2595589598874,None,393.2595589598874,None,,,,,,,,,,,,,,101,2023-03-27_10h52.27.598,Main,2022.1.1,60.024514058447785,
neutral,negative,2,k,k,,,,,,,,,7,7,133,16,,,,,,,,,main,1,1,2,negative,neutral,k,k,1,0.6482245998922735,393.26255410001613,394.26224199985154,394.26224199985154,None,393.26255410001613,None,393.26255410001613,None,393.26255410001613,None,394.9095583600225,None,394.9095583600225,None,394.9095583600225,None,,,,,,,,,,,,,,101,2023-03-27_10h52.27.598,Main,2022.1.1,60.024514058447785,
positive,neutral,1,l,j,,,,,,,,,7,8,134,8,,,,,,,,,main,2,2,1,neutral,positive,j,j,1,0.8837612001225352,394.9133011000231,395.9261681998614,395.91222389996983,None,394.9133011000231,None,394.9133011000231,None,394.9133011000231,None,396.79550905993676,None,396.79550905993676,None,396.79550905993676,None,,,,,,,,,,,,,,101,2023-03-27_10h52.27.598,Main,2022.1.1,60.024514058447785,
negative,neutral,1,j,l,,,,,,,,,7,9,135,3,,,,,,,,,main,2,2,1,neutral,negative,l,l,1,0.879253099905327,396.7979520999361,397.8094897000119,397.7928132999223,None,396.7979520999361,None,396.7979520999361,None,396.7979520999361,None,398.6761038599303,None,398.6761038599303,None,398.6761038599303,None,,,,,,,,,,,,,,101,2023-03-27_10h52.27.598,Main,2022.1.1,60.024514058447785,
positive,neutral,2,l,j,,,,,,,,,7,10,136,17,,,,,,,,,main,2,2,2,neutral,positive,j,j,1,0.6817403000313789,398.6793948998675,399.67891659983434,399.67891659983434,None,398.6793948998675,None,398.6793948998675,None,398.6793948998675,None,400.35948195985986,None,400.35948195985986,None,400.35948195985986,None,,,,,,,,,,,,,,101,2023-03-27_10h52.27.598,Main,2022.1.1,60.024514058447785,
negative,negative,1,j,l,,,,,,,,,7,11,137,0,,,,,,,,,main,1,1,1,negative,negative,l,l,1,0.8145438998471946,400.3633761999663,401.37611650000326,401.35944879986346,None,400.3633761999663,None,400.3633761999663,None,400.3633761999663,None,402.17604925998023,None,402.17604925998023,None,402.17604925998023,None,,,,,,,,,,,,,,101,2023-03-27_10h52.27.598,Main,2022.1.1,60.024514058447785,
positive,positive,2,l,j,,,,,,,,,7,12,138,11,,,,,,,,,main,1,1,2,positive,positive,j,j,1,0.9815988999325782,402.17934869998135,403.1954216999002,403.17883769981563,None,402.17934869998135,None,402.17934869998135,None,402.17934869998135,None,404.1593541598646,None,404.1593541598646,None,404.1593541598646,None,,,,,,,,,,,,,,101,2023-03-27_10h52.27.598,Main,2022.1.1,60.024514058447785,
negative,positive,1,j,l,,,,,,,,,7,13,139,6,,,,,,,,,main,2,2,1,positive,negative,l,l,1,0.8985254999715835,404.16435889992863,405.17605899996124,405.1426870999858,None,404.16435889992863,None,404.16435889992863,None,404.16435889992863,None,406.05929095998874,None,406.05929095998874,None,406.05929095998874,None,,,,,,,,,,,,,,101,2023-03-27_10h52.27.598,Main,2022.1.1,60.024514058447785,
positive,negative,1,l,j,,,,,,,,,7,14,140,5,,,,,,,,,main,2,2,1,negative,positive,j,j,1,0.883598699932918,406.07600199989974,407.0759922999423,407.0592942000367,None,406.07600199989974,None,406.07600199989974,None,406.07600199989974,None,407.94523765987253,None,407.94523765987253,None,407.94523765987253,None,,,,,,,,,,,,,,101,2023-03-27_10h52.27.598,Main,2022.1.1,60.024514058447785,
negative,negative,2,j,l,,,,,,,,,7,15,141,9,,,,,,,,,main,2,2,2,negative,negative,l,l,1,0.72892010002397,407.9482177000027,408.9592628998216,408.942592300009,None,407.9482177000027,None,407.9482177000027,None,407.9482177000027,None,409.67592705998106,None,409.67592705998106,None,409.67592705998106,None,,,,,,,,,,,,,,101,2023-03-27_10h52.27.598,Main,2022.1.1,60.024514058447785,
neutral,neutral,1,k,k,,,,,,,,,7,16,142,1,,,,,,,,,main,1,1,1,neutral,neutral,k,k,1,0.851818700088188,409.6789853000082,410.6925804000348,410.6759287000168,None,409.6789853000082,None,409.6789853000082,None,409.6789853000082,None,411.5285145598697,None,411.5285145598697,None,411.5285145598697,None,,,,,,,,,,,,,,101,2023-03-27_10h52.27.598,Main,2022.1.1,60.024514058447785,
neutral,positive,1,k,k,,,,,,,,,7,17,143,4,,,,,,,,,main,2,2,1,positive,neutral,k,k,1,0.614581200061366,411.53211869997904,412.54252699995413,412.52589109982364,None,411.53211869997904,None,411.53211869997904,None,411.53211869997904,None,413.14520206002055,None,413.14520206002055,None,413.14520206002055,None,,,,,,,,,,,,,,101,2023-03-27_10h52.27.598,Main,2022.1.1,60.024514058447785,
negative,neutral,1,j,l,,,,,,,,,8,0,144,3,,,,,,,,,main,2,2,1,neutral,negative,l,l,1,0.8614219999872148,413.148699299898,414.15918849990703,414.1425343998708,None,413.148699299898,None,413.148699299898,None,413.148699299898,None,415.0091674598167,None,415.0091674598167,None,415.0091674598167,None,,,,,,,,,,,,,,101,2023-03-27_10h52.27.598,Main,2022.1.1,60.024514058447785,
neutral,negative,2,k,k,,,,,,,,,8,1,145,16,,,,,,,,,main,1,1,2,negative,neutral,k,k,1,0.7982378001324832,415.0154231998604,416.02844679984264,416.011796799954,None,415.0154231998604,None,415.0154231998604,None,415.0154231998604,None,416.8090702598216,None,416.8090702598216,None,416.8090702598216,None,,,,,,,,,,,,,,101,2023-03-27_10h52.27.598,Main,2022.1.1,60.024514058447785,
negative,positive,1,j,l,,,,,,,,,8,2,146,6,,,,,,,,,main,1,1,1,positive,negative,l,l,1,0.8485333998687565,416.8119597998448,417.8285079000052,417.81177539983764,None,416.8119597998448,None,416.8119597998448,None,416.8119597998448,None,418.65916136002636,None,418.65916136002636,None,418.65916136002636,None,,,,,,,,,,,,,,101,2023-03-27_10h52.27.598,Main,2022.1.1,60.024514058447785,
positive,neutral,1,l,j,,,,,,,,,8,3,147,8,,,,,,,,,main,2,2,1,neutral,positive,j,j,1,0.7987134999129921,418.66468789987266,419.6757624000311,419.64241269999184,None,418.66468789987266,None,418.66468789987266,None,418.66468789987266,None,420.45922045994087,None,420.45922045994087,None,420.45922045994087,None,,,,,,,,,,,,,,101,2023-03-27_10h52.27.598,Main,2022.1.1,60.024514058447785,
neutral,neutral,2,k,k,,,,,,,,,8,4,148,10,,,,,,,,,main,2,2,2,neutral,neutral,k,k,1,0.7481062000151724,420.46230599982664,421.4590286000166,421.4590286000166,None,420.46230599982664,None,420.46230599982664,None,420.46230599982664,None,422.20900005989245,None,422.20900005989245,None,422.20900005989245,None,,,,,,,,,,,,,,101,2023-03-27_10h52.27.598,Main,2022.1.1,60.024514058447785,
positive,positive,1,l,j,,,,,,,,,8,5,149,2,,,,,,,,,main,1,1,1,positive,positive,j,j,1,0.7485921001061797,422.21184889995493,423.22837519994937,423.2117651998997,None,422.21184889995493,None,422.21184889995493,None,422.21184889995493,None,423.95896415996833,None,423.95896415996833,None,423.95896415996833,None,,,,,,,,,,,,,,101,2023-03-27_10h52.27.598,Main,2022.1.1,60.024514058447785,
positive,negative,1,l,j,,,,,,,,,8,6,150,5,,,,,,,,,main,1,1,1,negative,positive,j,j,1,0.8150985001120716,423.9617764998693,424.97561619989574,424.9589472999796,None,423.9617764998693,None,423.9617764998693,None,423.9617764998693,None,425.7755867599277,None,425.7755867599277,None,425.7755867599277,None,,,,,,,,,,,,,,101,2023-03-27_10h52.27.598,Main,2022.1.1,60.024514058447785,
neutral,neutral,1,k,k,,,,,,,,,8,7,151,1,,,,,,,,,main,2,2,1,neutral,neutral,k,k,1,0.9318955999333411,425.7784416999202,426.77562249987386,426.76163710001856,None,425.7784416999202,None,425.7784416999202,None,425.7784416999202,None,427.7088669599267,None,427.7088669599267,None,427.7088669599267,None,,,,,,,,,,,,,,101,2023-03-27_10h52.27.598,Main,2022.1.1,60.024514058447785,
negative,positive,2,j,l,,,,,,,,,8,8,152,15,,,,,,,,,main,2,2,2,positive,negative,l,l,1,0.864910600008443,427.7121135999914,428.708995499881,428.708995499881,None,427.7121135999914,None,427.7121135999914,None,427.7121135999914,None,429.5755525599467,None,429.5755525599467,None,429.5755525599467,None,,,,,,,,,,,,,,101,2023-03-27_10h52.27.598,Main,2022.1.1,60.024514058447785,
negative,negative,1,j,l,,,,,,,,,8,9,153,0,,,,,,,,,main,2,2,1,negative,negative,l,l,1,0.865328700048849,429.5794867000077,430.5922091000248,430.5782429999672,None,429.5794867000077,None,429.5794867000077,None,429.5794867000077,None,431.4421614599647,None,431.4421614599647,None,431.4421614599647,None,,,,,,,,,,,,,,101,2023-03-27_10h52.27.598,Main,2022.1.1,60.024514058447785,
positive,negative,2,l,j,,,,,,,,,8,10,154,14,,,,,,,,,main,2,2,2,negative,positive,j,j,1,0.9317784998565912,431.4473121999763,432.45882299984805,432.4421890999656,None,431.4473121999763,None,431.4473121999763,None,431.4473121999763,None,433.3754489599029,None,433.3754489599029,None,433.3754489599029,None,,,,,,,,,,,,,,101,2023-03-27_10h52.27.598,Main,2022.1.1,60.024514058447785,
negative,negative,2,j,l,,,,,,,,,8,11,155,9,,,,,,,,,main,2,2,2,negative,negative,l,l,1,1.031894899904728,433.3807426998392,434.3921165999491,434.3754457999021,None,433.3807426998392,None,433.3807426998392,None,433.3807426998392,None,435.4087449598825,None,435.4087449598825,None,435.4087449598825,None,,,,,,,,,,,,,,101,2023-03-27_10h52.27.598,Main,2022.1.1,60.024514058447785,
neutral,negative,1,k,k,,,,,,,,,8,12,156,7,,,,,,,,,main,2,2,1,negative,neutral,k,k,1,1.149162100162357,435.4141529998742,436.42810419993475,436.4087659998331,None,435.4141529998742,None,435.4141529998742,None,435.4141529998742,None,437.5586797599914,None,437.5586797599914,None,437.5586797599914,None,,,,,,,,,,,,,,101,2023-03-27_10h52.27.598,Main,2022.1.1,60.024514058447785,
negative,neutral,2,j,l,,,,,,,,,8,13,157,12,,,,,,,,,main,1,1,2,neutral,negative,l,l,1,0.8141675000078976,437.57540669990703,438.5782742998563,438.56148769985884,None,437.57540669990703,None,437.57540669990703,None,437.57540669990703,None,439.3753659599694,None,439.3753659599694,None,439.3753659599694,None,,,,,,,,,,,,,,101,2023-03-27_10h52.27.598,Main,2022.1.1,60.024514058447785,
neutral,positive,1,k,k,,,,,,,,,8,14,158,4,,,,,,,,,main,1,1,1,positive,neutral,k,k,1,0.7180594000965357,439.38037899998017,440.3920020000078,440.375395399984,None,439.38037899998017,None,439.38037899998017,None,439.38037899998017,None,441.0950522599975,None,441.0950522599975,None,441.0950522599975,None,,,,,,,,,,,,,,101,2023-03-27_10h52.27.598,Main,2022.1.1,60.024514058447785,
positive,neutral,2,l,j,,,,,,,,,8,15,159,17,,,,,,,,,main,1,1,2,neutral,positive,j,j,1,0.9121566000394523,441.0981409999076,442.11128599988297,442.09193769982085,None,441.0981409999076,None,441.0981409999076,None,441.0981409999076,None,443.0085631599883,None,443.0085631599883,None,443.0085631599883,None,,,,,,,,,,,,,,101,2023-03-27_10h52.27.598,Main,2022.1.1,60.024514058447785,
neutral,positive,2,k,k,,,,,,,,,8,16,160,13,,,,,,,,,main,1,1,2,positive,neutral,k,k,1,0.9317526998929679,443.01143029984087,444.0085785998963,444.0085785998963,None,443.01143029984087,None,443.01143029984087,None,443.01143029984087,None,444.9419309599558,None,444.9419309599558,None,444.9419309599558,None,,,,,,,,,,,,,,101,2023-03-27_10h52.27.598,Main,2022.1.1,60.024514058447785,
positive,positive,2,l,j,,,,,,,,,8,17,161,11,,,,,,,,,main,1,1,2,positive,positive,j,j,1,0.9151480000000447,444.9587518000044,445.96134709985927,445.94466779986396,None,444.9587518000044,None,444.9587518000044,None,444.9587518000044,None,446.858512959932,None,446.858512959932,None,446.858512959932,None,,,,,,,,,,,,,,101,2023-03-27_10h52.27.598,Main,2022.1.1,60.024514058447785,
neutral,positive,1,k,k,,,,,,,,,9,0,162,4,,,,,,,,,main,2,2,1,positive,neutral,k,k,1,1.0481610000133514,446.86163820000365,447.85854279994965,447.85854279994965,None,446.86163820000365,None,446.86163820000365,None,446.86163820000365,None,448.9084541599965,None,448.9084541599965,None,448.9084541599965,None,,,,,,,,,,,,,,101,2023-03-27_10h52.27.598,Main,2022.1.1,60.024514058447785,
negative,positive,1,j,l,,,,,,,,,9,1,163,6,,,,,,,,,main,1,1,1,positive,negative,l,l,1,0.9319933000952005,448.912418599939,449.9251394998282,449.9111881998833,None,448.912418599939,None,448.912418599939,None,448.912418599939,None,450.84176936002916,None,450.84176936002916,None,450.84176936002916,None,,,,,,,,,,,,,,101,2023-03-27_10h52.27.598,Main,2022.1.1,60.024514058447785,
positive,negative,1,l,j,,,,,,,,,9,2,164,5,,,,,,,,,main,2,2,1,negative,positive,j,j,1,0.8181459000334144,450.8474153999705,451.86109069990925,451.8418154998217,None,450.8474153999705,None,450.8474153999705,None,450.8474153999705,None,452.66116695993117,None,452.66116695993117,None,452.66116695993117,None,,,,,,,,,,,,,,101,2023-03-27_10h52.27.598,Main,2022.1.1,60.024514058447785,
positive,neutral,1,l,j,,,,,,,,,9,3,165,8,,,,,,,,,main,2,2,1,neutral,positive,j,j,1,0.7451783998403698,452.66451539983973,453.67774949991144,453.6611654998269,None,452.66451539983973,None,452.66451539983973,None,452.66451539983973,None,454.40847595992966,None,454.40847595992966,None,454.40847595992966,None,,,,,,,,,,,,,,101,2023-03-27_10h52.27.598,Main,2022.1.1,60.024514058447785,
negative,positive,2,j,l,,,,,,,,,9,4,166,15,,,,,,,,,main,1,1,2,positive,negative,l,l,1,0.7817159001715481,454.4116489000153,455.40835949988104,455.40835949988104,None,454.4116489000153,None,454.4116489000153,None,454.4116489000153,None,456.19163975983395,None,456.19163975983395,None,456.19163975983395,None,,,,,,,,,,,,,,101,2023-03-27_10h52.27.598,Main,2022.1.1,60.024514058447785,
neutral,negative,2,k,k,,,,,,,,,9,5,167,16,,,,,,,,,main,1,1,2,negative,neutral,k,k,1,0.8152745000552386,456.19610579987057,457.20835209987126,457.19445209996775,None,456.19610579987057,None,456.19610579987057,None,456.19610579987057,None,458.0082699598512,None,458.0082699598512,None,458.0082699598512,None,,,,,,,,,,,,,,101,2023-03-27_10h52.27.598,Main,2022.1.1,60.024514058447785,
neutral,neutral,2,k,k,,,,,,,,,9,6,168,10,,,,,,,,,main,1,1,2,neutral,neutral,k,k,1,0.7367700999602675,458.01120369997807,459.0249528000131,459.00827679992653,None,458.01120369997807,None,458.01120369997807,None,458.01120369997807,None,459.7443248599535,None,459.7443248599535,None,459.7443248599535,None,,,,,,,,,,,,,,101,2023-03-27_10h52.27.598,Main,2022.1.1,60.024514058447785,
neutral,positive,2,k,k,,,,,,,,,9,7,169,13,,,,,,,,,main,2,2,2,positive,neutral,k,k,1,0.6767608001828194,459.74942249991,460.75825740001164,460.7443050998263,None,459.74942249991,None,459.74942249991,None,459.74942249991,None,461.4248658598168,None,461.4248658598168,None,461.4248658598168,None,,,,,,,,,,,,,,101,2023-03-27_10h52.27.598,Main,2022.1.1,60.024514058447785,
neutral,neutral,1,k,k,,,,,,,,,9,8,170,1,,,,,,,,,main,1,1,1,neutral,neutral,k,k,1,0.7484200999606401,461.42829589988105,462.44159729988314,462.4276810998563,None,461.42829589988105,None,461.42829589988105,None,461.42829589988105,None,463.17482805999464,None,463.17482805999464,None,463.17482805999464,None,,,,,,,,,,,,,,101,2023-03-27_10h52.27.598,Main,2022.1.1,60.024514058447785,
negative,neutral,1,j,l,,,,,,,,,9,9,171,3,,,,,,,,,main,2,2,1,neutral,negative,l,l,1,0.8846153998747468,463.178019199986,464.19422619999386,464.17755030002445,None,463.178019199986,None,463.178019199986,None,463.178019199986,None,465.06085825993216,None,465.06085825993216,None,465.06085825993216,None,,,,,,,,,,,,,,101,2023-03-27_10h52.27.598,Main,2022.1.1,60.024514058447785,
neutral,negative,1,k,k,,,,,,,,,9,10,172,7,,,,,,,,,main,2,2,1,negative,neutral,k,k,1,0.8121788999997079,465.06414979998954,466.07478749984875,466.0582065999042,None,465.06414979998954,None,465.06414979998954,None,465.06414979998954,None,466.8745265598642,None,466.8745265598642,None,466.8745265598642,None,,,,,,,,,,,,,,101,2023-03-27_10h52.27.598,Main,2022.1.1,60.024514058447785,
negative,negative,2,j,l,,,,,,,,,9,11,173,9,,,,,,,,,main,2,2,2,negative,negative,l,l,1,0.8317092000506818,466.877596499864,467.87481089984067,467.86097999988124,None,466.877596499864,None,466.877596499864,None,466.877596499864,None,468.70805855982474,None,468.70805855982474,None,468.70805855982474,None,,,,,,,,,,,,,,101,2023-03-27_10h52.27.598,Main,2022.1.1,60.024514058447785,
positive,negative,2,l,j,,,,,,,,,9,12,174,14,,,,,,,,,main,2,2,2,negative,positive,j,j,1,0.7316185999661684,468.71366050001234,469.7273809998296,469.7107726999093,None,468.71366050001234,None,468.71366050001234,None,468.71366050001234,None,470.4413767599268,None,470.4413767599268,None,470.4413767599268,None,,,,,,,,,,,,,,101,2023-03-27_10h52.27.598,Main,2022.1.1,60.024514058447785,
positive,neutral,2,l,j,,,,,,,,,9,13,175,17,,,,,,,,,main,2,2,2,neutral,positive,j,j,1,0.7012426999863237,470.4450932999607,471.44141329987906,471.44141329987906,None,470.4450932999607,None,470.4450932999607,None,470.4450932999607,None,472.1439783598995,None,472.1439783598995,None,472.1439783598995,None,,,,,,,,,,,,,,101,2023-03-27_10h52.27.598,Main,2022.1.1,60.024514058447785,
positive,positive,2,l,j,,,,,,,,,9,14,176,11,,,,,,,,,main,2,2,2,positive,positive,j,j,1,0.6293314001522958,472.14616629993543,473.1606758998241,473.1413671998307,None,472.14616629993543,None,472.14616629993543,None,472.14616629993543,None,473.77465265991634,None,473.77465265991634,None,473.77465265991634,None,,,,,,,,,,,,,,101,2023-03-27_10h52.27.598,Main,2022.1.1,60.024514058447785,
negative,neutral,2,j,l,,,,,,,,,9,15,177,12,,,,,,,,,main,1,1,2,neutral,negative,l,l,1,0.8151383998338133,473.7772264999803,474.7940060000401,474.7747149998322,None,473.7772264999803,None,473.7772264999803,None,473.7772264999803,None,475.5912788599031,None,475.5912788599031,None,475.5912788599031,None,,,,,,,,,,,,,,101,2023-03-27_10h52.27.598,Main,2022.1.1,60.024514058447785,
negative,negative,1,j,l,,,,,,,,,9,16,178,0,,,,,,,,,main,2,2,1,negative,negative,l,l,1,0.9013471000362188,475.5939165998716,476.61064570001327,476.59405249985866,None,475.5939165998716,None,475.5939165998716,None,475.5939165998716,None,477.4938775599236,None,477.4938775599236,None,477.4938775599236,None,,,,,,,,,,,,,,101,2023-03-27_10h52.27.598,Main,2022.1.1,60.024514058447785,
positive,positive,1,l,j,,,,,,,,,9,17,179,2,,,,,,,,,main,1,1,1,positive,positive,j,j,1,0.7288118998985738,477.4971590000205,478.50794659997337,478.4940718000289,None,477.4971590000205,None,477.4971590000205,None,477.4971590000205,None,479.22453425989954,None,479.22453425989954,None,479.22453425989954,None,,,,,,,,,,,,,,101,2023-03-27_10h52.27.598,Main,2022.1.1,60.024514058447785,
positive,neutral,2,l,j,,,,,,,,,10,0,180,17,,,,,,,,,main,1,1,2,neutral,positive,j,j,1,0.6817410998046398,479.22958479984663,480.24391800002195,480.2272864000406,None,479.22958479984663,None,479.22958479984663,None,479.22958479984663,None,480.90785425996876,None,480.90785425996876,None,480.90785425996876,None,,,,,,,,,,,,,,101,2023-03-27_10h52.27.598,Main,2022.1.1,60.024514058447785,
positive,positive,2,l,j,,,,,,,,,10,1,181,11,,,,,,,,,main,2,2,2,positive,positive,j,j,1,0.734740799991414,480.91080989991315,481.9245239000302,481.90784929995425,None,480.91080989991315,None,480.91080989991315,None,480.91080989991315,None,482.64383835999763,None,482.64383835999763,None,482.64383835999763,None,,,,,,,,,,,,,,101,2023-03-27_10h52.27.598,Main,2022.1.1,60.024514058447785,
neutral,positive,1,k,k,,,,,,,,,10,2,182,4,,,,,,,,,main,1,1,1,positive,neutral,k,k,1,0.7452598002273589,482.6472390999552,483.6578432000242,483.6412453998346,None,482.6472390999552,None,482.6472390999552,None,482.6472390999552,None,484.3912849598797,None,484.3912849598797,None,484.3912849598797,None,,,,,,,,,,,,,,101,2023-03-27_10h52.27.598,Main,2022.1.1,60.024514058447785,
positive,positive,1,l,j,,,,,,,,,10,3,183,2,,,,,,,,,main,2,2,1,positive,positive,j,j,1,0.6314511999953538,484.39455439988524,485.40778769995086,485.3911204999313,None,484.39455439988524,None,484.39455439988524,None,484.39455439988524,None,486.02440275999254,None,486.02440275999254,None,486.02440275999254,None,,,,,,,,,,,,,,101,2023-03-27_10h52.27.598,Main,2022.1.1,60.024514058447785,
positive,negative,1,l,j,,,,,,,,,10,4,184,5,,,,,,,,,main,2,2,1,negative,positive,j,j,1,0.7142654000781476,486.02874959982,487.0411020000465,487.02444690000266,None,486.02874959982,None,486.02874959982,None,486.02874959982,None,487.7410291598877,None,487.7410291598877,None,487.7410291598877,None,,,,,,,,,,,,,,101,2023-03-27_10h52.27.598,Main,2022.1.1,60.024514058447785,
neutral,neutral,1,k,k,,,,,,,,,10,5,185,1,,,,,,,,,main,1,1,1,neutral,neutral,k,k,1,0.7317373999394476,487.74685989995487,488.7577348998748,488.7438359998632,None,487.74685989995487,None,487.74685989995487,None,487.74685989995487,None,489.47433426000646,None,489.47433426000646,None,489.47433426000646,None,,,,,,,,,,,,,,101,2023-03-27_10h52.27.598,Main,2022.1.1,60.024514058447785,
positive,neutral,1,l,j,,,,,,,,,10,6,186,8,,,,,,,,,main,1,1,1,neutral,positive,j,j,1,0.7151623000390828,489.4782614998985,490.49104349990375,490.47724849986844,None,489.4782614998985,None,489.4782614998985,None,489.4782614998985,None,491.1910482598702,None,491.1910482598702,None,491.1910482598702,None,,,,,,,,,,,,,,101,2023-03-27_10h52.27.598,Main,2022.1.1,60.024514058447785,
negative,negative,1,j,l,,,,,,,,,10,7,187,0,,,,,,,,,main,1,1,1,negative,negative,l,l,1,0.9650268999394029,491.19477569987066,492.20765149989165,492.1770688998513,None,491.19477569987066,None,491.19477569987066,None,491.19477569987066,None,493.1575827598805,None,493.1575827598805,None,493.1575827598805,None,,,,,,,,,,,,,,101,2023-03-27_10h52.27.598,Main,2022.1.1,60.024514058447785,
positive,negative,2,l,j,,,,,,,,,10,8,188,14,,,,,,,,,main,1,1,2,negative,positive,j,j,1,0.7825929999817163,493.1618617998902,494.17687079985626,494.1409072999377,None,493.1618617998902,None,493.1618617998902,None,493.1618617998902,None,494.940886759921,None,494.940886759921,None,494.940886759921,None,,,,,,,,,,,,,,101,2023-03-27_10h52.27.598,Main,2022.1.1,60.024514058447785,
neutral,positive,2,k,k,,,,,,,,,10,9,189,13,,,,,,,,,main,1,1,2,positive,neutral,k,k,1,0.6644074998330325,494.9468449000269,495.95759869995527,495.94091270002536,None,494.9468449000269,None,494.9468449000269,None,494.9468449000269,None,496.6075528599555,None,496.6075528599555,None,496.6075528599555,None,,,,,,,,,,,,,,101,2023-03-27_10h52.27.598,Main,2022.1.1,60.024514058447785,
neutral,negative,2,k,k,,,,,,,,,10,10,190,16,,,,,,,,,main,2,2,2,negative,neutral,k,k,1,0.8346810000948608,496.61198669997975,497.6241996998433,497.60759999998845,None,496.61198669997975,None,496.61198669997975,None,496.61198669997975,None,498.4435744600138,None,498.4435744600138,None,498.4435744600138,None,,,,,,,,,,,,,,101,2023-03-27_10h52.27.598,Main,2022.1.1,60.024514058447785,
neutral,neutral,2,k,k,,,,,,,,,10,11,191,10,,,,,,,,,main,2,2,2,neutral,neutral,k,k,1,0.6456050002016127,498.4463022998534,499.4602308999747,499.44359279982746,None,498.4463022998534,None,498.4463022998534,None,498.4463022998534,None,500.0908254599432,None,500.0908254599432,None,500.0908254599432,None,,,,,,,,,,,,,,101,2023-03-27_10h52.27.598,Main,2022.1.1,60.024514058447785,
negative,neutral,1,j,l,,,,,,,,,10,12,192,3,,,,,,,,,main,1,1,1,neutral,negative,l,l,1,0.9150421000085771,500.09477229998447,501.10750579996966,501.09355829982087,None,500.09477229998447,None,500.09477229998447,None,500.09477229998447,None,502.00741755987985,None,502.00741755987985,None,502.00741755987985,None,,,,,,,,,,,,,,101,2023-03-27_10h52.27.598,Main,2022.1.1,60.024514058447785,
negative,positive,1,j,l,,,,,,,,,10,13,193,6,,,,,,,,,main,1,1,1,positive,negative,l,l,1,0.9152121001388878,502.01258249999955,503.0241075998638,503.0074338999111,None,502.01258249999955,None,502.01258249999955,None,502.01258249999955,None,503.924076259858,None,503.924076259858,None,503.924076259858,None,,,,,,,,,,,,,,101,2023-03-27_10h52.27.598,Main,2022.1.1,60.024514058447785,
neutral,negative,1,k,k,,,,,,,,,10,14,194,7,,,,,,,,,main,1,1,1,negative,neutral,k,l,0,0.7155285000335425,503.9290535999462,504.9407508999575,504.92684550001286,None,503.9290535999462,None,503.9290535999462,None,503.9290535999462,None,505.6407275998499,None,505.6407275998499,None,505.6407275998499,None,,,,,,,,,,,,,,101,2023-03-27_10h52.27.598,Main,2022.1.1,60.024514058447785,
negative,negative,2,j,l,,,,,,,,,10,15,195,9,,,,,,,,,main,1,1,2,negative,negative,l,l,1,0.8671798000577837,506.64072060002945,507.6434430000372,507.62688879994676,None,506.64072060002945,None,506.64072060002945,None,506.64072060002945,None,508.5073067599675,None,508.5073067599675,None,508.5073067599675,None,,,,,,,,,,,,,,101,2023-03-27_10h52.27.598,Main,2022.1.1,60.024514058447785,
negative,positive,2,j,l,,,,,,,,,10,16,196,15,,,,,,,,,main,2,2,2,positive,negative,l,l,1,0.7984945001080632,508.5112974999938,509.52398479986005,509.49339769990183,None,508.5112974999938,None,508.5112974999938,None,508.5112974999938,None,510.3072633599164,None,510.3072633599164,None,510.3072633599164,None,,,,,,,,,,,,,,101,2023-03-27_10h52.27.598,Main,2022.1.1,60.024514058447785,
negative,neutral,2,j,l,,,,,,,,,10,17,197,12,,,,,,,,,main,2,2,2,neutral,negative,l,l,1,0.6649197000078857,510.31063239998184,511.3072746999096,511.3072746999096,None,510.31063239998184,None,510.31063239998184,None,510.31063239998184,None,511.9739265598124,None,511.9739265598124,None,511.9739265598124,None,,,,,,,,,,,,,,101,2023-03-27_10h52.27.598,Main,2022.1.1,60.024514058447785,
positive,positive,2,l,j,,,,,,,,,11,0,198,11,,,,,,,,,main,2,2,2,positive,positive,j,j,1,0.8317333001177758,511.979653300019,512.9905991000123,512.9739496998955,None,511.979653300019,None,511.979653300019,None,511.979653300019,None,513.8071837600088,None,513.8071837600088,None,513.8071837600088,None,,,,,,,,,,,,,,101,2023-03-27_10h52.27.598,Main,2022.1.1,60.024514058447785,
positive,neutral,1,l,j,,,,,,,,,11,1,199,8,,,,,,,,,main,2,2,1,neutral,positive,j,j,1,0.6342535999137908,513.8122691998724,514.823929999955,514.8072593000252,None,513.8122691998724,None,513.8122691998724,None,513.8122691998724,None,515.4432470598491,None,515.4432470598491,None,515.4432470598491,None,,,,,,,,,,,,,,101,2023-03-27_10h52.27.598,Main,2022.1.1,60.024514058447785,
neutral,positive,2,k,k,,,,,,,,,11,2,200,13,,,,,,,,,main,2,2,2,positive,neutral,k,k,1,0.7783512000460178,515.4469603998587,516.4571656000335,516.443399499869,None,515.4469603998587,None,515.4469603998587,None,515.4469603998587,None,517.2238044599304,None,517.2238044599304,None,517.2238044599304,None,,,,,,,,,,,,,,101,2023-03-27_10h52.27.598,Main,2022.1.1,60.024514058447785,
negative,positive,1,j,l,,,,,,,,,11,3,201,6,,,,,,,,,main,2,2,1,positive,negative,l,l,1,0.9317936000879854,517.2269309000112,518.2237942998763,518.209874099819,None,517.2269309000112,None,517.2269309000112,None,517.2269309000112,None,519.1570658600191,None,519.1570658600191,None,519.1570658600191,None,,,,,,,,,,,,,,101,2023-03-27_10h52.27.598,Main,2022.1.1,60.024514058447785,
neutral,neutral,1,k,k,,,,,,,,,11,4,202,1,,,,,,,,,main,2,2,1,neutral,neutral,k,k,1,0.8308845001738518,519.1636047998909,520.1737628998235,520.1570993999485,None,519.1636047998909,None,519.1636047998909,None,519.1636047998909,None,520.9903893599054,None,520.9903893599054,None,520.9903893599054,None,,,,,,,,,,,,,,101,2023-03-27_10h52.27.598,Main,2022.1.1,60.024514058447785,
negative,neutral,2,j,l,,,,,,,,,11,5,203,12,,,,,,,,,main,2,2,2,neutral,negative,l,l,1,0.731793100014329,520.9934980999678,521.9904049998149,521.9765792998951,None,520.9934980999678,None,520.9934980999678,None,520.9934980999678,None,522.7236636600225,None,522.7236636600225,None,522.7236636600225,None,,,,,,,,,,,,,,101,2023-03-27_10h52.27.598,Main,2022.1.1,60.024514058447785,
positive,neutral,2,l,j,,,,,,,,,11,6,204,17,,,,,,,,,main,2,2,2,neutral,positive,j,j,1,0.7482416999991983,522.7271650000475,523.7429951999802,523.7264161999337,None,522.7271650000475,None,522.7271650000475,None,522.7271650000475,None,524.4736342600314,None,524.4736342600314,None,524.4736342600314,None,,,,,,,,,,,,,,101,2023-03-27_10h52.27.598,Main,2022.1.1,60.024514058447785,
positive,negative,1,l,j,,,,,,,,,11,7,205,5,,,,,,,,,main,2,2,1,negative,positive,j,j,1,0.73188990005292,524.4765613998752,525.4903555999044,525.4736887000035,None,524.4765613998752,None,524.4765613998752,None,524.4765613998752,None,526.206955659925,None,526.206955659925,None,526.206955659925,None,,,,,,,,,,,,,,101,2023-03-27_10h52.27.598,Main,2022.1.1,60.024514058447785,
negative,negative,1,j,l,,,,,,,,,11,8,206,0,,,,,,,,,main,1,1,1,negative,negative,l,l,1,1.1325612000655383,526.209878699854,527.209722999949,527.209722999949,None,526.209878699854,None,526.209878699854,None,526.209878699854,None,528.3402657599887,None,528.3402657599887,None,528.3402657599887,None,,,,,,,,,,,,,,101,2023-03-27_10h52.27.598,Main,2022.1.1,60.024514058447785,
negative,negative,2,j,l,,,,,,,,,11,9,207,9,,,,,,,,,main,1,1,2,negative,negative,l,l,1,0.7811493999324739,528.3458814998157,529.3569514998235,529.3402319999877,None,528.3458814998157,None,528.3458814998157,None,528.3458814998157,None,530.1235562600428,None,530.1235562600428,None,530.1235562600428,None,,,,,,,,,,,,,,101,2023-03-27_10h52.27.598,Main,2022.1.1,60.024514058447785,
neutral,negative,1,k,k,,,,,,,,,11,10,208,7,,,,,,,,,main,2,2,1,negative,neutral,k,k,1,0.7984543999191374,530.1287779998966,531.1402443998959,531.1236009998247,None,530.1287779998966,None,530.1287779998966,None,530.1287779998966,None,531.9235255599721,None,531.9235255599721,None,531.9235255599721,None,,,,,,,,,,,,,,101,2023-03-27_10h52.27.598,Main,2022.1.1,60.024514058447785,
neutral,positive,1,k,k,,,,,,,,,11,11,209,4,,,,,,,,,main,2,2,1,positive,neutral,k,k,1,0.6162163000553846,531.9266399999615,532.9235334999394,532.9096192000434,None,531.9266399999615,None,531.9266399999615,None,531.9266399999615,None,533.5401484598639,None,533.5401484598639,None,533.5401484598639,None,,,,,,,,,,,,,,101,2023-03-27_10h52.27.598,Main,2022.1.1,60.024514058447785,
positive,negative,2,l,j,,,,,,,,,11,12,210,14,,,,,,,,,main,2,2,2,negative,positive,j,j,1,0.86376510001719,533.5468933999073,534.5595282998402,534.5429185999092,None,533.5468933999073,None,533.5468933999073,None,533.5468933999073,None,535.4067943599308,None,535.4067943599308,None,535.4067943599308,None,,,,,,,,,,,,,,101,2023-03-27_10h52.27.598,Main,2022.1.1,60.024514058447785,
positive,positive,1,l,j,,,,,,,,,11,13,211,2,,,,,,,,,main,2,2,1,positive,positive,j,j,1,0.7151504999492317,535.4099079000298,536.4067708000075,536.3928396999836,None,535.4099079000298,None,535.4099079000298,None,535.4099079000298,None,537.1233910599491,None,537.1233910599491,None,537.1233910599491,None,,,,,,,,,,,,,,101,2023-03-27_10h52.27.598,Main,2022.1.1,60.024514058447785,
negative,positive,2,j,l,,,,,,,,,11,14,212,15,,,,,,,,,main,2,2,2,positive,negative,l,l,1,0.9148915000259876,537.1268728999421,538.1234081999864,538.1234081999864,None,537.1268728999421,None,537.1268728999421,None,537.1268728999421,None,539.0400412599789,None,539.0400412599789,None,539.0400412599789,None,,,,,,,,,,,,,,101,2023-03-27_10h52.27.598,Main,2022.1.1,60.024514058447785,
neutral,neutral,2,k,k,,,,,,,,,11,15,213,10,,,,,,,,,main,1,1,2,neutral,neutral,k,k,1,0.7818390999455005,539.0449328999966,540.0593954999931,540.0400241999887,None,539.0449328999966,None,539.0449328999966,None,539.0449328999966,None,540.823323659855,None,540.823323659855,None,540.823323659855,None,,,,,,,,,,,,,,101,2023-03-27_10h52.27.598,Main,2022.1.1,60.024514058447785,
negative,neutral,1,j,l,,,,,,,,,11,16,214,3,,,,,,,,,main,2,2,1,neutral,negative,l,l,1,1.1008292001206428,540.827384899836,541.8428307999857,541.8233636999503,None,540.827384899836,None,540.827384899836,None,540.827384899836,None,542.9259795600316,None,542.9259795600316,None,542.9259795600316,None,,,,,,,,,,,,,,101,2023-03-27_10h52.27.598,Main,2022.1.1,60.024514058447785,
neutral,negative,2,k,k,,,,,,,,,11,17,215,16,,,,,,,,,main,1,1,2,negative,neutral,k,k,1,0.7791645999532193,542.9292802000418,543.939975899877,543.923337199958,None,542.9292802000418,None,542.9292802000418,None,542.9292802000418,None,544.7065718600294,None,544.7065718600294,None,544.7065718600294,None,,,,,,,,,,,,,,101,2023-03-27_10h52.27.598,Main,2022.1.1,60.024514058447785,
neutral,positive,1,k,k,,,,,,,,,12,0,216,4,,,,,,,,,main,2,2,1,positive,neutral,k,k,1,0.7655635001137853,544.7095387999434,545.7232715999708,545.7066096998751,None,544.7095387999434,None,544.7095387999434,None,544.7095387999434,None,546.4735478598392,None,546.4735478598392,None,546.4735478598392,None,,,,,,,,,,,,,,101,2023-03-27_10h52.27.598,Main,2022.1.1,60.024514058447785,
positive,positive,1,l,j,,,,,,,,,12,1,217,2,,,,,,,,,main,2,2,1,positive,positive,j,j,1,0.8146883000154048,546.4768493999727,547.4899016998243,547.4732545998413,None,546.4768493999727,None,546.4768493999727,None,546.4768493999727,None,548.2898463600083,None,548.2898463600083,None,548.2898463600083,None,,,,,,,,,,,,,,101,2023-03-27_10h52.27.598,Main,2022.1.1,60.024514058447785,
neutral,negative,2,k,k,,,,,,,,,12,2,218,16,,,,,,,,,main,1,1,2,negative,neutral,k,k,1,0.7818895000964403,548.292632299941,549.2898565998767,549.2759662000462,None,548.292632299941,None,548.292632299941,None,548.292632299941,None,550.0732013599714,None,550.0732013599714,None,550.0732013599714,None,,,,,,,,,,,,,,101,2023-03-27_10h52.27.598,Main,2022.1.1,60.024514058447785,
positive,positive,2,l,j,,,,,,,,,12,3,219,11,,,,,,,,,main,2,2,2,positive,positive,j,j,1,0.7827156998682767,550.075931899948,551.0731848999858,551.0731848999858,None,550.075931899948,None,550.075931899948,None,550.075931899948,None,551.8564542599721,None,551.8564542599721,None,551.8564542599721,None,,,,,,,,,,,,,,101,2023-03-27_10h52.27.598,Main,2022.1.1,60.024514058447785,
positive,negative,1,l,j,,,,,,,,,12,4,220,5,,,,,,,,,main,2,2,1,negative,positive,j,j,1,0.6806217001285404,551.8609457998537,552.8731539000291,552.8592818998732,None,551.8609457998537,None,551.8609457998537,None,551.8609457998537,None,553.5397241600091,None,553.5397241600091,None,553.5397241600091,None,,,,,,,,,,,,,,101,2023-03-27_10h52.27.598,Main,2022.1.1,60.024514058447785,
negative,negative,2,j,l,,,,,,,,,12,5,221,9,,,,,,,,,main,1,1,2,negative,negative,l,l,1,1.0487726998981088,553.543132300023,554.5564416998532,554.5230906000361,None,553.543132300023,None,553.543132300023,None,553.543132300023,None,555.5897003598744,None,555.5897003598744,None,555.5897003598744,None,,,,,,,,,,,,,,101,2023-03-27_10h52.27.598,Main,2022.1.1,60.024514058447785,
positive,negative,2,l,j,,,,,,,,,12,6,222,14,,,,,,,,,main,1,1,2,negative,positive,j,j,1,1.0009222999215126,555.5947153999005,556.6091012000106,556.592420599889,None,555.5947153999005,None,555.5947153999005,None,555.5947153999005,None,557.5923101599561,None,557.5923101599561,None,557.5923101599561,None,,,,,,,,,,,,,,101,2023-03-27_10h52.27.598,Main,2022.1.1,60.024514058447785,
