target,distractor,set,ans1,ans2,rep_loop2.thisRepN,rep_loop2.thisTrialN,rep_loop2.thisN,rep_loop2.thisIndex,flanker_prac_loop.thisRepN,flanker_prac_loop.thisTrialN,flanker_prac_loop.thisN,flanker_prac_loop.thisIndex,flanker_main_loop.thisRepN,flanker_main_loop.thisTrialN,flanker_main_loop.thisN,flanker_main_loop.thisIndex,fl_inst_resp.keys,fl_inst_resp.rt,sound_1.started,sound_1.stopped,image_4.started,image_4.stopped,back_2.started,back_2.stopped,main_prac,fl_cold,fl_colt,fl_set,fl_dcond,fl_tcond,fl_ans,fl_res,fl_corr,fl_rt,fix_fl.started,fix_fl.stopped,targ.started,targ.stopped,j_button.started,j_button.stopped,k_button.started,k_button.stopped,l_button.started,l_button.stopped,j_button2.started,j_button2.stopped,k_button2.started,k_button2.stopped,l_button2.started,l_button2.stopped,mainback.started,mainback.stopped,key_resp.keys,key_resp.rt,mouse_6.x,mouse_6.y,mouse_6.leftButton,mouse_6.midButton,mouse_6.rightButton,mouse_6.started,mouse_6.stopped,text_2.started,text_2.stopped,id*,date,expName,psychopyVersion,frameRate,
,,,,,0,0,0,0,,,,,,,,,space,53.3164474000223,34.404756219964476,None,87.75065750000067,None,,,,,,,,,,,,,,,,,,,,,,,,,,,,,,,,,,,,,,,,,,102,2023-03-28_13h25.31.970,Main,2022.1.1,59.97148949039887,
,,,,,1,0,1,0,,,,,,,,,space,1.0983978998847306,91.63705501998774,None,92.75342349987477,None,,,,,,,,,,,,,,,,,,,,,,,,,,,,,,,,,,,,,,,,,,102,2023-03-28_13h25.31.970,Main,2022.1.1,59.97148949039887,
negative,negative,1,j,l,,,,,0,0,0,0,,,,,,,,,,,95.67013500002213,None,prac,2,2,1,negative,negative,j,j,1,2.1809326000511646,97.68860389990732,98.70342030003667,98.67019500001334,None,97.68860389990732,None,97.68860389990732,None,97.68860389990732,None,100.86996809998527,None,100.86996809998527,None,100.86996809998527,None,,,,,,,,,,,,,,102,2023-03-28_13h25.31.970,Main,2022.1.1,59.97148949039887,
negative,neutral,1,j,l,,,,,0,1,1,3,,,,,,,,,,,,,prac,2,2,1,neutral,negative,j,j,1,1.8033053998369724,101.88619939982891,102.8839246998541,102.87005999987014,None,101.88619939982891,None,101.88619939982891,None,101.88619939982891,None,104.68391809985042,None,104.68391809985042,None,104.68391809985042,None,,,,,,,,,,,,,,102,2023-03-28_13h25.31.970,Main,2022.1.1,59.97148949039887,
neutral,negative,2,k,k,,,,,0,2,2,16,,,,,,,,,,,,,prac,2,2,2,negative,neutral,k,k,1,0.8343120999634266,105.68471249984577,106.683812599862,106.66715689981356,None,105.68471249984577,None,105.68471249984577,None,105.68471249984577,None,107.51712551983073,None,107.51712551983073,None,107.51712551983073,None,,,,,,,,,,,,,,102,2023-03-28_13h25.31.970,Main,2022.1.1,59.97148949039887,
negative,positive,1,j,l,,,,,0,3,3,6,,,,,,,,,,,,,prac,1,1,1,positive,negative,j,j,1,0.9150655998382717,107.52371710003354,108.53672209987417,108.51746440003626,None,107.52371710003354,None,107.52371710003354,None,107.52371710003354,None,109.43384122001007,None,109.43384122001007,None,109.43384122001007,None,,,,,,,,,,,,,,102,2023-03-28_13h25.31.970,Main,2022.1.1,59.97148949039887,
neutral,neutral,1,k,k,,,,,0,4,4,1,,,,,,,,,,,,,prac,2,2,1,neutral,neutral,k,k,1,0.9155105000827461,109.43860819982365,110.45041119982488,110.43374220002443,None,109.43860819982365,None,109.43860819982365,None,109.43860819982365,None,111.35045551988296,None,111.35045551988296,None,111.35045551988296,None,,,,,,,,,,,,,,102,2023-03-28_13h25.31.970,Main,2022.1.1,59.97148949039887,
neutral,positive,2,k,k,,,,,0,5,5,13,,,,,,,,,,,,,prac,2,2,2,positive,neutral,k,k,1,0.8818351000081748,111.3560140999034,112.3670777999796,112.35042079980485,None,111.3560140999034,None,111.3560140999034,None,111.3560140999034,None,113.23376141991466,None,113.23376141991466,None,113.23376141991466,None,,,,,,,,,,,,,,102,2023-03-28_13h25.31.970,Main,2022.1.1,59.97148949039887,
neutral,positive,1,k,k,,,,,0,6,6,4,,,,,,,,,,,,,prac,1,1,1,positive,neutral,k,k,1,0.81646170001477,113.23857539985329,114.25306229991838,114.23650119989179,None,113.23857539985329,None,113.23857539985329,None,113.23857539985329,None,115.05045561995357,None,115.05045561995357,None,115.05045561995357,None,,,,,,,,,,,,,,102,2023-03-28_13h25.31.970,Main,2022.1.1,59.97148949039887,
positive,neutral,2,l,j,,,,,0,7,7,17,,,,,,,,,,,,,prac,2,2,2,neutral,positive,l,l,1,0.8644159999676049,115.05660589993931,116.0670012999326,116.0503167998977,None,115.05660589993931,None,115.05660589993931,None,115.05660589993931,None,116.91707601994275,None,116.91707601994275,None,116.91707601994275,None,,,,,,,,,,,,,,102,2023-03-28_13h25.31.970,Main,2022.1.1,59.97148949039887,
positive,positive,1,l,j,,,,,0,8,8,2,,,,,,,,,,,,,prac,1,1,1,positive,positive,l,l,1,1.031617300119251,116.92254149983637,117.93375839991495,117.9003063000273,None,116.92254149983637,None,116.92254149983637,None,116.92254149983637,None,118.95012701991945,None,118.95012701991945,None,118.95012701991945,None,,,,,,,,,,,,,,102,2023-03-28_13h25.31.970,Main,2022.1.1,59.97148949039887,
positive,negative,2,l,j,,,,,0,9,9,14,,,,,,,,,,,,,prac,2,2,2,negative,positive,l,l,1,1.3988040999975055,118.95496729994193,119.96692639985122,119.95298139983788,None,118.95496729994193,None,118.95496729994193,None,118.95496729994193,None,121.35031331996433,None,121.35031331996433,None,121.35031331996433,None,,,,,,,,,,,,,,102,2023-03-28_13h25.31.970,Main,2022.1.1,59.97148949039887,
positive,negative,1,l,j,,,,,0,10,10,5,,,,,,,,,,,,,prac,2,2,1,negative,positive,l,l,1,0.8182079999241978,121.35556579986587,122.36717549990863,122.35298589989543,None,121.35556579986587,None,121.35556579986587,None,121.35556579986587,None,123.16976931984536,None,123.16976931984536,None,123.16976931984536,None,,,,,,,,,,,,,,102,2023-03-28_13h25.31.970,Main,2022.1.1,59.97148949039887,
negative,negative,2,j,l,,,,,0,11,11,9,,,,,,,,,,,,,prac,1,1,2,negative,negative,j,j,1,1.1456061999779195,123.17406059987843,124.1862792999018,124.16684639989398,None,123.17406059987843,None,123.17406059987843,None,123.17406059987843,None,125.31701451996341,None,125.31701451996341,None,125.31701451996341,None,,,,,,,,,,,,,,102,2023-03-28_13h25.31.970,Main,2022.1.1,59.97148949039887,
negative,positive,2,j,l,,,,,0,12,12,15,,,,,,,,,,,,,prac,1,1,2,positive,negative,j,j,1,0.6489815001841635,125.32062010001391,126.3334885998629,126.31955150002614,None,125.32062010001391,None,125.32062010001391,None,125.32062010001391,None,126.96698001995682,None,126.96698001995682,None,126.96698001995682,None,,,,,,,,,,,,,,102,2023-03-28_13h25.31.970,Main,2022.1.1,59.97148949039887,
negative,neutral,2,j,l,,,,,0,13,13,12,,,,,,,,,,,,,prac,2,2,2,neutral,negative,j,j,1,1.1316919999662787,126.97260869992897,127.98633989994414,127.95010719983838,None,126.97260869992897,None,126.97260869992897,None,126.97260869992897,None,129.1001504200045,None,129.1001504200045,None,129.1001504200045,None,,,,,,,,,,,,,,102,2023-03-28_13h25.31.970,Main,2022.1.1,59.97148949039887,
neutral,neutral,2,k,k,,,,,0,14,14,10,,,,,,,,,,,,,prac,1,1,2,neutral,neutral,k,k,1,0.7850093999877572,129.10536039993167,130.1194802999962,130.10012139985338,None,129.10536039993167,None,129.10536039993167,None,129.10536039993167,None,130.8862903198693,None,130.8862903198693,None,130.8862903198693,None,,,,,,,,,,,,,,102,2023-03-28_13h25.31.970,Main,2022.1.1,59.97148949039887,
positive,neutral,1,l,j,,,,,0,15,15,8,,,,,,,,,,,,,prac,2,2,1,neutral,positive,l,l,1,0.8793021999299526,130.8894101998303,131.90003079990856,131.8833560999483,None,130.8894101998303,None,130.8894101998303,None,130.8894101998303,None,132.76682702000252,None,132.76682702000252,None,132.76682702000252,None,,,,,,,,,,,,,,102,2023-03-28_13h25.31.970,Main,2022.1.1,59.97148949039887,
positive,positive,2,l,j,,,,,0,16,16,11,,,,,,,,,,,,,prac,2,2,2,positive,positive,l,l,1,0.897689500125125,132.78333769994788,133.78329439996742,133.76666909991764,None,132.78333769994788,None,132.78333769994788,None,132.78333769994788,None,134.66667921994812,None,134.66667921994812,None,134.66667921994812,None,,,,,,,,,,,,,,102,2023-03-28_13h25.31.970,Main,2022.1.1,59.97148949039887,
neutral,negative,1,k,k,,,,,0,17,17,7,,,,,,,,,,,,,prac,2,2,1,negative,neutral,k,j,0,1.015309700043872,134.67125799995847,135.68323599989526,135.66656029992737,None,134.67125799995847,None,134.67125799995847,None,134.67125799995847,None,136.68326859991066,None,136.68326859991066,None,136.68326859991066,None,,,,,,,,,,,,,,102,2023-03-28_13h25.31.970,Main,2022.1.1,59.97148949039887,
negative,positive,1,j,l,,,,,1,0,18,6,,,,,,,,,,,,,prac,2,2,1,positive,negative,j,j,1,1.08695979998447,137.68539300002158,138.69987489981577,138.66654789983295,None,137.68539300002158,None,137.68539300002158,None,137.68539300002158,None,139.76936691990122,None,139.76936691990122,None,139.76936691990122,None,,,,,,,,,,,,,,102,2023-03-28_13h25.31.970,Main,2022.1.1,59.97148949039887,
neutral,positive,1,k,k,,,,,1,1,19,4,,,,,,,,,,,,,prac,2,2,1,positive,neutral,k,k,1,0.7983653000555933,139.77256940002553,140.78579510003328,140.7692840998061,None,139.77256940002553,None,139.77256940002553,None,139.77256940002553,None,141.56928101987577,None,141.56928101987577,None,141.56928101987577,None,,,,,,,,,,,,,,102,2023-03-28_13h25.31.970,Main,2022.1.1,59.97148949039887,
positive,positive,1,l,j,,,,,1,2,20,2,,,,,,,,,,,,,prac,2,2,1,positive,positive,l,l,1,0.7627043998800218,141.572559799999,142.5860714998562,142.56647860002704,None,141.572559799999,None,141.572559799999,None,141.572559799999,None,143.33320401995442,None,143.33320401995442,None,143.33320401995442,None,,,,,,,,,,,,,,102,2023-03-28_13h25.31.970,Main,2022.1.1,59.97148949039887,
positive,negative,1,l,j,,,,,1,3,21,5,,,,,,,,,,,,,prac,1,1,1,negative,positive,l,l,1,0.8357928001787513,143.33882029983215,144.35263610002585,144.33334349980578,None,143.33882029983215,None,143.33882029983215,None,143.33882029983215,None,145.16923531997017,None,145.16923531997017,None,145.16923531997017,None,,,,,,,,,,,,,,102,2023-03-28_13h25.31.970,Main,2022.1.1,59.97148949039887,
positive,neutral,2,l,j,,,,,1,4,22,17,,,,,,,,,,,,,prac,2,2,2,neutral,positive,l,l,1,0.7775898999534547,145.17670989991166,146.18582669994794,146.16639679996297,None,145.17670989991166,None,145.17670989991166,None,145.17670989991166,None,146.94981781989335,None,146.94981781989335,None,146.94981781989335,None,,,,,,,,,,,,,,102,2023-03-28_13h25.31.970,Main,2022.1.1,59.97148949039887,
neutral,negative,1,k,k,,,,,1,5,23,7,,,,,,,,,,,,,prac,2,2,1,negative,neutral,k,k,1,0.732174800010398,146.95486759999767,147.96919899992645,147.93587499996647,None,146.95486759999767,None,146.95486759999767,None,146.95486759999767,None,148.68308471995405,None,148.68308471995405,None,148.68308471995405,None,,,,,,,,,,,,,,102,2023-03-28_13h25.31.970,Main,2022.1.1,59.97148949039887,
neutral,neutral,2,k,k,,,,,1,6,24,10,,,,,,,,,,,,,prac,2,2,2,neutral,neutral,k,k,1,1.3182789999991655,148.68822649982758,149.6996507998556,149.66631919983774,None,148.68822649982758,None,148.68822649982758,None,148.68822649982758,None,151.0025510197971,None,151.0025510197971,None,151.0025510197971,None,,,,,,,,,,,,,,102,2023-03-28_13h25.31.970,Main,2022.1.1,59.97148949039887,
negative,positive,2,j,l,,,,,1,7,25,15,,,,,,,,,,,,,prac,1,1,2,positive,negative,j,k,0,0.7291312001179904,151.00567610003054,152.01631439989433,151.99965210002847,None,151.00567610003054,None,151.00567610003054,None,151.00567610003054,None,152.73294659983367,None,152.73294659983367,None,152.73294659983367,None,,,,,,,,,,,,,,102,2023-03-28_13h25.31.970,Main,2022.1.1,59.97148949039887,
negative,negative,1,j,l,,,,,1,8,26,0,,,,,,,,,,,,,prac,2,2,1,negative,negative,j,j,1,1.1177164998371154,153.73372829984874,154.735621499829,154.71632419992238,None,153.73372829984874,None,153.73372829984874,None,153.73372829984874,None,155.8496482199058,None,155.8496482199058,None,155.8496482199058,None,,,,,,,,,,,,,,102,2023-03-28_13h25.31.970,Main,2022.1.1,59.97148949039887,
positive,positive,2,l,j,,,,,1,9,27,11,,,,,,,,,,,,,prac,2,2,2,positive,positive,l,l,1,0.9147018000949174,155.85506829991937,156.8662109998986,156.8523021999281,None,155.85506829991937,None,155.85506829991937,None,155.85506829991937,None,157.7660276199691,None,157.7660276199691,None,157.7660276199691,None,,,,,,,,,,,,,,102,2023-03-28_13h25.31.970,Main,2022.1.1,59.97148949039887,
negative,neutral,2,j,l,,,,,1,10,28,12,,,,,,,,,,,,,prac,1,1,2,neutral,negative,j,j,1,1.0154798000585288,157.77261350001208,158.78566519985907,158.76622759993188,None,157.77261350001208,None,157.77261350001208,None,157.77261350001208,None,159.78286221986636,None,159.78286221986636,None,159.78286221986636,None,,,,,,,,,,,,,,102,2023-03-28_13h25.31.970,Main,2022.1.1,59.97148949039887,
neutral,positive,2,k,k,,,,,1,11,29,13,,,,,,,,,,,,,prac,1,1,2,positive,neutral,k,k,1,0.8482436998747289,159.78852129983716,160.79949130001478,160.78278719983064,None,159.78852129983716,None,159.78852129983716,None,159.78852129983716,None,161.6328976199962,None,161.6328976199962,None,161.6328976199962,None,,,,,,,,,,,,,,102,2023-03-28_13h25.31.970,Main,2022.1.1,59.97148949039887,
positive,negative,2,l,j,,,,,1,12,30,14,,,,,,,,,,,,,prac,1,1,2,negative,positive,l,l,1,0.71544129983522,161.6376208998263,162.6494462999981,162.6356333999429,None,161.6376208998263,None,161.6376208998263,None,161.6376208998263,None,163.3495191199705,None,163.3495191199705,None,163.3495191199705,None,,,,,,,,,,,,,,102,2023-03-28_13h25.31.970,Main,2022.1.1,59.97148949039887,
neutral,neutral,1,k,k,,,,,1,13,31,1,,,,,,,,,,,,,prac,1,1,1,neutral,neutral,k,k,1,0.6652639999520034,163.3546435998287,164.36875419993885,164.33274320000783,None,163.3546435998287,None,163.3546435998287,None,163.3546435998287,None,165.01613431996665,None,165.01613431996665,None,165.01613431996665,None,,,,,,,,,,,,,,102,2023-03-28_13h25.31.970,Main,2022.1.1,59.97148949039887,
negative,negative,2,j,l,,,,,1,14,32,9,,,,,,,,,,,,,prac,2,2,2,negative,negative,j,j,1,1.0173360998742282,165.02311319997534,166.0354865998961,166.01884899986908,None,165.02311319997534,None,165.02311319997534,None,165.02311319997534,None,167.03550121993757,None,167.03550121993757,None,167.03550121993757,None,,,,,,,,,,,,,,102,2023-03-28_13h25.31.970,Main,2022.1.1,59.97148949039887,
positive,neutral,1,l,j,,,,,1,15,33,8,,,,,,,,,,,,,prac,1,1,1,neutral,positive,l,l,1,1.6453331999946386,167.042959399987,168.04934329981916,168.03267719992436,None,167.042959399987,None,167.042959399987,None,167.042959399987,None,169.68259999994189,None,169.68259999994189,None,169.68259999994189,None,,,,,,,,,,,,,,102,2023-03-28_13h25.31.970,Main,2022.1.1,59.97148949039887,
negative,neutral,1,j,l,,,,,1,16,34,3,,,,,,,,,,,,,prac,1,1,1,neutral,negative,j,l,0,0.5843446000944823,170.6829409999773,171.68524549994618,171.6659158000257,None,170.6829409999773,None,170.6829409999773,None,170.6829409999773,None,172.26601170003414,None,172.26601170003414,None,172.26601170003414,None,,,,,,,,,,,,,,102,2023-03-28_13h25.31.970,Main,2022.1.1,59.97148949039887,
neutral,negative,2,k,k,,,,,1,17,35,16,,,,,,,,,,,,,prac,2,2,2,negative,neutral,k,k,1,0.7841771000530571,173.26647119992413,174.26587519980967,174.2491933000274,None,173.26647119992413,None,173.26647119992413,None,173.26647119992413,None,175.04906181981787,None,175.04906181981787,None,175.04906181981787,None,,,,,,,,,,,,,,102,2023-03-28_13h25.31.970,Main,2022.1.1,59.97148949039887,
,,,,,,,,,,,,,,,,,,,,,,,,,,,,,,,,,,,,,,,,,,,,,,,,,,,175.04918710002676,None,space,4.712266799993813,,,,,,,,,,102,2023-03-28_13h25.31.970,Main,2022.1.1,59.97148949039887,
,,,,,,,,,,,,,,,,,,,,,,,,,,,,,,,,,,,,,,,,,,,,,,,,,,,,,,,0.7083333,-0.2824074,0,0,0,0.010860619833692908,None,,,102,2023-03-28_13h25.31.970,Main,2022.1.1,59.97148949039887,
negative,positive,1,j,l,,,,,,,,,0,0,0,6,,,,,,,179.78239179984666,None,main,2,2,1,positive,negative,j,j,1,1.0276568001136184,181.78977699996904,182.8017396000214,182.78235869994387,None,181.78977699996904,None,181.78977699996904,None,181.78977699996904,None,183.81576221985742,None,183.81576221985742,None,183.81576221985742,None,,,,,,,,,,,,,,102,2023-03-28_13h25.31.970,Main,2022.1.1,59.97148949039887,
neutral,positive,1,k,k,,,,,,,,,0,1,1,4,,,,,,,,,main,1,1,1,positive,neutral,k,k,1,0.7679286999627948,183.82188569987193,184.8351542998571,184.81847019982524,None,183.82188569987193,None,183.82188569987193,None,183.82188569987193,None,185.5824030199088,None,185.5824030199088,None,185.5824030199088,None,,,,,,,,,,,,,,102,2023-03-28_13h25.31.970,Main,2022.1.1,59.97148949039887,
neutral,negative,1,k,k,,,,,,,,,0,2,2,7,,,,,,,,,main,2,2,1,negative,neutral,k,k,1,0.6449142000637949,185.5909908998292,186.59897589986213,186.58508410002105,None,185.5909908998292,None,185.5909908998292,None,185.5909908998292,None,187.23381241983734,None,187.23381241983734,None,187.23381241983734,None,,,,,,,,,,,,,,102,2023-03-28_13h25.31.970,Main,2022.1.1,59.97148949039887,
positive,negative,2,l,j,,,,,,,,,0,3,3,14,,,,,,,,,main,1,1,2,negative,positive,l,l,1,0.9800332000013441,187.23937289998867,188.24896320002154,188.23506109998561,None,187.23937289998867,None,187.23937289998867,None,187.23937289998867,None,189.21564211989752,None,189.21564211989752,None,189.21564211989752,None,,,,,,,,,,,,,,102,2023-03-28_13h25.31.970,Main,2022.1.1,59.97148949039887,
negative,negative,2,j,l,,,,,,,,,0,4,4,9,,,,,,,,,main,2,2,2,negative,negative,j,j,1,0.8984711000230163,189.22099529998377,190.23225150001235,190.21557959984057,None,189.22099529998377,None,189.22099529998377,None,189.22099529998377,None,191.11564671983942,None,191.11564671983942,None,191.11564671983942,None,,,,,,,,,,,,,,102,2023-03-28_13h25.31.970,Main,2022.1.1,59.97148949039887,
neutral,negative,2,k,k,,,,,,,,,0,5,5,16,,,,,,,,,main,2,2,2,negative,neutral,k,k,1,0.6140006999485195,191.12161589995958,192.13489989982918,192.1155367998872,None,191.12161589995958,None,191.12161589995958,None,191.12161589995958,None,192.73213921990245,None,192.73213921990245,None,192.73213921990245,None,,,,,,,,,,,,,,102,2023-03-28_13h25.31.970,Main,2022.1.1,59.97148949039887,
negative,negative,1,j,l,,,,,,,,,0,6,6,0,,,,,,,,,main,1,1,1,negative,negative,j,j,1,0.7805790000129491,192.74054329982027,193.74882959993556,193.73498309985735,None,192.74054329982027,None,192.74054329982027,None,192.74054329982027,None,194.51557181999087,None,194.51557181999087,None,194.51557181999087,None,,,,,,,,,,,,,,102,2023-03-28_13h25.31.970,Main,2022.1.1,59.97148949039887,
positive,positive,1,l,j,,,,,,,,,0,7,7,2,,,,,,,,,main,1,1,1,positive,positive,l,l,1,1.2519503999501467,194.52056949981488,195.53211949998513,195.5155170999933,None,194.52056949981488,None,194.52056949981488,None,194.52056949981488,None,196.76871201992034,None,196.76871201992034,None,196.76871201992034,None,,,,,,,,,,,,,,102,2023-03-28_13h25.31.970,Main,2022.1.1,59.97148949039887,
positive,negative,1,l,j,,,,,,,,,0,8,8,5,,,,,,,,,main,1,1,1,negative,positive,l,l,1,1.0462040998972952,196.77250640001148,197.78206250001676,197.76539389998652,None,196.77250640001148,None,196.77250640001148,None,196.77250640001148,None,198.8154471199028,None,198.8154471199028,None,198.8154471199028,None,,,,,,,,,,,,,,102,2023-03-28_13h25.31.970,Main,2022.1.1,59.97148949039887,
negative,neutral,1,j,l,,,,,,,,,0,9,9,3,,,,,,,,,main,1,1,1,neutral,negative,j,l,0,-0.7863966999575496,198.8194076998625,None,None,None,198.8194076998625,None,198.8194076998625,None,198.8194076998625,None,199.0320778999012,None,199.0320778999012,None,199.0320778999012,None,,,,,,,,,,,,,,102,2023-03-28_13h25.31.970,Main,2022.1.1,59.97148949039887,
positive,positive,2,l,j,,,,,,,,,0,10,10,11,,,,,,,,,main,1,1,2,positive,positive,l,l,1,1.269510000012815,202.0386373999063,203.048674199963,203.03200469980948,None,202.0386373999063,None,202.0386373999063,None,202.0386373999063,None,204.30145101984962,None,204.30145101984962,None,204.30145101984962,None,,,,,,,,,,,,,,102,2023-03-28_13h25.31.970,Main,2022.1.1,59.97148949039887,
negative,positive,2,j,l,,,,,,,,,0,11,11,15,,,,,,,,,main,1,1,2,positive,negative,j,j,1,0.9618848999962211,204.3047028000001,205.3179088998586,205.2986003998667,None,204.3047028000001,None,204.3047028000001,None,204.3047028000001,None,206.2653269198723,None,206.2653269198723,None,206.2653269198723,None,,,,,,,,,,,,,,102,2023-03-28_13h25.31.970,Main,2022.1.1,59.97148949039887,
neutral,neutral,1,k,k,,,,,,,,,0,12,12,1,,,,,,,,,main,1,1,1,neutral,neutral,k,k,1,0.6816811000462621,206.268534099916,207.2846142000053,207.26523449993692,None,206.268534099916,None,206.268534099916,None,206.268534099916,None,207.94859971981495,None,207.94859971981495,None,207.94859971981495,None,,,,,,,,,,,,,,102,2023-03-28_13h25.31.970,Main,2022.1.1,59.97148949039887,
positive,neutral,2,l,j,,,,,,,,,0,13,13,17,,,,,,,,,main,2,2,2,neutral,positive,l,l,1,1.281981899868697,207.9545300998725,208.96516519994475,208.94851020001806,None,207.9545300998725,None,207.9545300998725,None,207.9545300998725,None,210.2322434199974,None,210.2322434199974,None,210.2322434199974,None,,,,,,,,,,,,,,102,2023-03-28_13h25.31.970,Main,2022.1.1,59.97148949039887,
negative,neutral,2,j,l,,,,,,,,,0,14,14,12,,,,,,,,,main,2,2,2,neutral,negative,j,l,0,0.5342918001115322,210.238084099954,211.24851269996725,211.23183729988523,None,210.238084099954,None,210.238084099954,None,210.238084099954,None,211.76810699980706,None,211.76810699980706,None,211.76810699980706,None,,,,,,,,,,,,,,102,2023-03-28_13h25.31.970,Main,2022.1.1,59.97148949039887,
neutral,positive,2,k,k,,,,,,,,,0,15,15,13,,,,,,,,,main,1,1,2,positive,neutral,k,k,1,1.4535521001089364,212.76592219993472,213.76803879998624,213.74845499987714,None,212.76592219993472,None,212.76592219993472,None,212.76592219993472,None,215.21785421986132,None,215.21785421986132,None,215.21785421986132,None,,,,,,,,,,,,,,102,2023-03-28_13h25.31.970,Main,2022.1.1,59.97148949039887,
neutral,neutral,2,k,k,,,,,,,,,0,16,16,10,,,,,,,,,main,1,1,2,neutral,neutral,k,k,1,0.7603444000706077,215.22298650001176,216.23174909991212,216.2153747000266,None,215.22298650001176,None,215.22298650001176,None,215.22298650001176,None,216.98177501992322,None,216.98177501992322,None,216.98177501992322,None,,,,,,,,,,,,,,102,2023-03-28_13h25.31.970,Main,2022.1.1,59.97148949039887,
positive,neutral,1,l,j,,,,,,,,,0,17,17,8,,,,,,,,,main,1,1,1,neutral,positive,l,l,1,1.434497500071302,216.98682369990274,217.99835020001046,217.98167529981583,None,216.98682369990274,None,216.98682369990274,None,216.98682369990274,None,219.41780071998946,None,219.41780071998946,None,219.41780071998946,None,,,,,,,,,,,,,,102,2023-03-28_13h25.31.970,Main,2022.1.1,59.97148949039887,
positive,positive,2,l,j,,,,,,,,,1,0,18,11,,,,,,,,,main,1,1,2,positive,positive,l,l,1,0.6960205000359565,219.4210512000136,220.43186190002598,220.4150463999249,None,219.4210512000136,None,219.4210512000136,None,219.4210512000136,None,221.1150395198725,None,221.1150395198725,None,221.1150395198725,None,,,,,,,,,,,,,,102,2023-03-28_13h25.31.970,Main,2022.1.1,59.97148949039887,
positive,neutral,1,l,j,,,,,,,,,1,1,19,8,,,,,,,,,main,2,2,1,neutral,positive,l,l,1,0.7011289000511169,221.12085319985636,222.13163829990663,222.11496699997224,None,221.12085319985636,None,221.12085319985636,None,221.12085319985636,None,222.81799031994305,None,222.81799031994305,None,222.81799031994305,None,,,,,,,,,,,,,,102,2023-03-28_13h25.31.970,Main,2022.1.1,59.97148949039887,
negative,neutral,2,j,l,,,,,,,,,1,2,20,12,,,,,,,,,main,2,2,2,neutral,negative,j,j,1,0.7622673998121172,222.82217149995267,223.8315633998718,223.81774249998853,None,222.82217149995267,None,222.82217149995267,None,222.82217149995267,None,224.58165781982242,None,224.58165781982242,None,224.58165781982242,None,,,,,,,,,,,,,,102,2023-03-28_13h25.31.970,Main,2022.1.1,59.97148949039887,
neutral,negative,2,k,k,,,,,,,,,1,3,21,16,,,,,,,,,main,1,1,2,negative,neutral,k,k,1,0.8341840000357479,224.5870315998327,225.6010643998161,225.56490210001357,None,224.5870315998327,None,224.5870315998327,None,224.5870315998327,None,226.41755912001244,None,226.41755912001244,None,226.41755912001244,None,,,,,,,,,,,,,,102,2023-03-28_13h25.31.970,Main,2022.1.1,59.97148949039887,
negative,neutral,1,j,l,,,,,,,,,1,4,22,3,,,,,,,,,main,2,2,1,neutral,negative,j,j,1,1.6957640999462456,226.4220777999144,227.43151979986578,227.4148683999665,None,226.4220777999144,None,226.4220777999144,None,226.4220777999144,None,229.11508469982073,None,229.11508469982073,None,229.11508469982073,None,,,,,,,,,,,,,,102,2023-03-28_13h25.31.970,Main,2022.1.1,59.97148949039887,
negative,negative,1,j,l,,,,,,,,,1,5,23,0,,,,,,,,,main,2,2,1,negative,negative,j,j,1,0.7010885998606682,230.11567529989406,231.1174743999727,231.0981327998452,None,230.11567529989406,None,230.11567529989406,None,230.11567529989406,None,231.81488681994378,None,231.81488681994378,None,231.81488681994378,None,,,,,,,,,,,,,,102,2023-03-28_13h25.31.970,Main,2022.1.1,59.97148949039887,
negative,negative,2,j,l,,,,,,,,,1,6,24,9,,,,,,,,,main,1,1,2,negative,negative,j,j,1,0.8475412998814136,231.82049619988538,232.83418709994294,232.81474149995483,None,231.82049619988538,None,231.82049619988538,None,231.82049619988538,None,233.66455061980523,None,233.66455061980523,None,233.66455061980523,None,,,,,,,,,,,,,,102,2023-03-28_13h25.31.970,Main,2022.1.1,59.97148949039887,
neutral,negative,1,k,k,,,,,,,,,1,7,25,7,,,,,,,,,main,2,2,1,negative,neutral,k,k,1,0.8830217998474836,233.6699969000183,234.68141169985756,234.64806469995528,None,233.6699969000183,None,233.6699969000183,None,233.6699969000183,None,235.54899971992708,None,235.54899971992708,None,235.54899971992708,None,,,,,,,,,,,,,,102,2023-03-28_13h25.31.970,Main,2022.1.1,59.97148949039887,
negative,positive,2,j,l,,,,,,,,,1,8,26,15,,,,,,,,,main,2,2,2,positive,negative,j,j,1,0.9308539999183267,235.555218399968,236.56746329995804,236.54803229984827,None,235.555218399968,None,235.555218399968,None,235.555218399968,None,237.48163451990112,None,237.48163451990112,None,237.48163451990112,None,,,,,,,,,,,,,,102,2023-03-28_13h25.31.970,Main,2022.1.1,59.97148949039887,
positive,negative,2,l,j,,,,,,,,,1,9,27,14,,,,,,,,,main,1,1,2,negative,positive,l,l,1,0.781607500044629,237.48682679980993,238.4979993000161,238.46483059995808,None,237.48682679980993,None,237.48682679980993,None,237.48682679980993,None,239.26472881985828,None,239.26472881985828,None,239.26472881985828,None,,,,,,,,,,,,,,102,2023-03-28_13h25.31.970,Main,2022.1.1,59.97148949039887,
neutral,positive,2,k,k,,,,,,,,,1,10,28,13,,,,,,,,,main,1,1,2,positive,neutral,k,k,1,0.7316709000151604,239.27022399986163,240.28403269988485,240.26470579998568,None,239.27022399986163,None,239.27022399986163,None,239.27022399986163,None,240.99804341993294,None,240.99804341993294,None,240.99804341993294,None,,,,,,,,,,,,,,102,2023-03-28_13h25.31.970,Main,2022.1.1,59.97148949039887,
positive,neutral,2,l,j,,,,,,,,,1,11,29,17,,,,,,,,,main,1,1,2,neutral,positive,l,l,1,0.7816019998863339,241.00125760002993,242.01754050003365,241.99791919998825,None,241.00125760002993,None,241.00125760002993,None,241.00125760002993,None,242.78131971987895,None,242.78131971987895,None,242.78131971987895,None,,,,,,,,,,,,,,102,2023-03-28_13h25.31.970,Main,2022.1.1,59.97148949039887,
positive,positive,1,l,j,,,,,,,,,1,12,30,2,,,,,,,,,main,2,2,1,positive,positive,l,l,1,0.9319239999167621,242.7865257000085,243.79788229987025,243.78121719998308,None,242.7865257000085,None,242.7865257000085,None,242.7865257000085,None,244.7146057199221,None,244.7146057199221,None,244.7146057199221,None,,,,,,,,,,,,,,102,2023-03-28_13h25.31.970,Main,2022.1.1,59.97148949039887,
neutral,neutral,1,k,k,,,,,,,,,1,13,31,1,,,,,,,,,main,2,2,1,neutral,neutral,k,k,1,0.7647261000238359,244.72056769998744,245.73115699994378,245.7144879999105,None,244.72056769998744,None,244.72056769998744,None,244.72056769998744,None,246.4815580199007,None,246.4815580199007,None,246.4815580199007,None,,,,,,,,,,,,,,102,2023-03-28_13h25.31.970,Main,2022.1.1,59.97148949039887,
neutral,positive,1,k,k,,,,,,,,,1,14,32,4,,,,,,,,,main,2,2,1,positive,neutral,k,k,1,0.7178074999246746,246.48471779981628,247.48112499993294,247.48112499993294,None,246.48471779981628,None,246.48471779981628,None,246.48471779981628,None,248.2006415199954,None,248.2006415199954,None,248.2006415199954,None,,,,,,,,,,,,,,102,2023-03-28_13h25.31.970,Main,2022.1.1,59.97148949039887,
neutral,neutral,2,k,k,,,,,,,,,1,15,33,10,,,,,,,,,main,2,2,2,neutral,neutral,k,k,1,0.613257700111717,248.2040432000067,249.2144541000016,249.19777979981154,None,248.2040432000067,None,248.2040432000067,None,248.2040432000067,None,249.81450401982292,None,249.81450401982292,None,249.81450401982292,None,,,,,,,,,,,,,,102,2023-03-28_13h25.31.970,Main,2022.1.1,59.97148949039887,
negative,positive,1,j,l,,,,,,,,,1,16,34,6,,,,,,,,,main,1,1,1,positive,negative,j,j,1,1.3304791999980807,249.8206412999425,250.83400929998606,250.81441450002603,None,249.8206412999425,None,249.8206412999425,None,249.8206412999425,None,252.14773881984874,None,252.14773881984874,None,252.14773881984874,None,,,,,,,,,,,,,,102,2023-03-28_13h25.31.970,Main,2022.1.1,59.97148949039887,
positive,negative,1,l,j,,,,,,,,,1,17,35,5,,,,,,,,,main,1,1,1,negative,positive,l,j,0,1.0821363001596183,252.15088969981298,253.14770869980566,253.14770869980566,None,252.15088969981298,None,252.15088969981298,None,252.15088969981298,None,254.23387470003217,None,254.23387470003217,None,254.23387470003217,None,,,,,,,,,,,,,,102,2023-03-28_13h25.31.970,Main,2022.1.1,59.97148949039887,
negative,negative,1,j,l,,,,,,,,,2,0,36,0,,,,,,,,,main,1,1,1,negative,negative,j,j,1,1.0563875001389533,255.2331415999215,256.24764409987256,256.21431289985776,None,255.2331415999215,None,255.2331415999215,None,255.2331415999215,None,257.2865863199346,None,257.2865863199346,None,257.2865863199346,None,,,,,,,,,,,,,,102,2023-03-28_13h25.31.970,Main,2022.1.1,59.97148949039887,
neutral,negative,1,k,k,,,,,,,,,2,1,37,7,,,,,,,,,main,1,1,1,negative,neutral,k,k,1,0.7936318998690695,257.28962269984186,258.29755779984407,258.28359609982,None,257.28962269984186,None,257.28962269984186,None,257.28962269984186,None,259.0819624198135,None,259.0819624198135,None,259.0819624198135,None,,,,,,,,,,,,,,102,2023-03-28_13h25.31.970,Main,2022.1.1,59.97148949039887,
neutral,positive,1,k,k,,,,,,,,,2,2,38,4,,,,,,,,,main,2,2,1,positive,neutral,k,k,1,1.1821125999558717,259.08789510000497,260.0975518999621,260.0808549998328,None,259.08789510000497,None,259.08789510000497,None,259.08789510000497,None,261.2642815198284,None,261.2642815198284,None,261.2642815198284,None,,,,,,,,,,,,,,102,2023-03-28_13h25.31.970,Main,2022.1.1,59.97148949039887,
positive,negative,1,l,j,,,,,,,,,2,3,39,5,,,,,,,,,main,2,2,1,negative,positive,l,l,1,1.5014074000064284,261.26879190001637,262.28092589997686,262.26419929997064,None,261.26879190001637,None,261.26879190001637,None,261.26879190001637,None,263.7639617000241,None,263.7639617000241,None,263.7639617000241,None,,,,,,,,,,,,,,102,2023-03-28_13h25.31.970,Main,2022.1.1,59.97148949039887,
positive,neutral,1,l,j,,,,,,,,,2,4,40,8,,,,,,,,,main,1,1,1,neutral,positive,l,l,1,0.6704792000818998,264.76507269986905,265.7668870999478,265.74745649984106,None,264.76507269986905,None,264.76507269986905,None,264.76507269986905,None,266.433792319987,None,266.433792319987,None,266.433792319987,None,,,,,,,,,,,,,,102,2023-03-28_13h25.31.970,Main,2022.1.1,59.97148949039887,
negative,positive,2,j,l,,,,,,,,,2,5,41,15,,,,,,,,,main,1,1,2,positive,negative,j,j,1,0.945502599934116,266.4383892000187,267.45013989997096,267.4335135000292,None,266.4383892000187,None,266.4383892000187,None,266.4383892000187,None,268.38102851985025,None,268.38102851985025,None,268.38102851985025,None,,,,,,,,,,,,,,102,2023-03-28_13h25.31.970,Main,2022.1.1,59.97148949039887,
neutral,neutral,2,k,k,,,,,,,,,2,6,42,10,,,,,,,,,main,2,2,2,neutral,neutral,k,k,1,0.681322299875319,268.3845267998986,269.38348839990795,269.38348839990795,None,268.3845267998986,None,268.3845267998986,None,268.3845267998986,None,270.06409601997586,None,270.06409601997586,None,270.06409601997586,None,,,,,,,,,,,,,,102,2023-03-28_13h25.31.970,Main,2022.1.1,59.97148949039887,
positive,positive,1,l,j,,,,,,,,,2,7,43,2,,,,,,,,,main,1,1,1,positive,positive,l,l,1,0.7511698000598699,270.06943499995396,271.08063889993355,271.0639919999521,None,270.06943499995396,None,270.06943499995396,None,270.06943499995396,None,271.8167589198798,None,271.8167589198798,None,271.8167589198798,None,,,,,,,,,,,,,,102,2023-03-28_13h25.31.970,Main,2022.1.1,59.97148949039887,
positive,negative,2,l,j,,,,,,,,,2,8,44,14,,,,,,,,,main,1,1,2,negative,positive,l,l,1,1.194204900180921,271.82100060000084,272.83332389988936,272.81672589993104,None,271.82100060000084,None,271.82100060000084,None,271.82100060000084,None,274.01397631983275,None,274.01397631983275,None,274.01397631983275,None,,,,,,,,,,,,,,102,2023-03-28_13h25.31.970,Main,2022.1.1,59.97148949039887,
negative,negative,2,j,l,,,,,,,,,2,9,45,9,,,,,,,,,main,1,1,2,negative,negative,j,j,1,0.8660311999265105,274.01828889991157,275.0305740998592,275.01388749992475,None,274.01828889991157,None,274.01828889991157,None,274.01828889991157,None,275.88060311987067,None,275.88060311987067,None,275.88060311987067,None,,,,,,,,,,,,,,102,2023-03-28_13h25.31.970,Main,2022.1.1,59.97148949039887,
neutral,negative,2,k,k,,,,,,,,,2,10,46,16,,,,,,,,,main,1,1,2,negative,neutral,k,k,1,0.5812534000724554,275.8864956998732,276.89718670002185,276.88053560000844,None,275.8864956998732,None,275.8864956998732,None,275.8864956998732,None,277.46398491985167,None,277.46398491985167,None,277.46398491985167,None,,,,,,,,,,,,,,102,2023-03-28_13h25.31.970,Main,2022.1.1,59.97148949039887,
neutral,positive,2,k,k,,,,,,,,,2,11,47,13,,,,,,,,,main,2,2,2,positive,neutral,k,k,1,0.714832799974829,277.4694515999872,278.48333969991654,278.466682799859,None,277.4694515999872,None,277.4694515999872,None,277.4694515999872,None,279.1803659199737,None,279.1803659199737,None,279.1803659199737,None,,,,,,,,,,,,,,102,2023-03-28_13h25.31.970,Main,2022.1.1,59.97148949039887,
positive,positive,2,l,j,,,,,,,,,2,12,48,11,,,,,,,,,main,2,2,2,positive,positive,l,l,1,0.6991163999773562,279.1868137998972,280.199862399837,280.18374140001833,None,279.1868137998972,None,279.1868137998972,None,279.1868137998972,None,280.8808786199894,None,280.8808786199894,None,280.8808786199894,None,,,,,,,,,,,,,,102,2023-03-28_13h25.31.970,Main,2022.1.1,59.97148949039887,
negative,neutral,2,j,l,,,,,,,,,2,13,49,12,,,,,,,,,main,2,2,2,neutral,negative,j,j,1,0.8310748999938369,280.8864396000281,281.8971021999605,281.8832713998854,None,280.8864396000281,None,280.8864396000281,None,280.8864396000281,None,282.7138184198644,None,282.7138184198644,None,282.7138184198644,None,,,,,,,,,,,,,,102,2023-03-28_13h25.31.970,Main,2022.1.1,59.97148949039887,
neutral,neutral,1,k,k,,,,,,,,,2,14,50,1,,,,,,,,,main,1,1,1,neutral,neutral,k,k,1,0.6482386002317071,282.71940079983324,283.73070299997926,283.71659119986,None,282.71940079983324,None,282.71940079983324,None,282.71940079983324,None,284.36358101982626,None,284.36358101982626,None,284.36358101982626,None,,,,,,,,,,,,,,102,2023-03-28_13h25.31.970,Main,2022.1.1,59.97148949039887,
positive,neutral,2,l,j,,,,,,,,,2,15,51,17,,,,,,,,,main,2,2,2,neutral,positive,l,l,1,0.73201910010539,284.3689273998607,285.3805790999904,285.34993259981275,None,284.3689273998607,None,284.3689273998607,None,284.3689273998607,None,286.097143719811,None,286.097143719811,None,286.097143719811,None,,,,,,,,,,,,,,102,2023-03-28_13h25.31.970,Main,2022.1.1,59.97148949039887,
negative,neutral,1,j,l,,,,,,,,,2,16,52,3,,,,,,,,,main,2,2,1,neutral,negative,j,j,1,1.2979928001295775,286.10050499998033,287.09702679980546,287.09702679980546,None,286.10050499998033,None,286.10050499998033,None,286.10050499998033,None,288.3970479198266,None,288.3970479198266,None,288.3970479198266,None,,,,,,,,,,,,,,102,2023-03-28_13h25.31.970,Main,2022.1.1,59.97148949039887,
negative,positive,1,j,l,,,,,,,,,2,17,53,6,,,,,,,,,main,1,1,1,positive,negative,j,j,1,0.781924300128594,288.4019086000044,289.4163400998805,289.3996756998822,None,288.4019086000044,None,288.4019086000044,None,288.4019086000044,None,290.18035881980325,None,290.18035881980325,None,290.18035881980325,None,,,,,,,,,,,,,,102,2023-03-28_13h25.31.970,Main,2022.1.1,59.97148949039887,
positive,neutral,2,l,j,,,,,,,,,3,0,54,17,,,,,,,,,main,1,1,2,neutral,positive,l,l,1,1.215369600104168,290.1851209998131,291.19967420003377,291.16694819997065,None,290.1851209998131,None,290.1851209998131,None,290.1851209998131,None,292.39699761979284,None,292.39699761979284,None,292.39699761979284,None,,,,,,,,,,,,,,102,2023-03-28_13h25.31.970,Main,2022.1.1,59.97148949039887,
neutral,negative,2,k,k,,,,,,,,,3,1,55,16,,,,,,,,,main,2,2,2,negative,neutral,k,k,1,0.7688724999316037,292.4030150999315,293.41645170003176,293.3996635999065,None,292.4030150999315,None,292.4030150999315,None,292.4030150999315,None,294.166302419873,None,294.166302419873,None,294.166302419873,None,,,,,,,,,,,,,,102,2023-03-28_13h25.31.970,Main,2022.1.1,59.97148949039887,
positive,negative,1,l,j,,,,,,,,,3,2,56,5,,,,,,,,,main,1,1,1,negative,positive,l,l,1,1.0308987000025809,294.170239900006,295.18286810000427,295.1662926999852,None,294.170239900006,None,294.170239900006,None,294.170239900006,None,296.19972911980005,None,296.19972911980005,None,296.19972911980005,None,,,,,,,,,,,,,,102,2023-03-28_13h25.31.970,Main,2022.1.1,59.97148949039887,
negative,negative,1,j,l,,,,,,,,,3,3,57,0,,,,,,,,,main,2,2,1,negative,negative,j,l,0,0.8286646001506597,296.2030076999217,297.21630359999835,297.19962590001523,None,296.2030076999217,None,296.2030076999217,None,296.2030076999217,None,298.03013610001653,None,298.03013610001653,None,298.03013610001653,None,,,,,,,,,,,,,,102,2023-03-28_13h25.31.970,Main,2022.1.1,59.97148949039887,
neutral,negative,1,k,k,,,,,,,,,3,4,58,7,,,,,,,,,main,2,2,1,negative,neutral,k,k,1,0.7675660999957472,299.03123979992233,300.0300975998398,300.01620049984194,None,299.03123979992233,None,299.03123979992233,None,299.03123979992233,None,300.7969940199051,None,300.7969940199051,None,300.7969940199051,None,,,,,,,,,,,,,,102,2023-03-28_13h25.31.970,Main,2022.1.1,59.97148949039887,
negative,neutral,2,j,l,,,,,,,,,3,5,59,12,,,,,,,,,main,2,2,2,neutral,negative,j,j,1,0.7823405999224633,300.8033034999389,301.8162139998749,301.79674859996885,None,300.8033034999389,None,300.8033034999389,None,300.8033034999389,None,302.58013421986254,None,302.58013421986254,None,302.58013421986254,None,,,,,,,,,,,,,,102,2023-03-28_13h25.31.970,Main,2022.1.1,59.97148949039887,
negative,neutral,1,j,l,,,,,,,,,3,6,60,3,,,,,,,,,main,2,2,1,neutral,negative,j,j,1,1.1137877001892775,302.5866784998216,303.5994158999529,303.58281499985605,None,302.5866784998216,None,302.5866784998216,None,302.5866784998216,None,304.6967373198364,None,304.6967373198364,None,304.6967373198364,None,,,,,,,,,,,,,,102,2023-03-28_13h25.31.970,Main,2022.1.1,59.97148949039887,
positive,positive,2,l,j,,,,,,,,,3,7,61,11,,,,,,,,,main,1,1,2,positive,positive,l,l,1,0.8494790999684483,304.701881499961,305.713334799977,305.68013809993863,None,304.701881499961,None,304.701881499961,None,304.701881499961,None,306.5467252199538,None,306.5467252199538,None,306.5467252199538,None,,,,,,,,,,,,,,102,2023-03-28_13h25.31.970,Main,2022.1.1,59.97148949039887,
positive,negative,2,l,j,,,,,,,,,3,8,62,14,,,,,,,,,main,2,2,2,negative,positive,l,l,1,0.7319674000609666,306.55097249988467,307.5633117000107,307.5466400999576,None,306.55097249988467,None,306.55097249988467,None,306.55097249988467,None,308.28003421998585,None,308.28003421998585,None,308.28003421998585,None,,,,,,,,,,,,,,102,2023-03-28_13h25.31.970,Main,2022.1.1,59.97148949039887,
positive,positive,1,l,j,,,,,,,,,3,9,63,2,,,,,,,,,main,2,2,1,positive,positive,l,l,1,1.0804598000831902,308.2844897999894,309.29661999992095,309.28270079987124,None,308.2844897999894,None,308.2844897999894,None,308.2844897999894,None,310.36330111990685,None,310.36330111990685,None,310.36330111990685,None,,,,,,,,,,,,,,102,2023-03-28_13h25.31.970,Main,2022.1.1,59.97148949039887,
neutral,positive,2,k,k,,,,,,,,,3,10,64,13,,,,,,,,,main,1,1,2,positive,neutral,k,k,1,0.698286100057885,310.3684539999813,311.3825888999272,311.34657199983485,None,310.3684539999813,None,310.3684539999813,None,310.3684539999813,None,312.06327351988296,None,312.06327351988296,None,312.06327351988296,None,,,,,,,,,,,,,,102,2023-03-28_13h25.31.970,Main,2022.1.1,59.97148949039887,
neutral,positive,1,k,k,,,,,,,,,3,11,65,4,,,,,,,,,main,2,2,1,positive,neutral,k,k,1,0.7319014999084175,312.0685999998823,313.07986659999005,313.04651979985647,None,312.0685999998823,None,312.0685999998823,None,312.0685999998823,None,313.79666721997785,None,313.79666721997785,None,313.79666721997785,None,,,,,,,,,,,,,,102,2023-03-28_13h25.31.970,Main,2022.1.1,59.97148949039887,
neutral,neutral,1,k,k,,,,,,,,,3,12,66,1,,,,,,,,,main,2,2,1,neutral,neutral,k,k,1,0.6660029999911785,313.7997691000346,314.81633779988624,314.79648959985934,None,313.7997691000346,None,313.7997691000346,None,313.7997691000346,None,315.46320361983965,None,315.46320361983965,None,315.46320361983965,None,,,,,,,,,,,,,,102,2023-03-28_13h25.31.970,Main,2022.1.1,59.97148949039887,
negative,negative,2,j,l,,,,,,,,,3,13,67,9,,,,,,,,,main,2,2,2,negative,negative,j,j,1,0.7317260000854731,315.4797961998265,316.48258029995486,316.4659372000024,None,315.4797961998265,None,315.4797961998265,None,315.4797961998265,None,317.1964711199049,None,317.1964711199049,None,317.1964711199049,None,,,,,,,,,,,,,,102,2023-03-28_13h25.31.970,Main,2022.1.1,59.97148949039887,
negative,positive,2,j,l,,,,,,,,,3,14,68,15,,,,,,,,,main,2,2,2,positive,negative,j,j,1,0.6474625999107957,317.2023018999025,318.21306849992834,318.1965164998546,None,317.2023018999025,None,317.2023018999025,None,317.2023018999025,None,318.8463870199863,None,318.8463870199863,None,318.8463870199863,None,,,,,,,,,,,,,,102,2023-03-28_13h25.31.970,Main,2022.1.1,59.97148949039887,
positive,neutral,1,l,j,,,,,,,,,3,15,69,8,,,,,,,,,main,1,1,1,neutral,positive,l,l,1,1.8981337000150234,318.8526865998283,319.86327390000224,319.84639299986884,None,318.8526865998283,None,318.8526865998283,None,318.8526865998283,None,321.746356499847,None,321.746356499847,None,321.746356499847,None,,,,,,,,,,,,,,102,2023-03-28_13h25.31.970,Main,2022.1.1,59.97148949039887,
negative,positive,1,j,l,,,,,,,,,3,16,70,6,,,,,,,,,main,1,1,1,positive,negative,j,l,0,1.6341840999666601,322.7474450999871,323.7628007000312,323.7296233000234,None,322.7474450999871,None,322.7474450999871,None,322.7474450999871,None,325.3798350999132,None,325.3798350999132,None,325.3798350999132,None,,,,,,,,,,,,,,102,2023-03-28_13h25.31.970,Main,2022.1.1,59.97148949039887,
neutral,neutral,2,k,k,,,,,,,,,3,17,71,10,,,,,,,,,main,2,2,2,neutral,neutral,k,k,1,0.7839603000320494,326.38068039994687,327.3823325999547,327.36569499992765,None,326.38068039994687,None,326.38068039994687,None,326.38068039994687,None,328.16271391990597,None,328.16271391990597,None,328.16271391990597,None,,,,,,,,,,,,,,102,2023-03-28_13h25.31.970,Main,2022.1.1,59.97148949039887,
negative,positive,1,j,l,,,,,,,,,4,0,72,6,,,,,,,,,main,1,1,1,positive,negative,j,j,1,0.8815208999440074,328.16635699989274,329.1823984000366,329.1657330999151,None,328.16635699989274,None,328.16635699989274,None,328.16635699989274,None,330.0462393198628,None,330.0462393198628,None,330.0462393198628,None,,,,,,,,,,,,,,102,2023-03-28_13h25.31.970,Main,2022.1.1,59.97148949039887,
neutral,negative,1,k,k,,,,,,,,,4,1,73,7,,,,,,,,,main,2,2,1,negative,neutral,k,k,1,0.7690204000100493,330.0523844999261,331.0627931000199,331.0488725998439,None,330.0523844999261,None,330.0523844999261,None,330.0523844999261,None,331.815593719855,None,331.815593719855,None,331.815593719855,None,,,,,,,,,,,,,,102,2023-03-28_13h25.31.970,Main,2022.1.1,59.97148949039887,
neutral,neutral,1,k,k,,,,,,,,,4,2,74,1,,,,,,,,,main,1,1,1,neutral,neutral,k,k,1,0.8944715999532491,331.8195437998511,332.8322097999044,332.8156359998975,None,331.8195437998511,None,331.8195437998511,None,331.8195437998511,None,333.7128469198011,None,333.7128469198011,None,333.7128469198011,None,,,,,,,,,,,,,,102,2023-03-28_13h25.31.970,Main,2022.1.1,59.97148949039887,
negative,negative,2,j,l,,,,,,,,,4,3,75,9,,,,,,,,,main,2,2,2,negative,negative,j,j,1,0.8482987999450415,333.7161574999336,334.7322311999742,334.6960960999131,None,333.7161574999336,None,333.7161574999336,None,333.7161574999336,None,335.5628271199763,None,335.5628271199763,None,335.5628271199763,None,,,,,,,,,,,,,,102,2023-03-28_13h25.31.970,Main,2022.1.1,59.97148949039887,
positive,positive,1,l,j,,,,,,,,,4,4,76,2,,,,,,,,,main,2,2,1,positive,positive,l,l,1,1.6318285998422652,335.5682630999945,336.57936979993246,336.5655500998255,None,335.5682630999945,None,335.5682630999945,None,335.5682630999945,None,338.1960394999478,None,338.1960394999478,None,338.1960394999478,None,,,,,,,,,,,,,,102,2023-03-28_13h25.31.970,Main,2022.1.1,59.97148949039887,
negative,neutral,2,j,l,,,,,,,,,4,5,77,12,,,,,,,,,main,1,1,2,neutral,negative,j,j,1,0.8340920000337064,339.1973987999372,340.19857849995606,340.18202569987625,None,339.1973987999372,None,339.1973987999372,None,339.1973987999372,None,341.0293596199714,None,341.0293596199714,None,341.0293596199714,None,,,,,,,,,,,,,,102,2023-03-28_13h25.31.970,Main,2022.1.1,59.97148949039887,
negative,negative,1,j,l,,,,,,,,,4,6,78,0,,,,,,,,,main,2,2,1,negative,negative,j,j,1,0.8508011000230908,341.03516159998253,342.04859409993514,342.02925119991414,None,341.03516159998253,None,341.03516159998253,None,341.03516159998253,None,342.88207021998244,None,342.88207021998244,None,342.88207021998244,None,,,,,,,,,,,,,,102,2023-03-28_13h25.31.970,Main,2022.1.1,59.97148949039887,
positive,neutral,2,l,j,,,,,,,,,4,7,79,17,,,,,,,,,main,2,2,2,neutral,positive,l,l,1,0.7959916999097914,342.8852623999119,343.8958967998624,343.8793017999269,None,342.8852623999119,None,342.8852623999119,None,342.8852623999119,None,344.67936811982656,None,344.67936811982656,None,344.67936811982656,None,,,,,,,,,,,,,,102,2023-03-28_13h25.31.970,Main,2022.1.1,59.97148949039887,
neutral,positive,2,k,k,,,,,,,,,4,8,80,13,,,,,,,,,main,2,2,2,positive,neutral,k,k,1,0.7811640000436455,344.68365389993414,345.6959455998149,345.67924569989555,None,344.68365389993414,None,344.68365389993414,None,344.68365389993414,None,346.46237641982736,None,346.46237641982736,None,346.46237641982736,None,,,,,,,,,,,,,,102,2023-03-28_13h25.31.970,Main,2022.1.1,59.97148949039887,
neutral,neutral,2,k,k,,,,,,,,,4,9,81,10,,,,,,,,,main,2,2,2,neutral,neutral,k,k,1,1.2650202999357134,346.46897959988564,347.4819521999452,347.46532540000044,None,346.46897959988564,None,346.46897959988564,None,346.46897959988564,None,348.72900071986953,None,348.72900071986953,None,348.72900071986953,None,,,,,,,,,,,,,,102,2023-03-28_13h25.31.970,Main,2022.1.1,59.97148949039887,
neutral,positive,1,k,k,,,,,,,,,4,10,82,4,,,,,,,,,main,2,2,1,positive,neutral,k,k,1,0.6646348000504076,348.7388267000206,349.74580999999307,349.72914129984565,None,348.7388267000206,None,348.7388267000206,None,348.7388267000206,None,350.3958699199371,None,350.3958699199371,None,350.3958699199371,None,,,,,,,,,,,,,,102,2023-03-28_13h25.31.970,Main,2022.1.1,59.97148949039887,
negative,neutral,1,j,l,,,,,,,,,4,11,83,3,,,,,,,,,main,2,2,1,neutral,negative,j,j,1,0.8811490000225604,350.4018825998064,351.4152699999977,351.395777199883,None,350.4018825998064,None,350.4018825998064,None,350.4018825998064,None,352.27945341998714,None,352.27945341998714,None,352.27945341998714,None,,,,,,,,,,,,,,102,2023-03-28_13h25.31.970,Main,2022.1.1,59.97148949039887,
positive,positive,2,l,j,,,,,,,,,4,12,84,11,,,,,,,,,main,1,1,2,positive,positive,l,l,1,0.8676950000226498,352.2848715998698,353.2957325000316,353.2791142000351,None,352.2848715998698,None,352.2848715998698,None,352.2848715998698,None,354.1486195199192,None,354.1486195199192,None,354.1486195199192,None,,,,,,,,,,,,,,102,2023-03-28_13h25.31.970,Main,2022.1.1,59.97148949039887,
negative,positive,2,j,l,,,,,,,,,4,13,85,15,,,,,,,,,main,2,2,2,positive,negative,j,j,1,1.4117907001636922,354.15172580000944,355.1651584999636,355.14568499987945,None,354.15172580000944,None,354.15172580000944,None,354.15172580000944,None,356.5623500199523,None,356.5623500199523,None,356.5623500199523,None,,,,,,,,,,,,,,102,2023-03-28_13h25.31.970,Main,2022.1.1,59.97148949039887,
positive,negative,1,l,j,,,,,,,,,4,14,86,5,,,,,,,,,main,2,2,1,negative,positive,l,l,1,1.1655222000554204,356.56514269998297,357.5789803999942,357.5622968999669,None,356.56514269998297,None,356.56514269998297,None,356.56514269998297,None,358.7290942199994,None,358.7290942199994,None,358.7290942199994,None,,,,,,,,,,,,,,102,2023-03-28_13h25.31.970,Main,2022.1.1,59.97148949039887,
positive,negative,2,l,j,,,,,,,,,4,15,87,14,,,,,,,,,main,1,1,2,negative,positive,l,l,1,0.6482239000033587,358.7323659998365,359.7455897999462,359.7295506999362,None,358.7323659998365,None,358.7323659998365,None,358.7323659998365,None,360.37899391995745,None,360.37899391995745,None,360.37899391995745,None,,,,,,,,,,,,,,102,2023-03-28_13h25.31.970,Main,2022.1.1,59.97148949039887,
positive,neutral,1,l,j,,,,,,,,,4,16,88,8,,,,,,,,,main,1,1,1,neutral,positive,l,l,1,0.8677482998464257,360.38198289996944,361.3982979999855,361.38217919995077,None,360.38198289996944,None,360.38198289996944,None,360.38198289996944,None,362.2483761200216,None,362.2483761200216,None,362.2483761200216,None,,,,,,,,,,,,,,102,2023-03-28_13h25.31.970,Main,2022.1.1,59.97148949039887,
neutral,negative,2,k,k,,,,,,,,,4,17,89,16,,,,,,,,,main,1,1,2,negative,neutral,k,k,1,0.7124251001514494,362.250836199848,363.2653579998296,363.2455967999995,None,362.250836199848,None,362.250836199848,None,362.250836199848,None,363.96227902001704,None,363.96227902001704,None,363.96227902001704,None,,,,,,,,,,,,,,102,2023-03-28_13h25.31.970,Main,2022.1.1,59.97148949039887,
positive,neutral,1,l,j,,,,,,,,,5,0,90,8,,,,,,,,,main,1,1,1,neutral,positive,l,k,0,1.0152060000691563,363.96744399983436,364.9815133998636,364.96485729981214,None,363.96744399983436,None,363.96744399983436,None,363.96744399983436,None,365.9787843998056,None,365.9787843998056,None,365.9787843998056,None,,,,,,,,,,,,,,102,2023-03-28_13h25.31.970,Main,2022.1.1,59.97148949039887,
neutral,neutral,2,k,k,,,,,,,,,5,1,91,10,,,,,,,,,main,2,2,2,neutral,neutral,k,k,1,0.7534054999705404,366.9787665999029,367.9787300999742,367.9620739999227,None,366.9787665999029,None,366.9787665999029,None,366.9787665999029,None,368.7286579198204,None,368.7286579198204,None,368.7286579198204,None,,,,,,,,,,,,,,102,2023-03-28_13h25.31.970,Main,2022.1.1,59.97148949039887,
negative,neutral,1,j,l,,,,,,,,,5,2,92,3,,,,,,,,,main,2,2,1,neutral,negative,j,j,1,1.0316113999579102,368.7349379998632,369.7480146999005,369.72874599997886,None,368.7349379998632,None,368.7349379998632,None,368.7349379998632,None,370.7620823198464,None,370.7620823198464,None,370.7620823198464,None,,,,,,,,,,,,,,102,2023-03-28_13h25.31.970,Main,2022.1.1,59.97148949039887,
negative,negative,2,j,l,,,,,,,,,5,3,93,9,,,,,,,,,main,1,1,2,negative,negative,j,j,1,0.834610200021416,370.76684239995666,371.7786717999261,371.7619872998912,None,370.76684239995666,None,370.76684239995666,None,370.76684239995666,None,372.5981459199917,None,372.5981459199917,None,372.5981459199917,None,,,,,,,,,,,,,,102,2023-03-28_13h25.31.970,Main,2022.1.1,59.97148949039887,
positive,negative,2,l,j,,,,,,,,,5,4,94,14,,,,,,,,,main,2,2,2,negative,positive,l,l,1,0.8310054999310523,372.6013010998722,373.6148522000294,373.59533719997853,None,372.6013010998722,None,372.6013010998722,None,372.6013010998722,None,374.429796519829,None,374.429796519829,None,374.429796519829,None,,,,,,,,,,,,,,102,2023-03-28_13h25.31.970,Main,2022.1.1,59.97148949039887,
neutral,positive,1,k,k,,,,,,,,,5,5,95,4,,,,,,,,,main,1,1,1,positive,neutral,k,k,1,0.6672064000740647,374.43565199989825,375.4479972999543,375.43144609988667,None,374.43565199989825,None,374.43565199989825,None,374.43565199989825,None,376.0954207199626,None,376.0954207199626,None,376.0954207199626,None,,,,,,,,,,,,,,102,2023-03-28_13h25.31.970,Main,2022.1.1,59.97148949039887,
positive,positive,2,l,j,,,,,,,,,5,6,96,11,,,,,,,,,main,1,1,2,positive,positive,l,l,1,0.7434807999525219,376.1045450998936,377.1119329999201,377.09796209982596,None,376.1045450998936,None,376.1045450998936,None,376.1045450998936,None,377.84532251991334,None,377.84532251991334,None,377.84532251991334,None,,,,,,,,,,,,,,102,2023-03-28_13h25.31.970,Main,2022.1.1,59.97148949039887,
neutral,negative,2,k,k,,,,,,,,,5,7,97,16,,,,,,,,,main,2,2,2,negative,neutral,k,k,1,0.7318835000041872,377.8496387999039,378.8646552998107,378.84523129998706,None,377.8496387999039,None,377.8496387999039,None,377.8496387999039,None,379.57892411984506,None,379.57892411984506,None,379.57892411984506,None,,,,,,,,,,,,,,102,2023-03-28_13h25.31.970,Main,2022.1.1,59.97148949039887,
positive,neutral,2,l,j,,,,,,,,,5,8,98,17,,,,,,,,,main,2,2,2,neutral,positive,l,l,1,0.8146182000637054,379.5846758999396,380.59519169991836,380.578526499914,None,379.5846758999396,None,379.5846758999396,None,379.5846758999396,None,381.39505801992493,None,381.39505801992493,None,381.39505801992493,None,,,,,,,,,,,,,,102,2023-03-28_13h25.31.970,Main,2022.1.1,59.97148949039887,
neutral,positive,2,k,k,,,,,,,,,5,9,99,13,,,,,,,,,main,2,2,2,positive,neutral,k,k,1,1.3513933999929577,381.4015305999201,382.4118242999539,382.39521180000156,None,381.4015305999201,None,381.4015305999201,None,381.4015305999201,None,383.74799691992814,None,383.74799691992814,None,383.74799691992814,None,,,,,,,,,,,,,,102,2023-03-28_13h25.31.970,Main,2022.1.1,59.97148949039887,
negative,positive,1,j,l,,,,,,,,,5,10,100,6,,,,,,,,,main,2,2,1,positive,negative,j,j,1,0.7787026998121291,383.7511680999305,384.7645018999465,384.7478561999742,None,383.7511680999305,None,383.7511680999305,None,383.7511680999305,None,385.5284897199832,None,385.5284897199832,None,385.5284897199832,None,,,,,,,,,,,,,,102,2023-03-28_13h25.31.970,Main,2022.1.1,59.97148949039887,
negative,negative,1,j,l,,,,,,,,,5,11,101,0,,,,,,,,,main,1,1,1,negative,negative,j,j,1,0.6340498998761177,385.534415199887,386.54507589992136,386.5312261998188,None,385.534415199887,None,385.534415199887,None,385.534415199887,None,387.1640835198574,None,387.1640835198574,None,387.1640835198574,None,,,,,,,,,,,,,,102,2023-03-28_13h25.31.970,Main,2022.1.1,59.97148949039887,
negative,neutral,2,j,l,,,,,,,,,5,12,102,12,,,,,,,,,main,2,2,2,neutral,negative,j,j,1,0.8634796999394894,387.16882939985953,388.17883510002866,388.16450189985335,None,387.16882939985953,None,387.16882939985953,None,387.16882939985953,None,389.02816201993267,None,389.02816201993267,None,389.02816201993267,None,,,,,,,,,,,,,,102,2023-03-28_13h25.31.970,Main,2022.1.1,59.97148949039887,
positive,positive,1,l,j,,,,,,,,,5,13,103,2,,,,,,,,,main,2,2,1,positive,positive,l,l,1,1.4146326000336558,389.03414659993723,390.0449789999984,390.0310964998789,None,389.03414659993723,None,389.03414659993723,None,389.03414659993723,None,391.4450639199,None,391.4450639199,None,391.4450639199,None,,,,,,,,,,,,,,102,2023-03-28_13h25.31.970,Main,2022.1.1,59.97148949039887,
positive,negative,1,l,j,,,,,,,,,5,14,104,5,,,,,,,,,main,2,2,1,negative,positive,l,l,1,0.6316077997907996,391.4502771999687,392.4644672998693,392.4449787000194,None,391.4502771999687,None,391.4502771999687,None,391.4502771999687,None,393.07832361981275,None,393.07832361981275,None,393.07832361981275,None,,,,,,,,,,,,,,102,2023-03-28_13h25.31.970,Main,2022.1.1,59.97148949039887,
neutral,negative,1,k,k,,,,,,,,,5,15,105,7,,,,,,,,,main,1,1,1,negative,neutral,k,k,1,0.6236185000743717,393.0822405000217,394.0949206999503,394.0644064999651,None,393.0822405000217,None,393.0822405000217,None,393.0822405000217,None,394.6995456199162,None,394.6995456199162,None,394.6995456199162,None,,,,,,,,,,,,,,102,2023-03-28_13h25.31.970,Main,2022.1.1,59.97148949039887,
neutral,neutral,1,k,k,,,,,,,,,5,16,106,1,,,,,,,,,main,2,2,1,neutral,neutral,k,k,1,0.5896161000709981,394.70693999994546,395.71421290002763,395.6975706999656,None,394.70693999994546,None,394.70693999994546,None,394.70693999994546,None,396.2949274200015,None,396.2949274200015,None,396.2949274200015,None,,,,,,,,,,,,,,102,2023-03-28_13h25.31.970,Main,2022.1.1,59.97148949039887,
negative,positive,2,j,l,,,,,,,,,5,17,107,15,,,,,,,,,main,1,1,2,positive,negative,j,j,1,0.7164488001726568,396.29836799995974,397.29502859991044,397.29502859991044,None,396.29836799995974,None,396.29836799995974,None,396.29836799995974,None,398.01339051979596,None,398.01339051979596,None,398.01339051979596,None,,,,,,,,,,,,,,102,2023-03-28_13h25.31.970,Main,2022.1.1,59.97148949039887,
neutral,neutral,2,k,k,,,,,,,,,6,0,108,10,,,,,,,,,main,2,2,2,neutral,neutral,k,k,1,1.1469278999138623,398.0184912998229,399.02815259993076,399.0114588998258,None,398.0184912998229,None,398.0184912998229,None,398.0184912998229,None,400.1615270198323,None,400.1615270198323,None,400.1615270198323,None,,,,,,,,,,,,,,102,2023-03-28_13h25.31.970,Main,2022.1.1,59.97148949039887,
negative,positive,2,j,l,,,,,,,,,6,1,109,15,,,,,,,,,main,2,2,2,positive,negative,j,j,1,0.8011981998570263,400.1654908999335,401.17814720002934,401.14544669981115,None,400.1654908999335,None,400.1654908999335,None,400.1654908999335,None,401.96418181983756,None,401.96418181983756,None,401.96418181983756,None,,,,,,,,,,,,,,102,2023-03-28_13h25.31.970,Main,2022.1.1,59.97148949039887,
positive,positive,2,l,j,,,,,,,,,6,2,110,11,,,,,,,,,main,1,1,2,positive,positive,l,l,1,0.8651837001089007,401.9670299999416,402.9780774998944,402.9616696999874,None,401.9670299999416,None,401.9670299999416,None,401.9670299999416,None,403.8309501199052,None,403.8309501199052,None,403.8309501199052,None,,,,,,,,,,,,,,102,2023-03-28_13h25.31.970,Main,2022.1.1,59.97148949039887,
neutral,negative,1,k,k,,,,,,,,,6,3,111,7,,,,,,,,,main,2,2,1,negative,neutral,k,k,1,1.07889339979738,403.8338106998708,404.8474075999111,404.83089909981936,None,403.8338106998708,None,403.8338106998708,None,403.8338106998708,None,405.91143061979676,None,405.91143061979676,None,405.91143061979676,None,,,,,,,,,,,,,,102,2023-03-28_13h25.31.970,Main,2022.1.1,59.97148949039887,
negative,neutral,1,j,l,,,,,,,,,6,4,112,3,,,,,,,,,main,2,2,1,neutral,negative,j,j,1,1.6314176998566836,405.9147012999747,406.927982499823,406.91133169992827,None,405.9147012999747,None,405.9147012999747,None,405.9147012999747,None,408.54465939989313,None,408.54465939989313,None,408.54465939989313,None,,,,,,,,,,,,,,102,2023-03-28_13h25.31.970,Main,2022.1.1,59.97148949039887,
positive,negative,2,l,j,,,,,,,,,6,5,113,14,,,,,,,,,main,2,2,2,negative,positive,l,l,1,1.117434199899435,409.54553160001524,410.5446056998335,410.530887800036,None,409.54553160001524,None,409.54553160001524,None,409.54553160001524,None,411.6613237197977,None,411.6613237197977,None,411.6613237197977,None,,,,,,,,,,,,,,102,2023-03-28_13h25.31.970,Main,2022.1.1,59.97148949039887,
positive,neutral,2,l,j,,,,,,,,,6,6,114,17,,,,,,,,,main,2,2,2,neutral,positive,l,l,1,0.7179545001126826,411.66708579985425,412.6778903999366,412.66400470002554,None,411.66708579985425,None,411.66708579985425,None,411.66708579985425,None,413.38078631986866,None,413.38078631986866,None,413.38078631986866,None,,,,,,,,,,,,,,102,2023-03-28_13h25.31.970,Main,2022.1.1,59.97148949039887,
negative,negative,2,j,l,,,,,,,,,6,7,115,9,,,,,,,,,main,1,1,2,negative,negative,j,j,1,0.7783059000503272,413.3840899998322,414.3945334998425,414.3778673999477,None,413.3840899998322,None,413.3840899998322,None,413.3840899998322,None,415.1612388199661,None,415.1612388199661,None,415.1612388199661,None,,,,,,,,,,,,,,102,2023-03-28_13h25.31.970,Main,2022.1.1,59.97148949039887,
negative,positive,1,j,l,,,,,,,,,6,8,116,6,,,,,,,,,main,2,2,1,positive,negative,j,j,1,0.948460599873215,415.16453219996765,416.1779063998256,416.1444692998193,None,415.16453219996765,None,415.16453219996765,None,415.16453219996765,None,417.1111849198584,None,417.1111849198584,None,417.1111849198584,None,,,,,,,,,,,,,,102,2023-03-28_13h25.31.970,Main,2022.1.1,59.97148949039887,
negative,negative,1,j,l,,,,,,,,,6,9,117,0,,,,,,,,,main,1,1,1,negative,negative,j,j,1,0.8175789997912943,417.11446839990094,418.1277556999121,418.09442849992774,None,417.11446839990094,None,417.11446839990094,None,417.11446839990094,None,418.93052601991224,None,418.93052601991224,None,418.93052601991224,None,,,,,,,,,,,,,,102,2023-03-28_13h25.31.970,Main,2022.1.1,59.97148949039887,
neutral,negative,2,k,k,,,,,,,,,6,10,118,16,,,,,,,,,main,1,1,2,negative,neutral,k,k,1,0.7461541001684964,418.9328813999891,419.9444241998717,419.93054710002616,None,418.9328813999891,None,418.9328813999891,None,418.9328813999891,None,420.67802641997116,None,420.67802641997116,None,420.67802641997116,None,,,,,,,,,,,,,,102,2023-03-28_13h25.31.970,Main,2022.1.1,59.97148949039887,
neutral,positive,1,k,k,,,,,,,,,6,11,119,4,,,,,,,,,main,1,1,1,positive,neutral,k,k,1,0.5982196000404656,420.6810977999121,421.6777141999919,421.6777141999919,None,420.6810977999121,None,420.6810977999121,None,420.6810977999121,None,422.27777502001265,None,422.27777502001265,None,422.27777502001265,None,,,,,,,,,,,,,,102,2023-03-28_13h25.31.970,Main,2022.1.1,59.97148949039887,
positive,negative,1,l,j,,,,,,,,,6,12,120,5,,,,,,,,,main,2,2,1,negative,positive,l,l,1,0.9817033999133855,422.2811554998625,423.2970242998563,423.2781324000098,None,422.2811554998625,None,422.2811554998625,None,422.2811554998625,None,424.2610971197952,None,424.2610971197952,None,424.2610971197952,None,,,,,,,,,,,,,,102,2023-03-28_13h25.31.970,Main,2022.1.1,59.97148949039887,
neutral,positive,2,k,k,,,,,,,,,6,13,121,13,,,,,,,,,main,1,1,2,positive,neutral,k,k,1,0.6830031999852508,424.26435529999435,425.2803660999052,425.2642122998368,None,424.26435529999435,None,424.26435529999435,None,424.26435529999435,None,425.94445601981135,None,425.94445601981135,None,425.94445601981135,None,,,,,,,,,,,,,,102,2023-03-28_13h25.31.970,Main,2022.1.1,59.97148949039887,
neutral,neutral,1,k,k,,,,,,,,,6,14,122,1,,,,,,,,,main,2,2,1,neutral,neutral,k,k,1,0.6131780999712646,425.94996479991823,426.960991299944,426.94427570002154,None,425.94996479991823,None,425.94996479991823,None,425.94996479991823,None,427.5610031198245,None,427.5610031198245,None,427.5610031198245,None,,,,,,,,,,,,,,102,2023-03-28_13h25.31.970,Main,2022.1.1,59.97148949039887,
negative,neutral,2,j,l,,,,,,,,,6,15,123,12,,,,,,,,,main,2,2,2,neutral,negative,j,j,1,0.7338188998401165,427.5674693000037,428.5802770999726,428.56385239982046,None,427.5674693000037,None,427.5674693000037,None,427.5674693000037,None,429.29703021994794,None,429.29703021994794,None,429.29703021994794,None,,,,,,,,,,,,,,102,2023-03-28_13h25.31.970,Main,2022.1.1,59.97148949039887,
positive,neutral,1,l,j,,,,,,,,,6,16,124,8,,,,,,,,,main,1,1,1,neutral,positive,l,l,1,1.0453796000219882,429.3002900998108,430.31096379994415,430.2942138998769,None,429.3002900998108,None,429.3002900998108,None,429.3002900998108,None,431.34422211991625,None,431.34422211991625,None,431.34422211991625,None,,,,,,,,,,,,,,102,2023-03-28_13h25.31.970,Main,2022.1.1,59.97148949039887,
positive,positive,1,l,j,,,,,,,,,6,17,125,2,,,,,,,,,main,2,2,1,positive,positive,l,l,1,0.6516770999878645,431.34803019999526,432.360896299826,432.33019599993713,None,431.34803019999526,None,431.34803019999526,None,431.34803019999526,None,432.9970151199028,None,432.9970151199028,None,432.9970151199028,None,,,,,,,,,,,,,,102,2023-03-28_13h25.31.970,Main,2022.1.1,59.97148949039887,
positive,neutral,1,l,j,,,,,,,,,7,0,126,8,,,,,,,,,main,2,2,1,neutral,positive,l,l,1,0.6136274000164121,432.9996751998551,434.01357780001126,433.9942207999993,None,432.9996751998551,None,432.9996751998551,None,432.9996751998551,None,434.61205561985264,None,434.61205561985264,None,434.61205561985264,None,,,,,,,,,,,,,,102,2023-03-28_13h25.31.970,Main,2022.1.1,59.97148949039887,
neutral,positive,2,k,k,,,,,,,,,7,1,127,13,,,,,,,,,main,2,2,2,positive,neutral,k,k,1,0.7642796000000089,434.6179682998918,435.63013920001686,435.6135227999184,None,434.6179682998918,None,434.6179682998918,None,434.6179682998918,None,436.37780241984876,None,436.37780241984876,None,436.37780241984876,None,,,,,,,,,,,,,,102,2023-03-28_13h25.31.970,Main,2022.1.1,59.97148949039887,
negative,positive,1,j,l,,,,,,,,,7,2,128,6,,,,,,,,,main,1,1,1,positive,negative,j,j,1,0.8172571999020875,436.3813720999751,437.39423700002953,437.38032729993574,None,436.3813720999751,None,436.3813720999751,None,436.3813720999751,None,438.1967751198914,None,438.1967751198914,None,438.1967751198914,None,,,,,,,,,,,,,,102,2023-03-28_13h25.31.970,Main,2022.1.1,59.97148949039887,
negative,neutral,1,j,l,,,,,,,,,7,3,129,3,,,,,,,,,main,1,1,1,neutral,negative,j,j,1,0.7455659999977797,438.20010959985666,439.21341109997593,439.1967523000203,None,438.20010959985666,None,438.20010959985666,None,438.20010959985666,None,439.9440961199813,None,439.9440961199813,None,439.9440961199813,None,,,,,,,,,,,,,,102,2023-03-28_13h25.31.970,Main,2022.1.1,59.97148949039887,
negative,negative,2,j,l,,,,,,,,,7,4,130,9,,,,,,,,,main,2,2,2,negative,negative,j,j,1,0.7320024999789894,439.9471457998734,440.94401269988157,440.94401269988157,None,439.9471457998734,None,439.9471457998734,None,439.9471457998734,None,441.6776060197968,None,441.6776060197968,None,441.6776060197968,None,,,,,,,,,,,,,,102,2023-03-28_13h25.31.970,Main,2022.1.1,59.97148949039887,
negative,negative,1,j,l,,,,,,,,,7,5,131,0,,,,,,,,,main,2,2,1,negative,negative,j,j,1,0.864506300073117,441.6808728999458,442.6773091999348,442.6773091999348,None,441.6808728999458,None,441.6808728999458,None,441.6808728999458,None,443.54378471979874,None,443.54378471979874,None,443.54378471979874,None,,,,,,,,,,,,,,102,2023-03-28_13h25.31.970,Main,2022.1.1,59.97148949039887,
neutral,neutral,2,k,k,,,,,,,,,7,6,132,10,,,,,,,,,main,1,1,2,neutral,neutral,k,k,1,0.7653691999148577,443.5467313998379,444.56058579985984,444.54401199985296,None,443.5467313998379,None,443.5467313998379,None,443.5467313998379,None,445.3106470197905,None,445.3106470197905,None,445.3106470197905,None,,,,,,,,,,,,,,102,2023-03-28_13h25.31.970,Main,2022.1.1,59.97148949039887,
negative,neutral,2,j,l,,,,,,,,,7,7,133,12,,,,,,,,,main,2,2,2,neutral,negative,j,j,1,0.7651728000491858,445.31598949991167,446.32721749995835,446.29670099983923,None,445.31598949991167,None,445.31598949991167,None,445.31598949991167,None,447.07723931982184,None,447.07723931982184,None,447.07723931982184,None,,,,,,,,,,,,,,102,2023-03-28_13h25.31.970,Main,2022.1.1,59.97148949039887,
positive,negative,1,l,j,,,,,,,,,7,8,134,5,,,,,,,,,main,1,1,1,negative,positive,l,l,1,1.0011613999959081,447.08071679994464,448.0799590998795,448.0799590998795,None,447.08071679994464,None,447.08071679994464,None,447.08071679994464,None,449.07995461989196,None,449.07995461989196,None,449.07995461989196,None,,,,,,,,,,,,,,102,2023-03-28_13h25.31.970,Main,2022.1.1,59.97148949039887,
positive,neutral,2,l,j,,,,,,,,,7,9,135,17,,,,,,,,,main,1,1,2,neutral,positive,l,l,1,0.8123047999106348,449.0827858999837,450.09664729982615,450.07712489995174,None,449.0827858999837,None,449.0827858999837,None,449.0827858999837,None,450.89412701982076,None,450.89412701982076,None,450.89412701982076,None,,,,,,,,,,,,,,102,2023-03-28_13h25.31.970,Main,2022.1.1,59.97148949039887,
positive,positive,1,l,j,,,,,,,,,7,10,136,2,,,,,,,,,main,2,2,1,positive,positive,l,l,1,0.6677895998582244,450.9026146000251,451.91044759983197,451.89376859995537,None,450.9026146000251,None,450.9026146000251,None,450.9026146000251,None,452.5631903199479,None,452.5631903199479,None,452.5631903199479,None,,,,,,,,,,,,,,102,2023-03-28_13h25.31.970,Main,2022.1.1,59.97148949039887,
neutral,negative,1,k,k,,,,,,,,,7,11,137,7,,,,,,,,,main,2,2,1,negative,neutral,k,k,1,0.5796947998460382,452.5663713000249,453.57718000002205,453.5604103000369,None,452.5663713000249,None,452.5663713000249,None,452.5663713000249,None,454.14376381984914,None,454.14376381984914,None,454.14376381984914,None,,,,,,,,,,,,,,102,2023-03-28_13h25.31.970,Main,2022.1.1,59.97148949039887,
neutral,negative,2,k,k,,,,,,,,,7,12,138,16,,,,,,,,,main,2,2,2,negative,neutral,k,k,1,0.6141836000606418,454.16035659983754,455.16034109983593,455.1436797999777,None,454.16035659983754,None,454.16035659983754,None,454.16035659983754,None,455.7604107199237,None,455.7604107199237,None,455.7604107199237,None,,,,,,,,,,,,,,102,2023-03-28_13h25.31.970,Main,2022.1.1,59.97148949039887,
positive,negative,2,l,j,,,,,,,,,7,13,139,14,,,,,,,,,main,1,1,2,negative,positive,l,l,1,0.7318486000876874,455.76365129998885,456.77970790001564,456.7436869998928,None,455.76365129998885,None,455.76365129998885,None,455.76365129998885,None,457.49371861983093,None,457.49371861983093,None,457.49371861983093,None,,,,,,,,,,,,,,102,2023-03-28_13h25.31.970,Main,2022.1.1,59.97148949039887,
positive,positive,2,l,j,,,,,,,,,7,14,140,11,,,,,,,,,main,1,1,2,positive,positive,l,l,1,0.6315884001087397,457.5015378999524,458.51053289999254,458.49362559989095,None,457.5015378999524,None,457.5015378999524,None,457.5015378999524,None,459.1270225198474,None,459.1270225198474,None,459.1270225198474,None,,,,,,,,,,,,,,102,2023-03-28_13h25.31.970,Main,2022.1.1,59.97148949039887,
neutral,positive,1,k,k,,,,,,,,,7,15,141,4,,,,,,,,,main,2,2,1,positive,neutral,k,k,1,0.682843699818477,459.1304132998921,460.1435965998098,460.12692760000937,None,459.1304132998921,None,459.1304132998921,None,459.1304132998921,None,460.8100704198238,None,460.8100704198238,None,460.8100704198238,None,,,,,,,,,,,,,,102,2023-03-28_13h25.31.970,Main,2022.1.1,59.97148949039887,
neutral,neutral,1,k,k,,,,,,,,,7,16,142,1,,,,,,,,,main,2,2,1,neutral,neutral,k,k,1,0.747159699909389,460.8143329999875,461.82691939990036,461.81052679987624,None,460.8143329999875,None,460.8143329999875,None,460.8143329999875,None,462.5602869199589,None,462.5602869199589,None,462.5602869199589,None,,,,,,,,,,,,,,102,2023-03-28_13h25.31.970,Main,2022.1.1,59.97148949039887,
negative,positive,2,j,l,,,,,,,,,7,17,143,15,,,,,,,,,main,1,1,2,positive,negative,j,j,1,0.7316797999665141,462.56550159980543,463.576856700005,463.54354560002685,None,462.56550159980543,None,462.56550159980543,None,462.56550159980543,None,464.2936281200033,None,464.2936281200033,None,464.2936281200033,None,,,,,,,,,,,,,,102,2023-03-28_13h25.31.970,Main,2022.1.1,59.97148949039887,
negative,neutral,1,j,l,,,,,,,,,8,0,144,3,,,,,,,,,main,2,2,1,neutral,negative,j,j,1,0.8856067999731749,464.2997800000012,465.3127641000319,465.29349049995653,None,464.2997800000012,None,464.2997800000012,None,464.2997800000012,None,466.1790558198933,None,466.1790558198933,None,466.1790558198933,None,,,,,,,,,,,,,,102,2023-03-28_13h25.31.970,Main,2022.1.1,59.97148949039887,
neutral,positive,2,k,k,,,,,,,,,8,1,145,13,,,,,,,,,main,1,1,2,positive,neutral,k,k,1,0.6640520000364631,466.18384950002655,467.19346400001086,467.1768558998592,None,466.18384950002655,None,466.18384950002655,None,466.18384950002655,None,467.8462776198518,None,467.8462776198518,None,467.8462776198518,None,,,,,,,,,,,,,,102,2023-03-28_13h25.31.970,Main,2022.1.1,59.97148949039887,
positive,positive,1,l,j,,,,,,,,,8,2,146,2,,,,,,,,,main,2,2,1,positive,positive,l,j,0,0.8953384000342339,467.84927370003425,468.86294070002623,468.8434551998507,None,467.84927370003425,None,467.84927370003425,None,467.84927370003425,None,469.7435086998157,None,469.7435086998157,None,469.7435086998157,None,,,,,,,,,,,,,,102,2023-03-28_13h25.31.970,Main,2022.1.1,59.97148949039887,
neutral,positive,1,k,k,,,,,,,,,8,3,147,4,,,,,,,,,main,2,2,1,positive,neutral,k,k,1,0.7841547001153231,470.74446769990027,471.76268469984643,471.72669139993377,None,470.74446769990027,None,470.74446769990027,None,470.74446769990027,None,472.52674091993833,None,472.52674091993833,None,472.52674091993833,None,,,,,,,,,,,,,,102,2023-03-28_13h25.31.970,Main,2022.1.1,59.97148949039887,
positive,negative,2,l,j,,,,,,,,,8,4,148,14,,,,,,,,,main,2,2,2,negative,positive,l,l,1,0.6646000999026,472.5326046999544,473.5433161999099,473.5267286999151,None,472.5326046999544,None,472.5326046999544,None,472.5326046999544,None,474.19339251997883,None,474.19339251997883,None,474.19339251997883,None,,,,,,,,,,,,,,102,2023-03-28_13h25.31.970,Main,2022.1.1,59.97148949039887,
positive,negative,1,l,j,,,,,,,,,8,5,149,5,,,,,,,,,main,2,2,1,negative,positive,l,l,1,1.0820673999842256,474.1965097000357,475.2099868999794,475.1932808998972,None,474.1965097000357,None,474.1965097000357,None,474.1965097000357,None,476.2766838198528,None,476.2766838198528,None,476.2766838198528,None,,,,,,,,,,,,,,102,2023-03-28_13h25.31.970,Main,2022.1.1,59.97148949039887,
negative,positive,2,j,l,,,,,,,,,8,6,150,15,,,,,,,,,main,1,1,2,positive,negative,j,j,1,0.7149787999223918,476.2799084999133,477.2793884000275,477.2793884000275,None,476.2799084999133,None,476.2799084999133,None,476.2799084999133,None,477.99335972000847,None,477.99335972000847,None,477.99335972000847,None,,,,,,,,,,,,,,102,2023-03-28_13h25.31.970,Main,2022.1.1,59.97148949039887,
neutral,negative,2,k,k,,,,,,,,,8,7,151,16,,,,,,,,,main,2,2,2,negative,neutral,k,k,1,1.2649746001698077,477.9993530998472,479.00993669987656,478.9932184999343,None,477.9993530998472,None,477.9993530998472,None,477.9993530998472,None,480.2599439198617,None,480.2599439198617,None,480.2599439198617,None,,,,,,,,,,,,,,102,2023-03-28_13h25.31.970,Main,2022.1.1,59.97148949039887,
negative,negative,2,j,l,,,,,,,,,8,8,152,9,,,,,,,,,main,2,2,2,negative,negative,j,j,1,0.7654462000355124,480.2652040999383,481.27653279993683,481.2432046998292,None,480.2652040999383,None,480.2652040999383,None,480.2652040999383,None,482.0268872200046,None,482.0268872200046,None,482.0268872200046,None,,,,,,,,,,,,,,102,2023-03-28_13h25.31.970,Main,2022.1.1,59.97148949039887,
negative,positive,1,j,l,,,,,,,,,8,9,153,6,,,,,,,,,main,1,1,1,positive,negative,j,j,1,0.8648121999576688,482.03014789987355,483.02927339985035,483.02927339985035,None,482.03014789987355,None,482.03014789987355,None,482.03014789987355,None,483.89321161983537,None,483.89321161983537,None,483.89321161983537,None,,,,,,,,,,,,,,102,2023-03-28_13h25.31.970,Main,2022.1.1,59.97148949039887,
neutral,neutral,2,k,k,,,,,,,,,8,10,154,10,,,,,,,,,main,2,2,2,neutral,neutral,k,k,1,0.6481799001339823,483.89665439981036,484.909800699912,484.8931317999959,None,483.89665439981036,None,483.89665439981036,None,483.89665439981036,None,485.5431877199095,None,485.5431877199095,None,485.5431877199095,None,,,,,,,,,,,,,,102,2023-03-28_13h25.31.970,Main,2022.1.1,59.97148949039887,
neutral,negative,1,k,k,,,,,,,,,8,11,155,7,,,,,,,,,main,1,1,1,negative,neutral,k,k,1,0.6650652999524027,485.547063899925,486.5624227998778,486.5264243998099,None,485.547063899925,None,485.547063899925,None,485.547063899925,None,487.2098134198692,None,487.2098134198692,None,487.2098134198692,None,,,,,,,,,,,,,,102,2023-03-28_13h25.31.970,Main,2022.1.1,59.97148949039887,
neutral,neutral,1,k,k,,,,,,,,,8,12,156,1,,,,,,,,,main,2,2,1,neutral,neutral,k,k,1,1.2510625999420881,487.2132170998957,488.2263972000219,488.21253399993293,None,487.2132170998957,None,487.2132170998957,None,487.2132170998957,None,489.4625225198921,None,489.4625225198921,None,489.4625225198921,None,,,,,,,,,,,,,,102,2023-03-28_13h25.31.970,Main,2022.1.1,59.97148949039887,
positive,neutral,2,l,j,,,,,,,,,8,13,157,17,,,,,,,,,main,1,1,2,neutral,positive,l,l,1,0.9121153000742197,489.46563809993677,490.4763083998114,490.4596595999319,None,489.46563809993677,None,489.46563809993677,None,489.46563809993677,None,491.376355620008,None,491.376355620008,None,491.376355620008,None,,,,,,,,,,,,,,102,2023-03-28_13h25.31.970,Main,2022.1.1,59.97148949039887,
positive,neutral,1,l,j,,,,,,,,,8,14,158,8,,,,,,,,,main,1,1,1,neutral,positive,l,j,0,1.501512800110504,491.38102299999446,492.39555769995786,492.3790182999801,None,491.38102299999446,None,491.38102299999446,None,491.38102299999446,None,493.8762844998855,None,493.8762844998855,None,493.8762844998855,None,,,,,,,,,,,,,,102,2023-03-28_13h25.31.970,Main,2022.1.1,59.97148949039887,
negative,negative,1,j,l,,,,,,,,,8,15,159,0,,,,,,,,,main,2,2,1,negative,negative,j,j,1,1.6174467999953777,494.87702180002816,495.8762076999992,495.8596010999754,None,494.87702180002816,None,494.87702180002816,None,494.87702180002816,None,497.49308619997464,None,497.49308619997464,None,497.49308619997464,None,,,,,,,,,,,,,,102,2023-03-28_13h25.31.970,Main,2022.1.1,59.97148949039887,
negative,neutral,2,j,l,,,,,,,,,8,16,160,12,,,,,,,,,main,2,2,2,neutral,negative,j,j,1,0.7005868998821825,498.4938332999591,499.492845099885,499.4790321998298,None,498.4938332999591,None,498.4938332999591,None,498.4938332999591,None,500.1928614200093,None,500.1928614200093,None,500.1928614200093,None,,,,,,,,,,,,,,102,2023-03-28_13h25.31.970,Main,2022.1.1,59.97148949039887,
positive,positive,2,l,j,,,,,,,,,8,17,161,11,,,,,,,,,main,1,1,2,positive,positive,l,l,1,0.7984753998462111,500.19693809980527,501.209439399885,501.1927740999963,None,500.19693809980527,None,500.19693809980527,None,500.19693809980527,None,501.993073219806,None,501.993073219806,None,501.993073219806,None,,,,,,,,,,,,,,102,2023-03-28_13h25.31.970,Main,2022.1.1,59.97148949039887,
positive,positive,2,l,j,,,,,,,,,9,0,162,11,,,,,,,,,main,2,2,2,positive,positive,l,l,1,0.664864300051704,501.99859389988706,503.0122469998896,502.9927597998176,None,501.99859389988706,None,501.99859389988706,None,501.99859389988706,None,503.6595729199704,None,503.6595729199704,None,503.6595729199704,None,,,,,,,,,,,,,,102,2023-03-28_13h25.31.970,Main,2022.1.1,59.97148949039887,
neutral,neutral,2,k,k,,,,,,,,,9,1,163,10,,,,,,,,,main,2,2,2,neutral,neutral,k,k,1,0.701562900096178,503.66550110001117,504.67882349994034,504.6594040999189,None,503.66550110001117,None,503.66550110001117,None,503.66550110001117,None,505.36219611987474,None,505.36219611987474,None,505.36219611987474,None,,,,,,,,,,,,,,102,2023-03-28_13h25.31.970,Main,2022.1.1,59.97148949039887,
neutral,negative,1,k,k,,,,,,,,,9,2,164,7,,,,,,,,,main,1,1,1,negative,neutral,k,k,1,0.6284390999935567,505.36497629992664,506.37603549985215,506.3623016998172,None,505.36497629992664,None,505.36497629992664,None,505.36497629992664,None,506.99252951997335,None,506.99252951997335,None,506.99252951997335,None,,,,,,,,,,,,,,102,2023-03-28_13h25.31.970,Main,2022.1.1,59.97148949039887,
negative,negative,2,j,l,,,,,,,,,9,3,165,9,,,,,,,,,main,1,1,2,negative,negative,j,j,1,0.7651293999515474,506.99866089993156,508.0121227998752,507.9927180998493,None,506.99866089993156,None,506.99866089993156,None,506.99866089993156,None,508.75946881985294,None,508.75946881985294,None,508.75946881985294,None,,,,,,,,,,,,,,102,2023-03-28_13h25.31.970,Main,2022.1.1,59.97148949039887,
negative,neutral,1,j,l,,,,,,,,,9,4,166,3,,,,,,,,,main,2,2,1,neutral,negative,j,j,1,0.8816271999385208,508.76471229991876,509.77605019998737,509.7426318998914,None,508.76471229991876,None,508.76471229991876,None,508.76471229991876,None,510.64266001982617,None,510.64266001982617,None,510.64266001982617,None,,,,,,,,,,,,,,102,2023-03-28_13h25.31.970,Main,2022.1.1,59.97148949039887,
negative,positive,1,j,l,,,,,,,,,9,5,167,6,,,,,,,,,main,1,1,1,positive,negative,j,j,1,0.6995235998183489,510.64784329989925,511.66193039994687,511.62868559989147,None,510.64784329989925,None,510.64784329989925,None,510.64784329989925,None,512.3426207198296,None,512.3426207198296,None,512.3426207198296,None,,,,,,,,,,,,,,102,2023-03-28_13h25.31.970,Main,2022.1.1,59.97148949039887,
negative,positive,2,j,l,,,,,,,,,9,6,168,15,,,,,,,,,main,1,1,2,positive,negative,j,j,1,0.8639295001048595,512.3465982000344,513.359232599847,513.3425614999142,None,512.3465982000344,None,512.3465982000344,None,512.3465982000344,None,514.2092487198767,None,514.2092487198767,None,514.2092487198767,None,,,,,,,,,,,,,,102,2023-03-28_13h25.31.970,Main,2022.1.1,59.97148949039887,
neutral,negative,2,k,k,,,,,,,,,9,7,169,16,,,,,,,,,main,1,1,2,negative,neutral,k,k,1,0.7010373000521213,514.2122916998342,515.2258299000096,515.2091620999854,None,514.2122916998342,None,514.2122916998342,None,514.2122916998342,None,515.9119226198178,None,515.9119226198178,None,515.9119226198178,None,,,,,,,,,,,,,,102,2023-03-28_13h25.31.970,Main,2022.1.1,59.97148949039887,
positive,positive,1,l,j,,,,,,,,,9,8,170,2,,,,,,,,,main,2,2,1,positive,positive,l,l,1,0.8456875998526812,515.9149972000159,516.9285177998245,516.9123869999312,None,515.9149972000159,None,515.9149972000159,None,515.9149972000159,None,517.7592231199611,None,517.7592231199611,None,517.7592231199611,None,,,,,,,,,,,,,,102,2023-03-28_13h25.31.970,Main,2022.1.1,59.97148949039887,
positive,neutral,1,l,j,,,,,,,,,9,9,171,8,,,,,,,,,main,2,2,1,neutral,positive,l,l,1,0.5846563000231981,517.7785273999907,518.7924526999705,518.7452914000023,None,517.7785273999907,None,517.7785273999907,None,517.7785273999907,None,519.3451964200009,None,519.3451964200009,None,519.3451964200009,None,,,,,,,,,,,,,,102,2023-03-28_13h25.31.970,Main,2022.1.1,59.97148949039887,
negative,negative,1,j,l,,,,,,,,,9,10,172,0,,,,,,,,,main,1,1,1,negative,negative,j,j,1,0.9789599999785423,519.34794649994,520.3593762000091,520.3424320998602,None,519.34794649994,None,519.34794649994,None,519.34794649994,None,521.3257795198821,None,521.3257795198821,None,521.3257795198821,None,,,,,,,,,,,,,,102,2023-03-28_13h25.31.970,Main,2022.1.1,59.97148949039887,
neutral,positive,2,k,k,,,,,,,,,9,11,173,13,,,,,,,,,main,1,1,2,positive,neutral,k,k,1,0.5650728999171406,521.3290203998331,522.3284795000218,522.3284795000218,None,521.3290203998331,None,521.3290203998331,None,521.3290203998331,None,522.8924500198569,None,522.8924500198569,None,522.8924500198569,None,,,,,,,,,,,,,,102,2023-03-28_13h25.31.970,Main,2022.1.1,59.97148949039887,
positive,neutral,2,l,j,,,,,,,,,9,12,174,17,,,,,,,,,main,2,2,2,neutral,positive,l,l,1,0.5318348000291735,522.900285199983,523.9118253998458,523.8923581999261,None,522.900285199983,None,522.900285199983,None,522.900285199983,None,524.4260152197909,None,524.4260152197909,None,524.4260152197909,None,,,,,,,,,,,,,,102,2023-03-28_13h25.31.970,Main,2022.1.1,59.97148949039887,
neutral,neutral,1,k,k,,,,,,,,,9,13,175,1,,,,,,,,,main,1,1,1,neutral,neutral,k,k,1,0.6815308998338878,524.4325739999767,525.4423271999694,525.4256598998327,None,524.4325739999767,None,524.4325739999767,None,524.4325739999767,None,526.109213819867,None,526.109213819867,None,526.109213819867,None,,,,,,,,,,,,,,102,2023-03-28_13h25.31.970,Main,2022.1.1,59.97148949039887,
negative,neutral,2,j,l,,,,,,,,,9,14,176,12,,,,,,,,,main,2,2,2,neutral,negative,j,j,1,0.7151191001757979,526.1141266999766,527.1282573000062,527.112197099952,None,526.1141266999766,None,526.1141266999766,None,526.1141266999766,None,527.8256743200124,None,527.8256743200124,None,527.8256743200124,None,,,,,,,,,,,,,,102,2023-03-28_13h25.31.970,Main,2022.1.1,59.97148949039887,
neutral,positive,1,k,k,,,,,,,,,9,15,177,4,,,,,,,,,main,1,1,1,positive,neutral,k,k,1,0.6650146001484245,527.8286832999438,528.8422513999976,528.8255807999521,None,527.8286832999438,None,527.8286832999438,None,527.8286832999438,None,529.4923062200193,None,529.4923062200193,None,529.4923062200193,None,,,,,,,,,,,,,,102,2023-03-28_13h25.31.970,Main,2022.1.1,59.97148949039887,
positive,negative,2,l,j,,,,,,,,,9,16,178,14,,,,,,,,,main,2,2,2,negative,positive,l,l,1,0.7647605000529438,529.497914099833,530.509105999954,530.4922596998513,None,529.497914099833,None,529.497914099833,None,529.497914099833,None,531.2586845198181,None,531.2586845198181,None,531.2586845198181,None,,,,,,,,,,,,,,102,2023-03-28_13h25.31.970,Main,2022.1.1,59.97148949039887,
positive,negative,1,l,j,,,,,,,,,9,17,179,5,,,,,,,,,main,2,2,1,negative,positive,l,l,1,0.9320624000392854,531.2620292999782,532.2588285999373,532.244948099833,None,531.2620292999782,None,531.2620292999782,None,531.2620292999782,None,533.1922172199935,None,533.1922172199935,None,533.1922172199935,None,,,,,,,,,,,,,,102,2023-03-28_13h25.31.970,Main,2022.1.1,59.97148949039887,
positive,negative,2,l,j,,,,,,,,,10,0,180,14,,,,,,,,,main,2,2,2,negative,positive,l,l,1,0.6491962000727654,533.1976024999749,534.2087573998142,534.194899099879,None,533.1976024999749,None,533.1976024999749,None,533.1976024999749,None,534.8422008200083,None,534.8422008200083,None,534.8422008200083,None,,,,,,,,,,,,,,102,2023-03-28_13h25.31.970,Main,2022.1.1,59.97148949039887,
neutral,negative,2,k,k,,,,,,,,,10,1,181,16,,,,,,,,,main,2,2,2,negative,neutral,k,k,1,0.7348108000587672,534.8460937999189,535.8587807000149,535.8421080999542,None,534.8460937999189,None,534.8460937999189,None,534.8460937999189,None,536.5757839199156,None,536.5757839199156,None,536.5757839199156,None,,,,,,,,,,,,,,102,2023-03-28_13h25.31.970,Main,2022.1.1,59.97148949039887,
neutral,positive,1,k,k,,,,,,,,,10,2,182,4,,,,,,,,,main,2,2,1,positive,neutral,k,k,1,0.7599275999236852,536.5847131998744,537.5947512998246,537.5754038000014,None,536.5847131998744,None,536.5847131998744,None,536.5847131998744,None,538.3421008199454,None,538.3421008199454,None,538.3421008199454,None,,,,,,,,,,,,,,102,2023-03-28_13h25.31.970,Main,2022.1.1,59.97148949039887,
negative,neutral,2,j,l,,,,,,,,,10,3,183,12,,,,,,,,,main,1,1,2,neutral,negative,j,j,1,0.718830700032413,538.3471533998381,539.358663899824,539.3421543999575,None,538.3471533998381,None,538.3471533998381,None,538.3471533998381,None,540.0626114198473,None,540.0626114198473,None,540.0626114198473,None,,,,,,,,,,,,,,102,2023-03-28_13h25.31.970,Main,2022.1.1,59.97148949039887,
neutral,neutral,1,k,k,,,,,,,,,10,4,184,1,,,,,,,,,main,2,2,1,neutral,neutral,k,k,1,0.6113974000327289,540.0658074999228,541.075362799922,541.0586476000026,None,540.0658074999228,None,540.0658074999228,None,540.0658074999228,None,541.6753695198801,None,541.6753695198801,None,541.6753695198801,None,,,,,,,,,,,,,,102,2023-03-28_13h25.31.970,Main,2022.1.1,59.97148949039887,
negative,negative,1,j,l,,,,,,,,,10,5,185,0,,,,,,,,,main,2,2,1,negative,negative,j,j,1,1.3667830000631511,541.6784226999152,542.6753101998474,542.6614420998376,None,541.6784226999152,None,541.6784226999152,None,541.6784226999152,None,544.0436312199105,None,544.0436312199105,None,544.0436312199105,None,,,,,,,,,,,,,,102,2023-03-28_13h25.31.970,Main,2022.1.1,59.97148949039887,
positive,neutral,1,l,j,,,,,,,,,10,6,186,8,,,,,,,,,main,2,2,1,neutral,positive,l,j,0,0.9472443000413477,544.0491223998833,545.0614232998341,545.0419268999249,None,544.0491223998833,None,544.0491223998833,None,544.0491223998833,None,545.991922599962,None,545.991922599962,None,545.991922599962,None,,,,,,,,,,,,,,102,2023-03-28_13h25.31.970,Main,2022.1.1,59.97148949039887,
neutral,neutral,2,k,k,,,,,,,,,10,7,187,10,,,,,,,,,main,2,2,2,neutral,neutral,k,k,1,1.2839191001839936,546.9930991998408,548.0085068999324,547.9751551998779,None,546.9930991998408,None,546.9930991998408,None,546.9930991998408,None,549.2752129199449,None,549.2752129199449,None,549.2752129199449,None,,,,,,,,,,,,,,102,2023-03-28_13h25.31.970,Main,2022.1.1,59.97148949039887,
positive,positive,2,l,j,,,,,,,,,10,8,188,11,,,,,,,,,main,2,2,2,positive,positive,l,l,1,0.7985198001842946,549.2807101998478,550.2916419999674,550.277918000007,None,549.2807101998478,None,549.2807101998478,None,549.2807101998478,None,551.0754262198694,None,551.0754262198694,None,551.0754262198694,None,,,,,,,,,,,,,,102,2023-03-28_13h25.31.970,Main,2022.1.1,59.97148949039887,
negative,positive,1,j,l,,,,,,,,,10,9,189,6,,,,,,,,,main,2,2,1,positive,negative,j,l,0,0.9482019999995828,551.080786400009,552.0917898998596,552.0754454999696,None,551.080786400009,None,551.080786400009,None,551.080786400009,None,553.0280144999269,None,553.0280144999269,None,553.0280144999269,None,,,,,,,,,,,,,,102,2023-03-28_13h25.31.970,Main,2022.1.1,59.97148949039887,
neutral,positive,2,k,k,,,,,,,,,10,10,190,13,,,,,,,,,main,1,1,2,positive,neutral,k,k,1,1.0709142999257892,554.0259571999777,555.0276709999889,555.008372399956,None,554.0259571999777,None,554.0259571999777,None,554.0259571999777,None,556.0944115199615,None,556.0944115199615,None,556.0944115199615,None,,,,,,,,,,,,,,102,2023-03-28_13h25.31.970,Main,2022.1.1,59.97148949039887,
positive,neutral,2,l,j,,,,,,,,,10,11,191,17,,,,,,,,,main,2,2,2,neutral,positive,l,l,1,0.8641835001762956,556.0985938999802,557.1083237000275,557.0916531998664,None,556.0985938999802,None,556.0985938999802,None,556.0985938999802,None,557.9612961198669,None,557.9612961198669,None,557.9612961198669,None,,,,,,,,,,,,,,102,2023-03-28_13h25.31.970,Main,2022.1.1,59.97148949039887,
positive,negative,1,l,j,,,,,,,,,10,12,192,5,,,,,,,,,main,1,1,1,negative,positive,l,l,1,1.2454961000476032,557.9643539998215,558.9749902000185,558.9583302999381,None,557.9643539998215,None,557.9643539998215,None,557.9643539998215,None,560.2083510199096,None,560.2083510199096,None,560.2083510199096,None,,,,,,,,,,,,,,102,2023-03-28_13h25.31.970,Main,2022.1.1,59.97148949039887,
positive,positive,1,l,j,,,,,,,,,10,13,193,2,,,,,,,,,main,2,2,1,positive,positive,l,l,1,0.6167350001633167,560.2119173998944,561.208256999962,561.208256999962,None,560.2119173998944,None,560.2119173998944,None,560.2119173998944,None,561.8265340199229,None,561.8265340199229,None,561.8265340199229,None,,,,,,,,,,,,,,102,2023-03-28_13h25.31.970,Main,2022.1.1,59.97148949039887,
neutral,negative,1,k,k,,,,,,,,,10,14,194,7,,,,,,,,,main,2,2,1,negative,neutral,k,k,1,0.6799937000032514,561.8319604999851,562.8442646998446,562.8251433998812,None,561.8319604999851,None,561.8319604999851,None,561.8319604999851,None,563.508315419918,None,563.508315419918,None,563.508315419918,None,,,,,,,,,,,,,,102,2023-03-28_13h25.31.970,Main,2022.1.1,59.97148949039887,
negative,positive,2,j,l,,,,,,,,,10,15,195,15,,,,,,,,,main,2,2,2,positive,negative,j,j,1,0.9309333998244256,563.5124607998878,564.5248753998894,564.5110488999635,None,563.5124607998878,None,563.5124607998878,None,563.5124607998878,None,565.4417077199556,None,565.4417077199556,None,565.4417077199556,None,,,,,,,,,,,,,,102,2023-03-28_13h25.31.970,Main,2022.1.1,59.97148949039887,
negative,negative,2,j,l,,,,,,,,,10,16,196,9,,,,,,,,,main,2,2,2,negative,negative,j,j,1,1.2646659999154508,565.4444863998797,566.4442064999603,566.4281817998271,None,565.4444863998797,None,565.4444863998797,None,565.4444863998797,None,567.7081905199681,None,567.7081905199681,None,567.7081905199681,None,,,,,,,,,,,,,,102,2023-03-28_13h25.31.970,Main,2022.1.1,59.97148949039887,
negative,neutral,1,j,l,,,,,,,,,10,17,197,3,,,,,,,,,main,2,2,1,neutral,negative,j,j,1,0.998614399926737,567.7249217999633,568.7275423998944,568.7082093998324,None,567.7249217999633,None,567.7249217999633,None,567.7249217999633,None,569.7082861199975,None,569.7082861199975,None,569.7082861199975,None,,,,,,,,,,,,,,102,2023-03-28_13h25.31.970,Main,2022.1.1,59.97148949039887,
negative,negative,2,j,l,,,,,,,,,11,0,198,9,,,,,,,,,main,1,1,2,negative,negative,j,j,1,0.7641826998442411,569.7139124998357,570.7247309999075,570.7080653000157,None,569.7139124998357,None,569.7139124998357,None,569.7139124998357,None,571.4747887199279,None,571.4747887199279,None,571.4747887199279,None,,,,,,,,,,,,,,102,2023-03-28_13h25.31.970,Main,2022.1.1,59.97148949039887,
positive,positive,2,l,j,,,,,,,,,11,1,199,11,,,,,,,,,main,2,2,2,positive,positive,l,l,1,0.8651726001407951,571.4780080998316,572.4750337000005,572.4609754998237,None,571.4780080998316,None,571.4780080998316,None,571.4780080998316,None,573.3414317198564,None,573.3414317198564,None,573.3414317198564,None,,,,,,,,,,,,,,102,2023-03-28_13h25.31.970,Main,2022.1.1,59.97148949039887,
neutral,positive,2,k,k,,,,,,,,,11,2,200,13,,,,,,,,,main,1,1,2,positive,neutral,k,k,1,0.7152546001598239,573.3500304999761,574.3579773998354,574.34132519993,None,573.3500304999761,None,573.3500304999761,None,573.3500304999761,None,575.0580675198231,None,575.0580675198231,None,575.0580675198231,None,,,,,,,,,,,,,,102,2023-03-28_13h25.31.970,Main,2022.1.1,59.97148949039887,
neutral,negative,2,k,k,,,,,,,,,11,3,201,16,,,,,,,,,main,2,2,2,negative,neutral,k,k,1,0.8008318999782205,575.061429399997,576.0608438998461,576.0608438998461,None,575.061429399997,None,575.061429399997,None,575.061429399997,None,576.860790519882,None,576.860790519882,None,576.860790519882,None,,,,,,,,,,,,,,102,2023-03-28_13h25.31.970,Main,2022.1.1,59.97148949039887,
neutral,positive,1,k,k,,,,,,,,,11,4,202,4,,,,,,,,,main,1,1,1,positive,neutral,k,k,1,0.6958532000426203,576.8638253000099,577.8745774999261,577.8579815998673,None,576.8638253000099,None,576.8638253000099,None,576.8638253000099,None,578.5579871199094,None,578.5579871199094,None,578.5579871199094,None,,,,,,,,,,,,,,102,2023-03-28_13h25.31.970,Main,2022.1.1,59.97148949039887,
neutral,neutral,1,k,k,,,,,,,,,11,5,203,1,,,,,,,,,main,2,2,1,neutral,neutral,k,k,1,2.0482576999347657,578.5626117000356,579.5773046999238,579.5579265998676,None,578.5626117000356,None,578.5626117000356,None,578.5626117000356,None,581.6078798000235,None,581.6078798000235,None,581.6078798000235,None,,,,,,,,,,,,,,102,2023-03-28_13h25.31.970,Main,2022.1.1,59.97148949039887,
negative,neutral,2,j,l,,,,,,,,,11,6,204,12,,,,,,,,,main,1,1,2,neutral,negative,j,j,1,1.067785699851811,582.6083269999363,583.6077973998617,583.5911379000172,None,582.6083269999363,None,582.6083269999363,None,582.6083269999363,None,584.6747728198767,None,584.6747728198767,None,584.6747728198767,None,,,,,,,,,,,,,,102,2023-03-28_13h25.31.970,Main,2022.1.1,59.97148949039887,
positive,negative,1,l,j,,,,,,,,,11,7,205,5,,,,,,,,,main,2,2,1,negative,positive,l,l,1,0.9980896001216024,584.680372999981,585.6911104999017,585.6754598999396,None,584.680372999981,None,584.680372999981,None,584.680372999981,None,586.6745802198071,None,586.6745802198071,None,586.6745802198071,None,,,,,,,,,,,,,,102,2023-03-28_13h25.31.970,Main,2022.1.1,59.97148949039887,
positive,negative,2,l,j,,,,,,,,,11,8,206,14,,,,,,,,,main,1,1,2,negative,positive,l,l,1,0.6650064000859857,586.6777358998079,587.677290600026,587.677290600026,None,586.6777358998079,None,586.6777358998079,None,586.6777358998079,None,588.3412317199633,None,588.3412317199633,None,588.3412317199633,None,,,,,,,,,,,,,,102,2023-03-28_13h25.31.970,Main,2022.1.1,59.97148949039887,
negative,neutral,1,j,l,,,,,,,,,11,9,207,3,,,,,,,,,main,2,2,1,neutral,negative,j,j,1,0.8980667002033442,588.3444663998671,589.357823099941,589.3410406999756,None,588.3444663998671,None,588.3444663998671,None,588.3444663998671,None,590.2410724199377,None,590.2410724199377,None,590.2410724199377,None,,,,,,,,,,,,,,102,2023-03-28_13h25.31.970,Main,2022.1.1,59.97148949039887,
positive,neutral,1,l,j,,,,,,,,,11,10,208,8,,,,,,,,,main,1,1,1,neutral,positive,l,l,1,0.8151742001064122,590.245775999967,591.2576478999108,591.2243104998488,None,590.245775999967,None,590.245775999967,None,590.245775999967,None,592.0577406200115,None,592.0577406200115,None,592.0577406200115,None,,,,,,,,,,,,,,102,2023-03-28_13h25.31.970,Main,2022.1.1,59.97148949039887,
neutral,neutral,2,k,k,,,,,,,,,11,11,209,10,,,,,,,,,main,2,2,2,neutral,neutral,k,k,1,1.6648937000427395,592.061158400029,593.0770264000166,593.0576953999698,None,592.061158400029,None,592.061158400029,None,592.061158400029,None,594.7242564999033,None,594.7242564999033,None,594.7242564999033,None,,,,,,,,,,,,,,102,2023-03-28_13h25.31.970,Main,2022.1.1,59.97148949039887,
negative,negative,1,j,l,,,,,,,,,11,12,210,0,,,,,,,,,main,1,1,1,negative,negative,j,k,0,0.38434770004823804,595.7253514998592,596.7270107998047,596.7103770999238,None,595.7253514998592,None,595.7253514998592,None,595.7253514998592,None,597.107658199966,None,597.107658199966,None,597.107658199966,None,,,,,,,,,,,,,,102,2023-03-28_13h25.31.970,Main,2022.1.1,59.97148949039887,
neutral,negative,1,k,k,,,,,,,,,11,13,211,7,,,,,,,,,main,1,1,1,negative,neutral,k,k,1,0.984197499928996,598.1079802999739,599.1074864999391,599.0908933000173,None,598.1079802999739,None,598.1079802999739,None,598.1079802999739,None,600.0908469198272,None,600.0908469198272,None,600.0908469198272,None,,,,,,,,,,,,,,102,2023-03-28_13h25.31.970,Main,2022.1.1,59.97148949039887,
negative,positive,1,j,l,,,,,,,,,11,14,212,6,,,,,,,,,main,2,2,1,positive,negative,j,j,1,1.2479027998633683,600.0974985999055,601.1075066998601,601.0934750000015,None,600.0974985999055,None,600.0974985999055,None,600.0974985999055,None,602.3408228199929,None,602.3408228199929,None,602.3408228199929,None,,,,,,,,,,,,,,102,2023-03-28_13h25.31.970,Main,2022.1.1,59.97148949039887,
negative,positive,2,j,l,,,,,,,,,11,15,213,15,,,,,,,,,main,2,2,2,positive,negative,j,j,1,0.9983828000258654,602.3461481998675,603.3574288999662,603.3434891998768,None,602.3461481998675,None,602.3461481998675,None,602.3461481998675,None,604.3408302198164,None,604.3408302198164,None,604.3408302198164,None,,,,,,,,,,,,,,102,2023-03-28_13h25.31.970,Main,2022.1.1,59.97148949039887,
positive,positive,1,l,j,,,,,,,,,11,16,214,2,,,,,,,,,main,2,2,1,positive,positive,l,l,1,0.8480218998156488,604.3463164998684,605.3601961999666,605.3406988999341,None,604.3463164998684,None,604.3463164998684,None,604.3463164998684,None,606.1905718198046,None,606.1905718198046,None,606.1905718198046,None,,,,,,,,,,,,,,102,2023-03-28_13h25.31.970,Main,2022.1.1,59.97148949039887,
positive,neutral,2,l,j,,,,,,,,,11,17,215,17,,,,,,,,,main,2,2,2,neutral,positive,l,l,1,0.7654512000735849,606.1975367998239,607.2073470000178,607.1935654999688,None,606.1975367998239,None,606.1975367998239,None,606.1975367998239,None,607.9574512198102,None,607.9574512198102,None,607.9574512198102,None,,,,,,,,,,,,,,102,2023-03-28_13h25.31.970,Main,2022.1.1,59.97148949039887,
neutral,negative,1,k,k,,,,,,,,,12,0,216,7,,,,,,,,,main,1,1,1,negative,neutral,k,k,1,0.7192325999494642,607.9606514999177,608.9767652999144,608.9406510000117,None,607.9606514999177,None,607.9606514999177,None,607.9606514999177,None,609.6740530199837,None,609.6740530199837,None,609.6740530199837,None,,,,,,,,,,,,,,102,2023-03-28_13h25.31.970,Main,2022.1.1,59.97148949039887,
negative,neutral,1,j,l,,,,,,,,,12,1,217,3,,,,,,,,,main,2,2,1,neutral,negative,j,j,1,1.0763775000814348,609.6841557000298,610.6906110998243,610.6741235000081,None,609.6841557000298,None,609.6841557000298,None,609.6841557000298,None,611.7574212198612,None,611.7574212198612,None,611.7574212198612,None,,,,,,,,,,,,,,102,2023-03-28_13h25.31.970,Main,2022.1.1,59.97148949039887,
negative,positive,2,j,l,,,,,,,,,12,2,218,15,,,,,,,,,main,1,1,2,positive,negative,j,j,1,0.7149284998886287,611.7602311000228,612.7766328998841,612.7572427999694,None,611.7602311000228,None,611.7602311000228,None,611.7602311000228,None,613.4737328199204,None,613.4737328199204,None,613.4737328199204,None,,,,,,,,,,,,,,102,2023-03-28_13h25.31.970,Main,2022.1.1,59.97148949039887,
negative,negative,1,j,l,,,,,,,,,12,3,219,0,,,,,,,,,main,1,1,1,negative,negative,j,j,1,0.6491553999949247,613.4797688999679,614.4905405000318,614.457197799813,None,613.4797688999679,None,613.4797688999679,None,613.4797688999679,None,615.124361719843,None,615.124361719843,None,615.124361719843,None,,,,,,,,,,,,,,102,2023-03-28_13h25.31.970,Main,2022.1.1,59.97148949039887,
neutral,positive,2,k,k,,,,,,,,,12,4,220,13,,,,,,,,,main,1,1,2,positive,neutral,k,k,1,0.7314712000079453,615.1296240999363,616.1405060000252,616.1238277999219,None,615.1296240999363,None,615.1296240999363,None,615.1296240999363,None,616.8572857199703,None,616.8572857199703,None,616.8572857199703,None,,,,,,,,,,,,,,102,2023-03-28_13h25.31.970,Main,2022.1.1,59.97148949039887,
positive,positive,2,l,j,,,,,,,,,12,5,221,11,,,,,,,,,main,2,2,2,positive,positive,l,l,1,0.6651202000211924,616.8606507999357,617.876446899958,617.8600035000127,None,616.8606507999357,None,616.8606507999357,None,616.8606507999357,None,618.523946919851,None,618.523946919851,None,618.523946919851,None,,,,,,,,,,,,,,102,2023-03-28_13h25.31.970,Main,2022.1.1,59.97148949039887,
neutral,neutral,2,k,k,,,,,,,,,12,6,222,10,,,,,,,,,main,1,1,2,neutral,neutral,k,k,1,0.6972940000705421,618.5278004999273,619.54309559986,619.5237469000276,None,618.5278004999273,None,618.5278004999273,None,618.5278004999273,None,620.2238157199696,None,620.2238157199696,None,620.2238157199696,None,,,,,,,,,,,,,,102,2023-03-28_13h25.31.970,Main,2022.1.1,59.97148949039887,
positive,negative,2,l,j,,,,,,,,,12,7,223,14,,,,,,,,,main,1,1,2,negative,positive,l,l,1,0.8320423001423478,620.2294055998791,621.2404090999626,621.207071099896,None,620.2294055998791,None,620.2294055998791,None,620.2294055998791,None,622.0571102198679,None,622.0571102198679,None,622.0571102198679,None,,,,,,,,,,,,,,102,2023-03-28_13h25.31.970,Main,2022.1.1,59.97148949039887,
