target,distractor,set,ans1,ans2,rep_loop2.thisRepN,rep_loop2.thisTrialN,rep_loop2.thisN,rep_loop2.thisIndex,flanker_prac_loop.thisRepN,flanker_prac_loop.thisTrialN,flanker_prac_loop.thisN,flanker_prac_loop.thisIndex,flanker_main_loop.thisRepN,flanker_main_loop.thisTrialN,flanker_main_loop.thisN,flanker_main_loop.thisIndex,fl_inst_resp.keys,fl_inst_resp.rt,sound_1.started,sound_1.stopped,image_4.started,image_4.stopped,back_2.started,back_2.stopped,main_prac,fl_cold,fl_colt,fl_set,fl_dcond,fl_tcond,fl_ans,fl_res,fl_corr,fl_rt,fix_fl.started,fix_fl.stopped,targ.started,targ.stopped,j_button.started,j_button.stopped,k_button.started,k_button.stopped,l_button.started,l_button.stopped,j_button2.started,j_button2.stopped,k_button2.started,k_button2.stopped,l_button2.started,l_button2.stopped,mainback.started,mainback.stopped,key_resp.keys,key_resp.rt,mouse_6.x,mouse_6.y,mouse_6.leftButton,mouse_6.midButton,mouse_6.rightButton,mouse_6.started,mouse_6.stopped,text_2.started,text_2.stopped,id*,date,expName,psychopyVersion,frameRate,
,,,,,0,0,0,0,,,,,,,,,space,54.0930360998027,29.80479034022428,None,83.91744310013019,None,,,,,,,,,,,,,,,,,,,,,,,,,,,,,,,,,,,,,,,,,,104,2023-03-29_13h30.11.345,Main,2022.1.1,59.754433175850465,
negative,positive,1,j,l,,,,,0,0,0,6,,,,,,,,,,,88.37034200015478,None,prac,1,1,1,positive,negative,j,j,1,2.4138817000202835,90.38961300021037,91.40090290014632,91.38707910012454,None,90.38961300021037,None,90.38961300021037,None,90.38961300021037,None,93.80330280005,None,93.80330280005,None,93.80330280005,None,,,,,,,,,,,,,,104,2023-03-29_13h30.11.345,Main,2022.1.1,59.754433175850465,
negative,negative,2,j,l,,,,,0,1,1,9,,,,,,,,,,,,,prac,1,1,2,negative,negative,j,j,1,0.8515554999466985,94.80313010001555,95.81743440008722,95.78424550010823,None,94.80313010001555,None,94.80313010001555,None,94.80313010001555,None,96.65074574002065,None,96.65074574002065,None,96.65074574002065,None,,,,,,,,,,,,,,104,2023-03-29_13h30.11.345,Main,2022.1.1,59.754433175850465,
neutral,positive,2,k,k,,,,,0,2,2,13,,,,,,,,,,,,,prac,2,2,2,positive,neutral,k,k,1,1.2169313998892903,96.65688430005684,97.66740320017561,97.650729900226,None,96.65688430005684,None,96.65688430005684,None,96.65688430005684,None,98.86983804018237,None,98.86983804018237,None,98.86983804018237,None,,,,,,,,,,,,,,104,2023-03-29_13h30.11.345,Main,2022.1.1,59.754433175850465,
positive,negative,2,l,j,,,,,0,3,3,14,,,,,,,,,,,,,prac,1,1,2,negative,positive,l,l,1,0.8126833999995142,98.87454710016027,99.88402150012553,99.8673231001012,None,98.87454710016027,None,98.87454710016027,None,98.87454710016027,None,100.68401044011117,None,100.68401044011117,None,100.68401044011117,None,,,,,,,,,,,,,,104,2023-03-29_13h30.11.345,Main,2022.1.1,59.754433175850465,
positive,positive,1,l,j,,,,,0,4,4,2,,,,,,,,,,,,,prac,2,2,1,positive,positive,l,l,1,0.8987553999759257,100.68969830009155,101.70067050005309,101.6839904000517,None,100.68969830009155,None,100.68969830009155,None,100.68969830009155,None,102.58405914003961,None,102.58405914003961,None,102.58405914003961,None,,,,,,,,,,,,,,104,2023-03-29_13h30.11.345,Main,2022.1.1,59.754433175850465,
neutral,negative,1,k,k,,,,,0,5,5,7,,,,,,,,,,,,,prac,1,1,1,negative,neutral,k,k,1,0.6993297999724746,102.59012280008756,103.60063310014084,103.5839963001199,None,102.59012280008756,None,102.59012280008756,None,102.59012280008756,None,104.28395674014465,None,104.28395674014465,None,104.28395674014465,None,,,,,,,,,,,,,,104,2023-03-29_13h30.11.345,Main,2022.1.1,59.754433175850465,
positive,negative,1,l,j,,,,,0,6,6,5,,,,,,,,,,,,,prac,2,2,1,negative,positive,l,l,1,1.0815463000908494,104.28808700013906,105.30061630019918,105.28394260001369,None,104.28808700013906,None,104.28808700013906,None,104.28808700013906,None,106.36759904013016,None,106.36759904013016,None,106.36759904013016,None,,,,,,,,,,,,,,104,2023-03-29_13h30.11.345,Main,2022.1.1,59.754433175850465,
positive,neutral,2,l,j,,,,,0,7,7,17,,,,,,,,,,,,,prac,2,2,2,neutral,positive,l,l,1,0.7482197000645101,106.37407280015759,107.38662820006721,107.36723390012048,None,106.37407280015759,None,106.37407280015759,None,106.37407280015759,None,108.11717064012774,None,108.11717064012774,None,108.11717064012774,None,,,,,,,,,,,,,,104,2023-03-29_13h30.11.345,Main,2022.1.1,59.754433175850465,
neutral,positive,1,k,k,,,,,0,8,8,4,,,,,,,,,,,,,prac,1,1,1,positive,neutral,k,k,1,0.6488520000129938,108.12223780015483,109.13654650002718,109.10326400003396,None,108.12223780015483,None,108.12223780015483,None,108.12223780015483,None,109.76713204020635,None,109.76713204020635,None,109.76713204020635,None,,,,,,,,,,,,,,104,2023-03-29_13h30.11.345,Main,2022.1.1,59.754433175850465,
positive,positive,2,l,j,,,,,0,9,9,11,,,,,,,,,,,,,prac,1,1,2,positive,positive,l,l,1,0.6655024001374841,109.77296730014496,110.78382000001147,110.76712370011955,None,109.77296730014496,None,109.77296730014496,None,109.77296730014496,None,111.43382444009185,None,111.43382444009185,None,111.43382444009185,None,,,,,,,,,,,,,,104,2023-03-29_13h30.11.345,Main,2022.1.1,59.754433175850465,
negative,neutral,2,j,l,,,,,0,10,10,12,,,,,,,,,,,,,prac,1,1,2,neutral,negative,j,j,1,0.6648065999615937,111.45317950006574,112.46712430007756,112.43392350012437,None,111.45317950006574,None,111.45317950006574,None,111.45317950006574,None,113.10040434016847,None,113.10040434016847,None,113.10040434016847,None,,,,,,,,,,,,,,104,2023-03-29_13h30.11.345,Main,2022.1.1,59.754433175850465,
positive,neutral,1,l,j,,,,,0,11,11,8,,,,,,,,,,,,,prac,1,1,1,neutral,positive,l,l,1,0.7313016001135111,113.10642330022529,114.11706950003281,114.10040230001323,None,113.10642330022529,None,113.10642330022529,None,113.10642330022529,None,114.83370774015785,None,114.83370774015785,None,114.83370774015785,None,,,,,,,,,,,,,,104,2023-03-29_13h30.11.345,Main,2022.1.1,59.754433175850465,
neutral,negative,2,k,k,,,,,0,12,12,16,,,,,,,,,,,,,prac,2,2,2,negative,neutral,k,k,1,0.7142602000385523,114.840579100186,115.8531064002309,115.83374730008654,None,114.840579100186,None,114.840579100186,None,114.840579100186,None,116.55036304015667,None,116.55036304015667,None,116.55036304015667,None,,,,,,,,,,,,,,104,2023-03-29_13h30.11.345,Main,2022.1.1,59.754433175850465,
neutral,neutral,1,k,k,,,,,0,13,13,1,,,,,,,,,,,,,prac,1,1,1,neutral,neutral,k,k,1,0.7986958001274616,116.55648030014709,117.56704570003785,117.55037570022978,None,116.55648030014709,None,116.55648030014709,None,116.55648030014709,None,118.35029714005069,None,118.35029714005069,None,118.35029714005069,None,,,,,,,,,,,,,,104,2023-03-29_13h30.11.345,Main,2022.1.1,59.754433175850465,
negative,neutral,1,j,l,,,,,0,14,14,3,,,,,,,,,,,,,prac,1,1,1,neutral,negative,j,j,1,0.8319968997966498,118.35360510018654,119.36711680004373,119.35308080003597,None,118.35360510018654,None,118.35360510018654,None,118.35360510018654,None,120.18359314007685,None,120.18359314007685,None,120.18359314007685,None,,,,,,,,,,,,,,104,2023-03-29_13h30.11.345,Main,2022.1.1,59.754433175850465,
negative,positive,2,j,l,,,,,0,15,15,15,,,,,,,,,,,,,prac,2,2,2,positive,negative,j,j,1,0.7986715999431908,120.1891582000535,121.20027630007826,121.18636990012601,None,120.1891582000535,None,120.1891582000535,None,120.1891582000535,None,121.98361394004897,None,121.98361394004897,None,121.98361394004897,None,,,,,,,,,,,,,,104,2023-03-29_13h30.11.345,Main,2022.1.1,59.754433175850465,
negative,negative,1,j,l,,,,,0,16,16,0,,,,,,,,,,,,,prac,1,1,1,negative,negative,j,j,1,0.6153965000994503,121.98944180016406,123.00025670020841,122.98359520011581,None,121.98944180016406,None,121.98944180016406,None,121.98944180016406,None,123.60022924011574,None,123.60022924011574,None,123.60022924011574,None,,,,,,,,,,,,,,104,2023-03-29_13h30.11.345,Main,2022.1.1,59.754433175850465,
neutral,neutral,2,k,k,,,,,0,17,17,10,,,,,,,,,,,,,prac,1,1,2,neutral,neutral,k,k,1,0.6984184000175446,123.60594130004756,124.61686350009404,124.60021530021913,None,123.60594130004756,None,123.60594130004756,None,123.60594130004756,None,125.30017814002932,None,125.30017814002932,None,125.30017814002932,None,,,,,,,,,,,,,,104,2023-03-29_13h30.11.345,Main,2022.1.1,59.754433175850465,
positive,positive,1,l,j,,,,,1,0,18,2,,,,,,,,,,,,,prac,2,2,1,positive,positive,l,l,1,0.6822697999887168,125.30885410006158,126.31689690006897,126.30015850020573,None,125.30885410006158,None,125.30885410006158,None,125.30885410006158,None,126.98346654009075,None,126.98346654009075,None,126.98346654009075,None,,,,,,,,,,,,,,104,2023-03-29_13h30.11.345,Main,2022.1.1,59.754433175850465,
neutral,positive,2,k,k,,,,,1,1,19,13,,,,,,,,,,,,,prac,1,1,2,positive,neutral,k,k,1,0.9315204001031816,126.98920290009119,128.00012250011787,127.98345950013027,None,126.98920290009119,None,126.98920290009119,None,126.98920290009119,None,128.91679314021022,None,128.91679314021022,None,128.91679314021022,None,,,,,,,,,,,,,,104,2023-03-29_13h30.11.345,Main,2022.1.1,59.754433175850465,
positive,negative,1,l,j,,,,,1,2,20,5,,,,,,,,,,,,,prac,1,1,1,negative,positive,l,l,1,0.5656481999903917,128.92295320006087,129.93344800011255,129.91678110021167,None,128.92295320006087,None,128.92295320006087,None,128.92295320006087,None,130.48339924016037,None,130.48339924016037,None,130.48339924016037,None,,,,,,,,,,,,,,104,2023-03-29_13h30.11.345,Main,2022.1.1,59.754433175850465,
positive,positive,2,l,j,,,,,1,3,21,11,,,,,,,,,,,,,prac,1,1,2,positive,positive,l,l,1,0.6984735000878572,130.48722240002826,131.50007630023174,131.4834092000965,None,130.48722240002826,None,130.48722240002826,None,130.48722240002826,None,132.18324024006725,None,132.18324024006725,None,132.18324024006725,None,,,,,,,,,,,,,,104,2023-03-29_13h30.11.345,Main,2022.1.1,59.754433175850465,
negative,positive,1,j,l,,,,,1,4,22,6,,,,,,,,,,,,,prac,1,1,1,positive,negative,j,j,1,0.7655247000511736,132.1897761002183,133.2000509002246,133.18337260000408,None,132.1897761002183,None,132.1897761002183,None,132.1897761002183,None,133.9500345400069,None,133.9500345400069,None,133.9500345400069,None,,,,,,,,,,,,,,104,2023-03-29_13h30.11.345,Main,2022.1.1,59.754433175850465,
positive,neutral,1,l,j,,,,,1,5,23,8,,,,,,,,,,,,,prac,2,2,1,neutral,positive,l,l,1,0.7651225998997688,133.95621990016662,134.96677860012278,134.95003740000539,None,133.95621990016662,None,133.95621990016662,None,133.95621990016662,None,135.71665624002927,None,135.71665624002927,None,135.71665624002927,None,,,,,,,,,,,,,,104,2023-03-29_13h30.11.345,Main,2022.1.1,59.754433175850465,
neutral,negative,1,k,k,,,,,1,6,24,7,,,,,,,,,,,,,prac,2,2,1,negative,neutral,k,k,1,0.6488044001162052,135.72002570005134,136.7194494002033,136.7194494002033,None,135.72002570005134,None,135.72002570005134,None,135.72002570005134,None,137.3666160400957,None,137.3666160400957,None,137.3666160400957,None,,,,,,,,,,,,,,104,2023-03-29_13h30.11.345,Main,2022.1.1,59.754433175850465,
positive,neutral,2,l,j,,,,,1,7,25,17,,,,,,,,,,,,,prac,2,2,2,neutral,positive,l,l,1,0.5986715999897569,137.37215040018782,138.38326440006495,138.36942570004612,None,137.37215040018782,None,137.37215040018782,None,137.37215040018782,None,138.96645934004337,None,138.96645934004337,None,138.96645934004337,None,,,,,,,,,,,,,,104,2023-03-29_13h30.11.345,Main,2022.1.1,59.754433175850465,
negative,positive,2,j,l,,,,,1,8,26,15,,,,,,,,,,,,,prac,1,1,2,positive,negative,j,j,1,0.7151317000389099,138.97351260017604,139.98324790014885,139.9665490000043,None,138.97351260017604,None,138.97351260017604,None,138.97351260017604,None,140.68323083999567,None,140.68323083999567,None,140.68323083999567,None,,,,,,,,,,,,,,104,2023-03-29_13h30.11.345,Main,2022.1.1,59.754433175850465,
neutral,positive,1,k,k,,,,,1,9,27,4,,,,,,,,,,,,,prac,2,2,1,positive,neutral,k,k,1,0.532203400041908,140.68892410001718,141.69988900003955,141.66654150001705,None,140.68892410001718,None,140.68892410001718,None,140.68892410001718,None,142.21651453999803,None,142.21651453999803,None,142.21651453999803,None,,,,,,,,,,,,,,104,2023-03-29_13h30.11.345,Main,2022.1.1,59.754433175850465,
negative,negative,2,j,l,,,,,1,10,28,9,,,,,,,,,,,,,prac,2,2,2,negative,negative,j,l,0,0.5486594000831246,142.22160540008917,143.23323650006205,143.21935980021954,None,142.22160540008917,None,142.22160540008917,None,142.22160540008917,None,143.76649890001863,None,143.76649890001863,None,143.76649890001863,None,,,,,,,,,,,,,,104,2023-03-29_13h30.11.345,Main,2022.1.1,59.754433175850465,
neutral,negative,2,k,k,,,,,1,11,29,16,,,,,,,,,,,,,prac,2,2,2,negative,neutral,k,k,1,0.9511760000605136,144.76758320000954,145.78312180005014,145.74980770004913,None,144.76758320000954,None,144.76758320000954,None,144.76758320000954,None,146.71651974003763,None,146.71651974003763,None,146.71651974003763,None,,,,,,,,,,,,,,104,2023-03-29_13h30.11.345,Main,2022.1.1,59.754433175850465,
negative,neutral,1,j,l,,,,,1,12,30,3,,,,,,,,,,,,,prac,2,2,1,neutral,negative,j,j,1,0.5473412000574172,146.7208346000407,147.73310980014503,147.71931810001843,None,146.7208346000407,None,146.7208346000407,None,146.7208346000407,None,148.26639894009568,None,148.26639894009568,None,148.26639894009568,None,,,,,,,,,,,,,,104,2023-03-29_13h30.11.345,Main,2022.1.1,59.754433175850465,
neutral,neutral,1,k,k,,,,,1,13,31,1,,,,,,,,,,,,,prac,2,2,1,neutral,neutral,k,k,1,0.7820315000135452,148.27170000015758,149.28585190000013,149.26637910003774,None,148.27170000015758,None,148.27170000015758,None,148.27170000015758,None,150.04969344018028,None,150.04969344018028,None,150.04969344018028,None,,,,,,,,,,,,,,104,2023-03-29_13h30.11.345,Main,2022.1.1,59.754433175850465,
negative,negative,1,j,l,,,,,1,14,32,0,,,,,,,,,,,,,prac,2,2,1,negative,negative,j,j,1,0.7653283998370171,150.05858970014378,151.0663947002031,151.04988060006872,None,150.05858970014378,None,150.05858970014378,None,150.05858970014378,None,151.8163271400612,None,151.8163271400612,None,151.8163271400612,None,,,,,,,,,,,,,,104,2023-03-29_13h30.11.345,Main,2022.1.1,59.754433175850465,
neutral,neutral,2,k,k,,,,,1,15,33,10,,,,,,,,,,,,,prac,1,1,2,neutral,neutral,k,k,1,0.5984952999278903,151.82163610006683,152.8330113000702,152.81634100014344,None,151.82163610006683,None,151.82163610006683,None,151.82163610006683,None,153.41626394013875,None,153.41626394013875,None,153.41626394013875,None,,,,,,,,,,,,,,104,2023-03-29_13h30.11.345,Main,2022.1.1,59.754433175850465,
positive,negative,2,l,j,,,,,1,16,34,14,,,,,,,,,,,,,prac,2,2,2,negative,positive,l,l,1,0.631760299904272,153.41982240020297,154.43295480008237,154.41628460003994,None,153.41982240020297,None,153.41982240020297,None,153.41982240020297,None,155.04957034005784,None,155.04957034005784,None,155.04957034005784,None,,,,,,,,,,,,,,104,2023-03-29_13h30.11.345,Main,2022.1.1,59.754433175850465,
negative,neutral,2,j,l,,,,,1,17,35,12,,,,,,,,,,,,,prac,2,2,2,neutral,negative,j,j,1,0.8153971000574529,155.05351200001314,156.06626000022516,156.04958240012638,None,155.05351200001314,None,155.05351200001314,None,155.05351200001314,None,156.8659731402062,None,156.8659731402062,None,156.8659731402062,None,,,,,,,,,,,,,,104,2023-03-29_13h30.11.345,Main,2022.1.1,59.754433175850465,
,,,,,,,,,,,,,,,,,,,,,,,,,,,,,,,,,,,,,,,,,,,,,,,,,,,156.86623510019854,None,space,4.992428499739617,,,,,,,,,,104,2023-03-29_13h30.11.345,Main,2022.1.1,59.754433175850465,
,,,,,,,,,,,,,,,,,,,,,,,,,,,,,,,,,,,,,,,,,,,,,,,,,,,,,,,0.3675926,-0.13148148,0,0,0,0.010903340065851808,None,,,104,2023-03-29_13h30.11.345,Main,2022.1.1,59.754433175850465,
positive,positive,1,l,j,,,,,,,,,0,0,0,2,,,,,,,161.88551700022072,None,main,2,2,1,positive,positive,l,l,1,0.695506599964574,163.88890570006333,164.89941780013032,164.88273150008172,None,163.88890570006333,None,163.88890570006333,None,163.88890570006333,None,165.5826871400699,None,165.5826871400699,None,165.5826871400699,None,,,,,,,,,,,,,,104,2023-03-29_13h30.11.345,Main,2022.1.1,59.754433175850465,
negative,positive,1,j,l,,,,,,,,,0,1,1,6,,,,,,,,,main,1,1,1,positive,negative,j,j,1,0.6505460001062602,165.58752960013226,166.59961060015485,166.58279760018922,None,165.58752960013226,None,165.58752960013226,None,165.58752960013226,None,167.23413404016756,None,167.23413404016756,None,167.23413404016756,None,,,,,,,,,,,,,,104,2023-03-29_13h30.11.345,Main,2022.1.1,59.754433175850465,
neutral,negative,2,k,k,,,,,,,,,0,2,2,16,,,,,,,,,main,1,1,2,negative,neutral,k,k,1,1.2606077999807894,167.2396383001469,168.25220590014942,168.23266870016232,None,167.2396383001469,None,167.2396383001469,None,167.2396383001469,None,169.49929104009644,None,169.49929104009644,None,169.49929104009644,None,,,,,,,,,,,,,,104,2023-03-29_13h30.11.345,Main,2022.1.1,59.754433175850465,
negative,negative,2,j,l,,,,,,,,,0,3,3,9,,,,,,,,,main,1,1,2,negative,negative,j,j,1,0.8818030001129955,169.50537150003947,170.5186084001325,170.49936990020797,None,169.50537150003947,None,169.50537150003947,None,169.50537150003947,None,171.38259254009463,None,171.38259254009463,None,171.38259254009463,None,,,,,,,,,,,,,,104,2023-03-29_13h30.11.345,Main,2022.1.1,59.754433175850465,
negative,neutral,1,j,l,,,,,,,,,0,4,4,3,,,,,,,,,main,2,2,1,neutral,negative,j,j,1,0.7486002999357879,171.3881493001245,172.3992670001462,172.38260320015252,None,171.3881493001245,None,171.3881493001245,None,171.3881493001245,None,173.13258414003067,None,173.13258414003067,None,173.13258414003067,None,,,,,,,,,,,,,,104,2023-03-29_13h30.11.345,Main,2022.1.1,59.754433175850465,
negative,negative,1,j,l,,,,,,,,,0,5,5,0,,,,,,,,,main,1,1,1,negative,negative,j,j,1,0.6816539999563247,173.13852010015398,174.14920470002107,174.13265640009195,None,173.13852010015398,None,173.13852010015398,None,173.13852010015398,None,174.81588234016672,None,174.81588234016672,None,174.81588234016672,None,,,,,,,,,,,,,,104,2023-03-29_13h30.11.345,Main,2022.1.1,59.754433175850465,
neutral,neutral,2,k,k,,,,,,,,,0,6,6,10,,,,,,,,,main,1,1,2,neutral,neutral,k,k,1,0.6815106000285596,174.82195240003057,175.83527000015602,175.815855700057,None,174.82195240003057,None,174.82195240003057,None,174.82195240003057,None,176.4991434401367,None,176.4991434401367,None,176.4991434401367,None,,,,,,,,,,,,,,104,2023-03-29_13h30.11.345,Main,2022.1.1,59.754433175850465,
positive,negative,1,l,j,,,,,,,,,0,7,7,5,,,,,,,,,main,1,1,1,negative,positive,l,l,1,0.5649831998161972,176.50482250005007,177.5158235002309,177.49914410011843,None,176.50482250005007,None,176.50482250005007,None,176.50482250005007,None,178.0658177401405,None,178.0658177401405,None,178.0658177401405,None,,,,,,,,,,,,,,104,2023-03-29_13h30.11.345,Main,2022.1.1,59.754433175850465,
positive,neutral,1,l,j,,,,,,,,,0,8,8,8,,,,,,,,,main,1,1,1,neutral,positive,l,l,1,0.5816327000502497,178.06947510014288,179.06865580007434,179.06865580007434,None,178.06947510014288,None,178.06947510014288,None,178.06947510014288,None,179.64908454017714,None,179.64908454017714,None,179.64908454017714,None,,,,,,,,,,,,,,104,2023-03-29_13h30.11.345,Main,2022.1.1,59.754433175850465,
positive,positive,2,l,j,,,,,,,,,0,9,9,11,,,,,,,,,main,2,2,2,positive,positive,l,l,1,1.6142964998725802,179.65559070021845,180.6658030000981,180.64908520015888,None,179.65559070021845,None,179.65559070021845,None,179.65559070021845,None,182.26582520012744,None,182.26582520012744,None,182.26582520012744,None,,,,,,,,,,,,,,104,2023-03-29_13h30.11.345,Main,2022.1.1,59.754433175850465,
negative,neutral,2,j,l,,,,,,,,,0,10,10,12,,,,,,,,,main,1,1,2,neutral,negative,j,j,1,0.8009832000825554,183.2667924000416,184.28250810015015,184.249006500002,None,183.2667924000416,None,183.2667924000416,None,183.2667924000416,None,185.06565104015172,None,185.06565104015172,None,185.06565104015172,None,,,,,,,,,,,,,,104,2023-03-29_13h30.11.345,Main,2022.1.1,59.754433175850465,
neutral,neutral,1,k,k,,,,,,,,,0,11,11,1,,,,,,,,,main,2,2,1,neutral,neutral,k,k,1,0.647823299979791,185.07169200014323,186.0823445999995,186.0685483000707,None,185.07169200014323,None,185.07169200014323,None,185.07169200014323,None,186.71566094001756,None,186.71566094001756,None,186.71566094001756,None,,,,,,,,,,,,,,104,2023-03-29_13h30.11.345,Main,2022.1.1,59.754433175850465,
positive,negative,2,l,j,,,,,,,,,0,12,12,14,,,,,,,,,main,1,1,2,negative,positive,l,l,1,0.5848252000287175,186.73506340011954,187.73228950006887,187.7184499001596,None,186.73506340011954,None,186.73506340011954,None,186.73506340011954,None,188.30171524020844,None,188.30171524020844,None,188.30171524020844,None,,,,,,,,,,,,,,104,2023-03-29_13h30.11.345,Main,2022.1.1,59.754433175850465,
neutral,positive,1,k,k,,,,,,,,,0,13,13,4,,,,,,,,,main,1,1,1,positive,neutral,k,k,1,0.6953796001616865,188.30497740022838,189.31834970018826,189.2989420001395,None,188.30497740022838,None,188.30497740022838,None,188.30497740022838,None,189.99887084015646,None,189.99887084015646,None,189.99887084015646,None,,,,,,,,,,,,,,104,2023-03-29_13h30.11.345,Main,2022.1.1,59.754433175850465,
negative,positive,2,j,l,,,,,,,,,0,14,14,15,,,,,,,,,main,2,2,2,positive,negative,j,j,1,0.6830977001227438,190.00450800010003,191.01557310018688,190.9988790000789,None,190.00450800010003,None,190.00450800010003,None,190.00450800010003,None,191.68218414005824,None,191.68218414005824,None,191.68218414005824,None,,,,,,,,,,,,,,104,2023-03-29_13h30.11.345,Main,2022.1.1,59.754433175850465,
neutral,positive,2,k,k,,,,,,,,,0,15,15,13,,,,,,,,,main,2,2,2,positive,neutral,k,k,1,0.5805846001021564,191.68883570004255,192.6988584001083,192.68217560020275,None,191.68883570004255,None,191.68883570004255,None,191.68883570004255,None,193.26549444007688,None,193.26549444007688,None,193.26549444007688,None,,,,,,,,,,,,,,104,2023-03-29_13h30.11.345,Main,2022.1.1,59.754433175850465,
positive,neutral,2,l,j,,,,,,,,,0,16,16,17,,,,,,,,,main,1,1,2,neutral,positive,l,l,1,0.5814836001954973,193.26904660020955,194.26556610013358,194.26556610013358,None,193.26904660020955,None,193.26904660020955,None,193.26904660020955,None,194.84878184003756,None,194.84878184003756,None,194.84878184003756,None,,,,,,,,,,,,,,104,2023-03-29_13h30.11.345,Main,2022.1.1,59.754433175850465,
neutral,negative,1,k,k,,,,,,,,,0,17,17,7,,,,,,,,,main,2,2,1,negative,neutral,k,k,1,0.5486799001228064,194.85479110013694,195.86827510013245,195.83214060007595,None,194.85479110013694,None,194.85479110013694,None,194.85479110013694,None,196.39873214005493,None,196.39873214005493,None,196.39873214005493,None,,,,,,,,,,,,,,104,2023-03-29_13h30.11.345,Main,2022.1.1,59.754433175850465,
neutral,negative,2,k,k,,,,,,,,,1,0,18,16,,,,,,,,,main,2,2,2,negative,neutral,k,k,1,0.7983566999901086,196.40250740014017,197.41544730006717,197.39879080001265,None,196.40250740014017,None,196.40250740014017,None,196.40250740014017,None,198.19875344014727,None,198.19875344014727,None,198.19875344014727,None,,,,,,,,,,,,,,104,2023-03-29_13h30.11.345,Main,2022.1.1,59.754433175850465,
positive,neutral,1,l,j,,,,,,,,,1,1,19,8,,,,,,,,,main,2,2,1,neutral,positive,l,l,1,0.7319108000956476,198.2042412001174,199.21542780008167,199.2015623000916,None,198.2042412001174,None,198.2042412001174,None,198.2042412001174,None,199.93202974004672,None,199.93202974004672,None,199.93202974004672,None,,,,,,,,,,,,,,104,2023-03-29_13h30.11.345,Main,2022.1.1,59.754433175850465,
positive,negative,2,l,j,,,,,,,,,1,2,20,14,,,,,,,,,main,1,1,2,negative,positive,l,l,1,1.1483320998959243,199.93804950010963,200.94868730008602,200.93210490001366,None,199.93804950010963,None,199.93804950010963,None,199.93804950010963,None,202.08200094019995,None,202.08200094019995,None,202.08200094019995,None,,,,,,,,,,,,,,104,2023-03-29_13h30.11.345,Main,2022.1.1,59.754433175850465,
negative,neutral,1,j,l,,,,,,,,,1,3,21,3,,,,,,,,,main,2,2,1,neutral,negative,j,j,1,1.114896300015971,202.0876213000156,203.0986674001906,203.08200650010258,None,202.0876213000156,None,202.0876213000156,None,202.0876213000156,None,204.1985882400535,None,204.1985882400535,None,204.1985882400535,None,,,,,,,,,,,,,,104,2023-03-29_13h30.11.345,Main,2022.1.1,59.754433175850465,
positive,negative,1,l,j,,,,,,,,,1,4,22,5,,,,,,,,,main,2,2,1,negative,positive,l,l,1,0.8321020998992026,204.2045211000368,205.2153015001677,205.19863800005987,None,204.2045211000368,None,204.2045211000368,None,204.2045211000368,None,206.03191204005853,None,206.03191204005853,None,206.03191204005853,None,,,,,,,,,,,,,,104,2023-03-29_13h30.11.345,Main,2022.1.1,59.754433175850465,
neutral,positive,1,k,k,,,,,,,,,1,5,23,4,,,,,,,,,main,1,1,1,positive,neutral,k,k,1,0.7150196998845786,206.0355840001721,207.05130300018936,207.03196340007707,None,206.0355840001721,None,206.0355840001721,None,206.0355840001721,None,207.74853444015608,None,207.74853444015608,None,207.74853444015608,None,,,,,,,,,,,,,,104,2023-03-29_13h30.11.345,Main,2022.1.1,59.754433175850465,
neutral,neutral,1,k,k,,,,,,,,,1,6,24,1,,,,,,,,,main,1,1,1,neutral,neutral,k,k,1,0.6146148000843823,207.75484580011107,208.76519240019843,208.75132480007596,None,207.75484580011107,None,207.75484580011107,None,207.75484580011107,None,209.36527364011855,None,209.36527364011855,None,209.36527364011855,None,,,,,,,,,,,,,,104,2023-03-29_13h30.11.345,Main,2022.1.1,59.754433175850465,
positive,positive,2,l,j,,,,,,,,,1,7,25,11,,,,,,,,,main,2,2,2,positive,positive,l,l,1,0.599324599839747,209.36968020000495,210.3819999000989,210.3651426001452,None,209.36968020000495,None,209.36968020000495,None,209.36968020000495,None,210.96515804002993,None,210.96515804002993,None,210.96515804002993,None,,,,,,,,,,,,,,104,2023-03-29_13h30.11.345,Main,2022.1.1,59.754433175850465,
negative,negative,1,j,l,,,,,,,,,1,8,26,0,,,,,,,,,main,1,1,1,negative,negative,j,j,1,0.8301762000191957,210.97434510011226,211.9817973000463,211.96801410010085,None,210.97434510011226,None,210.97434510011226,None,210.97434510011226,None,212.7984344401397,None,212.7984344401397,None,212.7984344401397,None,,,,,,,,,,,,,,104,2023-03-29_13h30.11.345,Main,2022.1.1,59.754433175850465,
positive,positive,1,l,j,,,,,,,,,1,9,27,2,,,,,,,,,main,1,1,1,positive,positive,l,l,1,0.7320283998269588,212.80386350001208,213.8150961000938,213.79843960003927,None,212.80386350001208,None,212.80386350001208,None,212.80386350001208,None,214.53170574000106,None,214.53170574000106,None,214.53170574000106,None,,,,,,,,,,,,,,104,2023-03-29_13h30.11.345,Main,2022.1.1,59.754433175850465,
positive,neutral,2,l,j,,,,,,,,,1,10,28,17,,,,,,,,,main,2,2,2,neutral,positive,l,l,1,0.6650451999157667,214.53772630007006,215.5484145001974,215.5317388002295,None,214.53772630007006,None,214.53772630007006,None,214.53772630007006,None,216.19834544006736,None,216.19834544006736,None,216.19834544006736,None,,,,,,,,,,,,,,104,2023-03-29_13h30.11.345,Main,2022.1.1,59.754433175850465,
negative,negative,2,j,l,,,,,,,,,1,11,29,9,,,,,,,,,main,2,2,2,negative,negative,j,j,1,0.8990276001859456,216.20397490006872,217.2150580000598,217.20123520004563,None,216.20397490006872,None,216.20397490006872,None,216.20397490006872,None,218.09832104002126,None,218.09832104002126,None,218.09832104002126,None,,,,,,,,,,,,,,104,2023-03-29_13h30.11.345,Main,2022.1.1,59.754433175850465,
negative,positive,2,j,l,,,,,,,,,1,12,30,15,,,,,,,,,main,2,2,2,positive,negative,j,j,1,0.6143841000739485,218.10466290009208,219.11510160006583,219.0984187000431,None,218.10466290009208,None,218.10466290009208,None,218.10466290009208,None,219.71505834008568,None,219.71505834008568,None,219.71505834008568,None,,,,,,,,,,,,,,104,2023-03-29_13h30.11.345,Main,2022.1.1,59.754433175850465,
neutral,negative,1,k,k,,,,,,,,,1,13,31,7,,,,,,,,,main,2,2,1,negative,neutral,k,k,1,0.6486116999294609,219.72080470016226,220.7343486000318,220.71495460020378,None,219.72080470016226,None,219.72080470016226,None,219.72080470016226,None,221.36505984012038,None,221.36505984012038,None,221.36505984012038,None,,,,,,,,,,,,,,104,2023-03-29_13h30.11.345,Main,2022.1.1,59.754433175850465,
neutral,neutral,2,k,k,,,,,,,,,1,14,32,10,,,,,,,,,main,1,1,2,neutral,neutral,k,k,1,0.6311236000619829,221.36876740003936,222.38157850014977,222.3649115001317,None,221.36876740003936,None,221.36876740003936,None,221.36876740003936,None,222.99820124018007,None,222.99820124018007,None,222.99820124018007,None,,,,,,,,,,,,,,104,2023-03-29_13h30.11.345,Main,2022.1.1,59.754433175850465,
negative,positive,1,j,l,,,,,,,,,1,15,33,6,,,,,,,,,main,2,2,1,positive,negative,j,j,1,0.948591000167653,223.0066628002096,224.01489670015872,223.99823070014827,None,223.0066628002096,None,223.0066628002096,None,223.0066628002096,None,224.94818064020947,None,224.94818064020947,None,224.94818064020947,None,,,,,,,,,,,,,,104,2023-03-29_13h30.11.345,Main,2022.1.1,59.754433175850465,
negative,neutral,2,j,l,,,,,,,,,1,16,34,12,,,,,,,,,main,1,1,2,neutral,negative,j,j,1,-0.7185005999635905,224.95159040018916,None,None,None,224.95159040018916,None,224.95159040018916,None,224.95159040018916,None,225.23169430019334,None,225.23169430019334,None,225.23169430019334,None,,,,,,,,,,,,,,104,2023-03-29_13h30.11.345,Main,2022.1.1,59.754433175850465,
neutral,positive,2,k,k,,,,,,,,,1,17,35,13,,,,,,,,,main,1,1,2,positive,neutral,k,k,1,0.651880000019446,228.2332990001887,229.248145500198,229.21481110015884,None,228.2332990001887,None,228.2332990001887,None,228.2332990001887,None,229.8822035401594,None,229.8822035401594,None,229.8822035401594,None,,,,,,,,,,,,,,104,2023-03-29_13h30.11.345,Main,2022.1.1,59.754433175850465,
neutral,positive,1,k,k,,,,,,,,,2,0,36,4,,,,,,,,,main,1,1,1,positive,neutral,k,k,1,0.6969651998952031,229.88867820007727,230.8980844002217,230.88146880012937,None,229.88867820007727,None,229.88867820007727,None,229.88867820007727,None,231.5814041400794,None,231.5814041400794,None,231.5814041400794,None,,,,,,,,,,,,,,104,2023-03-29_13h30.11.345,Main,2022.1.1,59.754433175850465,
negative,neutral,2,j,l,,,,,,,,,2,1,37,12,,,,,,,,,main,2,2,2,neutral,negative,j,j,1,0.7984205998945981,231.58579850010574,232.5982363000512,232.58137810020708,None,231.58579850010574,None,231.58579850010574,None,231.58579850010574,None,233.38136304016226,None,233.38136304016226,None,233.38136304016226,None,,,,,,,,,,,,,,104,2023-03-29_13h30.11.345,Main,2022.1.1,59.754433175850465,
positive,neutral,2,l,j,,,,,,,,,2,2,38,17,,,,,,,,,main,2,2,2,neutral,positive,l,l,1,0.731659300159663,233.38742700009607,234.3981007002294,234.38132060016505,None,233.38742700009607,None,233.38742700009607,None,233.38742700009607,None,235.1146334401332,None,235.1146334401332,None,235.1146334401332,None,,,,,,,,,,,,,,104,2023-03-29_13h30.11.345,Main,2022.1.1,59.754433175850465,
negative,neutral,1,j,l,,,,,,,,,2,3,39,3,,,,,,,,,main,1,1,1,neutral,negative,j,j,1,0.7344387001357973,235.11822080006823,236.13132240017876,236.1146955001168,None,235.11822080006823,None,235.11822080006823,None,235.11822080006823,None,236.8507214401383,None,236.8507214401383,None,236.8507214401383,None,,,,,,,,,,,,,,104,2023-03-29_13h30.11.345,Main,2022.1.1,59.754433175850465,
positive,neutral,1,l,j,,,,,,,,,2,4,40,8,,,,,,,,,main,1,1,1,neutral,positive,l,l,1,0.5987152000889182,236.85415830020793,237.86460380000062,237.84795480011962,None,236.85415830020793,None,236.85415830020793,None,236.85415830020793,None,238.45069114011713,None,238.45069114011713,None,238.45069114011713,None,,,,,,,,,,,,,,104,2023-03-29_13h30.11.345,Main,2022.1.1,59.754433175850465,
neutral,neutral,2,k,k,,,,,,,,,2,5,41,10,,,,,,,,,main,2,2,2,neutral,neutral,k,k,1,0.5980054999236017,238.45424360013567,239.46733650006354,239.45071870018728,None,238.45424360013567,None,238.45424360013567,None,238.45424360013567,None,240.05016724006273,None,240.05016724006273,None,240.05016724006273,None,,,,,,,,,,,,,,104,2023-03-29_13h30.11.345,Main,2022.1.1,59.754433175850465,
neutral,negative,2,k,k,,,,,,,,,2,6,42,16,,,,,,,,,main,2,2,2,negative,neutral,k,k,1,0.6289786999113858,240.0554185002111,241.06457670009695,241.0508638001047,None,240.0554185002111,None,240.0554185002111,None,240.0554185002111,None,241.68115754015744,None,241.68115754015744,None,241.68115754015744,None,,,,,,,,,,,,,,104,2023-03-29_13h30.11.345,Main,2022.1.1,59.754433175850465,
positive,negative,2,l,j,,,,,,,,,2,7,43,14,,,,,,,,,main,2,2,2,negative,positive,l,l,1,0.5819291002117097,241.68514420022257,242.69785770005547,242.68119130004197,None,241.68514420022257,None,241.68514420022257,None,241.68514420022257,None,243.26448964010925,None,243.26448964010925,None,243.26448964010925,None,,,,,,,,,,,,,,104,2023-03-29_13h30.11.345,Main,2022.1.1,59.754433175850465,
positive,positive,1,l,j,,,,,,,,,2,8,44,2,,,,,,,,,main,2,2,1,positive,positive,l,l,1,0.6483841000590473,243.27034660009667,244.28113970020786,244.26446770015173,None,243.27034660009667,None,243.27034660009667,None,243.27034660009667,None,244.91442664000206,None,244.91442664000206,None,244.91442664000206,None,,,,,,,,,,,,,,104,2023-03-29_13h30.11.345,Main,2022.1.1,59.754433175850465,
negative,negative,2,j,l,,,,,,,,,2,9,45,9,,,,,,,,,main,1,1,2,negative,negative,j,j,1,0.7662971001118422,244.92053900007159,245.9311139001511,245.91454570018686,None,244.92053900007159,None,244.92053900007159,None,244.92053900007159,None,246.68107674000785,None,246.68107674000785,None,246.68107674000785,None,,,,,,,,,,,,,,104,2023-03-29_13h30.11.345,Main,2022.1.1,59.754433175850465,
negative,negative,1,j,l,,,,,,,,,2,10,46,0,,,,,,,,,main,2,2,1,negative,negative,j,j,1,0.7971916000824422,246.68791540013626,247.70050170016475,247.68106220010668,None,246.68791540013626,None,246.68791540013626,None,246.68791540013626,None,248.48105594012887,None,248.48105594012887,None,248.48105594012887,None,,,,,,,,,,,,,,104,2023-03-29_13h30.11.345,Main,2022.1.1,59.754433175850465,
neutral,positive,2,k,k,,,,,,,,,2,11,47,13,,,,,,,,,main,1,1,2,positive,neutral,k,k,1,0.5980891999788582,248.4849577001296,249.50042910012417,249.48104310012423,None,248.4849577001296,None,248.4849577001296,None,248.4849577001296,None,250.0810103401076,None,250.0810103401076,None,250.0810103401076,None,,,,,,,,,,,,,,104,2023-03-29_13h30.11.345,Main,2022.1.1,59.754433175850465,
neutral,negative,1,k,k,,,,,,,,,2,12,48,7,,,,,,,,,main,1,1,1,negative,neutral,k,k,1,0.76740080001764,250.08444040012546,251.08101710001938,251.08101710001938,None,250.08444040012546,None,250.08444040012546,None,250.08444040012546,None,251.84998544012197,None,251.84998544012197,None,251.84998544012197,None,,,,,,,,,,,,,,104,2023-03-29_13h30.11.345,Main,2022.1.1,59.754433175850465,
negative,positive,2,j,l,,,,,,,,,2,13,49,15,,,,,,,,,main,2,2,2,positive,negative,j,j,1,0.7119308998808265,251.85511300014332,252.86431460012682,252.84765510004945,None,251.85511300014332,None,251.85511300014332,None,251.85511300014332,None,253.5643885402009,None,253.5643885402009,None,253.5643885402009,None,,,,,,,,,,,,,,104,2023-03-29_13h30.11.345,Main,2022.1.1,59.754433175850465,
negative,positive,1,j,l,,,,,,,,,2,14,50,6,,,,,,,,,main,2,2,1,positive,negative,j,j,1,0.7660801000893116,253.5688173000235,254.58095900015905,254.56427290011197,None,253.5688173000235,None,253.5688173000235,None,253.5688173000235,None,255.33108614021913,None,255.33108614021913,None,255.33108614021913,None,,,,,,,,,,,,,,104,2023-03-29_13h30.11.345,Main,2022.1.1,59.754433175850465,
positive,positive,2,l,j,,,,,,,,,2,15,51,11,,,,,,,,,main,2,2,2,positive,positive,l,l,1,0.5640259000938386,255.3375497001689,256.34780340013094,256.33094110013917,None,255.3375497001689,None,255.3375497001689,None,255.3375497001689,None,256.897537540039,None,256.897537540039,None,256.897537540039,None,,,,,,,,,,,,,,104,2023-03-29_13h30.11.345,Main,2022.1.1,59.754433175850465,
neutral,neutral,1,k,k,,,,,,,,,2,16,52,1,,,,,,,,,main,2,2,1,neutral,neutral,k,k,1,0.6323750000447035,256.9011316001415,257.9142100000754,257.90039010019973,None,256.9011316001415,None,256.9011316001415,None,256.9011316001415,None,258.5308460400905,None,258.5308460400905,None,258.5308460400905,None,,,,,,,,,,,,,,104,2023-03-29_13h30.11.345,Main,2022.1.1,59.754433175850465,
positive,negative,1,l,j,,,,,,,,,2,17,53,5,,,,,,,,,main,2,2,1,negative,positive,l,l,1,0.7480121999979019,258.534919800004,259.5475273001939,259.53087470005266,None,258.534919800004,None,258.534919800004,None,258.534919800004,None,260.2808319400996,None,260.2808319400996,None,260.2808319400996,None,,,,,,,,,,,,,,104,2023-03-29_13h30.11.345,Main,2022.1.1,59.754433175850465,
neutral,positive,2,k,k,,,,,,,,,3,0,54,13,,,,,,,,,main,1,1,2,positive,neutral,k,k,1,0.5647332000080496,260.2975963000208,261.2976152000483,261.28083720011637,None,260.2975963000208,None,260.2975963000208,None,260.2975963000208,None,261.84743404001927,None,261.84743404001927,None,261.84743404001927,None,,,,,,,,,,,,,,104,2023-03-29_13h30.11.345,Main,2022.1.1,59.754433175850465,
neutral,negative,1,k,k,,,,,,,,,3,1,55,7,,,,,,,,,main,2,2,1,negative,neutral,k,k,1,0.6819060000125319,261.8513773002196,262.86691570002586,262.85030870023184,None,261.8513773002196,None,261.8513773002196,None,261.8513773002196,None,263.5309369402006,None,263.5309369402006,None,263.5309369402006,None,,,,,,,,,,,,,,104,2023-03-29_13h30.11.345,Main,2022.1.1,59.754433175850465,
negative,neutral,1,j,l,,,,,,,,,3,2,56,3,,,,,,,,,main,2,2,1,neutral,negative,j,j,1,0.7647291000466794,263.5474140001461,264.5474108001217,264.5307318000123,None,263.5474140001461,None,263.5474140001461,None,263.5474140001461,None,265.2974741401616,None,265.2974741401616,None,265.2974741401616,None,,,,,,,,,,,,,,104,2023-03-29_13h30.11.345,Main,2022.1.1,59.754433175850465,
positive,positive,2,l,j,,,,,,,,,3,3,57,11,,,,,,,,,main,1,1,2,positive,positive,l,l,1,0.6818846000824124,265.30100210011005,266.3140242001973,266.2973805000074,None,265.30100210011005,None,265.30100210011005,None,265.30100210011005,None,266.9807522400282,None,266.9807522400282,None,266.9807522400282,None,,,,,,,,,,,,,,104,2023-03-29_13h30.11.345,Main,2022.1.1,59.754433175850465,
neutral,negative,2,k,k,,,,,,,,,3,4,58,16,,,,,,,,,main,2,2,2,negative,neutral,k,k,1,0.6315548999700695,266.9844641000964,267.9974767002277,267.9835512000136,None,266.9844641000964,None,266.9844641000964,None,266.9844641000964,None,268.61407024003563,None,268.61407024003563,None,268.61407024003563,None,,,,,,,,,,,,,,104,2023-03-29_13h30.11.345,Main,2022.1.1,59.754433175850465,
negative,negative,1,j,l,,,,,,,,,3,5,59,0,,,,,,,,,main,2,2,1,negative,negative,j,j,1,0.6316211000084877,268.61837110016495,269.6334704000037,269.6139565000776,None,268.61837110016495,None,268.61837110016495,None,268.61837110016495,None,270.24717664006164,None,270.24717664006164,None,270.24717664006164,None,,,,,,,,,,,,,,104,2023-03-29_13h30.11.345,Main,2022.1.1,59.754433175850465,
neutral,positive,1,k,k,,,,,,,,,3,6,60,4,,,,,,,,,main,2,2,1,positive,neutral,k,k,1,0.6983851999975741,270.2543630001601,271.26666500000283,271.2472764002159,None,270.2543630001601,None,270.2543630001601,None,270.2543630001601,None,271.94724144004283,None,271.94724144004283,None,271.94724144004283,None,,,,,,,,,,,,,,104,2023-03-29_13h30.11.345,Main,2022.1.1,59.754433175850465,
positive,neutral,1,l,j,,,,,,,,,3,7,61,8,,,,,,,,,main,2,2,1,neutral,positive,l,l,1,0.748500999994576,271.9507290001493,272.9639052001294,272.94724070001394,None,271.9507290001493,None,271.9507290001493,None,271.9507290001493,None,273.69722614004274,None,273.69722614004274,None,273.69722614004274,None,,,,,,,,,,,,,,104,2023-03-29_13h30.11.345,Main,2022.1.1,59.754433175850465,
positive,neutral,2,l,j,,,,,,,,,3,8,62,17,,,,,,,,,main,2,2,2,neutral,positive,l,l,1,0.6158093998674303,273.70291670016013,274.7138790001627,274.69723240006715,None,273.70291670016013,None,273.70291670016013,None,273.70291670016013,None,275.3138388400897,None,275.3138388400897,None,275.3138388400897,None,,,,,,,,,,,,,,104,2023-03-29_13h30.11.345,Main,2022.1.1,59.754433175850465,
positive,positive,1,l,j,,,,,,,,,3,9,63,2,,,,,,,,,main,2,2,1,positive,positive,l,l,1,0.5310348002240062,275.31813620007597,276.3305426000152,276.3166533000767,None,275.31813620007597,None,275.31813620007597,None,275.31813620007597,None,276.8471410401165,None,276.8471410401165,None,276.8471410401165,None,,,,,,,,,,,,,,104,2023-03-29_13h30.11.345,Main,2022.1.1,59.754433175850465,
neutral,neutral,1,k,k,,,,,,,,,3,10,64,1,,,,,,,,,main,2,2,1,neutral,neutral,k,k,1,0.6149876001290977,276.85078520001844,277.8665206001606,277.849939300213,None,276.85078520001844,None,276.85078520001844,None,276.85078520001844,None,278.4637708401773,None,278.4637708401773,None,278.4637708401773,None,,,,,,,,,,,,,,104,2023-03-29_13h30.11.345,Main,2022.1.1,59.754433175850465,
negative,negative,2,j,l,,,,,,,,,3,11,65,9,,,,,,,,,main,1,1,2,negative,negative,j,j,1,0.6149771998170763,278.48056900012307,279.48046840005554,279.46379250008613,None,278.48056900012307,None,278.48056900012307,None,278.48056900012307,None,280.080396040203,None,280.080396040203,None,280.080396040203,None,,,,,,,,,,,,,,104,2023-03-29_13h30.11.345,Main,2022.1.1,59.754433175850465,
neutral,neutral,2,k,k,,,,,,,,,3,12,66,10,,,,,,,,,main,1,1,2,neutral,neutral,k,k,1,0.6327655999921262,280.08396740001626,281.0997786000371,281.0804006000981,None,280.08396740001626,None,280.08396740001626,None,280.08396740001626,None,281.7136929401662,None,281.7136929401662,None,281.7136929401662,None,,,,,,,,,,,,,,104,2023-03-29_13h30.11.345,Main,2022.1.1,59.754433175850465,
negative,positive,1,j,l,,,,,,,,,3,13,67,6,,,,,,,,,main,2,2,1,positive,negative,j,j,1,0.81427580001764,281.71816730010323,282.7304644000251,282.7167788001243,None,281.71816730010323,None,281.71816730010323,None,281.71816730010323,None,283.53042214000595,None,283.53042214000595,None,283.53042214000595,None,,,,,,,,,,,,,,104,2023-03-29_13h30.11.345,Main,2022.1.1,59.754433175850465,
negative,neutral,2,j,l,,,,,,,,,3,14,68,12,,,,,,,,,main,2,2,2,neutral,negative,j,j,1,0.698321099858731,283.5361532000825,284.54699490009807,284.5303484001197,None,283.5361532000825,None,283.5361532000825,None,283.5361532000825,None,285.23031344017943,None,285.23031344017943,None,285.23031344017943,None,,,,,,,,,,,,,,104,2023-03-29_13h30.11.345,Main,2022.1.1,59.754433175850465,
positive,negative,2,l,j,,,,,,,,,3,15,69,14,,,,,,,,,main,2,2,2,negative,positive,l,l,1,0.5816279998980463,285.2372611002065,286.2469665000681,286.2303132000379,None,285.2372611002065,None,285.2372611002065,None,285.2372611002065,None,286.8135900400579,None,286.8135900400579,None,286.8135900400579,None,,,,,,,,,,,,,,104,2023-03-29_13h30.11.345,Main,2022.1.1,59.754433175850465,
negative,positive,2,j,l,,,,,,,,,3,16,70,15,,,,,,,,,main,1,1,2,positive,negative,j,j,1,0.6151030999608338,286.81745600001886,287.8302621000912,287.81361510022543,None,286.81745600001886,None,286.81745600001886,None,286.81745600001886,None,288.4302401401568,None,288.4302401401568,None,288.4302401401568,None,,,,,,,,,,,,,,104,2023-03-29_13h30.11.345,Main,2022.1.1,59.754433175850465,
positive,negative,1,l,j,,,,,,,,,3,17,71,5,,,,,,,,,main,2,2,1,negative,positive,l,j,0,0.5654712000396103,288.4338359001558,289.44691320019774,289.43024080013856,None,288.4338359001558,None,288.4338359001558,None,288.4338359001558,None,289.996917600045,None,289.996917600045,None,289.996917600045,None,,,,,,,,,,,,,,104,2023-03-29_13h30.11.345,Main,2022.1.1,59.754433175850465,
neutral,negative,2,k,k,,,,,,,,,4,0,72,16,,,,,,,,,main,2,2,2,negative,neutral,k,k,1,0.7007929000537843,290.99807910015807,292.0135167001281,291.9801811000798,None,290.99807910015807,None,290.99807910015807,None,290.99807910015807,None,292.696807940118,None,292.696807940118,None,292.696807940118,None,,,,,,,,,,,,,,104,2023-03-29_13h30.11.345,Main,2022.1.1,59.754433175850465,
negative,positive,1,j,l,,,,,,,,,4,1,73,6,,,,,,,,,main,2,2,1,positive,negative,j,j,1,0.7813449001405388,292.7009439000394,293.71364290011115,293.69698560005054,None,292.7009439000394,None,292.7009439000394,None,292.7009439000394,None,294.48011474017983,None,294.48011474017983,None,294.48011474017983,None,,,,,,,,,,,,,,104,2023-03-29_13h30.11.345,Main,2022.1.1,59.754433175850465,
negative,positive,2,j,l,,,,,,,,,4,2,74,15,,,,,,,,,main,2,2,2,positive,negative,j,j,1,0.6317900998983532,294.48358680005185,295.49953910009935,295.48011370003223,None,294.48358680005185,None,294.48358680005185,None,294.48358680005185,None,296.11339884004553,None,296.11339884004553,None,296.11339884004553,None,,,,,,,,,,,,,,104,2023-03-29_13h30.11.345,Main,2022.1.1,59.754433175850465,
positive,neutral,1,l,j,,,,,,,,,4,3,75,8,,,,,,,,,main,1,1,1,neutral,positive,l,l,1,0.6149375000968575,296.11701640021056,297.11340710008517,297.11340710008517,None,296.11701640021056,None,296.11701640021056,None,296.11701640021056,None,297.7300819401629,None,297.7300819401629,None,297.7300819401629,None,,,,,,,,,,,,,,104,2023-03-29_13h30.11.345,Main,2022.1.1,59.754433175850465,
neutral,positive,1,k,k,,,,,,,,,4,4,76,4,,,,,,,,,main,1,1,1,positive,neutral,k,k,1,0.6818897998891771,297.7344125001691,298.7494608000852,298.73280440014787,None,297.7344125001691,None,297.7344125001691,None,297.7344125001691,None,299.4133434401359,None,299.4133434401359,None,299.4133434401359,None,,,,,,,,,,,,,,104,2023-03-29_13h30.11.345,Main,2022.1.1,59.754433175850465,
neutral,neutral,2,k,k,,,,,,,,,4,5,77,10,,,,,,,,,main,2,2,2,neutral,neutral,k,k,1,0.6149967999663204,299.416962900199,300.4328437000513,300.41335610020906,None,299.416962900199,None,299.416962900199,None,299.416962900199,None,301.02996914004905,None,301.02996914004905,None,301.02996914004905,None,,,,,,,,,,,,,,104,2023-03-29_13h30.11.345,Main,2022.1.1,59.754433175850465,
negative,negative,2,j,l,,,,,,,,,4,6,78,9,,,,,,,,,main,1,1,2,negative,negative,j,j,1,0.7482232998590916,301.03371870005503,302.04664980014786,302.0299689001404,None,301.03371870005503,None,301.03371870005503,None,301.03371870005503,None,302.7799371400382,None,302.7799371400382,None,302.7799371400382,None,,,,,,,,,,,,,,104,2023-03-29_13h30.11.345,Main,2022.1.1,59.754433175850465,
negative,negative,1,j,l,,,,,,,,,4,7,79,0,,,,,,,,,main,2,2,1,negative,negative,j,j,1,0.6652186000719666,302.7966733002104,303.79664750001393,303.7799641001038,None,302.7966733002104,None,302.7966733002104,None,302.7966733002104,None,304.44658134002236,None,304.44658134002236,None,304.44658134002236,None,,,,,,,,,,,,,,104,2023-03-29_13h30.11.345,Main,2022.1.1,59.754433175850465,
neutral,positive,2,k,k,,,,,,,,,4,8,80,13,,,,,,,,,main,2,2,2,positive,neutral,k,k,1,0.7983164000324905,304.45047530019656,305.465990900062,305.446599900024,None,304.45047530019656,None,304.45047530019656,None,304.45047530019656,None,306.2465625401586,None,306.2465625401586,None,306.2465625401586,None,,,,,,,,,,,,,,104,2023-03-29_13h30.11.345,Main,2022.1.1,59.754433175850465,
neutral,neutral,1,k,k,,,,,,,,,4,9,81,1,,,,,,,,,main,1,1,1,neutral,neutral,k,k,1,0.764681400032714,306.251995800063,307.2631979000289,307.24653970007785,None,306.251995800063,None,306.251995800063,None,306.251995800063,None,308.01294734012333,None,308.01294734012333,None,308.01294734012333,None,,,,,,,,,,,,,,104,2023-03-29_13h30.11.345,Main,2022.1.1,59.754433175850465,
positive,negative,1,l,j,,,,,,,,,4,10,82,5,,,,,,,,,main,1,1,1,negative,positive,l,l,1,0.6322528999298811,308.0194309002254,309.0298398002051,309.01317290007137,None,308.0194309002254,None,308.0194309002254,None,308.0194309002254,None,309.6464859401807,None,309.6464859401807,None,309.6464859401807,None,,,,,,,,,,,,,,104,2023-03-29_13h30.11.345,Main,2022.1.1,59.754433175850465,
negative,neutral,1,j,l,,,,,,,,,4,11,83,3,,,,,,,,,main,1,1,1,neutral,negative,j,j,1,0.7648559999652207,309.6501852001529,310.64650090015493,310.64650090015493,None,309.6501852001529,None,309.6501852001529,None,309.6501852001529,None,311.41311494014224,None,311.41311494014224,None,311.41311494014224,None,,,,,,,,,,,,,,104,2023-03-29_13h30.11.345,Main,2022.1.1,59.754433175850465,
positive,positive,2,l,j,,,,,,,,,4,12,84,11,,,,,,,,,main,2,2,2,positive,positive,l,j,0,0.49858280015178025,311.41900220001116,312.4299033000134,312.41320910002105,None,311.41900220001116,None,311.41900220001116,None,311.41900220001116,None,312.91577850002795,None,312.91577850002795,None,312.91577850002795,None,,,,,,,,,,,,,,104,2023-03-29_13h30.11.345,Main,2022.1.1,59.754433175850465,
positive,negative,2,l,j,,,,,,,,,4,13,85,14,,,,,,,,,main,2,2,2,negative,positive,l,l,1,0.535226000007242,313.9142136001028,314.9324220002163,314.89638260006905,None,313.9142136001028,None,313.9142136001028,None,313.9142136001028,None,315.44648024006744,None,315.44648024006744,None,315.44648024006744,None,,,,,,,,,,,,,,104,2023-03-29_13h30.11.345,Main,2022.1.1,59.754433175850465,
positive,positive,1,l,j,,,,,,,,,4,14,86,2,,,,,,,,,main,1,1,1,positive,positive,l,l,1,0.7321515998337418,315.45089570013806,316.46301930001937,316.4463378000073,None,315.45089570013806,None,315.45089570013806,None,315.45089570013806,None,317.17950834017245,None,317.17950834017245,None,317.17950834017245,None,,,,,,,,,,,,,,104,2023-03-29_13h30.11.345,Main,2022.1.1,59.754433175850465,
positive,neutral,2,l,j,,,,,,,,,4,15,87,17,,,,,,,,,main,2,2,2,neutral,positive,l,l,1,0.7632351000793278,317.1856973001268,318.19631910021417,318.17963800020516,None,317.1856973001268,None,317.1856973001268,None,317.1856973001268,None,318.94629294015465,None,318.94629294015465,None,318.94629294015465,None,,,,,,,,,,,,,,104,2023-03-29_13h30.11.345,Main,2022.1.1,59.754433175850465,
neutral,negative,1,k,k,,,,,,,,,4,16,88,7,,,,,,,,,main,1,1,1,negative,neutral,k,k,1,0.5310151998419315,318.9502974001225,319.96302380017005,319.9462833001744,None,318.9502974001225,None,318.9502974001225,None,318.9502974001225,None,320.47958294008856,None,320.47958294008856,None,320.47958294008856,None,,,,,,,,,,,,,,104,2023-03-29_13h30.11.345,Main,2022.1.1,59.754433175850465,
negative,neutral,2,j,l,,,,,,,,,4,17,89,12,,,,,,,,,main,1,1,2,neutral,negative,j,j,1,1.2150330999866128,320.48315810016356,321.49627970019355,321.4823771000374,None,320.48315810016356,None,320.48315810016356,None,320.48315810016356,None,322.6962460401468,None,322.6962460401468,None,322.6962460401468,None,,,,,,,,,,,,,,104,2023-03-29_13h30.11.345,Main,2022.1.1,59.754433175850465,
positive,positive,2,l,j,,,,,,,,,5,0,90,11,,,,,,,,,main,2,2,2,positive,positive,l,l,1,0.6661058999598026,322.702144500101,323.712879500119,323.6990203000605,None,322.702144500101,None,322.702144500101,None,322.702144500101,None,324.36285624010486,None,324.36285624010486,None,324.36285624010486,None,,,,,,,,,,,,,,104,2023-03-29_13h30.11.345,Main,2022.1.1,59.754433175850465,
negative,negative,2,j,l,,,,,,,,,5,1,91,9,,,,,,,,,main,2,2,2,negative,negative,j,j,1,0.747205900028348,324.36925070011057,325.3796398001723,325.3628710000776,None,324.36925070011057,None,324.36925070011057,None,324.36925070011057,None,326.11282704011535,None,326.11282704011535,None,326.11282704011535,None,,,,,,,,,,,,,,104,2023-03-29_13h30.11.345,Main,2022.1.1,59.754433175850465,
positive,neutral,1,l,j,,,,,,,,,5,2,92,8,,,,,,,,,main,1,1,1,neutral,positive,l,l,1,0.7346767999697477,326.1163250000682,327.1294675001409,327.11286930018105,None,326.1163250000682,None,326.1163250000682,None,326.1163250000682,None,327.848969440069,None,327.848969440069,None,327.848969440069,None,,,,,,,,,,,,,,104,2023-03-29_13h30.11.345,Main,2022.1.1,59.754433175850465,
negative,positive,1,j,l,,,,,,,,,5,3,93,6,,,,,,,,,main,2,2,1,positive,negative,j,j,1,0.6786960999015719,327.8525596000254,328.86542290006764,328.84610640001483,None,327.8525596000254,None,327.8525596000254,None,327.8525596000254,None,329.5294391402043,None,329.5294391402043,None,329.5294391402043,None,,,,,,,,,,,,,,104,2023-03-29_13h30.11.345,Main,2022.1.1,59.754433175850465,
negative,neutral,2,j,l,,,,,,,,,5,4,94,12,,,,,,,,,main,1,1,2,neutral,negative,j,j,1,0.6483607001136988,329.53371270000935,330.54609480011277,330.53218180011027,None,329.53371270000935,None,329.53371270000935,None,329.53371270000935,None,331.1793597402051,None,331.1793597402051,None,331.1793597402051,None,,,,,,,,,,,,,,104,2023-03-29_13h30.11.345,Main,2022.1.1,59.754433175850465,
positive,negative,1,l,j,,,,,,,,,5,5,95,5,,,,,,,,,main,1,1,1,negative,positive,l,l,1,0.5993330001365393,331.1830109001603,332.18216600012966,332.18216600012966,None,331.1830109001603,None,331.1830109001603,None,331.1830109001603,None,332.7792370401788,None,332.7792370401788,None,332.7792370401788,None,,,,,,,,,,,,,,104,2023-03-29_13h30.11.345,Main,2022.1.1,59.754433175850465,
positive,negative,2,l,j,,,,,,,,,5,6,96,14,,,,,,,,,main,2,2,2,negative,positive,l,l,1,0.6986905999947339,332.7862424000632,333.79602190013975,333.7793492001947,None,332.7862424000632,None,332.7862424000632,None,332.7862424000632,None,334.47940164022145,None,334.47940164022145,None,334.47940164022145,None,,,,,,,,,,,,,,104,2023-03-29_13h30.11.345,Main,2022.1.1,59.754433175850465,
neutral,positive,2,k,k,,,,,,,,,5,7,97,13,,,,,,,,,main,1,1,2,positive,neutral,k,j,0,0.6462569001596421,334.48487080005,335.49597520008683,335.479294200195,None,334.48487080005,None,334.48487080005,None,334.48487080005,None,336.1294491000008,None,336.1294491000008,None,336.1294491000008,None,,,,,,,,,,,,,,104,2023-03-29_13h30.11.345,Main,2022.1.1,59.754433175850465,
neutral,negative,1,k,k,,,,,,,,,5,8,98,7,,,,,,,,,main,2,2,1,negative,neutral,k,k,1,0.6868503999430686,337.1303712001536,338.1459028001409,338.1125827000942,None,337.1303712001536,None,337.1303712001536,None,337.1303712001536,None,338.8152163402177,None,338.8152163402177,None,338.8152163402177,None,,,,,,,,,,,,,,104,2023-03-29_13h30.11.345,Main,2022.1.1,59.754433175850465,
negative,positive,2,j,l,,,,,,,,,5,9,99,15,,,,,,,,,main,1,1,2,positive,negative,j,j,1,0.6009431001730263,338.8187729001511,339.8318972000852,339.8125712000765,None,338.8187729001511,None,338.8187729001511,None,338.8187729001511,None,340.4152999400161,None,340.4152999400161,None,340.4152999400161,None,,,,,,,,,,,,,,104,2023-03-29_13h30.11.345,Main,2022.1.1,59.754433175850465,
neutral,neutral,2,k,k,,,,,,,,,5,10,100,10,,,,,,,,,main,2,2,2,neutral,neutral,k,k,1,0.5460942001082003,340.42154970020056,341.4292835001834,341.4154118001461,None,340.42154970020056,None,340.42154970020056,None,340.42154970020056,None,341.96539414008146,None,341.96539414008146,None,341.96539414008146,None,,,,,,,,,,,,,,104,2023-03-29_13h30.11.345,Main,2022.1.1,59.754433175850465,
neutral,negative,2,k,k,,,,,,,,,5,11,101,16,,,,,,,,,main,2,2,2,negative,neutral,k,k,1,0.5950782001018524,341.9689255000558,342.9791247001849,342.9652246001642,None,341.9689255000558,None,341.9689255000558,None,341.9689255000558,None,343.562453440018,None,343.562453440018,None,343.562453440018,None,,,,,,,,,,,,,,104,2023-03-29_13h30.11.345,Main,2022.1.1,59.754433175850465,
positive,positive,1,l,j,,,,,,,,,5,12,102,2,,,,,,,,,main,2,2,1,positive,positive,l,l,1,0.63194360001944,343.56642740010284,344.5792053001933,344.56244850018993,None,343.56642740010284,None,343.56642740010284,None,343.56642740010284,None,345.19573044017886,None,345.19573044017886,None,345.19573044017886,None,,,,,,,,,,,,,,104,2023-03-29_13h30.11.345,Main,2022.1.1,59.754433175850465,
positive,neutral,2,l,j,,,,,,,,,5,13,103,17,,,,,,,,,main,1,1,2,neutral,positive,l,l,1,0.6815634998492897,345.2016513000708,346.21242140000686,346.19576730020344,None,345.2016513000708,None,345.2016513000708,None,345.2016513000708,None,346.8790417400654,None,346.8790417400654,None,346.8790417400654,None,,,,,,,,,,,,,,104,2023-03-29_13h30.11.345,Main,2022.1.1,59.754433175850465,
neutral,neutral,1,k,k,,,,,,,,,5,14,104,1,,,,,,,,,main,1,1,1,neutral,neutral,k,k,1,0.5649876000825316,346.88452190021053,347.89573500002734,347.8790799002163,None,346.88452190021053,None,346.88452190021053,None,346.88452190021053,None,348.4456814400386,None,348.4456814400386,None,348.4456814400386,None,,,,,,,,,,,,,,104,2023-03-29_13h30.11.345,Main,2022.1.1,59.754433175850465,
negative,neutral,1,j,l,,,,,,,,,5,15,105,3,,,,,,,,,main,1,1,1,neutral,negative,j,j,1,0.6319230999797583,348.4487215001136,349.462496700231,349.4456949001178,None,348.4487215001136,None,348.4487215001136,None,348.4487215001136,None,350.07897264007477,None,350.07897264007477,None,350.07897264007477,None,,,,,,,,,,,,,,104,2023-03-29_13h30.11.345,Main,2022.1.1,59.754433175850465,
neutral,positive,1,k,k,,,,,,,,,5,16,106,4,,,,,,,,,main,2,2,1,positive,neutral,k,k,1,0.5318652000278234,350.0828665001318,351.0983588001691,351.08178430004045,None,350.0828665001318,None,350.0828665001318,None,350.0828665001318,None,351.61229924005454,None,351.61229924005454,None,351.61229924005454,None,,,,,,,,,,,,,,104,2023-03-29_13h30.11.345,Main,2022.1.1,59.754433175850465,
negative,negative,1,j,l,,,,,,,,,5,17,107,0,,,,,,,,,main,2,2,1,negative,negative,j,j,1,0.7814986000303179,351.62156040011905,352.6316977001261,352.6122787001077,None,351.62156040011905,None,351.62156040011905,None,351.62156040011905,None,353.3955731402151,None,353.3955731402151,None,353.3955731402151,None,,,,,,,,,,,,,,104,2023-03-29_13h30.11.345,Main,2022.1.1,59.754433175850465,
negative,neutral,1,j,l,,,,,,,,,6,0,108,3,,,,,,,,,main,2,2,1,neutral,negative,j,j,1,0.6649633999913931,353.4012866001576,354.41231780010276,354.39557690010406,None,353.4012866001576,None,353.4012866001576,None,353.4012866001576,None,355.06221654019316,None,355.06221654019316,None,355.06221654019316,None,,,,,,,,,,,,,,104,2023-03-29_13h30.11.345,Main,2022.1.1,59.754433175850465,
neutral,negative,1,k,k,,,,,,,,,6,1,109,7,,,,,,,,,main,1,1,1,negative,neutral,k,k,1,0.5483227998483926,355.0658560001757,356.06222570012324,356.06222570012324,None,355.0658560001757,None,355.0658560001757,None,355.0658560001757,None,356.61220604004336,None,356.61220604004336,None,356.61220604004336,None,,,,,,,,,,,,,,104,2023-03-29_13h30.11.345,Main,2022.1.1,59.754433175850465,
neutral,neutral,2,k,k,,,,,,,,,6,2,110,10,,,,,,,,,main,1,1,2,neutral,neutral,k,k,1,0.5983957999851555,356.61550550023094,357.61217950005084,357.61217950005084,None,356.61550550023094,None,356.61550550023094,None,356.61550550023094,None,358.21216704007236,None,358.21216704007236,None,358.21216704007236,None,,,,,,,,,,,,,,104,2023-03-29_13h30.11.345,Main,2022.1.1,59.754433175850465,
positive,positive,2,l,j,,,,,,,,,6,3,111,11,,,,,,,,,main,1,1,2,positive,positive,l,l,1,0.6319677999708802,358.2158318001311,359.22882520011626,359.21199790015817,None,358.2158318001311,None,358.2158318001311,None,358.2158318001311,None,359.8456736401189,None,359.8456736401189,None,359.8456736401189,None,,,,,,,,,,,,,,104,2023-03-29_13h30.11.345,Main,2022.1.1,59.754433175850465,
positive,neutral,1,l,j,,,,,,,,,6,4,112,8,,,,,,,,,main,2,2,1,neutral,positive,l,l,1,0.5981451000552624,359.85210340004414,360.864790600026,360.84549630014226,None,359.85210340004414,None,359.85210340004414,None,359.85210340004414,None,361.44541924013754,None,361.44541924013754,None,361.44541924013754,None,,,,,,,,,,,,,,104,2023-03-29_13h30.11.345,Main,2022.1.1,59.754433175850465,
neutral,negative,2,k,k,,,,,,,,,6,5,113,16,,,,,,,,,main,1,1,2,negative,neutral,k,k,1,0.6984856000635773,361.44877680018544,362.4454305002,362.4454305002,None,361.44877680018544,None,361.44877680018544,None,361.44877680018544,None,363.1454194400925,None,363.1454194400925,None,363.1454194400925,None,,,,,,,,,,,,,,104,2023-03-29_13h30.11.345,Main,2022.1.1,59.754433175850465,
neutral,positive,2,k,k,,,,,,,,,6,6,114,13,,,,,,,,,main,2,2,2,positive,neutral,k,k,1,0.7983073000796139,363.1493185001891,364.16207230021246,364.1454233000986,None,363.1493185001891,None,363.1493185001891,None,363.1493185001891,None,364.94534834017975,None,364.94534834017975,None,364.94534834017975,None,,,,,,,,,,,,,,104,2023-03-29_13h30.11.345,Main,2022.1.1,59.754433175850465,
neutral,neutral,1,k,k,,,,,,,,,6,7,115,1,,,,,,,,,main,1,1,1,neutral,neutral,k,k,1,0.6820115000009537,364.95085640018806,365.96211690013297,365.9481994002126,None,364.95085640018806,None,364.95085640018806,None,364.95085640018806,None,366.6286751400679,None,366.6286751400679,None,366.6286751400679,None,,,,,,,,,,,,,,104,2023-03-29_13h30.11.345,Main,2022.1.1,59.754433175850465,
positive,negative,2,l,j,,,,,,,,,6,8,116,14,,,,,,,,,main,1,1,2,negative,positive,l,l,1,0.5980634998995811,366.6324139002245,367.6453499000054,367.63150110002607,None,366.6324139002245,None,366.6324139002245,None,366.6324139002245,None,368.22860994013024,None,368.22860994013024,None,368.22860994013024,None,,,,,,,,,,,,,,104,2023-03-29_13h30.11.345,Main,2022.1.1,59.754433175850465,
positive,negative,1,l,j,,,,,,,,,6,9,117,5,,,,,,,,,main,1,1,1,negative,positive,l,l,1,0.7152410000562668,368.23246600013226,369.24527740012854,369.2286042000633,None,368.23246600013226,None,368.23246600013226,None,368.23246600013226,None,369.9452315402217,None,369.9452315402217,None,369.9452315402217,None,,,,,,,,,,,,,,104,2023-03-29_13h30.11.345,Main,2022.1.1,59.754433175850465,
negative,positive,1,j,l,,,,,,,,,6,10,118,6,,,,,,,,,main,2,2,1,positive,negative,j,j,1,0.7823834998998791,369.95125300018117,370.96191960014403,370.9452613000758,None,369.95125300018117,None,369.95125300018117,None,369.95125300018117,None,371.72828084006903,None,371.72828084006903,None,371.72828084006903,None,,,,,,,,,,,,,,104,2023-03-29_13h30.11.345,Main,2022.1.1,59.754433175850465,
negative,positive,2,j,l,,,,,,,,,6,11,119,15,,,,,,,,,main,1,1,2,positive,negative,j,j,1,0.6976405000314116,371.7479416001588,372.7618764000945,372.7285578001756,None,371.7479416001588,None,371.7479416001588,None,371.7479416001588,None,373.4285571401473,None,373.4285571401473,None,373.4285571401473,None,,,,,,,,,,,,,,104,2023-03-29_13h30.11.345,Main,2022.1.1,59.754433175850465,
positive,positive,1,l,j,,,,,,,,,6,12,120,2,,,,,,,,,main,1,1,1,positive,positive,l,l,1,0.7811759999021888,373.4326321000699,374.44518100004643,374.42854640004225,None,373.4326321000699,None,373.4326321000699,None,373.4326321000699,None,375.2118190402165,None,375.2118190402165,None,375.2118190402165,None,,,,,,,,,,,,,,104,2023-03-29_13h30.11.345,Main,2022.1.1,59.754433175850465,
negative,negative,1,j,l,,,,,,,,,6,13,121,0,,,,,,,,,main,1,1,1,negative,negative,j,l,0,0.6480037001892924,375.2177499001846,376.2285405001603,376.2118182000704,None,375.2177499001846,None,375.2177499001846,None,375.2177499001846,None,376.86180880013853,None,376.86180880013853,None,376.86180880013853,None,,,,,,,,,,,,,,104,2023-03-29_13h30.11.345,Main,2022.1.1,59.754433175850465,
negative,negative,2,j,l,,,,,,,,,6,14,122,9,,,,,,,,,main,2,2,2,negative,negative,j,j,1,0.8007931001484394,377.86288690008223,378.86186360009015,378.8478974001482,None,377.86288690008223,None,377.86288690008223,None,377.86288690008223,None,379.6617083401419,None,379.6617083401419,None,379.6617083401419,None,,,,,,,,,,,,,,104,2023-03-29_13h30.11.345,Main,2022.1.1,59.754433175850465,
negative,neutral,2,j,l,,,,,,,,,6,15,123,12,,,,,,,,,main,1,1,2,neutral,negative,j,j,1,0.5812693000771105,379.6656741001643,380.6783895001281,380.66461450001225,None,379.6656741001643,None,379.6656741001643,None,379.6656741001643,None,381.24501394000833,None,381.24501394000833,None,381.24501394000833,None,,,,,,,,,,,,,,104,2023-03-29_13h30.11.345,Main,2022.1.1,59.754433175850465,
neutral,positive,1,k,k,,,,,,,,,6,16,124,4,,,,,,,,,main,1,1,1,positive,neutral,k,k,1,0.5320297998841852,381.2483892000746,382.24501550011337,382.23116490012035,None,381.2483892000746,None,381.2483892000746,None,381.2483892000746,None,382.77840874004175,None,382.77840874004175,None,382.77840874004175,None,,,,,,,,,,,,,,104,2023-03-29_13h30.11.345,Main,2022.1.1,59.754433175850465,
positive,neutral,2,l,j,,,,,,,,,6,17,125,17,,,,,,,,,main,1,1,2,neutral,positive,l,l,1,0.7649598999414593,382.78195370011963,383.77831210009754,383.77831210009754,None,382.78195370011963,None,382.78195370011963,None,382.78195370011963,None,384.5449674400501,None,384.5449674400501,None,384.5449674400501,None,,,,,,,,,,,,,,104,2023-03-29_13h30.11.345,Main,2022.1.1,59.754433175850465,
neutral,negative,2,k,k,,,,,,,,,7,0,126,16,,,,,,,,,main,2,2,2,negative,neutral,k,k,1,1.4318310001399368,384.56163810007274,385.56161420000717,385.54494510008954,None,384.56163810007274,None,384.56163810007274,None,384.56163810007274,None,386.9782326401677,None,386.9782326401677,None,386.9782326401677,None,,,,,,,,,,,,,,104,2023-03-29_13h30.11.345,Main,2022.1.1,59.754433175850465,
neutral,positive,1,k,k,,,,,,,,,7,1,127,4,,,,,,,,,main,2,2,1,positive,neutral,k,k,1,0.6651417999528348,386.98383360006846,387.9976560000796,387.97826220002025,None,386.98383360006846,None,386.98383360006846,None,386.98383360006846,None,388.64486384005284,None,388.64486384005284,None,388.64486384005284,None,,,,,,,,,,,,,,104,2023-03-29_13h30.11.345,Main,2022.1.1,59.754433175850465,
negative,positive,1,j,l,,,,,,,,,7,2,128,6,,,,,,,,,main,1,1,1,positive,negative,j,j,1,0.7318355001043528,388.66161770001054,389.6615296001546,389.6448725000955,None,388.66161770001054,None,388.66161770001054,None,388.66161770001054,None,390.37814624011514,None,390.37814624011514,None,390.37814624011514,None,,,,,,,,,,,,,,104,2023-03-29_13h30.11.345,Main,2022.1.1,59.754433175850465,
neutral,neutral,1,k,k,,,,,,,,,7,3,129,1,,,,,,,,,main,1,1,1,neutral,neutral,k,k,1,1.3813642000313848,390.38383900001645,391.3975693001412,391.3781536000315,None,390.38383900001645,None,390.38383900001645,None,390.38383900001645,None,392.76143944016655,None,392.76143944016655,None,392.76143944016655,None,,,,,,,,,,,,,,104,2023-03-29_13h30.11.345,Main,2022.1.1,59.754433175850465,
positive,negative,2,l,j,,,,,,,,,7,4,130,14,,,,,,,,,main,2,2,2,negative,positive,l,l,1,0.7487615998834372,392.7655078000389,393.77813640004024,393.7614561000373,None,392.7655078000389,None,392.7655078000389,None,392.7655078000389,None,394.5114398401696,None,394.5114398401696,None,394.5114398401696,None,,,,,,,,,,,,,,104,2023-03-29_13h30.11.345,Main,2022.1.1,59.754433175850465,
neutral,negative,1,k,k,,,,,,,,,7,5,131,7,,,,,,,,,main,2,2,1,negative,neutral,k,k,1,0.7641457999125123,394.51583560020663,395.528119900031,395.51141900010407,None,394.51583560020663,None,394.51583560020663,None,394.51583560020663,None,396.2780487400945,None,396.2780487400945,None,396.2780487400945,None,,,,,,,,,,,,,,104,2023-03-29_13h30.11.345,Main,2022.1.1,59.754433175850465,
neutral,neutral,2,k,k,,,,,,,,,7,6,132,10,,,,,,,,,main,2,2,2,neutral,neutral,k,k,1,0.7482896998990327,396.28193830000237,397.2947230001446,397.2780538001098,None,396.28193830000237,None,396.28193830000237,None,396.28193830000237,None,398.0280255401507,None,398.0280255401507,None,398.0280255401507,None,,,,,,,,,,,,,,104,2023-03-29_13h30.11.345,Main,2022.1.1,59.754433175850465,
positive,negative,1,l,j,,,,,,,,,7,7,133,5,,,,,,,,,main,2,2,1,negative,positive,l,l,1,0.6986078999470919,398.0316609002184,399.0447959001176,399.02802800014615,None,398.0316609002184,None,398.0316609002184,None,398.0316609002184,None,399.7279903400689,None,399.7279903400689,None,399.7279903400689,None,,,,,,,,,,,,,,104,2023-03-29_13h30.11.345,Main,2022.1.1,59.754433175850465,
positive,neutral,1,l,j,,,,,,,,,7,8,134,8,,,,,,,,,main,2,2,1,neutral,positive,l,l,1,0.5983223000075668,399.7319061001763,400.7474433002062,400.72799060004763,None,399.7319061001763,None,399.7319061001763,None,399.7319061001763,None,401.32799374018794,None,401.32799374018794,None,401.32799374018794,None,,,,,,,,,,,,,,104,2023-03-29_13h30.11.345,Main,2022.1.1,59.754433175850465,
negative,neutral,2,j,l,,,,,,,,,7,9,135,12,,,,,,,,,main,1,1,2,neutral,negative,j,j,1,0.6315673999488354,401.33356160018593,402.3474066001363,402.32802760018967,None,401.33356160018593,None,401.33356160018593,None,401.33356160018593,None,402.96135134003123,None,402.96135134003123,None,402.96135134003123,None,,,,,,,,,,,,,,104,2023-03-29_13h30.11.345,Main,2022.1.1,59.754433175850465,
positive,positive,1,l,j,,,,,,,,,7,10,136,2,,,,,,,,,main,1,1,1,positive,positive,l,l,1,0.7485986000392586,402.96478000003844,403.9612469000276,403.9612469000276,None,402.96478000003844,None,402.96478000003844,None,402.96478000003844,None,404.7111990401521,None,404.7111990401521,None,404.7111990401521,None,,,,,,,,,,,,,,104,2023-03-29_13h30.11.345,Main,2022.1.1,59.754433175850465,
negative,positive,2,j,l,,,,,,,,,7,11,137,15,,,,,,,,,main,1,1,2,positive,negative,j,j,1,0.6981136000249535,404.71738020004705,405.72795830015093,405.71125170006417,None,404.71738020004705,None,404.71738020004705,None,404.71738020004705,None,406.41115734013727,None,406.41115734013727,None,406.41115734013727,None,,,,,,,,,,,,,,104,2023-03-29_13h30.11.345,Main,2022.1.1,59.754433175850465,
neutral,positive,2,k,k,,,,,,,,,7,12,138,13,,,,,,,,,main,2,2,2,positive,neutral,k,k,1,0.5152219000738114,406.4149365001358,407.4278545000125,407.41117340000346,None,406.4149365001358,None,406.4149365001358,None,406.4149365001358,None,407.92782014012334,None,407.92782014012334,None,407.92782014012334,None,,,,,,,,,,,,,,104,2023-03-29_13h30.11.345,Main,2022.1.1,59.754433175850465,
positive,neutral,2,l,j,,,,,,,,,7,13,139,17,,,,,,,,,main,2,2,2,neutral,positive,l,l,1,0.6149180999491364,407.93165810010396,408.94455950008705,408.9306922000833,None,407.93165810010396,None,407.93165810010396,None,407.93165810010396,None,409.54445914002133,None,409.54445914002133,None,409.54445914002133,None,,,,,,,,,,,,,,104,2023-03-29_13h30.11.345,Main,2022.1.1,59.754433175850465,
negative,negative,1,j,l,,,,,,,,,7,14,140,0,,,,,,,,,main,1,1,1,negative,negative,j,j,1,0.7659078999422491,409.5488193000201,410.5612393000629,410.54443950019777,None,409.5488193000201,None,409.5488193000201,None,409.5488193000201,None,411.31109154000876,None,411.31109154000876,None,411.31109154000876,None,,,,,,,,,,,,,,104,2023-03-29_13h30.11.345,Main,2022.1.1,59.754433175850465,
negative,negative,2,j,l,,,,,,,,,7,15,141,9,,,,,,,,,main,2,2,2,negative,negative,j,j,1,0.6971187999006361,411.315235900227,412.3277553000953,412.3139135001693,None,411.315235900227,None,411.315235900227,None,411.315235900227,None,413.01104984022675,None,413.01104984022675,None,413.01104984022675,None,,,,,,,,,,,,,,104,2023-03-29_13h30.11.345,Main,2022.1.1,59.754433175850465,
positive,positive,2,l,j,,,,,,,,,7,16,142,11,,,,,,,,,main,1,1,2,positive,positive,l,l,1,0.7824579000007361,413.01510850014165,414.02772450004704,414.01112780021504,None,413.01510850014165,None,413.01510850014165,None,413.01510850014165,None,414.7949306400027,None,414.7949306400027,None,414.7949306400027,None,,,,,,,,,,,,,,104,2023-03-29_13h30.11.345,Main,2022.1.1,59.754433175850465,
negative,neutral,1,j,l,,,,,,,,,7,17,143,3,,,,,,,,,main,1,1,1,neutral,negative,j,j,1,0.9475815000478178,414.8110564001836,415.8110101001803,415.7971537001431,None,414.8110564001836,None,414.8110564001836,None,414.8110564001836,None,416.744314240152,None,416.744314240152,None,416.744314240152,None,,,,,,,,,,,,,,104,2023-03-29_13h30.11.345,Main,2022.1.1,59.754433175850465,
neutral,neutral,1,k,k,,,,,,,,,8,0,144,1,,,,,,,,,main,1,1,1,neutral,neutral,k,k,1,0.6310111999046057,416.74836840014905,417.7609623000026,417.74429580010474,None,416.74836840014905,None,416.74836840014905,None,416.74836840014905,None,418.37759874002074,None,418.37759874002074,None,418.37759874002074,None,,,,,,,,,,,,,,104,2023-03-29_13h30.11.345,Main,2022.1.1,59.754433175850465,
positive,neutral,1,l,j,,,,,,,,,8,1,145,8,,,,,,,,,main,1,1,1,neutral,positive,l,l,1,0.6983998001087457,418.3812284001615,419.3777079000138,419.3777079000138,None,418.3812284001615,None,418.3812284001615,None,418.3812284001615,None,420.07760564014313,None,420.07760564014313,None,420.07760564014313,None,,,,,,,,,,,,,,104,2023-03-29_13h30.11.345,Main,2022.1.1,59.754433175850465,
negative,neutral,1,j,l,,,,,,,,,8,2,146,3,,,,,,,,,main,2,2,1,neutral,negative,j,j,1,0.7649201001040637,420.0814264002256,421.09423060016707,421.07757980003953,None,420.0814264002256,None,420.0814264002256,None,420.0814264002256,None,421.8442366401199,None,421.8442366401199,None,421.8442366401199,None,,,,,,,,,,,,,,104,2023-03-29_13h30.11.345,Main,2022.1.1,59.754433175850465,
neutral,neutral,2,k,k,,,,,,,,,8,3,147,10,,,,,,,,,main,1,1,2,neutral,neutral,k,k,1,0.6816873999778181,421.84791880007833,422.8608578001149,422.8469888002146,None,421.84791880007833,None,421.84791880007833,None,421.84791880007833,None,423.52749164015984,None,423.52749164015984,None,423.52749164015984,None,,,,,,,,,,,,,,104,2023-03-29_13h30.11.345,Main,2022.1.1,59.754433175850465,
negative,positive,2,j,l,,,,,,,,,8,4,148,15,,,,,,,,,main,1,1,2,positive,negative,j,j,1,0.7817326998338103,423.53129390021786,424.5441600000486,424.52750150021166,None,423.53129390021786,None,423.53129390021786,None,423.53129390021786,None,425.3108122400939,None,425.3108122400939,None,425.3108122400939,None,,,,,,,,,,,,,,104,2023-03-29_13h30.11.345,Main,2022.1.1,59.754433175850465,
positive,positive,2,l,j,,,,,,,,,8,5,149,11,,,,,,,,,main,2,2,2,positive,positive,l,l,1,0.6651115000713617,425.3275859002024,426.3301732002292,426.3107898000162,None,425.3275859002024,None,425.3275859002024,None,425.3275859002024,None,426.9775577400345,None,426.9775577400345,None,426.9775577400345,None,,,,,,,,,,,,,,104,2023-03-29_13h30.11.345,Main,2022.1.1,59.754433175850465,
neutral,positive,2,k,k,,,,,,,,,8,6,150,13,,,,,,,,,main,2,2,2,positive,neutral,k,k,1,0.5982183001469821,426.9942107000388,427.99412840022705,427.97743930015713,None,426.9942107000388,None,426.9942107000388,None,426.9942107000388,None,428.57738284007644,None,428.57738284007644,None,428.57738284007644,None,,,,,,,,,,,,,,104,2023-03-29_13h30.11.345,Main,2022.1.1,59.754433175850465,
positive,negative,1,l,j,,,,,,,,,8,7,151,5,,,,,,,,,main,2,2,1,negative,positive,l,l,1,0.6153964998666197,428.5817270001862,429.5941640001256,429.57752620009705,None,428.5817270001862,None,428.5817270001862,None,428.5817270001862,None,430.19417994013054,None,430.19417994013054,None,430.19417994013054,None,,,,,,,,,,,,,,104,2023-03-29_13h30.11.345,Main,2022.1.1,59.754433175850465,
neutral,negative,2,k,k,,,,,,,,,8,8,152,16,,,,,,,,,main,2,2,2,negative,neutral,k,k,1,0.6146313999779522,430.20013580005616,431.2134195000399,431.19671190017834,None,430.20013580005616,None,430.20013580005616,None,430.20013580005616,None,431.8106513401493,None,431.8106513401493,None,431.8106513401493,None,,,,,,,,,,,,,,104,2023-03-29_13h30.11.345,Main,2022.1.1,59.754433175850465,
negative,negative,1,j,l,,,,,,,,,8,9,153,0,,,,,,,,,main,1,1,1,negative,negative,j,j,1,0.5642554999794811,431.81504090013914,432.82732830010355,432.81065310002305,None,431.81504090013914,None,431.81504090013914,None,431.81504090013914,None,433.3772832400631,None,433.3772832400631,None,433.3772832400631,None,,,,,,,,,,,,,,104,2023-03-29_13h30.11.345,Main,2022.1.1,59.754433175850465,
neutral,positive,1,k,k,,,,,,,,,8,10,154,4,,,,,,,,,main,2,2,1,positive,neutral,k,k,1,0.7152764000929892,433.3828813000582,434.39660300011747,434.3772887000814,None,433.3828813000582,None,433.3828813000582,None,433.3828813000582,None,435.09392184005117,None,435.09392184005117,None,435.09392184005117,None,,,,,,,,,,,,,,104,2023-03-29_13h30.11.345,Main,2022.1.1,59.754433175850465,
neutral,negative,1,k,k,,,,,,,,,8,11,155,7,,,,,,,,,main,2,2,1,negative,neutral,k,k,1,0.6858045000117272,435.09770660009235,436.11056950013153,436.09393740003,None,435.09770660009235,None,435.09770660009235,None,435.09770660009235,None,436.7812381401658,None,436.7812381401658,None,436.7812381401658,None,,,,,,,,,,,,,,104,2023-03-29_13h30.11.345,Main,2022.1.1,59.754433175850465,
positive,neutral,2,l,j,,,,,,,,,8,12,156,17,,,,,,,,,main,1,1,2,neutral,positive,l,l,1,0.610886299982667,436.7845750001725,437.79389850003645,437.77721740002744,None,436.7845750001725,None,436.7845750001725,None,436.7845750001725,None,438.39392774002624,None,438.39392774002624,None,438.39392774002624,None,,,,,,,,,,,,,,104,2023-03-29_13h30.11.345,Main,2022.1.1,59.754433175850465,
positive,positive,1,l,j,,,,,,,,,8,13,157,2,,,,,,,,,main,1,1,1,positive,positive,l,l,1,0.7150779000949115,438.3993535002228,439.4105353001505,439.3938542001415,None,438.3993535002228,None,438.3993535002228,None,438.3993535002228,None,440.11048304019494,None,440.11048304019494,None,440.11048304019494,None,,,,,,,,,,,,,,104,2023-03-29_13h30.11.345,Main,2022.1.1,59.754433175850465,
negative,neutral,2,j,l,,,,,,,,,8,14,158,12,,,,,,,,,main,2,2,2,neutral,negative,j,j,1,0.6483618000056595,440.1141493001487,441.1133663000073,441.1133663000073,None,440.1141493001487,None,440.1141493001487,None,440.1141493001487,None,441.76046124016864,None,441.76046124016864,None,441.76046124016864,None,,,,,,,,,,,,,,104,2023-03-29_13h30.11.345,Main,2022.1.1,59.754433175850465,
negative,positive,1,j,l,,,,,,,,,8,15,159,6,,,,,,,,,main,2,2,1,positive,negative,j,j,1,0.6148011998739094,441.76615320006385,442.77712400001474,442.7633363001514,None,441.76615320006385,None,441.76615320006385,None,441.76615320006385,None,443.3768180400133,None,443.3768180400133,None,443.3768180400133,None,,,,,,,,,,,,,,104,2023-03-29_13h30.11.345,Main,2022.1.1,59.754433175850465,
positive,negative,2,l,j,,,,,,,,,8,16,160,14,,,,,,,,,main,2,2,2,negative,positive,l,k,0,0.5323892999440432,443.3809062000364,444.3965672000777,444.37712720013224,None,443.3809062000364,None,443.3809062000364,None,443.3809062000364,None,444.9104117001407,None,444.9104117001407,None,444.9104117001407,None,,,,,,,,,,,,,,104,2023-03-29_13h30.11.345,Main,2022.1.1,59.754433175850465,
negative,negative,2,j,l,,,,,,,,,8,17,161,9,,,,,,,,,main,1,1,2,negative,negative,j,j,1,0.7174069001339376,445.911499600159,446.9103754002135,446.8965778001584,None,445.911499600159,None,445.911499600159,None,445.911499600159,None,447.6269834401086,None,447.6269834401086,None,447.6269834401086,None,,,,,,,,,,,,,,104,2023-03-29_13h30.11.345,Main,2022.1.1,59.754433175850465,
negative,neutral,2,j,l,,,,,,,,,9,0,162,12,,,,,,,,,main,1,1,2,neutral,negative,j,j,1,0.5981517999898642,447.6307342001237,448.6270077000372,448.6270077000372,None,447.6307342001237,None,447.6307342001237,None,447.6307342001237,None,449.22697394001295,None,449.22697394001295,None,449.22697394001295,None,,,,,,,,,,,,,,104,2023-03-29_13h30.11.345,Main,2022.1.1,59.754433175850465,
neutral,positive,1,k,k,,,,,,,,,9,1,163,4,,,,,,,,,main,2,2,1,positive,neutral,k,k,1,0.5820649000816047,449.2436490000691,450.2436473001726,450.22696650004946,None,449.2436490000691,None,449.2436490000691,None,449.2436490000691,None,450.8100346402265,None,450.8100346402265,None,450.8100346402265,None,,,,,,,,,,,,,,104,2023-03-29_13h30.11.345,Main,2022.1.1,59.754433175850465,
positive,positive,1,l,j,,,,,,,,,9,2,164,2,,,,,,,,,main,1,1,1,positive,positive,l,l,1,0.7322859999258071,450.8269699001685,451.8296257001348,451.8102789002005,None,450.8269699001685,None,450.8269699001685,None,450.8269699001685,None,452.5435697400011,None,452.5435697400011,None,452.5435697400011,None,,,,,,,,,,,,,,104,2023-03-29_13h30.11.345,Main,2022.1.1,59.754433175850465,
neutral,negative,2,k,k,,,,,,,,,9,3,165,16,,,,,,,,,main,2,2,2,negative,neutral,k,k,1,0.7806743001565337,452.5480476000812,453.5602341000922,453.5435778000392,None,452.5480476000812,None,452.5480476000812,None,452.5480476000812,None,454.3269003400113,None,454.3269003400113,None,454.3269003400113,None,,,,,,,,,,,,,,104,2023-03-29_13h30.11.345,Main,2022.1.1,59.754433175850465,
neutral,negative,1,k,k,,,,,,,,,9,4,166,7,,,,,,,,,main,1,1,1,negative,neutral,k,k,1,0.6328096999786794,454.330837600166,455.3461720000487,455.3268925000448,None,454.330837600166,None,454.330837600166,None,454.330837600166,None,455.96120304018257,None,455.96120304018257,None,455.96120304018257,None,,,,,,,,,,,,,,104,2023-03-29_13h30.11.345,Main,2022.1.1,59.754433175850465,
positive,neutral,2,l,j,,,,,,,,,9,5,167,17,,,,,,,,,main,1,1,2,neutral,positive,l,l,1,0.547426899895072,455.9675614000298,456.9768572000321,456.9631038000807,None,455.9675614000298,None,455.9675614000298,None,455.9675614000298,None,457.5101120400708,None,457.5101120400708,None,457.5101120400708,None,,,,,,,,,,,,,,104,2023-03-29_13h30.11.345,Main,2022.1.1,59.754433175850465,
negative,negative,2,j,l,,,,,,,,,9,6,168,9,,,,,,,,,main,1,1,2,negative,negative,j,j,1,1.2648377001751214,457.5157743000891,458.5268051000312,458.5101248000283,None,457.5157743000891,None,457.5157743000891,None,457.5157743000891,None,459.7767401401419,None,459.7767401401419,None,459.7767401401419,None,,,,,,,,,,,,,,104,2023-03-29_13h30.11.345,Main,2022.1.1,59.754433175850465,
negative,positive,1,j,l,,,,,,,,,9,7,169,6,,,,,,,,,main,2,2,1,positive,negative,j,j,1,0.6164162000641227,459.78052290016785,460.77677570004016,460.77677570004016,None,459.78052290016785,None,459.78052290016785,None,459.78052290016785,None,461.393384540081,None,461.393384540081,None,461.393384540081,None,,,,,,,,,,,,,,104,2023-03-29_13h30.11.345,Main,2022.1.1,59.754433175850465,
negative,neutral,1,j,l,,,,,,,,,9,8,170,3,,,,,,,,,main,1,1,1,neutral,negative,j,j,1,0.580836100038141,461.3979798001237,462.41282320022583,462.39626540010795,None,461.3979798001237,None,461.3979798001237,None,461.3979798001237,None,462.9771150400396,None,462.9771150400396,None,462.9771150400396,None,,,,,,,,,,,,,,104,2023-03-29_13h30.11.345,Main,2022.1.1,59.754433175850465,
positive,negative,1,l,j,,,,,,,,,9,9,171,5,,,,,,,,,main,2,2,1,negative,positive,l,l,1,0.751313499873504,462.99341970006935,463.993387500057,463.977003400214,None,462.99341970006935,None,462.99341970006935,None,462.99341970006935,None,464.72661774009464,None,464.72661774009464,None,464.72661774009464,None,,,,,,,,,,,,,,104,2023-03-29_13h30.11.345,Main,2022.1.1,59.754433175850465,
neutral,neutral,2,k,k,,,,,,,,,9,10,172,10,,,,,,,,,main,2,2,2,neutral,neutral,k,k,1,0.5117750999052078,464.7338812001981,465.74332190002315,465.7266516000964,None,464.7338812001981,None,464.7338812001981,None,464.7338812001981,None,466.24340604022143,None,466.24340604022143,None,466.24340604022143,None,,,,,,,,,,,,,,104,2023-03-29_13h30.11.345,Main,2022.1.1,59.754433175850465,
neutral,neutral,1,k,k,,,,,,,,,9,11,173,1,,,,,,,,,main,2,2,1,neutral,neutral,k,k,1,0.6149230001028627,466.2488966002129,467.2599471001886,467.2434325001668,None,466.2488966002129,None,466.2488966002129,None,466.2488966002129,None,467.8599260401446,None,467.8599260401446,None,467.8599260401446,None,,,,,,,,,,,,,,104,2023-03-29_13h30.11.345,Main,2022.1.1,59.754433175850465,
positive,positive,2,l,j,,,,,,,,,9,12,174,11,,,,,,,,,main,1,1,2,positive,positive,l,l,1,0.6151503999717534,467.8634880001191,468.859910500003,468.859910500003,None,467.8634880001191,None,467.8634880001191,None,467.8634880001191,None,469.47654114020986,None,469.47654114020986,None,469.47654114020986,None,,,,,,,,,,,,,,104,2023-03-29_13h30.11.345,Main,2022.1.1,59.754433175850465,
negative,positive,2,j,l,,,,,,,,,9,13,175,15,,,,,,,,,main,1,1,2,positive,negative,j,j,1,0.7825096000451595,469.47974090022035,470.49322310020216,470.476574000204,None,469.47974090022035,None,469.47974090022035,None,469.47974090022035,None,471.2598567401059,None,471.2598567401059,None,471.2598567401059,None,,,,,,,,,,,,,,104,2023-03-29_13h30.11.345,Main,2022.1.1,59.754433175850465,
negative,negative,1,j,l,,,,,,,,,9,14,176,0,,,,,,,,,main,2,2,1,negative,negative,j,j,1,1.147637699963525,471.26403010007925,472.27651680004783,472.25989410001785,None,471.26403010007925,None,471.26403010007925,None,471.26403010007925,None,473.4099091401789,None,473.4099091401789,None,473.4099091401789,None,,,,,,,,,,,,,,104,2023-03-29_13h30.11.345,Main,2022.1.1,59.754433175850465,
neutral,positive,2,k,k,,,,,,,,,9,15,177,13,,,,,,,,,main,1,1,2,positive,neutral,k,k,1,0.7148524997755885,473.4141166000627,474.4265670001041,474.4098234002013,None,473.4141166000627,None,473.4141166000627,None,473.4141166000627,None,475.12643393999895,None,475.12643393999895,None,475.12643393999895,None,,,,,,,,,,,,,,104,2023-03-29_13h30.11.345,Main,2022.1.1,59.754433175850465,
positive,neutral,1,l,j,,,,,,,,,9,16,178,8,,,,,,,,,main,1,1,1,neutral,positive,l,l,1,0.6152610999997705,475.14322000020184,476.1431264001876,476.1097773001529,None,475.14322000020184,None,475.14322000020184,None,475.14322000020184,None,476.74308314020743,None,476.74308314020743,None,476.74308314020743,None,,,,,,,,,,,,,,104,2023-03-29_13h30.11.345,Main,2022.1.1,59.754433175850465,
positive,negative,2,l,j,,,,,,,,,9,17,179,14,,,,,,,,,main,1,1,2,negative,positive,l,l,1,0.7649348999839276,476.7487864000723,477.759716300061,477.7430866002105,None,476.7487864000723,None,476.7487864000723,None,476.7487864000723,None,478.5096970401704,None,478.5096970401704,None,478.5096970401704,None,,,,,,,,,,,,,,104,2023-03-29_13h30.11.345,Main,2022.1.1,59.754433175850465,
neutral,neutral,2,k,k,,,,,,,,,10,0,180,10,,,,,,,,,main,1,1,2,neutral,neutral,k,k,1,0.6153947000857443,478.5131707000546,479.512618200155,479.512618200155,None,478.5131707000546,None,478.5131707000546,None,478.5131707000546,None,480.12637834004124,None,480.12637834004124,None,480.12637834004124,None,,,,,,,,,,,,,,104,2023-03-29_13h30.11.345,Main,2022.1.1,59.754433175850465,
positive,negative,2,l,j,,,,,,,,,10,1,181,14,,,,,,,,,main,1,1,2,negative,positive,l,l,1,0.6312716999091208,480.13008260005154,481.1457336000167,481.1263679000549,None,480.13008260005154,None,480.13008260005154,None,480.13008260005154,None,481.759379340196,None,481.759379340196,None,481.759379340196,None,,,,,,,,,,,,,,104,2023-03-29_13h30.11.345,Main,2022.1.1,59.754433175850465,
positive,neutral,1,l,j,,,,,,,,,10,2,182,8,,,,,,,,,main,1,1,1,neutral,positive,l,l,1,0.5987307000905275,481.76287910016254,482.7596529000439,482.7596529000439,None,481.76287910016254,None,481.76287910016254,None,481.76287910016254,None,483.3596365401521,None,483.3596365401521,None,483.3596365401521,None,,,,,,,,,,,,,,104,2023-03-29_13h30.11.345,Main,2022.1.1,59.754433175850465,
neutral,positive,2,k,k,,,,,,,,,10,3,183,13,,,,,,,,,main,2,2,2,positive,neutral,k,k,1,0.6312686000019312,483.3636129000224,484.3762882000301,484.3596320000943,None,483.3636129000224,None,483.3636129000224,None,483.3636129000224,None,484.9929023399949,None,484.9929023399949,None,484.9929023399949,None,,,,,,,,,,,,,,104,2023-03-29_13h30.11.345,Main,2022.1.1,59.754433175850465,
positive,positive,2,l,j,,,,,,,,,10,4,184,11,,,,,,,,,main,2,2,2,positive,positive,l,l,1,0.5821295001078397,484.9999036001973,486.00959900021553,485.99303080001846,None,484.9999036001973,None,484.9999036001973,None,484.9999036001973,None,486.5762150400318,None,486.5762150400318,None,486.5762150400318,None,,,,,,,,,,,,,,104,2023-03-29_13h30.11.345,Main,2022.1.1,59.754433175850465,
negative,positive,2,j,l,,,,,,,,,10,5,185,15,,,,,,,,,main,2,2,2,positive,negative,j,j,1,0.6313240001909435,486.58005550014786,487.59284960012883,487.57619859999977,None,486.58005550014786,None,486.58005550014786,None,486.58005550014786,None,488.2095015401486,None,488.2095015401486,None,488.2095015401486,None,,,,,,,,,,,,,,104,2023-03-29_13h30.11.345,Main,2022.1.1,59.754433175850465,
neutral,negative,2,k,k,,,,,,,,,10,6,186,16,,,,,,,,,main,1,1,2,negative,neutral,k,k,1,0.6651202000211924,488.2135564000346,489.2261842000298,489.2095155999996,None,488.2135564000346,None,488.2135564000346,None,488.2135564000346,None,489.87613514005204,None,489.87613514005204,None,489.87613514005204,None,,,,,,,,,,,,,,104,2023-03-29_13h30.11.345,Main,2022.1.1,59.754433175850465,
negative,negative,2,j,l,,,,,,,,,10,7,187,9,,,,,,,,,main,2,2,2,negative,negative,j,j,1,0.5658349001314491,489.8795585001353,490.89284320012666,490.8762518002186,None,489.8795585001353,None,489.8795585001353,None,489.8795585001353,None,491.44289374011566,None,491.44289374011566,None,491.44289374011566,None,,,,,,,,,,,,,,104,2023-03-29_13h30.11.345,Main,2022.1.1,59.754433175850465,
negative,positive,1,j,l,,,,,,,,,10,8,188,6,,,,,,,,,main,2,2,1,positive,negative,j,l,0,0.6479228001553565,491.4471413001884,492.4595187001396,492.4428764001932,None,491.4471413001884,None,491.4471413001884,None,491.4471413001884,None,493.09283330012113,None,493.09283330012113,None,493.09283330012113,None,,,,,,,,,,,,,,104,2023-03-29_13h30.11.345,Main,2022.1.1,59.754433175850465,
positive,negative,1,l,j,,,,,,,,,10,9,189,5,,,,,,,,,main,2,2,1,negative,positive,l,l,1,0.7010645000264049,494.0944996001199,495.1094886001665,495.07604010007344,None,494.0944996001199,None,494.0944996001199,None,494.0944996001199,None,495.79269724022595,None,495.79269724022595,None,495.79269724022595,None,,,,,,,,,,,,,,104,2023-03-29_13h30.11.345,Main,2022.1.1,59.754433175850465,
neutral,positive,1,k,k,,,,,,,,,10,10,190,4,,,,,,,,,main,2,2,1,positive,neutral,k,k,1,0.6314107000362128,495.79663480003364,496.8093528000172,496.79268330009654,None,495.79663480003364,None,495.79663480003364,None,495.79663480003364,None,497.4259819400962,None,497.4259819400962,None,497.4259819400962,None,,,,,,,,,,,,,,104,2023-03-29_13h30.11.345,Main,2022.1.1,59.754433175850465,
neutral,neutral,1,k,k,,,,,,,,,10,11,191,1,,,,,,,,,main,2,2,1,neutral,neutral,k,k,1,0.5981962000951171,497.4298441000283,498.4426586001646,498.4288438002113,None,497.4298441000283,None,497.4298441000283,None,497.4298441000283,None,499.0259418400004,None,499.0259418400004,None,499.0259418400004,None,,,,,,,,,,,,,,104,2023-03-29_13h30.11.345,Main,2022.1.1,59.754433175850465,
positive,positive,1,l,j,,,,,,,,,10,12,192,2,,,,,,,,,main,1,1,1,positive,positive,l,l,1,0.715307499980554,499.02924530021846,500.0426314000506,500.02874550013803,None,499.02924530021846,None,499.02924530021846,None,499.02924530021846,None,500.74268644009715,None,500.74268644009715,None,500.74268644009715,None,,,,,,,,,,,,,,104,2023-03-29_13h30.11.345,Main,2022.1.1,59.754433175850465,
negative,neutral,2,j,l,,,,,,,,,10,13,193,12,,,,,,,,,main,1,1,2,neutral,negative,j,j,1,0.6647964001167566,500.748151200125,501.7592554001603,501.74264900013804,None,500.748151200125,None,500.748151200125,None,500.748151200125,None,502.4092269401066,None,502.4092269401066,None,502.4092269401066,None,,,,,,,,,,,,,,104,2023-03-29_13h30.11.345,Main,2022.1.1,59.754433175850465,
neutral,negative,1,k,k,,,,,,,,,10,14,194,7,,,,,,,,,main,2,2,1,negative,neutral,k,k,1,0.8149233001749963,502.4131469000131,503.4258759000804,503.40931060002185,None,502.4131469000131,None,502.4131469000131,None,502.4131469000131,None,504.2258378400933,None,504.2258378400933,None,504.2258378400933,None,,,,,,,,,,,,,,104,2023-03-29_13h30.11.345,Main,2022.1.1,59.754433175850465,
positive,neutral,2,l,j,,,,,,,,,10,15,195,17,,,,,,,,,main,2,2,2,neutral,positive,l,l,1,0.8651513999793679,504.22997600003146,505.24252790003084,505.22586720017716,None,504.22997600003146,None,504.22997600003146,None,504.22997600003146,None,506.09248564005827,None,506.09248564005827,None,506.09248564005827,None,,,,,,,,,,,,,,104,2023-03-29_13h30.11.345,Main,2022.1.1,59.754433175850465,
negative,neutral,1,j,l,,,,,,,,,10,16,196,3,,,,,,,,,main,2,2,1,neutral,negative,j,j,1,0.931845200015232,506.0964371000882,507.10916820005514,507.09249410009943,None,506.0964371000882,None,506.0964371000882,None,506.0964371000882,None,508.0258767400868,None,508.0258767400868,None,508.0258767400868,None,,,,,,,,,,,,,,104,2023-03-29_13h30.11.345,Main,2022.1.1,59.754433175850465,
negative,negative,1,j,l,,,,,,,,,10,17,197,0,,,,,,,,,main,1,1,1,negative,negative,j,j,1,0.5816232000943273,508.0295690000057,509.04522300022654,509.0257964001503,None,508.0295690000057,None,508.0295690000057,None,508.0295690000057,None,509.60910814008673,None,509.60910814008673,None,509.60910814008673,None,,,,,,,,,,,,,,104,2023-03-29_13h30.11.345,Main,2022.1.1,59.754433175850465,
negative,positive,1,j,l,,,,,,,,,11,0,198,6,,,,,,,,,main,2,2,1,positive,negative,j,j,1,0.5315090999938548,509.61292720003985,510.62575430003926,510.6090840001125,None,509.61292720003985,None,509.61292720003985,None,509.61292720003985,None,511.1424141401425,None,511.1424141401425,None,511.1424141401425,None,,,,,,,,,,,,,,104,2023-03-29_13h30.11.345,Main,2022.1.1,59.754433175850465,
neutral,positive,1,k,k,,,,,,,,,11,1,199,4,,,,,,,,,main,2,2,1,positive,neutral,k,j,0,0.5651740999892354,511.14641890022904,512.1590559000615,512.1258161000442,None,511.14641890022904,None,511.14641890022904,None,511.14641890022904,None,512.709034900181,None,512.709034900181,None,512.709034900181,None,,,,,,,,,,,,,,104,2023-03-29_13h30.11.345,Main,2022.1.1,59.754433175850465,
negative,negative,2,j,l,,,,,,,,,11,2,200,9,,,,,,,,,main,2,2,2,negative,negative,j,j,1,0.7340337999630719,513.7102574000601,514.7258540000767,514.6923548001796,None,513.7102574000601,None,513.7102574000601,None,513.7102574000601,None,515.4422764401883,None,515.4422764401883,None,515.4422764401883,None,,,,,,,,,,,,,,104,2023-03-29_13h30.11.345,Main,2022.1.1,59.754433175850465,
neutral,neutral,1,k,k,,,,,,,,,11,3,201,1,,,,,,,,,main,2,2,1,neutral,neutral,k,k,1,0.5981876000296324,515.4460911001079,516.4589544001501,516.4423052000348,None,515.4460911001079,None,515.4460911001079,None,515.4460911001079,None,517.042374340212,None,517.042374340212,None,517.042374340212,None,,,,,,,,,,,,,,104,2023-03-29_13h30.11.345,Main,2022.1.1,59.754433175850465,
neutral,negative,2,k,k,,,,,,,,,11,4,202,16,,,,,,,,,main,2,2,2,negative,neutral,k,k,1,0.6483887999784201,517.0474291001447,518.0589132001624,518.0450119001325,None,517.0474291001447,None,517.0474291001447,None,517.0474291001447,None,518.6922196402214,None,518.6922196402214,None,518.6922196402214,None,,,,,,,,,,,,,,104,2023-03-29_13h30.11.345,Main,2022.1.1,59.754433175850465,
positive,negative,2,l,j,,,,,,,,,11,5,203,14,,,,,,,,,main,2,2,2,negative,positive,l,l,1,0.5818162001669407,518.695611000061,519.7088885002304,519.6922314001713,None,518.695611000061,None,518.695611000061,None,518.695611000061,None,520.2755112402141,None,520.2755112402141,None,520.2755112402141,None,,,,,,,,,,,,,,104,2023-03-29_13h30.11.345,Main,2022.1.1,59.754433175850465,
positive,negative,1,l,j,,,,,,,,,11,6,204,5,,,,,,,,,main,1,1,1,negative,positive,l,l,1,1.2165027000010014,520.2798579002265,521.2921870001592,521.2755550001748,None,520.2798579002265,None,520.2798579002265,None,520.2798579002265,None,522.4935521400533,None,522.4935521400533,None,522.4935521400533,None,,,,,,,,,,,,,,104,2023-03-29_13h30.11.345,Main,2022.1.1,59.754433175850465,
neutral,positive,2,k,k,,,,,,,,,11,7,205,13,,,,,,,,,main,2,2,2,positive,neutral,k,k,1,0.6673673000186682,522.499492800096,523.5088204001077,523.4921448000241,None,522.499492800096,None,522.499492800096,None,522.499492800096,None,524.1587790400721,None,524.1587790400721,None,524.1587790400721,None,,,,,,,,,,,,,,104,2023-03-29_13h30.11.345,Main,2022.1.1,59.754433175850465,
negative,negative,1,j,l,,,,,,,,,11,8,206,0,,,,,,,,,main,2,2,1,negative,negative,j,j,1,0.7788784999866039,524.1668078000657,525.1754546000157,525.1587868002243,None,524.1668078000657,None,524.1668078000657,None,524.1668078000657,None,525.9420832401141,None,525.9420832401141,None,525.9420832401141,None,,,,,,,,,,,,,,104,2023-03-29_13h30.11.345,Main,2022.1.1,59.754433175850465,
negative,neutral,1,j,l,,,,,,,,,11,9,207,3,,,,,,,,,main,2,2,1,neutral,negative,j,j,1,0.5973529000766575,525.948427000083,526.958844400011,526.9420813000761,None,525.948427000083,None,525.948427000083,None,525.948427000083,None,527.5420348400716,None,527.5420348400716,None,527.5420348400716,None,,,,,,,,,,,,,,104,2023-03-29_13h30.11.345,Main,2022.1.1,59.754433175850465,
negative,neutral,2,j,l,,,,,,,,,11,10,208,12,,,,,,,,,main,2,2,2,neutral,negative,j,j,1,0.7320369000080973,527.5454832001124,528.5587046002038,528.5420459001325,None,527.5454832001124,None,527.5454832001124,None,527.5454832001124,None,529.2753451399971,None,529.2753451399971,None,529.2753451399971,None,,,,,,,,,,,,,,104,2023-03-29_13h30.11.345,Main,2022.1.1,59.754433175850465,
neutral,negative,1,k,k,,,,,,,,,11,11,209,7,,,,,,,,,main,2,2,1,negative,neutral,k,k,1,0.7648884998634458,529.2792662000284,530.2920263002161,530.2753633002285,None,529.2792662000284,None,529.2792662000284,None,529.2792662000284,None,531.0419789399951,None,531.0419789399951,None,531.0419789399951,None,,,,,,,,,,,,,,104,2023-03-29_13h30.11.345,Main,2022.1.1,59.754433175850465,
positive,neutral,2,l,j,,,,,,,,,11,12,210,17,,,,,,,,,main,1,1,2,neutral,positive,l,l,1,0.6318755000829697,531.0454714000225,532.0586338001303,532.0419815001078,None,531.0454714000225,None,531.0454714000225,None,531.0454714000225,None,532.6752797401044,None,532.6752797401044,None,532.6752797401044,None,,,,,,,,,,,,,,104,2023-03-29_13h30.11.345,Main,2022.1.1,59.754433175850465,
neutral,neutral,2,k,k,,,,,,,,,11,13,211,10,,,,,,,,,main,2,2,2,neutral,neutral,k,k,1,0.5650603999383748,532.6795059000142,533.6919487002306,533.6752603000496,None,532.6795059000142,None,532.6795059000142,None,532.6795059000142,None,534.2419044401962,None,534.2419044401962,None,534.2419044401962,None,,,,,,,,,,,,,,104,2023-03-29_13h30.11.345,Main,2022.1.1,59.754433175850465,
positive,positive,1,l,j,,,,,,,,,11,14,212,2,,,,,,,,,main,1,1,1,positive,positive,l,l,1,0.6314891998190433,534.2457092001569,535.258572800085,535.2446824000217,None,534.2457092001569,None,534.2457092001569,None,534.2457092001569,None,535.8752916400321,None,535.8752916400321,None,535.8752916400321,None,,,,,,,,,,,,,,104,2023-03-29_13h30.11.345,Main,2022.1.1,59.754433175850465,
positive,neutral,1,l,j,,,,,,,,,11,15,213,8,,,,,,,,,main,1,1,1,neutral,positive,l,l,1,0.6484828998800367,535.8809411001857,536.8918623002246,536.8752021000255,None,535.8809411001857,None,535.8809411001857,None,535.8809411001857,None,537.5252137401607,None,537.5252137401607,None,537.5252137401607,None,,,,,,,,,,,,,,104,2023-03-29_13h30.11.345,Main,2022.1.1,59.754433175850465,
positive,positive,2,l,j,,,,,,,,,11,16,214,11,,,,,,,,,main,2,2,2,positive,positive,l,l,1,0.7140944998245686,537.5316972001456,538.5418415002059,538.5252674000803,None,537.5316972001456,None,537.5316972001456,None,537.5316972001456,None,539.2417948400602,None,539.2417948400602,None,539.2417948400602,None,,,,,,,,,,,,,,104,2023-03-29_13h30.11.345,Main,2022.1.1,59.754433175850465,
negative,positive,2,j,l,,,,,,,,,11,17,215,15,,,,,,,,,main,1,1,2,positive,negative,j,j,1,0.6485567002091557,539.2458486000542,540.2612083000131,540.2418232001364,None,539.2458486000542,None,539.2458486000542,None,539.2458486000542,None,540.8918489400297,None,540.8918489400297,None,540.8918489400297,None,,,,,,,,,,,,,,104,2023-03-29_13h30.11.345,Main,2022.1.1,59.754433175850465,
negative,positive,1,j,l,,,,,,,,,12,0,216,6,,,,,,,,,main,1,1,1,positive,negative,j,j,1,0.598728199955076,540.895398600027,541.9084406001493,541.8917786001693,None,540.895398600027,None,540.895398600027,None,540.895398600027,None,542.4918694401625,None,542.4918694401625,None,542.4918694401625,None,,,,,,,,,,,,,,104,2023-03-29_13h30.11.345,Main,2022.1.1,59.754433175850465,
negative,neutral,2,j,l,,,,,,,,,12,1,217,12,,,,,,,,,main,1,1,2,neutral,negative,j,j,1,0.480718000093475,542.4978025001474,543.5084119001403,543.4917360001709,None,542.4978025001474,None,542.4978025001474,None,542.4978025001474,None,543.9750212401617,None,543.9750212401617,None,543.9750212401617,None,,,,,,,,,,,,,,104,2023-03-29_13h30.11.345,Main,2022.1.1,59.754433175850465,
positive,neutral,2,l,j,,,,,,,,,12,2,218,17,,,,,,,,,main,1,1,2,neutral,positive,l,l,1,0.6814850000664592,543.9807276001666,544.9918581000529,544.975019400008,None,543.9807276001666,None,543.9807276001666,None,543.9807276001666,None,545.6583098402247,None,545.6583098402247,None,545.6583098402247,None,,,,,,,,,,,,,,104,2023-03-29_13h30.11.345,Main,2022.1.1,59.754433175850465,
negative,negative,2,j,l,,,,,,,,,12,3,219,9,,,,,,,,,main,2,2,2,negative,negative,j,j,1,0.9309487999416888,545.6623620002065,546.675003600074,546.6583419002127,None,545.6623620002065,None,545.6623620002065,None,545.6623620002065,None,547.591592040006,None,547.591592040006,None,547.591592040006,None,,,,,,,,,,,,,,104,2023-03-29_13h30.11.345,Main,2022.1.1,59.754433175850465,
positive,positive,2,l,j,,,,,,,,,12,4,220,11,,,,,,,,,main,1,1,2,positive,positive,l,l,1,0.6984780998900533,547.5948833001312,548.6083839000203,548.5916303000413,None,547.5948833001312,None,547.5948833001312,None,547.5948833001312,None,549.2915898401756,None,549.2915898401756,None,549.2915898401756,None,,,,,,,,,,,,,,104,2023-03-29_13h30.11.345,Main,2022.1.1,59.754433175850465,
neutral,negative,2,k,k,,,,,,,,,12,5,221,16,,,,,,,,,main,1,1,2,negative,neutral,k,k,1,0.6647927998565137,549.2951759002171,550.308250100119,550.2915958000813,None,549.2951759002171,None,549.2951759002171,None,549.2951759002171,None,550.9582403400913,None,550.9582403400913,None,550.9582403400913,None,,,,,,,,,,,,,,104,2023-03-29_13h30.11.345,Main,2022.1.1,59.754433175850465,
neutral,neutral,1,k,k,,,,,,,,,12,6,222,1,,,,,,,,,main,1,1,1,neutral,neutral,k,k,1,0.7152370000258088,550.9637376000173,551.9749838002026,551.9610565002076,None,550.9637376000173,None,550.9637376000173,None,550.9637376000173,None,552.6748499400913,None,552.6748499400913,None,552.6748499400913,None,,,,,,,,,,,,,,104,2023-03-29_13h30.11.345,Main,2022.1.1,59.754433175850465,
