target,distractor,set,ans1,ans2,rep_loop2.thisRepN,rep_loop2.thisTrialN,rep_loop2.thisN,rep_loop2.thisIndex,flanker_prac_loop.thisRepN,flanker_prac_loop.thisTrialN,flanker_prac_loop.thisN,flanker_prac_loop.thisIndex,flanker_main_loop.thisRepN,flanker_main_loop.thisTrialN,flanker_main_loop.thisN,flanker_main_loop.thisIndex,fl_inst_resp.keys,fl_inst_resp.rt,sound_1.started,sound_1.stopped,image_4.started,image_4.stopped,back_2.started,back_2.stopped,main_prac,fl_cold,fl_colt,fl_set,fl_dcond,fl_tcond,fl_ans,fl_res,fl_corr,fl_rt,fix_fl.started,fix_fl.stopped,targ.started,targ.stopped,j_button.started,j_button.stopped,k_button.started,k_button.stopped,l_button.started,l_button.stopped,j_button2.started,j_button2.stopped,k_button2.started,k_button2.stopped,l_button2.started,l_button2.stopped,mainback.started,mainback.stopped,key_resp.keys,key_resp.rt,mouse_6.x,mouse_6.y,mouse_6.leftButton,mouse_6.midButton,mouse_6.rightButton,mouse_6.started,mouse_6.stopped,text_2.started,text_2.stopped,id*,date,expName,psychopyVersion,frameRate,
,,,,,0,0,0,0,,,,,,,,,space,52.525671100011095,16.87342903998215,None,69.41938129998744,None,,,,,,,,,,,,,,,,,,,,,,,,,,,,,,,,,,,,,,,,,,105,2023-03-29_18h43.13.671,Main,2022.1.1,59.900218195911656,
neutral,neutral,1,k,k,,,,,0,0,0,1,,,,,,,,,,,73.88894509989768,None,prac,2,2,1,neutral,neutral,k,k,1,1.49407420004718,75.91099240002222,76.91956970002502,76.90282560000196,None,75.91099240002222,None,75.91099240002222,None,75.91099240002222,None,78.40278633988927,None,78.40278633988927,None,78.40278633988927,None,,,,,,,,,,,,,,105,2023-03-29_18h43.13.671,Main,2022.1.1,59.900218195911656,
neutral,positive,2,k,k,,,,,0,1,1,13,,,,,,,,,,,,,prac,2,2,2,positive,neutral,k,k,1,1.2314875000156462,78.408796899952,79.41955049987882,79.40563479997218,None,78.408796899952,None,78.408796899952,None,78.408796899952,None,80.63608503995928,None,80.63608503995928,None,80.63608503995928,None,,,,,,,,,,,,,,105,2023-03-29_18h43.13.671,Main,2022.1.1,59.900218195911656,
negative,negative,1,j,l,,,,,0,2,2,0,,,,,,,,,,,,,prac,2,2,1,negative,negative,l,l,1,1.4653431000187993,80.64185020001605,81.65273380000144,81.6389482000377,None,80.64185020001605,None,80.64185020001605,None,80.64185020001605,None,83.10260154006536,None,83.10260154006536,None,83.10260154006536,None,,,,,,,,,,,,,,105,2023-03-29_18h43.13.671,Main,2022.1.1,59.900218195911656,
positive,positive,2,l,j,,,,,0,3,3,11,,,,,,,,,,,,,prac,2,2,2,positive,positive,j,j,1,0.9801682999823242,83.11020229989663,84.12208419991657,84.1027035000734,None,83.11020229989663,None,83.11020229989663,None,83.11020229989663,None,85.08599594004917,None,85.08599594004917,None,85.08599594004917,None,,,,,,,,,,,,,,105,2023-03-29_18h43.13.671,Main,2022.1.1,59.900218195911656,
negative,negative,2,j,l,,,,,0,4,4,9,,,,,,,,,,,,,prac,1,1,2,negative,negative,l,l,1,0.9311691001057625,85.10281579988077,86.10264789988287,86.08599729998969,None,85.10281579988077,None,85.10281579988077,None,85.10281579988077,None,87.01939314000774,None,87.01939314000774,None,87.01939314000774,None,,,,,,,,,,,,,,105,2023-03-29_18h43.13.671,Main,2022.1.1,59.900218195911656,
neutral,negative,1,k,k,,,,,0,5,5,7,,,,,,,,,,,,,prac,1,1,1,negative,neutral,k,k,1,0.8819597000256181,87.0225440999493,88.03595849988051,88.01927939988673,None,87.0225440999493,None,87.0225440999493,None,87.0225440999493,None,88.90257653992157,None,88.90257653992157,None,88.90257653992157,None,,,,,,,,,,,,,,105,2023-03-29_18h43.13.671,Main,2022.1.1,59.900218195911656,
positive,neutral,2,l,j,,,,,0,6,6,17,,,,,,,,,,,,,prac,1,1,2,neutral,positive,j,j,1,0.9150057998485863,88.90579549991526,89.91922839987092,89.90258520003408,None,88.90579549991526,None,88.90579549991526,None,88.90579549991526,None,90.8189928399166,None,90.8189928399166,None,90.8189928399166,None,,,,,,,,,,,,,,105,2023-03-29_18h43.13.671,Main,2022.1.1,59.900218195911656,
positive,positive,1,l,j,,,,,0,7,7,2,,,,,,,,,,,,,prac,1,1,1,positive,positive,j,j,1,0.9159506000578403,90.82550820009783,91.83585039991885,91.8220800999552,None,90.82550820009783,None,90.82550820009783,None,90.82550820009783,None,92.73582554005552,None,92.73582554005552,None,92.73582554005552,None,,,,,,,,,,,,,,105,2023-03-29_18h43.13.671,Main,2022.1.1,59.900218195911656,
positive,negative,2,l,j,,,,,0,8,8,14,,,,,,,,,,,,,prac,2,2,2,negative,positive,j,j,1,0.7150029998738319,92.74011539993808,93.75249250000343,93.73582320008427,None,92.74011539993808,None,92.74011539993808,None,92.74011539993808,None,94.45247363999951,None,94.45247363999951,None,94.45247363999951,None,,,,,,,,,,,,,,105,2023-03-29_18h43.13.671,Main,2022.1.1,59.900218195911656,
positive,negative,1,l,j,,,,,0,9,9,5,,,,,,,,,,,,,prac,2,2,1,negative,positive,j,j,1,0.732020900119096,94.45842180005275,95.46915069990791,95.45244499994442,None,94.45842180005275,None,94.45842180005275,None,94.45842180005275,None,96.18580343995708,None,96.18580343995708,None,96.18580343995708,None,,,,,,,,,,,,,,105,2023-03-29_18h43.13.671,Main,2022.1.1,59.900218195911656,
neutral,negative,2,k,k,,,,,0,10,10,16,,,,,,,,,,,,,prac,2,2,2,negative,neutral,k,k,1,0.6486903999466449,96.19187119998969,97.20516910008155,97.18577019986697,None,96.19187119998969,None,96.19187119998969,None,96.19187119998969,None,97.83573513992596,None,97.83573513992596,None,97.83573513992596,None,,,,,,,,,,,,,,105,2023-03-29_18h43.13.671,Main,2022.1.1,59.900218195911656,
neutral,neutral,2,k,k,,,,,0,11,11,10,,,,,,,,,,,,,prac,1,1,2,neutral,neutral,k,k,1,0.5820698000025004,97.84086739993654,98.85239879996516,98.83855520002544,None,97.84086739993654,None,97.84086739993654,None,97.84086739993654,None,99.41906633998732,None,99.41906633998732,None,99.41906633998732,None,,,,,,,,,,,,,,105,2023-03-29_18h43.13.671,Main,2022.1.1,59.900218195911656,
negative,positive,1,j,l,,,,,0,12,12,6,,,,,,,,,,,,,prac,2,2,1,positive,negative,l,l,1,0.9317450998350978,99.4260589000769,100.43570280005224,100.4191153999418,None,99.4260589000769,None,99.4260589000769,None,99.4260589000769,None,101.35233684002887,None,101.35233684002887,None,101.35233684002887,None,,,,,,,,,,,,,,105,2023-03-29_18h43.13.671,Main,2022.1.1,59.900218195911656,
negative,positive,2,j,l,,,,,0,13,13,15,,,,,,,,,,,,,prac,1,1,2,positive,negative,l,l,1,0.698225500062108,101.35815880005248,102.36901560006663,102.35233330004849,None,101.35815880005248,None,101.35815880005248,None,101.35815880005248,None,103.05241594000253,None,103.05241594000253,None,103.05241594000253,None,,,,,,,,,,,,,,105,2023-03-29_18h43.13.671,Main,2022.1.1,59.900218195911656,
negative,neutral,2,j,l,,,,,0,14,14,12,,,,,,,,,,,,,prac,2,2,2,neutral,negative,l,l,1,0.6988212000578642,103.0553822000511,104.06897399993613,104.05228669987991,None,103.0553822000511,None,103.0553822000511,None,103.0553822000511,None,104.75226493997033,None,104.75226493997033,None,104.75226493997033,None,,,,,,,,,,,,,,105,2023-03-29_18h43.13.671,Main,2022.1.1,59.900218195911656,
positive,neutral,1,l,j,,,,,0,15,15,8,,,,,,,,,,,,,prac,2,2,1,neutral,positive,j,j,1,0.7984815998934209,104.75557549996302,105.76893029990606,105.75228910008445,None,104.75557549996302,None,104.75557549996302,None,104.75557549996302,None,106.55222544006537,None,106.55222544006537,None,106.55222544006537,None,,,,,,,,,,,,,,105,2023-03-29_18h43.13.671,Main,2022.1.1,59.900218195911656,
neutral,positive,1,k,k,,,,,0,16,16,4,,,,,,,,,,,,,prac,2,2,1,positive,neutral,k,k,1,0.7832170999608934,106.55619929987006,107.56899160007015,107.55224290001206,None,106.55619929987006,None,106.55619929987006,None,106.55619929987006,None,108.33654614004772,None,108.33654614004772,None,108.33654614004772,None,,,,,,,,,,,,,,105,2023-03-29_18h43.13.671,Main,2022.1.1,59.900218195911656,
negative,neutral,1,j,l,,,,,0,17,17,3,,,,,,,,,,,,,prac,2,2,1,neutral,negative,l,l,1,0.7807751998770982,108.34302660007961,109.352193800034,109.33535519987345,None,108.34302660007961,None,108.34302660007961,None,108.34302660007961,None,110.11857673993799,None,110.11857673993799,None,110.11857673993799,None,,,,,,,,,,,,,,105,2023-03-29_18h43.13.671,Main,2022.1.1,59.900218195911656,
negative,neutral,1,j,l,,,,,1,0,18,3,,,,,,,,,,,,,prac,2,2,1,neutral,negative,l,l,1,0.6490277000702918,110.12530519999564,111.13553599989973,111.12162599992007,None,110.12530519999564,None,110.12530519999564,None,110.12530519999564,None,111.768794739875,None,111.768794739875,None,111.768794739875,None,,,,,,,,,,,,,,105,2023-03-29_18h43.13.671,Main,2022.1.1,59.900218195911656,
positive,neutral,2,l,j,,,,,1,1,19,17,,,,,,,,,,,,,prac,2,2,2,neutral,positive,j,j,1,0.731241200119257,111.7731631998904,112.78544140001759,112.76882670004852,None,111.7731631998904,None,111.7731631998904,None,111.7731631998904,None,113.50208004007581,None,113.50208004007581,None,113.50208004007581,None,,,,,,,,,,,,,,105,2023-03-29_18h43.13.671,Main,2022.1.1,59.900218195911656,
positive,positive,2,l,j,,,,,1,2,20,11,,,,,,,,,,,,,prac,1,1,2,positive,positive,j,j,1,0.7487852999474853,113.5083663999103,114.51883030007593,114.50218340009451,None,113.5083663999103,None,113.5083663999103,None,113.5083663999103,None,115.25186644007917,None,115.25186644007917,None,115.25186644007917,None,,,,,,,,,,,,,,105,2023-03-29_18h43.13.671,Main,2022.1.1,59.900218195911656,
negative,neutral,2,j,l,,,,,1,3,21,12,,,,,,,,,,,,,prac,2,2,2,neutral,negative,l,l,1,0.797608100110665,115.25946399988607,116.26876590005122,116.25215220008977,None,115.25946399988607,None,115.25946399988607,None,115.25946399988607,None,117.05199754007626,None,117.05199754007626,None,117.05199754007626,None,,,,,,,,,,,,,,105,2023-03-29_18h43.13.671,Main,2022.1.1,59.900218195911656,
positive,neutral,1,l,j,,,,,1,4,22,8,,,,,,,,,,,,,prac,2,2,1,neutral,positive,j,j,1,0.7653061000164598,117.05526340007782,118.05201489990577,118.05201489990577,None,117.05526340007782,None,117.05526340007782,None,117.05526340007782,None,118.81867144003044,None,118.81867144003044,None,118.81867144003044,None,,,,,,,,,,,,,,105,2023-03-29_18h43.13.671,Main,2022.1.1,59.900218195911656,
negative,negative,1,j,l,,,,,1,5,23,0,,,,,,,,,,,,,prac,1,1,1,negative,negative,l,l,1,0.6988847001921386,118.82381409988739,119.83801009994932,119.8187418000307,None,118.82381409988739,None,118.82381409988739,None,118.82381409988739,None,120.5186289400095,None,120.5186289400095,None,120.5186289400095,None,,,,,,,,,,,,,,105,2023-03-29_18h43.13.671,Main,2022.1.1,59.900218195911656,
positive,negative,1,l,j,,,,,1,6,24,5,,,,,,,,,,,,,prac,1,1,1,negative,positive,j,j,1,0.7154151999857277,120.52188179991208,121.5352759999223,121.52141200006008,None,120.52188179991208,None,120.52188179991208,None,120.52188179991208,None,122.23525724003557,None,122.23525724003557,None,122.23525724003557,None,,,,,,,,,,,,,,105,2023-03-29_18h43.13.671,Main,2022.1.1,59.900218195911656,
neutral,neutral,1,k,k,,,,,1,7,25,1,,,,,,,,,,,,,prac,1,1,1,neutral,neutral,k,k,1,0.6319458000361919,122.24064119998366,123.25191170000471,123.23524220008403,None,122.24064119998366,None,122.24064119998366,None,122.24064119998366,None,123.86854224002454,None,123.86854224002454,None,123.86854224002454,None,,,,,,,,,,,,,,105,2023-03-29_18h43.13.671,Main,2022.1.1,59.900218195911656,
neutral,neutral,2,k,k,,,,,1,8,26,10,,,,,,,,,,,,,prac,2,2,2,neutral,neutral,k,k,1,0.5653681999538094,123.87459810008295,124.8852329000365,124.86866099992767,None,123.87459810008295,None,123.87459810008295,None,123.87459810008295,None,125.43520293992478,None,125.43520293992478,None,125.43520293992478,None,,,,,,,,,,,,,,105,2023-03-29_18h43.13.671,Main,2022.1.1,59.900218195911656,
neutral,positive,1,k,k,,,,,1,9,27,4,,,,,,,,,,,,,prac,2,2,1,positive,neutral,k,k,1,0.5154095001053065,125.44077109987848,126.45185009995475,126.43796669994481,None,125.44077109987848,None,125.44077109987848,None,125.44077109987848,None,126.95182023991364,None,126.95182023991364,None,126.95182023991364,None,,,,,,,,,,,,,,105,2023-03-29_18h43.13.671,Main,2022.1.1,59.900218195911656,
negative,negative,2,j,l,,,,,1,10,28,9,,,,,,,,,,,,,prac,1,1,2,negative,negative,l,l,1,0.6982877000700682,126.95487180002965,127.96847329987213,127.95181540003978,None,126.95487180002965,None,126.95487180002965,None,126.95487180002965,None,128.65156784004066,None,128.65156784004066,None,128.65156784004066,None,,,,,,,,,,,,,,105,2023-03-29_18h43.13.671,Main,2022.1.1,59.900218195911656,
positive,negative,2,l,j,,,,,1,11,29,14,,,,,,,,,,,,,prac,2,2,2,negative,positive,j,j,1,0.6663653999567032,128.6580268999096,129.66860669991001,129.65188620006666,None,128.6580268999096,None,128.6580268999096,None,128.6580268999096,None,130.3184164399514,None,130.3184164399514,None,130.3184164399514,None,,,,,,,,,,,,,,105,2023-03-29_18h43.13.671,Main,2022.1.1,59.900218195911656,
neutral,negative,2,k,k,,,,,1,12,30,16,,,,,,,,,,,,,prac,1,1,2,negative,neutral,k,k,1,0.6812393998261541,130.32450270000845,131.33507860009558,131.31841269996949,None,130.32450270000845,None,130.32450270000845,None,130.32450270000845,None,132.0018151400378,None,132.0018151400378,None,132.0018151400378,None,,,,,,,,,,,,,,105,2023-03-29_18h43.13.671,Main,2022.1.1,59.900218195911656,
neutral,positive,2,k,k,,,,,1,13,31,13,,,,,,,,,,,,,prac,2,2,2,positive,neutral,k,k,1,0.4986010999418795,132.00607730005868,133.01839139987715,133.00173930008896,None,132.00607730005868,None,132.00607730005868,None,132.00607730005868,None,133.50174204006325,None,133.50174204006325,None,133.50174204006325,None,,,,,,,,,,,,,,105,2023-03-29_18h43.13.671,Main,2022.1.1,59.900218195911656,
positive,positive,1,l,j,,,,,1,14,32,2,,,,,,,,,,,,,prac,1,1,1,positive,positive,j,j,1,0.6477340999990702,133.50751819997095,134.5183645999059,134.50175560009666,None,133.50751819997095,None,133.50751819997095,None,133.50751819997095,None,135.15165924003813,None,135.15165924003813,None,135.15165924003813,None,,,,,,,,,,,,,,105,2023-03-29_18h43.13.671,Main,2022.1.1,59.900218195911656,
negative,positive,1,j,l,,,,,1,15,33,6,,,,,,,,,,,,,prac,2,2,1,positive,negative,l,l,1,0.702880899887532,135.15686849993654,136.1683298998978,136.15168570005335,None,135.15686849993654,None,135.15686849993654,None,135.15686849993654,None,136.85180343992542,None,136.85180343992542,None,136.85180343992542,None,,,,,,,,,,,,,,105,2023-03-29_18h43.13.671,Main,2022.1.1,59.900218195911656,
negative,positive,2,j,l,,,,,1,16,34,15,,,,,,,,,,,,,prac,1,1,2,positive,negative,l,l,1,0.728170600021258,136.85872879996896,137.86831200006418,137.85162790003233,None,136.85872879996896,None,136.85872879996896,None,136.85872879996896,None,138.58508354008663,None,138.58508354008663,None,138.58508354008663,None,,,,,,,,,,,,,,105,2023-03-29_18h43.13.671,Main,2022.1.1,59.900218195911656,
neutral,negative,1,k,k,,,,,1,17,35,7,,,,,,,,,,,,,prac,1,1,1,negative,neutral,k,k,1,0.5484361997805536,138.59048140002415,139.60161649994552,139.58494149986655,None,138.59048140002415,None,138.59048140002415,None,138.59048140002415,None,140.13500883991364,None,140.13500883991364,None,140.13500883991364,None,,,,,,,,,,,,,,105,2023-03-29_18h43.13.671,Main,2022.1.1,59.900218195911656,
,,,,,,,,,,,,,,,,,,,,,,,,,,,,,,,,,,,,,,,,,,,,,,,,,,,140.13491460005753,None,space,4.257472800090909,,,,,,,,,,105,2023-03-29_18h43.13.671,Main,2022.1.1,59.900218195911656,
,,,,,,,,,,,,,,,,,,,,,,,,,,,,,,,,,,,,,,,,,,,,,,,,,,,,,,,0.2037037,-0.25555557,0,0,0,0.011039539938792586,None,,,105,2023-03-29_18h43.13.671,Main,2022.1.1,59.900218195911656,
negative,neutral,2,j,l,,,,,,,,,0,0,0,12,,,,,,,144.42090609995648,None,main,2,2,2,neutral,negative,l,l,1,0.7640639999881387,146.42563319997862,147.43476479989477,147.41811400000006,None,146.42563319997862,None,146.42563319997862,None,146.42563319997862,None,148.1876287400024,None,148.1876287400024,None,148.1876287400024,None,,,,,,,,,,,,,,105,2023-03-29_18h43.13.671,Main,2022.1.1,59.900218195911656,
neutral,positive,1,k,k,,,,,,,,,0,1,1,4,,,,,,,,,main,2,2,1,positive,neutral,k,k,1,0.5609753001481295,148.1920439999085,149.20149770006537,149.18477769987658,None,148.1920439999085,None,148.1920439999085,None,148.1920439999085,None,149.7513646399835,None,149.7513646399835,None,149.7513646399835,None,,,,,,,,,,,,,,105,2023-03-29_18h43.13.671,Main,2022.1.1,59.900218195911656,
positive,negative,2,l,j,,,,,,,,,0,2,2,14,,,,,,,,,main,2,2,2,negative,positive,j,j,1,0.7154955000150949,149.75696919998154,150.77084119990468,150.75422560004517,None,149.75696919998154,None,149.75696919998154,None,149.75696919998154,None,151.46802193999756,None,151.46802193999756,None,151.46802193999756,None,,,,,,,,,,,,,,105,2023-03-29_18h43.13.671,Main,2022.1.1,59.900218195911656,
negative,positive,2,j,l,,,,,,,,,0,3,3,15,,,,,,,,,main,2,2,2,positive,negative,l,l,1,0.6980097000487149,151.47197280009277,152.48467679996975,152.46799979987554,None,151.47197280009277,None,151.47197280009277,None,151.47197280009277,None,153.16796453997958,None,153.16796453997958,None,153.16796453997958,None,,,,,,,,,,,,,,105,2023-03-29_18h43.13.671,Main,2022.1.1,59.900218195911656,
neutral,negative,2,k,k,,,,,,,,,0,4,4,16,,,,,,,,,main,1,1,2,negative,neutral,k,k,1,0.6011045998893678,153.1733516000677,154.18462259997614,154.1707776999101,None,153.1733516000677,None,153.1733516000677,None,153.1733516000677,None,154.77063784005585,None,154.77063784005585,None,154.77063784005585,None,,,,,,,,,,,,,,105,2023-03-29_18h43.13.671,Main,2022.1.1,59.900218195911656,
positive,negative,1,l,j,,,,,,,,,0,5,5,5,,,,,,,,,main,2,2,1,negative,positive,j,j,1,0.6844605999067426,154.77547300001606,155.78460779995658,155.76793370000087,None,154.77547300001606,None,154.77547300001606,None,154.77547300001606,None,156.4568252400728,None,156.4568252400728,None,156.4568252400728,None,,,,,,,,,,,,,,105,2023-03-29_18h43.13.671,Main,2022.1.1,59.900218195911656,
positive,neutral,2,l,j,,,,,,,,,0,6,6,17,,,,,,,,,main,2,2,2,neutral,positive,j,j,1,0.7762267000507563,156.460828299867,157.46806650003418,157.45409650006332,None,156.460828299867,None,156.460828299867,None,156.460828299867,None,158.2345448399661,None,158.2345448399661,None,158.2345448399661,None,,,,,,,,,,,,,,105,2023-03-29_18h43.13.671,Main,2022.1.1,59.900218195911656,
positive,neutral,1,l,j,,,,,,,,,0,7,7,8,,,,,,,,,main,2,2,1,neutral,positive,j,j,1,0.6315979000646621,158.2405018999707,159.25128520000726,159.2374112000689,None,158.2405018999707,None,158.2405018999707,None,158.2405018999707,None,159.8678497399902,None,159.8678497399902,None,159.8678497399902,None,,,,,,,,,,,,,,105,2023-03-29_18h43.13.671,Main,2022.1.1,59.900218195911656,
negative,negative,2,j,l,,,,,,,,,0,8,8,9,,,,,,,,,main,1,1,2,negative,negative,l,l,1,0.6820198998320848,159.87335020001046,160.88450839999132,160.8678395000752,None,159.87335020001046,None,159.87335020001046,None,159.87335020001046,None,161.5511361400364,None,161.5511361400364,None,161.5511361400364,None,,,,,,,,,,,,,,105,2023-03-29_18h43.13.671,Main,2022.1.1,59.900218195911656,
positive,positive,2,l,j,,,,,,,,,0,9,9,11,,,,,,,,,main,2,2,2,positive,positive,j,j,1,0.6826524001080543,161.55721460003406,162.56780839990824,162.55113689997233,None,161.55721460003406,None,161.55721460003406,None,161.55721460003406,None,163.23446293992455,None,163.23446293992455,None,163.23446293992455,None,,,,,,,,,,,,,,105,2023-03-29_18h43.13.671,Main,2022.1.1,59.900218195911656,
negative,positive,1,j,l,,,,,,,,,0,10,10,6,,,,,,,,,main,1,1,1,positive,negative,l,l,1,0.7168590000364929,163.2411338998936,164.25110700004734,164.23720510001294,None,163.2411338998936,None,163.2411338998936,None,163.2411338998936,None,164.95389004007447,None,164.95389004007447,None,164.95389004007447,None,,,,,,,,,,,,,,105,2023-03-29_18h43.13.671,Main,2022.1.1,59.900218195911656,
positive,positive,1,l,j,,,,,,,,,0,11,11,2,,,,,,,,,main,2,2,1,positive,positive,j,j,1,0.6277614000719041,164.95890609989874,165.96773259993643,165.9510794999078,None,164.95890609989874,None,164.95890609989874,None,164.95890609989874,None,166.58436783987563,None,166.58436783987563,None,166.58436783987563,None,,,,,,,,,,,,,,105,2023-03-29_18h43.13.671,Main,2022.1.1,59.900218195911656,
negative,negative,1,j,l,,,,,,,,,0,12,12,0,,,,,,,,,main,2,2,1,negative,negative,l,l,1,0.7147913000080734,166.59008129988797,167.60107309999876,167.58437060005963,None,166.59008129988797,None,166.59008129988797,None,166.59008129988797,None,168.30075693994294,None,168.30075693994294,None,168.30075693994294,None,,,,,,,,,,,,,,105,2023-03-29_18h43.13.671,Main,2022.1.1,59.900218195911656,
neutral,neutral,1,k,k,,,,,,,,,0,13,13,1,,,,,,,,,main,1,1,1,neutral,neutral,k,k,1,0.6485436998773366,168.3071910000872,169.32035159994848,169.30377319990657,None,168.3071910000872,None,168.3071910000872,None,168.3071910000872,None,169.95099594003986,None,169.95099594003986,None,169.95099594003986,None,,,,,,,,,,,,,,105,2023-03-29_18h43.13.671,Main,2022.1.1,59.900218195911656,
neutral,neutral,2,k,k,,,,,,,,,0,14,14,10,,,,,,,,,main,1,1,2,neutral,neutral,k,k,1,0.6984101000707597,169.95477230008692,170.97047220007516,170.95100130001083,None,169.95477230008692,None,169.95477230008692,None,169.95477230008692,None,171.65094743997324,None,171.65094743997324,None,171.65094743997324,None,,,,,,,,,,,,,,105,2023-03-29_18h43.13.671,Main,2022.1.1,59.900218195911656,
neutral,negative,1,k,k,,,,,,,,,0,15,15,7,,,,,,,,,main,1,1,1,negative,neutral,k,k,1,0.5486232000403106,171.65446959994733,172.65094309998676,172.65094309998676,None,171.65446959994733,None,171.65446959994733,None,171.65446959994733,None,173.20100403998512,None,173.20100403998512,None,173.20100403998512,None,,,,,,,,,,,,,,105,2023-03-29_18h43.13.671,Main,2022.1.1,59.900218195911656,
negative,neutral,1,j,l,,,,,,,,,0,16,16,3,,,,,,,,,main,2,2,1,neutral,negative,l,l,1,0.7012070000637323,173.20463999989443,174.21757959993556,174.20371500006877,None,173.20463999989443,None,173.20463999989443,None,173.20463999989443,None,174.90370804003905,None,174.90370804003905,None,174.90370804003905,None,,,,,,,,,,,,,,105,2023-03-29_18h43.13.671,Main,2022.1.1,59.900218195911656,
neutral,positive,2,k,k,,,,,,,,,0,17,17,13,,,,,,,,,main,2,2,2,positive,neutral,k,k,1,0.6120299000758678,174.9072543999646,175.9175412999466,175.90088850003667,None,174.9072543999646,None,174.9072543999646,None,174.9072543999646,None,176.5175128400093,None,176.5175128400093,None,176.5175128400093,None,,,,,,,,,,,,,,105,2023-03-29_18h43.13.671,Main,2022.1.1,59.900218195911656,
positive,positive,2,l,j,,,,,,,,,1,0,18,11,,,,,,,,,main,2,2,2,positive,positive,j,j,1,0.6151258999016136,176.52188970008865,177.53417859994806,177.52028280007653,None,176.52188970008865,None,176.52188970008865,None,176.52188970008865,None,178.13422524000052,None,178.13422524000052,None,178.13422524000052,None,,,,,,,,,,,,,,105,2023-03-29_18h43.13.671,Main,2022.1.1,59.900218195911656,
neutral,positive,1,k,k,,,,,,,,,1,1,19,4,,,,,,,,,main,2,2,1,positive,neutral,k,k,1,0.7482573001179844,178.13806240004487,179.15081089991145,179.13413690007292,None,178.13806240004487,None,178.13806240004487,None,178.13806240004487,None,179.8841181399999,None,179.8841181399999,None,179.8841181399999,None,,,,,,,,,,,,,,105,2023-03-29_18h43.13.671,Main,2022.1.1,59.900218195911656,
negative,negative,1,j,l,,,,,,,,,1,2,20,0,,,,,,,,,main,2,2,1,negative,negative,l,l,1,0.7318257999140769,179.89000170002691,180.90077350009233,180.88410750008188,None,179.89000170002691,None,179.89000170002691,None,179.89000170002691,None,181.61739634003024,None,181.61739634003024,None,181.61739634003024,None,,,,,,,,,,,,,,105,2023-03-29_18h43.13.671,Main,2022.1.1,59.900218195911656,
positive,negative,2,l,j,,,,,,,,,1,3,21,14,,,,,,,,,main,2,2,2,negative,positive,j,j,1,0.6160894001368433,181.62331779999658,182.6340809999965,182.61740899994038,None,181.62331779999658,None,181.62331779999658,None,181.62331779999658,None,183.23413073995616,None,183.23413073995616,None,183.23413073995616,None,,,,,,,,,,,,,,105,2023-03-29_18h43.13.671,Main,2022.1.1,59.900218195911656,
neutral,neutral,2,k,k,,,,,,,,,1,4,22,10,,,,,,,,,main,2,2,2,neutral,neutral,k,k,1,0.6472348000388592,183.23876699991524,184.25068930000998,184.23417619988322,None,183.23876699991524,None,183.23876699991524,None,183.23876699991524,None,184.8840079398593,None,184.8840079398593,None,184.8840079398593,None,,,,,,,,,,,,,,105,2023-03-29_18h43.13.671,Main,2022.1.1,59.900218195911656,
negative,neutral,2,j,l,,,,,,,,,1,5,23,12,,,,,,,,,main,1,1,2,neutral,negative,l,l,1,0.6815721997991204,184.88981870003045,185.90065229986794,185.8837460000068,None,184.88981870003045,None,184.88981870003045,None,184.88981870003045,None,186.56731723996344,None,186.56731723996344,None,186.56731723996344,None,,,,,,,,,,,,,,105,2023-03-29_18h43.13.671,Main,2022.1.1,59.900218195911656,
neutral,negative,2,k,k,,,,,,,,,1,6,24,16,,,,,,,,,main,2,2,2,negative,neutral,k,k,1,0.5983146999496967,186.5840386999771,187.58680110005662,187.56731069996022,None,186.5840386999771,None,186.5840386999771,None,186.5840386999771,None,188.1672907399712,None,188.1672907399712,None,188.1672907399712,None,,,,,,,,,,,,,,105,2023-03-29_18h43.13.671,Main,2022.1.1,59.900218195911656,
neutral,negative,1,k,k,,,,,,,,,1,7,25,7,,,,,,,,,main,2,2,1,negative,neutral,k,k,1,0.5336490001063794,188.17152899992652,189.18396990001202,189.16726509993896,None,188.17152899992652,None,188.17152899992652,None,188.17152899992652,None,189.7033238399541,None,189.7033238399541,None,189.7033238399541,None,,,,,,,,,,,,,,105,2023-03-29_18h43.13.671,Main,2022.1.1,59.900218195911656,
positive,positive,1,l,j,,,,,,,,,1,8,26,2,,,,,,,,,main,2,2,1,positive,positive,j,j,1,0.6958566999528557,189.70737239997834,190.71723549999297,190.70335470000282,None,189.70737239997834,None,189.70737239997834,None,189.70737239997834,None,191.4005677399924,None,191.4005677399924,None,191.4005677399924,None,,,,,,,,,,,,,,105,2023-03-29_18h43.13.671,Main,2022.1.1,59.900218195911656,
positive,neutral,1,l,j,,,,,,,,,1,9,27,8,,,,,,,,,main,2,2,1,neutral,positive,j,j,1,0.6482629000674933,191.4062600999605,192.41721439990215,192.4005416999571,None,191.4062600999605,None,191.4062600999605,None,191.4062600999605,None,193.05050363999325,None,193.05050363999325,None,193.05050363999325,None,,,,,,,,,,,,,,105,2023-03-29_18h43.13.671,Main,2022.1.1,59.900218195911656,
negative,positive,2,j,l,,,,,,,,,1,10,28,15,,,,,,,,,main,1,1,2,positive,negative,l,l,1,0.6649501998908818,193.0564735000953,194.06726949987933,194.0533036000561,None,193.0564735000953,None,193.0564735000953,None,193.0564735000953,None,194.71714694008696,None,194.71714694008696,None,194.71714694008696,None,,,,,,,,,,,,,,105,2023-03-29_18h43.13.671,Main,2022.1.1,59.900218195911656,
negative,negative,2,j,l,,,,,,,,,1,11,29,9,,,,,,,,,main,2,2,2,negative,negative,l,l,1,0.6816577001009136,194.72067070007324,195.71714790002443,195.71714790002443,None,194.72067070007324,None,194.72067070007324,None,194.72067070007324,None,196.40045794008765,None,196.40045794008765,None,196.40045794008765,None,,,,,,,,,,,,,,105,2023-03-29_18h43.13.671,Main,2022.1.1,59.900218195911656,
positive,neutral,2,l,j,,,,,,,,,1,12,30,17,,,,,,,,,main,2,2,2,neutral,positive,j,j,1,0.7817410998977721,196.40619629994035,197.41993639990687,197.40044929995202,None,196.40619629994035,None,196.40619629994035,None,196.40619629994035,None,198.18375903998967,None,198.18375903998967,None,198.18375903998967,None,,,,,,,,,,,,,,105,2023-03-29_18h43.13.671,Main,2022.1.1,59.900218195911656,
negative,positive,1,j,l,,,,,,,,,1,13,31,6,,,,,,,,,main,2,2,1,positive,negative,l,l,1,0.6986761998850852,198.18942869990133,199.2004162000958,199.18375289998949,None,198.18942869990133,None,198.18942869990133,None,198.18942869990133,None,199.88374244004953,None,199.88374244004953,None,199.88374244004953,None,,,,,,,,,,,,,,105,2023-03-29_18h43.13.671,Main,2022.1.1,59.900218195911656,
neutral,positive,2,k,k,,,,,,,,,1,14,32,13,,,,,,,,,main,2,2,2,positive,neutral,k,k,1,0.5815152002032846,199.88765290006995,200.90305200009607,200.88370539993048,None,199.88765290006995,None,199.88765290006995,None,199.88765290006995,None,201.466994639975,None,201.466994639975,None,201.466994639975,None,,,,,,,,,,,,,,105,2023-03-29_18h43.13.671,Main,2022.1.1,59.900218195911656,
negative,neutral,1,j,l,,,,,,,,,1,15,33,3,,,,,,,,,main,2,2,1,neutral,negative,l,l,1,0.6151749999262393,201.47323950007558,202.48367600003257,202.46717830002308,None,201.47323950007558,None,201.47323950007558,None,201.47323950007558,None,203.08365444003138,None,203.08365444003138,None,203.08365444003138,None,,,,,,,,,,,,,,105,2023-03-29_18h43.13.671,Main,2022.1.1,59.900218195911656,
neutral,neutral,1,k,k,,,,,,,,,1,16,34,1,,,,,,,,,main,1,1,1,neutral,neutral,k,k,1,0.616142800077796,203.08734269998968,204.1003171999473,204.08644119999371,None,203.08734269998968,None,203.08734269998968,None,203.08734269998968,None,204.70029403993394,None,204.70029403993394,None,204.70029403993394,None,,,,,,,,,,,,,,105,2023-03-29_18h43.13.671,Main,2022.1.1,59.900218195911656,
positive,negative,1,l,j,,,,,,,,,1,17,35,5,,,,,,,,,main,2,2,1,negative,positive,j,j,1,0.5970551997888833,204.70653490000404,205.71972649986856,205.70029100007378,None,204.70653490000404,None,204.70653490000404,None,204.70653490000404,None,206.30025663997512,None,206.30025663997512,None,206.30025663997512,None,,,,,,,,,,,,,,105,2023-03-29_18h43.13.671,Main,2022.1.1,59.900218195911656,
neutral,negative,1,k,k,,,,,,,,,2,0,36,7,,,,,,,,,main,2,2,1,negative,neutral,k,k,1,0.6817117999307811,206.3039816999808,207.3169074000325,207.30028919992037,None,206.3039816999808,None,206.3039816999808,None,206.3039816999808,None,207.98354393991175,None,207.98354393991175,None,207.98354393991175,None,,,,,,,,,,,,,,105,2023-03-29_18h43.13.671,Main,2022.1.1,59.900218195911656,
positive,positive,1,l,j,,,,,,,,,2,1,37,2,,,,,,,,,main,2,2,1,positive,positive,j,j,1,0.6495391998905689,207.989249400096,209.00023170001805,208.98355860006995,None,207.989249400096,None,207.989249400096,None,207.989249400096,None,209.63351294004823,None,209.63351294004823,None,209.63351294004823,None,,,,,,,,,,,,,,105,2023-03-29_18h43.13.671,Main,2022.1.1,59.900218195911656,
positive,negative,1,l,j,,,,,,,,,2,2,38,5,,,,,,,,,main,2,2,1,negative,positive,j,j,1,0.5305584000889212,209.63808079995215,210.65013259998523,210.63640050007962,None,209.63808079995215,None,209.63808079995215,None,209.63808079995215,None,211.16693503994028,None,211.16693503994028,None,211.16693503994028,None,,,,,,,,,,,,,,105,2023-03-29_18h43.13.671,Main,2022.1.1,59.900218195911656,
negative,negative,2,j,l,,,,,,,,,2,3,39,9,,,,,,,,,main,2,2,2,negative,negative,l,l,1,0.6817996001336724,211.17058590007946,212.1669723999221,212.1669723999221,None,211.17058590007946,None,211.17058590007946,None,211.17058590007946,None,212.8501223400468,None,212.8501223400468,None,212.8501223400468,None,,,,,,,,,,,,,,105,2023-03-29_18h43.13.671,Main,2022.1.1,59.900218195911656,
negative,neutral,1,j,l,,,,,,,,,2,4,40,3,,,,,,,,,main,1,1,1,neutral,negative,l,l,1,0.5979975000955164,212.85398479993455,213.8667882999871,213.8501158999279,None,212.85398479993455,None,212.85398479993455,None,212.85398479993455,None,214.45009793995413,None,214.45009793995413,None,214.45009793995413,None,,,,,,,,,,,,,,105,2023-03-29_18h43.13.671,Main,2022.1.1,59.900218195911656,
neutral,negative,2,k,k,,,,,,,,,2,5,41,16,,,,,,,,,main,2,2,2,negative,neutral,k,k,1,0.6483600998762995,214.45353209995665,215.46675010002218,215.4501318000257,None,214.45353209995665,None,214.45353209995665,None,214.45353209995665,None,216.10006434007082,None,216.10006434007082,None,216.10006434007082,None,,,,,,,,,,,,,,105,2023-03-29_18h43.13.671,Main,2022.1.1,59.900218195911656,
negative,negative,1,j,l,,,,,,,,,2,6,42,0,,,,,,,,,main,2,2,1,negative,negative,l,l,1,0.7013005998451263,216.1059548999183,217.11674829991534,217.10016190004535,None,216.1059548999183,None,216.1059548999183,None,216.1059548999183,None,217.80287024008575,None,217.80287024008575,None,217.80287024008575,None,,,,,,,,,,,,,,105,2023-03-29_18h43.13.671,Main,2022.1.1,59.900218195911656,
negative,neutral,2,j,l,,,,,,,,,2,7,43,12,,,,,,,,,main,2,2,2,neutral,negative,l,l,1,0.6121256998740137,217.80742620001547,218.81951569998637,218.80282579991035,None,217.80742620001547,None,217.80742620001547,None,217.80742620001547,None,219.41665983994025,None,219.41665983994025,None,219.41665983994025,None,,,,,,,,,,,,,,105,2023-03-29_18h43.13.671,Main,2022.1.1,59.900218195911656,
negative,positive,1,j,l,,,,,,,,,2,8,44,6,,,,,,,,,main,1,1,1,positive,negative,l,l,1,0.6485510999336839,219.42264429992065,220.43599739996716,220.41671849996783,None,219.42264429992065,None,219.42264429992065,None,219.42264429992065,None,221.06676834009122,None,221.06676834009122,None,221.06676834009122,None,,,,,,,,,,,,,,105,2023-03-29_18h43.13.671,Main,2022.1.1,59.900218195911656,
neutral,positive,2,k,k,,,,,,,,,2,9,45,13,,,,,,,,,main,1,1,2,positive,neutral,k,k,1,0.5479932001326233,221.08340939995833,222.08329380000941,222.06663840007968,None,221.08340939995833,None,221.08340939995833,None,221.08340939995833,None,222.61676233985926,None,222.61676233985926,None,222.61676233985926,None,,,,,,,,,,,,,,105,2023-03-29_18h43.13.671,Main,2022.1.1,59.900218195911656,
neutral,neutral,2,k,k,,,,,,,,,2,10,46,10,,,,,,,,,main,2,2,2,neutral,neutral,k,k,1,0.5151537000201643,222.62212640000507,223.6360339000821,223.61658819997683,None,222.62212640000507,None,222.62212640000507,None,222.62212640000507,None,224.13324163996148,None,224.13324163996148,None,224.13324163996148,None,,,,,,,,,,,,,,105,2023-03-29_18h43.13.671,Main,2022.1.1,59.900218195911656,
positive,positive,2,l,j,,,,,,,,,2,11,47,11,,,,,,,,,main,2,2,2,positive,positive,j,j,1,0.6318227001465857,224.1396389999427,225.1499107000418,225.1332403998822,None,224.1396389999427,None,224.1396389999427,None,224.1396389999427,None,225.76652894008438,None,225.76652894008438,None,225.76652894008438,None,,,,,,,,,,,,,,105,2023-03-29_18h43.13.671,Main,2022.1.1,59.900218195911656,
neutral,positive,1,k,k,,,,,,,,,2,12,48,4,,,,,,,,,main,1,1,1,positive,neutral,k,k,1,0.6317865999881178,225.77232109988108,226.78321460005827,226.7665381000843,None,225.77232109988108,None,225.77232109988108,None,225.77232109988108,None,227.39982433991972,None,227.39982433991972,None,227.39982433991972,None,,,,,,,,,,,,,,105,2023-03-29_18h43.13.671,Main,2022.1.1,59.900218195911656,
positive,negative,2,l,j,,,,,,,,,2,13,49,14,,,,,,,,,main,1,1,2,negative,positive,j,j,1,0.6649249999318272,227.4034545000177,228.3999534000177,228.3999534000177,None,227.4034545000177,None,227.4034545000177,None,227.4034545000177,None,229.06645874006207,None,229.06645874006207,None,229.06645874006207,None,,,,,,,,,,,,,,105,2023-03-29_18h43.13.671,Main,2022.1.1,59.900218195911656,
positive,neutral,2,l,j,,,,,,,,,2,14,50,17,,,,,,,,,main,1,1,2,neutral,positive,j,j,1,0.581854399992153,229.0729115998838,230.0831327000633,230.06645949999802,None,229.0729115998838,None,229.0729115998838,None,229.0729115998838,None,230.64987543995957,None,230.64987543995957,None,230.64987543995957,None,,,,,,,,,,,,,,105,2023-03-29_18h43.13.671,Main,2022.1.1,59.900218195911656,
positive,neutral,1,l,j,,,,,,,,,2,15,51,8,,,,,,,,,main,1,1,1,neutral,positive,j,j,1,0.5813235000241548,230.65565999993123,231.6664253999479,231.6497654998675,None,230.65565999993123,None,230.65565999993123,None,230.65565999993123,None,232.23306943990755,None,232.23306943990755,None,232.23306943990755,None,,,,,,,,,,,,,,105,2023-03-29_18h43.13.671,Main,2022.1.1,59.900218195911656,
neutral,neutral,1,k,k,,,,,,,,,2,16,52,1,,,,,,,,,main,1,1,1,neutral,neutral,k,k,1,0.5653987999539822,232.23823869996704,233.2497338000685,233.23305659997277,None,232.23823869996704,None,232.23823869996704,None,232.23823869996704,None,233.799697039905,None,233.799697039905,None,233.799697039905,None,,,,,,,,,,,,,,105,2023-03-29_18h43.13.671,Main,2022.1.1,59.900218195911656,
negative,positive,2,j,l,,,,,,,,,2,17,53,15,,,,,,,,,main,2,2,2,positive,negative,l,l,1,0.6144578999374062,233.8036201999057,234.81636269995943,234.7997020999901,None,233.8036201999057,None,233.8036201999057,None,233.8036201999057,None,235.4160615399247,None,235.4160615399247,None,235.4160615399247,None,,,,,,,,,,,,,,105,2023-03-29_18h43.13.671,Main,2022.1.1,59.900218195911656,
negative,positive,1,j,l,,,,,,,,,3,0,54,6,,,,,,,,,main,1,1,1,positive,negative,l,l,1,0.6154582998715341,235.422612400027,236.43301609996706,236.4163758000359,None,235.422612400027,None,235.422612400027,None,235.422612400027,None,237.03295864004176,None,237.03295864004176,None,237.03295864004176,None,,,,,,,,,,,,,,105,2023-03-29_18h43.13.671,Main,2022.1.1,59.900218195911656,
positive,positive,1,l,j,,,,,,,,,3,1,55,2,,,,,,,,,main,2,2,1,positive,positive,j,j,1,0.6818205998279154,237.03858330007643,238.04963549994864,238.0329712999519,None,237.03858330007643,None,237.03858330007643,None,237.03858330007643,None,238.71631694005336,None,238.71631694005336,None,238.71631694005336,None,,,,,,,,,,,,,,105,2023-03-29_18h43.13.671,Main,2022.1.1,59.900218195911656,
negative,negative,2,j,l,,,,,,,,,3,2,56,9,,,,,,,,,main,2,2,2,negative,negative,l,l,1,0.6149299000389874,238.72184209991246,239.73565319995396,239.7191208000295,None,238.72184209991246,None,238.72184209991246,None,238.72184209991246,None,240.332740539941,None,240.332740539941,None,240.332740539941,None,,,,,,,,,,,,,,105,2023-03-29_18h43.13.671,Main,2022.1.1,59.900218195911656,
positive,positive,2,l,j,,,,,,,,,3,3,57,11,,,,,,,,,main,2,2,2,positive,positive,j,j,1,0.5661437001544982,240.33966360008344,241.3496125000529,241.33290489995852,None,240.33966360008344,None,240.33966360008344,None,240.33966360008344,None,241.89953574005048,None,241.89953574005048,None,241.89953574005048,None,,,,,,,,,,,,,,105,2023-03-29_18h43.13.671,Main,2022.1.1,59.900218195911656,
positive,negative,1,l,j,,,,,,,,,3,4,58,5,,,,,,,,,main,2,2,1,negative,positive,j,j,1,0.5307014998979867,241.9088731999509,242.9162041998934,242.89952300000004,None,241.9088731999509,None,241.9088731999509,None,241.9088731999509,None,243.43285613998304,None,243.43285613998304,None,243.43285613998304,None,,,,,,,,,,,,,,105,2023-03-29_18h43.13.671,Main,2022.1.1,59.900218195911656,
neutral,negative,2,k,k,,,,,,,,,3,5,59,16,,,,,,,,,main,1,1,2,negative,neutral,k,k,1,0.4984476000536233,243.43622919986956,244.44957130006514,244.43283730000257,None,243.43622919986956,None,243.43622919986956,None,243.43622919986956,None,244.93280914009082,None,244.93280914009082,None,244.93280914009082,None,,,,,,,,,,,,,,105,2023-03-29_18h43.13.671,Main,2022.1.1,59.900218195911656,
negative,neutral,1,j,l,,,,,,,,,3,6,60,3,,,,,,,,,main,2,2,1,neutral,negative,l,l,1,0.6651792998891324,244.9382784999907,245.95231599989347,245.93280619988218,None,244.9382784999907,None,244.9382784999907,None,244.9382784999907,None,246.599434640049,None,246.599434640049,None,246.599434640049,None,,,,,,,,,,,,,,105,2023-03-29_18h43.13.671,Main,2022.1.1,59.900218195911656,
neutral,positive,2,k,k,,,,,,,,,3,7,61,13,,,,,,,,,main,1,1,2,positive,neutral,k,k,1,0.6187085001729429,246.60298820002936,247.5994364998769,247.5994364998769,None,246.60298820002936,None,246.60298820002936,None,246.60298820002936,None,248.21595503997523,None,248.21595503997523,None,248.21595503997523,None,,,,,,,,,,,,,,105,2023-03-29_18h43.13.671,Main,2022.1.1,59.900218195911656,
neutral,positive,1,k,k,,,,,,,,,3,8,62,4,,,,,,,,,main,1,1,1,positive,neutral,k,k,1,0.5621456999797374,248.22301859990694,249.2327453000471,249.2161906999536,None,248.22301859990694,None,248.22301859990694,None,248.22301859990694,None,249.78272013997193,None,249.78272013997193,None,249.78272013997193,None,,,,,,,,,,,,,,105,2023-03-29_18h43.13.671,Main,2022.1.1,59.900218195911656,
neutral,neutral,1,k,k,,,,,,,,,3,9,63,1,,,,,,,,,main,2,2,1,neutral,neutral,k,k,1,0.564156100153923,249.78744679992087,250.80220899987034,250.78273089998402,None,249.78744679992087,None,249.78744679992087,None,249.78744679992087,None,251.34948294006753,None,251.34948294006753,None,251.34948294006753,None,,,,,,,,,,,,,,105,2023-03-29_18h43.13.671,Main,2022.1.1,59.900218195911656,
neutral,negative,1,k,k,,,,,,,,,3,10,64,7,,,,,,,,,main,1,1,1,negative,neutral,k,k,1,0.514718399848789,251.35523099987768,252.36601920006797,252.3493540000636,None,251.35523099987768,None,251.35523099987768,None,251.35523099987768,None,252.8659752400359,None,252.8659752400359,None,252.8659752400359,None,,,,,,,,,,,,,,105,2023-03-29_18h43.13.671,Main,2022.1.1,59.900218195911656,
negative,negative,1,j,l,,,,,,,,,3,11,65,0,,,,,,,,,main,1,1,1,negative,negative,l,l,1,0.6000251001678407,252.87121700006537,253.88265360007063,253.85216920007952,None,252.87121700006537,None,252.87121700006537,None,252.87121700006537,None,254.465958739887,None,254.465958739887,None,254.465958739887,None,,,,,,,,,,,,,,105,2023-03-29_18h43.13.671,Main,2022.1.1,59.900218195911656,
positive,neutral,1,l,j,,,,,,,,,3,12,66,8,,,,,,,,,main,2,2,1,neutral,positive,j,j,1,1.1468279999680817,254.47055800003,255.4827650000807,255.46592819993384,None,254.47055800003,None,254.47055800003,None,254.47055800003,None,256.6159194400767,None,256.6159194400767,None,256.6159194400767,None,,,,,,,,,,,,,,105,2023-03-29_18h43.13.671,Main,2022.1.1,59.900218195911656,
negative,neutral,2,j,l,,,,,,,,,3,13,67,12,,,,,,,,,main,2,2,2,neutral,negative,l,l,1,0.6152670001611114,256.6199924000539,257.63257919996977,257.61880180006847,None,256.6199924000539,None,256.6199924000539,None,256.6199924000539,None,258.2325664400356,None,258.2325664400356,None,258.2325664400356,None,,,,,,,,,,,,,,105,2023-03-29_18h43.13.671,Main,2022.1.1,59.900218195911656,
neutral,neutral,2,k,k,,,,,,,,,3,14,68,10,,,,,,,,,main,2,2,2,neutral,neutral,k,k,1,0.5987203000113368,258.2362365999725,259.2353662000969,259.2353662000969,None,258.2362365999725,None,258.2362365999725,None,258.2362365999725,None,259.8325199398911,None,259.8325199398911,None,259.8325199398911,None,,,,,,,,,,,,,,105,2023-03-29_18h43.13.671,Main,2022.1.1,59.900218195911656,
positive,neutral,2,l,j,,,,,,,,,3,15,69,17,,,,,,,,,main,1,1,2,neutral,positive,j,j,1,0.713571900036186,259.83916159998626,260.84918459993787,260.8325757998973,None,259.83916159998626,None,259.83916159998626,None,259.83916159998626,None,261.5491509400541,None,261.5491509400541,None,261.5491509400541,None,,,,,,,,,,,,,,105,2023-03-29_18h43.13.671,Main,2022.1.1,59.900218195911656,
negative,positive,2,j,l,,,,,,,,,3,16,70,15,,,,,,,,,main,2,2,2,positive,negative,l,l,1,0.6682176999747753,261.55336320004426,262.56582870008424,262.5491458000615,None,261.55336320004426,None,261.55336320004426,None,261.55336320004426,None,263.2186630398734,None,263.2186630398734,None,263.2186630398734,None,,,,,,,,,,,,,,105,2023-03-29_18h43.13.671,Main,2022.1.1,59.900218195911656,
positive,negative,2,l,j,,,,,,,,,3,17,71,14,,,,,,,,,main,2,2,2,negative,positive,j,j,1,0.6953641998115927,263.22187109990045,264.2324526999146,264.2157820998691,None,263.22187109990045,None,263.22187109990045,None,263.22187109990045,None,264.9158293400193,None,264.9158293400193,None,264.9158293400193,None,,,,,,,,,,,,,,105,2023-03-29_18h43.13.671,Main,2022.1.1,59.900218195911656,
neutral,neutral,1,k,k,,,,,,,,,4,0,72,1,,,,,,,,,main,1,1,1,neutral,neutral,k,k,1,0.5481736999936402,264.921335299965,265.93512300006114,265.9157344000414,None,264.921335299965,None,264.921335299965,None,264.921335299965,None,266.46571424000433,None,266.46571424000433,None,266.46571424000433,None,,,,,,,,,,,,,,105,2023-03-29_18h43.13.671,Main,2022.1.1,59.900218195911656,
neutral,negative,1,k,k,,,,,,,,,4,1,73,7,,,,,,,,,main,2,2,1,negative,neutral,k,k,1,0.5319626999553293,266.46966699999757,267.4823660000693,267.46569269988686,None,266.46966699999757,None,266.46966699999757,None,266.46966699999757,None,267.9990206400631,None,267.9990206400631,None,267.9990206400631,None,,,,,,,,,,,,,,105,2023-03-29_18h43.13.671,Main,2022.1.1,59.900218195911656,
neutral,positive,1,k,k,,,,,,,,,4,2,74,4,,,,,,,,,main,1,1,1,positive,neutral,k,k,1,0.5981284999288619,268.0029466000851,269.0156721000094,268.99900690000504,None,268.0029466000851,None,268.0029466000851,None,268.0029466000851,None,269.5989814400906,None,269.5989814400906,None,269.5989814400906,None,,,,,,,,,,,,,,105,2023-03-29_18h43.13.671,Main,2022.1.1,59.900218195911656,
positive,negative,2,l,j,,,,,,,,,4,3,75,14,,,,,,,,,main,2,2,2,negative,positive,j,j,1,0.6484813999850303,269.60244460008107,270.6184024999384,270.59897559997626,None,269.60244460008107,None,269.60244460008107,None,269.60244460008107,None,271.2490395400906,None,271.2490395400906,None,271.2490395400906,None,,,,,,,,,,,,,,105,2023-03-29_18h43.13.671,Main,2022.1.1,59.900218195911656,
negative,negative,2,j,l,,,,,,,,,4,4,76,9,,,,,,,,,main,1,1,2,negative,negative,l,l,1,0.598314099945128,271.2543834000826,272.265611999901,272.2489503000397,None,271.2543834000826,None,271.2543834000826,None,271.2543834000826,None,272.8489091398893,None,272.8489091398893,None,272.8489091398893,None,,,,,,,,,,,,,,105,2023-03-29_18h43.13.671,Main,2022.1.1,59.900218195911656,
positive,neutral,2,l,j,,,,,,,,,4,5,77,17,,,,,,,,,main,1,1,2,neutral,positive,j,j,1,0.7986514000222087,272.85414419998415,273.8655842000153,273.851697999984,None,272.85414419998415,None,272.85414419998415,None,272.85414419998415,None,274.6490081399912,None,274.6490081399912,None,274.6490081399912,None,,,,,,,,,,,,,,105,2023-03-29_18h43.13.671,Main,2022.1.1,59.900218195911656,
negative,negative,1,j,l,,,,,,,,,4,6,78,0,,,,,,,,,main,1,1,1,negative,negative,l,l,1,0.6147382999770343,274.6547562999185,275.6655451999977,275.64886429999024,None,274.6547562999185,None,274.6547562999185,None,274.6547562999185,None,276.265510039893,None,276.265510039893,None,276.265510039893,None,,,,,,,,,,,,,,105,2023-03-29_18h43.13.671,Main,2022.1.1,59.900218195911656,
neutral,positive,2,k,k,,,,,,,,,4,7,79,13,,,,,,,,,main,1,1,2,positive,neutral,k,k,1,0.5659437000285834,276.26902400003746,277.2821806999855,277.26552370004356,None,276.26902400003746,None,276.26902400003746,None,276.26902400003746,None,277.83225763987286,None,277.83225763987286,None,277.83225763987286,None,,,,,,,,,,,,,,105,2023-03-29_18h43.13.671,Main,2022.1.1,59.900218195911656,
positive,positive,1,l,j,,,,,,,,,4,8,80,2,,,,,,,,,main,2,2,1,positive,positive,j,j,1,0.5974135000724345,277.8425159000326,278.8488096999936,278.83213380002417,None,277.8425159000326,None,277.8425159000326,None,277.8425159000326,None,279.43214753994255,None,279.43214753994255,None,279.43214753994255,None,,,,,,,,,,,,,,105,2023-03-29_18h43.13.671,Main,2022.1.1,59.900218195911656,
negative,neutral,2,j,l,,,,,,,,,4,9,81,12,,,,,,,,,main,1,1,2,neutral,negative,l,l,1,0.5813751998357475,279.438035500003,280.44877799996175,280.43211729987524,None,279.438035500003,None,279.438035500003,None,279.438035500003,None,281.01546103998555,None,281.01546103998555,None,281.01546103998555,None,,,,,,,,,,,,,,105,2023-03-29_18h43.13.671,Main,2022.1.1,59.900218195911656,
neutral,neutral,2,k,k,,,,,,,,,4,10,82,10,,,,,,,,,main,2,2,2,neutral,neutral,k,k,1,0.5811746998224407,281.01951969997026,282.03207130008377,282.0182020000648,None,281.01951969997026,None,281.01951969997026,None,281.01951969997026,None,282.5987110398943,None,282.5987110398943,None,282.5987110398943,None,,,,,,,,,,,,,,105,2023-03-29_18h43.13.671,Main,2022.1.1,59.900218195911656,
negative,positive,2,j,l,,,,,,,,,4,11,83,15,,,,,,,,,main,1,1,2,positive,negative,l,l,1,0.6323442000430077,282.60445700003766,283.6180880998727,283.59870920004323,None,282.60445700003766,None,282.60445700003766,None,282.60445700003766,None,284.23188633986285,None,284.23188633986285,None,284.23188633986285,None,,,,,,,,,,,,,,105,2023-03-29_18h43.13.671,Main,2022.1.1,59.900218195911656,
neutral,negative,2,k,k,,,,,,,,,4,12,84,16,,,,,,,,,main,2,2,2,negative,neutral,k,k,1,0.6309533999301493,284.23900449997745,285.248708399944,285.23205329990014,None,284.23900449997745,None,284.23900449997745,None,284.23900449997745,None,285.86531623990743,None,285.86531623990743,None,285.86531623990743,None,,,,,,,,,,,,,,105,2023-03-29_18h43.13.671,Main,2022.1.1,59.900218195911656,
positive,neutral,1,l,j,,,,,,,,,4,13,85,8,,,,,,,,,main,1,1,1,neutral,positive,j,j,1,0.6482464999426156,285.86872499994934,286.88199170003645,286.86531680007465,None,285.86872499994934,None,285.86872499994934,None,285.86872499994934,None,287.51529594000897,None,287.51529594000897,None,287.51529594000897,None,,,,,,,,,,,,,,105,2023-03-29_18h43.13.671,Main,2022.1.1,59.900218195911656,
negative,neutral,1,j,l,,,,,,,,,4,14,86,3,,,,,,,,,main,1,1,1,neutral,negative,l,l,1,0.5816933999303728,287.52102890005335,288.53195540001616,288.5152996999677,None,287.52102890005335,None,287.52102890005335,None,287.52102890005335,None,289.09859194003513,None,289.09859194003513,None,289.09859194003513,None,,,,,,,,,,,,,,105,2023-03-29_18h43.13.671,Main,2022.1.1,59.900218195911656,
positive,positive,2,l,j,,,,,,,,,4,15,87,11,,,,,,,,,main,1,1,2,positive,positive,j,j,1,0.6652198999654502,289.1018028999679,290.1181552000344,290.09859519987367,None,289.1018028999679,None,289.1018028999679,None,289.1018028999679,None,290.7653204400791,None,290.7653204400791,None,290.7653204400791,None,,,,,,,,,,,,,,105,2023-03-29_18h43.13.671,Main,2022.1.1,59.900218195911656,
negative,positive,1,j,l,,,,,,,,,4,16,88,6,,,,,,,,,main,2,2,1,positive,negative,l,l,1,0.6484235001262277,290.770823800005,291.78188190003857,291.76802679989487,None,290.770823800005,None,290.770823800005,None,290.770823800005,None,292.41520284002183,None,292.41520284002183,None,292.41520284002183,None,,,,,,,,,,,,,,105,2023-03-29_18h43.13.671,Main,2022.1.1,59.900218195911656,
positive,negative,1,l,j,,,,,,,,,4,17,89,5,,,,,,,,,main,2,2,1,negative,positive,j,j,1,0.6154231999535114,292.43188160005957,293.43184780003503,293.4152701999992,None,292.43188160005957,None,292.43188160005957,None,292.43188160005957,None,294.0319906398887,None,294.0319906398887,None,294.0319906398887,None,,,,,,,,,,,,,,105,2023-03-29_18h43.13.671,Main,2022.1.1,59.900218195911656,
neutral,positive,1,k,k,,,,,,,,,5,0,90,4,,,,,,,,,main,2,2,1,positive,neutral,k,k,1,0.6149810999631882,294.0374004000332,295.0484869000502,295.0346911000088,None,294.0374004000332,None,294.0374004000332,None,294.0374004000332,None,295.6484524400672,None,295.6484524400672,None,295.6484524400672,None,,,,,,,,,,,,,,105,2023-03-29_18h43.13.671,Main,2022.1.1,59.900218195911656,
negative,negative,1,j,l,,,,,,,,,5,1,91,0,,,,,,,,,main,1,1,1,negative,negative,l,l,1,0.6492353000212461,295.6523372998927,296.66511019994505,296.6484423999209,None,295.6523372998927,None,295.6523372998927,None,295.6523372998927,None,297.29843684008813,None,297.29843684008813,None,297.29843684008813,None,,,,,,,,,,,,,,105,2023-03-29_18h43.13.671,Main,2022.1.1,59.900218195911656,
neutral,positive,2,k,k,,,,,,,,,5,2,92,13,,,,,,,,,main,1,1,2,positive,neutral,k,k,1,0.6307663000188768,297.3029849000741,298.3150947999675,298.30128429993056,None,297.3029849000741,None,297.3029849000741,None,297.3029849000741,None,298.93173574006653,None,298.93173574006653,None,298.93173574006653,None,,,,,,,,,,,,,,105,2023-03-29_18h43.13.671,Main,2022.1.1,59.900218195911656,
negative,neutral,1,j,l,,,,,,,,,5,3,93,3,,,,,,,,,main,2,2,1,neutral,negative,l,l,1,0.6650759000331163,298.93742750003,299.95105369994417,299.93172869994305,None,298.93742750003,None,298.93742750003,None,298.93742750003,None,300.59837503989695,None,300.59837503989695,None,300.59837503989695,None,,,,,,,,,,,,,,105,2023-03-29_18h43.13.671,Main,2022.1.1,59.900218195911656,
positive,neutral,2,l,j,,,,,,,,,5,4,94,17,,,,,,,,,main,2,2,2,neutral,positive,j,j,1,0.6817780002020299,300.6022808998823,301.6150307999924,301.5983484000899,None,300.6022808998823,None,300.6022808998823,None,300.6022808998823,None,302.28167384003757,None,302.28167384003757,None,302.28167384003757,None,,,,,,,,,,,,,,105,2023-03-29_18h43.13.671,Main,2022.1.1,59.900218195911656,
neutral,neutral,2,k,k,,,,,,,,,5,5,95,10,,,,,,,,,main,1,1,2,neutral,neutral,k,k,1,0.5646445001475513,302.28559860005043,303.2983253998682,303.2816550999414,None,302.28559860005043,None,302.28559860005043,None,302.28559860005043,None,303.84830213992393,None,303.84830213992393,None,303.84830213992393,None,,,,,,,,,,,,,,105,2023-03-29_18h43.13.671,Main,2022.1.1,59.900218195911656,
negative,negative,2,j,l,,,,,,,,,5,6,96,9,,,,,,,,,main,1,1,2,negative,negative,l,l,1,0.6164668998681009,303.8515653000213,304.8650378000457,304.84827190008946,None,303.8515653000213,None,303.8515653000213,None,303.8515653000213,None,305.4661872398807,None,305.4661872398807,None,305.4661872398807,None,,,,,,,,,,,,,,105,2023-03-29_18h43.13.671,Main,2022.1.1,59.900218195911656,
positive,positive,2,l,j,,,,,,,,,5,7,97,11,,,,,,,,,main,2,2,2,positive,positive,j,j,1,0.6300929000135511,305.47233740007505,306.4815946999006,306.4649362000637,None,305.47233740007505,None,305.47233740007505,None,305.47233740007505,None,307.09796084000266,None,307.09796084000266,None,307.09796084000266,None,,,,,,,,,,,,,,105,2023-03-29_18h43.13.671,Main,2022.1.1,59.900218195911656,
positive,neutral,1,l,j,,,,,,,,,5,8,98,8,,,,,,,,,main,1,1,1,neutral,positive,j,j,1,0.6485981000587344,307.1032932999078,308.11763260001317,308.09822529996745,None,307.1032932999078,None,307.1032932999078,None,307.1032932999078,None,308.7482036398957,None,308.7482036398957,None,308.7482036398957,None,,,,,,,,,,,,,,105,2023-03-29_18h43.13.671,Main,2022.1.1,59.900218195911656,
neutral,neutral,1,k,k,,,,,,,,,5,9,99,1,,,,,,,,,main,2,2,1,neutral,neutral,k,k,1,0.5817205000203103,308.7536345999688,309.7649602999445,309.7509415000677,None,308.7536345999688,None,308.7536345999688,None,308.7536345999688,None,310.33150683997667,None,310.33150683997667,None,310.33150683997667,None,,,,,,,,,,,,,,105,2023-03-29_18h43.13.671,Main,2022.1.1,59.900218195911656,
positive,negative,2,l,j,,,,,,,,,5,10,100,14,,,,,,,,,main,2,2,2,negative,positive,j,j,1,0.6483317001257092,310.33756159991026,311.3481840000022,311.3314851000905,None,310.33756159991026,None,310.33756159991026,None,310.33756159991026,None,311.98146773993506,None,311.98146773993506,None,311.98146773993506,None,,,,,,,,,,,,,,105,2023-03-29_18h43.13.671,Main,2022.1.1,59.900218195911656,
negative,positive,2,j,l,,,,,,,,,5,11,101,15,,,,,,,,,main,2,2,2,positive,negative,l,l,1,0.7321031999308616,311.9871557999868,312.9983149000909,312.98154340009205,None,311.9871557999868,None,311.9871557999868,None,311.9871557999868,None,313.71474524007647,None,313.71474524007647,None,313.71474524007647,None,,,,,,,,,,,,,,105,2023-03-29_18h43.13.671,Main,2022.1.1,59.900218195911656,
negative,positive,1,j,l,,,,,,,,,5,12,102,6,,,,,,,,,main,2,2,1,positive,negative,l,l,1,0.6178039000369608,313.7341668000445,314.74810440000147,314.71478069992736,None,313.7341668000445,None,313.7341668000445,None,313.7341668000445,None,315.33413683997935,None,315.33413683997935,None,315.33413683997935,None,,,,,,,,,,,,,,105,2023-03-29_18h43.13.671,Main,2022.1.1,59.900218195911656,
neutral,negative,2,k,k,,,,,,,,,5,13,103,16,,,,,,,,,main,1,1,2,negative,neutral,k,k,1,0.6620120001025498,315.3386564999819,316.3480579999741,316.3314660999458,None,315.3386564999819,None,315.3386564999819,None,315.3386564999819,None,316.99802554005294,None,316.99802554005294,None,316.99802554005294,None,,,,,,,,,,,,,,105,2023-03-29_18h43.13.671,Main,2022.1.1,59.900218195911656,
positive,negative,1,l,j,,,,,,,,,5,14,104,5,,,,,,,,,main,1,1,1,negative,positive,j,j,1,0.6152215001638979,317.00402099988423,318.01479359995574,317.9980345000513,None,317.00402099988423,None,317.00402099988423,None,317.00402099988423,None,318.61467683992817,None,318.61467683992817,None,318.61467683992817,None,,,,,,,,,,,,,,105,2023-03-29_18h43.13.671,Main,2022.1.1,59.900218195911656,
neutral,negative,1,k,k,,,,,,,,,5,15,105,7,,,,,,,,,main,2,2,1,negative,neutral,k,k,1,0.6328680999577045,318.6183209998999,319.63403149996884,319.61745660007,None,318.6183209998999,None,318.6183209998999,None,318.6183209998999,None,320.24796103991105,None,320.24796103991105,None,320.24796103991105,None,,,,,,,,,,,,,,105,2023-03-29_18h43.13.671,Main,2022.1.1,59.900218195911656,
positive,positive,1,l,j,,,,,,,,,5,16,106,2,,,,,,,,,main,1,1,1,positive,positive,j,j,1,0.6137745000887662,320.2525287999306,321.2646331000142,321.2507577999495,None,320.2525287999306,None,320.2525287999306,None,320.2525287999306,None,321.864592439984,None,321.864592439984,None,321.864592439984,None,,,,,,,,,,,,,,105,2023-03-29_18h43.13.671,Main,2022.1.1,59.900218195911656,
negative,neutral,2,j,l,,,,,,,,,5,17,107,12,,,,,,,,,main,1,1,2,neutral,negative,l,l,1,0.631872900063172,321.86809909995645,322.8646386999171,322.8646386999171,None,321.86809909995645,None,321.86809909995645,None,321.86809909995645,None,323.4981124398997,None,323.4981124398997,None,323.4981124398997,None,,,,,,,,,,,,,,105,2023-03-29_18h43.13.671,Main,2022.1.1,59.900218195911656,
neutral,positive,2,k,k,,,,,,,,,6,0,108,13,,,,,,,,,main,2,2,2,positive,neutral,k,k,1,0.6984554000664502,323.50191009999253,324.5145747999195,324.497908399906,None,323.50191009999253,None,323.50191009999253,None,323.50191009999253,None,325.1978851398686,None,325.1978851398686,None,325.1978851398686,None,,,,,,,,,,,,,,105,2023-03-29_18h43.13.671,Main,2022.1.1,59.900218195911656,
negative,negative,1,j,l,,,,,,,,,6,1,109,0,,,,,,,,,main,1,1,1,negative,negative,l,l,1,0.6314478998538107,325.2038151999004,326.21717630000785,326.1978599000722,None,325.2038151999004,None,325.2038151999004,None,325.2038151999004,None,326.83116843996106,None,326.83116843996106,None,326.83116843996106,None,,,,,,,,,,,,,,105,2023-03-29_18h43.13.671,Main,2022.1.1,59.900218195911656,
negative,neutral,2,j,l,,,,,,,,,6,2,110,12,,,,,,,,,main,2,2,2,neutral,negative,l,l,1,0.6984105000738055,326.8366258998867,327.8478188998997,327.83396279998124,None,326.8366258998867,None,326.8366258998867,None,326.8366258998867,None,328.5308993400773,None,328.5308993400773,None,328.5308993400773,None,,,,,,,,,,,,,,105,2023-03-29_18h43.13.671,Main,2022.1.1,59.900218195911656,
positive,positive,2,l,j,,,,,,,,,6,3,111,11,,,,,,,,,main,1,1,2,positive,positive,j,j,1,0.6152955999132246,328.53793870005757,329.5477984000463,329.5340142000932,None,328.53793870005757,None,328.53793870005757,None,328.53793870005757,None,330.1477790400619,None,330.1477790400619,None,330.1477790400619,None,,,,,,,,,,,,,,105,2023-03-29_18h43.13.671,Main,2022.1.1,59.900218195911656,
positive,neutral,2,l,j,,,,,,,,,6,4,112,17,,,,,,,,,main,2,2,2,neutral,positive,j,j,1,0.5316411999519914,330.1672056999523,331.1810848999303,331.14778120000847,None,330.1672056999523,None,330.1672056999523,None,330.1672056999523,None,331.68107904007195,None,331.68107904007195,None,331.68107904007195,None,,,,,,,,,,,,,,105,2023-03-29_18h43.13.671,Main,2022.1.1,59.900218195911656,
negative,negative,2,j,l,,,,,,,,,6,5,113,9,,,,,,,,,main,2,2,2,negative,negative,l,l,1,0.6148484998848289,331.68666619993746,332.6977323999163,332.681052000029,None,331.68666619993746,None,331.68666619993746,None,331.68666619993746,None,333.2976904399926,None,333.2976904399926,None,333.2976904399926,None,,,,,,,,,,,,,,105,2023-03-29_18h43.13.671,Main,2022.1.1,59.900218195911656,
negative,neutral,1,j,l,,,,,,,,,6,6,114,3,,,,,,,,,main,2,2,1,neutral,negative,l,l,1,0.6642587000969797,333.30193839990534,334.3143678000197,334.2977159000002,None,333.30193839990534,None,333.30193839990534,None,333.30193839990534,None,334.96433884000874,None,334.96433884000874,None,334.96433884000874,None,,,,,,,,,,,,,,105,2023-03-29_18h43.13.671,Main,2022.1.1,59.900218195911656,
neutral,neutral,2,k,k,,,,,,,,,6,7,115,10,,,,,,,,,main,1,1,2,neutral,neutral,k,k,1,0.6316966000013053,334.96780940005556,335.9643997999374,335.9643997999374,None,334.96780940005556,None,334.96780940005556,None,334.96780940005556,None,336.5976256400114,None,336.5976256400114,None,336.5976256400114,None,,,,,,,,,,,,,,105,2023-03-29_18h43.13.671,Main,2022.1.1,59.900218195911656,
positive,negative,2,l,j,,,,,,,,,6,8,116,14,,,,,,,,,main,1,1,2,negative,positive,j,j,1,0.5814658000599593,336.60112769994885,337.5977425999008,337.5977425999008,None,336.60112769994885,None,336.60112769994885,None,336.60112769994885,None,338.1809358399129,None,338.1809358399129,None,338.1809358399129,None,,,,,,,,,,,,,,105,2023-03-29_18h43.13.671,Main,2022.1.1,59.900218195911656,
negative,positive,1,j,l,,,,,,,,,6,9,117,6,,,,,,,,,main,1,1,1,positive,negative,l,l,1,0.5821277999784797,338.18461139989085,339.1976083999034,339.1643048999831,None,338.18461139989085,None,338.18461139989085,None,338.18461139989085,None,339.76423873987517,None,339.76423873987517,None,339.76423873987517,None,,,,,,,,,,,,,,105,2023-03-29_18h43.13.671,Main,2022.1.1,59.900218195911656,
neutral,neutral,1,k,k,,,,,,,,,6,10,118,1,,,,,,,,,main,1,1,1,neutral,neutral,k,k,1,0.6313203000463545,339.76810469990596,340.78088840004057,340.7670090000611,None,339.76810469990596,None,339.76810469990596,None,339.76810469990596,None,341.3975471400423,None,341.3975471400423,None,341.3975471400423,None,,,,,,,,,,,,,,105,2023-03-29_18h43.13.671,Main,2022.1.1,59.900218195911656,
negative,positive,2,j,l,,,,,,,,,6,11,119,15,,,,,,,,,main,1,1,2,positive,negative,l,l,1,0.5985020000953227,341.4017459999304,342.41421419987455,342.39755230001174,None,341.4017459999304,None,341.4017459999304,None,341.4017459999304,None,342.9975092399633,None,342.9975092399633,None,342.9975092399633,None,,,,,,,,,,,,,,105,2023-03-29_18h43.13.671,Main,2022.1.1,59.900218195911656,
positive,negative,1,l,j,,,,,,,,,6,12,120,5,,,,,,,,,main,2,2,1,negative,positive,j,j,1,0.6319519998505712,343.001105299918,344.0003899000585,344.0003899000585,None,343.001105299918,None,343.001105299918,None,343.001105299918,None,344.6308137399843,None,344.6308137399843,None,344.6308137399843,None,,,,,,,,,,,,,,105,2023-03-29_18h43.13.671,Main,2022.1.1,59.900218195911656,
neutral,negative,1,k,k,,,,,,,,,6,13,121,7,,,,,,,,,main,2,2,1,negative,neutral,k,k,1,0.5808671999257058,344.63737450004555,345.65019720001146,345.6337248000782,None,344.63737450004555,None,344.63737450004555,None,344.63737450004555,None,346.2141081399983,None,346.2141081399983,None,346.2141081399983,None,,,,,,,,,,,,,,105,2023-03-29_18h43.13.671,Main,2022.1.1,59.900218195911656,
neutral,negative,2,k,k,,,,,,,,,6,14,122,16,,,,,,,,,main,2,2,2,negative,neutral,k,k,1,0.5982496000360698,346.23087590001523,347.2307798000984,347.2168811999727,None,346.23087590001523,None,346.23087590001523,None,346.23087590001523,None,347.81409593999854,None,347.81409593999854,None,347.81409593999854,None,,,,,,,,,,,,,,105,2023-03-29_18h43.13.671,Main,2022.1.1,59.900218195911656,
neutral,positive,1,k,k,,,,,,,,,6,15,123,4,,,,,,,,,main,1,1,1,positive,neutral,k,k,1,0.4980148999020457,347.8207348000724,348.8334808999207,348.8140706999693,None,347.8207348000724,None,347.8207348000724,None,347.8207348000724,None,349.3140611399664,None,349.3140611399664,None,349.3140611399664,None,,,,,,,,,,,,,,105,2023-03-29_18h43.13.671,Main,2022.1.1,59.900218195911656,
positive,neutral,1,l,j,,,,,,,,,6,16,124,8,,,,,,,,,main,2,2,1,neutral,positive,j,j,1,0.6643377998843789,349.32029450009577,350.33341319998726,350.3140740999952,None,349.32029450009577,None,349.32029450009577,None,349.32029450009577,None,350.9806826398941,None,350.9806826398941,None,350.9806826398941,None,,,,,,,,,,,,,,105,2023-03-29_18h43.13.671,Main,2022.1.1,59.900218195911656,
positive,positive,1,l,j,,,,,,,,,6,17,125,2,,,,,,,,,main,2,2,1,positive,positive,j,j,1,0.48158020013943315,350.9863360999152,351.9973635999486,351.98066370002925,None,350.9863360999152,None,350.9863360999152,None,350.9863360999152,None,352.46400063999465,None,352.46400063999465,None,352.46400063999465,None,,,,,,,,,,,,,,105,2023-03-29_18h43.13.671,Main,2022.1.1,59.900218195911656,
negative,negative,2,j,l,,,,,,,,,7,0,126,9,,,,,,,,,main,2,2,2,negative,negative,l,l,1,0.5818574000149965,352.469594999915,353.4808247999754,353.45017539989203,None,352.469594999915,None,352.469594999915,None,352.469594999915,None,354.0472611398669,None,354.0472611398669,None,354.0472611398669,None,,,,,,,,,,,,,,105,2023-03-29_18h43.13.671,Main,2022.1.1,59.900218195911656,
neutral,neutral,1,k,k,,,,,,,,,7,1,127,1,,,,,,,,,main,1,1,1,neutral,neutral,k,k,1,0.5317466000560671,354.0527335999068,355.0639875999186,355.0474501999561,None,354.0527335999068,None,354.0527335999068,None,354.0527335999068,None,355.58061254003553,None,355.58061254003553,None,355.58061254003553,None,,,,,,,,,,,,,,105,2023-03-29_18h43.13.671,Main,2022.1.1,59.900218195911656,
positive,neutral,1,l,j,,,,,,,,,7,2,128,8,,,,,,,,,main,2,2,1,neutral,positive,j,j,1,0.665038299979642,355.5841089999303,356.5972269999329,356.58057469991036,None,355.5841089999303,None,355.5841089999303,None,355.5841089999303,None,357.24720274007416,None,357.24720274007416,None,357.24720274007416,None,,,,,,,,,,,,,,105,2023-03-29_18h43.13.671,Main,2022.1.1,59.900218195911656,
negative,negative,1,j,l,,,,,,,,,7,3,129,0,,,,,,,,,main,2,2,1,negative,negative,l,l,1,0.5982135001104325,357.25285749998875,358.26390230003744,358.2472059999127,None,357.25285749998875,None,357.25285749998875,None,357.25285749998875,None,358.84694043991624,None,358.84694043991624,None,358.84694043991624,None,,,,,,,,,,,,,,105,2023-03-29_18h43.13.671,Main,2022.1.1,59.900218195911656,
negative,neutral,2,j,l,,,,,,,,,7,4,130,12,,,,,,,,,main,1,1,2,neutral,negative,l,l,1,0.6153687001205981,358.8504599998705,359.84998230007477,359.84998230007477,None,358.8504599998705,None,358.8504599998705,None,358.8504599998705,None,360.4638229399221,None,360.4638229399221,None,360.4638229399221,None,,,,,,,,,,,,,,105,2023-03-29_18h43.13.671,Main,2022.1.1,59.900218195911656,
neutral,positive,2,k,k,,,,,,,,,7,5,131,13,,,,,,,,,main,2,2,2,positive,neutral,k,k,1,0.6981563000008464,360.469785900088,361.4804914998822,361.46382479998283,None,360.469785900088,None,360.469785900088,None,360.469785900088,None,362.1637706400594,None,362.1637706400594,None,362.1637706400594,None,,,,,,,,,,,,,,105,2023-03-29_18h43.13.671,Main,2022.1.1,59.900218195911656,
positive,positive,1,l,j,,,,,,,,,7,6,132,2,,,,,,,,,main,2,2,1,positive,positive,j,j,1,0.6482683999929577,362.16759940003976,363.18046539998613,363.1638724000659,None,362.16759940003976,None,362.16759940003976,None,362.16759940003976,None,363.81357683988756,None,363.81357683988756,None,363.81357683988756,None,,,,,,,,,,,,,,105,2023-03-29_18h43.13.671,Main,2022.1.1,59.900218195911656,
positive,neutral,2,l,j,,,,,,,,,7,7,133,17,,,,,,,,,main,2,2,2,neutral,positive,j,j,1,0.5985111000481993,363.8211356000975,364.83042289991863,364.8137666999828,None,363.8211356000975,None,363.8211356000975,None,363.8211356000975,None,365.41380663986786,None,365.41380663986786,None,365.41380663986786,None,,,,,,,,,,,,,,105,2023-03-29_18h43.13.671,Main,2022.1.1,59.900218195911656,
neutral,neutral,2,k,k,,,,,,,,,7,8,134,10,,,,,,,,,main,2,2,2,neutral,neutral,k,k,1,0.5985179000999779,365.4174740999006,366.43037840002216,366.41372519987635,None,365.4174740999006,None,365.4174740999006,None,365.4174740999006,None,367.01370874003044,None,367.01370874003044,None,367.01370874003044,None,,,,,,,,,,,,,,105,2023-03-29_18h43.13.671,Main,2022.1.1,59.900218195911656,
neutral,negative,2,k,k,,,,,,,,,7,9,135,16,,,,,,,,,main,2,2,2,negative,neutral,k,k,1,0.4980367000680417,367.0201727000531,368.03044110001065,368.01367980008945,None,367.0201727000531,None,367.0201727000531,None,367.0201727000531,None,368.5136722398689,None,368.5136722398689,None,368.5136722398689,None,,,,,,,,,,,,,,105,2023-03-29_18h43.13.671,Main,2022.1.1,59.900218195911656,
positive,positive,2,l,j,,,,,,,,,7,10,136,11,,,,,,,,,main,1,1,2,positive,positive,j,j,1,0.6307077999226749,368.51823389995843,369.53033740003593,369.5136617999524,None,368.51823389995843,None,368.51823389995843,None,368.51823389995843,None,370.14694313986695,None,370.14694313986695,None,370.14694313986695,None,,,,,,,,,,,,,,105,2023-03-29_18h43.13.671,Main,2022.1.1,59.900218195911656,
neutral,negative,1,k,k,,,,,,,,,7,11,137,7,,,,,,,,,main,2,2,1,negative,neutral,k,k,1,0.5651833000592887,370.1525038999971,371.1663510000799,371.14983220002614,None,370.1525038999971,None,370.1525038999971,None,370.1525038999971,None,371.7136025398737,None,371.7136025398737,None,371.7136025398737,None,,,,,,,,,,,,,,105,2023-03-29_18h43.13.671,Main,2022.1.1,59.900218195911656,
negative,positive,2,j,l,,,,,,,,,7,12,138,15,,,,,,,,,main,1,1,2,positive,negative,l,l,1,0.5142145999707282,371.71806159988046,372.7302530000452,372.7135999999009,None,371.71806159988046,None,371.71806159988046,None,371.71806159988046,None,373.23024993997535,None,373.23024993997535,None,373.23024993997535,None,,,,,,,,,,,,,,105,2023-03-29_18h43.13.671,Main,2022.1.1,59.900218195911656,
negative,neutral,1,j,l,,,,,,,,,7,13,139,3,,,,,,,,,main,2,2,1,neutral,negative,l,l,1,0.5150003999006003,373.233874599915,374.2468872999307,374.23023710004054,None,373.233874599915,None,373.233874599915,None,373.233874599915,None,374.74688224007843,None,374.74688224007843,None,374.74688224007843,None,,,,,,,,,,,,,,105,2023-03-29_18h43.13.671,Main,2022.1.1,59.900218195911656,
positive,negative,1,l,j,,,,,,,,,7,14,140,5,,,,,,,,,main,2,2,1,negative,positive,j,j,1,0.631751999957487,374.75059260008857,375.763546400005,375.7468735000584,None,374.75059260008857,None,374.75059260008857,None,374.75059260008857,None,376.3801858399762,None,376.3801858399762,None,376.3801858399762,None,,,,,,,,,,,,,,105,2023-03-29_18h43.13.671,Main,2022.1.1,59.900218195911656,
negative,positive,1,j,l,,,,,,,,,7,15,141,6,,,,,,,,,main,2,2,1,positive,negative,l,l,1,0.6485766000114381,376.3847453999333,377.39954290003516,377.38016739999875,None,376.3847453999333,None,376.3847453999333,None,376.3847453999333,None,378.0302730400814,None,378.0302730400814,None,378.0302730400814,None,,,,,,,,,,,,,,105,2023-03-29_18h43.13.671,Main,2022.1.1,59.900218195911656,
positive,negative,2,l,j,,,,,,,,,7,16,142,14,,,,,,,,,main,1,1,2,negative,positive,j,j,1,0.7312926000449806,378.03601839998737,379.0496052999515,379.0301351000089,None,378.03601839998737,None,378.03601839998737,None,378.03601839998737,None,379.7634392399574,None,379.7634392399574,None,379.7634392399574,None,,,,,,,,,,,,,,105,2023-03-29_18h43.13.671,Main,2022.1.1,59.900218195911656,
neutral,positive,1,k,k,,,,,,,,,7,17,143,4,,,,,,,,,main,2,2,1,positive,neutral,k,k,1,0.48190819984301925,379.7691846000962,380.7800819000695,380.76340529997833,None,379.7691846000962,None,379.7691846000962,None,379.7691846000962,None,381.2467498400016,None,381.2467498400016,None,381.2467498400016,None,,,,,,,,,,,,,,105,2023-03-29_18h43.13.671,Main,2022.1.1,59.900218195911656,
positive,positive,2,l,j,,,,,,,,,8,0,144,11,,,,,,,,,main,1,1,2,positive,positive,j,j,1,0.5482810998801142,381.25253210007213,382.2634087000042,382.249543099897,None,381.25253210007213,None,381.25253210007213,None,381.25253210007213,None,382.7967168400297,None,382.7967168400297,None,382.7967168400297,None,,,,,,,,,,,,,,105,2023-03-29_18h43.13.671,Main,2022.1.1,59.900218195911656,
neutral,positive,2,k,k,,,,,,,,,8,1,145,13,,,,,,,,,main,1,1,2,positive,neutral,k,k,1,0.5316934001166373,382.8030188998673,383.81337639992125,383.79670260008425,None,382.8030188998673,None,382.8030188998673,None,382.8030188998673,None,384.33002493998504,None,384.33002493998504,None,384.33002493998504,None,,,,,,,,,,,,,,105,2023-03-29_18h43.13.671,Main,2022.1.1,59.900218195911656,
positive,neutral,1,l,j,,,,,,,,,8,2,146,8,,,,,,,,,main,1,1,1,neutral,positive,j,j,1,0.5984275999944657,384.3357385999989,385.3495380000677,385.33000369998626,None,384.3357385999989,None,384.3357385999989,None,384.3357385999989,None,385.92998694002165,None,385.92998694002165,None,385.92998694002165,None,,,,,,,,,,,,,,105,2023-03-29_18h43.13.671,Main,2022.1.1,59.900218195911656,
neutral,neutral,1,k,k,,,,,,,,,8,3,147,1,,,,,,,,,main,2,2,1,neutral,neutral,k,k,1,0.5316544999368489,385.93559070001356,386.94668799987994,386.9299671999179,None,385.93559070001356,None,385.93559070001356,None,385.93559070001356,None,387.46343403987123,None,387.46343403987123,None,387.46343403987123,None,,,,,,,,,,,,,,105,2023-03-29_18h43.13.671,Main,2022.1.1,59.900218195911656,
positive,negative,2,l,j,,,,,,,,,8,4,148,14,,,,,,,,,main,2,2,2,negative,positive,j,j,1,0.6028732999693602,387.47009389987215,388.4799317000434,388.4633263000287,None,387.47009389987215,None,387.47009389987215,None,387.47009389987215,None,389.06787533990575,None,389.06787533990575,None,389.06787533990575,None,,,,,,,,,,,,,,105,2023-03-29_18h43.13.671,Main,2022.1.1,59.900218195911656,
positive,neutral,2,l,j,,,,,,,,,8,5,149,17,,,,,,,,,main,1,1,2,neutral,positive,j,j,1,0.6269008000381291,389.0710185000207,390.07988779991865,390.0660800000187,None,389.0710185000207,None,389.0710185000207,None,389.0710185000207,None,390.69653634007557,None,390.69653634007557,None,390.69653634007557,None,,,,,,,,,,,,,,105,2023-03-29_18h43.13.671,Main,2022.1.1,59.900218195911656,
neutral,negative,1,k,k,,,,,,,,,8,6,150,7,,,,,,,,,main,2,2,1,negative,neutral,k,k,1,0.6311574000865221,390.7008626998868,391.7132033999078,391.6993311000988,None,390.7008626998868,None,390.7008626998868,None,390.7008626998868,None,392.33001993994696,None,392.33001993994696,None,392.33001993994696,None,,,,,,,,,,,,,,105,2023-03-29_18h43.13.671,Main,2022.1.1,59.900218195911656,
neutral,positive,1,k,k,,,,,,,,,8,7,151,4,,,,,,,,,main,2,2,1,positive,neutral,k,k,1,0.5481555999722332,392.33350070007145,393.34649470006116,393.32982599991374,None,392.33350070007145,None,392.33350070007145,None,392.33350070007145,None,393.8798089400167,None,393.8798089400167,None,393.8798089400167,None,,,,,,,,,,,,,,105,2023-03-29_18h43.13.671,Main,2022.1.1,59.900218195911656,
negative,positive,1,j,l,,,,,,,,,8,8,152,6,,,,,,,,,main,2,2,1,positive,negative,l,l,1,0.6652971000876278,393.8859421000816,394.89648970006965,394.8798261999618,None,393.8859421000816,None,393.8859421000816,None,393.8859421000816,None,395.546464639972,None,395.546464639972,None,395.546464639972,None,,,,,,,,,,,,,,105,2023-03-29_18h43.13.671,Main,2022.1.1,59.900218195911656,
positive,negative,1,l,j,,,,,,,,,8,9,153,5,,,,,,,,,main,2,2,1,negative,positive,j,j,1,0.5660912001039833,395.5502396998927,396.5631365000736,396.5464500999078,None,395.5502396998927,None,395.5502396998927,None,395.5502396998927,None,397.1130938399816,None,397.1130938399816,None,397.1130938399816,None,,,,,,,,,,,,,,105,2023-03-29_18h43.13.671,Main,2022.1.1,59.900218195911656,
negative,neutral,2,j,l,,,,,,,,,8,10,154,12,,,,,,,,,main,2,2,2,neutral,negative,l,l,1,0.6805592000018805,397.11939659994096,398.1324670999311,398.11307600000873,None,397.11939659994096,None,397.11939659994096,None,397.11939659994096,None,398.7965008400148,None,398.7965008400148,None,398.7965008400148,None,,,,,,,,,,,,,,105,2023-03-29_18h43.13.671,Main,2022.1.1,59.900218195911656,
neutral,negative,2,k,k,,,,,,,,,8,11,155,16,,,,,,,,,main,2,2,2,negative,neutral,k,k,1,0.6150750999804586,398.80037879990414,399.81304499995895,399.79636680008844,None,398.80037879990414,None,398.80037879990414,None,398.80037879990414,None,400.41303173990457,None,400.41303173990457,None,400.41303173990457,None,,,,,,,,,,,,,,105,2023-03-29_18h43.13.671,Main,2022.1.1,59.900218195911656,
negative,positive,2,j,l,,,,,,,,,8,12,156,15,,,,,,,,,main,1,1,2,positive,negative,l,l,1,0.6986000000033528,400.418517800048,401.4296824999619,401.413020899985,None,400.418517800048,None,400.418517800048,None,400.418517800048,None,402.1129992399598,None,402.1129992399598,None,402.1129992399598,None,,,,,,,,,,,,,,105,2023-03-29_18h43.13.671,Main,2022.1.1,59.900218195911656,
neutral,neutral,2,k,k,,,,,,,,,8,13,157,10,,,,,,,,,main,1,1,2,neutral,neutral,k,k,1,0.6175999999977648,402.1188439000398,403.129635799909,403.113011599984,None,402.1188439000398,None,402.1188439000398,None,402.1188439000398,None,403.73250373990743,None,403.73250373990743,None,403.73250373990743,None,,,,,,,,,,,,,,105,2023-03-29_18h43.13.671,Main,2022.1.1,59.900218195911656,
negative,negative,2,j,l,,,,,,,,,8,14,158,9,,,,,,,,,main,2,2,2,negative,negative,l,l,1,0.6789067001082003,403.7364097998943,404.7462963000871,404.7296140999533,None,403.7364097998943,None,403.7364097998943,None,403.7364097998943,None,405.4129475399619,None,405.4129475399619,None,405.4129475399619,None,,,,,,,,,,,,,,105,2023-03-29_18h43.13.671,Main,2022.1.1,59.900218195911656,
negative,neutral,1,j,l,,,,,,,,,8,15,159,3,,,,,,,,,main,1,1,1,neutral,negative,l,l,1,0.6317499000579119,405.4162628999911,406.4295939998701,406.4129200000316,None,405.4162628999911,None,405.4162628999911,None,405.4162628999911,None,407.0462327399524,None,407.0462327399524,None,407.0462327399524,None,,,,,,,,,,,,,,105,2023-03-29_18h43.13.671,Main,2022.1.1,59.900218195911656,
positive,positive,1,l,j,,,,,,,,,8,16,160,2,,,,,,,,,main,2,2,1,positive,positive,j,j,1,0.6984232999384403,407.06565040000714,408.07964330003597,408.0462315999903,None,407.06565040000714,None,407.06565040000714,None,407.06565040000714,None,408.7463078398956,None,408.7463078398956,None,408.7463078398956,None,,,,,,,,,,,,,,105,2023-03-29_18h43.13.671,Main,2022.1.1,59.900218195911656,
negative,negative,1,j,l,,,,,,,,,8,17,161,0,,,,,,,,,main,1,1,1,negative,negative,l,l,1,0.59821129986085,408.7521112000104,409.7628532999661,409.7461894999724,None,408.7521112000104,None,408.7521112000104,None,408.7521112000104,None,410.34616473994686,None,410.34616473994686,None,410.34616473994686,None,,,,,,,,,,,,,,105,2023-03-29_18h43.13.671,Main,2022.1.1,59.900218195911656,
neutral,negative,2,k,k,,,,,,,,,9,0,162,16,,,,,,,,,main,2,2,2,negative,neutral,k,k,1,0.6317945998162031,410.34936890006065,411.36562979989685,411.3294822999742,None,410.34936890006065,None,410.34936890006065,None,410.34936890006065,None,411.97945743987805,None,411.97945743987805,None,411.97945743987805,None,,,,,,,,,,,,,,105,2023-03-29_18h43.13.671,Main,2022.1.1,59.900218195911656,
negative,negative,2,j,l,,,,,,,,,9,1,163,9,,,,,,,,,main,2,2,2,negative,negative,l,l,1,0.5819285998586565,411.9850013998803,412.9990351998713,412.98226489988156,None,411.9850013998803,None,411.9850013998803,None,411.9850013998803,None,413.562880839943,None,413.562880839943,None,413.562880839943,None,,,,,,,,,,,,,,105,2023-03-29_18h43.13.671,Main,2022.1.1,59.900218195911656,
positive,positive,2,l,j,,,,,,,,,9,2,164,11,,,,,,,,,main,1,1,2,positive,positive,j,j,1,0.5820969000924379,413.56618539988995,414.579423799878,414.56275879987516,None,413.56618539988995,None,413.56618539988995,None,413.56618539988995,None,415.1464923399268,None,415.1464923399268,None,415.1464923399268,None,,,,,,,,,,,,,,105,2023-03-29_18h43.13.671,Main,2022.1.1,59.900218195911656,
positive,negative,2,l,j,,,,,,,,,9,3,165,14,,,,,,,,,main,1,1,2,negative,positive,j,j,1,0.6477014999836683,415.16542249987833,416.17938730004244,416.14607000001706,None,415.16542249987833,None,415.16542249987833,None,415.16542249987833,None,416.7960380399833,None,416.7960380399833,None,416.7960380399833,None,,,,,,,,,,,,,,105,2023-03-29_18h43.13.671,Main,2022.1.1,59.900218195911656,
neutral,neutral,1,k,k,,,,,,,,,9,4,166,1,,,,,,,,,main,2,2,1,neutral,neutral,k,k,1,0.6987393999006599,416.8011179000605,417.8155640999321,417.79601099994034,None,416.8011179000605,None,416.8011179000605,None,416.8011179000605,None,418.49601433987266,None,418.49601433987266,None,418.49601433987266,None,,,,,,,,,,,,,,105,2023-03-29_18h43.13.671,Main,2022.1.1,59.900218195911656,
neutral,neutral,2,k,k,,,,,,,,,9,5,167,10,,,,,,,,,main,2,2,2,neutral,neutral,k,k,1,0.5315970999654382,418.4995977000799,419.51266140001826,419.49601879995316,None,418.4995977000799,None,418.4995977000799,None,418.4995977000799,None,420.02928684002256,None,420.02928684002256,None,420.02928684002256,None,,,,,,,,,,,,,,105,2023-03-29_18h43.13.671,Main,2022.1.1,59.900218195911656,
neutral,positive,2,k,k,,,,,,,,,9,6,168,13,,,,,,,,,main,1,1,2,positive,neutral,k,k,1,0.49840259994380176,420.03345660003833,421.0459684000816,421.0293121000286,None,420.03345660003833,None,420.03345660003833,None,420.03345660003833,None,421.529031639942,None,421.529031639942,None,421.529031639942,None,,,,,,,,,,,,,,105,2023-03-29_18h43.13.671,Main,2022.1.1,59.900218195911656,
neutral,positive,1,k,k,,,,,,,,,9,7,169,4,,,,,,,,,main,2,2,1,positive,neutral,k,k,1,0.49765329994261265,421.53334120009094,422.5486093000509,422.5292755998671,None,421.53334120009094,None,421.53334120009094,None,421.53334120009094,None,423.02925223999193,None,423.02925223999193,None,423.02925223999193,None,,,,,,,,,,,,,,105,2023-03-29_18h43.13.671,Main,2022.1.1,59.900218195911656,
negative,positive,2,j,l,,,,,,,,,9,8,170,15,,,,,,,,,main,2,2,2,positive,negative,l,l,1,0.6481701999437064,423.0331460998859,424.0458718999289,424.0292207999155,None,423.0331460998859,None,423.0331460998859,None,423.0331460998859,None,424.6791842400795,None,424.6791842400795,None,424.6791842400795,None,,,,,,,,,,,,,,105,2023-03-29_18h43.13.671,Main,2022.1.1,59.900218195911656,
neutral,negative,1,k,k,,,,,,,,,9,9,171,7,,,,,,,,,main,1,1,1,negative,neutral,k,k,1,0.5821310000028461,424.6852261000313,425.69601280009374,425.6791838000063,None,424.6852261000313,None,424.6852261000313,None,424.6852261000313,None,426.26263373999393,None,426.26263373999393,None,426.26263373999393,None,,,,,,,,,,,,,,105,2023-03-29_18h43.13.671,Main,2022.1.1,59.900218195911656,
negative,neutral,1,j,l,,,,,,,,,9,10,172,3,,,,,,,,,main,1,1,1,neutral,negative,l,l,1,0.56465999991633,426.2684207998682,427.2791738000233,427.26249679992907,None,426.2684207998682,None,426.2684207998682,None,426.2684207998682,None,427.82918154008223,None,427.82918154008223,None,427.82918154008223,None,,,,,,,,,,,,,,105,2023-03-29_18h43.13.671,Main,2022.1.1,59.900218195911656,
positive,neutral,1,l,j,,,,,,,,,9,11,173,8,,,,,,,,,main,1,1,1,neutral,positive,j,j,1,0.664915099972859,427.83450559992343,428.84855229989626,428.82913909992203,None,427.83450559992343,None,427.83450559992343,None,427.83450559992343,None,429.4957394399913,None,429.4957394399913,None,429.4957394399913,None,,,,,,,,,,,,,,105,2023-03-29_18h43.13.671,Main,2022.1.1,59.900218195911656,
positive,positive,1,l,j,,,,,,,,,9,12,174,2,,,,,,,,,main,2,2,1,positive,positive,j,j,1,0.44848750019446015,429.50167510006577,430.5124397999607,430.4985450000968,None,429.50167510006577,None,429.50167510006577,None,429.50167510006577,None,430.9458198400913,None,430.9458198400913,None,430.9458198400913,None,,,,,,,,,,,,,,105,2023-03-29_18h43.13.671,Main,2022.1.1,59.900218195911656,
negative,positive,1,j,l,,,,,,,,,9,13,175,6,,,,,,,,,main,1,1,1,positive,negative,l,l,1,0.6314447999466211,430.95175049989484,431.9624097000342,431.9458512000274,None,430.95175049989484,None,430.95175049989484,None,430.95175049989484,None,432.579047039873,None,432.579047039873,None,432.579047039873,None,,,,,,,,,,,,,,105,2023-03-29_18h43.13.671,Main,2022.1.1,59.900218195911656,
negative,neutral,2,j,l,,,,,,,,,9,14,176,12,,,,,,,,,main,1,1,2,neutral,negative,l,l,1,0.5154405999928713,432.5830627998803,433.5957273999229,433.5790500000585,None,432.5830627998803,None,432.5830627998803,None,432.5830627998803,None,434.0956719399197,None,434.0956719399197,None,434.0956719399197,None,,,,,,,,,,,,,,105,2023-03-29_18h43.13.671,Main,2022.1.1,59.900218195911656,
positive,neutral,2,l,j,,,,,,,,,9,15,177,17,,,,,,,,,main,2,2,2,neutral,positive,j,j,1,0.6483582998625934,434.10167409991845,435.11525829997845,435.09571260004304,None,434.10167409991845,None,434.10167409991845,None,434.10167409991845,None,435.745829739864,None,435.745829739864,None,435.745829739864,None,,,,,,,,,,,,,,105,2023-03-29_18h43.13.671,Main,2022.1.1,59.900218195911656,
negative,negative,1,j,l,,,,,,,,,9,16,178,0,,,,,,,,,main,2,2,1,negative,negative,l,l,1,0.7314589999150485,435.75154419988394,436.7623113999143,436.7456608999055,None,435.75154419988394,None,435.75154419988394,None,435.75154419988394,None,437.47895313987976,None,437.47895313987976,None,437.47895313987976,None,,,,,,,,,,,,,,105,2023-03-29_18h43.13.671,Main,2022.1.1,59.900218195911656,
positive,negative,1,l,j,,,,,,,,,9,17,179,5,,,,,,,,,main,2,2,1,negative,positive,j,j,1,0.6495288000442088,437.48302869987674,438.4956147999037,438.48181400005706,None,437.48302869987674,None,437.48302869987674,None,437.48302869987674,None,439.1289558399236,None,439.1289558399236,None,439.1289558399236,None,,,,,,,,,,,,,,105,2023-03-29_18h43.13.671,Main,2022.1.1,59.900218195911656,
negative,positive,2,j,l,,,,,,,,,10,0,180,15,,,,,,,,,main,1,1,2,positive,negative,l,l,1,0.5983692000154406,439.1332346999552,440.14558180002496,440.12890059989877,None,439.1332346999552,None,439.1332346999552,None,439.1332346999552,None,440.7288861400681,None,440.7288861400681,None,440.7288861400681,None,,,,,,,,,,,,,,105,2023-03-29_18h43.13.671,Main,2022.1.1,59.900218195911656,
neutral,positive,1,k,k,,,,,,,,,10,1,181,4,,,,,,,,,main,2,2,1,positive,neutral,k,k,1,0.63055370002985,440.73344350000843,441.7455917999614,441.73167299991474,None,440.73344350000843,None,440.73344350000843,None,440.73344350000843,None,442.3621798400069,None,442.3621798400069,None,442.3621798400069,None,,,,,,,,,,,,,,105,2023-03-29_18h43.13.671,Main,2022.1.1,59.900218195911656,
negative,negative,1,j,l,,,,,,,,,10,2,182,0,,,,,,,,,main,2,2,1,negative,negative,l,l,1,0.5984809000510722,442.3677612999454,443.3788521999959,443.36218210007064,None,442.3677612999454,None,442.3677612999454,None,442.3677612999454,None,443.96214473994917,None,443.96214473994917,None,443.96214473994917,None,,,,,,,,,,,,,,105,2023-03-29_18h43.13.671,Main,2022.1.1,59.900218195911656,
neutral,neutral,1,k,k,,,,,,,,,10,3,183,1,,,,,,,,,main,2,2,1,neutral,neutral,k,k,1,0.5314551999326795,443.96591629995964,444.9788136999123,444.96213970007375,None,443.96591629995964,None,443.96591629995964,None,443.96591629995964,None,445.49543613989374,None,445.49543613989374,None,445.49543613989374,None,,,,,,,,,,,,,,105,2023-03-29_18h43.13.671,Main,2022.1.1,59.900218195911656,
positive,positive,1,l,j,,,,,,,,,10,4,184,2,,,,,,,,,main,2,2,1,positive,positive,j,j,1,0.6150281000882387,445.50137389986776,446.5121130000334,446.49546019989066,None,445.50137389986776,None,445.50137389986776,None,445.50137389986776,None,447.11210203988014,None,447.11210203988014,None,447.11210203988014,None,,,,,,,,,,,,,,105,2023-03-29_18h43.13.671,Main,2022.1.1,59.900218195911656,
negative,positive,1,j,l,,,,,,,,,10,5,185,6,,,,,,,,,main,2,2,1,positive,negative,l,l,1,0.5644527000840753,447.11647349991836,448.1314505999908,448.11479860008694,None,447.11647349991836,None,447.11647349991836,None,447.11647349991836,None,448.6787304398837,None,448.6787304398837,None,448.6787304398837,None,,,,,,,,,,,,,,105,2023-03-29_18h43.13.671,Main,2022.1.1,59.900218195911656,
negative,negative,2,j,l,,,,,,,,,10,6,186,9,,,,,,,,,main,2,2,2,negative,negative,l,l,1,0.6817518000025302,448.68234790000133,449.69541969988495,449.6787221999839,None,448.68234790000133,None,448.68234790000133,None,448.68234790000133,None,450.36229094003795,None,450.36229094003795,None,450.36229094003795,None,,,,,,,,,,,,,,105,2023-03-29_18h43.13.671,Main,2022.1.1,59.900218195911656,
positive,negative,2,l,j,,,,,,,,,10,7,187,14,,,,,,,,,main,1,1,2,negative,positive,j,j,1,0.6147821000777185,450.36891700001433,451.3786806000862,451.3620543999132,None,450.36891700001433,None,450.36891700001433,None,450.36891700001433,None,451.9786479398841,None,451.9786479398841,None,451.9786479398841,None,,,,,,,,,,,,,,105,2023-03-29_18h43.13.671,Main,2022.1.1,59.900218195911656,
negative,neutral,2,j,l,,,,,,,,,10,8,188,12,,,,,,,,,main,2,2,2,neutral,negative,l,l,1,0.6143033998087049,451.9844313999638,452.995316100074,452.9786483000498,None,451.9844313999638,None,451.9844313999638,None,451.9844313999638,None,453.5952883400256,None,453.5952883400256,None,453.5952883400256,None,,,,,,,,,,,,,,105,2023-03-29_18h43.13.671,Main,2022.1.1,59.900218195911656,
neutral,negative,2,k,k,,,,,,,,,10,9,189,16,,,,,,,,,main,1,1,2,negative,neutral,k,k,1,0.6313300000037998,453.6009176999796,454.6119488000404,454.5980734000914,None,453.6009176999796,None,453.6009176999796,None,453.6009176999796,None,455.22859013990967,None,455.22859013990967,None,455.22859013990967,None,,,,,,,,,,,,,,105,2023-03-29_18h43.13.671,Main,2022.1.1,59.900218195911656,
positive,positive,2,l,j,,,,,,,,,10,10,190,11,,,,,,,,,main,2,2,2,positive,positive,j,j,1,0.6157990000210702,455.2347599999048,456.2452722999733,456.2286034999415,None,455.2347599999048,None,455.2347599999048,None,455.2347599999048,None,456.8453190399101,None,456.8453190399101,None,456.8453190399101,None,,,,,,,,,,,,,,105,2023-03-29_18h43.13.671,Main,2022.1.1,59.900218195911656,
negative,neutral,1,j,l,,,,,,,,,10,11,191,3,,,,,,,,,main,1,1,1,neutral,negative,l,l,1,0.6154527999460697,456.85110539989546,457.8618817999959,457.8479849998839,None,456.85110539989546,None,456.85110539989546,None,456.85110539989546,None,458.4616261399584,None,458.4616261399584,None,458.4616261399584,None,,,,,,,,,,,,,,105,2023-03-29_18h43.13.671,Main,2022.1.1,59.900218195911656,
neutral,negative,1,k,k,,,,,,,,,10,12,192,7,,,,,,,,,main,1,1,1,negative,neutral,k,k,1,0.5307948999106884,458.4691081000492,459.4785021999851,459.46182399988174,None,458.4691081000492,None,458.4691081000492,None,458.4691081000492,None,459.9951428398723,None,459.9951428398723,None,459.9951428398723,None,,,,,,,,,,,,,,105,2023-03-29_18h43.13.671,Main,2022.1.1,59.900218195911656,
positive,neutral,2,l,j,,,,,,,,,10,13,193,17,,,,,,,,,main,2,2,2,neutral,positive,j,j,1,0.6485625000204891,460.0006174999289,461.0118007999845,460.9951460000593,None,460.0006174999289,None,460.0006174999289,None,460.0006174999289,None,461.64518333997114,None,461.64518333997114,None,461.64518333997114,None,,,,,,,,,,,,,,105,2023-03-29_18h43.13.671,Main,2022.1.1,59.900218195911656,
neutral,neutral,2,k,k,,,,,,,,,10,14,194,10,,,,,,,,,main,2,2,2,neutral,neutral,k,k,1,0.5643709001597017,461.65105149988085,462.6617811000906,462.6451260999311,None,461.65105149988085,None,461.65105149988085,None,461.65105149988085,None,463.21176194006114,None,463.21176194006114,None,463.21176194006114,None,,,,,,,,,,,,,,105,2023-03-29_18h43.13.671,Main,2022.1.1,59.900218195911656,
positive,negative,1,l,j,,,,,,,,,10,15,195,5,,,,,,,,,main,1,1,1,negative,positive,j,j,1,0.6986690000630915,463.2150139999576,464.2284089999739,464.2117540000472,None,463.2150139999576,None,463.2150139999576,None,463.2150139999576,None,464.9117085400736,None,464.9117085400736,None,464.9117085400736,None,,,,,,,,,,,,,,105,2023-03-29_18h43.13.671,Main,2022.1.1,59.900218195911656,
positive,neutral,1,l,j,,,,,,,,,10,16,196,8,,,,,,,,,main,1,1,1,neutral,positive,j,j,1,0.6316287000663579,464.91558289993554,465.9283829999622,465.91452939994633,None,464.91558289993554,None,464.91558289993554,None,464.91558289993554,None,466.545026140078,None,466.545026140078,None,466.545026140078,None,,,,,,,,,,,,,,105,2023-03-29_18h43.13.671,Main,2022.1.1,59.900218195911656,
neutral,positive,2,k,k,,,,,,,,,10,17,197,13,,,,,,,,,main,2,2,2,positive,neutral,k,k,1,0.5985206998884678,466.55133239994757,467.56443689996377,467.54501669993624,None,466.55133239994757,None,466.55133239994757,None,466.55133239994757,None,468.1449847400887,None,468.1449847400887,None,468.1449847400887,None,,,,,,,,,,,,,,105,2023-03-29_18h43.13.671,Main,2022.1.1,59.900218195911656,
positive,negative,1,l,j,,,,,,,,,11,0,198,5,,,,,,,,,main,1,1,1,negative,positive,j,j,1,0.581584099913016,468.14873489993624,469.14500509994105,469.14500509994105,None,468.14873489993624,None,468.14873489993624,None,468.14873489993624,None,469.72829343986234,None,469.72829343986234,None,469.72829343986234,None,,,,,,,,,,,,,,105,2023-03-29_18h43.13.671,Main,2022.1.1,59.900218195911656,
neutral,neutral,1,k,k,,,,,,,,,11,1,199,1,,,,,,,,,main,2,2,1,neutral,neutral,k,k,1,0.5661518999841064,469.7334199999459,470.74777609994635,470.72828939999454,None,469.7334199999459,None,469.7334199999459,None,469.7334199999459,None,471.29596153998284,None,471.29596153998284,None,471.29596153998284,None,,,,,,,,,,,,,,105,2023-03-29_18h43.13.671,Main,2022.1.1,59.900218195911656,
positive,negative,2,l,j,,,,,,,,,11,2,200,14,,,,,,,,,main,1,1,2,negative,positive,j,j,1,0.5973978000693023,471.3020156000275,472.3117120999377,472.2977300998755,None,471.3020156000275,None,471.3020156000275,None,471.3020156000275,None,472.8948954399908,None,472.8948954399908,None,472.8948954399908,None,,,,,,,,,,,,,,105,2023-03-29_18h43.13.671,Main,2022.1.1,59.900218195911656,
positive,positive,1,l,j,,,,,,,,,11,3,201,2,,,,,,,,,main,1,1,1,positive,positive,j,j,1,0.615254299947992,472.9001809998881,473.91155009996146,473.8948774000164,None,472.9001809998881,None,472.9001809998881,None,472.9001809998881,None,474.51152213991156,None,474.51152213991156,None,474.51152213991156,None,,,,,,,,,,,,,,105,2023-03-29_18h43.13.671,Main,2022.1.1,59.900218195911656,
negative,positive,1,j,l,,,,,,,,,11,4,202,6,,,,,,,,,main,1,1,1,positive,negative,l,l,1,0.6482420000247657,474.5153630999848,475.5282381998841,475.51154029997997,None,474.5153630999848,None,474.5153630999848,None,474.5153630999848,None,476.16150893995075,None,476.16150893995075,None,476.16150893995075,None,,,,,,,,,,,,,,105,2023-03-29_18h43.13.671,Main,2022.1.1,59.900218195911656,
negative,positive,2,j,l,,,,,,,,,11,5,203,15,,,,,,,,,main,2,2,2,positive,negative,l,l,1,0.6986185999121517,476.1676290000323,477.178159999894,477.16150739998557,None,476.1676290000323,None,476.1676290000323,None,476.1676290000323,None,477.8616196399322,None,477.8616196399322,None,477.8616196399322,None,,,,,,,,,,,,,,105,2023-03-29_18h43.13.671,Main,2022.1.1,59.900218195911656,
neutral,negative,2,k,k,,,,,,,,,11,6,204,16,,,,,,,,,main,2,2,2,negative,neutral,k,k,1,0.48143129982054234,477.8651552000083,478.8781325998716,478.86145740002394,None,477.8651552000083,None,477.8651552000083,None,477.8651552000083,None,479.34477494007444,None,479.34477494007444,None,479.34477494007444,None,,,,,,,,,,,,,,105,2023-03-29_18h43.13.671,Main,2022.1.1,59.900218195911656,
neutral,neutral,2,k,k,,,,,,,,,11,7,205,10,,,,,,,,,main,1,1,2,neutral,neutral,k,k,1,0.48186369985342026,479.34891430009156,480.3614082999993,480.347719399957,None,479.34891430009156,None,479.34891430009156,None,479.34891430009156,None,480.82806484007745,None,480.82806484007745,None,480.82806484007745,None,,,,,,,,,,,,,,105,2023-03-29_18h43.13.671,Main,2022.1.1,59.900218195911656,
neutral,positive,1,k,k,,,,,,,,,11,8,206,4,,,,,,,,,main,2,2,1,positive,neutral,k,k,1,0.4319030998740345,480.83207560004666,481.84479869995266,481.82808950007893,None,480.83207560004666,None,480.83207560004666,None,480.83207560004666,None,482.2613728400553,None,482.2613728400553,None,482.2613728400553,None,,,,,,,,,,,,,,105,2023-03-29_18h43.13.671,Main,2022.1.1,59.900218195911656,
positive,neutral,2,l,j,,,,,,,,,11,9,207,17,,,,,,,,,main,1,1,2,neutral,positive,j,j,1,0.5324290001299232,482.2649298000615,483.2613697000779,483.2613697000779,None,482.2649298000615,None,482.2649298000615,None,482.2649298000615,None,483.7946935398737,None,483.7946935398737,None,483.7946935398737,None,,,,,,,,,,,,,,105,2023-03-29_18h43.13.671,Main,2022.1.1,59.900218195911656,
positive,neutral,1,l,j,,,,,,,,,11,10,208,8,,,,,,,,,main,2,2,1,neutral,positive,j,j,1,0.500302999978885,483.8008085000329,484.8113402000163,484.7975610999856,None,483.8008085000329,None,483.8008085000329,None,483.8008085000329,None,485.2973740399117,None,485.2973740399117,None,485.2973740399117,None,,,,,,,,,,,,,,105,2023-03-29_18h43.13.671,Main,2022.1.1,59.900218195911656,
negative,neutral,2,j,l,,,,,,,,,11,11,209,12,,,,,,,,,main,2,2,2,neutral,negative,l,l,1,0.5623904000967741,485.30223360005766,486.3114875999745,486.2946446998976,None,485.30223360005766,None,485.30223360005766,None,485.30223360005766,None,486.8612857400673,None,486.8612857400673,None,486.8612857400673,None,,,,,,,,,,,,,,105,2023-03-29_18h43.13.671,Main,2022.1.1,59.900218195911656,
negative,negative,2,j,l,,,,,,,,,11,12,210,9,,,,,,,,,main,2,2,2,negative,negative,l,l,1,0.4318483998067677,486.86679770005867,487.88063260004856,487.8612774000503,None,486.86679770005867,None,486.86679770005867,None,486.86679770005867,None,488.29466633989944,None,488.29466633989944,None,488.29466633989944,None,,,,,,,,,,,,,,105,2023-03-29_18h43.13.671,Main,2022.1.1,59.900218195911656,
neutral,negative,1,k,k,,,,,,,,,11,13,211,7,,,,,,,,,main,2,2,1,negative,neutral,k,k,1,0.5149126998148859,488.3004950999748,489.31140569993295,489.29466139990836,None,488.3004950999748,None,488.3004950999748,None,488.3004950999748,None,489.8113036400406,None,489.8113036400406,None,489.8113036400406,None,,,,,,,,,,,,,,105,2023-03-29_18h43.13.671,Main,2022.1.1,59.900218195911656,
neutral,positive,2,k,k,,,,,,,,,11,14,212,13,,,,,,,,,main,2,2,2,positive,neutral,k,k,1,0.5483356998302042,489.81684929993935,490.8278794998769,490.81122589996085,None,489.81684929993935,None,489.81684929993935,None,489.81684929993935,None,491.3611897400348,None,491.3611897400348,None,491.3611897400348,None,,,,,,,,,,,,,,105,2023-03-29_18h43.13.671,Main,2022.1.1,59.900218195911656,
negative,neutral,1,j,l,,,,,,,,,11,15,213,3,,,,,,,,,main,2,2,1,neutral,negative,l,k,0,0.43173800013028085,491.3667077999562,492.37785749998875,492.3445260999724,None,491.3667077999562,None,491.3667077999562,None,491.3667077999562,None,492.79451039992273,None,492.79451039992273,None,492.79451039992273,None,,,,,,,,,,,,,,105,2023-03-29_18h43.13.671,Main,2022.1.1,59.900218195911656,
positive,positive,2,l,j,,,,,,,,,11,16,214,11,,,,,,,,,main,2,2,2,positive,positive,j,j,1,0.6507997999433428,493.79678740003146,494.8111385998782,494.7778040000703,None,493.79678740003146,None,493.79678740003146,None,493.79678740003146,None,495.44443083999215,None,495.44443083999215,None,495.44443083999215,None,,,,,,,,,,,,,,105,2023-03-29_18h43.13.671,Main,2022.1.1,59.900218195911656,
negative,negative,1,j,l,,,,,,,,,11,17,215,0,,,,,,,,,main,2,2,1,negative,negative,l,l,1,0.5984676999505609,495.45031089987606,496.46383300004527,496.4444257998839,None,495.45031089987606,None,495.45031089987606,None,495.45031089987606,None,497.0444105400471,None,497.0444105400471,None,497.0444105400471,None,,,,,,,,,,,,,,105,2023-03-29_18h43.13.671,Main,2022.1.1,59.900218195911656,
negative,positive,2,j,l,,,,,,,,,12,0,216,15,,,,,,,,,main,2,2,2,positive,negative,l,l,1,0.631311499979347,497.0611725000199,498.0610893999692,498.04439470008947,None,497.0611725000199,None,497.0611725000199,None,497.0611725000199,None,498.67769954006656,None,498.67769954006656,None,498.67769954006656,None,,,,,,,,,,,,,,105,2023-03-29_18h43.13.671,Main,2022.1.1,59.900218195911656,
neutral,negative,2,k,k,,,,,,,,,12,1,217,16,,,,,,,,,main,2,2,2,negative,neutral,k,k,1,0.566454199841246,498.68104199995287,499.694378899876,499.6777824999299,None,498.68104199995287,None,498.68104199995287,None,498.68104199995287,None,500.2457024399424,None,500.2457024399424,None,500.2457024399424,None,,,,,,,,,,,,,,105,2023-03-29_18h43.13.671,Main,2022.1.1,59.900218195911656,
positive,positive,2,l,j,,,,,,,,,12,2,218,11,,,,,,,,,main,2,2,2,positive,positive,j,j,1,0.6469598999246955,500.2516580999363,501.2636971999891,501.2443248999771,None,500.2516580999363,None,500.2516580999363,None,500.2516580999363,None,501.894405439985,None,501.894405439985,None,501.894405439985,None,,,,,,,,,,,,,,105,2023-03-29_18h43.13.671,Main,2022.1.1,59.900218195911656,
negative,positive,1,j,l,,,,,,,,,12,3,219,6,,,,,,,,,main,1,1,1,positive,negative,l,l,1,0.6151579997967929,501.9000422998797,502.91098769987,502.8943731999025,None,501.9000422998797,None,501.9000422998797,None,501.9000422998797,None,503.51093563998586,None,503.51093563998586,None,503.51093563998586,None,,,,,,,,,,,,,,105,2023-03-29_18h43.13.671,Main,2022.1.1,59.900218195911656,
negative,negative,1,j,l,,,,,,,,,12,4,220,0,,,,,,,,,main,1,1,1,negative,negative,l,l,1,0.6149120000191033,503.5148598998785,504.5276039999444,504.5111129998695,None,503.5148598998785,None,503.5148598998785,None,503.5148598998785,None,505.1275729399873,None,505.1275729399873,None,505.1275729399873,None,,,,,,,,,,,,,,105,2023-03-29_18h43.13.671,Main,2022.1.1,59.900218195911656,
neutral,positive,1,k,k,,,,,,,,,12,5,221,4,,,,,,,,,main,1,1,1,positive,neutral,k,k,1,0.5357464000117034,505.1316960998811,506.144245200092,506.12757680006325,None,505.1316960998811,None,505.1316960998811,None,505.1316960998811,None,506.6647317400435,None,506.6647317400435,None,506.6647317400435,None,,,,,,,,,,,,,,105,2023-03-29_18h43.13.671,Main,2022.1.1,59.900218195911656,
positive,neutral,2,l,j,,,,,,,,,12,6,222,17,,,,,,,,,main,1,1,2,neutral,positive,j,j,1,0.6274264000821859,506.6680670999922,507.67757109995,507.66088630002923,None,506.6680670999922,None,506.6680670999922,None,506.6680670999922,None,508.29414993992543,None,508.29414993992543,None,508.29414993992543,None,,,,,,,,,,,,,,105,2023-03-29_18h43.13.671,Main,2022.1.1,59.900218195911656,
