target,distractor,set,ans1,ans2,rep_loop2.thisRepN,rep_loop2.thisTrialN,rep_loop2.thisN,rep_loop2.thisIndex,flanker_prac_loop.thisRepN,flanker_prac_loop.thisTrialN,flanker_prac_loop.thisN,flanker_prac_loop.thisIndex,flanker_main_loop.thisRepN,flanker_main_loop.thisTrialN,flanker_main_loop.thisN,flanker_main_loop.thisIndex,fl_inst_resp.keys,fl_inst_resp.rt,sound_1.started,sound_1.stopped,image_4.started,image_4.stopped,back_2.started,back_2.stopped,main_prac,fl_cold,fl_colt,fl_set,fl_dcond,fl_tcond,fl_ans,fl_res,fl_corr,fl_rt,fix_fl.started,fix_fl.stopped,targ.started,targ.stopped,j_button.started,j_button.stopped,k_button.started,k_button.stopped,l_button.started,l_button.stopped,j_button2.started,j_button2.stopped,k_button2.started,k_button2.stopped,l_button2.started,l_button2.stopped,mainback.started,mainback.stopped,key_resp.keys,key_resp.rt,mouse_6.x,mouse_6.y,mouse_6.leftButton,mouse_6.midButton,mouse_6.rightButton,mouse_6.started,mouse_6.stopped,text_2.started,text_2.stopped,id*,date,expName,psychopyVersion,frameRate,
,,,,,0,0,0,0,,,,,,,,,space,63.22662180000043,19.546423169999617,None,82.79269090000162,None,,,,,,,,,,,,,,,,,,,,,,,,,,,,,,,,,,,,,,,,,,106,2023-03-30_13h27.44.852,Main,2022.1.1,59.15749084582069,
negative,neutral,2,j,l,,,,,0,0,0,12,,,,,,,,,,,90.59249129999807,None,prac,2,2,2,neutral,negative,j,j,1,1.5475923999983934,92.61743430000206,93.62829919999785,93.61169559999689,None,92.61743430000206,None,92.61743430000206,None,92.61743430000206,None,95.16278109999985,None,95.16278109999985,None,95.16278109999985,None,,,,,,,,,,,,,,106,2023-03-30_13h27.44.852,Main,2022.1.1,59.15749084582069,
negative,positive,2,j,l,,,,,0,1,1,15,,,,,,,,,,,,,prac,1,1,2,positive,negative,j,j,1,0.9868015000029118,96.17820899999788,97.17810820000159,97.16151859999809,None,96.17820899999788,None,96.17820899999788,None,96.17820899999788,None,98.16149427000055,None,98.16149427000055,None,98.16149427000055,None,,,,,,,,,,,,,,106,2023-03-30_13h27.44.852,Main,2022.1.1,59.15749084582069,
neutral,neutral,1,k,k,,,,,0,2,2,1,,,,,,,,,,,,,prac,2,2,1,neutral,neutral,k,k,1,0.7984738000013749,98.1773417000004,99.17816850000236,99.1615146999975,None,98.1773417000004,None,98.1773417000004,None,98.1773417000004,None,99.96147777000151,None,99.96147777000151,None,99.96147777000151,None,,,,,,,,,,,,,,106,2023-03-30_13h27.44.852,Main,2022.1.1,59.15749084582069,
negative,negative,1,j,l,,,,,0,3,3,0,,,,,,,,,,,,,prac,2,2,1,negative,negative,j,l,0,1.0304434999998193,99.97700379999878,100.99224590000085,100.97558099999878,None,99.97700379999878,None,99.97700379999878,None,99.97700379999878,None,101.99228079999739,None,101.99228079999739,None,101.99228079999739,None,,,,,,,,,,,,,,106,2023-03-30_13h27.44.852,Main,2022.1.1,59.15749084582069,
neutral,positive,2,k,k,,,,,0,4,4,13,,,,,,,,,,,,,prac,2,2,2,positive,neutral,k,k,1,0.8203420999998343,103.00008720000187,104.00894490000064,103.97563320000336,None,103.00008720000187,None,103.00008720000187,None,103.00008720000187,None,104.80892747000034,None,104.80892747000034,None,104.80892747000034,None,,,,,,,,,,,,,,106,2023-03-30_13h27.44.852,Main,2022.1.1,59.15749084582069,
positive,positive,2,l,j,,,,,0,5,5,11,,,,,,,,,,,,,prac,2,2,2,positive,positive,l,l,1,0.8196972000005189,104.81246950000059,105.82802829999855,105.81143650000013,None,104.81246950000059,None,104.81246950000059,None,104.81246950000059,None,106.62825666999997,None,106.62825666999997,None,106.62825666999997,None,,,,,,,,,,,,,,106,2023-03-30_13h27.44.852,Main,2022.1.1,59.15749084582069,
negative,positive,1,j,l,,,,,0,6,6,6,,,,,,,,,,,,,prac,2,2,1,positive,negative,j,j,1,0.7276195999947959,106.64011140000366,107.64255170000251,107.61145519999991,None,106.64011140000366,None,106.64011140000366,None,106.64011140000366,None,108.35920527000125,None,108.35920527000125,None,108.35920527000125,None,,,,,,,,,,,,,,106,2023-03-30_13h27.44.852,Main,2022.1.1,59.15749084582069,
positive,neutral,1,l,j,,,,,0,7,7,8,,,,,,,,,,,,,prac,1,1,1,neutral,positive,l,l,1,0.882035900001938,108.3728906000033,109.37586929999816,109.36127259999921,None,108.3728906000033,None,108.3728906000033,None,108.3728906000033,None,110.2424505700008,None,110.2424505700008,None,110.2424505700008,None,,,,,,,,,,,,,,106,2023-03-30_13h27.44.852,Main,2022.1.1,59.15749084582069,
positive,neutral,2,l,j,,,,,0,8,8,17,,,,,,,,,,,,,prac,2,2,2,neutral,positive,l,l,1,0.8995097000006353,110.24579610000364,111.26119029999973,111.24471130000165,None,110.24579610000364,None,110.24579610000364,None,110.24579610000364,None,112.14324867000396,None,112.14324867000396,None,112.14324867000396,None,,,,,,,,,,,,,,106,2023-03-30_13h27.44.852,Main,2022.1.1,59.15749084582069,
neutral,neutral,2,k,k,,,,,0,9,9,10,,,,,,,,,,,,,prac,1,1,2,neutral,neutral,k,k,1,0.715216299999156,112.1564980999974,113.15870639999775,113.14202359999763,None,112.1564980999974,None,112.1564980999974,None,112.1564980999974,None,113.85870306999713,None,113.85870306999713,None,113.85870306999713,None,,,,,,,,,,,,,,106,2023-03-30_13h27.44.852,Main,2022.1.1,59.15749084582069,
positive,positive,1,l,j,,,,,0,10,10,2,,,,,,,,,,,,,prac,2,2,1,positive,positive,l,l,1,1.0981558999992558,113.85918249999668,114.85874129999866,114.85874129999866,None,113.85918249999668,None,113.85918249999668,None,113.85918249999668,None,115.95866747000109,None,115.95866747000109,None,115.95866747000109,None,,,,,,,,,,,,,,106,2023-03-30_13h27.44.852,Main,2022.1.1,59.15749084582069,
neutral,negative,2,k,k,,,,,0,11,11,16,,,,,,,,,,,,,prac,2,2,2,negative,neutral,k,k,1,0.6487882000001264,115.96528260000196,116.97535290000087,116.95868319999863,None,115.96528260000196,None,115.96528260000196,None,115.96528260000196,None,117.60902967000293,None,117.60902967000293,None,117.60902967000293,None,,,,,,,,,,,,,,106,2023-03-30_13h27.44.852,Main,2022.1.1,59.15749084582069,
neutral,negative,1,k,k,,,,,0,12,12,7,,,,,,,,,,,,,prac,1,1,1,negative,neutral,k,k,1,0.6821779000019887,117.62205459999677,118.6277614999999,118.61120279999886,None,117.62205459999677,None,117.62205459999677,None,117.62205459999677,None,119.29230746999819,None,119.29230746999819,None,119.29230746999819,None,,,,,,,,,,,,,,106,2023-03-30_13h27.44.852,Main,2022.1.1,59.15749084582069,
neutral,positive,1,k,k,,,,,0,13,13,4,,,,,,,,,,,,,prac,1,1,1,positive,neutral,k,k,1,0.5472702999977628,119.31006550000166,120.3111149000033,120.29438870000013,None,119.31006550000166,None,119.31006550000166,None,119.31006550000166,None,120.8419322700036,None,120.8419322700036,None,120.8419322700036,None,,,,,,,,,,,,,,106,2023-03-30_13h27.44.852,Main,2022.1.1,59.15749084582069,
negative,negative,2,j,l,,,,,0,14,14,9,,,,,,,,,,,,,prac,2,2,2,negative,negative,j,j,1,0.8014274000015575,120.8450926000005,121.84438360000058,121.82777760000317,None,120.8450926000005,None,120.8450926000005,None,120.8450926000005,None,122.64444217000418,None,122.64444217000418,None,122.64444217000418,None,,,,,,,,,,,,,,106,2023-03-30_13h27.44.852,Main,2022.1.1,59.15749084582069,
positive,negative,2,l,j,,,,,0,15,15,14,,,,,,,,,,,,,prac,1,1,2,negative,positive,l,l,1,0.9130747000017436,122.65841289999662,123.66100400000141,123.64438099999825,None,122.65841289999662,None,122.65841289999662,None,122.65841289999662,None,124.55886297000397,None,124.55886297000397,None,124.55886297000397,None,,,,,,,,,,,,,,106,2023-03-30_13h27.44.852,Main,2022.1.1,59.15749084582069,
negative,neutral,1,j,l,,,,,0,16,16,3,,,,,,,,,,,,,prac,1,1,1,neutral,negative,j,j,1,0.9981940999932704,124.56202050000138,125.57507690000057,125.55838640000002,None,124.56202050000138,None,124.56202050000138,None,124.56202050000138,None,126.55841677000426,None,126.55841677000426,None,126.55841677000426,None,,,,,,,,,,,,,,106,2023-03-30_13h27.44.852,Main,2022.1.1,59.15749084582069,
positive,negative,1,l,j,,,,,0,17,17,5,,,,,,,,,,,,,prac,2,2,1,negative,positive,l,l,1,0.7989511999985552,126.55837050000264,127.55845810000028,127.55845810000028,None,126.55837050000264,None,126.55837050000264,None,126.55837050000264,None,128.35844747000084,None,128.35844747000084,None,128.35844747000084,None,,,,,,,,,,,,,,106,2023-03-30_13h27.44.852,Main,2022.1.1,59.15749084582069,
positive,positive,2,l,j,,,,,1,0,18,11,,,,,,,,,,,,,prac,1,1,2,positive,positive,l,l,1,1.015305699998862,128.3616710999995,129.36092279999866,129.36092279999866,None,128.3616710999995,None,128.3616710999995,None,128.3616710999995,None,130.3750619699975,None,130.3750619699975,None,130.3750619699975,None,,,,,,,,,,,,,,106,2023-03-30_13h27.44.852,Main,2022.1.1,59.15749084582069,
neutral,positive,1,k,k,,,,,1,1,19,4,,,,,,,,,,,,,prac,2,2,1,positive,neutral,k,k,1,0.6493584000054398,130.38127530000202,131.39427660000365,131.36084570000094,None,130.38127530000202,None,130.38127530000202,None,130.38127530000202,None,132.02532386999957,None,132.02532386999957,None,132.02532386999957,None,,,,,,,,,,,,,,106,2023-03-30_13h27.44.852,Main,2022.1.1,59.15749084582069,
negative,negative,1,j,l,,,,,1,2,20,0,,,,,,,,,,,,,prac,1,1,1,negative,negative,j,j,1,0.5983053000018117,132.02899980000075,133.04414520000137,133.02748689999862,None,132.02899980000075,None,132.02899980000075,None,132.02899980000075,None,133.62533236999735,None,133.62533236999735,None,133.62533236999735,None,,,,,,,,,,,,,,106,2023-03-30_13h27.44.852,Main,2022.1.1,59.15749084582069,
positive,neutral,1,l,j,,,,,1,3,21,8,,,,,,,,,,,,,prac,2,2,1,neutral,positive,l,l,1,0.634265200002119,133.62867659999756,134.64419869999983,134.62750830000004,None,133.62867659999756,None,133.62867659999756,None,133.62867659999756,None,135.2608162700024,None,135.2608162700024,None,135.2608162700024,None,,,,,,,,,,,,,,106,2023-03-30_13h27.44.852,Main,2022.1.1,59.15749084582069,
positive,neutral,2,l,j,,,,,1,4,22,17,,,,,,,,,,,,,prac,2,2,2,neutral,positive,l,l,1,0.5795068000006722,135.26382909999666,136.27799750000122,136.25725409999723,None,135.26382909999666,None,135.26382909999666,None,135.26382909999666,None,136.84153876999773,None,136.84153876999773,None,136.84153876999773,None,,,,,,,,,,,,,,106,2023-03-30_13h27.44.852,Main,2022.1.1,59.15749084582069,
neutral,negative,1,k,k,,,,,1,5,23,7,,,,,,,,,,,,,prac,2,2,1,negative,neutral,k,j,0,0.6153081000011298,136.8423924000017,137.84154370000033,137.84154370000033,None,136.8423924000017,None,136.8423924000017,None,136.8423924000017,None,138.4582356000028,None,138.4582356000028,None,138.4582356000028,None,,,,,,,,,,,,,,106,2023-03-30_13h27.44.852,Main,2022.1.1,59.15749084582069,
positive,negative,2,l,j,,,,,1,6,24,14,,,,,,,,,,,,,prac,1,1,2,negative,positive,l,l,1,0.8015604999964125,139.45938639999804,140.46064689999912,140.44403769999917,None,139.45938639999804,None,139.45938639999804,None,139.45938639999804,None,141.25852887000366,None,141.25852887000366,None,141.25852887000366,None,,,,,,,,,,,,,,106,2023-03-30_13h27.44.852,Main,2022.1.1,59.15749084582069,
negative,positive,1,j,l,,,,,1,7,25,6,,,,,,,,,,,,,prac,1,1,1,positive,negative,j,j,1,0.7650054000041564,141.2621863000022,142.2773559999987,142.26067080000212,None,141.2621863000022,None,141.2621863000022,None,141.2621863000022,None,143.0251136699997,None,143.0251136699997,None,143.0251136699997,None,,,,,,,,,,,,,,106,2023-03-30_13h27.44.852,Main,2022.1.1,59.15749084582069,
negative,neutral,1,j,l,,,,,1,8,26,3,,,,,,,,,,,,,prac,1,1,1,neutral,negative,j,j,1,0.6502495000022464,143.02903900000092,144.04390689999855,144.02728609999758,None,143.02903900000092,None,143.02903900000092,None,143.02903900000092,None,144.67729827000295,None,144.67729827000295,None,144.67729827000295,None,,,,,,,,,,,,,,106,2023-03-30_13h27.44.852,Main,2022.1.1,59.15749084582069,
positive,positive,1,l,j,,,,,1,9,27,2,,,,,,,,,,,,,prac,1,1,1,positive,positive,l,l,1,0.7389376999999513,144.68015549999836,145.69384939999873,145.67733959999896,None,144.68015549999836,None,144.68015549999836,None,144.68015549999836,None,146.41748046999857,None,146.41748046999857,None,146.41748046999857,None,,,,,,,,,,,,,,106,2023-03-30_13h27.44.852,Main,2022.1.1,59.15749084582069,
neutral,neutral,2,k,k,,,,,1,10,28,10,,,,,,,,,,,,,prac,1,1,2,neutral,neutral,k,k,1,0.6890090999950189,146.4278067999985,147.4412869000007,147.40795020000223,None,146.4278067999985,None,146.4278067999985,None,146.4278067999985,None,148.10793516999985,None,148.10793516999985,None,148.10793516999985,None,,,,,,,,,,,,,,106,2023-03-30_13h27.44.852,Main,2022.1.1,59.15749084582069,
neutral,positive,2,k,k,,,,,1,11,29,13,,,,,,,,,,,,,prac,2,2,2,positive,neutral,k,k,1,0.5828339999934542,148.10792570000194,149.10804069999722,149.10804069999722,None,148.10792570000194,None,148.10792570000194,None,148.10792570000194,None,149.69171607000027,None,149.69171607000027,None,149.69171607000027,None,,,,,,,,,,,,,,106,2023-03-30_13h27.44.852,Main,2022.1.1,59.15749084582069,
negative,negative,2,j,l,,,,,1,12,30,9,,,,,,,,,,,,,prac,1,1,2,negative,negative,j,j,1,0.7661608999987948,149.7083397000024,150.71043310000096,150.6938869000005,None,149.7083397000024,None,149.7083397000024,None,149.7083397000024,None,151.4582975700003,None,151.4582975700003,None,151.4582975700003,None,,,,,,,,,,,,,,106,2023-03-30_13h27.44.852,Main,2022.1.1,59.15749084582069,
negative,positive,2,j,l,,,,,1,13,31,15,,,,,,,,,,,,,prac,2,2,2,positive,negative,j,j,1,1.031211900000926,151.4623752999978,152.47703790000378,152.4604507999975,None,151.4623752999978,None,151.4623752999978,None,151.4623752999978,None,153.49155596999918,None,153.49155596999918,None,153.49155596999918,None,,,,,,,,,,,,,,106,2023-03-30_13h27.44.852,Main,2022.1.1,59.15749084582069,
neutral,negative,2,k,k,,,,,1,14,32,16,,,,,,,,,,,,,prac,1,1,2,negative,neutral,k,k,1,0.6652806999991299,153.4946112999969,154.49375030000374,154.49375030000374,None,153.4946112999969,None,153.4946112999969,None,153.4946112999969,None,155.1582303700023,None,155.1582303700023,None,155.1582303700023,None,,,,,,,,,,,,,,106,2023-03-30_13h27.44.852,Main,2022.1.1,59.15749084582069,
negative,neutral,2,j,l,,,,,1,15,33,12,,,,,,,,,,,,,prac,2,2,2,neutral,negative,j,j,1,0.7816724999938742,155.16153489999851,156.1770478000035,156.16038539999863,None,155.16153489999851,None,155.16153489999851,None,155.16153489999851,None,156.9410621699979,None,156.9410621699979,None,156.9410621699979,None,,,,,,,,,,,,,,106,2023-03-30_13h27.44.852,Main,2022.1.1,59.15749084582069,
neutral,neutral,1,k,k,,,,,1,16,34,1,,,,,,,,,,,,,prac,1,1,1,neutral,neutral,k,k,1,0.698670999998285,156.94108940000297,157.94111980000162,157.94111980000162,None,156.94108940000297,None,156.94108940000297,None,156.94108940000297,None,158.64113547000017,None,158.64113547000017,None,158.64113547000017,None,,,,,,,,,,,,,,106,2023-03-30_13h27.44.852,Main,2022.1.1,59.15749084582069,
positive,negative,1,l,j,,,,,1,17,35,5,,,,,,,,,,,,,prac,2,2,1,negative,positive,l,l,1,0.6490109999940614,158.64478889999737,159.66024270000344,159.64364940000087,None,158.64478889999737,None,158.64478889999737,None,158.64478889999737,None,160.29147867000285,None,160.29147867000285,None,160.29147867000285,None,,,,,,,,,,,,,,106,2023-03-30_13h27.44.852,Main,2022.1.1,59.15749084582069,
,,,,,,,,,,,,,,,,,,,,,,,,,,,,,,,,,,,,,,,,,,,,,,,,,,,160.29157880000275,None,space,7.267672999994829,,,,,,,,,,106,2023-03-30_13h27.44.852,Main,2022.1.1,59.15749084582069,
,,,,,,,,,,,,,,,,,,,,,,,,,,,,,,,,,,,,,,,,,,,,,,,,,,,,,,,0.76944447,-0.21666667,0,0,0,0.010728170003858395,None,,,106,2023-03-30_13h27.44.852,Main,2022.1.1,59.15749084582069,
neutral,negative,2,k,k,,,,,,,,,0,0,0,16,,,,,,,167.59090149999975,None,main,1,1,2,negative,neutral,k,k,1,0.6301055999938399,169.59346570000343,170.60758190000342,170.59090740000102,None,169.59346570000343,None,169.59346570000343,None,169.59346570000343,None,171.22420716999915,None,171.22420716999915,None,171.22420716999915,None,,,,,,,,,,,,,,106,2023-03-30_13h27.44.852,Main,2022.1.1,59.15749084582069,
neutral,positive,2,k,k,,,,,,,,,0,1,1,13,,,,,,,,,main,1,1,2,positive,neutral,k,k,1,0.5473945000048843,171.22947099999874,172.24342109999998,172.22670970000036,None,171.22947099999874,None,171.22947099999874,None,171.22947099999874,None,172.77418687000028,None,172.77418687000028,None,172.77418687000028,None,,,,,,,,,,,,,,106,2023-03-30_13h27.44.852,Main,2022.1.1,59.15749084582069,
negative,positive,1,j,l,,,,,,,,,0,2,2,6,,,,,,,,,main,1,1,1,positive,negative,j,j,1,0.7693014000033145,172.7779131999996,173.79329809999763,173.77670390000276,None,172.7779131999996,None,172.7779131999996,None,172.7779131999996,None,174.543315370004,None,174.543315370004,None,174.543315370004,None,,,,,,,,,,,,,,106,2023-03-30_13h27.44.852,Main,2022.1.1,59.15749084582069,
positive,negative,2,l,j,,,,,,,,,0,3,3,14,,,,,,,,,main,1,1,2,negative,positive,l,l,1,0.7278567999965162,174.54833350000263,175.55992420000257,175.54333680000127,None,174.54833350000263,None,174.54833350000263,None,174.54833350000263,None,176.27444587000065,None,176.27444587000065,None,176.27444587000065,None,,,,,,,,,,,,,,106,2023-03-30_13h27.44.852,Main,2022.1.1,59.15749084582069,
negative,neutral,2,j,l,,,,,,,,,0,4,4,12,,,,,,,,,main,1,1,2,neutral,negative,j,j,1,0.6660329000005731,176.27808670000377,177.2931518999976,177.2766189000031,None,176.27808670000377,None,176.27808670000377,None,176.27808670000377,None,177.94110387000256,None,177.94110387000256,None,177.94110387000256,None,,,,,,,,,,,,,,106,2023-03-30_13h27.44.852,Main,2022.1.1,59.15749084582069,
negative,negative,1,j,l,,,,,,,,,0,5,5,0,,,,,,,,,main,2,2,1,negative,negative,j,j,1,1.0803936999946018,177.94550290000188,178.9600477999993,178.94326430000365,None,177.94550290000188,None,177.94550290000188,None,177.94550290000188,None,180.02395297000186,None,180.02395297000186,None,180.02395297000186,None,,,,,,,,,,,,,,106,2023-03-30_13h27.44.852,Main,2022.1.1,59.15749084582069,
negative,neutral,1,j,l,,,,,,,,,0,6,6,3,,,,,,,,,main,2,2,1,neutral,negative,j,j,1,0.6484590000036405,180.02402289999736,181.02401079999981,181.02401079999981,None,180.02402289999736,None,180.02402289999736,None,180.02402289999736,None,181.67397657000112,None,181.67397657000112,None,181.67397657000112,None,,,,,,,,,,,,,,106,2023-03-30_13h27.44.852,Main,2022.1.1,59.15749084582069,
negative,positive,2,j,l,,,,,,,,,0,7,7,15,,,,,,,,,main,2,2,2,positive,negative,j,j,1,0.8150975999960792,181.67527939999854,182.6906650000019,182.6739882000038,None,181.67527939999854,None,181.67527939999854,None,181.67527939999854,None,183.49063207,None,183.49063207,None,183.49063207,None,,,,,,,,,,,,,,106,2023-03-30_13h27.44.852,Main,2022.1.1,59.15749084582069,
positive,neutral,2,l,j,,,,,,,,,0,8,8,17,,,,,,,,,main,2,2,2,neutral,positive,l,l,1,0.7009952000007615,183.49416329999804,184.50976190000074,184.49315029999707,None,183.49416329999804,None,183.49416329999804,None,183.49416329999804,None,185.19311276999798,None,185.19311276999798,None,185.19311276999798,None,,,,,,,,,,,,,,106,2023-03-30_13h27.44.852,Main,2022.1.1,59.15749084582069,
neutral,neutral,2,k,k,,,,,,,,,0,9,9,10,,,,,,,,,main,2,2,2,neutral,neutral,k,k,1,0.7149369000035222,185.1964472000036,186.20963230000052,186.1907085999992,None,185.1964472000036,None,185.1964472000036,None,185.1964472000036,None,186.90966996999924,None,186.90966996999924,None,186.90966996999924,None,,,,,,,,,,,,,,106,2023-03-30_13h27.44.852,Main,2022.1.1,59.15749084582069,
neutral,positive,1,k,k,,,,,,,,,0,10,10,4,,,,,,,,,main,1,1,1,positive,neutral,k,k,1,0.5963472000003094,186.91282109999884,187.92631370000163,187.9097225000005,None,186.91282109999884,None,186.91282109999884,None,186.91282109999884,None,188.50755207000185,None,188.50755207000185,None,188.50755207000185,None,,,,,,,,,,,,,,106,2023-03-30_13h27.44.852,Main,2022.1.1,59.15749084582069,
positive,neutral,1,l,j,,,,,,,,,0,11,11,8,,,,,,,,,main,1,1,1,neutral,positive,l,l,1,0.6651740000015707,188.51103629999852,189.5262772999995,189.50970229999803,None,188.51103629999852,None,188.51103629999852,None,188.51103629999852,None,190.17413357000333,None,190.17413357000333,None,190.17413357000333,None,,,,,,,,,,,,,,106,2023-03-30_13h27.44.852,Main,2022.1.1,59.15749084582069,
positive,negative,1,l,j,,,,,,,,,0,12,12,5,,,,,,,,,main,2,2,1,negative,positive,l,l,1,0.8979780000008759,190.17795130000013,191.1899814999997,191.17273730000306,None,190.17795130000013,None,190.17795130000013,None,190.17795130000013,None,192.07369886999805,None,192.07369886999805,None,192.07369886999805,None,,,,,,,,,,,,,,106,2023-03-30_13h27.44.852,Main,2022.1.1,59.15749084582069,
positive,positive,1,l,j,,,,,,,,,0,13,13,2,,,,,,,,,main,1,1,1,positive,positive,l,l,1,0.6316298000019742,192.073773600001,193.07373840000218,193.07373840000218,None,192.073773600001,None,192.073773600001,None,192.073773600001,None,193.70704576999998,None,193.70704576999998,None,193.70704576999998,None,,,,,,,,,,,,,,106,2023-03-30_13h27.44.852,Main,2022.1.1,59.15749084582069,
negative,negative,2,j,l,,,,,,,,,0,14,14,9,,,,,,,,,main,1,1,2,negative,negative,j,j,1,0.6818255999969551,193.70733759999712,194.70707160000165,194.70707160000165,None,193.70733759999712,None,193.70733759999712,None,193.70733759999712,None,195.3903646700026,None,195.3903646700026,None,195.3903646700026,None,,,,,,,,,,,,,,106,2023-03-30_13h27.44.852,Main,2022.1.1,59.15749084582069,
neutral,neutral,1,k,k,,,,,,,,,0,15,15,1,,,,,,,,,main,2,2,1,neutral,neutral,k,k,1,0.6527612999998382,195.3937322999991,196.39288379999925,196.39288379999925,None,195.3937322999991,None,195.3937322999991,None,195.3937322999991,None,197.04472357000196,None,197.04472357000196,None,197.04472357000196,None,,,,,,,,,,,,,,106,2023-03-30_13h27.44.852,Main,2022.1.1,59.15749084582069,
positive,positive,2,l,j,,,,,,,,,0,16,16,11,,,,,,,,,main,2,2,2,positive,positive,l,l,1,0.63020260000485,197.0479961000019,198.05957150000177,198.04035000000295,None,197.0479961000019,None,197.0479961000019,None,197.0479961000019,None,198.67627307000367,None,198.67627307000367,None,198.67627307000367,None,,,,,,,,,,,,,,106,2023-03-30_13h27.44.852,Main,2022.1.1,59.15749084582069,
neutral,negative,1,k,k,,,,,,,,,0,17,17,7,,,,,,,,,main,1,1,1,negative,neutral,k,k,1,0.562617900002806,198.68067090000113,199.69277929999953,199.6739901999972,None,198.68067090000113,None,198.68067090000113,None,198.68067090000113,None,200.24063196999924,None,200.24063196999924,None,200.24063196999924,None,,,,,,,,,,,,,,106,2023-03-30_13h27.44.852,Main,2022.1.1,59.15749084582069,
positive,neutral,2,l,j,,,,,,,,,1,0,18,17,,,,,,,,,main,2,2,2,neutral,positive,l,j,0,0.5005690999969374,200.24423950000346,201.2594054000001,201.24276870000176,None,200.24423950000346,None,200.24423950000346,None,200.24423950000346,None,201.74282780000067,None,201.74282780000067,None,201.74282780000067,None,,,,,,,,,,,,,,106,2023-03-30_13h27.44.852,Main,2022.1.1,59.15749084582069,
positive,neutral,1,l,j,,,,,,,,,1,1,19,8,,,,,,,,,main,2,2,1,neutral,positive,l,l,1,0.7509845999957179,202.7411273999969,203.74016780000238,203.72348890000285,None,202.7411273999969,None,202.7411273999969,None,202.7411273999969,None,204.49013486999758,None,204.49013486999758,None,204.49013486999758,None,,,,,,,,,,,,,,106,2023-03-30_13h27.44.852,Main,2022.1.1,59.15749084582069,
neutral,positive,2,k,k,,,,,,,,,1,2,20,13,,,,,,,,,main,2,2,2,positive,neutral,k,k,1,0.7648481999931391,204.49030550000316,205.49016010000196,205.49016010000196,None,204.49030550000316,None,204.49030550000316,None,204.49030550000316,None,206.25680557000015,None,206.25680557000015,None,206.25680557000015,None,,,,,,,,,,,,,,106,2023-03-30_13h27.44.852,Main,2022.1.1,59.15749084582069,
negative,neutral,2,j,l,,,,,,,,,1,3,21,12,,,,,,,,,main,2,2,2,neutral,negative,j,j,1,0.6988808999958565,206.25700150000193,207.25681630000327,207.25681630000327,None,206.25700150000193,None,206.25700150000193,None,206.25700150000193,None,207.95715076999915,None,207.95715076999915,None,207.95715076999915,None,,,,,,,,,,,,,,106,2023-03-30_13h27.44.852,Main,2022.1.1,59.15749084582069,
positive,positive,1,l,j,,,,,,,,,1,4,22,2,,,,,,,,,main,1,1,1,positive,positive,l,l,1,0.5848586000065552,207.96072920000006,208.9758944999994,208.959328500001,None,207.96072920000006,None,207.96072920000006,None,207.96072920000006,None,209.54253596999916,None,209.54253596999916,None,209.54253596999916,None,,,,,,,,,,,,,,106,2023-03-30_13h27.44.852,Main,2022.1.1,59.15749084582069,
neutral,negative,1,k,k,,,,,,,,,1,5,23,7,,,,,,,,,main,1,1,1,negative,neutral,k,k,1,0.6287258000011207,209.54677800000354,210.55917449999833,210.5426179999995,None,209.54677800000354,None,209.54677800000354,None,209.54677800000354,None,211.17337837000088,None,211.17337837000088,None,211.17337837000088,None,,,,,,,,,,,,,,106,2023-03-30_13h27.44.852,Main,2022.1.1,59.15749084582069,
negative,negative,1,j,l,,,,,,,,,1,6,24,0,,,,,,,,,main,1,1,1,negative,negative,j,j,1,0.8482925999996951,211.17729569999938,212.19255990000238,212.17585990000225,None,211.17729569999938,None,211.17729569999938,None,211.17729569999938,None,213.0236809699971,None,213.0236809699971,None,213.0236809699971,None,,,,,,,,,,,,,,106,2023-03-30_13h27.44.852,Main,2022.1.1,59.15749084582069,
positive,negative,1,l,j,,,,,,,,,1,7,25,5,,,,,,,,,main,2,2,1,negative,positive,l,l,1,0.6340961000023526,213.0271853000013,214.04256480000186,214.02594279999903,None,213.0271853000013,None,213.0271853000013,None,213.0271853000013,None,214.65903187000077,None,214.65903187000077,None,214.65903187000077,None,,,,,,,,,,,,,,106,2023-03-30_13h27.44.852,Main,2022.1.1,59.15749084582069,
neutral,neutral,1,k,k,,,,,,,,,1,8,26,1,,,,,,,,,main,2,2,1,neutral,neutral,k,k,1,0.6133809000020847,214.6631114999982,215.6732114999977,215.65652039999986,None,214.6631114999982,None,214.6631114999982,None,214.6631114999982,None,216.2731941700011,None,216.2731941700011,None,216.2731941700011,None,,,,,,,,,,,,,,106,2023-03-30_13h27.44.852,Main,2022.1.1,59.15749084582069,
neutral,positive,1,k,k,,,,,,,,,1,9,27,4,,,,,,,,,main,2,2,1,positive,neutral,k,k,1,0.6308552000045893,216.2742384000012,217.2732532000009,217.2732532000009,None,216.2742384000012,None,216.2742384000012,None,216.2742384000012,None,217.90654986999726,None,217.90654986999726,None,217.90654986999726,None,,,,,,,,,,,,,,106,2023-03-30_13h27.44.852,Main,2022.1.1,59.15749084582069,
negative,positive,1,j,l,,,,,,,,,1,10,28,6,,,,,,,,,main,2,2,1,positive,negative,j,j,1,0.78115809999872,217.90892980000353,218.9232548,218.90656200000376,None,217.90892980000353,None,217.90892980000353,None,217.90892980000353,None,219.68986947000377,None,219.68986947000377,None,219.68986947000377,None,,,,,,,,,,,,,,106,2023-03-30_13h27.44.852,Main,2022.1.1,59.15749084582069,
neutral,negative,2,k,k,,,,,,,,,1,11,29,16,,,,,,,,,main,2,2,2,negative,neutral,k,l,0,0.7166585000013583,219.6933923999968,220.69244890000118,220.69244890000118,None,219.6933923999968,None,219.6933923999968,None,219.6933923999968,None,221.40685269999813,None,221.40685269999813,None,221.40685269999813,None,,,,,,,,,,,,,,106,2023-03-30_13h27.44.852,Main,2022.1.1,59.15749084582069,
negative,positive,2,j,l,,,,,,,,,1,12,30,15,,,,,,,,,main,2,2,2,positive,negative,j,j,1,0.8032371000008425,222.40785080000205,223.4088644000003,223.39229550000164,None,222.40785080000205,None,222.40785080000205,None,222.40785080000205,None,224.2089177700007,None,224.2089177700007,None,224.2089177700007,None,,,,,,,,,,,,,,106,2023-03-30_13h27.44.852,Main,2022.1.1,59.15749084582069,
neutral,neutral,2,k,k,,,,,,,,,1,13,31,10,,,,,,,,,main,1,1,2,neutral,neutral,k,k,1,0.6813346000053571,224.2122795000032,225.22553969999717,225.20892170000297,None,224.2122795000032,None,224.2122795000032,None,224.2122795000032,None,225.8921640700035,None,225.8921640700035,None,225.8921640700035,None,,,,,,,,,,,,,,106,2023-03-30_13h27.44.852,Main,2022.1.1,59.15749084582069,
positive,negative,2,l,j,,,,,,,,,1,14,32,14,,,,,,,,,main,2,2,2,negative,positive,l,l,1,0.6959878999987268,225.89514390000113,226.908900800001,226.89223869999842,None,225.89514390000113,None,225.89514390000113,None,225.89514390000113,None,227.58960116999953,None,227.58960116999953,None,227.58960116999953,None,,,,,,,,,,,,,,106,2023-03-30_13h27.44.852,Main,2022.1.1,59.15749084582069,
positive,positive,2,l,j,,,,,,,,,1,15,33,11,,,,,,,,,main,1,1,2,positive,positive,l,l,1,0.7143146999951568,227.59062760000234,228.60630780000065,228.58964099999866,None,227.59062760000234,None,227.59062760000234,None,227.59062760000234,None,229.30632536999912,None,229.30632536999912,None,229.30632536999912,None,,,,,,,,,,,,,,106,2023-03-30_13h27.44.852,Main,2022.1.1,59.15749084582069,
negative,neutral,1,j,l,,,,,,,,,1,16,34,3,,,,,,,,,main,2,2,1,neutral,negative,j,j,1,0.8485665999978664,229.3078760999997,230.32296710000082,230.30631690000155,None,229.3078760999997,None,229.3078760999997,None,229.3078760999997,None,231.15632227000316,None,231.15632227000316,None,231.15632227000316,None,,,,,,,,,,,,,,106,2023-03-30_13h27.44.852,Main,2022.1.1,59.15749084582069,
negative,negative,2,j,l,,,,,,,,,1,17,35,9,,,,,,,,,main,2,2,2,negative,negative,j,j,1,0.7152150999972946,231.15997849999985,232.1754166000028,232.1588075999971,None,231.15997849999985,None,231.15997849999985,None,231.15997849999985,None,232.87351267000196,None,232.87351267000196,None,232.87351267000196,None,,,,,,,,,,,,,,106,2023-03-30_13h27.44.852,Main,2022.1.1,59.15749084582069,
negative,negative,1,j,l,,,,,,,,,2,0,36,0,,,,,,,,,main,1,1,1,negative,negative,j,j,1,0.6173514999973122,232.87986490000185,233.89201820000017,233.8753938000009,None,232.87986490000185,None,232.87986490000185,None,232.87986490000185,None,234.49218877000095,None,234.49218877000095,None,234.49218877000095,None,,,,,,,,,,,,,,106,2023-03-30_13h27.44.852,Main,2022.1.1,59.15749084582069,
neutral,neutral,1,k,k,,,,,,,,,2,1,37,1,,,,,,,,,main,1,1,1,neutral,neutral,k,k,1,0.6652173000038601,234.49627699999837,235.50875249999808,235.49205939999956,None,234.49627699999837,None,234.49627699999837,None,234.49627699999837,None,236.15881627000346,None,236.15881627000346,None,236.15881627000346,None,,,,,,,,,,,,,,106,2023-03-30_13h27.44.852,Main,2022.1.1,59.15749084582069,
positive,positive,1,l,j,,,,,,,,,2,2,38,2,,,,,,,,,main,2,2,1,positive,positive,l,l,1,0.6630222999956459,236.16222389999893,237.1752661999999,237.1586307999969,None,236.16222389999893,None,236.16222389999893,None,236.16222389999893,None,237.82335757000402,None,237.82335757000402,None,237.82335757000402,None,,,,,,,,,,,,,,106,2023-03-30_13h27.44.852,Main,2022.1.1,59.15749084582069,
neutral,negative,2,k,k,,,,,,,,,2,3,39,16,,,,,,,,,main,2,2,2,negative,neutral,k,k,1,0.6308921000018017,237.82973940000375,238.8390975000002,238.82196470000054,None,237.82973940000375,None,237.82973940000375,None,237.82973940000375,None,239.45606157000003,None,239.45606157000003,None,239.45606157000003,None,,,,,,,,,,,,,,106,2023-03-30_13h27.44.852,Main,2022.1.1,59.15749084582069,
negative,positive,1,j,l,,,,,,,,,2,4,40,6,,,,,,,,,main,1,1,1,positive,negative,j,j,1,0.6145418000014615,239.45669310000085,240.45605590000196,240.45605590000196,None,239.45669310000085,None,239.45669310000085,None,239.45669310000085,None,241.07276227000403,None,241.07276227000403,None,241.07276227000403,None,,,,,,,,,,,,,,106,2023-03-30_13h27.44.852,Main,2022.1.1,59.15749084582069,
positive,negative,2,l,j,,,,,,,,,2,5,41,14,,,,,,,,,main,2,2,2,negative,positive,l,l,1,0.632090099999914,241.07614399999875,242.07523200000287,242.07523200000287,None,241.07614399999875,None,241.07614399999875,None,241.07614399999875,None,242.70639486999863,None,242.70639486999863,None,242.70639486999863,None,,,,,,,,,,,,,,106,2023-03-30_13h27.44.852,Main,2022.1.1,59.15749084582069,
neutral,positive,2,k,k,,,,,,,,,2,6,42,13,,,,,,,,,main,2,2,2,positive,neutral,k,k,1,0.5484969000026467,242.71016110000346,243.72514930000034,243.70852749999904,None,242.71016110000346,None,242.71016110000346,None,242.71016110000346,None,244.25637897000416,None,244.25637897000416,None,244.25637897000416,None,,,,,,,,,,,,,,106,2023-03-30_13h27.44.852,Main,2022.1.1,59.15749084582069,
neutral,negative,1,k,k,,,,,,,,,2,7,43,7,,,,,,,,,main,1,1,1,negative,neutral,k,k,1,0.5652113000032841,244.25966589999734,245.27509570000257,245.2585254000005,None,244.25966589999734,None,244.25966589999734,None,244.25966589999734,None,245.8229841699984,None,245.8229841699984,None,245.8229841699984,None,,,,,,,,,,,,,,106,2023-03-30_13h27.44.852,Main,2022.1.1,59.15749084582069,
neutral,positive,1,k,k,,,,,,,,,2,8,44,4,,,,,,,,,main,1,1,1,positive,neutral,k,k,1,0.581933499997831,245.84195110000292,246.84184770000138,246.82514100000117,None,245.84195110000292,None,245.84195110000292,None,245.84195110000292,None,247.406420969998,None,247.406420969998,None,247.406420969998,None,,,,,,,,,,,,,,106,2023-03-30_13h27.44.852,Main,2022.1.1,59.15749084582069,
positive,positive,2,l,j,,,,,,,,,2,9,45,11,,,,,,,,,main,2,2,2,positive,positive,l,l,1,0.6813789000007091,247.41010800000367,248.41814539999905,248.41814539999905,None,247.41010800000367,None,247.41010800000367,None,247.41010800000367,None,249.08921306999838,None,249.08921306999838,None,249.08921306999838,None,,,,,,,,,,,,,,106,2023-03-30_13h27.44.852,Main,2022.1.1,59.15749084582069,
positive,neutral,2,l,j,,,,,,,,,2,10,46,17,,,,,,,,,main,1,1,2,neutral,positive,l,l,1,0.6817260999960126,249.08919330000208,250.08917839999776,250.08917839999776,None,249.08919330000208,None,249.08919330000208,None,249.08919330000208,None,250.77252496999864,None,250.77252496999864,None,250.77252496999864,None,,,,,,,,,,,,,,106,2023-03-30_13h27.44.852,Main,2022.1.1,59.15749084582069,
neutral,neutral,2,k,k,,,,,,,,,2,11,47,10,,,,,,,,,main,2,2,2,neutral,neutral,k,k,1,0.6360067999994499,250.77428820000205,251.78918400000111,251.77252240000234,None,250.77428820000205,None,250.77428820000205,None,250.77428820000205,None,252.40602826999822,None,252.40602826999822,None,252.40602826999822,None,,,,,,,,,,,,,,106,2023-03-30_13h27.44.852,Main,2022.1.1,59.15749084582069,
negative,negative,2,j,l,,,,,,,,,2,12,48,9,,,,,,,,,main,2,2,2,negative,negative,j,j,1,0.6966654999996535,252.41312550000293,253.4249265000035,253.40834239999822,None,252.41312550000293,None,252.41312550000293,None,252.41312550000293,None,254.10840587000422,None,254.10840587000422,None,254.10840587000422,None,,,,,,,,,,,,,,106,2023-03-30_13h27.44.852,Main,2022.1.1,59.15749084582069,
negative,positive,2,j,l,,,,,,,,,2,13,49,15,,,,,,,,,main,2,2,2,positive,negative,j,j,1,0.5628559999968274,254.11152469999797,255.1249261999983,255.10831540000072,None,254.11152469999797,None,254.11152469999797,None,254.11152469999797,None,255.6727680700031,None,255.6727680700031,None,255.6727680700031,None,,,,,,,,,,,,,,106,2023-03-30_13h27.44.852,Main,2022.1.1,59.15749084582069,
positive,negative,1,l,j,,,,,,,,,2,14,50,5,,,,,,,,,main,1,1,1,negative,positive,l,l,1,0.8151969999962603,255.67635719999817,256.6915383000014,256.67495990000316,None,255.67635719999817,None,255.67635719999817,None,255.67635719999817,None,257.4895947700032,None,257.4895947700032,None,257.4895947700032,None,,,,,,,,,,,,,,106,2023-03-30_13h27.44.852,Main,2022.1.1,59.15749084582069,
positive,neutral,1,l,j,,,,,,,,,2,15,51,8,,,,,,,,,main,2,2,1,neutral,positive,l,l,1,0.6317831999986083,257.4956220000022,258.50817229999666,258.49162040000374,None,257.4956220000022,None,257.4956220000022,None,257.4956220000022,None,259.12268737000414,None,259.12268737000414,None,259.12268737000414,None,,,,,,,,,,,,,,106,2023-03-30_13h27.44.852,Main,2022.1.1,59.15749084582069,
negative,neutral,1,j,l,,,,,,,,,2,16,52,3,,,,,,,,,main,1,1,1,neutral,negative,j,j,1,0.8645365000047605,259.1260875000007,260.14158589999715,260.12487410000176,None,259.1260875000007,None,259.1260875000007,None,259.1260875000007,None,260.9889539699987,None,260.9889539699987,None,260.9889539699987,None,,,,,,,,,,,,,,106,2023-03-30_13h27.44.852,Main,2022.1.1,59.15749084582069,
negative,neutral,2,j,l,,,,,,,,,2,17,53,12,,,,,,,,,main,2,2,2,neutral,negative,j,j,1,0.6318989999999758,260.98892689999775,261.98894909999945,261.98894909999945,None,260.98892689999775,None,260.98892689999775,None,260.98892689999775,None,262.6222587700002,None,262.6222587700002,None,262.6222587700002,None,,,,,,,,,,,,,,106,2023-03-30_13h27.44.852,Main,2022.1.1,59.15749084582069,
positive,neutral,2,l,j,,,,,,,,,3,0,54,17,,,,,,,,,main,2,2,2,neutral,positive,l,l,1,0.6486281999968924,262.62378799999715,263.6389477999983,263.62228190000314,None,262.62378799999715,None,262.62378799999715,None,262.62378799999715,None,264.2723055700015,None,264.2723055700015,None,264.2723055700015,None,,,,,,,,,,,,,,106,2023-03-30_13h27.44.852,Main,2022.1.1,59.15749084582069,
positive,negative,2,l,j,,,,,,,,,3,1,55,14,,,,,,,,,main,2,2,2,negative,positive,l,l,1,0.5985450000007404,264.27572350000264,265.27480099999957,265.27480099999957,None,264.27572350000264,None,264.27572350000264,None,264.27572350000264,None,265.87222557000206,None,265.87222557000206,None,265.87222557000206,None,,,,,,,,,,,,,,106,2023-03-30_13h27.44.852,Main,2022.1.1,59.15749084582069,
negative,neutral,2,j,l,,,,,,,,,3,2,56,12,,,,,,,,,main,2,2,2,neutral,negative,j,j,1,0.667292099999031,265.8761768999975,266.8913102000006,266.87475229999836,None,265.8761768999975,None,265.8761768999975,None,265.8761768999975,None,267.5413067700036,None,267.5413067700036,None,267.5413067700036,None,,,,,,,,,,,,,,106,2023-03-30_13h27.44.852,Main,2022.1.1,59.15749084582069,
positive,positive,2,l,j,,,,,,,,,3,3,57,11,,,,,,,,,main,1,1,2,positive,positive,l,l,1,0.6296852000014042,267.54555000000255,268.55800810000073,268.54137929999706,None,267.54555000000255,None,267.54555000000255,None,267.54555000000255,None,269.17248376999925,None,269.17248376999925,None,269.17248376999925,None,,,,,,,,,,,,,,106,2023-03-30_13h27.44.852,Main,2022.1.1,59.15749084582069,
neutral,positive,2,k,k,,,,,,,,,3,4,58,13,,,,,,,,,main,2,2,2,positive,neutral,k,k,1,0.5671690000017406,269.17610550000245,270.19135220000317,270.1746703000026,None,269.17610550000245,None,269.17610550000245,None,269.17610550000245,None,270.74122526999855,None,270.74122526999855,None,270.74122526999855,None,,,,,,,,,,,,,,106,2023-03-30_13h27.44.852,Main,2022.1.1,59.15749084582069,
positive,neutral,1,l,j,,,,,,,,,3,5,59,8,,,,,,,,,main,2,2,1,neutral,positive,l,l,1,0.7296392999996897,270.7457202000005,271.75789310000255,271.7412678000037,None,270.7457202000005,None,270.7457202000005,None,270.7457202000005,None,272.4724034700019,None,272.4724034700019,None,272.4724034700019,None,,,,,,,,,,,,,,106,2023-03-30_13h27.44.852,Main,2022.1.1,59.15749084582069,
positive,negative,1,l,j,,,,,,,,,3,6,60,5,,,,,,,,,main,2,2,1,negative,positive,l,l,1,0.6147907999984454,272.4770301000026,273.4887024999989,273.4720440000019,None,272.4770301000026,None,272.4770301000026,None,272.4770301000026,None,274.08869786999713,None,274.08869786999713,None,274.08869786999713,None,,,,,,,,,,,,,,106,2023-03-30_13h27.44.852,Main,2022.1.1,59.15749084582069,
negative,positive,2,j,l,,,,,,,,,3,7,61,15,,,,,,,,,main,1,1,2,positive,negative,j,j,1,0.6983229999968898,274.0886277000027,275.0887161999999,275.0887161999999,None,274.0886277000027,None,274.0886277000027,None,274.0886277000027,None,275.788663969998,None,275.788663969998,None,275.788663969998,None,,,,,,,,,,,,,,106,2023-03-30_13h27.44.852,Main,2022.1.1,59.15749084582069,
negative,positive,1,j,l,,,,,,,,,3,8,62,6,,,,,,,,,main,1,1,1,positive,negative,j,j,1,0.6652709000045434,275.7891395999977,276.78868689999945,276.78868689999945,None,275.7891395999977,None,275.7891395999977,None,275.7891395999977,None,277.45536407000037,None,277.45536407000037,None,277.45536407000037,None,,,,,,,,,,,,,,106,2023-03-30_13h27.44.852,Main,2022.1.1,59.15749084582069,
positive,positive,1,l,j,,,,,,,,,3,9,63,2,,,,,,,,,main,2,2,1,positive,positive,l,l,1,0.6654832999993232,277.4619670000029,278.4744337000011,278.45783729999675,None,277.4619670000029,None,277.4619670000029,None,277.4619670000029,None,279.122308169998,None,279.122308169998,None,279.122308169998,None,,,,,,,,,,,,,,106,2023-03-30_13h27.44.852,Main,2022.1.1,59.15749084582069,
negative,neutral,1,j,l,,,,,,,,,3,10,64,3,,,,,,,,,main,2,2,1,neutral,negative,j,j,1,0.5982067000004463,279.12682940000377,280.1410776999983,280.12449370000104,None,279.12682940000377,None,279.12682940000377,None,279.12682940000377,None,280.7222832700034,None,280.7222832700034,None,280.7222832700034,None,,,,,,,,,,,,,,106,2023-03-30_13h27.44.852,Main,2022.1.1,59.15749084582069,
neutral,neutral,1,k,k,,,,,,,,,3,11,65,1,,,,,,,,,main,1,1,1,neutral,neutral,k,k,1,0.7815026999960537,280.7256043000016,281.7410757000034,281.7244447999983,None,280.7256043000016,None,280.7256043000016,None,280.7256043000016,None,282.5053027700022,None,282.5053027700022,None,282.5053027700022,None,,,,,,,,,,,,,,106,2023-03-30_13h27.44.852,Main,2022.1.1,59.15749084582069,
negative,negative,1,j,l,,,,,,,,,3,12,66,0,,,,,,,,,main,1,1,1,negative,negative,j,j,1,0.584305399999721,282.5113407000026,283.52429929999926,283.5077242999978,None,282.5113407000026,None,282.5113407000026,None,282.5113407000026,None,284.0909749699975,None,284.0909749699975,None,284.0909749699975,None,,,,,,,,,,,,,,106,2023-03-30_13h27.44.852,Main,2022.1.1,59.15749084582069,
neutral,negative,1,k,k,,,,,,,,,3,13,67,7,,,,,,,,,main,1,1,1,negative,neutral,k,k,1,0.6450568000000203,284.0954664000019,285.1051407999985,285.08847629999946,None,284.0954664000019,None,284.0954664000019,None,284.0954664000019,None,285.73842987000245,None,285.73842987000245,None,285.73842987000245,None,,,,,,,,,,,,,,106,2023-03-30_13h27.44.852,Main,2022.1.1,59.15749084582069,
negative,negative,2,j,l,,,,,,,,,3,14,68,9,,,,,,,,,main,1,1,2,negative,negative,j,l,0,0.5150161999990814,285.73873620000086,286.7384594999967,286.7384594999967,None,285.73873620000086,None,285.73873620000086,None,285.73873620000086,None,287.25512690000323,None,287.25512690000323,None,287.25512690000323,None,,,,,,,,,,,,,,106,2023-03-30_13h27.44.852,Main,2022.1.1,59.15749084582069,
neutral,negative,2,k,k,,,,,,,,,3,15,69,16,,,,,,,,,main,1,1,2,negative,neutral,k,k,1,0.8892966999992495,288.25514960000146,289.2576405,289.2409692000001,None,288.25514960000146,None,288.25514960000146,None,288.25514960000146,None,290.14095987000184,None,290.14095987000184,None,290.14095987000184,None,,,,,,,,,,,,,,106,2023-03-30_13h27.44.852,Main,2022.1.1,59.15749084582069,
neutral,neutral,2,k,k,,,,,,,,,3,16,70,10,,,,,,,,,main,1,1,2,neutral,neutral,k,k,1,0.5461116000005859,290.1439574000033,291.1575165999966,291.14089149999927,None,290.1439574000033,None,290.1439574000033,None,290.1439574000033,None,291.68873227000296,None,291.68873227000296,None,291.68873227000296,None,,,,,,,,,,,,,,106,2023-03-30_13h27.44.852,Main,2022.1.1,59.15749084582069,
neutral,positive,1,k,k,,,,,,,,,3,17,71,4,,,,,,,,,main,1,1,1,positive,neutral,k,k,1,0.8483577000006335,291.69217899999785,292.7074594000005,292.69087910000235,None,291.69217899999785,None,291.69217899999785,None,291.69217899999785,None,293.5386406700025,None,293.5386406700025,None,293.5386406700025,None,,,,,,,,,,,,,,106,2023-03-30_13h27.44.852,Main,2022.1.1,59.15749084582069,
positive,neutral,1,l,j,,,,,,,,,4,0,72,8,,,,,,,,,main,2,2,1,neutral,positive,l,l,1,0.7986600000003818,293.5420008000001,294.55750219999754,294.5408086000025,None,293.5420008000001,None,293.5420008000001,None,293.5420008000001,None,295.33862646999916,None,295.33862646999916,None,295.33862646999916,None,,,,,,,,,,,,,,106,2023-03-30_13h27.44.852,Main,2022.1.1,59.15749084582069,
neutral,negative,2,k,k,,,,,,,,,4,1,73,16,,,,,,,,,main,2,2,2,negative,neutral,k,k,1,0.7812701000002562,295.3422444000025,296.35484149999684,296.3381687000001,None,295.3422444000025,None,295.3422444000025,None,295.3422444000025,None,297.1215249700006,None,297.1215249700006,None,297.1215249700006,None,,,,,,,,,,,,,,106,2023-03-30_13h27.44.852,Main,2022.1.1,59.15749084582069,
positive,negative,1,l,j,,,,,,,,,4,2,74,5,,,,,,,,,main,1,1,1,negative,positive,l,l,1,0.6818207000032999,297.1218621000007,298.12156349999714,298.12156349999714,None,297.1218621000007,None,297.1218621000007,None,297.1218621000007,None,298.80486526999886,None,298.80486526999886,None,298.80486526999886,None,,,,,,,,,,,,,,106,2023-03-30_13h27.44.852,Main,2022.1.1,59.15749084582069,
negative,positive,2,j,l,,,,,,,,,4,3,75,15,,,,,,,,,main,1,1,2,positive,negative,j,j,1,0.6154729000045336,298.8084110999989,299.8239595999985,299.8073707000003,None,298.8084110999989,None,298.8084110999989,None,298.8084110999989,None,300.4218524700016,None,300.4218524700016,None,300.4218524700016,None,,,,,,,,,,,,,,106,2023-03-30_13h27.44.852,Main,2022.1.1,59.15749084582069,
neutral,positive,2,k,k,,,,,,,,,4,4,76,13,,,,,,,,,main,1,1,2,positive,neutral,k,k,1,0.5649906000035116,300.4252572999976,301.44071650000114,301.4239813000022,None,300.4252572999976,None,300.4252572999976,None,300.4252572999976,None,301.98846877000034,None,301.98846877000034,None,301.98846877000034,None,,,,,,,,,,,,,,106,2023-03-30_13h27.44.852,Main,2022.1.1,59.15749084582069,
positive,positive,2,l,j,,,,,,,,,4,5,77,11,,,,,,,,,main,1,1,2,positive,positive,l,l,1,0.6651914000030956,301.991878599998,303.0072233000028,302.99063800000295,None,301.991878599998,None,301.991878599998,None,301.991878599998,None,303.6550783699975,None,303.6550783699975,None,303.6550783699975,None,,,,,,,,,,,,,,106,2023-03-30_13h27.44.852,Main,2022.1.1,59.15749084582069,
neutral,neutral,1,k,k,,,,,,,,,4,6,78,1,,,,,,,,,main,1,1,1,neutral,neutral,k,k,1,0.5670912000059616,303.65841640000144,304.6738574999981,304.6572649000009,None,303.65841640000144,None,303.65841640000144,None,303.65841640000144,None,305.2238123699979,None,305.2238123699979,None,305.2238123699979,None,,,,,,,,,,,,,,106,2023-03-30_13h27.44.852,Main,2022.1.1,59.15749084582069,
neutral,positive,1,k,k,,,,,,,,,4,7,79,4,,,,,,,,,main,1,1,1,positive,neutral,k,k,1,0.5628903000033461,305.2266529999979,306.24050890000217,306.22389320000366,None,305.2266529999979,None,305.2266529999979,None,305.2266529999979,None,306.787999570003,None,306.787999570003,None,306.787999570003,None,,,,,,,,,,,,,,106,2023-03-30_13h27.44.852,Main,2022.1.1,59.15749084582069,
negative,negative,1,j,l,,,,,,,,,4,8,80,0,,,,,,,,,main,2,2,1,negative,negative,j,j,1,0.631258200002776,306.78883589999896,307.78799730000173,307.78799730000173,None,306.78883589999896,None,306.78883589999896,None,306.78883589999896,None,308.4213674699975,None,308.4213674699975,None,308.4213674699975,None,,,,,,,,,,,,,,106,2023-03-30_13h27.44.852,Main,2022.1.1,59.15749084582069,
neutral,negative,1,k,k,,,,,,,,,4,9,81,7,,,,,,,,,main,2,2,1,negative,neutral,k,k,1,0.6981511000049068,308.43800139999803,309.44048640000256,309.4238527999987,None,308.43800139999803,None,308.43800139999803,None,308.43800139999803,None,310.1213093700033,None,310.1213093700033,None,310.1213093700033,None,,,,,,,,,,,,,,106,2023-03-30_13h27.44.852,Main,2022.1.1,59.15749084582069,
positive,positive,1,l,j,,,,,,,,,4,10,82,2,,,,,,,,,main,2,2,1,positive,positive,l,l,1,0.6821576000002096,310.1278553000011,311.14035090000107,311.12373800000205,None,310.1278553000011,None,310.1278553000011,None,310.1278553000011,None,311.80491406999937,None,311.80491406999937,None,311.80491406999937,None,,,,,,,,,,,,,,106,2023-03-30_13h27.44.852,Main,2022.1.1,59.15749084582069,
positive,neutral,2,l,j,,,,,,,,,4,11,83,17,,,,,,,,,main,2,2,2,neutral,positive,l,l,1,0.7818272000004072,311.80862360000174,312.82372049999685,312.80711139999767,None,311.80862360000174,None,311.80862360000174,None,311.80862360000174,None,313.5882510700001,None,313.5882510700001,None,313.5882510700001,None,,,,,,,,,,,,,,106,2023-03-30_13h27.44.852,Main,2022.1.1,59.15749084582069,
negative,positive,1,j,l,,,,,,,,,4,12,84,6,,,,,,,,,main,2,2,1,positive,negative,j,j,1,0.6646837000007508,313.5919528000013,314.60699790000217,314.5903665000005,None,313.5919528000013,None,313.5919528000013,None,313.5919528000013,None,315.2545575700031,None,315.2545575700031,None,315.2545575700031,None,,,,,,,,,,,,,,106,2023-03-30_13h27.44.852,Main,2022.1.1,59.15749084582069,
neutral,neutral,2,k,k,,,,,,,,,4,13,85,10,,,,,,,,,main,2,2,2,neutral,neutral,k,k,1,0.6149674999978743,315.26083110000036,316.273758000003,316.2570293000026,None,315.26083110000036,None,315.26083110000036,None,315.26083110000036,None,316.8710640699981,None,316.8710640699981,None,316.8710640699981,None,,,,,,,,,,,,,,106,2023-03-30_13h27.44.852,Main,2022.1.1,59.15749084582069,
negative,negative,2,j,l,,,,,,,,,4,14,86,9,,,,,,,,,main,1,1,2,negative,negative,j,j,1,0.6650344999943627,316.87106330000097,317.87109249999776,317.87109249999776,None,316.87106330000097,None,316.87106330000097,None,316.87106330000097,None,318.5377487699996,None,318.5377487699996,None,318.5377487699996,None,,,,,,,,,,,,,,106,2023-03-30_13h27.44.852,Main,2022.1.1,59.15749084582069,
negative,neutral,2,j,l,,,,,,,,,4,15,87,12,,,,,,,,,main,2,2,2,neutral,negative,j,j,1,0.6818758000008529,318.537702900001,319.5402408000009,319.5402408000009,None,318.537702900001,None,318.537702900001,None,318.537702900001,None,320.22111257000216,None,320.22111257000216,None,320.22111257000216,None,,,,,,,,,,,,,,106,2023-03-30_13h27.44.852,Main,2022.1.1,59.15749084582069,
positive,negative,2,l,j,,,,,,,,,4,16,88,14,,,,,,,,,main,1,1,2,negative,positive,l,l,1,0.6822442000047886,320.22727940000186,321.24020420000306,321.22357719999854,None,320.22727940000186,None,320.22727940000186,None,320.22727940000186,None,321.90473407000246,None,321.90473407000246,None,321.90473407000246,None,,,,,,,,,,,,,,106,2023-03-30_13h27.44.852,Main,2022.1.1,59.15749084582069,
negative,neutral,1,j,l,,,,,,,,,4,17,89,3,,,,,,,,,main,2,2,1,neutral,negative,j,j,1,0.7649474999998347,321.9084015999979,322.92355050000333,322.906902900002,None,321.9084015999979,None,321.9084015999979,None,321.9084015999979,None,323.6713649700003,None,323.6713649700003,None,323.6713649700003,None,,,,,,,,,,,,,,106,2023-03-30_13h27.44.852,Main,2022.1.1,59.15749084582069,
neutral,negative,1,k,k,,,,,,,,,5,0,90,7,,,,,,,,,main,1,1,1,negative,neutral,k,k,1,0.6485839000015403,323.6747428000017,324.6901125000004,324.6735218000031,None,323.6747428000017,None,323.6747428000017,None,323.6747428000017,None,325.32131946999726,None,325.32131946999726,None,325.32131946999726,None,,,,,,,,,,,,,,106,2023-03-30_13h27.44.852,Main,2022.1.1,59.15749084582069,
neutral,negative,2,k,k,,,,,,,,,5,1,91,16,,,,,,,,,main,2,2,2,negative,neutral,k,k,1,0.5587707000013324,325.32566020000377,326.34007589999965,326.3235485999976,None,325.32566020000377,None,325.32566020000377,None,325.32566020000377,None,326.88166856999743,None,326.88166856999743,None,326.88166856999743,None,,,,,,,,,,,,,,106,2023-03-30_13h27.44.852,Main,2022.1.1,59.15749084582069,
positive,negative,2,l,j,,,,,,,,,5,2,92,14,,,,,,,,,main,1,1,2,negative,positive,l,l,1,0.8873313000003691,326.89239090000046,327.9041689000005,327.8708676000024,None,326.89239090000046,None,326.89239090000046,None,326.89239090000046,None,328.77083736999776,None,328.77083736999776,None,328.77083736999776,None,,,,,,,,,,,,,,106,2023-03-30_13h27.44.852,Main,2022.1.1,59.15749084582069,
negative,neutral,1,j,l,,,,,,,,,5,3,93,3,,,,,,,,,main,2,2,1,neutral,negative,j,j,1,0.5652921000000788,328.7717666000026,329.77088899999944,329.77088899999944,None,328.7717666000026,None,328.7717666000026,None,328.7717666000026,None,330.3375758700029,None,330.3375758700029,None,330.3375758700029,None,,,,,,,,,,,,,,106,2023-03-30_13h27.44.852,Main,2022.1.1,59.15749084582069,
neutral,neutral,1,k,k,,,,,,,,,5,4,94,1,,,,,,,,,main,2,2,1,neutral,neutral,k,k,1,0.6509529999966617,330.34100670000043,331.3401030000023,331.3401030000023,None,330.34100670000043,None,330.34100670000043,None,330.34100670000043,None,331.9900342700028,None,331.9900342700028,None,331.9900342700028,None,,,,,,,,,,,,,,106,2023-03-30_13h27.44.852,Main,2022.1.1,59.15749084582069,
negative,negative,1,j,l,,,,,,,,,5,5,95,0,,,,,,,,,main,2,2,1,negative,negative,j,j,1,0.6125184999982594,331.99436389999755,333.0066074999995,332.99004409999907,None,331.99436389999755,None,331.99436389999755,None,331.99436389999755,None,333.60414467000084,None,333.60414467000084,None,333.60414467000084,None,,,,,,,,,,,,,,106,2023-03-30_13h27.44.852,Main,2022.1.1,59.15749084582069,
positive,neutral,1,l,j,,,,,,,,,5,6,96,8,,,,,,,,,main,1,1,1,neutral,positive,l,l,1,0.565229800005909,333.6101972000033,334.6233104999992,334.60667359999934,None,333.6101972000033,None,333.6101972000033,None,333.6101972000033,None,335.1711445700028,None,335.1711445700028,None,335.1711445700028,None,,,,,,,,,,,,,,106,2023-03-30_13h27.44.852,Main,2022.1.1,59.15749084582069,
positive,negative,1,l,j,,,,,,,,,5,7,97,5,,,,,,,,,main,2,2,1,negative,positive,l,l,1,0.518306499994651,335.17612160000135,336.1877353000018,336.17326799999864,None,335.17612160000135,None,335.17612160000135,None,335.17612160000135,None,336.6898383699998,None,336.6898383699998,None,336.6898383699998,None,,,,,,,,,,,,,,106,2023-03-30_13h27.44.852,Main,2022.1.1,59.15749084582069,
positive,positive,2,l,j,,,,,,,,,5,8,98,11,,,,,,,,,main,1,1,2,positive,positive,l,l,1,0.8402136000004248,336.6941236999992,337.7065229,337.68985319999774,None,336.6941236999992,None,336.6941236999992,None,336.6941236999992,None,338.5325038700001,None,338.5325038700001,None,338.5325038700001,None,,,,,,,,,,,,,,106,2023-03-30_13h27.44.852,Main,2022.1.1,59.15749084582069,
negative,negative,2,j,l,,,,,,,,,5,9,99,9,,,,,,,,,main,2,2,2,negative,negative,j,j,1,0.7026851000046008,338.5326236999972,339.53731289999996,339.5206431999977,None,338.5326236999972,None,338.5326236999972,None,338.5326236999972,None,340.2372714700003,None,340.2372714700003,None,340.2372714700003,None,,,,,,,,,,,,,,106,2023-03-30_13h27.44.852,Main,2022.1.1,59.15749084582069,
negative,positive,2,j,l,,,,,,,,,5,10,100,15,,,,,,,,,main,2,2,2,positive,negative,j,j,1,0.5490433000013581,340.23721710000245,341.2399140999987,341.22318280000036,None,340.23721710000245,None,340.23721710000245,None,340.23721710000245,None,341.7876193700038,None,341.7876193700038,None,341.7876193700038,None,,,,,,,,,,,,,,106,2023-03-30_13h27.44.852,Main,2022.1.1,59.15749084582069,
negative,positive,1,j,l,,,,,,,,,5,11,101,6,,,,,,,,,main,2,2,1,positive,negative,j,j,1,0.6983207000012044,341.7915914999976,342.8064063999991,342.78977889999805,None,341.7915914999976,None,341.7915914999976,None,341.7915914999976,None,343.4876241700011,None,343.4876241700011,None,343.4876241700011,None,,,,,,,,,,,,,,106,2023-03-30_13h27.44.852,Main,2022.1.1,59.15749084582069,
positive,positive,1,l,j,,,,,,,,,5,12,102,2,,,,,,,,,main,1,1,1,positive,positive,l,l,1,0.5883599000007962,343.49120309999853,344.5063636999985,344.4897800000035,None,343.49120309999853,None,343.49120309999853,None,343.49120309999853,None,345.07316907000205,None,345.07316907000205,None,345.07316907000205,None,,,,,,,,,,,,,,106,2023-03-30_13h27.44.852,Main,2022.1.1,59.15749084582069,
neutral,positive,1,k,k,,,,,,,,,5,13,103,4,,,,,,,,,main,1,1,1,positive,neutral,k,k,1,0.6248942000020179,345.08168260000093,346.0895986999967,346.07297729999846,None,345.08168260000093,None,345.08168260000093,None,345.08168260000093,None,346.7038521699986,None,346.7038521699986,None,346.7038521699986,None,,,,,,,,,,,,,,106,2023-03-30_13h27.44.852,Main,2022.1.1,59.15749084582069,
neutral,positive,2,k,k,,,,,,,,,5,14,104,13,,,,,,,,,main,2,2,2,positive,neutral,k,k,1,0.5843236000000616,346.7074805000011,347.7229656999989,347.7063870999991,None,346.7074805000011,None,346.7074805000011,None,346.7074805000011,None,348.2896863699978,None,348.2896863699978,None,348.2896863699978,None,,,,,,,,,,,,,,106,2023-03-30_13h27.44.852,Main,2022.1.1,59.15749084582069,
positive,neutral,2,l,j,,,,,,,,,5,15,105,17,,,,,,,,,main,2,2,2,neutral,positive,l,l,1,0.7291858999960823,348.29410890000145,349.3037861999983,349.2871331999995,None,348.29410890000145,None,348.29410890000145,None,348.29410890000145,None,350.02040536999704,None,350.02040536999704,None,350.02040536999704,None,,,,,,,,,,,,,,106,2023-03-30_13h27.44.852,Main,2022.1.1,59.15749084582069,
negative,neutral,2,j,l,,,,,,,,,5,16,106,12,,,,,,,,,main,2,2,2,neutral,negative,j,j,1,0.6316960000040126,350.0219156000021,351.0371640000012,351.02046220000193,None,350.0219156000021,None,350.0219156000021,None,350.0219156000021,None,351.65410717000196,None,351.65410717000196,None,351.65410717000196,None,,,,,,,,,,,,,,106,2023-03-30_13h27.44.852,Main,2022.1.1,59.15749084582069,
neutral,neutral,2,k,k,,,,,,,,,5,17,107,10,,,,,,,,,main,2,2,2,neutral,neutral,k,k,1,0.7505067000020063,351.6577940999996,352.672908200002,352.6541925999991,None,351.6577940999996,None,351.6577940999996,None,351.6577940999996,None,353.40614437000187,None,353.40614437000187,None,353.40614437000187,None,,,,,,,,,,,,,,106,2023-03-30_13h27.44.852,Main,2022.1.1,59.15749084582069,
negative,neutral,2,j,l,,,,,,,,,6,0,108,12,,,,,,,,,main,2,2,2,neutral,negative,j,j,1,0.6124253999951179,353.4094422999988,354.42281730000104,354.40622319999966,None,353.4094422999988,None,353.4094422999988,None,353.4094422999988,None,355.0204054699978,None,355.0204054699978,None,355.0204054699978,None,,,,,,,,,,,,,,106,2023-03-30_13h27.44.852,Main,2022.1.1,59.15749084582069,
neutral,negative,1,k,k,,,,,,,,,6,1,109,7,,,,,,,,,main,1,1,1,negative,neutral,k,k,1,0.5486596999980975,355.0265100999968,356.03950359999726,356.0228883000018,None,355.0265100999968,None,355.0265100999968,None,355.0265100999968,None,356.57067537000404,None,356.57067537000404,None,356.57067537000404,None,,,,,,,,,,,,,,106,2023-03-30_13h27.44.852,Main,2022.1.1,59.15749084582069,
neutral,positive,1,k,k,,,,,,,,,6,2,110,4,,,,,,,,,main,2,2,1,positive,neutral,k,k,1,0.7654424000065774,356.57417839999835,357.58943120000185,357.572828999997,None,356.57417839999835,None,356.57417839999835,None,356.57417839999835,None,358.33728586999933,None,358.33728586999933,None,358.33728586999933,None,,,,,,,,,,,,,,106,2023-03-30_13h27.44.852,Main,2022.1.1,59.15749084582069,
positive,neutral,1,l,j,,,,,,,,,6,3,111,8,,,,,,,,,main,2,2,1,neutral,positive,l,l,1,0.7313493000037852,358.3408513999966,359.35356570000295,359.33689779999986,None,358.3408513999966,None,358.3408513999966,None,358.3408513999966,None,360.0702963699994,None,360.0702963699994,None,360.0702963699994,None,,,,,,,,,,,,,,106,2023-03-30_13h27.44.852,Main,2022.1.1,59.15749084582069,
neutral,positive,2,k,k,,,,,,,,,6,4,112,13,,,,,,,,,main,1,1,2,positive,neutral,k,k,1,0.5824318000013591,360.0703599999979,361.07023050000134,361.07023050000134,None,360.0703599999979,None,360.0703599999979,None,360.0703599999979,None,361.65354086999724,None,361.65354086999724,None,361.65354086999724,None,,,,,,,,,,,,,,106,2023-03-30_13h27.44.852,Main,2022.1.1,59.15749084582069,
positive,negative,2,l,j,,,,,,,,,6,5,113,14,,,,,,,,,main,1,1,2,negative,positive,l,k,0,0.5165708999993512,361.6705882000024,362.67266630000086,362.6560750999997,None,361.6705882000024,None,361.6705882000024,None,361.6705882000024,None,363.1725605000029,None,363.1725605000029,None,363.1725605000029,None,,,,,,,,,,,,,,106,2023-03-30_13h27.44.852,Main,2022.1.1,59.15749084582069,
neutral,negative,2,k,k,,,,,,,,,6,6,114,16,,,,,,,,,main,1,1,2,negative,neutral,k,k,1,0.5842998000007356,364.1707325000025,365.17262109999865,365.1560109999991,None,364.1707325000025,None,364.1707325000025,None,364.1707325000025,None,365.75348317000027,None,365.75348317000027,None,365.75348317000027,None,,,,,,,,,,,,,,106,2023-03-30_13h27.44.852,Main,2022.1.1,59.15749084582069,
negative,negative,2,j,l,,,,,,,,,6,7,115,9,,,,,,,,,main,2,2,2,negative,negative,j,j,1,0.8160864000019501,365.75968190000276,366.772573299997,366.75595030000113,None,365.75968190000276,None,365.75968190000276,None,365.75968190000276,None,367.57043396999944,None,367.57043396999944,None,367.57043396999944,None,,,,,,,,,,,,,,106,2023-03-30_13h27.44.852,Main,2022.1.1,59.15749084582069,
positive,positive,2,l,j,,,,,,,,,6,8,116,11,,,,,,,,,main,2,2,2,positive,positive,l,l,1,0.669916300001205,367.5749003000019,368.58913700000267,368.57263960000273,None,367.5749003000019,None,367.5749003000019,None,367.5749003000019,None,369.2425458699989,None,369.2425458699989,None,369.2425458699989,None,,,,,,,,,,,,,,106,2023-03-30_13h27.44.852,Main,2022.1.1,59.15749084582069,
negative,negative,1,j,l,,,,,,,,,6,9,117,0,,,,,,,,,main,2,2,1,negative,negative,j,j,1,0.6759308999971836,369.2528422000032,370.2535551999972,370.23898850000114,None,369.2528422000032,None,369.2528422000032,None,369.2528422000032,None,370.92022447000346,None,370.92022447000346,None,370.92022447000346,None,,,,,,,,,,,,,,106,2023-03-30_13h27.44.852,Main,2022.1.1,59.15749084582069,
positive,neutral,2,l,j,,,,,,,,,6,10,118,17,,,,,,,,,main,1,1,2,neutral,positive,l,l,1,0.6977131999956327,370.9242216999992,371.93689989999984,371.9202349999978,None,370.9242216999992,None,370.9242216999992,None,370.9242216999992,None,372.62020107000427,None,372.62020107000427,None,372.62020107000427,None,,,,,,,,,,,,,,106,2023-03-30_13h27.44.852,Main,2022.1.1,59.15749084582069,
neutral,neutral,2,k,k,,,,,,,,,6,11,119,10,,,,,,,,,main,2,2,2,neutral,neutral,k,k,1,0.632850200003304,372.6234445000009,373.6389754999982,373.6223497000028,None,372.6234445000009,None,372.6234445000009,None,372.6234445000009,None,374.2534508700017,None,374.2534508700017,None,374.2534508700017,None,,,,,,,,,,,,,,106,2023-03-30_13h27.44.852,Main,2022.1.1,59.15749084582069,
negative,neutral,1,j,l,,,,,,,,,6,12,120,3,,,,,,,,,main,1,1,1,neutral,negative,j,j,1,0.7486401999994996,374.2597014999992,375.27231619999657,375.2535244000028,None,374.2597014999992,None,374.2597014999992,None,374.2597014999992,None,376.00471096999973,None,376.00471096999973,None,376.00471096999973,None,,,,,,,,,,,,,,106,2023-03-30_13h27.44.852,Main,2022.1.1,59.15749084582069,
positive,positive,1,l,j,,,,,,,,,6,13,121,2,,,,,,,,,main,1,1,1,positive,positive,l,l,1,0.6161247999989428,376.01003740000306,377.0221500999978,377.00347619999957,None,376.01003740000306,None,376.01003740000306,None,376.01003740000306,None,377.6222263700009,None,377.6222263700009,None,377.6222263700009,None,,,,,,,,,,,,,,106,2023-03-30_13h27.44.852,Main,2022.1.1,59.15749084582069,
negative,positive,2,j,l,,,,,,,,,6,14,122,15,,,,,,,,,main,1,1,2,positive,negative,j,j,1,0.6817657999999938,377.6252000000022,378.6367931999994,378.62233800000104,None,377.6252000000022,None,377.6252000000022,None,377.6252000000022,None,379.3055419700002,None,379.3055419700002,None,379.3055419700002,None,,,,,,,,,,,,,,106,2023-03-30_13h27.44.852,Main,2022.1.1,59.15749084582069,
negative,positive,1,j,l,,,,,,,,,6,15,123,6,,,,,,,,,main,2,2,1,positive,negative,j,j,1,0.6381486000027508,379.30966089999856,380.320137900002,380.3055963000006,None,379.30966089999856,None,379.30966089999856,None,379.30966089999856,None,380.9459727699985,None,380.9459727699985,None,380.9459727699985,None,,,,,,,,,,,,,,106,2023-03-30_13h27.44.852,Main,2022.1.1,59.15749084582069,
neutral,neutral,1,k,k,,,,,,,,,6,16,124,1,,,,,,,,,main,2,2,1,neutral,neutral,k,k,1,0.5232719000050565,380.9616599000001,381.9697365000029,381.93642669999826,None,380.9616599000001,None,380.9616599000001,None,380.9616599000001,None,382.46970397000115,None,382.46970397000115,None,382.46970397000115,None,,,,,,,,,,,,,,106,2023-03-30_13h27.44.852,Main,2022.1.1,59.15749084582069,
positive,negative,1,l,j,,,,,,,,,6,17,125,5,,,,,,,,,main,1,1,1,negative,positive,l,l,1,0.8644041000006837,382.48639659999753,383.486450700002,383.4697767999969,None,382.48639659999753,None,382.48639659999753,None,382.48639659999753,None,384.33676357000223,None,384.33676357000223,None,384.33676357000223,None,,,,,,,,,,,,,,106,2023-03-30_13h27.44.852,Main,2022.1.1,59.15749084582069,
negative,positive,1,j,l,,,,,,,,,7,0,126,6,,,,,,,,,main,2,2,1,positive,negative,j,j,1,0.6673691000032704,384.34040950000053,385.3555112999966,385.33887089999916,None,384.34040950000053,None,384.34040950000053,None,384.34040950000053,None,386.00550437000203,None,386.00550437000203,None,386.00550437000203,None,,,,,,,,,,,,,,106,2023-03-30_13h27.44.852,Main,2022.1.1,59.15749084582069,
positive,neutral,2,l,j,,,,,,,,,7,1,127,17,,,,,,,,,main,2,2,2,neutral,positive,l,l,1,0.8129579999949783,386.0088512000002,387.0221870000023,387.00553200000286,None,386.0088512000002,None,386.0088512000002,None,386.0088512000002,None,387.8200677699977,None,387.8200677699977,None,387.8200677699977,None,,,,,,,,,,,,,,106,2023-03-30_13h27.44.852,Main,2022.1.1,59.15749084582069,
neutral,neutral,1,k,k,,,,,,,,,7,2,128,1,,,,,,,,,main,1,1,1,neutral,neutral,k,k,1,1.032174699997995,387.8236359000002,388.83886319999874,388.82212589999835,None,387.8236359000002,None,387.8236359000002,None,387.8236359000002,None,389.8529886700024,None,389.8529886700024,None,389.8529886700024,None,,,,,,,,,,,,,,106,2023-03-30_13h27.44.852,Main,2022.1.1,59.15749084582069,
negative,neutral,1,j,l,,,,,,,,,7,3,129,3,,,,,,,,,main,2,2,1,neutral,negative,j,j,1,0.7318217000065488,389.8597813000015,390.8824542000002,390.8601381999979,None,389.8597813000015,None,389.8597813000015,None,389.8597813000015,None,391.5861500700019,None,391.5861500700019,None,391.5861500700019,None,,,,,,,,,,,,,,106,2023-03-30_13h27.44.852,Main,2022.1.1,59.15749084582069,
neutral,positive,2,k,k,,,,,,,,,7,4,130,13,,,,,,,,,main,1,1,2,positive,neutral,k,k,1,0.7475434000007226,391.60288079999737,392.6028342999998,392.58617129999766,None,391.60288079999737,None,391.60288079999737,None,391.60288079999737,None,393.3362149700013,None,393.3362149700013,None,393.3362149700013,None,,,,,,,,,,,,,,106,2023-03-30_13h27.44.852,Main,2022.1.1,59.15749084582069,
positive,negative,1,l,j,,,,,,,,,7,5,131,5,,,,,,,,,main,2,2,1,negative,positive,l,l,1,0.6344950000056997,393.33952639999916,394.3387406999973,394.3387406999973,None,393.33952639999916,None,393.33952639999916,None,393.33952639999916,None,394.9720099700033,None,394.9720099700033,None,394.9720099700033,None,,,,,,,,,,,,,,106,2023-03-30_13h27.44.852,Main,2022.1.1,59.15749084582069,
negative,positive,2,j,l,,,,,,,,,7,6,132,15,,,,,,,,,main,1,1,2,positive,negative,j,j,1,0.6648821999988286,394.97531940000044,395.9886461999995,395.97202429999743,None,394.97531940000044,None,394.97531940000044,None,394.97531940000044,None,396.63865926999716,None,396.63865926999716,None,396.63865926999716,None,,,,,,,,,,,,,,106,2023-03-30_13h27.44.852,Main,2022.1.1,59.15749084582069,
positive,positive,1,l,j,,,,,,,,,7,7,133,2,,,,,,,,,main,2,2,1,positive,positive,l,l,1,0.965144900001178,396.64178620000166,397.65523779999785,397.6386366000006,None,396.64178620000166,None,396.64178620000166,None,396.64178620000166,None,398.6051510700025,None,398.6051510700025,None,398.6051510700025,None,,,,,,,,,,,,,,106,2023-03-30_13h27.44.852,Main,2022.1.1,59.15749084582069,
negative,negative,1,j,l,,,,,,,,,7,8,134,0,,,,,,,,,main,1,1,1,negative,negative,j,j,1,0.6152854999963893,398.6082358999993,399.6219581999976,399.60526350000146,None,398.6082358999993,None,398.6082358999993,None,398.6082358999993,None,400.22181777000225,None,400.22181777000225,None,400.22181777000225,None,,,,,,,,,,,,,,106,2023-03-30_13h27.44.852,Main,2022.1.1,59.15749084582069,
negative,neutral,2,j,l,,,,,,,,,7,9,135,12,,,,,,,,,main,1,1,2,neutral,negative,j,j,1,0.761495400001877,400.2260932999998,401.2359779000035,401.2193005000008,None,400.2260932999998,None,400.2260932999998,None,400.2260932999998,None,401.9860045700014,None,401.9860045700014,None,401.9860045700014,None,,,,,,,,,,,,,,106,2023-03-30_13h27.44.852,Main,2022.1.1,59.15749084582069,
positive,negative,2,l,j,,,,,,,,,7,10,136,14,,,,,,,,,main,2,2,2,negative,positive,l,l,1,0.7320399000018369,401.9896341999993,403.0027048999982,402.9860161999968,None,401.9896341999993,None,401.9896341999993,None,401.9896341999993,None,403.7195539700013,None,403.7195539700013,None,403.7195539700013,None,,,,,,,,,,,,,,106,2023-03-30_13h27.44.852,Main,2022.1.1,59.15749084582069,
neutral,negative,2,k,k,,,,,,,,,7,11,137,16,,,,,,,,,main,2,2,2,negative,neutral,k,k,1,0.5175738000034471,403.72568709999905,404.738357299997,404.72185880000325,None,403.72568709999905,None,403.72568709999905,None,403.72568709999905,None,405.2385352699974,None,405.2385352699974,None,405.2385352699974,None,,,,,,,,,,,,,,106,2023-03-30_13h27.44.852,Main,2022.1.1,59.15749084582069,
neutral,neutral,2,k,k,,,,,,,,,7,12,138,10,,,,,,,,,main,2,2,2,neutral,neutral,k,k,1,0.5628529000023264,405.2416080999974,406.25506199999654,406.2384751999998,None,405.2416080999974,None,405.2416080999974,None,405.2416080999974,None,406.80293937000243,None,406.80293937000243,None,406.80293937000243,None,,,,,,,,,,,,,,106,2023-03-30_13h27.44.852,Main,2022.1.1,59.15749084582069,
negative,negative,2,j,l,,,,,,,,,7,13,139,9,,,,,,,,,main,1,1,2,negative,negative,j,j,1,0.6814643999969121,406.8065465000036,407.8217453000034,407.80510030000005,None,406.8065465000036,None,406.8065465000036,None,406.8065465000036,None,408.48622617000075,None,408.48622617000075,None,408.48622617000075,None,,,,,,,,,,,,,,106,2023-03-30_13h27.44.852,Main,2022.1.1,59.15749084582069,
positive,positive,2,l,j,,,,,,,,,7,14,140,11,,,,,,,,,main,1,1,2,positive,positive,l,l,1,0.7820101999968756,408.48946669999714,409.5049797000029,409.48838740000065,None,408.48946669999714,None,408.48946669999714,None,408.48946669999714,None,410.2694935700027,None,410.2694935700027,None,410.2694935700027,None,,,,,,,,,,,,,,106,2023-03-30_13h27.44.852,Main,2022.1.1,59.15749084582069,
neutral,negative,1,k,k,,,,,,,,,7,15,141,7,,,,,,,,,main,1,1,1,negative,neutral,k,k,1,0.6811203999968711,410.272904999998,411.2857453999968,411.26908399999957,None,410.272904999998,None,410.272904999998,None,410.272904999998,None,411.95236307000306,None,411.95236307000306,None,411.95236307000306,None,,,,,,,,,,,,,,106,2023-03-30_13h27.44.852,Main,2022.1.1,59.15749084582069,
positive,neutral,1,l,j,,,,,,,,,7,16,142,8,,,,,,,,,main,2,2,1,neutral,positive,l,l,1,0.5993017000000691,411.95237810000253,412.95248020000145,412.95248020000145,None,411.95237810000253,None,411.95237810000253,None,411.95237810000253,None,413.5527948700008,None,413.5527948700008,None,413.5527948700008,None,,,,,,,,,,,,,,106,2023-03-30_13h27.44.852,Main,2022.1.1,59.15749084582069,
neutral,positive,1,k,k,,,,,,,,,7,17,143,4,,,,,,,,,main,2,2,1,positive,neutral,k,k,1,0.6305003000015859,413.55727040000056,414.57154699999955,414.5549686000013,None,413.55727040000056,None,413.55727040000056,None,413.55727040000056,None,415.18575567000227,None,415.18575567000227,None,415.18575567000227,None,,,,,,,,,,,,,,106,2023-03-30_13h27.44.852,Main,2022.1.1,59.15749084582069,
positive,negative,2,l,j,,,,,,,,,8,0,144,14,,,,,,,,,main,1,1,2,negative,positive,l,l,1,0.6843462999968324,415.19212849999894,416.2048452000017,416.18823639999755,None,415.19212849999894,None,415.19212849999894,None,415.19212849999894,None,416.8716715700037,None,416.8716715700037,None,416.8716715700037,None,,,,,,,,,,,,,,106,2023-03-30_13h27.44.852,Main,2022.1.1,59.15749084582069,
positive,negative,1,l,j,,,,,,,,,8,1,145,5,,,,,,,,,main,2,2,1,negative,positive,l,l,1,0.6628650999991805,416.8749121000001,417.88812000000325,417.8715433000034,None,416.8749121000001,None,416.8749121000001,None,416.8749121000001,None,418.53599287000253,None,418.53599287000253,None,418.53599287000253,None,,,,,,,,,,,,,,106,2023-03-30_13h27.44.852,Main,2022.1.1,59.15749084582069,
neutral,negative,2,k,k,,,,,,,,,8,2,146,16,,,,,,,,,main,2,2,2,negative,neutral,k,k,1,0.5503920000046492,418.53954279999743,419.5547210000004,419.53818370000226,None,418.53954279999743,None,418.53954279999743,None,418.53954279999743,None,420.08807206999774,None,420.08807206999774,None,420.08807206999774,None,,,,,,,,,,,,,,106,2023-03-30_13h27.44.852,Main,2022.1.1,59.15749084582069,
negative,negative,2,j,l,,,,,,,,,8,3,147,9,,,,,,,,,main,2,2,2,negative,negative,j,j,1,0.6294940000007045,420.0908969000011,421.10222729999805,421.0855564000012,None,420.0908969000011,None,420.0908969000011,None,420.0908969000011,None,421.71888617000224,None,421.71888617000224,None,421.71888617000224,None,,,,,,,,,,,,,,106,2023-03-30_13h27.44.852,Main,2022.1.1,59.15749084582069,
positive,positive,1,l,j,,,,,,,,,8,4,148,2,,,,,,,,,main,2,2,1,positive,positive,l,l,1,0.7819110999989789,421.7191046000007,422.7189167999968,422.7189167999968,None,421.7191046000007,None,421.7191046000007,None,421.7191046000007,None,423.5022090699975,None,423.5022090699975,None,423.5022090699975,None,,,,,,,,,,,,,,106,2023-03-30_13h27.44.852,Main,2022.1.1,59.15749084582069,
neutral,positive,2,k,k,,,,,,,,,8,5,149,13,,,,,,,,,main,2,2,2,positive,neutral,k,k,1,0.5324000000036904,423.50297200000205,424.5022195999991,424.5022195999991,None,423.50297200000205,None,423.50297200000205,None,423.50297200000205,None,425.0363525699984,None,425.0363525699984,None,425.0363525699984,None,,,,,,,,,,,,,,106,2023-03-30_13h27.44.852,Main,2022.1.1,59.15749084582069,
neutral,positive,1,k,k,,,,,,,,,8,6,150,4,,,,,,,,,main,2,2,1,positive,neutral,k,j,0,0.8143285999976797,425.0427071000013,426.0547026999993,426.0379985000036,None,425.0427071000013,None,425.0427071000013,None,425.0427071000013,None,426.85471289999987,None,426.85471289999987,None,426.85471289999987,None,,,,,,,,,,,,,,106,2023-03-30_13h27.44.852,Main,2022.1.1,59.15749084582069,
positive,neutral,2,l,j,,,,,,,,,8,7,151,17,,,,,,,,,main,1,1,2,neutral,positive,l,l,1,0.8515077000047313,427.8528013999967,428.854582400003,428.8380591000023,None,427.8528013999967,None,427.8528013999967,None,427.8528013999967,None,429.70242027000205,None,429.70242027000205,None,429.70242027000205,None,,,,,,,,,,,,,,106,2023-03-30_13h27.44.852,Main,2022.1.1,59.15749084582069,
negative,negative,1,j,l,,,,,,,,,8,8,152,0,,,,,,,,,main,1,1,1,negative,negative,j,j,1,0.6148518999980297,429.70631870000216,430.72127960000216,430.7046130000017,None,429.70631870000216,None,429.70631870000216,None,429.70631870000216,None,431.3190814700036,None,431.3190814700036,None,431.3190814700036,None,,,,,,,,,,,,,,106,2023-03-30_13h27.44.852,Main,2022.1.1,59.15749084582069,
negative,neutral,1,j,l,,,,,,,,,8,9,153,3,,,,,,,,,main,2,2,1,neutral,negative,j,j,1,0.6135695999983,431.3234166999973,432.3353594,432.31869390000065,None,431.3234166999973,None,431.3234166999973,None,431.3234166999973,None,432.9352963699974,None,432.9352963699974,None,432.9352963699974,None,,,,,,,,,,,,,,106,2023-03-30_13h27.44.852,Main,2022.1.1,59.15749084582069,
positive,neutral,1,l,j,,,,,,,,,8,10,154,8,,,,,,,,,main,1,1,1,neutral,positive,l,l,1,0.7493150000009337,432.9352672000023,433.9353581000032,433.9353581000032,None,432.9352672000023,None,432.9352672000023,None,432.9352672000023,None,434.68593306999975,None,434.68593306999975,None,434.68593306999975,None,,,,,,,,,,,,,,106,2023-03-30_13h27.44.852,Main,2022.1.1,59.15749084582069,
negative,positive,1,j,l,,,,,,,,,8,11,155,6,,,,,,,,,main,1,1,1,positive,negative,j,j,1,0.9658590999970329,434.69225610000285,435.7045109000028,435.68786569999793,None,434.69225610000285,None,434.69225610000285,None,434.69225610000285,None,436.6522768699986,None,436.6522768699986,None,436.6522768699986,None,,,,,,,,,,,,,,106,2023-03-30_13h27.44.852,Main,2022.1.1,59.15749084582069,
negative,positive,2,j,l,,,,,,,,,8,12,156,15,,,,,,,,,main,1,1,2,positive,negative,j,j,1,0.6297807000009925,436.6569604000033,437.67108729999745,437.65446350000275,None,436.6569604000033,None,436.6569604000033,None,436.6569604000033,None,438.28525327000244,None,438.28525327000244,None,438.28525327000244,None,,,,,,,,,,,,,,106,2023-03-30_13h27.44.852,Main,2022.1.1,59.15749084582069,
negative,neutral,2,j,l,,,,,,,,,8,13,157,12,,,,,,,,,main,2,2,2,neutral,negative,j,j,1,0.6489622000008239,438.2913275000028,439.3043408000012,439.2877507000012,None,438.2913275000028,None,438.2913275000028,None,438.2913275000028,None,439.93552727000207,None,439.93552727000207,None,439.93552727000207,None,,,,,,,,,,,,,,106,2023-03-30_13h27.44.852,Main,2022.1.1,59.15749084582069,
neutral,neutral,2,k,k,,,,,,,,,8,14,158,10,,,,,,,,,main,2,2,2,neutral,neutral,k,k,1,0.6982863000012003,439.9390571999975,440.95250079999823,440.93775319999986,None,439.9390571999975,None,439.9390571999975,None,439.9390571999975,None,441.63547376999924,None,441.63547376999924,None,441.63547376999924,None,,,,,,,,,,,,,,106,2023-03-30_13h27.44.852,Main,2022.1.1,59.15749084582069,
neutral,negative,1,k,k,,,,,,,,,8,15,159,7,,,,,,,,,main,2,2,1,negative,neutral,k,k,1,1.1148723000005702,441.63895120000234,442.65173810000124,442.6350831000018,None,441.63895120000234,None,441.63895120000234,None,441.63895120000234,None,443.75176897000057,None,443.75176897000057,None,443.75176897000057,None,,,,,,,,,,,,,,106,2023-03-30_13h27.44.852,Main,2022.1.1,59.15749084582069,
neutral,neutral,1,k,k,,,,,,,,,8,16,160,1,,,,,,,,,main,1,1,1,neutral,neutral,k,k,1,0.5819972999961465,443.75183110000216,444.75180679999903,444.75180679999903,None,443.75183110000216,None,443.75183110000216,None,443.75183110000216,None,445.33545116999886,None,445.33545116999886,None,445.33545116999886,None,,,,,,,,,,,,,,106,2023-03-30_13h27.44.852,Main,2022.1.1,59.15749084582069,
positive,positive,2,l,j,,,,,,,,,8,17,161,11,,,,,,,,,main,1,1,2,positive,positive,l,l,1,0.8839313999997103,445.3388197000022,446.35421450000285,446.3375759999981,None,445.3388197000022,None,445.3388197000022,None,445.3388197000022,None,447.22083727000137,None,447.22083727000137,None,447.22083727000137,None,,,,,,,,,,,,,,106,2023-03-30_13h27.44.852,Main,2022.1.1,59.15749084582069,
positive,positive,1,l,j,,,,,,,,,9,0,162,2,,,,,,,,,main,1,1,1,positive,positive,l,l,1,0.6959629999983008,447.22411170000123,448.2374196000019,448.22091860000364,None,447.22411170000123,None,447.22411170000123,None,447.22411170000123,None,448.9184032700039,None,448.9184032700039,None,448.9184032700039,None,,,,,,,,,,,,,,106,2023-03-30_13h27.44.852,Main,2022.1.1,59.15749084582069,
positive,negative,1,l,j,,,,,,,,,9,1,163,5,,,,,,,,,main,1,1,1,negative,positive,l,l,1,0.748871900002996,448.924597600002,449.93744410000363,449.92087390000233,None,448.924597600002,None,448.924597600002,None,448.924597600002,None,450.6686931699995,None,450.6686931699995,None,450.6686931699995,None,,,,,,,,,,,,,,106,2023-03-30_13h27.44.852,Main,2022.1.1,59.15749084582069,
negative,negative,1,j,l,,,,,,,,,9,2,164,0,,,,,,,,,main,1,1,1,negative,negative,j,j,1,1.1315740999998525,450.6723127000005,451.6874269999971,451.6708224999966,None,450.6723127000005,None,450.6723127000005,None,450.6723127000005,None,452.80156707000134,None,452.80156707000134,None,452.80156707000134,None,,,,,,,,,,,,,,106,2023-03-30_13h27.44.852,Main,2022.1.1,59.15749084582069,
negative,positive,1,j,l,,,,,,,,,9,3,165,6,,,,,,,,,main,2,2,1,positive,negative,j,j,1,0.6147684999959893,452.8020775999976,453.80154030000267,453.80154030000267,None,452.8020775999976,None,452.8020775999976,None,452.8020775999976,None,454.4182464700032,None,454.4182464700032,None,454.4182464700032,None,,,,,,,,,,,,,,106,2023-03-30_13h27.44.852,Main,2022.1.1,59.15749084582069,
negative,negative,2,j,l,,,,,,,,,9,4,166,9,,,,,,,,,main,2,2,2,negative,negative,j,j,1,0.7820083999977214,454.4215480999992,455.42077040000004,455.42077040000004,None,454.4215480999992,None,454.4215480999992,None,454.4215480999992,None,456.20185197000393,None,456.20185197000393,None,456.20185197000393,None,,,,,,,,,,,,,,106,2023-03-30_13h27.44.852,Main,2022.1.1,59.15749084582069,
negative,neutral,2,j,l,,,,,,,,,9,5,167,12,,,,,,,,,main,1,1,2,neutral,negative,j,j,1,0.5813554999986081,456.2054188999973,457.2207061000008,457.20410399999673,None,456.2054188999973,None,456.2054188999973,None,456.2054188999973,None,457.78490337000113,None,457.78490337000113,None,457.78490337000113,None,,,,,,,,,,,,,,106,2023-03-30_13h27.44.852,Main,2022.1.1,59.15749084582069,
positive,negative,2,l,j,,,,,,,,,9,6,168,14,,,,,,,,,main,1,1,2,negative,positive,l,l,1,0.783589499995287,457.791673300002,458.8039162999994,458.78727600000275,None,457.791673300002,None,457.791673300002,None,457.791673300002,None,459.5705809699983,None,459.5705809699983,None,459.5705809699983,None,,,,,,,,,,,,,,106,2023-03-30_13h27.44.852,Main,2022.1.1,59.15749084582069,
positive,neutral,1,l,j,,,,,,,,,9,7,169,8,,,,,,,,,main,1,1,1,neutral,positive,l,l,1,0.7456464000060805,459.5742124000026,460.5872457000005,460.57064099999843,None,459.5742124000026,None,459.5742124000026,None,459.5742124000026,None,461.31845717000107,None,461.31845717000107,None,461.31845717000107,None,,,,,,,,,,,,,,106,2023-03-30_13h27.44.852,Main,2022.1.1,59.15749084582069,
neutral,neutral,2,k,k,,,,,,,,,9,8,170,10,,,,,,,,,main,1,1,2,neutral,neutral,k,k,1,0.5512562000003527,461.3217356000023,462.3371924000021,462.3205761999998,None,461.3217356000023,None,461.3217356000023,None,461.3217356000023,None,462.8712397699972,None,462.8712397699972,None,462.8712397699972,None,,,,,,,,,,,,,,106,2023-03-30_13h27.44.852,Main,2022.1.1,59.15749084582069,
positive,positive,2,l,j,,,,,,,,,9,9,171,11,,,,,,,,,main,2,2,2,positive,positive,l,l,1,0.6953869999997551,462.8712652999966,463.8846717999986,463.868011999999,None,462.8712652999966,None,462.8712652999966,None,462.8712652999966,None,464.5679722699977,None,464.5679722699977,None,464.5679722699977,None,,,,,,,,,,,,,,106,2023-03-30_13h27.44.852,Main,2022.1.1,59.15749084582069,
neutral,negative,2,k,k,,,,,,,,,9,10,172,16,,,,,,,,,main,2,2,2,negative,neutral,k,k,1,0.6149987000026158,464.5679394000035,465.5679874999987,465.5679874999987,None,464.5679394000035,None,464.5679394000035,None,464.5679394000035,None,466.1846452700018,None,466.1846452700018,None,466.1846452700018,None,,,,,,,,,,,,,,106,2023-03-30_13h27.44.852,Main,2022.1.1,59.15749084582069,
neutral,neutral,1,k,k,,,,,,,,,9,11,173,1,,,,,,,,,main,2,2,1,neutral,neutral,k,j,0,0.7509176000021398,466.1864968000009,467.20387360000313,467.1846770999982,None,466.1864968000009,None,466.1864968000009,None,466.1864968000009,None,467.9372360999987,None,467.9372360999987,None,467.9372360999987,None,,,,,,,,,,,,,,106,2023-03-30_13h27.44.852,Main,2022.1.1,59.15749084582069,
neutral,positive,2,k,k,,,,,,,,,9,12,174,13,,,,,,,,,main,2,2,2,positive,neutral,k,k,1,0.7702515999990283,468.93582310000056,469.93704109999817,469.92046259999915,None,468.93582310000056,None,468.93582310000056,None,468.93582310000056,None,470.7036236699976,None,470.7036236699976,None,470.7036236699976,None,,,,,,,,,,,,,,106,2023-03-30_13h27.44.852,Main,2022.1.1,59.15749084582069,
neutral,negative,1,k,k,,,,,,,,,9,13,175,7,,,,,,,,,main,2,2,1,negative,neutral,k,k,1,0.6148247999954037,470.7074228999991,471.7203152000002,471.701221299998,None,470.7074228999991,None,470.7074228999991,None,470.7074228999991,None,472.32042367000105,None,472.32042367000105,None,472.32042367000105,None,,,,,,,,,,,,,,106,2023-03-30_13h27.44.852,Main,2022.1.1,59.15749084582069,
neutral,positive,1,k,k,,,,,,,,,9,14,176,4,,,,,,,,,main,2,2,1,positive,neutral,k,k,1,0.5294035999977496,472.323656200002,473.33696559999953,473.32039000000077,None,472.323656200002,None,472.323656200002,None,472.323656200002,None,473.8511965699989,None,473.8511965699989,None,473.8511965699989,None,,,,,,,,,,,,,,106,2023-03-30_13h27.44.852,Main,2022.1.1,59.15749084582069,
positive,neutral,2,l,j,,,,,,,,,9,15,177,17,,,,,,,,,main,2,2,2,neutral,positive,l,l,1,0.731501100002788,473.85825509999995,474.86744020000333,474.85014480000245,None,473.85825509999995,None,473.85825509999995,None,473.85825509999995,None,475.58439927,None,475.58439927,None,475.58439927,None,,,,,,,,,,,,,,106,2023-03-30_13h27.44.852,Main,2022.1.1,59.15749084582069,
negative,neutral,1,j,l,,,,,,,,,9,16,178,3,,,,,,,,,main,1,1,1,neutral,negative,j,j,1,0.6975575999967987,475.6011423000018,476.6010731999995,476.5844096000001,None,475.6011423000018,None,475.6011423000018,None,475.6011423000018,None,477.2844241699975,None,477.2844241699975,None,477.2844241699975,None,,,,,,,,,,,,,,106,2023-03-30_13h27.44.852,Main,2022.1.1,59.15749084582069,
negative,positive,2,j,l,,,,,,,,,9,17,179,15,,,,,,,,,main,1,1,2,positive,negative,j,j,1,0.7828947000016342,477.28587289999996,478.30109660000016,478.28438820000156,None,477.28587289999996,None,477.28587289999996,None,477.28587289999996,None,479.0677416700026,None,479.0677416700026,None,479.0677416700026,None,,,,,,,,,,,,,,106,2023-03-30_13h27.44.852,Main,2022.1.1,59.15749084582069,
neutral,negative,1,k,k,,,,,,,,,10,0,180,7,,,,,,,,,main,1,1,1,negative,neutral,k,k,1,1.1142926000029547,479.08441409999796,480.0868427000023,480.07024320000346,None,479.08441409999796,None,479.08441409999796,None,479.08441409999796,None,481.18436016999914,None,481.18436016999914,None,481.18436016999914,None,,,,,,,,,,,,,,106,2023-03-30_13h27.44.852,Main,2022.1.1,59.15749084582069,
positive,neutral,2,l,j,,,,,,,,,10,1,181,17,,,,,,,,,main,1,1,2,neutral,positive,l,l,1,0.7981411000000662,481.1906939000037,482.2034580999971,482.1868459000034,None,481.1906939000037,None,481.1906939000037,None,481.1906939000037,None,482.98431077000424,None,482.98431077000424,None,482.98431077000424,None,,,,,,,,,,,,,,106,2023-03-30_13h27.44.852,Main,2022.1.1,59.15749084582069,
negative,positive,2,j,l,,,,,,,,,10,2,182,15,,,,,,,,,main,1,1,2,positive,negative,j,j,1,0.698963900002127,482.99139060000016,484.00340580000193,483.9869265000016,None,482.99139060000016,None,482.99139060000016,None,482.99139060000016,None,484.6846055699978,None,484.6846055699978,None,484.6846055699978,None,,,,,,,,,,,,,,106,2023-03-30_13h27.44.852,Main,2022.1.1,59.15749084582069,
neutral,neutral,2,k,k,,,,,,,,,10,3,183,10,,,,,,,,,main,2,2,2,neutral,neutral,k,k,1,0.5838070000027074,484.68828909999866,485.70330639999884,485.68674009999813,None,484.68828909999866,None,484.68828909999866,None,484.68828909999866,None,486.27001846999775,None,486.27001846999775,None,486.27001846999775,None,,,,,,,,,,,,,,106,2023-03-30_13h27.44.852,Main,2022.1.1,59.15749084582069,
negative,positive,1,j,l,,,,,,,,,10,4,184,6,,,,,,,,,main,2,2,1,positive,negative,j,j,1,0.545777100000123,486.2732898999966,487.28416200000356,487.26747199999954,None,486.2732898999966,None,486.2732898999966,None,486.2732898999966,None,487.81743436999824,None,487.81743436999824,None,487.81743436999824,None,,,,,,,,,,,,,,106,2023-03-30_13h27.44.852,Main,2022.1.1,59.15749084582069,
positive,negative,2,l,j,,,,,,,,,10,5,185,14,,,,,,,,,main,2,2,2,negative,positive,l,l,1,0.9818997000038507,487.8174427999984,488.81747650000034,488.81747650000034,None,487.8174427999984,None,487.8174427999984,None,487.8174427999984,None,489.80082336999914,None,489.80082336999914,None,489.80082336999914,None,,,,,,,,,,,,,,106,2023-03-30_13h27.44.852,Main,2022.1.1,59.15749084582069,
neutral,neutral,1,k,k,,,,,,,,,10,6,186,1,,,,,,,,,main,2,2,1,neutral,neutral,k,k,1,0.5318219999971916,489.8011761000016,490.80081690000225,490.80081690000225,None,489.8011761000016,None,489.8011761000016,None,489.8011761000016,None,491.3341362699983,None,491.3341362699983,None,491.3341362699983,None,,,,,,,,,,,,,,106,2023-03-30_13h27.44.852,Main,2022.1.1,59.15749084582069,
negative,neutral,1,j,l,,,,,,,,,10,7,187,3,,,,,,,,,main,2,2,1,neutral,negative,j,j,1,0.7153939000054379,491.3372010000021,492.3365812999982,492.3365812999982,None,491.3372010000021,None,491.3372010000021,None,491.3372010000021,None,493.05112297000306,None,493.05112297000306,None,493.05112297000306,None,,,,,,,,,,,,,,106,2023-03-30_13h27.44.852,Main,2022.1.1,59.15749084582069,
neutral,negative,2,k,k,,,,,,,,,10,8,188,16,,,,,,,,,main,1,1,2,negative,neutral,k,k,1,0.5149958000038168,493.05426160000206,494.06988390000333,494.0532841000022,None,493.05426160000206,None,493.05426160000206,None,493.05426160000206,None,494.5677577700015,None,494.5677577700015,None,494.5677577700015,None,,,,,,,,,,,,,,106,2023-03-30_13h27.44.852,Main,2022.1.1,59.15749084582069,
negative,negative,1,j,l,,,,,,,,,10,9,189,0,,,,,,,,,main,1,1,1,negative,negative,j,j,1,0.6486583000005339,494.58443960000295,495.5864823000011,495.56992049999826,None,494.58443960000295,None,494.58443960000295,None,494.58443960000295,None,496.2177163700006,None,496.2177163700006,None,496.2177163700006,None,,,,,,,,,,,,,,106,2023-03-30_13h27.44.852,Main,2022.1.1,59.15749084582069,
neutral,positive,1,k,k,,,,,,,,,10,10,190,4,,,,,,,,,main,2,2,1,positive,neutral,k,k,1,0.5994992999985698,496.22135539999726,497.236482100001,497.2198595000009,None,496.22135539999726,None,496.22135539999726,None,496.22135539999726,None,497.81766437000334,None,497.81766437000334,None,497.81766437000334,None,,,,,,,,,,,,,,106,2023-03-30_13h27.44.852,Main,2022.1.1,59.15749084582069,
positive,positive,2,l,j,,,,,,,,,10,11,191,11,,,,,,,,,main,1,1,2,positive,positive,l,l,1,0.597052099998109,497.82226320000336,498.8339143999983,498.81723919999786,None,497.82226320000336,None,497.82226320000336,None,497.82226320000336,None,499.4172613700037,None,499.4172613700037,None,499.4172613700037,None,,,,,,,,,,,,,,106,2023-03-30_13h27.44.852,Main,2022.1.1,59.15749084582069,
positive,neutral,1,l,j,,,,,,,,,10,12,192,8,,,,,,,,,main,2,2,1,neutral,positive,l,l,1,0.6651813999997103,499.41720540000097,500.4173366000032,500.4173366000032,None,499.41720540000097,None,499.41720540000097,None,499.41720540000097,None,501.0840626699981,None,501.0840626699981,None,501.0840626699981,None,,,,,,,,,,,,,,106,2023-03-30_13h27.44.852,Main,2022.1.1,59.15749084582069,
neutral,positive,2,k,k,,,,,,,,,10,13,193,13,,,,,,,,,main,1,1,2,positive,neutral,k,k,1,0.5818352999995113,501.09037559999706,502.102928100001,502.08651590000227,None,501.09037559999706,None,501.09037559999706,None,501.09037559999706,None,502.6675783700019,None,502.6675783700019,None,502.6675783700019,None,,,,,,,,,,,,,,106,2023-03-30_13h27.44.852,Main,2022.1.1,59.15749084582069,
negative,neutral,2,j,l,,,,,,,,,10,14,194,12,,,,,,,,,main,1,1,2,neutral,negative,j,j,1,0.5313353000019561,502.6711282000033,503.6863310999979,503.6697271000012,None,502.6711282000033,None,502.6711282000033,None,502.6711282000033,None,504.20062616999786,None,504.20062616999786,None,504.20062616999786,None,,,,,,,,,,,,,,106,2023-03-30_13h27.44.852,Main,2022.1.1,59.15749084582069,
negative,negative,2,j,l,,,,,,,,,10,15,195,9,,,,,,,,,main,2,2,2,negative,negative,j,j,1,0.5977717000059783,504.20748620000086,505.2196393999984,505.2030805999966,None,504.20748620000086,None,504.20748620000086,None,504.20748620000086,None,505.8008134700038,None,505.8008134700038,None,505.8008134700038,None,,,,,,,,,,,,,,106,2023-03-30_13h27.44.852,Main,2022.1.1,59.15749084582069,
positive,positive,1,l,j,,,,,,,,,10,16,196,2,,,,,,,,,main,1,1,1,positive,positive,l,l,1,0.598677800000587,505.804123599999,506.8196639000016,506.80297430000064,None,505.804123599999,None,505.804123599999,None,505.804123599999,None,507.4007858700032,None,507.4007858700032,None,507.4007858700032,None,,,,,,,,,,,,,,106,2023-03-30_13h27.44.852,Main,2022.1.1,59.15749084582069,
positive,negative,1,l,j,,,,,,,,,10,17,197,5,,,,,,,,,main,2,2,1,negative,positive,l,l,1,0.7637991000010516,507.4052920000031,508.41702870000154,508.4003730999975,None,507.4052920000031,None,507.4052920000031,None,507.4052920000031,None,509.16698816999707,None,509.16698816999707,None,509.16698816999707,None,,,,,,,,,,,,,,106,2023-03-30_13h27.44.852,Main,2022.1.1,59.15749084582069,
neutral,neutral,1,k,k,,,,,,,,,11,0,198,1,,,,,,,,,main,2,2,1,neutral,neutral,k,k,1,0.5316442999974242,509.16697430000204,510.1670458000008,510.1670458000008,None,509.16697430000204,None,509.16697430000204,None,509.16697430000204,None,510.7003482699991,None,510.7003482699991,None,510.7003482699991,None,,,,,,,,,,,,,,106,2023-03-30_13h27.44.852,Main,2022.1.1,59.15749084582069,
negative,negative,1,j,l,,,,,,,,,11,1,199,0,,,,,,,,,main,1,1,1,negative,negative,j,j,1,0.6818617000026279,510.700651500003,511.700385199998,511.700385199998,None,510.700651500003,None,510.700651500003,None,510.700651500003,None,512.3837110700013,None,512.3837110700013,None,512.3837110700013,None,,,,,,,,,,,,,,106,2023-03-30_13h27.44.852,Main,2022.1.1,59.15749084582069,
negative,positive,1,j,l,,,,,,,,,11,2,200,6,,,,,,,,,main,1,1,1,positive,negative,j,j,1,0.6343160000033095,512.3868940000029,513.3861445000002,513.3861445000002,None,512.3868940000029,None,512.3868940000029,None,512.3868940000029,None,514.0195262700042,None,514.0195262700042,None,514.0195262700042,None,,,,,,,,,,,,,,106,2023-03-30_13h27.44.852,Main,2022.1.1,59.15749084582069,
neutral,negative,2,k,k,,,,,,,,,11,3,201,16,,,,,,,,,main,1,1,2,negative,neutral,k,k,1,0.7484932000006665,514.0222620999994,515.0362010000026,515.0195249000026,None,514.0222620999994,None,514.0222620999994,None,514.0222620999994,None,515.7694263700002,None,515.7694263700002,None,515.7694263700002,None,,,,,,,,,,,,,,106,2023-03-30_13h27.44.852,Main,2022.1.1,59.15749084582069,
positive,negative,2,l,j,,,,,,,,,11,4,202,14,,,,,,,,,main,1,1,2,negative,positive,l,l,1,0.6318504000009852,515.7735126999978,516.7860024999973,516.7694783999978,None,515.7735126999978,None,515.7735126999978,None,515.7735126999978,None,517.40266787,None,517.40266787,None,517.40266787,None,,,,,,,,,,,,,,106,2023-03-30_13h27.44.852,Main,2022.1.1,59.15749084582069,
neutral,positive,2,k,k,,,,,,,,,11,5,203,13,,,,,,,,,main,1,1,2,positive,neutral,k,k,1,0.5630769999988843,517.4057601000022,518.4193941999984,518.4027658999985,None,517.4057601000022,None,517.4057601000022,None,517.4057601000022,None,518.9672230699987,None,518.9672230699987,None,518.9672230699987,None,,,,,,,,,,,,,,106,2023-03-30_13h27.44.852,Main,2022.1.1,59.15749084582069,
positive,negative,1,l,j,,,,,,,,,11,6,204,5,,,,,,,,,main,2,2,1,negative,positive,l,l,1,0.6646994000038831,518.9716609000025,519.9834753000032,519.9667990000016,None,518.9716609000025,None,518.9716609000025,None,518.9716609000025,None,520.6334383699984,None,520.6334383699984,None,520.6334383699984,None,,,,,,,,,,,,,,106,2023-03-30_13h27.44.852,Main,2022.1.1,59.15749084582069,
positive,positive,1,l,j,,,,,,,,,11,7,205,2,,,,,,,,,main,1,1,1,positive,positive,l,l,1,0.6321683999995003,520.6334172999996,521.6334777000011,521.6334777000011,None,520.6334172999996,None,520.6334172999996,None,520.6334172999996,None,522.2671535700035,None,522.2671535700035,None,522.2671535700035,None,,,,,,,,,,,,,,106,2023-03-30_13h27.44.852,Main,2022.1.1,59.15749084582069,
positive,neutral,1,l,j,,,,,,,,,11,8,206,8,,,,,,,,,main,1,1,1,neutral,positive,l,l,1,0.5145875000016531,522.2709632999977,523.2859153000027,523.2692906000011,None,522.2709632999977,None,522.2709632999977,None,522.2709632999977,None,523.7834486699983,None,523.7834486699983,None,523.7834486699983,None,,,,,,,,,,,,,,106,2023-03-30_13h27.44.852,Main,2022.1.1,59.15749084582069,
negative,positive,2,j,l,,,,,,,,,11,9,207,15,,,,,,,,,main,2,2,2,positive,negative,j,j,1,0.7822323000000324,523.7896047000031,524.8025133999981,524.7859341000003,None,523.7896047000031,None,523.7896047000031,None,523.7896047000031,None,525.5670861700025,None,525.5670861700025,None,525.5670861700025,None,,,,,,,,,,,,,,106,2023-03-30_13h27.44.852,Main,2022.1.1,59.15749084582069,
negative,neutral,2,j,l,,,,,,,,,11,10,208,12,,,,,,,,,main,2,2,2,neutral,negative,j,j,1,0.5316705000004731,525.5704419999965,526.5858182000011,526.569227400003,None,525.5704419999965,None,525.5704419999965,None,525.5704419999965,None,527.1003612699976,None,527.1003612699976,None,527.1003612699976,None,,,,,,,,,,,,,,106,2023-03-30_13h27.44.852,Main,2022.1.1,59.15749084582069,
negative,neutral,1,j,l,,,,,,,,,11,11,209,3,,,,,,,,,main,2,2,1,neutral,negative,j,j,1,0.7505288000029395,527.106941500002,528.1192080999972,528.1025148999979,None,527.106941500002,None,527.106941500002,None,527.106941500002,None,528.8524314700014,None,528.8524314700014,None,528.8524314700014,None,,,,,,,,,,,,,,106,2023-03-30_13h27.44.852,Main,2022.1.1,59.15749084582069,
positive,neutral,2,l,j,,,,,,,,,11,12,210,17,,,,,,,,,main,2,2,2,neutral,positive,l,l,1,0.5284634000054211,528.8566394000009,529.8584008999969,529.8500028999988,None,528.8566394000009,None,528.8566394000009,None,528.8566394000009,None,530.3831864700012,None,530.3831864700012,None,530.3831864700012,None,,,,,,,,,,,,,,106,2023-03-30_13h27.44.852,Main,2022.1.1,59.15749084582069,
positive,positive,2,l,j,,,,,,,,,11,13,211,11,,,,,,,,,main,2,2,2,positive,positive,l,k,0,0.46526989999983925,530.3832253,531.3832593999978,531.3832593999978,None,530.3832253,None,530.3832253,None,530.3832253,None,531.8499406999981,None,531.8499406999981,None,531.8499406999981,None,,,,,,,,,,,,,,106,2023-03-30_13h27.44.852,Main,2022.1.1,59.15749084582069,
neutral,neutral,2,k,k,,,,,,,,,11,14,212,10,,,,,,,,,main,2,2,2,neutral,neutral,k,k,1,0.584590999998909,532.8508201000004,533.8524246000015,533.8357544000028,None,532.8508201000004,None,532.8508201000004,None,532.8508201000004,None,534.4333684700002,None,534.4333684700002,None,534.4333684700002,None,,,,,,,,,,,,,,106,2023-03-30_13h27.44.852,Main,2022.1.1,59.15749084582069,
neutral,negative,1,k,k,,,,,,,,,11,15,213,7,,,,,,,,,main,2,2,1,negative,neutral,k,k,1,0.7150490999993053,534.439893499999,535.4523105999979,535.4357772000003,None,534.439893499999,None,534.439893499999,None,534.439893499999,None,536.1501909699989,None,536.1501909699989,None,536.1501909699989,None,,,,,,,,,,,,,,106,2023-03-30_13h27.44.852,Main,2022.1.1,59.15749084582069,
neutral,positive,1,k,k,,,,,,,,,11,16,214,4,,,,,,,,,main,2,2,1,positive,neutral,k,k,1,0.5812174000020605,536.1540848000004,537.1689247999966,537.1524260000006,None,536.1540848000004,None,536.1540848000004,None,536.1540848000004,None,537.7334942700006,None,537.7334942700006,None,537.7334942700006,None,,,,,,,,,,,,,,106,2023-03-30_13h27.44.852,Main,2022.1.1,59.15749084582069,
negative,negative,2,j,l,,,,,,,,,11,17,215,9,,,,,,,,,main,2,2,2,negative,negative,j,j,1,0.6306870999978855,537.7377418000033,538.7522316000031,538.7356413000016,None,537.7377418000033,None,537.7377418000033,None,537.7377418000033,None,539.3667879699976,None,539.3667879699976,None,539.3667879699976,None,,,,,,,,,,,,,,106,2023-03-30_13h27.44.852,Main,2022.1.1,59.15749084582069,
positive,neutral,2,l,j,,,,,,,,,12,0,216,17,,,,,,,,,main,2,2,2,neutral,positive,l,j,0,0.5990344999954687,539.3701205000034,540.3829859000034,540.3663362000007,None,539.3701205000034,None,539.3701205000034,None,539.3701205000034,None,540.9663656999983,None,540.9663656999983,None,540.9663656999983,None,,,,,,,,,,,,,,106,2023-03-30_13h27.44.852,Main,2022.1.1,59.15749084582069,
negative,neutral,2,j,l,,,,,,,,,12,1,217,12,,,,,,,,,main,2,2,2,neutral,negative,j,j,1,0.8060095000037109,541.9664276999974,542.9688193999973,542.9522369999977,None,541.9664276999974,None,541.9664276999974,None,541.9664276999974,None,543.7687848699977,None,543.7687848699977,None,543.7687848699977,None,,,,,,,,,,,,,,106,2023-03-30_13h27.44.852,Main,2022.1.1,59.15749084582069,
neutral,neutral,2,k,k,,,,,,,,,12,2,218,10,,,,,,,,,main,1,1,2,neutral,neutral,k,k,1,0.7123292999967816,543.7721283999999,544.7854615999968,544.7688246999969,None,543.7721283999999,None,543.7721283999999,None,543.7721283999999,None,545.4829835699973,None,545.4829835699973,None,545.4829835699973,None,,,,,,,,,,,,,,106,2023-03-30_13h27.44.852,Main,2022.1.1,59.15749084582069,
positive,negative,2,l,j,,,,,,,,,12,3,219,14,,,,,,,,,main,2,2,2,negative,positive,l,l,1,0.8343924000000698,545.4891081000023,546.5021332999968,546.4854754999978,None,545.4891081000023,None,545.4891081000023,None,545.4891081000023,None,547.3187197699997,None,547.3187197699997,None,547.3187197699997,None,,,,,,,,,,,,,,106,2023-03-30_13h27.44.852,Main,2022.1.1,59.15749084582069,
neutral,neutral,1,k,k,,,,,,,,,12,4,220,1,,,,,,,,,main,2,2,1,neutral,neutral,k,k,1,0.6483548999967752,547.322061400002,548.3353771999973,548.3187661999982,None,547.322061400002,None,547.322061400002,None,547.322061400002,None,548.9686765699996,None,548.9686765699996,None,548.9686765699996,None,,,,,,,,,,,,,,106,2023-03-30_13h27.44.852,Main,2022.1.1,59.15749084582069,
neutral,negative,2,k,k,,,,,,,,,12,5,221,16,,,,,,,,,main,2,2,2,negative,neutral,k,k,1,0.6627205999975558,548.9718624000016,549.9853831,549.9687233000004,None,548.9718624000016,None,548.9718624000016,None,548.9718624000016,None,550.6328214700013,None,550.6328214700013,None,550.6328214700013,None,,,,,,,,,,,,,,106,2023-03-30_13h27.44.852,Main,2022.1.1,59.15749084582069,
negative,neutral,1,j,l,,,,,,,,,12,6,222,3,,,,,,,,,main,2,2,1,neutral,negative,j,j,1,0.5648587000032421,550.6328555,551.6328119000027,551.6328119000027,None,550.6328555,None,550.6328555,None,550.6328555,None,552.1994724700023,None,552.1994724700023,None,552.1994724700023,None,,,,,,,,,,,,,,106,2023-03-30_13h27.44.852,Main,2022.1.1,59.15749084582069,
negative,positive,2,j,l,,,,,,,,,12,7,223,15,,,,,,,,,main,1,1,2,positive,negative,j,j,1,0.6486298000017996,552.1995935000014,553.1994745999982,553.1994745999982,None,552.1995935000014,None,552.1995935000014,None,552.1995935000014,None,553.8494794699989,None,553.8494794699989,None,553.8494794699989,None,,,,,,,,,,,,,,106,2023-03-30_13h27.44.852,Main,2022.1.1,59.15749084582069,
