target,distractor,set,ans1,ans2,rep_loop2.thisRepN,rep_loop2.thisTrialN,rep_loop2.thisN,rep_loop2.thisIndex,flanker_prac_loop.thisRepN,flanker_prac_loop.thisTrialN,flanker_prac_loop.thisN,flanker_prac_loop.thisIndex,flanker_main_loop.thisRepN,flanker_main_loop.thisTrialN,flanker_main_loop.thisN,flanker_main_loop.thisIndex,fl_inst_resp.keys,fl_inst_resp.rt,sound_1.started,sound_1.stopped,image_4.started,image_4.stopped,back_2.started,back_2.stopped,main_prac,fl_cold,fl_colt,fl_set,fl_dcond,fl_tcond,fl_ans,fl_res,fl_corr,fl_rt,fix_fl.started,fix_fl.stopped,targ.started,targ.stopped,j_button.started,j_button.stopped,k_button.started,k_button.stopped,l_button.started,l_button.stopped,j_button2.started,j_button2.stopped,k_button2.started,k_button2.stopped,l_button2.started,l_button2.stopped,mainback.started,mainback.stopped,key_resp.keys,key_resp.rt,mouse_6.x,mouse_6.y,mouse_6.leftButton,mouse_6.midButton,mouse_6.rightButton,mouse_6.started,mouse_6.stopped,text_2.started,text_2.stopped,id*,date,expName,psychopyVersion,frameRate,
,,,,,0,0,0,0,,,,,,,,,space,68.07820300000458,17.542892849998317,None,85.63902969999617,None,,,,,,,,,,,,,,,,,,,,,,,,,,,,,,,,,,,,,,,,,,107,2023-03-30_14h51.43.271,Main,2022.1.1,60.009313444757254,
negative,negative,2,j,l,,,,,0,0,0,9,,,,,,,,,,,90.1914553999959,None,prac,2,2,2,negative,negative,l,l,1,3.574343200001749,92.19680309999967,93.20801539999957,93.19144979999692,None,92.19680309999967,None,92.19680309999967,None,92.19680309999967,None,96.76614809999592,None,96.76614809999592,None,96.76614809999592,None,,,,,,,,,,,,,,107,2023-03-30_14h51.43.271,Main,2022.1.1,60.009313444757254,
positive,positive,1,l,j,,,,,0,1,1,2,,,,,,,,,,,,,prac,2,2,1,positive,positive,j,j,1,1.3706949000043096,97.77213810000103,98.77215069999511,98.75548359999812,None,97.77213810000103,None,97.77213810000103,None,97.77213810000103,None,100.13908165000029,None,100.13908165000029,None,100.13908165000029,None,,,,,,,,,,,,,,107,2023-03-30_14h51.43.271,Main,2022.1.1,60.009313444757254,
positive,neutral,1,l,j,,,,,0,2,2,8,,,,,,,,,,,,,prac,2,2,1,neutral,positive,j,j,1,0.6983240000045043,100.14553349999915,101.15788590000011,101.14130959999602,None,100.14553349999915,None,100.14553349999915,None,100.14553349999915,None,101.8390480499962,None,101.8390480499962,None,101.8390480499962,None,,,,,,,,,,,,,,107,2023-03-30_14h51.43.271,Main,2022.1.1,60.009313444757254,
positive,negative,2,l,j,,,,,0,3,3,14,,,,,,,,,,,,,prac,2,2,2,negative,positive,j,j,1,1.0840795999974944,101.84462789999816,102.85791600000084,102.84125579999818,None,101.84462789999816,None,101.84462789999816,None,101.84462789999816,None,103.92446055000036,None,103.92446055000036,None,103.92446055000036,None,,,,,,,,,,,,,,107,2023-03-30_14h51.43.271,Main,2022.1.1,60.009313444757254,
neutral,negative,2,k,k,,,,,0,4,4,16,,,,,,,,,,,,,prac,2,2,2,negative,neutral,k,k,1,0.7821160999956192,103.92737729999499,104.94112749999476,104.92451759999676,None,103.92737729999499,None,103.92737729999499,None,103.92737729999499,None,105.70769734999485,None,105.70769734999485,None,105.70769734999485,None,,,,,,,,,,,,,,107,2023-03-30_14h51.43.271,Main,2022.1.1,60.009313444757254,
negative,neutral,1,j,l,,,,,0,5,5,3,,,,,,,,,,,,,prac,1,1,1,neutral,negative,l,l,1,0.9795385999968858,105.71643599999516,106.72444700000051,106.70783870000014,None,105.71643599999516,None,105.71643599999516,None,105.71643599999516,None,107.68852404999924,None,107.68852404999924,None,107.68852404999924,None,,,,,,,,,,,,,,107,2023-03-30_14h51.43.271,Main,2022.1.1,60.009313444757254,
neutral,neutral,1,k,k,,,,,0,6,6,1,,,,,,,,,,,,,prac,1,1,1,neutral,neutral,k,k,1,1.032451500002935,107.68851529999665,108.68855210000038,108.68855210000038,None,107.68851529999665,None,107.68851529999665,None,107.68851529999665,None,109.72221444999886,None,109.72221444999886,None,109.72221444999886,None,,,,,,,,,,,,,,107,2023-03-30_14h51.43.271,Main,2022.1.1,60.009313444757254,
positive,neutral,2,l,j,,,,,0,7,7,17,,,,,,,,,,,,,prac,2,2,2,neutral,positive,j,j,1,0.7486962999973912,109.72801269999763,110.74102119999588,110.72441199999594,None,109.72801269999763,None,109.72801269999763,None,109.72801269999763,None,111.4721441499947,None,111.4721441499947,None,111.4721441499947,None,,,,,,,,,,,,,,107,2023-03-30_14h51.43.271,Main,2022.1.1,60.009313444757254,
negative,negative,1,j,l,,,,,0,8,8,0,,,,,,,,,,,,,prac,2,2,1,negative,negative,l,l,1,1.0654749999957858,111.47792990000016,112.49096599999757,112.47435849999601,None,111.47792990000016,None,111.47792990000016,None,111.47792990000016,None,113.53876124999951,None,113.53876124999951,None,113.53876124999951,None,,,,,,,,,,,,,,107,2023-03-30_14h51.43.271,Main,2022.1.1,60.009313444757254,
neutral,positive,2,k,k,,,,,0,9,9,13,,,,,,,,,,,,,prac,2,2,2,positive,neutral,k,k,1,0.9166494000019156,113.54503750000003,114.5575456000006,114.54099549999955,None,113.54503750000003,None,113.54503750000003,None,113.54503750000003,None,115.4576227500016,None,115.4576227500016,None,115.4576227500016,None,,,,,,,,,,,,,,107,2023-03-30_14h51.43.271,Main,2022.1.1,60.009313444757254,
positive,positive,2,l,j,,,,,0,10,10,11,,,,,,,,,,,,,prac,1,1,2,positive,positive,j,j,1,0.7383430999980192,115.46161839999695,116.47420799999963,116.45760339999833,None,115.46161839999695,None,115.46161839999695,None,115.46161839999695,None,117.19710685000027,None,117.19710685000027,None,117.19710685000027,None,,,,,,,,,,,,,,107,2023-03-30_14h51.43.271,Main,2022.1.1,60.009313444757254,
neutral,negative,1,k,k,,,,,0,11,11,7,,,,,,,,,,,,,prac,2,2,1,negative,neutral,k,k,1,0.8899099999980535,117.21321019999596,118.22403439999471,118.18883369999821,None,117.21321019999596,None,117.21321019999596,None,117.21321019999596,None,119.08850814999604,None,119.08850814999604,None,119.08850814999604,None,,,,,,,,,,,,,,107,2023-03-30_14h51.43.271,Main,2022.1.1,60.009313444757254,
positive,negative,1,l,j,,,,,0,12,12,5,,,,,,,,,,,,,prac,1,1,1,negative,positive,j,j,1,0.8652140999984113,119.09394320000138,120.1052492999952,120.09073269999499,None,119.09394320000138,None,119.09394320000138,None,119.09394320000138,None,120.95514775000046,None,120.95514775000046,None,120.95514775000046,None,,,,,,,,,,,,,,107,2023-03-30_14h51.43.271,Main,2022.1.1,60.009313444757254,
negative,neutral,2,j,l,,,,,0,13,13,12,,,,,,,,,,,,,prac,2,2,2,neutral,negative,l,l,1,0.8323719999971217,120.9597272999963,121.97387660000095,121.95518759999686,None,120.9597272999963,None,120.9597272999963,None,120.9597272999963,None,122.78846494999888,None,122.78846494999888,None,122.78846494999888,None,,,,,,,,,,,,,,107,2023-03-30_14h51.43.271,Main,2022.1.1,60.009313444757254,
neutral,positive,1,k,k,,,,,0,14,14,4,,,,,,,,,,,,,prac,2,2,1,positive,neutral,k,k,1,0.7821547000057762,122.79385419999744,123.80726090000098,123.79062149999663,None,122.79385419999744,None,122.79385419999744,None,122.79385419999744,None,124.5717579499993,None,124.5717579499993,None,124.5717579499993,None,,,,,,,,,,,,,,107,2023-03-30_14h51.43.271,Main,2022.1.1,60.009313444757254,
negative,positive,2,j,l,,,,,0,15,15,15,,,,,,,,,,,,,prac,1,1,2,positive,negative,l,l,1,0.8823111999954563,124.57792360000167,125.59056920000148,125.57390859999578,None,124.57792360000167,None,124.57792360000167,None,124.57792360000167,None,126.45508044999733,None,126.45508044999733,None,126.45508044999733,None,,,,,,,,,,,,,,107,2023-03-30_14h51.43.271,Main,2022.1.1,60.009313444757254,
negative,positive,1,j,l,,,,,0,16,16,6,,,,,,,,,,,,,prac,2,2,1,positive,negative,l,l,1,0.9201669999965816,126.46132529999886,127.47392039999977,127.45733859999746,None,126.46132529999886,None,126.46132529999886,None,126.46132529999886,None,128.37525885000068,None,128.37525885000068,None,128.37525885000068,None,,,,,,,,,,,,,,107,2023-03-30_14h51.43.271,Main,2022.1.1,60.009313444757254,
neutral,neutral,2,k,k,,,,,0,17,17,10,,,,,,,,,,,,,prac,2,2,2,neutral,neutral,k,k,1,0.8128615000023274,128.3805519000016,129.38841870000033,129.37384929999826,None,128.3805519000016,None,128.3805519000016,None,128.3805519000016,None,130.19122734999982,None,130.19122734999982,None,130.19122734999982,None,,,,,,,,,,,,,,107,2023-03-30_14h51.43.271,Main,2022.1.1,60.009313444757254,
negative,neutral,1,j,l,,,,,1,0,18,3,,,,,,,,,,,,,prac,1,1,1,neutral,negative,l,l,1,0.7952976000015042,130.19525679999788,131.20717709999735,131.19051300000137,None,130.19525679999788,None,130.19525679999788,None,130.19525679999788,None,131.98800134999473,None,131.98800134999473,None,131.98800134999473,None,,,,,,,,,,,,,,107,2023-03-30_14h51.43.271,Main,2022.1.1,60.009313444757254,
neutral,positive,2,k,k,,,,,1,1,19,13,,,,,,,,,,,,,prac,1,1,2,positive,neutral,k,k,1,0.8153987000041525,131.98802240000077,132.98805379999976,132.98805379999976,None,131.98802240000077,None,131.98802240000077,None,131.98802240000077,None,133.80467004999954,None,133.80467004999954,None,133.80467004999954,None,,,,,,,,,,,,,,107,2023-03-30_14h51.43.271,Main,2022.1.1,60.009313444757254,
positive,neutral,2,l,j,,,,,1,2,20,17,,,,,,,,,,,,,prac,2,2,2,neutral,positive,j,j,1,0.8170011000038357,133.80978350000078,134.82376609999483,134.80730709999625,None,133.80978350000078,None,133.80978350000078,None,133.80978350000078,None,135.62173724999738,None,135.62173724999738,None,135.62173724999738,None,,,,,,,,,,,,,,107,2023-03-30_14h51.43.271,Main,2022.1.1,60.009313444757254,
positive,negative,2,l,j,,,,,1,3,21,14,,,,,,,,,,,,,prac,1,1,2,negative,positive,j,j,1,0.8303252000041539,135.6280087999985,136.64044560000184,136.62384069999825,None,135.6280087999985,None,135.6280087999985,None,135.6280087999985,None,137.4545837499987,None,137.4545837499987,None,137.4545837499987,None,,,,,,,,,,,,,,107,2023-03-30_14h51.43.271,Main,2022.1.1,60.009313444757254,
neutral,negative,2,k,k,,,,,1,4,22,16,,,,,,,,,,,,,prac,1,1,2,negative,neutral,k,k,1,0.7156957999977749,137.460508199998,138.47383129999798,138.4405553999968,None,137.460508199998,None,137.460508199998,None,137.460508199998,None,139.1715748500006,None,139.1715748500006,None,139.1715748500006,None,,,,,,,,,,,,,,107,2023-03-30_14h51.43.271,Main,2022.1.1,60.009313444757254,
negative,negative,2,j,l,,,,,1,5,23,9,,,,,,,,,,,,,prac,2,2,2,negative,negative,l,l,1,0.8675234999973327,139.177088299999,140.19044890000077,140.1738522999949,None,139.177088299999,None,139.177088299999,None,139.177088299999,None,141.04036924999818,None,141.04036924999818,None,141.04036924999818,None,,,,,,,,,,,,,,107,2023-03-30_14h51.43.271,Main,2022.1.1,60.009313444757254,
negative,positive,1,j,l,,,,,1,6,24,6,,,,,,,,,,,,,prac,2,2,1,positive,negative,l,l,1,0.8962165999982972,141.0444453999953,142.0485234000007,142.03687250000075,None,141.0444453999953,None,141.0444453999953,None,141.0444453999953,None,142.93775705000152,None,142.93775705000152,None,142.93775705000152,None,,,,,,,,,,,,,,107,2023-03-30_14h51.43.271,Main,2022.1.1,60.009313444757254,
neutral,positive,1,k,k,,,,,1,7,25,4,,,,,,,,,,,,,prac,1,1,1,positive,neutral,k,k,1,0.7820648999986588,142.93776369999978,143.93787470000098,143.93787470000098,None,142.93776369999978,None,142.93776369999978,None,142.93776369999978,None,144.72111434999678,None,144.72111434999678,None,144.72111434999678,None,,,,,,,,,,,,,,107,2023-03-30_14h51.43.271,Main,2022.1.1,60.009313444757254,
neutral,negative,1,k,k,,,,,1,8,26,7,,,,,,,,,,,,,prac,2,2,1,negative,neutral,k,k,1,0.7830295000021579,144.72640870000032,145.74029589999554,145.70450290000008,None,144.72640870000032,None,144.72640870000032,None,144.72640870000032,None,146.5044972499978,None,146.5044972499978,None,146.5044972499978,None,,,,,,,,,,,,,,107,2023-03-30_14h51.43.271,Main,2022.1.1,60.009313444757254,
neutral,neutral,2,k,k,,,,,1,9,27,10,,,,,,,,,,,,,prac,2,2,2,neutral,neutral,k,k,1,0.7816920999975991,146.51134739999543,147.5234988000011,147.50692549999803,None,146.51134739999543,None,146.51134739999543,None,146.51134739999543,None,148.28804464999993,None,148.28804464999993,None,148.28804464999993,None,,,,,,,,,,,,,,107,2023-03-30_14h51.43.271,Main,2022.1.1,60.009313444757254,
positive,neutral,1,l,j,,,,,1,10,28,8,,,,,,,,,,,,,prac,1,1,1,neutral,positive,j,j,1,0.9485048999995342,148.29158900000039,149.30686469999637,149.29022930000065,None,148.29158900000039,None,148.29158900000039,None,148.29158900000039,None,150.23800564999837,None,150.23800564999837,None,150.23800564999837,None,,,,,,,,,,,,,,107,2023-03-30_14h51.43.271,Main,2022.1.1,60.009313444757254,
negative,negative,1,j,l,,,,,1,11,29,0,,,,,,,,,,,,,prac,2,2,1,negative,negative,l,l,1,0.8651922000062768,150.2439439000009,151.2568390000015,151.2403120999952,None,150.2439439000009,None,150.2439439000009,None,150.2439439000009,None,152.10441095000132,None,152.10441095000132,None,152.10441095000132,None,,,,,,,,,,,,,,107,2023-03-30_14h51.43.271,Main,2022.1.1,60.009313444757254,
negative,neutral,2,j,l,,,,,1,12,30,12,,,,,,,,,,,,,prac,1,1,2,neutral,negative,l,l,1,1.3317868000012822,152.12007319999975,153.12091269999655,153.1042537999965,None,152.12007319999975,None,152.12007319999975,None,152.12007319999975,None,154.4375334500015,None,154.4375334500015,None,154.4375334500015,None,,,,,,,,,,,,,,107,2023-03-30_14h51.43.271,Main,2022.1.1,60.009313444757254,
positive,positive,2,l,j,,,,,1,13,31,11,,,,,,,,,,,,,prac,2,2,2,positive,positive,j,j,1,0.8484889999963343,154.4440015,155.4567081999994,155.4401091999971,None,154.4440015,None,154.4440015,None,154.4440015,None,156.2878746500006,None,156.2878746500006,None,156.2878746500006,None,,,,,,,,,,,,,,107,2023-03-30_14h51.43.271,Main,2022.1.1,60.009313444757254,
positive,negative,1,l,j,,,,,1,14,32,5,,,,,,,,,,,,,prac,2,2,1,negative,positive,j,j,1,0.9019729999999981,156.291682199997,157.30666219999694,157.29005789999792,None,156.291682199997,None,156.291682199997,None,156.291682199997,None,158.19129394999763,None,158.19129394999763,None,158.19129394999763,None,,,,,,,,,,,,,,107,2023-03-30_14h51.43.271,Main,2022.1.1,60.009313444757254,
neutral,neutral,1,k,k,,,,,1,15,33,1,,,,,,,,,,,,,prac,1,1,1,neutral,neutral,k,k,1,0.795012399998086,158.19476289999875,159.20673179999721,159.1900495000009,None,158.19476289999875,None,158.19476289999875,None,158.19476289999875,None,159.98778934999572,None,159.98778934999572,None,159.98778934999572,None,,,,,,,,,,,,,,107,2023-03-30_14h51.43.271,Main,2022.1.1,60.009313444757254,
negative,positive,2,j,l,,,,,1,16,34,15,,,,,,,,,,,,,prac,2,2,2,positive,negative,l,l,1,0.9162738000013633,159.99328349999996,161.00666829999682,160.99000259999593,None,159.99328349999996,None,159.99328349999996,None,159.99328349999996,None,161.90435985000076,None,161.90435985000076,None,161.90435985000076,None,,,,,,,,,,,,,,107,2023-03-30_14h51.43.271,Main,2022.1.1,60.009313444757254,
positive,positive,1,l,j,,,,,1,17,35,2,,,,,,,,,,,,,prac,2,2,1,positive,positive,j,l,0,0.8309584999951767,161.91033400000015,162.9207510999986,162.9040698999961,None,161.91033400000015,None,161.91033400000015,None,161.91033400000015,None,163.7373907000001,None,163.7373907000001,None,163.7373907000001,None,,,,,,,,,,,,,,107,2023-03-30_14h51.43.271,Main,2022.1.1,60.009313444757254,
,,,,,,,,,,,,,,,,,,,,,,,,,,,,,,,,,,,,,,,,,,,,,,,,,,,164.73738189999858,None,space,7.957297900007688,,,,,,,,,,107,2023-03-30_14h51.43.271,Main,2022.1.1,60.009313444757254,
,,,,,,,,,,,,,,,,,,,,,,,,,,,,,,,,,,,,,,,,,,,,,,,,,,,,,,,0.787963,-0.20092593,0,0,0,0.01606674999493407,None,,,107,2023-03-30_14h51.43.271,Main,2022.1.1,60.009313444757254,
positive,neutral,1,l,j,,,,,,,,,0,0,0,8,,,,,,,172.72306730000128,None,main,1,1,1,neutral,positive,j,j,1,0.8808281000019633,174.7382934999987,175.75378229999478,175.73711560000083,None,174.7382934999987,None,174.7382934999987,None,174.7382934999987,None,176.62041684999858,None,176.62041684999858,None,176.62041684999858,None,,,,,,,,,,,,,,107,2023-03-30_14h51.43.271,Main,2022.1.1,60.009313444757254,
neutral,neutral,2,k,k,,,,,,,,,0,1,1,10,,,,,,,,,main,1,1,2,neutral,neutral,k,k,1,0.7125635000047623,176.62351209999906,177.63711239999975,177.62050869999803,None,176.62351209999906,None,176.62351209999906,None,176.62351209999906,None,178.33706224999477,None,178.33706224999477,None,178.33706224999477,None,,,,,,,,,,,,,,107,2023-03-30_14h51.43.271,Main,2022.1.1,60.009313444757254,
negative,negative,2,j,l,,,,,,,,,0,2,2,9,,,,,,,,,main,2,2,2,negative,negative,l,l,1,0.9823472999996739,178.3376391999991,179.3371374999988,179.3371374999988,None,178.3376391999991,None,178.3376391999991,None,178.3376391999991,None,180.32072905000095,None,180.32072905000095,None,180.32072905000095,None,,,,,,,,,,,,,,107,2023-03-30_14h51.43.271,Main,2022.1.1,60.009313444757254,
negative,neutral,2,j,l,,,,,,,,,0,3,3,12,,,,,,,,,main,1,1,2,neutral,negative,l,l,1,0.7816916000010679,180.32692549999774,181.33951759999763,181.32040309999866,None,180.32692549999774,None,180.32692549999774,None,180.32692549999774,None,182.10401324999984,None,182.10401324999984,None,182.10401324999984,None,,,,,,,,,,,,,,107,2023-03-30_14h51.43.271,Main,2022.1.1,60.009313444757254,
neutral,negative,1,k,k,,,,,,,,,0,4,4,7,,,,,,,,,main,2,2,1,negative,neutral,k,k,1,0.6984854000038467,182.1100751999984,183.12278979999974,183.10619710000174,None,182.1100751999984,None,182.1100751999984,None,182.1100751999984,None,183.80398184999794,None,183.80398184999794,None,183.80398184999794,None,,,,,,,,,,,,,,107,2023-03-30_14h51.43.271,Main,2022.1.1,60.009313444757254,
positive,positive,1,l,j,,,,,,,,,0,5,5,2,,,,,,,,,main,1,1,1,positive,positive,j,j,1,0.8481838000006974,183.80783469999733,184.822777399997,184.80622929999663,None,183.80783469999733,None,183.80783469999733,None,183.80783469999733,None,185.65387255000095,None,185.65387255000095,None,185.65387255000095,None,,,,,,,,,,,,,,107,2023-03-30_14h51.43.271,Main,2022.1.1,60.009313444757254,
neutral,neutral,1,k,k,,,,,,,,,0,6,6,1,,,,,,,,,main,1,1,1,neutral,neutral,k,k,1,0.8172467999975197,185.6603038999965,186.6727097999974,186.65618569999788,None,185.6603038999965,None,185.6603038999965,None,185.6603038999965,None,187.4726691499978,None,187.4726691499978,None,187.4726691499978,None,,,,,,,,,,,,,,107,2023-03-30_14h51.43.271,Main,2022.1.1,60.009313444757254,
negative,neutral,1,j,l,,,,,,,,,0,7,7,3,,,,,,,,,main,1,1,1,neutral,negative,l,l,1,0.812822200001392,187.47631349999574,188.4868437999976,188.47019159999763,None,187.47631349999574,None,187.47631349999574,None,187.47631349999574,None,189.28678145000012,None,189.28678145000012,None,189.28678145000012,None,,,,,,,,,,,,,,107,2023-03-30_14h51.43.271,Main,2022.1.1,60.009313444757254,
positive,positive,2,l,j,,,,,,,,,0,8,8,11,,,,,,,,,main,1,1,2,positive,positive,j,j,1,0.7982695000027888,189.2870752000017,190.28686000000016,190.28686000000016,None,189.2870752000017,None,189.2870752000017,None,189.2870752000017,None,191.0868190499983,None,191.0868190499983,None,191.0868190499983,None,,,,,,,,,,,,,,107,2023-03-30_14h51.43.271,Main,2022.1.1,60.009313444757254,
negative,negative,1,j,l,,,,,,,,,0,9,9,0,,,,,,,,,main,2,2,1,negative,negative,l,l,1,0.9509331000008387,191.0933245999986,192.10593829999561,192.08935769999516,None,191.0933245999986,None,191.0933245999986,None,191.0933245999986,None,193.03930334999458,None,193.03930334999458,None,193.03930334999458,None,,,,,,,,,,,,,,107,2023-03-30_14h51.43.271,Main,2022.1.1,60.009313444757254,
neutral,negative,2,k,k,,,,,,,,,0,10,10,16,,,,,,,,,main,1,1,2,negative,neutral,k,k,1,0.7459151000002748,193.0433406000011,194.05590200000006,194.03932079999504,None,193.0433406000011,None,193.0433406000011,None,193.0433406000011,None,194.78705704999592,None,194.78705704999592,None,194.78705704999592,None,,,,,,,,,,,,,,107,2023-03-30_14h51.43.271,Main,2022.1.1,60.009313444757254,
positive,negative,1,l,j,,,,,,,,,0,11,11,5,,,,,,,,,main,1,1,1,negative,positive,j,j,1,0.9653861000042525,194.79309549999743,195.80593789999693,195.78921189999528,None,194.79309549999743,None,194.79309549999743,None,194.79309549999743,None,196.75381784999772,None,196.75381784999772,None,196.75381784999772,None,,,,,,,,,,,,,,107,2023-03-30_14h51.43.271,Main,2022.1.1,60.009313444757254,
negative,positive,1,j,l,,,,,,,,,0,12,12,6,,,,,,,,,main,2,2,1,positive,negative,l,l,1,0.837612999996054,196.75991339999746,197.77252069999668,197.75589919999766,None,196.75991339999746,None,196.75991339999746,None,196.75991339999746,None,198.58925904999487,None,198.58925904999487,None,198.58925904999487,None,,,,,,,,,,,,,,107,2023-03-30_14h51.43.271,Main,2022.1.1,60.009313444757254,
positive,negative,2,l,j,,,,,,,,,0,13,13,14,,,,,,,,,main,1,1,2,negative,positive,j,j,1,0.9615710000070976,198.59631239999726,199.60323190000054,199.58656589999737,None,198.59631239999726,None,198.59631239999726,None,198.59631239999726,None,200.55321704999514,None,200.55321704999514,None,200.55321704999514,None,,,,,,,,,,,,,,107,2023-03-30_14h51.43.271,Main,2022.1.1,60.009313444757254,
neutral,positive,2,k,k,,,,,,,,,0,14,14,13,,,,,,,,,main,1,1,2,positive,neutral,k,k,1,1.2006379000013112,200.5562673999957,201.57002629999624,201.553273599995,None,200.5562673999957,None,200.5562673999957,None,200.5562673999957,None,202.75367174999846,None,202.75367174999846,None,202.75367174999846,None,,,,,,,,,,,,,,107,2023-03-30_14h51.43.271,Main,2022.1.1,60.009313444757254,
negative,positive,2,j,l,,,,,,,,,0,15,15,15,,,,,,,,,main,1,1,2,positive,negative,l,l,1,0.8935316999995848,202.76209359999484,203.77234379999572,203.75576590000128,None,202.76209359999484,None,202.76209359999484,None,202.76209359999484,None,204.6535169499999,None,204.6535169499999,None,204.6535169499999,None,,,,,,,,,,,,,,107,2023-03-30_14h51.43.271,Main,2022.1.1,60.009313444757254,
neutral,positive,1,k,k,,,,,,,,,0,16,16,4,,,,,,,,,main,2,2,1,positive,neutral,k,k,1,0.7674088999992819,204.65944930000114,205.67224699999497,205.6556752999968,None,204.65944930000114,None,204.65944930000114,None,204.65944930000114,None,206.42231954999588,None,206.42231954999588,None,206.42231954999588,None,,,,,,,,,,,,,,107,2023-03-30_14h51.43.271,Main,2022.1.1,60.009313444757254,
positive,neutral,2,l,j,,,,,,,,,0,17,17,17,,,,,,,,,main,1,1,2,neutral,positive,j,j,1,0.662808799999766,206.42729189999955,207.43890129999636,207.42238219999854,None,206.42729189999955,None,206.42729189999955,None,206.42729189999955,None,208.08689084999932,None,208.08689084999932,None,208.08689084999932,None,,,,,,,,,,,,,,107,2023-03-30_14h51.43.271,Main,2022.1.1,60.009313444757254,
neutral,positive,1,k,k,,,,,,,,,1,0,18,4,,,,,,,,,main,2,2,1,positive,neutral,k,k,1,0.6978929999968386,208.09286160000192,209.10559929999727,209.08904800000164,None,208.09286160000192,None,208.09286160000192,None,208.09286160000192,None,209.78627045000175,None,209.78627045000175,None,209.78627045000175,None,,,,,,,,,,,,,,107,2023-03-30_14h51.43.271,Main,2022.1.1,60.009313444757254,
neutral,negative,2,k,k,,,,,,,,,1,1,19,16,,,,,,,,,main,1,1,2,negative,neutral,k,k,1,0.6817571999999927,209.78633339999942,210.7863667999991,210.7863667999991,None,209.78633339999942,None,209.78633339999942,None,209.78633339999942,None,211.46967305000143,None,211.46967305000143,None,211.46967305000143,None,,,,,,,,,,,,,,107,2023-03-30_14h51.43.271,Main,2022.1.1,60.009313444757254,
neutral,neutral,2,k,k,,,,,,,,,1,2,20,10,,,,,,,,,main,2,2,2,neutral,neutral,k,k,1,0.6665628999980981,211.4731918999969,212.4722191999972,212.4722191999972,None,211.4731918999969,None,211.4731918999969,None,211.4731918999969,None,213.13670704999967,None,213.13670704999967,None,213.13670704999967,None,,,,,,,,,,,,,,107,2023-03-30_14h51.43.271,Main,2022.1.1,60.009313444757254,
positive,negative,2,l,j,,,,,,,,,1,3,21,14,,,,,,,,,main,1,1,2,negative,positive,j,j,1,0.7986418000000413,213.14313640000182,214.15546029999678,214.1388408999992,None,213.14313640000182,None,213.14313640000182,None,213.14313640000182,None,214.93657364999817,None,214.93657364999817,None,214.93657364999817,None,,,,,,,,,,,,,,107,2023-03-30_14h51.43.271,Main,2022.1.1,60.009313444757254,
negative,negative,2,j,l,,,,,,,,,1,4,22,9,,,,,,,,,main,1,1,2,negative,negative,l,l,1,0.8472418000019388,214.94105029999628,215.95543370000087,215.93882879999728,None,214.94105029999628,None,214.94105029999628,None,214.94105029999628,None,216.78656054999882,None,216.78656054999882,None,216.78656054999882,None,,,,,,,,,,,,,,107,2023-03-30_14h51.43.271,Main,2022.1.1,60.009313444757254,
positive,positive,2,l,j,,,,,,,,,1,5,23,11,,,,,,,,,main,2,2,2,positive,positive,j,j,1,0.8671552000014344,216.7925313999949,217.8054667999968,217.7888454999993,None,216.7925313999949,None,216.7925313999949,None,216.7925313999949,None,218.6554681499998,None,218.6554681499998,None,218.6554681499998,None,,,,,,,,,,,,,,107,2023-03-30_14h51.43.271,Main,2022.1.1,60.009313444757254,
neutral,negative,1,k,k,,,,,,,,,1,6,24,7,,,,,,,,,main,1,1,1,negative,neutral,k,k,1,0.7625929999994696,218.65941799999564,219.67202910000196,219.65539770000032,None,218.65941799999564,None,218.65941799999564,None,218.65941799999564,None,220.4194691499957,None,220.4194691499957,None,220.4194691499957,None,,,,,,,,,,,,,,107,2023-03-30_14h51.43.271,Main,2022.1.1,60.009313444757254,
positive,positive,1,l,j,,,,,,,,,1,7,25,2,,,,,,,,,main,2,2,1,positive,positive,j,j,1,0.7151284999999916,220.41946379999717,221.41949279999972,221.41949279999972,None,220.41946379999717,None,220.41946379999717,None,220.41946379999717,None,222.13606515000137,None,222.13606515000137,None,222.13606515000137,None,,,,,,,,,,,,,,107,2023-03-30_14h51.43.271,Main,2022.1.1,60.009313444757254,
neutral,neutral,1,k,k,,,,,,,,,1,8,26,1,,,,,,,,,main,1,1,1,neutral,neutral,k,k,1,0.7816108999977587,222.1366024999952,223.13615810000192,223.13615810000192,None,222.1366024999952,None,222.1366024999952,None,222.1366024999952,None,223.9193989499996,None,223.9193989499996,None,223.9193989499996,None,,,,,,,,,,,,,,107,2023-03-30_14h51.43.271,Main,2022.1.1,60.009313444757254,
positive,neutral,1,l,j,,,,,,,,,1,9,27,8,,,,,,,,,main,1,1,1,neutral,positive,j,j,1,0.7654242999997223,223.92466830000194,224.93866269999853,224.9220273999963,None,223.92466830000194,None,223.92466830000194,None,223.92466830000194,None,225.68638164999865,None,225.68638164999865,None,225.68638164999865,None,,,,,,,,,,,,,,107,2023-03-30_14h51.43.271,Main,2022.1.1,60.009313444757254,
neutral,positive,2,k,k,,,,,,,,,1,10,28,13,,,,,,,,,main,1,1,2,positive,neutral,k,k,1,0.8208350999993854,225.69191670000146,226.70519649999915,226.688625099996,None,225.69191670000146,None,225.69191670000146,None,225.69191670000146,None,227.50314545,None,227.50314545,None,227.50314545,None,,,,,,,,,,,,,,107,2023-03-30_14h51.43.271,Main,2022.1.1,60.009313444757254,
negative,positive,2,j,l,,,,,,,,,1,11,29,15,,,,,,,,,main,1,1,2,positive,negative,l,l,1,0.8258491000015056,227.51217370000086,228.52176429999963,228.50523479999538,None,227.51217370000086,None,227.51217370000086,None,227.51217370000086,None,229.33595175000082,None,229.33595175000082,None,229.33595175000082,None,,,,,,,,,,,,,,107,2023-03-30_14h51.43.271,Main,2022.1.1,60.009313444757254,
negative,positive,1,j,l,,,,,,,,,1,12,30,6,,,,,,,,,main,2,2,1,positive,negative,l,l,1,1.1326469000050565,229.34283609999693,230.35511279999628,230.33852009999828,None,229.34283609999693,None,229.34283609999693,None,229.34283609999693,None,231.4692463499974,None,231.4692463499974,None,231.4692463499974,None,,,,,,,,,,,,,,107,2023-03-30_14h51.43.271,Main,2022.1.1,60.009313444757254,
negative,neutral,1,j,l,,,,,,,,,1,13,31,3,,,,,,,,,main,1,1,1,neutral,negative,l,l,1,0.8141153000033228,231.4863583999977,232.5017541999987,232.46829569999682,None,231.4863583999977,None,231.4863583999977,None,231.4863583999977,None,233.28576604999543,None,233.28576604999543,None,233.28576604999543,None,,,,,,,,,,,,,,107,2023-03-30_14h51.43.271,Main,2022.1.1,60.009313444757254,
positive,neutral,2,l,j,,,,,,,,,1,14,32,17,,,,,,,,,main,2,2,2,neutral,positive,j,j,1,0.7485406000050716,233.28590529999929,234.28588189999573,234.28588189999573,None,233.28590529999929,None,233.28590529999929,None,233.28590529999929,None,235.03584334999468,None,235.03584334999468,None,235.03584334999468,None,,,,,,,,,,,,,,107,2023-03-30_14h51.43.271,Main,2022.1.1,60.009313444757254,
positive,negative,1,l,j,,,,,,,,,1,15,33,5,,,,,,,,,main,1,1,1,negative,positive,j,j,1,0.7654880000045523,235.0419483000005,236.05509699999675,236.0383853999956,None,235.0419483000005,None,235.0419483000005,None,235.0419483000005,None,236.80283024999662,None,236.80283024999662,None,236.80283024999662,None,,,,,,,,,,,,,,107,2023-03-30_14h51.43.271,Main,2022.1.1,60.009313444757254,
negative,neutral,2,j,l,,,,,,,,,1,16,34,12,,,,,,,,,main,1,1,2,neutral,negative,l,l,1,0.865136699998402,236.80876349999744,237.82153999999719,237.80503889999818,None,236.80876349999744,None,236.80876349999744,None,236.80876349999744,None,238.6694336499946,None,238.6694336499946,None,238.6694336499946,None,,,,,,,,,,,,,,107,2023-03-30_14h51.43.271,Main,2022.1.1,60.009313444757254,
negative,negative,1,j,l,,,,,,,,,1,17,35,0,,,,,,,,,main,2,2,1,negative,negative,l,l,1,0.6482312000007369,238.68832789999578,239.68821999999636,239.6716482999982,None,238.68832789999578,None,238.68832789999578,None,238.68832789999578,None,240.31950164999725,None,240.31950164999725,None,240.31950164999725,None,,,,,,,,,,,,,,107,2023-03-30_14h51.43.271,Main,2022.1.1,60.009313444757254,
negative,neutral,2,j,l,,,,,,,,,2,0,36,12,,,,,,,,,main,1,1,2,neutral,negative,l,l,1,0.6673479999953997,240.32537310000043,241.33830369999487,241.32164029999694,None,240.32537310000043,None,240.32537310000043,None,240.32537310000043,None,241.9883069500007,None,241.9883069500007,None,241.9883069500007,None,,,,,,,,,,,,,,107,2023-03-30_14h51.43.271,Main,2022.1.1,60.009313444757254,
neutral,positive,1,k,k,,,,,,,,,2,1,37,4,,,,,,,,,main,2,2,1,positive,neutral,k,k,1,0.6291034000023501,241.99213929999678,243.00235299999622,242.98567529999855,None,241.99213929999678,None,241.99213929999678,None,241.99213929999678,None,243.61891854999848,None,243.61891854999848,None,243.61891854999848,None,,,,,,,,,,,,,,107,2023-03-30_14h51.43.271,Main,2022.1.1,60.009313444757254,
positive,negative,2,l,j,,,,,,,,,2,2,38,14,,,,,,,,,main,1,1,2,negative,positive,j,j,1,0.7676396999959252,243.61894210000173,244.61897339999996,244.61897339999996,None,243.61894210000173,None,243.61894210000173,None,243.61894210000173,None,245.38564555000048,None,245.38564555000048,None,245.38564555000048,None,,,,,,,,,,,,,,107,2023-03-30_14h51.43.271,Main,2022.1.1,60.009313444757254,
neutral,negative,2,k,k,,,,,,,,,2,3,39,16,,,,,,,,,main,1,1,2,negative,neutral,k,k,1,0.7629981999998563,245.39204410000093,246.40475909999805,246.38820119999582,None,245.39204410000093,None,245.39204410000093,None,245.39204410000093,None,247.15259605000173,None,247.15259605000173,None,247.15259605000173,None,,,,,,,,,,,,,,107,2023-03-30_14h51.43.271,Main,2022.1.1,60.009313444757254,
neutral,neutral,2,k,k,,,,,,,,,2,4,40,10,,,,,,,,,main,2,2,2,neutral,neutral,k,k,1,0.6150787000005948,247.1586290999985,248.1713907000012,248.15477850000025,None,247.1586290999985,None,247.1586290999985,None,247.1586290999985,None,248.76920854999625,None,248.76920854999625,None,248.76920854999625,None,,,,,,,,,,,,,,107,2023-03-30_14h51.43.271,Main,2022.1.1,60.009313444757254,
positive,positive,2,l,j,,,,,,,,,2,5,41,11,,,,,,,,,main,2,2,2,positive,positive,j,j,1,0.6974565999989863,248.77582959999563,249.78803399999742,249.7714149999956,None,248.77582959999563,None,248.77582959999563,None,248.77582959999563,None,250.46918285000137,None,250.46918285000137,None,250.46918285000137,None,,,,,,,,,,,,,,107,2023-03-30_14h51.43.271,Main,2022.1.1,60.009313444757254,
negative,negative,2,j,l,,,,,,,,,2,6,42,9,,,,,,,,,main,1,1,2,negative,negative,l,l,1,0.5983673999944585,250.4757041999983,251.48801609999646,251.47137839999777,None,250.4757041999983,None,250.4757041999983,None,250.4757041999983,None,252.0691535499951,None,252.0691535499951,None,252.0691535499951,None,,,,,,,,,,,,,,107,2023-03-30_14h51.43.271,Main,2022.1.1,60.009313444757254,
positive,neutral,1,l,j,,,,,,,,,2,7,43,8,,,,,,,,,main,1,1,1,neutral,positive,j,j,1,0.7815536000052816,252.07475719999638,253.08500829999684,253.0676792000013,None,252.07475719999638,None,252.07475719999638,None,252.07475719999638,None,253.8520491499963,None,253.8520491499963,None,253.8520491499963,None,,,,,,,,,,,,,,107,2023-03-30_14h51.43.271,Main,2022.1.1,60.009313444757254,
negative,neutral,1,j,l,,,,,,,,,2,8,44,3,,,,,,,,,main,2,2,1,neutral,negative,l,j,0,0.6813104999964708,253.8534856999977,254.8687643000012,254.85210269999516,None,253.8534856999977,None,253.8534856999977,None,253.8534856999977,None,255.53542749999906,None,255.53542749999906,None,255.53542749999906,None,,,,,,,,,,,,,,107,2023-03-30_14h51.43.271,Main,2022.1.1,60.009313444757254,
positive,negative,1,l,j,,,,,,,,,2,9,45,5,,,,,,,,,main,1,1,1,negative,positive,j,j,1,0.7711148000016692,256.53543889999855,257.53542139999627,257.518759599996,None,256.53543889999855,None,256.53543889999855,None,256.53543889999855,None,258.30238954999515,None,258.30238954999515,None,258.30238954999515,None,,,,,,,,,,,,,,107,2023-03-30_14h51.43.271,Main,2022.1.1,60.009313444757254,
positive,positive,1,l,j,,,,,,,,,2,10,46,2,,,,,,,,,main,2,2,1,positive,positive,j,j,1,0.7997618000008515,258.3087248000011,259.32119019999664,259.3045811999982,None,258.3087248000011,None,258.3087248000011,None,258.3087248000011,None,260.10449424999535,None,260.10449424999535,None,260.10449424999535,None,,,,,,,,,,,,,,107,2023-03-30_14h51.43.271,Main,2022.1.1,60.009313444757254,
neutral,positive,2,k,k,,,,,,,,,2,11,47,13,,,,,,,,,main,1,1,2,positive,neutral,k,k,1,0.73191009999573,260.1086190999995,261.12117189999844,261.1045113,None,260.1086190999995,None,260.1086190999995,None,260.1086190999995,None,261.8378623499972,None,261.8378623499972,None,261.8378623499972,None,,,,,,,,,,,,,,107,2023-03-30_14h51.43.271,Main,2022.1.1,60.009313444757254,
neutral,neutral,1,k,k,,,,,,,,,2,12,48,1,,,,,,,,,main,2,2,1,neutral,neutral,k,k,1,0.7985464000012144,261.84247689999756,262.8543927999999,262.837829600001,None,261.84247689999756,None,261.84247689999756,None,261.84247689999756,None,263.6378886499966,None,263.6378886499966,None,263.6378886499966,None,,,,,,,,,,,,,,107,2023-03-30_14h51.43.271,Main,2022.1.1,60.009313444757254,
negative,positive,1,j,l,,,,,,,,,2,13,49,6,,,,,,,,,main,2,2,1,positive,negative,l,l,1,1.0121329999965383,263.64174939999793,264.65433729999495,264.63566549999814,None,263.64174939999793,None,263.64174939999793,None,263.64174939999793,None,265.65152884999554,None,265.65152884999554,None,265.65152884999554,None,,,,,,,,,,,,,,107,2023-03-30_14h51.43.271,Main,2022.1.1,60.009313444757254,
negative,negative,1,j,l,,,,,,,,,2,14,50,0,,,,,,,,,main,1,1,1,negative,negative,l,l,1,0.664560099998198,265.6673418999999,266.66845959999773,266.65178559999913,None,265.6673418999999,None,265.6673418999999,None,265.6673418999999,None,267.31837974999655,None,267.31837974999655,None,267.31837974999655,None,,,,,,,,,,,,,,107,2023-03-30_14h51.43.271,Main,2022.1.1,60.009313444757254,
negative,positive,2,j,l,,,,,,,,,2,15,51,15,,,,,,,,,main,2,2,2,positive,negative,l,l,1,0.7153676999951131,267.3202697000015,268.33520029999636,268.31852129999606,None,267.3202697000015,None,267.3202697000015,None,267.3202697000015,None,269.0354098499971,None,269.0354098499971,None,269.0354098499971,None,,,,,,,,,,,,,,107,2023-03-30_14h51.43.271,Main,2022.1.1,60.009313444757254,
positive,neutral,2,l,j,,,,,,,,,2,16,52,17,,,,,,,,,main,1,1,2,neutral,positive,j,j,1,0.7999368000018876,269.0416918999981,270.054246599997,270.0376268999971,None,269.0416918999981,None,269.0416918999981,None,269.0416918999981,None,270.8375608500006,None,270.8375608500006,None,270.8375608500006,None,,,,,,,,,,,,,,107,2023-03-30_14h51.43.271,Main,2022.1.1,60.009313444757254,
neutral,negative,1,k,k,,,,,,,,,2,17,53,7,,,,,,,,,main,2,2,1,negative,neutral,k,k,1,0.7797438999987207,270.84167100000195,271.854265199996,271.83769459999894,None,270.84167100000195,None,270.84167100000195,None,270.84167100000195,None,272.61872444999756,None,272.61872444999756,None,272.61872444999756,None,,,,,,,,,,,,,,107,2023-03-30_14h51.43.271,Main,2022.1.1,60.009313444757254,
positive,neutral,2,l,j,,,,,,,,,3,0,54,17,,,,,,,,,main,2,2,2,neutral,positive,j,j,1,0.7484722000008333,272.62485529999685,273.63750309999887,273.62089959999867,None,272.62485529999685,None,272.62485529999685,None,272.62485529999685,None,274.3687390499996,None,274.3687390499996,None,274.3687390499996,None,,,,,,,,,,,,,,107,2023-03-30_14h51.43.271,Main,2022.1.1,60.009313444757254,
positive,positive,2,l,j,,,,,,,,,3,1,55,11,,,,,,,,,main,2,2,2,positive,positive,j,j,1,0.7145434000049136,274.37478259999625,275.3875221999988,275.37085799999477,None,274.37478259999625,None,274.37478259999625,None,274.37478259999625,None,276.0848195500017,None,276.0848195500017,None,276.0848195500017,None,,,,,,,,,,,,,,107,2023-03-30_14h51.43.271,Main,2022.1.1,60.009313444757254,
negative,neutral,2,j,l,,,,,,,,,3,2,56,12,,,,,,,,,main,1,1,2,neutral,negative,l,l,1,0.8317613000035635,276.08490399999573,277.08495160000166,277.08495160000166,None,276.08490399999573,None,276.08490399999573,None,276.08490399999573,None,277.91826134999576,None,277.91826134999576,None,277.91826134999576,None,,,,,,,,,,,,,,107,2023-03-30_14h51.43.271,Main,2022.1.1,60.009313444757254,
neutral,positive,1,k,k,,,,,,,,,3,3,57,4,,,,,,,,,main,2,2,1,positive,neutral,k,k,1,0.8156862999967416,277.9241363999972,278.9374467999951,278.92078670000046,None,277.9241363999972,None,277.9241363999972,None,277.9241363999972,None,279.7352657499956,None,279.7352657499956,None,279.7352657499956,None,,,,,,,,,,,,,,107,2023-03-30_14h51.43.271,Main,2022.1.1,60.009313444757254,
negative,neutral,1,j,l,,,,,,,,,3,4,58,3,,,,,,,,,main,1,1,1,neutral,negative,l,l,1,0.8149518999998691,279.74135709999973,280.7540083999993,280.7374137000006,None,279.74135709999973,None,279.74135709999973,None,279.74135709999973,None,281.55182565000143,None,281.55182565000143,None,281.55182565000143,None,,,,,,,,,,,,,,107,2023-03-30_14h51.43.271,Main,2022.1.1,60.009313444757254,
positive,positive,1,l,j,,,,,,,,,3,5,59,2,,,,,,,,,main,2,2,1,positive,positive,j,j,1,0.797753200000443,281.558100299997,282.57069010000123,282.55396910000127,None,281.558100299997,None,281.558100299997,None,281.558100299997,None,283.35180464999723,None,283.35180464999723,None,283.35180464999723,None,,,,,,,,,,,,,,107,2023-03-30_14h51.43.271,Main,2022.1.1,60.009313444757254,
neutral,positive,2,k,k,,,,,,,,,3,6,60,13,,,,,,,,,main,2,2,2,positive,neutral,k,k,1,0.7651779000007082,283.3579587999993,284.3706130999999,284.35402999999496,None,283.3579587999993,None,283.3579587999993,None,283.3579587999993,None,285.11842334999676,None,285.11842334999676,None,285.11842334999676,None,,,,,,,,,,,,,,107,2023-03-30_14h51.43.271,Main,2022.1.1,60.009313444757254,
neutral,neutral,1,k,k,,,,,,,,,3,7,61,1,,,,,,,,,main,2,2,1,neutral,neutral,k,k,1,0.8470095000011497,285.1229009000017,286.1497462999978,286.12749639999674,None,285.1229009000017,None,285.1229009000017,None,285.1229009000017,None,286.9679637499954,None,286.9679637499954,None,286.9679637499954,None,,,,,,,,,,,,,,107,2023-03-30_14h51.43.271,Main,2022.1.1,60.009313444757254,
negative,negative,2,j,l,,,,,,,,,3,8,62,9,,,,,,,,,main,1,1,2,negative,negative,l,l,1,0.7651326000050176,286.9680036999998,287.9680515,287.9680515,None,286.9680036999998,None,286.9680036999998,None,286.9680036999998,None,288.73464535000096,None,288.73464535000096,None,288.73464535000096,None,,,,,,,,,,,,,,107,2023-03-30_14h51.43.271,Main,2022.1.1,60.009313444757254,
positive,negative,2,l,j,,,,,,,,,3,9,63,14,,,,,,,,,main,2,2,2,negative,positive,j,j,1,1.1816359999938868,288.73660910000035,289.75136859999475,289.73470019999513,None,288.73660910000035,None,288.73660910000035,None,288.73660910000035,None,290.9179958499968,None,290.9179958499968,None,290.9179958499968,None,,,,,,,,,,,,,,107,2023-03-30_14h51.43.271,Main,2022.1.1,60.009313444757254,
neutral,negative,2,k,k,,,,,,,,,3,10,64,16,,,,,,,,,main,1,1,2,negative,neutral,k,k,1,0.715041100003873,290.92370890000166,291.9371189000012,291.92054639999697,None,290.92370890000166,None,290.92370890000166,None,290.92370890000166,None,292.6345779499985,None,292.6345779499985,None,292.6345779499985,None,,,,,,,,,,,,,,107,2023-03-30_14h51.43.271,Main,2022.1.1,60.009313444757254,
negative,negative,1,j,l,,,,,,,,,3,11,65,0,,,,,,,,,main,1,1,1,negative,negative,l,l,1,0.7155561999970814,292.63812199999666,293.6537429000018,293.6371480999951,None,292.63812199999666,None,292.63812199999666,None,292.63812199999666,None,294.3515754499982,None,294.3515754499982,None,294.3515754499982,None,,,,,,,,,,,,,,107,2023-03-30_14h51.43.271,Main,2022.1.1,60.009313444757254,
negative,positive,1,j,l,,,,,,,,,3,12,66,6,,,,,,,,,main,1,1,1,positive,negative,l,l,1,1.0817425999994157,294.3576355999976,295.37035399999877,295.3537734999991,None,294.3576355999976,None,294.3576355999976,None,294.3576355999976,None,296.43480134999993,None,296.43480134999993,None,296.43480134999993,None,,,,,,,,,,,,,,107,2023-03-30_14h51.43.271,Main,2022.1.1,60.009313444757254,
positive,neutral,1,l,j,,,,,,,,,3,13,67,8,,,,,,,,,main,2,2,1,neutral,positive,j,j,1,0.8148096999939298,296.44081310000183,297.4536622999949,297.43713209999987,None,296.44081310000183,None,296.44081310000183,None,296.44081310000183,None,298.25144095000144,None,298.25144095000144,None,298.25144095000144,None,,,,,,,,,,,,,,107,2023-03-30_14h51.43.271,Main,2022.1.1,60.009313444757254,
negative,positive,2,j,l,,,,,,,,,3,14,68,15,,,,,,,,,main,1,1,2,positive,negative,l,l,1,0.8806123999966076,298.25834570000006,299.26780940000026,299.2511463999981,None,298.25834570000006,None,298.25834570000006,None,298.25834570000006,None,300.1343787499951,None,300.1343787499951,None,300.1343787499951,None,,,,,,,,,,,,,,107,2023-03-30_14h51.43.271,Main,2022.1.1,60.009313444757254,
neutral,negative,1,k,k,,,,,,,,,3,15,69,7,,,,,,,,,main,1,1,1,negative,neutral,k,k,1,0.9510006999989855,300.13441559999774,301.13448100000096,301.13448100000096,None,300.13441559999774,None,300.13441559999774,None,300.13441559999774,None,302.0868890500002,None,302.0868890500002,None,302.0868890500002,None,,,,,,,,,,,,,,107,2023-03-30_14h51.43.271,Main,2022.1.1,60.009313444757254,
positive,negative,1,l,j,,,,,,,,,3,16,70,5,,,,,,,,,main,1,1,1,negative,positive,j,j,1,1.1499514000024647,302.09102419999545,303.10356630000024,303.08695050000097,None,302.09102419999545,None,302.09102419999545,None,302.09102419999545,None,304.23715604999745,None,304.23715604999745,None,304.23715604999745,None,,,,,,,,,,,,,,107,2023-03-30_14h51.43.271,Main,2022.1.1,60.009313444757254,
neutral,neutral,2,k,k,,,,,,,,,3,17,71,10,,,,,,,,,main,1,1,2,neutral,neutral,k,k,1,0.8300872999971034,304.241872300001,305.25355750000017,305.2368658999985,None,304.241872300001,None,304.241872300001,None,304.241872300001,None,306.0700801500003,None,306.0700801500003,None,306.0700801500003,None,,,,,,,,,,,,,,107,2023-03-30_14h51.43.271,Main,2022.1.1,60.009313444757254,
positive,neutral,1,l,j,,,,,,,,,4,0,72,8,,,,,,,,,main,1,1,1,neutral,positive,j,j,1,0.813289599995187,306.0731594999961,307.0868413999997,307.0701595999999,None,306.0731594999961,None,306.0731594999961,None,306.0731594999961,None,307.884594949997,None,307.884594949997,None,307.884594949997,None,,,,,,,,,,,,,,107,2023-03-30_14h51.43.271,Main,2022.1.1,60.009313444757254,
negative,neutral,2,j,l,,,,,,,,,4,1,73,12,,,,,,,,,main,2,2,2,neutral,negative,l,l,1,0.7811633999954211,307.9034838000007,308.90338879999763,308.88673969999945,None,307.9034838000007,None,307.9034838000007,None,307.9034838000007,None,309.66749704999677,None,309.66749704999677,None,309.66749704999677,None,,,,,,,,,,,,,,107,2023-03-30_14h51.43.271,Main,2022.1.1,60.009313444757254,
negative,negative,2,j,l,,,,,,,,,4,2,74,9,,,,,,,,,main,2,2,2,negative,negative,l,l,1,0.6973811999996542,309.66847060000146,310.66754570000194,310.66754570000194,None,309.66847060000146,None,309.66847060000146,None,309.66847060000146,None,311.3675010499952,None,311.3675010499952,None,311.3675010499952,None,,,,,,,,,,,,,,107,2023-03-30_14h51.43.271,Main,2022.1.1,60.009313444757254,
positive,positive,1,l,j,,,,,,,,,4,3,75,2,,,,,,,,,main,1,1,1,positive,positive,j,j,1,0.8323489000031259,311.37178709999716,312.3867218000014,312.37007939999603,None,311.37178709999716,None,311.37178709999716,None,311.37178709999716,None,313.2011587499961,None,313.2011587499961,None,313.2011587499961,None,,,,,,,,,,,,,,107,2023-03-30_14h51.43.271,Main,2022.1.1,60.009313444757254,
positive,negative,1,l,j,,,,,,,,,4,4,76,5,,,,,,,,,main,2,2,1,negative,positive,j,j,1,0.717582899997069,313.2073220999955,314.21772169999895,314.2034455999965,None,313.2073220999955,None,313.2073220999955,None,313.2073220999955,None,314.91999104999707,None,314.91999104999707,None,314.91999104999707,None,,,,,,,,,,,,,,107,2023-03-30_14h51.43.271,Main,2022.1.1,60.009313444757254,
negative,negative,1,j,l,,,,,,,,,4,5,77,0,,,,,,,,,main,1,1,1,negative,negative,l,l,1,0.8458967999977176,314.9238971999948,315.93653610000183,315.9199299999964,None,314.9238971999948,None,314.9238971999948,None,314.9238971999948,None,316.7677367500015,None,316.7677367500015,None,316.7677367500015,None,,,,,,,,,,,,,,107,2023-03-30_14h51.43.271,Main,2022.1.1,60.009313444757254,
positive,negative,2,l,j,,,,,,,,,4,6,78,14,,,,,,,,,main,2,2,2,negative,positive,j,j,1,0.8505774000004749,316.7735490999985,317.7865449999954,317.76997760000086,None,316.7735490999985,None,316.7735490999985,None,316.7735490999985,None,318.619957550001,None,318.619957550001,None,318.619957550001,None,,,,,,,,,,,,,,107,2023-03-30_14h51.43.271,Main,2022.1.1,60.009313444757254,
negative,neutral,1,j,l,,,,,,,,,4,7,79,3,,,,,,,,,main,1,1,1,neutral,negative,l,l,1,0.7791911000022083,318.6239429999987,319.63397489999625,319.61733660000027,None,318.6239429999987,None,318.6239429999987,None,318.6239429999987,None,320.40062075000026,None,320.40062075000026,None,320.40062075000026,None,,,,,,,,,,,,,,107,2023-03-30_14h51.43.271,Main,2022.1.1,60.009313444757254,
positive,positive,2,l,j,,,,,,,,,4,8,80,11,,,,,,,,,main,2,2,2,positive,positive,j,j,1,0.9650849000026938,320.4009296000004,321.40070040000137,321.40070040000137,None,320.4009296000004,None,320.4009296000004,None,320.4009296000004,None,322.36728144999654,None,322.36728144999654,None,322.36728144999654,None,,,,,,,,,,,,,,107,2023-03-30_14h51.43.271,Main,2022.1.1,60.009313444757254,
neutral,neutral,1,k,k,,,,,,,,,4,9,81,1,,,,,,,,,main,2,2,1,neutral,neutral,k,k,1,0.8984226000029594,322.3696256999974,323.3839829999997,323.3673213000002,None,322.3696256999974,None,322.3696256999974,None,322.3696256999974,None,324.2672731500003,None,324.2672731500003,None,324.2672731500003,None,,,,,,,,,,,,,,107,2023-03-30_14h51.43.271,Main,2022.1.1,60.009313444757254,
neutral,positive,1,k,k,,,,,,,,,4,10,82,4,,,,,,,,,main,1,1,1,positive,neutral,k,k,1,0.6146079000027385,324.27164079999784,325.28642549999495,325.2698027000006,None,324.27164079999784,None,324.27164079999784,None,324.27164079999784,None,325.8842213499971,None,325.8842213499971,None,325.8842213499971,None,,,,,,,,,,,,,,107,2023-03-30_14h51.43.271,Main,2022.1.1,60.009313444757254,
neutral,positive,2,k,k,,,,,,,,,4,11,83,13,,,,,,,,,main,2,2,2,positive,neutral,k,k,1,0.6174290999988443,325.8881920999993,326.90302269999665,326.8864610000019,None,325.8881920999993,None,325.8881920999993,None,325.8881920999993,None,327.50288755000076,None,327.50288755000076,None,327.50288755000076,None,,,,,,,,,,,,,,107,2023-03-30_14h51.43.271,Main,2022.1.1,60.009313444757254,
neutral,neutral,2,k,k,,,,,,,,,4,12,84,10,,,,,,,,,main,1,1,2,neutral,neutral,k,k,1,0.6459045999945374,327.5064140999966,328.51968710000074,328.5030508999989,None,327.5064140999966,None,327.5064140999966,None,327.5064140999966,None,329.15088134999826,None,329.15088134999826,None,329.15088134999826,None,,,,,,,,,,,,,,107,2023-03-30_14h51.43.271,Main,2022.1.1,60.009313444757254,
neutral,negative,1,k,k,,,,,,,,,4,13,85,7,,,,,,,,,main,1,1,1,negative,neutral,k,k,1,0.7685409000041545,329.156544999998,330.16961060000176,330.15304040000046,None,329.156544999998,None,329.156544999998,None,329.156544999998,None,330.92048394999586,None,330.92048394999586,None,330.92048394999586,None,,,,,,,,,,,,,,107,2023-03-30_14h51.43.271,Main,2022.1.1,60.009313444757254,
positive,neutral,2,l,j,,,,,,,,,4,14,86,17,,,,,,,,,main,2,2,2,neutral,positive,j,j,1,0.7270558000018355,330.92539260000194,331.9337624999971,331.9170920999968,None,330.92539260000194,None,330.92539260000194,None,330.92539260000194,None,332.6503123499948,None,332.6503123499948,None,332.6503123499948,None,,,,,,,,,,,,,,107,2023-03-30_14h51.43.271,Main,2022.1.1,60.009313444757254,
neutral,negative,2,k,k,,,,,,,,,4,15,87,16,,,,,,,,,main,2,2,2,negative,neutral,k,k,1,0.7809949000002234,332.65196509999805,333.6670465999996,333.65039070000057,None,332.65196509999805,None,332.65196509999805,None,332.65196509999805,None,334.4336792499977,None,334.4336792499977,None,334.4336792499977,None,,,,,,,,,,,,,,107,2023-03-30_14h51.43.271,Main,2022.1.1,60.009313444757254,
negative,positive,1,j,l,,,,,,,,,4,16,88,6,,,,,,,,,main,2,2,1,positive,negative,l,l,1,0.8484573000023374,334.434565399999,335.43372290000116,335.43372290000116,None,334.434565399999,None,334.434565399999,None,334.434565399999,None,336.2836612499974,None,336.2836612499974,None,336.2836612499974,None,,,,,,,,,,,,,,107,2023-03-30_14h51.43.271,Main,2022.1.1,60.009313444757254,
negative,positive,2,j,l,,,,,,,,,4,17,89,15,,,,,,,,,main,2,2,2,positive,negative,l,l,1,0.8039285000049858,336.28969539999525,337.3028043999948,337.2862047000017,None,336.28969539999525,None,336.28969539999525,None,336.28969539999525,None,338.0891024499957,None,338.0891024499957,None,338.0891024499957,None,,,,,,,,,,,,,,107,2023-03-30_14h51.43.271,Main,2022.1.1,60.009313444757254,
neutral,neutral,2,k,k,,,,,,,,,5,0,90,10,,,,,,,,,main,2,2,2,neutral,neutral,k,k,1,0.7470749999993131,338.09379739999713,339.1027466000014,339.0861939999959,None,338.09379739999713,None,338.09379739999713,None,338.09379739999713,None,339.8376686499993,None,339.8376686499993,None,339.8376686499993,None,,,,,,,,,,,,,,107,2023-03-30_14h51.43.271,Main,2022.1.1,60.009313444757254,
positive,neutral,1,l,j,,,,,,,,,5,1,91,8,,,,,,,,,main,2,2,1,neutral,positive,j,j,1,0.7599478000047384,339.8426987999992,340.85277069999574,340.8361158999978,None,339.8426987999992,None,339.8426987999992,None,339.8426987999992,None,341.60024804999705,None,341.60024804999705,None,341.60024804999705,None,,,,,,,,,,,,,,107,2023-03-30_14h51.43.271,Main,2022.1.1,60.009313444757254,
neutral,negative,1,k,k,,,,,,,,,5,2,92,7,,,,,,,,,main,2,2,1,negative,neutral,k,k,1,0.73200309999811,341.61077139999543,342.6193540999957,342.6027308999983,None,341.61077139999543,None,341.61077139999543,None,341.61077139999543,None,343.33384464999983,None,343.33384464999983,None,343.33384464999983,None,,,,,,,,,,,,,,107,2023-03-30_14h51.43.271,Main,2022.1.1,60.009313444757254,
neutral,positive,1,k,k,,,,,,,,,5,3,93,4,,,,,,,,,main,2,2,1,positive,neutral,k,k,1,1.4837230999983149,343.33993439999904,344.35016489999543,344.3334797999996,None,343.33993439999904,None,343.33993439999904,None,343.33993439999904,None,345.816787749996,None,345.816787749996,None,345.816787749996,None,,,,,,,,,,,,,,107,2023-03-30_14h51.43.271,Main,2022.1.1,60.009313444757254,
negative,neutral,1,j,l,,,,,,,,,5,4,94,3,,,,,,,,,main,2,2,1,neutral,negative,l,l,1,0.8964909999995143,345.8193525999959,346.83347720000165,346.8168108999962,None,345.8193525999959,None,345.8193525999959,None,345.8193525999959,None,347.7170954499976,None,347.7170954499976,None,347.7170954499976,None,,,,,,,,,,,,,,107,2023-03-30_14h51.43.271,Main,2022.1.1,60.009313444757254,
positive,positive,2,l,j,,,,,,,,,5,5,95,11,,,,,,,,,main,2,2,2,positive,positive,j,j,1,1.2839428000006592,347.7359859999997,348.7357889999985,348.71937009999965,None,347.7359859999997,None,347.7359859999997,None,347.7359859999997,None,350.0025283500014,None,350.0025283500014,None,350.0025283500014,None,,,,,,,,,,,,,,107,2023-03-30_14h51.43.271,Main,2022.1.1,60.009313444757254,
positive,positive,1,l,j,,,,,,,,,5,6,96,2,,,,,,,,,main,1,1,1,positive,positive,j,j,1,0.7294037000028766,350.00725840000086,351.01914589999797,351.0026063999976,None,350.00725840000086,None,350.00725840000086,None,350.00725840000086,None,351.7336595499961,None,351.7336595499961,None,351.7336595499961,None,,,,,,,,,,,,,,107,2023-03-30_14h51.43.271,Main,2022.1.1,60.009313444757254,
negative,negative,1,j,l,,,,,,,,,5,7,97,0,,,,,,,,,main,1,1,1,negative,negative,l,l,1,0.8846439000044484,351.74015150000196,352.7524124999982,352.73589569999604,None,351.74015150000196,None,351.74015150000196,None,351.74015150000196,None,353.6190548499959,None,353.6190548499959,None,353.6190548499959,None,,,,,,,,,,,,,,107,2023-03-30_14h51.43.271,Main,2022.1.1,60.009313444757254,
positive,negative,1,l,j,,,,,,,,,5,8,98,5,,,,,,,,,main,1,1,1,negative,positive,j,j,1,0.7618065999995451,353.6230176999961,354.6332021999988,354.616546199999,None,353.6230176999961,None,353.6230176999961,None,353.6230176999961,None,355.38318995000157,None,355.38318995000157,None,355.38318995000157,None,,,,,,,,,,,,,,107,2023-03-30_14h51.43.271,Main,2022.1.1,60.009313444757254,
positive,negative,2,l,j,,,,,,,,,5,9,99,14,,,,,,,,,main,1,1,2,negative,positive,j,j,1,0.8177903999967384,355.3831810999982,356.38328639999963,356.38328639999963,None,355.3831810999982,None,355.3831810999982,None,355.3831810999982,None,357.2024625499995,None,357.2024625499995,None,357.2024625499995,None,,,,,,,,,,,,,,107,2023-03-30_14h51.43.271,Main,2022.1.1,60.009313444757254,
negative,positive,2,j,l,,,,,,,,,5,10,100,15,,,,,,,,,main,1,1,2,positive,negative,l,l,1,0.8310916999980691,357.20718679999845,358.2189741999973,358.2023498999988,None,357.20718679999845,None,357.20718679999845,None,357.20718679999845,None,359.03576714999656,None,359.03576714999656,None,359.03576714999656,None,,,,,,,,,,,,,,107,2023-03-30_14h51.43.271,Main,2022.1.1,60.009313444757254,
neutral,negative,2,k,k,,,,,,,,,5,11,101,16,,,,,,,,,main,2,2,2,negative,neutral,k,k,1,0.9121835000041756,359.03961519999575,360.0521934999997,360.0357032999964,None,359.03961519999575,None,359.03961519999575,None,359.03961519999575,None,360.9497873499946,None,360.9497873499946,None,360.9497873499946,None,,,,,,,,,,,,,,107,2023-03-30_14h51.43.271,Main,2022.1.1,60.009313444757254,
neutral,positive,2,k,k,,,,,,,,,5,12,102,13,,,,,,,,,main,1,1,2,positive,neutral,k,k,1,0.7168730999983381,360.95633819999784,361.9688946999959,361.9522849999994,None,360.95633819999784,None,360.95633819999784,None,360.95633819999784,None,362.66686985000126,None,362.66686985000126,None,362.66686985000126,None,,,,,,,,,,,,,,107,2023-03-30_14h51.43.271,Main,2022.1.1,60.009313444757254,
negative,negative,2,j,l,,,,,,,,,5,13,103,9,,,,,,,,,main,1,1,2,negative,negative,l,l,1,0.7137642999950913,362.673240600001,363.6854624999978,363.6688826999962,None,362.673240600001,None,362.673240600001,None,362.673240600001,None,364.38341835000176,None,364.38341835000176,None,364.38341835000176,None,,,,,,,,,,,,,,107,2023-03-30_14h51.43.271,Main,2022.1.1,60.009313444757254,
positive,neutral,2,l,j,,,,,,,,,5,14,104,17,,,,,,,,,main,2,2,2,neutral,positive,j,j,1,0.7650120999969658,364.38965910000115,365.39970000000176,365.3830383999957,None,364.38965910000115,None,364.38965910000115,None,364.38965910000115,None,366.14961014999574,None,366.14961014999574,None,366.14961014999574,None,,,,,,,,,,,,,,107,2023-03-30_14h51.43.271,Main,2022.1.1,60.009313444757254,
negative,positive,1,j,l,,,,,,,,,5,15,105,6,,,,,,,,,main,2,2,1,positive,negative,l,l,1,0.7470850000026985,366.15157460000046,367.1663644,367.1496843999994,None,366.15157460000046,None,366.15157460000046,None,366.15157460000046,None,367.89959925000005,None,367.89959925000005,None,367.89959925000005,None,,,,,,,,,,,,,,107,2023-03-30_14h51.43.271,Main,2022.1.1,60.009313444757254,
neutral,neutral,1,k,k,,,,,,,,,5,16,106,1,,,,,,,,,main,2,2,1,neutral,neutral,k,k,1,0.7648288999989745,367.90223069999774,368.91636070000095,368.89968280000176,None,367.90223069999774,None,367.90223069999774,None,367.90223069999774,None,369.6662591500004,None,369.6662591500004,None,369.6662591500004,None,,,,,,,,,,,,,,107,2023-03-30_14h51.43.271,Main,2022.1.1,60.009313444757254,
negative,neutral,2,j,l,,,,,,,,,5,17,107,12,,,,,,,,,main,2,2,2,neutral,negative,l,l,1,0.7318981000062195,369.6726395000005,370.685424299998,370.6688069000011,None,369.6726395000005,None,369.6726395000005,None,369.6726395000005,None,371.39989234999814,None,371.39989234999814,None,371.39989234999814,None,,,,,,,,,,,,,,107,2023-03-30_14h51.43.271,Main,2022.1.1,60.009313444757254,
neutral,neutral,2,k,k,,,,,,,,,6,0,108,10,,,,,,,,,main,1,1,2,neutral,neutral,k,k,1,0.817370500000834,371.4057990000001,372.4186896999963,372.4021014999962,None,371.4057990000001,None,371.4057990000001,None,371.4057990000001,None,373.2188365499984,None,373.2188365499984,None,373.2188365499984,None,,,,,,,,,,,,,,107,2023-03-30_14h51.43.271,Main,2022.1.1,60.009313444757254,
negative,neutral,1,j,l,,,,,,,,,6,1,109,3,,,,,,,,,main,2,2,1,neutral,negative,l,l,1,0.7462699000025168,373.2227232000005,374.2353124000001,374.21870820000186,None,373.2227232000005,None,373.2227232000005,None,373.2227232000005,None,374.96646674999795,None,374.96646674999795,None,374.96646674999795,None,,,,,,,,,,,,,,107,2023-03-30_14h51.43.271,Main,2022.1.1,60.009313444757254,
negative,negative,1,j,l,,,,,,,,,6,2,110,0,,,,,,,,,main,2,2,1,negative,negative,l,l,1,0.7151729000033811,374.97323329999927,375.9852680999975,375.96867389999534,None,374.97323329999927,None,374.97323329999927,None,374.97323329999927,None,376.682654949998,None,376.682654949998,None,376.682654949998,None,,,,,,,,,,,,,,107,2023-03-30_14h51.43.271,Main,2022.1.1,60.009313444757254,
negative,positive,1,j,l,,,,,,,,,6,3,111,6,,,,,,,,,main,1,1,1,positive,negative,l,l,1,0.8139028000005055,376.68483520000154,377.69940009999846,377.6827467999974,None,376.68483520000154,None,376.68483520000154,None,376.68483520000154,None,378.499391949999,None,378.499391949999,None,378.499391949999,None,,,,,,,,,,,,,,107,2023-03-30_14h51.43.271,Main,2022.1.1,60.009313444757254,
positive,negative,1,l,j,,,,,,,,,6,4,112,5,,,,,,,,,main,1,1,1,negative,positive,j,j,1,0.732200999998895,378.50501729999814,379.5186429999958,379.50199160000193,None,378.50501729999814,None,378.50501729999814,None,378.50501729999814,None,380.23302504999594,None,380.23302504999594,None,380.23302504999594,None,,,,,,,,,,,,,,107,2023-03-30_14h51.43.271,Main,2022.1.1,60.009313444757254,
neutral,negative,2,k,k,,,,,,,,,6,5,113,16,,,,,,,,,main,1,1,2,negative,neutral,k,k,1,0.7642023000007612,380.24002029999974,381.2518085999982,381.23524349999934,None,380.24002029999974,None,380.24002029999974,None,380.24002029999974,None,381.9997491499977,None,381.9997491499977,None,381.9997491499977,None,,,,,,,,,,,,,,107,2023-03-30_14h51.43.271,Main,2022.1.1,60.009313444757254,
positive,neutral,2,l,j,,,,,,,,,6,6,114,17,,,,,,,,,main,2,2,2,neutral,positive,j,j,1,0.7150803999975324,382.00568270000076,383.01852099999815,383.0018440999993,None,382.00568270000076,None,382.00568270000076,None,382.00568270000076,None,383.7162371499959,None,383.7162371499959,None,383.7162371499959,None,,,,,,,,,,,,,,107,2023-03-30_14h51.43.271,Main,2022.1.1,60.009313444757254,
negative,negative,2,j,l,,,,,,,,,6,7,115,9,,,,,,,,,main,1,1,2,negative,negative,l,l,1,0.6817789999986417,383.7227713999964,384.7350226999988,384.71637299999566,None,383.7227713999964,None,383.7227713999964,None,383.7227713999964,None,385.39966034999964,None,385.39966034999964,None,385.39966034999964,None,,,,,,,,,,,,,,107,2023-03-30_14h51.43.271,Main,2022.1.1,60.009313444757254,
positive,positive,2,l,j,,,,,,,,,6,8,116,11,,,,,,,,,main,2,2,2,positive,positive,j,j,1,0.8646246999996947,385.405697999995,386.41551230000186,386.39809439999954,None,385.405697999995,None,385.405697999995,None,385.405697999995,None,387.2657567500006,None,387.2657567500006,None,387.2657567500006,None,,,,,,,,,,,,,,107,2023-03-30_14h51.43.271,Main,2022.1.1,60.009313444757254,
positive,neutral,1,l,j,,,,,,,,,6,9,117,8,,,,,,,,,main,2,2,1,neutral,positive,j,j,1,0.881670299997495,387.2659485999975,388.26584659999935,388.26584659999935,None,387.2659485999975,None,387.2659485999975,None,387.2659485999975,None,389.1491507499974,None,389.1491507499974,None,389.1491507499974,None,,,,,,,,,,,,,,107,2023-03-30_14h51.43.271,Main,2022.1.1,60.009313444757254,
neutral,negative,1,k,k,,,,,,,,,6,10,118,7,,,,,,,,,main,2,2,1,negative,neutral,k,k,1,0.7012493000001996,389.1557621999964,390.1683361999967,390.15170339999895,None,389.1557621999964,None,389.1557621999964,None,389.1557621999964,None,390.85163944999806,None,390.85163944999806,None,390.85163944999806,None,,,,,,,,,,,,,,107,2023-03-30_14h51.43.271,Main,2022.1.1,60.009313444757254,
negative,neutral,2,j,l,,,,,,,,,6,11,119,12,,,,,,,,,main,1,1,2,neutral,negative,l,l,1,0.7626206999993883,390.8557327000017,391.8683602999954,391.851657399995,None,390.8557327000017,None,390.8557327000017,None,390.8557327000017,None,392.6157482499999,None,392.6157482499999,None,392.6157482499999,None,,,,,,,,,,,,,,107,2023-03-30_14h51.43.271,Main,2022.1.1,60.009313444757254,
neutral,positive,2,k,k,,,,,,,,,6,12,120,13,,,,,,,,,main,2,2,2,positive,neutral,k,k,1,0.7509744000053615,392.62227669999993,393.6348908,393.6182970000009,None,392.62227669999993,None,392.62227669999993,None,392.62227669999993,None,394.36821964999547,None,394.36821964999547,None,394.36821964999547,None,,,,,,,,,,,,,,107,2023-03-30_14h51.43.271,Main,2022.1.1,60.009313444757254,
neutral,neutral,1,k,k,,,,,,,,,6,13,121,1,,,,,,,,,main,1,1,1,neutral,neutral,k,k,1,0.7974361000015051,394.3724279999951,395.3848696999994,395.3682392999981,None,394.3724279999951,None,394.3724279999951,None,394.3724279999951,None,396.16808894999997,None,396.16808894999997,None,396.16808894999997,None,,,,,,,,,,,,,,107,2023-03-30_14h51.43.271,Main,2022.1.1,60.009313444757254,
neutral,positive,1,k,k,,,,,,,,,6,14,122,4,,,,,,,,,main,1,1,1,positive,neutral,k,k,1,0.6459288999976707,396.17232669999794,397.18229099999735,397.1656292999978,None,396.17232669999794,None,396.17232669999794,None,396.17232669999794,None,397.8155343499981,None,397.8155343499981,None,397.8155343499981,None,,,,,,,,,,,,,,107,2023-03-30_14h51.43.271,Main,2022.1.1,60.009313444757254,
positive,positive,1,l,j,,,,,,,,,6,15,123,2,,,,,,,,,main,2,2,1,positive,positive,j,j,1,0.7667342999993707,397.81735299999855,398.8323371000006,398.81568649999826,None,397.81735299999855,None,397.81735299999855,None,397.81735299999855,None,399.582573149995,None,399.582573149995,None,399.582573149995,None,,,,,,,,,,,,,,107,2023-03-30_14h51.43.271,Main,2022.1.1,60.009313444757254,
negative,positive,2,j,l,,,,,,,,,6,16,124,15,,,,,,,,,main,2,2,2,positive,negative,l,l,1,0.6308107000004384,399.5889986999973,400.6013668000014,400.58478019999893,None,399.5889986999973,None,399.5889986999973,None,399.5889986999973,None,401.21588674999805,None,401.21588674999805,None,401.21588674999805,None,,,,,,,,,,,,,,107,2023-03-30_14h51.43.271,Main,2022.1.1,60.009313444757254,
positive,negative,2,l,j,,,,,,,,,6,17,125,14,,,,,,,,,main,1,1,2,negative,positive,j,j,1,0.8838654999999562,401.22171949999756,402.23482689999946,402.21813739999925,None,401.22171949999756,None,401.22171949999756,None,401.22171949999756,None,403.1014497500015,None,403.1014497500015,None,403.1014497500015,None,,,,,,,,,,,,,,107,2023-03-30_14h51.43.271,Main,2022.1.1,60.009313444757254,
negative,neutral,1,j,l,,,,,,,,,7,0,126,3,,,,,,,,,main,2,2,1,neutral,negative,l,l,1,0.779477299998689,403.10535569999774,404.11805099999765,404.1014494999981,None,403.10535569999774,None,403.10535569999774,None,403.10535569999774,None,404.8824456499948,None,404.8824456499948,None,404.8824456499948,None,,,,,,,,,,,,,,107,2023-03-30_14h51.43.271,Main,2022.1.1,60.009313444757254,
neutral,positive,1,k,k,,,,,,,,,7,1,127,4,,,,,,,,,main,1,1,1,positive,neutral,k,k,1,0.5983865999951377,404.8886025999964,405.90135349999764,405.8846953999964,None,404.8886025999964,None,404.8886025999964,None,404.8886025999964,None,406.48245364999605,None,406.48245364999605,None,406.48245364999605,None,,,,,,,,,,,,,,107,2023-03-30_14h51.43.271,Main,2022.1.1,60.009313444757254,
neutral,neutral,1,k,k,,,,,,,,,7,2,128,1,,,,,,,,,main,1,1,1,neutral,neutral,k,k,1,0.5981939999983297,406.488738,407.49886210000113,407.48217640000075,None,406.488738,None,406.488738,None,406.488738,None,408.0821144499947,None,408.0821144499947,None,408.0821144499947,None,,,,,,,,,,,,,,107,2023-03-30_14h51.43.271,Main,2022.1.1,60.009313444757254,
negative,positive,2,j,l,,,,,,,,,7,3,129,15,,,,,,,,,main,2,2,2,positive,negative,l,l,1,0.798504899998079,408.0828483000005,409.08208860000013,409.08208860000013,None,408.0828483000005,None,408.0828483000005,None,408.0828483000005,None,409.8819966499956,None,409.8819966499956,None,409.8819966499956,None,,,,,,,,,,,,,,107,2023-03-30_14h51.43.271,Main,2022.1.1,60.009313444757254,
neutral,positive,2,k,k,,,,,,,,,7,4,130,13,,,,,,,,,main,2,2,2,positive,neutral,k,k,1,0.764881899995089,409.8844250999973,410.8987438999975,410.88208559999475,None,409.8844250999973,None,409.8844250999973,None,409.8844250999973,None,411.6486666500001,None,411.6486666500001,None,411.6486666500001,None,,,,,,,,,,,,,,107,2023-03-30_14h51.43.271,Main,2022.1.1,60.009313444757254,
negative,negative,1,j,l,,,,,,,,,7,5,131,0,,,,,,,,,main,2,2,1,negative,negative,l,l,1,0.6987984000006691,411.65521389999776,412.66791459999513,412.6512634999963,None,411.65521389999776,None,411.65521389999776,None,411.65521389999776,None,413.34899064999775,None,413.34899064999775,None,413.34899064999775,None,,,,,,,,,,,,,,107,2023-03-30_14h51.43.271,Main,2022.1.1,60.009313444757254,
neutral,negative,2,k,k,,,,,,,,,7,6,132,16,,,,,,,,,main,2,2,2,negative,neutral,k,k,1,0.8317050999976345,413.3549490000005,414.367771899997,414.351221500001,None,413.3549490000005,None,413.3549490000005,None,413.3549490000005,None,415.1822821499969,None,415.1822821499969,None,415.1822821499969,None,,,,,,,,,,,,,,107,2023-03-30_14h51.43.271,Main,2022.1.1,60.009313444757254,
positive,neutral,1,l,j,,,,,,,,,7,7,133,8,,,,,,,,,main,2,2,1,neutral,positive,j,j,1,0.7832277000052272,415.1885761000012,416.2010950999975,416.18456129999686,None,415.1885761000012,None,415.1885761000012,None,415.1885761000012,None,416.96783535,None,416.96783535,None,416.96783535,None,,,,,,,,,,,,,,107,2023-03-30_14h51.43.271,Main,2022.1.1,60.009313444757254,
neutral,negative,1,k,k,,,,,,,,,7,8,134,7,,,,,,,,,main,2,2,1,negative,neutral,k,k,1,0.6795910999935586,416.97173009999824,417.9844258000012,417.96773839999514,None,416.97173009999824,None,416.97173009999824,None,416.97173009999824,None,418.64884555000174,None,418.64884555000174,None,418.64884555000174,None,,,,,,,,,,,,,,107,2023-03-30_14h51.43.271,Main,2022.1.1,60.009313444757254,
negative,neutral,2,j,l,,,,,,,,,7,9,135,12,,,,,,,,,main,1,1,2,neutral,negative,l,l,1,0.716530599995167,418.654709800001,419.6627279999957,419.6627279999957,None,418.654709800001,None,418.654709800001,None,418.654709800001,None,420.3650839499984,None,420.3650839499984,None,420.3650839499984,None,,,,,,,,,,,,,,107,2023-03-30_14h51.43.271,Main,2022.1.1,60.009313444757254,
positive,neutral,2,l,j,,,,,,,,,7,10,136,17,,,,,,,,,main,2,2,2,neutral,positive,j,j,1,0.7966205999982776,420.36707000000024,421.38181299999997,421.36514460000035,None,420.36707000000024,None,420.36707000000024,None,420.36707000000024,None,422.1650942499997,None,422.1650942499997,None,422.1650942499997,None,,,,,,,,,,,,,,107,2023-03-30_14h51.43.271,Main,2022.1.1,60.009313444757254,
neutral,neutral,2,k,k,,,,,,,,,7,11,137,10,,,,,,,,,main,2,2,2,neutral,neutral,k,k,1,0.6817035999993095,422.1708488000004,423.18420440000045,423.16764780000085,None,422.1708488000004,None,422.1708488000004,None,422.1708488000004,None,423.84841195000047,None,423.84841195000047,None,423.84841195000047,None,,,,,,,,,,,,,,107,2023-03-30_14h51.43.271,Main,2022.1.1,60.009313444757254,
positive,negative,2,l,j,,,,,,,,,7,12,138,14,,,,,,,,,main,1,1,2,negative,positive,j,j,1,0.7986122000002069,423.8518741000007,424.85090359999595,424.85090359999595,None,423.8518741000007,None,423.8518741000007,None,423.8518741000007,None,425.6486880499957,None,425.6486880499957,None,425.6486880499957,None,,,,,,,,,,,,,,107,2023-03-30_14h51.43.271,Main,2022.1.1,60.009313444757254,
negative,negative,2,j,l,,,,,,,,,7,13,139,9,,,,,,,,,main,2,2,2,negative,negative,l,l,1,0.664808899993659,425.65455569999904,426.66746599999897,426.6509048000007,None,425.65455569999904,None,425.65455569999904,None,425.65455569999904,None,427.3149805500012,None,427.3149805500012,None,427.3149805500012,None,,,,,,,,,,,,,,107,2023-03-30_14h51.43.271,Main,2022.1.1,60.009313444757254,
positive,positive,2,l,j,,,,,,,,,7,14,140,11,,,,,,,,,main,2,2,2,positive,positive,j,j,1,0.7179039999973611,427.3213218999954,428.3341709000015,428.31752060000144,None,427.3213218999954,None,427.3213218999954,None,427.3213218999954,None,429.0343574500017,None,429.0343574500017,None,429.0343574500017,None,,,,,,,,,,,,,,107,2023-03-30_14h51.43.271,Main,2022.1.1,60.009313444757254,
positive,positive,1,l,j,,,,,,,,,7,15,141,2,,,,,,,,,main,2,2,1,positive,positive,j,j,1,0.7956444999945234,429.03888590000133,430.04827579999983,430.03160589999607,None,429.03888590000133,None,429.03888590000133,None,429.03888590000133,None,430.83154264999905,None,430.83154264999905,None,430.83154264999905,None,,,,,,,,,,,,,,107,2023-03-30_14h51.43.271,Main,2022.1.1,60.009313444757254,
positive,negative,1,l,j,,,,,,,,,7,16,142,5,,,,,,,,,main,2,2,1,negative,positive,j,j,1,0.6321173999967868,430.8319021999996,431.8316351999965,431.8316351999965,None,430.8319021999996,None,430.8319021999996,None,430.8319021999996,None,432.46488804999683,None,432.46488804999683,None,432.46488804999683,None,,,,,,,,,,,,,,107,2023-03-30_14h51.43.271,Main,2022.1.1,60.009313444757254,
negative,positive,1,j,l,,,,,,,,,7,17,143,6,,,,,,,,,main,2,2,1,positive,negative,l,l,1,0.9311434999981429,432.4719186000002,433.4840460999985,433.4674331999995,None,432.4719186000002,None,432.4719186000002,None,432.4719186000002,None,434.39853305000145,None,434.39853305000145,None,434.39853305000145,None,,,,,,,,,,,,,,107,2023-03-30_14h51.43.271,Main,2022.1.1,60.009313444757254,
negative,neutral,1,j,l,,,,,,,,,8,0,144,3,,,,,,,,,main,2,2,1,neutral,negative,l,l,1,0.9483915000018897,434.40467969999736,435.41730290000123,435.40067850000196,None,434.40467969999736,None,434.40467969999736,None,434.40467969999736,None,436.3484587500003,None,436.3484587500003,None,436.3484587500003,None,,,,,,,,,,,,,,107,2023-03-30_14h51.43.271,Main,2022.1.1,60.009313444757254,
negative,negative,2,j,l,,,,,,,,,8,1,145,9,,,,,,,,,main,2,2,2,negative,negative,l,j,0,0.6312919000047259,436.35443709999527,437.3673387000017,437.35072819999914,None,436.35443709999527,None,436.35443709999527,None,436.35443709999527,None,437.98388059999706,None,437.98388059999706,None,437.98388059999706,None,,,,,,,,,,,,,,107,2023-03-30_14h51.43.271,Main,2022.1.1,60.009313444757254,
positive,positive,1,l,j,,,,,,,,,8,2,146,2,,,,,,,,,main,1,1,1,positive,positive,j,j,1,0.8176134000023012,438.9822442000004,439.98136389999854,439.9646941999963,None,438.9822442000004,None,438.9822442000004,None,438.9822442000004,None,440.7979736499998,None,440.7979736499998,None,440.7979736499998,None,,,,,,,,,,,,,,107,2023-03-30_14h51.43.271,Main,2022.1.1,60.009313444757254,
neutral,positive,1,k,k,,,,,,,,,8,3,147,4,,,,,,,,,main,1,1,1,positive,neutral,k,k,1,0.7483891000010772,440.79806989999634,441.79807099999744,441.79807099999744,None,440.79806989999634,None,440.79806989999634,None,440.79806989999634,None,442.5482985499999,None,442.5482985499999,None,442.5482985499999,None,,,,,,,,,,,,,,107,2023-03-30_14h51.43.271,Main,2022.1.1,60.009313444757254,
positive,neutral,2,l,j,,,,,,,,,8,4,148,17,,,,,,,,,main,1,1,2,neutral,positive,j,j,1,0.8651582000020426,442.55396449999535,443.5672244000016,443.5505223,None,442.55396449999535,None,442.55396449999535,None,442.55396449999535,None,444.41495364999867,None,444.41495364999867,None,444.41495364999867,None,,,,,,,,,,,,,,107,2023-03-30_14h51.43.271,Main,2022.1.1,60.009313444757254,
neutral,negative,1,k,k,,,,,,,,,8,5,149,7,,,,,,,,,main,2,2,1,negative,neutral,k,k,1,0.7341108000036911,444.4207449999958,445.4337660000019,445.41712639999605,None,444.4207449999958,None,444.4207449999958,None,444.4207449999958,None,446.1504291499965,None,446.1504291499965,None,446.1504291499965,None,,,,,,,,,,,,,,107,2023-03-30_14h51.43.271,Main,2022.1.1,60.009313444757254,
neutral,negative,2,k,k,,,,,,,,,8,6,150,16,,,,,,,,,main,2,2,2,negative,neutral,k,k,1,0.6625129999956698,446.1545205000002,447.16714919999504,447.1504560999965,None,446.1545205000002,None,446.1545205000002,None,446.1545205000002,None,447.8148615499973,None,447.8148615499973,None,447.8148615499973,None,,,,,,,,,,,,,,107,2023-03-30_14h51.43.271,Main,2022.1.1,60.009313444757254,
negative,positive,1,j,l,,,,,,,,,8,7,151,6,,,,,,,,,main,2,2,1,positive,negative,l,l,1,0.7821885999946971,447.81864340000175,448.83369059999677,448.8171541999982,None,447.81864340000175,None,447.81864340000175,None,447.81864340000175,None,449.5981857499952,None,449.5981857499952,None,449.5981857499952,None,,,,,,,,,,,,,,107,2023-03-30_14h51.43.271,Main,2022.1.1,60.009313444757254,
positive,negative,1,l,j,,,,,,,,,8,8,152,5,,,,,,,,,main,2,2,1,negative,positive,j,j,1,0.8309498000016902,449.60425479999685,450.61446669999714,450.5978000999967,None,449.60425479999685,None,449.60425479999685,None,449.60425479999685,None,451.4310838499965,None,451.4310838499965,None,451.4310838499965,None,,,,,,,,,,,,,,107,2023-03-30_14h51.43.271,Main,2022.1.1,60.009313444757254,
positive,negative,2,l,j,,,,,,,,,8,9,153,14,,,,,,,,,main,1,1,2,negative,positive,j,j,1,0.8677673999991384,451.43110290000186,452.4311888000011,452.4311888000011,None,451.43110290000186,None,451.43110290000186,None,451.43110290000186,None,453.30046495000136,None,453.30046495000136,None,453.30046495000136,None,,,,,,,,,,,,,,107,2023-03-30_14h51.43.271,Main,2022.1.1,60.009313444757254,
neutral,positive,2,k,k,,,,,,,,,8,10,154,13,,,,,,,,,main,2,2,2,positive,neutral,k,k,1,0.779627600000822,453.3044344000009,454.31691009999486,454.30032409999694,None,453.3044344000009,None,453.3044344000009,None,453.3044344000009,None,455.081395750001,None,455.081395750001,None,455.081395750001,None,,,,,,,,,,,,,,107,2023-03-30_14h51.43.271,Main,2022.1.1,60.009313444757254,
negative,negative,1,j,l,,,,,,,,,8,11,155,0,,,,,,,,,main,1,1,1,negative,negative,l,l,1,0.7171962000065832,455.08514640000067,456.10018009999476,456.08358600000065,None,455.08514640000067,None,455.08514640000067,None,455.08514640000067,None,456.8001370500002,None,456.8001370500002,None,456.8001370500002,None,,,,,,,,,,,,,,107,2023-03-30_14h51.43.271,Main,2022.1.1,60.009313444757254,
neutral,neutral,2,k,k,,,,,,,,,8,12,156,10,,,,,,,,,main,2,2,2,neutral,neutral,k,k,1,0.8295231000010972,456.80409679999866,457.81680219999544,457.8002505999975,None,456.80409679999866,None,456.80409679999866,None,456.80409679999866,None,458.6313371500015,None,458.6313371500015,None,458.6313371500015,None,,,,,,,,,,,,,,107,2023-03-30_14h51.43.271,Main,2022.1.1,60.009313444757254,
positive,positive,2,l,j,,,,,,,,,8,13,157,11,,,,,,,,,main,2,2,2,positive,positive,j,j,1,0.8646139999982552,458.63719449999917,459.6501477999991,459.6335035000011,None,458.63719449999917,None,458.63719449999917,None,458.63719449999917,None,460.49753914999894,None,460.49753914999894,None,460.49753914999894,None,,,,,,,,,,,,,,107,2023-03-30_14h51.43.271,Main,2022.1.1,60.009313444757254,
positive,neutral,1,l,j,,,,,,,,,8,14,158,8,,,,,,,,,main,2,2,1,neutral,positive,j,j,1,0.7486061000017799,460.49755780000123,461.49759769999946,461.49759769999946,None,460.49755780000123,None,460.49755780000123,None,460.49755780000123,None,462.2475998499955,None,462.2475998499955,None,462.2475998499955,None,,,,,,,,,,,,,,107,2023-03-30_14h51.43.271,Main,2022.1.1,60.009313444757254,
negative,neutral,2,j,l,,,,,,,,,8,15,159,12,,,,,,,,,main,2,2,2,neutral,negative,l,l,1,0.8830804000026546,462.2533093999955,463.2667274999985,463.25019109999994,None,462.2533093999955,None,462.2533093999955,None,462.2533093999955,None,464.1312123499971,None,464.1312123499971,None,464.1312123499971,None,,,,,,,,,,,,,,107,2023-03-30_14h51.43.271,Main,2022.1.1,60.009313444757254,
neutral,neutral,1,k,k,,,,,,,,,8,16,160,1,,,,,,,,,main,1,1,1,neutral,neutral,k,k,1,0.7473233999990043,464.1356650000016,465.15001810000103,465.13342259999627,None,464.1356650000016,None,464.1356650000016,None,464.1356650000016,None,465.8811374500016,None,465.8811374500016,None,465.8811374500016,None,,,,,,,,,,,,,,107,2023-03-30_14h51.43.271,Main,2022.1.1,60.009313444757254,
negative,positive,2,j,l,,,,,,,,,8,17,161,15,,,,,,,,,main,2,2,2,positive,negative,l,l,1,0.7840795000010985,465.88683070000116,466.8999223999999,466.8833713999993,None,465.88683070000116,None,465.88683070000116,None,465.88683070000116,None,467.66657774999624,None,467.66657774999624,None,467.66657774999624,None,,,,,,,,,,,,,,107,2023-03-30_14h51.43.271,Main,2022.1.1,60.009313444757254,
negative,positive,2,j,l,,,,,,,,,9,0,162,15,,,,,,,,,main,2,2,2,positive,negative,l,l,1,0.615049200001522,467.6698563999962,468.68323099999543,468.6666627000013,None,467.6698563999962,None,467.6698563999962,None,467.6698563999962,None,469.2831780499997,None,469.2831780499997,None,469.2831780499997,None,,,,,,,,,,,,,,107,2023-03-30_14h51.43.271,Main,2022.1.1,60.009313444757254,
positive,neutral,2,l,j,,,,,,,,,9,1,163,17,,,,,,,,,main,2,2,2,neutral,positive,j,j,1,0.7794347999952151,469.2874948999961,470.2965977999993,470.2965977999993,None,469.2874948999961,None,469.2874948999961,None,469.2874948999961,None,471.06396894999637,None,471.06396894999637,None,471.06396894999637,None,,,,,,,,,,,,,,107,2023-03-30_14h51.43.271,Main,2022.1.1,60.009313444757254,
positive,negative,2,l,j,,,,,,,,,9,2,164,14,,,,,,,,,main,2,2,2,negative,positive,j,j,1,0.6648064999972121,471.064077199997,472.0640358000019,472.0640358000019,None,471.064077199997,None,471.064077199997,None,471.064077199997,None,472.730638249997,None,472.730638249997,None,472.730638249997,None,,,,,,,,,,,,,,107,2023-03-30_14h51.43.271,Main,2022.1.1,60.009313444757254,
neutral,neutral,1,k,k,,,,,,,,,9,3,165,1,,,,,,,,,main,1,1,1,neutral,neutral,k,k,1,0.731847299997753,472.7473996999979,473.7473628000007,473.7306815999982,None,472.7473996999979,None,472.7473996999979,None,472.7473996999979,None,474.4639675500017,None,474.4639675500017,None,474.4639675500017,None,,,,,,,,,,,,,,107,2023-03-30_14h51.43.271,Main,2022.1.1,60.009313444757254,
negative,negative,1,j,l,,,,,,,,,9,4,166,0,,,,,,,,,main,2,2,1,negative,negative,l,l,1,0.6995524000012665,474.46862699999474,475.4831947999992,475.4665634999983,None,474.46862699999474,None,474.46862699999474,None,474.46862699999474,None,476.16499234999503,None,476.16499234999503,None,476.16499234999503,None,,,,,,,,,,,,,,107,2023-03-30_14h51.43.271,Main,2022.1.1,60.009313444757254,
neutral,positive,1,k,k,,,,,,,,,9,5,167,4,,,,,,,,,main,2,2,1,positive,neutral,k,k,1,0.6976904000039212,476.17106010000134,477.1831768999982,477.1664743000001,None,476.17106010000134,None,476.17106010000134,None,476.17106010000134,None,477.8641157499966,None,477.8641157499966,None,477.8641157499966,None,,,,,,,,,,,,,,107,2023-03-30_14h51.43.271,Main,2022.1.1,60.009313444757254,
negative,neutral,1,j,l,,,,,,,,,9,6,168,3,,,,,,,,,main,1,1,1,neutral,negative,l,l,1,0.7483615999954054,477.8706327999971,478.88301969999884,478.8664304999984,None,477.8706327999971,None,477.8706327999971,None,477.8706327999971,None,479.6142081500017,None,479.6142081500017,None,479.6142081500017,None,,,,,,,,,,,,,,107,2023-03-30_14h51.43.271,Main,2022.1.1,60.009313444757254,
positive,negative,1,l,j,,,,,,,,,9,7,169,5,,,,,,,,,main,1,1,1,negative,positive,j,j,1,0.7826929000002565,479.61976209999557,480.63308519999555,480.61636980000185,None,479.61976209999557,None,479.61976209999557,None,479.61976209999557,None,481.397471949998,None,481.397471949998,None,481.397471949998,None,,,,,,,,,,,,,,107,2023-03-30_14h51.43.271,Main,2022.1.1,60.009313444757254,
negative,negative,2,j,l,,,,,,,,,9,8,170,9,,,,,,,,,main,2,2,2,negative,negative,l,l,1,0.7969776000027196,481.4039932999949,482.41625080000085,482.3997134999954,None,481.4039932999949,None,481.4039932999949,None,481.4039932999949,None,483.19699425000147,None,483.19699425000147,None,483.19699425000147,None,,,,,,,,,,,,,,107,2023-03-30_14h51.43.271,Main,2022.1.1,60.009313444757254,
positive,positive,1,l,j,,,,,,,,,9,9,171,2,,,,,,,,,main,2,2,1,positive,positive,j,j,1,0.9017259000029298,483.19708679999894,484.19711200000165,484.19711200000165,None,483.19708679999894,None,483.19708679999894,None,483.19708679999894,None,485.09719574999474,None,485.09719574999474,None,485.09719574999474,None,,,,,,,,,,,,,,107,2023-03-30_14h51.43.271,Main,2022.1.1,60.009313444757254,
positive,neutral,1,l,j,,,,,,,,,9,10,172,8,,,,,,,,,main,1,1,1,neutral,positive,j,j,1,0.628056599998672,485.1042413999967,486.1162241999991,486.09965309999825,None,485.1042413999967,None,485.1042413999967,None,485.1042413999967,None,486.7306870499975,None,486.7306870499975,None,486.7306870499975,None,,,,,,,,,,,,,,107,2023-03-30_14h51.43.271,Main,2022.1.1,60.009313444757254,
neutral,negative,1,k,k,,,,,,,,,9,11,173,7,,,,,,,,,main,2,2,1,negative,neutral,k,k,1,0.6174583999963943,486.7367439000009,487.7494957000017,487.7329085999954,None,486.7367439000009,None,486.7367439000009,None,486.7367439000009,None,488.34957675000044,None,488.34957675000044,None,488.34957675000044,None,,,,,,,,,,,,,,107,2023-03-30_14h51.43.271,Main,2022.1.1,60.009313444757254,
positive,positive,2,l,j,,,,,,,,,9,12,174,11,,,,,,,,,main,2,2,2,positive,positive,j,j,1,0.7650337000013678,488.35344389999955,489.36613589999615,489.34952319999866,None,488.35344389999955,None,488.35344389999955,None,488.35344389999955,None,490.11605425000164,None,490.11605425000164,None,490.11605425000164,None,,,,,,,,,,,,,,107,2023-03-30_14h51.43.271,Main,2022.1.1,60.009313444757254,
neutral,negative,2,k,k,,,,,,,,,9,13,175,16,,,,,,,,,main,1,1,2,negative,neutral,k,k,1,0.7315936999948462,490.11939390000043,491.1327278999961,491.11615750000055,None,490.11939390000043,None,490.11939390000043,None,490.11939390000043,None,491.849428449999,None,491.849428449999,None,491.849428449999,None,,,,,,,,,,,,,,107,2023-03-30_14h51.43.271,Main,2022.1.1,60.009313444757254,
neutral,positive,2,k,k,,,,,,,,,9,14,176,13,,,,,,,,,main,1,1,2,positive,neutral,k,k,1,0.6792767000006279,491.85266910000064,492.8635676999984,492.846902199999,None,491.85266910000064,None,491.85266910000064,None,491.85266910000064,None,493.5301718499992,None,493.5301718499992,None,493.5301718499992,None,,,,,,,,,,,,,,107,2023-03-30_14h51.43.271,Main,2022.1.1,60.009313444757254,
negative,positive,1,j,l,,,,,,,,,9,15,177,6,,,,,,,,,main,2,2,1,positive,negative,l,l,1,1.465760600003705,493.5302159999992,494.5302124000009,494.5302124000009,None,493.5302159999992,None,493.5302159999992,None,493.5302159999992,None,495.99716195000076,None,495.99716195000076,None,495.99716195000076,None,,,,,,,,,,,,,,107,2023-03-30_14h51.43.271,Main,2022.1.1,60.009313444757254,
neutral,neutral,2,k,k,,,,,,,,,9,16,178,10,,,,,,,,,main,2,2,2,neutral,neutral,k,k,1,0.6980999000006705,496.0033343999967,497.0159676999974,496.9993624999988,None,496.0033343999967,None,496.0033343999967,None,496.0033343999967,None,497.6971354499998,None,497.6971354499998,None,497.6971354499998,None,,,,,,,,,,,,,,107,2023-03-30_14h51.43.271,Main,2022.1.1,60.009313444757254,
negative,neutral,2,j,l,,,,,,,,,9,17,179,12,,,,,,,,,main,2,2,2,neutral,negative,l,l,1,0.8202393000028678,497.703093600001,498.7159371000016,498.6993596999964,None,497.703093600001,None,497.703093600001,None,497.703093600001,None,499.5187915500006,None,499.5187915500006,None,499.5187915500006,None,,,,,,,,,,,,,,107,2023-03-30_14h51.43.271,Main,2022.1.1,60.009313444757254,
negative,neutral,1,j,l,,,,,,,,,10,0,180,3,,,,,,,,,main,1,1,1,neutral,negative,l,l,1,0.8465198999983841,499.52214359999925,500.5325389999998,500.5160415999999,None,499.52214359999925,None,499.52214359999925,None,499.52214359999925,None,501.36587804999874,None,501.36587804999874,None,501.36587804999874,None,,,,,,,,,,,,,,107,2023-03-30_14h51.43.271,Main,2022.1.1,60.009313444757254,
positive,neutral,2,l,j,,,,,,,,,10,1,181,17,,,,,,,,,main,2,2,2,neutral,positive,j,j,1,1.4113547000015387,501.3709138999984,502.38258649999625,502.36592689999816,None,501.3709138999984,None,501.3709138999984,None,501.3709138999984,None,503.7798698499988,None,503.7798698499988,None,503.7798698499988,None,,,,,,,,,,,,,,107,2023-03-30_14h51.43.271,Main,2022.1.1,60.009313444757254,
positive,negative,1,l,j,,,,,,,,,10,2,182,5,,,,,,,,,main,2,2,1,negative,positive,j,j,1,0.9985505000004196,503.7799684999991,504.7799664999984,504.7799664999984,None,503.7799684999991,None,503.7799684999991,None,503.7799684999991,None,505.7799029499962,None,505.7799029499962,None,505.7799029499962,None,,,,,,,,,,,,,,107,2023-03-30_14h51.43.271,Main,2022.1.1,60.009313444757254,
negative,positive,1,j,l,,,,,,,,,10,3,183,6,,,,,,,,,main,2,2,1,positive,negative,l,l,1,0.765176100001554,505.7804146999988,506.7800535999995,506.7800535999995,None,505.7804146999988,None,505.7804146999988,None,505.7804146999988,None,507.5465513499963,None,507.5465513499963,None,507.5465513499963,None,,,,,,,,,,,,,,107,2023-03-30_14h51.43.271,Main,2022.1.1,60.009313444757254,
positive,neutral,1,l,j,,,,,,,,,10,4,184,8,,,,,,,,,main,1,1,1,neutral,positive,j,j,1,0.7661271999968449,507.5495565000019,508.54918489999545,508.54918489999545,None,507.5495565000019,None,507.5495565000019,None,507.5495565000019,None,509.3135459499987,None,509.3135459499987,None,509.3135459499987,None,,,,,,,,,,,,,,107,2023-03-30_14h51.43.271,Main,2022.1.1,60.009313444757254,
neutral,positive,2,k,k,,,,,,,,,10,5,185,13,,,,,,,,,main,2,2,2,positive,neutral,k,k,1,0.7388796999948681,509.3202022999976,510.33236699999543,510.3157043999963,None,509.3202022999976,None,509.3202022999976,None,509.3202022999976,None,511.0491605500007,None,511.0491605500007,None,511.0491605500007,None,,,,,,,,,,,,,,107,2023-03-30_14h51.43.271,Main,2022.1.1,60.009313444757254,
neutral,negative,1,k,k,,,,,,,,,10,6,186,7,,,,,,,,,main,2,2,1,negative,neutral,k,k,1,0.6757709000012255,511.05840969999554,512.0656525999948,512.0490308000008,None,511.05840969999554,None,511.05840969999554,None,511.05840969999554,None,512.7321852499969,None,512.7321852499969,None,512.7321852499969,None,,,,,,,,,,,,,,107,2023-03-30_14h51.43.271,Main,2022.1.1,60.009313444757254,
positive,negative,2,l,j,,,,,,,,,10,7,187,14,,,,,,,,,main,1,1,2,negative,positive,j,j,1,0.7691774000049918,512.7364168999993,513.7468474999987,513.7323032999993,None,512.7364168999993,None,512.7364168999993,None,512.7364168999993,None,514.4989788499967,None,514.4989788499967,None,514.4989788499967,None,,,,,,,,,,,,,,107,2023-03-30_14h51.43.271,Main,2022.1.1,60.009313444757254,
negative,positive,2,j,l,,,,,,,,,10,8,188,15,,,,,,,,,main,2,2,2,positive,negative,l,l,1,0.7670446999982232,514.5072770999977,515.5155434999979,515.4989169999972,None,514.5072770999977,None,514.5072770999977,None,514.5072770999977,None,516.271793249996,None,516.271793249996,None,516.271793249996,None,,,,,,,,,,,,,,107,2023-03-30_14h51.43.271,Main,2022.1.1,60.009313444757254,
negative,negative,2,j,l,,,,,,,,,10,9,189,9,,,,,,,,,main,2,2,2,negative,negative,l,l,1,0.6388127000027453,516.2882199999949,517.2963846999992,517.2630458999993,None,516.2882199999949,None,516.2882199999949,None,516.2882199999949,None,517.9129438499964,None,517.9129438499964,None,517.9129438499964,None,,,,,,,,,,,,,,107,2023-03-30_14h51.43.271,Main,2022.1.1,60.009313444757254,
neutral,neutral,2,k,k,,,,,,,,,10,10,190,10,,,,,,,,,main,1,1,2,neutral,neutral,k,k,1,0.7854688000006718,517.9129431999972,518.913049099996,518.913049099996,None,517.9129431999972,None,517.9129431999972,None,517.9129431999972,None,519.6967744500013,None,519.6967744500013,None,519.6967744500013,None,,,,,,,,,,,,,,107,2023-03-30_14h51.43.271,Main,2022.1.1,60.009313444757254,
neutral,negative,2,k,k,,,,,,,,,10,11,191,16,,,,,,,,,main,2,2,2,negative,neutral,k,k,1,0.5784113000045181,519.7039358999973,520.7154261999967,520.6988610999979,None,519.7039358999973,None,519.7039358999973,None,519.7039358999973,None,521.279938149995,None,521.279938149995,None,521.279938149995,None,,,,,,,,,,,,,,107,2023-03-30_14h51.43.271,Main,2022.1.1,60.009313444757254,
negative,negative,1,j,l,,,,,,,,,10,12,192,0,,,,,,,,,main,2,2,1,negative,negative,l,l,1,0.7179924000010942,521.2859102000002,522.2987500000017,522.2821504999956,None,521.2859102000002,None,521.2859102000002,None,521.2859102000002,None,522.9993964499969,None,522.9993964499969,None,522.9993964499969,None,,,,,,,,,,,,,,107,2023-03-30_14h51.43.271,Main,2022.1.1,60.009313444757254,
neutral,positive,1,k,k,,,,,,,,,10,13,193,4,,,,,,,,,main,2,2,1,positive,neutral,k,k,1,0.828729699998803,523.0035422000001,524.0154718999984,523.9987819000016,None,523.0035422000001,None,523.0035422000001,None,523.0035422000001,None,524.8298593500018,None,524.8298593500018,None,524.8298593500018,None,,,,,,,,,,,,,,107,2023-03-30_14h51.43.271,Main,2022.1.1,60.009313444757254,
positive,positive,2,l,j,,,,,,,,,10,14,194,11,,,,,,,,,main,2,2,2,positive,positive,j,j,1,0.702654499997152,524.8362160999968,525.8465496999997,525.8321387999968,None,524.8362160999968,None,524.8362160999968,None,524.8362160999968,None,526.5299271499986,None,526.5299271499986,None,526.5299271499986,None,,,,,,,,,,,,,,107,2023-03-30_14h51.43.271,Main,2022.1.1,60.009313444757254,
positive,positive,1,l,j,,,,,,,,,10,15,195,2,,,,,,,,,main,2,2,1,positive,positive,j,j,1,0.8606345000007423,526.5372663000016,527.5461305999997,527.5294639999993,None,526.5372663000016,None,526.5372663000016,None,526.5372663000016,None,528.39599685,None,528.39599685,None,528.39599685,None,,,,,,,,,,,,,,107,2023-03-30_14h51.43.271,Main,2022.1.1,60.009313444757254,
negative,neutral,2,j,l,,,,,,,,,10,16,196,12,,,,,,,,,main,2,2,2,neutral,negative,l,l,1,0.9487439000004088,528.3963827999978,529.3961753999974,529.3961753999974,None,528.3963827999978,None,528.3963827999978,None,528.3963827999978,None,530.3463784499996,None,530.3463784499996,None,530.3463784499996,None,,,,,,,,,,,,,,107,2023-03-30_14h51.43.271,Main,2022.1.1,60.009313444757254,
neutral,neutral,1,k,k,,,,,,,,,10,17,197,1,,,,,,,,,main,2,2,1,neutral,neutral,k,k,1,0.7189787000024808,530.3525654999976,531.365229199997,531.3485833999948,None,530.3525654999976,None,530.3525654999976,None,530.3525654999976,None,532.0670393499983,None,532.0670393499983,None,532.0670393499983,None,,,,,,,,,,,,,,107,2023-03-30_14h51.43.271,Main,2022.1.1,60.009313444757254,
neutral,positive,1,k,k,,,,,,,,,11,0,198,4,,,,,,,,,main,1,1,1,positive,neutral,k,k,1,0.6277273999949102,532.0703484999976,533.0818268000003,533.0653171000013,None,532.0703484999976,None,532.0703484999976,None,532.0703484999976,None,533.6963185500005,None,533.6963185500005,None,533.6963185500005,None,,,,,,,,,,,,,,107,2023-03-30_14h51.43.271,Main,2022.1.1,60.009313444757254,
positive,neutral,1,l,j,,,,,,,,,11,1,199,8,,,,,,,,,main,1,1,1,neutral,positive,j,k,0,0.6147922999953153,533.6995833999972,534.7151840000006,534.6985619999978,None,533.6995833999972,None,533.6995833999972,None,533.6995833999972,None,535.3129856000014,None,535.3129856000014,None,535.3129856000014,None,,,,,,,,,,,,,,107,2023-03-30_14h51.43.271,Main,2022.1.1,60.009313444757254,
positive,neutral,2,l,j,,,,,,,,,11,2,200,17,,,,,,,,,main,2,2,2,neutral,positive,j,j,1,0.7342858000047272,536.3139804999955,537.3292042999965,537.2958966000006,None,536.3139804999955,None,536.3139804999955,None,536.3139804999955,None,538.0458033499978,None,538.0458033499978,None,538.0458033499978,None,,,,,,,,,,,,,,107,2023-03-30_14h51.43.271,Main,2022.1.1,60.009313444757254,
negative,negative,1,j,l,,,,,,,,,11,3,201,0,,,,,,,,,main,1,1,1,negative,negative,l,l,1,0.8149495999969076,538.0461482999963,539.0459410999974,539.0459410999974,None,538.0461482999963,None,538.0461482999963,None,538.0461482999963,None,539.8624970499965,None,539.8624970499965,None,539.8624970499965,None,,,,,,,,,,,,,,107,2023-03-30_14h51.43.271,Main,2022.1.1,60.009313444757254,
positive,negative,2,l,j,,,,,,,,,11,4,202,14,,,,,,,,,main,1,1,2,negative,positive,j,j,1,0.7818143999975291,539.8635874999964,540.8792546999975,540.862552300001,None,539.8635874999964,None,539.8635874999964,None,539.8635874999964,None,541.6458170499988,None,541.6458170499988,None,541.6458170499988,None,,,,,,,,,,,,,,107,2023-03-30_14h51.43.271,Main,2022.1.1,60.009313444757254,
neutral,positive,2,k,k,,,,,,,,,11,5,203,13,,,,,,,,,main,2,2,2,positive,neutral,k,k,1,0.7646394000039436,541.6524886999978,542.6650297000015,542.6484617999959,None,541.6524886999978,None,541.6524886999978,None,541.6524886999978,None,543.4127927499954,None,543.4127927499954,None,543.4127927499954,None,,,,,,,,,,,,,,107,2023-03-30_14h51.43.271,Main,2022.1.1,60.009313444757254,
positive,negative,1,l,j,,,,,,,,,11,6,204,5,,,,,,,,,main,1,1,1,negative,positive,j,j,1,0.716054599994095,543.4164075000008,544.4315829999978,544.4149890999979,None,543.4164075000008,None,543.4164075000008,None,543.4164075000008,None,545.1294150499976,None,545.1294150499976,None,545.1294150499976,None,,,,,,,,,,,,,,107,2023-03-30_14h51.43.271,Main,2022.1.1,60.009313444757254,
negative,positive,1,j,l,,,,,,,,,11,7,205,6,,,,,,,,,main,2,2,1,positive,negative,l,l,1,0.6842253000068013,545.136376399998,546.1482678999964,546.129419799996,None,545.136376399998,None,545.136376399998,None,545.136376399998,None,546.8162587499988,None,546.8162587499988,None,546.8162587499988,None,,,,,,,,,,,,,,107,2023-03-30_14h51.43.271,Main,2022.1.1,60.009313444757254,
neutral,negative,1,k,k,,,,,,,,,11,8,206,7,,,,,,,,,main,2,2,1,negative,neutral,k,k,1,0.7451412000009441,546.8207707999973,547.8315240000011,547.8149221999993,None,546.8207707999973,None,546.8207707999973,None,546.8207707999973,None,548.562676449999,None,548.562676449999,None,548.562676449999,None,,,,,,,,,,,,,,107,2023-03-30_14h51.43.271,Main,2022.1.1,60.009313444757254,
negative,neutral,2,j,l,,,,,,,,,11,9,207,12,,,,,,,,,main,1,1,2,neutral,negative,l,l,1,0.8641459999998915,548.5691984000005,549.5792367999966,549.5625698000003,None,548.5691984000005,None,548.5691984000005,None,548.5691984000005,None,550.4292893499966,None,550.4292893499966,None,550.4292893499966,None,,,,,,,,,,,,,,107,2023-03-30_14h51.43.271,Main,2022.1.1,60.009313444757254,
neutral,neutral,2,k,k,,,,,,,,,11,10,208,10,,,,,,,,,main,1,1,2,neutral,neutral,k,k,1,0.7670528999951784,550.4345338999992,551.4459273999964,551.4292066999988,None,550.4345338999992,None,550.4345338999992,None,550.4345338999992,None,552.1979632499948,None,552.1979632499948,None,552.1979632499948,None,,,,,,,,,,,,,,107,2023-03-30_14h51.43.271,Main,2022.1.1,60.009313444757254,
positive,positive,2,l,j,,,,,,,,,11,11,209,11,,,,,,,,,main,2,2,2,positive,positive,j,j,1,1.0797133000014583,552.2024134999956,553.2125222999966,553.1980304999961,None,552.2024134999956,None,552.2024134999956,None,552.2024134999956,None,554.279113649996,None,554.279113649996,None,554.279113649996,None,,,,,,,,,,,,,,107,2023-03-30_14h51.43.271,Main,2022.1.1,60.009313444757254,
negative,negative,2,j,l,,,,,,,,,11,12,210,9,,,,,,,,,main,1,1,2,negative,negative,l,l,1,0.814258799997333,554.285095399995,555.2958197999978,555.2813556999972,None,554.285095399995,None,554.285095399995,None,554.285095399995,None,556.0957359499968,None,556.0957359499968,None,556.0957359499968,None,,,,,,,,,,,,,,107,2023-03-30_14h51.43.271,Main,2022.1.1,60.009313444757254,
neutral,neutral,1,k,k,,,,,,,,,11,13,211,1,,,,,,,,,main,1,1,1,neutral,neutral,k,k,1,0.7485564000016893,556.1011132999993,557.1124568000014,557.0958083000005,None,556.1011132999993,None,556.1011132999993,None,556.1011132999993,None,557.8457207499974,None,557.8457207499974,None,557.8457207499974,None,,,,,,,,,,,,,,107,2023-03-30_14h51.43.271,Main,2022.1.1,60.009313444757254,
negative,neutral,1,j,l,,,,,,,,,11,14,212,3,,,,,,,,,main,2,2,1,neutral,negative,l,l,1,0.7984301000033156,557.8514374000006,558.8645419999957,558.8479313999997,None,557.8514374000006,None,557.8514374000006,None,557.8514374000006,None,559.6456762499962,None,559.6456762499962,None,559.6456762499962,None,,,,,,,,,,,,,,107,2023-03-30_14h51.43.271,Main,2022.1.1,60.009313444757254,
neutral,negative,2,k,k,,,,,,,,,11,15,213,16,,,,,,,,,main,1,1,2,negative,neutral,k,k,1,0.7482162000014796,559.6513149999955,560.6610397999975,560.6449582999994,None,559.6513149999955,None,559.6513149999955,None,559.6513149999955,None,561.3953473499947,None,561.3953473499947,None,561.3953473499947,None,,,,,,,,,,,,,,107,2023-03-30_14h51.43.271,Main,2022.1.1,60.009313444757254,
negative,positive,2,j,l,,,,,,,,,11,16,214,15,,,,,,,,,main,2,2,2,positive,negative,l,l,1,0.8483655000018189,561.3954302999991,562.395391799997,562.395391799997,None,561.3954302999991,None,561.3954302999991,None,561.3954302999991,None,563.2453431499977,None,563.2453431499977,None,563.2453431499977,None,,,,,,,,,,,,,,107,2023-03-30_14h51.43.271,Main,2022.1.1,60.009313444757254,
positive,positive,1,l,j,,,,,,,,,11,17,215,2,,,,,,,,,main,2,2,1,positive,positive,j,j,1,0.8655711000028532,563.2510487999971,564.2644193000015,564.247847300001,None,563.2510487999971,None,563.2510487999971,None,563.2510487999971,None,565.1124039500006,None,565.1124039500006,None,565.1124039500006,None,,,,,,,,,,,,,,107,2023-03-30_14h51.43.271,Main,2022.1.1,60.009313444757254,
neutral,negative,2,k,k,,,,,,,,,12,0,216,16,,,,,,,,,main,1,1,2,negative,neutral,k,k,1,0.7814626000035787,565.118120799998,566.131126100001,566.114587899996,None,565.118120799998,None,565.118120799998,None,565.118120799998,None,566.8955677499995,None,566.8955677499995,None,566.8955677499995,None,,,,,,,,,,,,,,107,2023-03-30_14h51.43.271,Main,2022.1.1,60.009313444757254,
neutral,neutral,2,k,k,,,,,,,,,12,1,217,10,,,,,,,,,main,1,1,2,neutral,neutral,k,k,1,0.6817773000002489,566.9017385999978,567.9144923999993,567.8978797000018,None,566.9017385999978,None,566.9017385999978,None,566.9017385999978,None,568.5788988500004,None,568.5788988500004,None,568.5788988500004,None,,,,,,,,,,,,,,107,2023-03-30_14h51.43.271,Main,2022.1.1,60.009313444757254,
negative,positive,2,j,l,,,,,,,,,12,2,218,15,,,,,,,,,main,2,2,2,positive,negative,l,l,1,0.7319281000018236,568.5845464000013,569.5977375000002,569.5810867999971,None,568.5845464000013,None,568.5845464000013,None,568.5845464000013,None,570.3121944499959,None,570.3121944499959,None,570.3121944499959,None,,,,,,,,,,,,,,107,2023-03-30_14h51.43.271,Main,2022.1.1,60.009313444757254,
neutral,negative,1,k,k,,,,,,,,,12,3,219,7,,,,,,,,,main,2,2,1,negative,neutral,k,k,1,0.730596900000819,570.318117099996,571.3284674999959,571.3117968000006,None,570.318117099996,None,570.318117099996,None,570.318117099996,None,572.0450536500008,None,572.0450536500008,None,572.0450536500008,None,,,,,,,,,,,,,,107,2023-03-30_14h51.43.271,Main,2022.1.1,60.009313444757254,
negative,negative,1,j,l,,,,,,,,,12,4,220,0,,,,,,,,,main,2,2,1,negative,negative,l,l,1,0.7151408999998239,572.0458065999992,573.0452050999957,573.0452050999957,None,572.0458065999992,None,572.0458065999992,None,572.0458065999992,None,573.7617894500014,None,573.7617894500014,None,573.7617894500014,None,,,,,,,,,,,,,,107,2023-03-30_14h51.43.271,Main,2022.1.1,60.009313444757254,
positive,positive,2,l,j,,,,,,,,,12,5,221,11,,,,,,,,,main,2,2,2,positive,positive,j,j,1,0.7489750000022468,573.7660038999966,574.7809357000006,574.7642708999992,None,573.7660038999966,None,573.7660038999966,None,573.7660038999966,None,575.5120809499946,None,575.5120809499946,None,575.5120809499946,None,,,,,,,,,,,,,,107,2023-03-30_14h51.43.271,Main,2022.1.1,60.009313444757254,
positive,neutral,1,l,j,,,,,,,,,12,6,222,8,,,,,,,,,main,1,1,1,neutral,positive,j,j,1,0.7809118000004673,575.5184563000003,576.5309523999967,576.5143753000011,None,575.5184563000003,None,575.5184563000003,None,575.5184563000003,None,577.29539085,None,577.29539085,None,577.29539085,None,,,,,,,,,,,,,,107,2023-03-30_14h51.43.271,Main,2022.1.1,60.009313444757254,
positive,negative,1,l,j,,,,,,,,,12,7,223,5,,,,,,,,,main,1,1,1,negative,positive,j,j,1,0.8149504999964847,577.2989900999964,578.3142563000001,578.2976579999959,None,577.2989900999964,None,577.2989900999964,None,577.2989900999964,None,579.1119852499993,None,579.1119852499993,None,579.1119852499993,None,,,,,,,,,,,,,,107,2023-03-30_14h51.43.271,Main,2022.1.1,60.009313444757254,
