target,distractor,set,ans1,ans2,rep_loop2.thisRepN,rep_loop2.thisTrialN,rep_loop2.thisN,rep_loop2.thisIndex,flanker_prac_loop.thisRepN,flanker_prac_loop.thisTrialN,flanker_prac_loop.thisN,flanker_prac_loop.thisIndex,flanker_main_loop.thisRepN,flanker_main_loop.thisTrialN,flanker_main_loop.thisN,flanker_main_loop.thisIndex,fl_inst_resp.keys,fl_inst_resp.rt,sound_1.started,sound_1.stopped,image_4.started,image_4.stopped,back_2.started,back_2.stopped,main_prac,fl_cold,fl_colt,fl_set,fl_dcond,fl_tcond,fl_ans,fl_res,fl_corr,fl_rt,fix_fl.started,fix_fl.stopped,targ.started,targ.stopped,j_button.started,j_button.stopped,k_button.started,k_button.stopped,l_button.started,l_button.stopped,j_button2.started,j_button2.stopped,k_button2.started,k_button2.stopped,l_button2.started,l_button2.stopped,mainback.started,mainback.stopped,key_resp.keys,key_resp.rt,mouse_6.x,mouse_6.y,mouse_6.leftButton,mouse_6.midButton,mouse_6.rightButton,mouse_6.started,mouse_6.stopped,text_2.started,text_2.stopped,id*,date,expName,psychopyVersion,frameRate,
,,,,,0,0,0,0,,,,,,,,,space,52.3780465000018,30.518781259987737,None,82.91524249999202,None,,,,,,,,,,,,,,,,,,,,,,,,,,,,,,,,,,,,,,,,,,108,2023-03-31_17h22.31.733,Main,2022.1.1,60.268629334927994,
positive,positive,1,l,j,,,,,0,0,0,2,,,,,,,,,,,88.16766179999104,None,prac,2,2,1,positive,positive,l,l,1,1.7333180000132415,90.18550130000222,91.19839350000257,91.16506139998091,None,90.18550130000222,None,90.18550130000222,None,90.18550130000222,None,92.91572009999072,None,92.91572009999072,None,92.91572009999072,None,,,,,,,,,,,,,,108,2023-03-31_17h22.31.733,Main,2022.1.1,60.268629334927994,
neutral,negative,1,k,k,,,,,0,1,1,7,,,,,,,,,,,,,prac,1,1,1,negative,neutral,k,k,1,0.7015607999928761,93.91647039999953,94.9174274999823,94.90094409999438,None,93.91647039999953,None,93.91647039999953,None,93.91647039999953,None,95.6153333599912,None,95.6153333599912,None,95.6153333599912,None,,,,,,,,,,,,,,108,2023-03-31_17h22.31.733,Main,2022.1.1,60.268629334927994,
negative,positive,2,j,l,,,,,0,2,2,15,,,,,,,,,,,,,prac,2,2,2,positive,negative,j,j,1,1.0149936999951024,95.63415229998645,96.63403980000294,96.61748859999352,None,95.63415229998645,None,95.63415229998645,None,95.63415229998645,None,97.63198465997702,None,97.63198465997702,None,97.63198465997702,None,,,,,,,,,,,,,,108,2023-03-31_17h22.31.733,Main,2022.1.1,60.268629334927994,
neutral,positive,1,k,k,,,,,0,3,3,4,,,,,,,,,,,,,prac,1,1,1,positive,neutral,k,k,1,0.7041103000228759,97.63579349999782,98.65078579998226,98.63407249999,None,97.63579349999782,None,97.63579349999782,None,97.63579349999782,None,99.33573425998911,None,99.33573425998911,None,99.33573425998911,None,,,,,,,,,,,,,,108,2023-03-31_17h22.31.733,Main,2022.1.1,60.268629334927994,
positive,neutral,1,l,j,,,,,0,4,4,8,,,,,,,,,,,,,prac,2,2,1,neutral,positive,l,l,1,0.6761087000195403,99.34166809997987,100.34815000000526,100.331478099979,None,99.34166809997987,None,99.34166809997987,None,99.34166809997987,None,101.01478045999538,None,101.01478045999538,None,101.01478045999538,None,,,,,,,,,,,,,,108,2023-03-31_17h22.31.733,Main,2022.1.1,60.268629334927994,
neutral,negative,2,k,k,,,,,0,5,5,16,,,,,,,,,,,,,prac,2,2,2,negative,neutral,k,k,1,0.5489437000069302,101.01479980000295,102.01483489997918,102.01483489997918,None,101.01479980000295,None,101.01479980000295,None,101.01479980000295,None,102.5648320599983,None,102.5648320599983,None,102.5648320599983,None,,,,,,,,,,,,,,108,2023-03-31_17h22.31.733,Main,2022.1.1,60.268629334927994,
positive,positive,2,l,j,,,,,0,6,6,11,,,,,,,,,,,,,prac,2,2,2,positive,positive,l,l,1,0.6819251999841072,102.56557119998615,103.56483109999681,103.56483109999681,None,102.56557119998615,None,102.56557119998615,None,102.56557119998615,None,104.24816305997665,None,104.24816305997665,None,104.24816305997665,None,,,,,,,,,,,,,,108,2023-03-31_17h22.31.733,Main,2022.1.1,60.268629334927994,
negative,negative,2,j,l,,,,,0,7,7,9,,,,,,,,,,,,,prac,2,2,2,negative,negative,j,j,1,0.798946299997624,104.25122049998026,105.25065750000067,105.234009399981,None,104.25122049998026,None,104.25122049998026,None,104.25122049998026,None,106.04846135999541,None,106.04846135999541,None,106.04846135999541,None,,,,,,,,,,,,,,108,2023-03-31_17h22.31.733,Main,2022.1.1,60.268629334927994,
negative,positive,1,j,l,,,,,0,8,8,6,,,,,,,,,,,,,prac,2,2,1,positive,negative,j,j,1,1.3508613999874797,106.05199509998783,107.06730259998585,107.05056629999308,None,106.05199509998783,None,106.05199509998783,None,106.05199509998783,None,108.4004422599799,None,108.4004422599799,None,108.4004422599799,None,,,,,,,,,,,,,,108,2023-03-31_17h22.31.733,Main,2022.1.1,60.268629334927994,
negative,neutral,2,j,l,,,,,0,9,9,12,,,,,,,,,,,,,prac,1,1,2,neutral,negative,j,j,1,0.8465568000101484,108.40532269998221,109.41712070000358,109.40058899999713,None,108.40532269998221,None,108.40532269998221,None,108.40532269998221,None,110.24836385999224,None,110.24836385999224,None,110.24836385999224,None,,,,,,,,,,,,,,108,2023-03-31_17h22.31.733,Main,2022.1.1,60.268629334927994,
neutral,neutral,1,k,k,,,,,0,10,10,1,,,,,,,,,,,,,prac,2,2,1,neutral,neutral,k,k,1,1.2983952999929897,110.25139069999568,111.25051449998864,111.23382269998547,None,110.25139069999568,None,110.25139069999568,None,110.25139069999568,None,112.54790786000085,None,112.54790786000085,None,112.54790786000085,None,,,,,,,,,,,,,,108,2023-03-31_17h22.31.733,Main,2022.1.1,60.268629334927994,
negative,neutral,1,j,l,,,,,0,11,11,3,,,,,,,,,,,,,prac,2,2,1,neutral,negative,j,j,1,0.801176699984353,112.54788420000114,113.54796689999057,113.54796689999057,None,112.54788420000114,None,112.54788420000114,None,112.54788420000114,None,114.3503246599983,None,114.3503246599983,None,114.3503246599983,None,,,,,,,,,,,,,,108,2023-03-31_17h22.31.733,Main,2022.1.1,60.268629334927994,
neutral,positive,2,k,k,,,,,0,12,12,13,,,,,,,,,,,,,prac,2,2,2,positive,neutral,k,k,1,0.630307699990226,114.353066199983,115.36704270000337,115.35040579998167,None,114.353066199983,None,114.353066199983,None,114.353066199983,None,115.98158675997983,None,115.98158675997983,None,115.98158675997983,None,,,,,,,,,,,,,,108,2023-03-31_17h22.31.733,Main,2022.1.1,60.268629334927994,
positive,negative,1,l,j,,,,,0,13,13,5,,,,,,,,,,,,,prac,2,2,1,negative,positive,l,l,1,0.7321267999941483,115.98519919998944,117.0002889999887,116.98368750000373,None,115.98519919998944,None,115.98519919998944,None,115.98519919998944,None,117.71486786000314,None,117.71486786000314,None,117.71486786000314,None,,,,,,,,,,,,,,108,2023-03-31_17h22.31.733,Main,2022.1.1,60.268629334927994,
positive,negative,2,l,j,,,,,0,14,14,14,,,,,,,,,,,,,prac,2,2,2,negative,positive,l,l,1,0.8485952000191901,117.71816619997844,118.73379090000526,118.71702529999311,None,117.71816619997844,None,117.71816619997844,None,117.71816619997844,None,119.56482315998873,None,119.56482315998873,None,119.56482315998873,None,,,,,,,,,,,,,,108,2023-03-31_17h22.31.733,Main,2022.1.1,60.268629334927994,
neutral,neutral,2,k,k,,,,,0,15,15,10,,,,,,,,,,,,,prac,2,2,2,neutral,neutral,k,k,1,0.5655256000172812,119.57126559998142,120.5836549999949,120.56702829999267,None,119.57126559998142,None,119.57126559998142,None,119.57126559998142,None,121.1314698599861,None,121.1314698599861,None,121.1314698599861,None,,,,,,,,,,,,,,108,2023-03-31_17h22.31.733,Main,2022.1.1,60.268629334927994,
negative,negative,1,j,l,,,,,0,16,16,0,,,,,,,,,,,,,prac,2,2,1,negative,negative,j,j,1,0.8485117000236642,121.13781099999323,122.14768439999898,122.13100949997897,None,121.13781099999323,None,121.13781099999323,None,121.13781099999323,None,122.9809850599966,None,122.9809850599966,None,122.9809850599966,None,,,,,,,,,,,,,,108,2023-03-31_17h22.31.733,Main,2022.1.1,60.268629334927994,
positive,neutral,2,l,j,,,,,0,17,17,17,,,,,,,,,,,,,prac,2,2,2,neutral,positive,l,l,1,0.7821470999915618,122.98101319998386,123.98107009998057,123.98107009998057,None,122.98101319998386,None,122.98101319998386,None,122.98101319998386,None,124.76439115999965,None,124.76439115999965,None,124.76439115999965,None,,,,,,,,,,,,,,108,2023-03-31_17h22.31.733,Main,2022.1.1,60.268629334927994,
negative,neutral,1,j,l,,,,,1,0,18,3,,,,,,,,,,,,,prac,2,2,1,neutral,negative,j,j,1,0.7820041000086349,124.77080529998057,125.78343310000491,125.76472999999532,None,124.77080529998057,None,124.77080529998057,None,124.77080529998057,None,126.5480285599886,None,126.5480285599886,None,126.5480285599886,None,,,,,,,,,,,,,,108,2023-03-31_17h22.31.733,Main,2022.1.1,60.268629334927994,
neutral,positive,2,k,k,,,,,1,1,19,13,,,,,,,,,,,,,prac,2,2,2,positive,neutral,k,k,1,0.5324286999821197,126.551284199988,127.56673150000279,127.5502210999839,None,126.551284199988,None,126.551284199988,None,126.551284199988,None,128.08132415999427,None,128.08132415999427,None,128.08132415999427,None,,,,,,,,,,,,,,108,2023-03-31_17h22.31.733,Main,2022.1.1,60.268629334927994,
neutral,positive,1,k,k,,,,,1,2,20,4,,,,,,,,,,,,,prac,1,1,1,positive,neutral,k,k,1,1.0985465999983717,128.08512569998857,129.10013839998282,129.08344590000343,None,128.08512569998857,None,128.08512569998857,None,128.08512569998857,None,130.18130926000305,None,130.18130926000305,None,130.18130926000305,None,,,,,,,,,,,,,,108,2023-03-31_17h22.31.733,Main,2022.1.1,60.268629334927994,
positive,neutral,2,l,j,,,,,1,3,21,17,,,,,,,,,,,,,prac,1,1,2,neutral,positive,l,l,1,0.6470195000001695,130.18573719999404,131.20003439998254,131.18336799999815,None,130.18573719999404,None,130.18573719999404,None,130.18573719999404,None,131.83076326000156,None,131.83076326000156,None,131.83076326000156,None,,,,,,,,,,,,,,108,2023-03-31_17h22.31.733,Main,2022.1.1,60.268629334927994,
negative,neutral,2,j,l,,,,,1,4,22,12,,,,,,,,,,,,,prac,1,1,2,neutral,negative,j,j,1,0.7482192000024952,131.83423879998736,132.84749359998386,132.83083199997782,None,131.83423879998736,None,131.83423879998736,None,131.83423879998736,None,133.58085775999353,None,133.58085775999353,None,133.58085775999353,None,,,,,,,,,,,,,,108,2023-03-31_17h22.31.733,Main,2022.1.1,60.268629334927994,
positive,neutral,1,l,j,,,,,1,5,23,8,,,,,,,,,,,,,prac,2,2,1,neutral,positive,l,j,0,0.6993006999837235,133.58339459999115,134.58323629997903,134.5666280000005,None,133.58339459999115,None,133.58339459999115,None,133.58339459999115,None,135.28118769999128,None,135.28118769999128,None,135.28118769999128,None,,,,,,,,,,,,,,108,2023-03-31_17h22.31.733,Main,2022.1.1,60.268629334927994,
positive,positive,2,l,j,,,,,1,6,24,11,,,,,,,,,,,,,prac,2,2,2,positive,positive,l,l,1,0.738691500009736,136.2830044000002,137.28315519998432,137.2666029999964,None,136.2830044000002,None,136.2830044000002,None,136.2830044000002,None,138.01831485998702,None,138.01831485998702,None,138.01831485998702,None,,,,,,,,,,,,,,108,2023-03-31_17h22.31.733,Main,2022.1.1,60.268629334927994,
positive,negative,1,l,j,,,,,1,7,25,5,,,,,,,,,,,,,prac,1,1,1,negative,positive,l,l,1,1.0613086000084877,138.0231247000047,139.03318779999972,139.0165532999963,None,138.0231247000047,None,138.0231247000047,None,138.0231247000047,None,140.08105645999314,None,140.08105645999314,None,140.08105645999314,None,,,,,,,,,,,,,,108,2023-03-31_17h22.31.733,Main,2022.1.1,60.268629334927994,
positive,negative,2,l,j,,,,,1,8,26,14,,,,,,,,,,,,,prac,2,2,2,negative,positive,l,l,1,0.6568856000085361,140.08472489999258,141.09982949998812,141.08317229998647,None,140.08472489999258,None,140.08472489999258,None,140.08472489999258,None,141.73949965998764,None,141.73949965998764,None,141.73949965998764,None,,,,,,,,,,,,,,108,2023-03-31_17h22.31.733,Main,2022.1.1,60.268629334927994,
negative,positive,2,j,l,,,,,1,9,27,15,,,,,,,,,,,,,prac,1,1,2,positive,negative,j,j,1,0.8400978999852668,141.75610519998008,142.76398150000023,142.730642599985,None,141.75610519998008,None,141.75610519998008,None,141.75610519998008,None,143.58062015998877,None,143.58062015998877,None,143.58062015998877,None,,,,,,,,,,,,,,108,2023-03-31_17h22.31.733,Main,2022.1.1,60.268629334927994,
neutral,neutral,1,k,k,,,,,1,10,28,1,,,,,,,,,,,,,prac,1,1,1,neutral,neutral,k,k,1,0.6854680000105873,143.58059830000275,144.58309450000525,144.58309450000525,None,143.58059830000275,None,143.58059830000275,None,143.58059830000275,None,145.26643975999906,None,145.26643975999906,None,145.26643975999906,None,,,,,,,,,,,,,,108,2023-03-31_17h22.31.733,Main,2022.1.1,60.268629334927994,
positive,positive,1,l,j,,,,,1,11,29,2,,,,,,,,,,,,,prac,1,1,1,positive,positive,l,l,1,1.112526400014758,145.2703547999845,146.28308789999573,146.26648079999723,None,145.2703547999845,None,145.2703547999845,None,145.2703547999845,None,147.38088706000127,None,147.38088706000127,None,147.38088706000127,None,,,,,,,,,,,,,,108,2023-03-31_17h22.31.733,Main,2022.1.1,60.268629334927994,
neutral,neutral,2,k,k,,,,,1,12,30,10,,,,,,,,,,,,,prac,1,1,2,neutral,neutral,k,k,1,0.7814754999999423,147.38480319999508,148.3995895999833,148.38299759998336,None,147.38480319999508,None,147.38480319999508,None,147.38480319999508,None,149.16418495999534,None,149.16418495999534,None,149.16418495999534,None,,,,,,,,,,,,,,108,2023-03-31_17h22.31.733,Main,2022.1.1,60.268629334927994,
negative,negative,2,j,l,,,,,1,13,31,9,,,,,,,,,,,,,prac,2,2,2,negative,negative,j,j,1,0.7831370999920182,149.16929570000502,150.1830284000025,150.1496428999817,None,149.16929570000502,None,149.16929570000502,None,149.16929570000502,None,150.94747945999262,None,150.94747945999262,None,150.94747945999262,None,,,,,,,,,,,,,,108,2023-03-31_17h22.31.733,Main,2022.1.1,60.268629334927994,
negative,negative,1,j,l,,,,,1,14,32,0,,,,,,,,,,,,,prac,2,2,1,negative,negative,j,j,1,0.7364383999956772,150.9516442999884,151.9666506999929,151.94960559997708,None,150.9516442999884,None,150.9516442999884,None,150.9516442999884,None,152.68040285999888,None,152.68040285999888,None,152.68040285999888,None,,,,,,,,,,,,,,108,2023-03-31_17h22.31.733,Main,2022.1.1,60.268629334927994,
neutral,negative,2,k,k,,,,,1,15,33,16,,,,,,,,,,,,,prac,1,1,2,negative,neutral,k,k,1,1.5264655999781098,152.68599820000236,153.69704579998506,153.6803777999885,None,152.68599820000236,None,152.68599820000236,None,152.68599820000236,None,155.21409069999936,None,155.21409069999936,None,155.21409069999936,None,,,,,,,,,,,,,,108,2023-03-31_17h22.31.733,Main,2022.1.1,60.268629334927994,
negative,positive,1,j,l,,,,,1,16,34,6,,,,,,,,,,,,,prac,2,2,1,positive,negative,j,j,1,0.7350719000096433,156.21401500000502,157.21614079998108,157.19950550000067,None,156.21401500000502,None,156.21401500000502,None,156.21401500000502,None,157.94732595998795,None,157.94732595998795,None,157.94732595998795,None,,,,,,,,,,,,,,108,2023-03-31_17h22.31.733,Main,2022.1.1,60.268629334927994,
neutral,negative,1,k,k,,,,,1,17,35,7,,,,,,,,,,,,,prac,1,1,1,negative,neutral,k,k,1,0.5147622000076808,157.95097429997986,158.96604159998242,158.9494893999945,None,157.95097429997986,None,157.95097429997986,None,157.95097429997986,None,159.46398015999586,None,159.46398015999586,None,159.46398015999586,None,,,,,,,,,,,,,,108,2023-03-31_17h22.31.733,Main,2022.1.1,60.268629334927994,
,,,,,,,,,,,,,,,,,,,,,,,,,,,,,,,,,,,,,,,,,,,,,,,,,,,159.4639915000007,None,space,13.64224329998251,,,,,,,,,,108,2023-03-31_17h22.31.733,Main,2022.1.1,60.268629334927994,
,,,,,,,,,,,,,,,,,,,,,,,,,,,,,,,,,,,,,,,,,,,,,,,,,,,,,,,0.062962964,-0.074074075,0,0,0,0.011229060008190572,None,,,108,2023-03-31_17h22.31.733,Main,2022.1.1,60.268629334927994,
negative,negative,2,j,l,,,,,,,,,0,0,0,9,,,,,,,173.12996279998333,None,main,1,1,2,negative,negative,j,j,1,0.844385800010059,175.13798149998183,176.14919989998452,176.13247059998685,None,175.13798149998183,None,175.13798149998183,None,175.13798149998183,None,176.98027265998536,None,176.98027265998536,None,176.98027265998536,None,,,,,,,,,,,,,,108,2023-03-31_17h22.31.733,Main,2022.1.1,60.268629334927994,
positive,negative,1,l,j,,,,,,,,,0,1,1,5,,,,,,,,,main,1,1,1,negative,positive,l,l,1,0.7993786000006367,176.98503949999576,177.9991259999806,177.98245489998953,None,176.98503949999576,None,176.98503949999576,None,176.98503949999576,None,178.7824475600035,None,178.7824475600035,None,178.7824475600035,None,,,,,,,,,,,,,,108,2023-03-31_17h22.31.733,Main,2022.1.1,60.268629334927994,
neutral,positive,1,k,k,,,,,,,,,0,2,2,4,,,,,,,,,main,1,1,1,positive,neutral,k,k,1,0.6300273000088055,178.78564709998318,179.79897129998426,179.78243019999354,None,178.78564709998318,None,178.78564709998318,None,178.78564709998318,None,180.41352905997775,None,180.41352905997775,None,180.41352905997775,None,,,,,,,,,,,,,,108,2023-03-31_17h22.31.733,Main,2022.1.1,60.268629334927994,
positive,negative,2,l,j,,,,,,,,,0,3,3,14,,,,,,,,,main,1,1,2,negative,positive,l,l,1,0.5806869000080042,180.41943919999176,181.4323177000042,181.41579410000122,None,180.41943919999176,None,180.41943919999176,None,180.41943919999176,None,181.99641255997705,None,181.99641255997705,None,181.99641255997705,None,,,,,,,,,,,,,,108,2023-03-31_17h22.31.733,Main,2022.1.1,60.268629334927994,
positive,neutral,2,l,j,,,,,,,,,0,4,4,17,,,,,,,,,main,2,2,2,neutral,positive,l,l,1,0.79890309998882,181.99650219999603,182.99640789997648,182.99640789997648,None,181.99650219999603,None,181.99650219999603,None,181.99650219999603,None,183.79640596000246,None,183.79640596000246,None,183.79640596000246,None,,,,,,,,,,,,,,108,2023-03-31_17h22.31.733,Main,2022.1.1,60.268629334927994,
neutral,negative,1,k,k,,,,,,,,,0,5,5,7,,,,,,,,,main,2,2,1,negative,neutral,k,k,1,0.6151859999808948,183.79713609997998,184.79641069998615,184.79641069998615,None,183.79713609997998,None,183.79713609997998,None,183.79713609997998,None,185.4130655599991,None,185.4130655599991,None,185.4130655599991,None,,,,,,,,,,,,,,108,2023-03-31_17h22.31.733,Main,2022.1.1,60.268629334927994,
positive,positive,1,l,j,,,,,,,,,0,6,6,2,,,,,,,,,main,1,1,1,positive,positive,l,l,1,0.5819956000195816,185.41689100000076,186.43212299997685,186.41555229999358,None,185.41689100000076,None,185.41689100000076,None,185.41689100000076,None,186.99636515999447,None,186.99636515999447,None,186.99636515999447,None,,,,,,,,,,,,,,108,2023-03-31_17h22.31.733,Main,2022.1.1,60.268629334927994,
neutral,negative,2,k,k,,,,,,,,,0,7,7,16,,,,,,,,,main,2,2,2,negative,neutral,k,k,1,0.5649834999931045,187.0005828999856,188.01542650000192,187.9989487999992,None,187.0005828999856,None,187.0005828999856,None,187.0005828999856,None,188.56326845999575,None,188.56326845999575,None,188.56326845999575,None,,,,,,,,,,,,,,108,2023-03-31_17h22.31.733,Main,2022.1.1,60.268629334927994,
negative,negative,1,j,l,,,,,,,,,0,8,8,0,,,,,,,,,main,2,2,1,negative,negative,j,j,1,0.6654257000191137,188.56942909999634,189.58204529999057,189.56543489999603,None,188.56942909999634,None,188.56942909999634,None,188.56942909999634,None,190.22995965998854,None,190.22995965998854,None,190.22995965998854,None,,,,,,,,,,,,,,108,2023-03-31_17h22.31.733,Main,2022.1.1,60.268629334927994,
positive,positive,2,l,j,,,,,,,,,0,9,9,11,,,,,,,,,main,2,2,2,positive,positive,l,l,1,0.6146442999888677,190.23616609998862,191.2487451999914,191.2320717999828,None,190.23616609998862,None,190.23616609998862,None,190.23616609998862,None,191.84659135997646,None,191.84659135997646,None,191.84659135997646,None,,,,,,,,,,,,,,108,2023-03-31_17h22.31.733,Main,2022.1.1,60.268629334927994,
negative,neutral,2,j,l,,,,,,,,,0,10,10,12,,,,,,,,,main,1,1,2,neutral,negative,j,j,1,0.765739599999506,191.84996219997993,192.8632369999832,192.84878699999535,None,191.84996219997993,None,191.84996219997993,None,191.84996219997993,None,193.61346815999133,None,193.61346815999133,None,193.61346815999133,None,,,,,,,,,,,,,,108,2023-03-31_17h22.31.733,Main,2022.1.1,60.268629334927994,
neutral,neutral,2,k,k,,,,,,,,,0,11,11,10,,,,,,,,,main,2,2,2,neutral,neutral,k,k,1,0.5469098000030499,193.62902279998525,194.62950049998472,194.61281869999948,None,193.62902279998525,None,193.62902279998525,None,193.62902279998525,None,195.1627912599768,None,195.1627912599768,None,195.1627912599768,None,,,,,,,,,,,,,,108,2023-03-31_17h22.31.733,Main,2022.1.1,60.268629334927994,
negative,neutral,1,j,l,,,,,,,,,0,12,12,3,,,,,,,,,main,1,1,1,neutral,negative,j,j,1,0.7147712000005413,195.16312869999092,196.16282159998082,196.16282159998082,None,195.16312869999092,None,195.16312869999092,None,195.16312869999092,None,196.8794761599973,None,196.8794761599973,None,196.8794761599973,None,,,,,,,,,,,,,,108,2023-03-31_17h22.31.733,Main,2022.1.1,60.268629334927994,
positive,neutral,1,l,j,,,,,,,,,0,13,13,8,,,,,,,,,main,2,2,1,neutral,positive,l,l,1,0.7151682999974582,196.88115629999083,197.89614349999465,197.87948299999698,None,196.88115629999083,None,196.88115629999083,None,196.88115629999083,None,198.5961322600022,None,198.5961322600022,None,198.5961322600022,None,,,,,,,,,,,,,,108,2023-03-31_17h22.31.733,Main,2022.1.1,60.268629334927994,
negative,positive,2,j,l,,,,,,,,,0,14,14,15,,,,,,,,,main,1,1,2,positive,negative,j,j,1,0.7486517000070307,198.60305619999417,199.61521590000484,199.59856250000303,None,198.60305619999417,None,198.60305619999417,None,198.60305619999417,None,200.34642555999454,None,200.34642555999454,None,200.34642555999454,None,,,,,,,,,,,,,,108,2023-03-31_17h22.31.733,Main,2022.1.1,60.268629334927994,
neutral,positive,2,k,k,,,,,,,,,0,15,15,13,,,,,,,,,main,2,2,2,positive,neutral,k,k,1,0.7000293000019155,200.35232429997995,201.36524719998124,201.34854609999456,None,200.35232429997995,None,200.35232429997995,None,200.35232429997995,None,202.04679145999836,None,202.04679145999836,None,202.04679145999836,None,,,,,,,,,,,,,,108,2023-03-31_17h22.31.733,Main,2022.1.1,60.268629334927994,
neutral,neutral,1,k,k,,,,,,,,,0,16,16,1,,,,,,,,,main,2,2,1,neutral,neutral,k,k,1,0.6801552999822889,202.05319720000261,203.06522339998628,203.0485786999925,None,202.05319720000261,None,202.05319720000261,None,202.05319720000261,None,203.72964725999628,None,203.72964725999628,None,203.72964725999628,None,,,,,,,,,,,,,,108,2023-03-31_17h22.31.733,Main,2022.1.1,60.268629334927994,
negative,positive,1,j,l,,,,,,,,,0,17,17,6,,,,,,,,,main,2,2,1,positive,negative,j,j,1,0.836383299989393,203.73585209998419,204.74835539999185,204.73177359998226,None,203.73585209998419,None,203.73585209998419,None,203.73585209998419,None,205.56528006000445,None,205.56528006000445,None,205.56528006000445,None,,,,,,,,,,,,,,108,2023-03-31_17h22.31.733,Main,2022.1.1,60.268629334927994,
positive,neutral,2,l,j,,,,,,,,,1,0,18,17,,,,,,,,,main,2,2,2,neutral,positive,l,l,1,0.6439382999960799,205.5709833999863,206.57917779998388,206.56251379998866,None,205.5709833999863,None,205.5709833999863,None,205.5709833999863,None,207.212476359983,None,207.212476359983,None,207.212476359983,None,,,,,,,,,,,,,,108,2023-03-31_17h22.31.733,Main,2022.1.1,60.268629334927994,
positive,positive,2,l,j,,,,,,,,,1,1,19,11,,,,,,,,,main,2,2,2,positive,positive,l,l,1,0.6307371000002604,207.21392559999367,208.22925569998915,208.21254849998513,None,207.21392559999367,None,207.21392559999367,None,207.21392559999367,None,208.84585935999058,None,208.84585935999058,None,208.84585935999058,None,,,,,,,,,,,,,,108,2023-03-31_17h22.31.733,Main,2022.1.1,60.268629334927994,
neutral,negative,1,k,k,,,,,,,,,1,2,20,7,,,,,,,,,main,2,2,1,negative,neutral,k,k,1,0.6819905999873299,208.84653119998984,209.8458896999946,209.8458896999946,None,208.84653119998984,None,208.84653119998984,None,208.84653119998984,None,210.52926635999466,None,210.52926635999466,None,210.52926635999466,None,,,,,,,,,,,,,,108,2023-03-31_17h22.31.733,Main,2022.1.1,60.268629334927994,
neutral,positive,2,k,k,,,,,,,,,1,3,21,13,,,,,,,,,main,2,2,2,positive,neutral,k,k,1,0.6030262999993283,210.53620309999678,211.5483362999803,211.53167589998338,None,210.53620309999678,None,210.53620309999678,None,210.53620309999678,None,212.1337989599968,None,212.1337989599968,None,212.1337989599968,None,,,,,,,,,,,,,,108,2023-03-31_17h22.31.733,Main,2022.1.1,60.268629334927994,
negative,neutral,1,j,l,,,,,,,,,1,4,22,3,,,,,,,,,main,2,2,1,neutral,negative,j,j,1,0.8272101000184193,212.1385856999841,213.19885970000178,213.18414889997803,None,212.1385856999841,None,212.1385856999841,None,212.1385856999841,None,213.9626064599841,None,213.9626064599841,None,213.9626064599841,None,,,,,,,,,,,,,,108,2023-03-31_17h22.31.733,Main,2022.1.1,60.268629334927994,
positive,negative,2,l,j,,,,,,,,,1,5,23,14,,,,,,,,,main,2,2,2,negative,positive,l,l,1,0.7487917999969795,213.9699367999856,214.98155239998596,214.96505030000117,None,213.9699367999856,None,213.9699367999856,None,213.9699367999856,None,215.71275386000053,None,215.71275386000053,None,215.71275386000053,None,,,,,,,,,,,,,,108,2023-03-31_17h22.31.733,Main,2022.1.1,60.268629334927994,
positive,positive,1,l,j,,,,,,,,,1,6,24,2,,,,,,,,,main,2,2,1,positive,positive,l,l,1,1.114260500005912,215.71665220000432,216.73148779998883,216.7149262999883,None,215.71665220000432,None,215.71665220000432,None,215.71665220000432,None,217.82859385998455,None,217.82859385998455,None,217.82859385998455,None,,,,,,,,,,,,,,108,2023-03-31_17h22.31.733,Main,2022.1.1,60.268629334927994,
neutral,neutral,2,k,k,,,,,,,,,1,7,25,10,,,,,,,,,main,1,1,2,neutral,neutral,k,k,1,0.5485734999820124,217.84042929997668,218.84566229998018,218.82901639997726,None,217.84042929997668,None,217.84042929997668,None,217.84042929997668,None,219.37897636000417,None,219.37897636000417,None,219.37897636000417,None,,,,,,,,,,,,,,108,2023-03-31_17h22.31.733,Main,2022.1.1,60.268629334927994,
negative,negative,1,j,l,,,,,,,,,1,8,26,0,,,,,,,,,main,2,2,1,negative,negative,j,j,1,0.698638400004711,219.37968159999582,220.37902379999286,220.37902379999286,None,219.37968159999582,None,219.37968159999582,None,219.37968159999582,None,221.07897245998612,None,221.07897245998612,None,221.07897245998612,None,,,,,,,,,,,,,,108,2023-03-31_17h22.31.733,Main,2022.1.1,60.268629334927994,
negative,neutral,2,j,l,,,,,,,,,1,9,27,12,,,,,,,,,main,2,2,2,neutral,negative,j,j,1,1.0655266999965534,221.0808935999812,222.09567579999566,222.07899849998648,None,221.0808935999812,None,221.0808935999812,None,221.0808935999812,None,223.14595635998995,None,223.14595635998995,None,223.14595635998995,None,,,,,,,,,,,,,,108,2023-03-31_17h22.31.733,Main,2022.1.1,60.268629334927994,
positive,neutral,1,l,j,,,,,,,,,1,10,28,8,,,,,,,,,main,1,1,1,neutral,positive,l,l,1,0.63401859998703,223.14965499998652,224.16471029998502,224.14812840000377,None,223.14965499998652,None,223.14965499998652,None,223.14965499998652,None,224.78143476000406,None,224.78143476000406,None,224.78143476000406,None,,,,,,,,,,,,,,108,2023-03-31_17h22.31.733,Main,2022.1.1,60.268629334927994,
neutral,positive,1,k,k,,,,,,,,,1,11,29,4,,,,,,,,,main,1,1,1,positive,neutral,k,k,1,0.6291773999982979,224.78590600000462,225.7980164999899,225.7814628999913,None,224.78590600000462,None,224.78590600000462,None,224.78590600000462,None,226.4121954599803,None,226.4121954599803,None,226.4121954599803,None,,,,,,,,,,,,,,108,2023-03-31_17h22.31.733,Main,2022.1.1,60.268629334927994,
negative,positive,2,j,l,,,,,,,,,1,12,30,15,,,,,,,,,main,1,1,2,positive,negative,j,j,1,1.2342593999928795,226.41852569999173,227.4314426999772,227.4147318000032,None,226.41852569999173,None,226.41852569999173,None,226.41852569999173,None,228.64794835999493,None,228.64794835999493,None,228.64794835999493,None,,,,,,,,,,,,,,108,2023-03-31_17h22.31.733,Main,2022.1.1,60.268629334927994,
negative,negative,2,j,l,,,,,,,,,1,13,31,9,,,,,,,,,main,2,2,2,negative,negative,j,j,1,0.7831677999929525,228.65114129998256,229.6645884999889,229.648031299992,None,228.65114129998256,None,228.65114129998256,None,228.65114129998256,None,230.42881815998118,None,230.42881815998118,None,230.42881815998118,None,,,,,,,,,,,,,,108,2023-03-31_17h22.31.733,Main,2022.1.1,60.268629334927994,
positive,negative,1,l,j,,,,,,,,,1,14,32,5,,,,,,,,,main,2,2,1,negative,positive,l,l,1,0.9769594999961555,230.43525119998958,231.44538279998233,231.42880689998856,None,230.43525119998958,None,230.43525119998958,None,230.43525119998958,None,232.41205645999872,None,232.41205645999872,None,232.41205645999872,None,,,,,,,,,,,,,,108,2023-03-31_17h22.31.733,Main,2022.1.1,60.268629334927994,
neutral,negative,2,k,k,,,,,,,,,1,15,33,16,,,,,,,,,main,2,2,2,negative,neutral,k,k,1,0.6318196000065655,232.41530679998687,233.4287203999993,233.41205159999663,None,232.41530679998687,None,232.41530679998687,None,232.41530679998687,None,234.04538556000335,None,234.04538556000335,None,234.04538556000335,None,,,,,,,,,,,,,,108,2023-03-31_17h22.31.733,Main,2022.1.1,60.268629334927994,
neutral,neutral,1,k,k,,,,,,,,,1,16,34,1,,,,,,,,,main,1,1,1,neutral,neutral,k,k,1,0.7653470000077505,234.05144260000088,235.064426500001,235.04789039999014,None,234.05144260000088,None,234.05144260000088,None,234.05144260000088,None,235.81243165999769,None,235.81243165999769,None,235.81243165999769,None,,,,,,,,,,,,,,108,2023-03-31_17h22.31.733,Main,2022.1.1,60.268629334927994,
negative,positive,1,j,l,,,,,,,,,1,17,35,6,,,,,,,,,main,1,1,1,positive,negative,j,j,1,0.7178232000151183,235.81846119998954,236.83109110000078,236.81457279997994,None,235.81846119998954,None,235.81846119998954,None,235.81846119998954,None,237.53179625999184,None,237.53179625999184,None,237.53179625999184,None,,,,,,,,,,,,,,108,2023-03-31_17h22.31.733,Main,2022.1.1,60.268629334927994,
positive,neutral,1,l,j,,,,,,,,,2,0,36,8,,,,,,,,,main,2,2,1,neutral,positive,l,l,1,0.684496300003957,237.5359639999806,238.54778900000383,238.53118570000515,None,237.5359639999806,None,237.5359639999806,None,237.5359639999806,None,239.21463345999365,None,239.21463345999365,None,239.21463345999365,None,,,,,,,,,,,,,,108,2023-03-31_17h22.31.733,Main,2022.1.1,60.268629334927994,
neutral,neutral,2,k,k,,,,,,,,,2,1,37,10,,,,,,,,,main,1,1,2,neutral,neutral,k,k,1,0.6749269000138156,239.22449739999138,240.2310174999875,240.1955856999848,None,239.22449739999138,None,239.22449739999138,None,239.22449739999138,None,240.89557425999084,None,240.89557425999084,None,240.89557425999084,None,,,,,,,,,,,,,,108,2023-03-31_17h22.31.733,Main,2022.1.1,60.268629334927994,
neutral,negative,1,k,k,,,,,,,,,2,2,38,7,,,,,,,,,main,1,1,1,negative,neutral,k,k,1,0.6481229999917559,240.90150099998573,241.91460259997984,241.89766089999466,None,240.90150099998573,None,240.90150099998573,None,240.90150099998573,None,242.5451062600012,None,242.5451062600012,None,242.5451062600012,None,,,,,,,,,,,,,,108,2023-03-31_17h22.31.733,Main,2022.1.1,60.268629334927994,
positive,negative,1,l,j,,,,,,,,,2,3,39,5,,,,,,,,,main,2,2,1,negative,positive,l,k,0,0.5818144000077154,242.54550649999874,243.5452400999784,243.5452400999784,None,242.54550649999874,None,242.54550649999874,None,242.54550649999874,None,244.12849659999483,None,244.12849659999483,None,244.12849659999483,None,,,,,,,,,,,,,,108,2023-03-31_17h22.31.733,Main,2022.1.1,60.268629334927994,
neutral,neutral,1,k,k,,,,,,,,,2,4,40,1,,,,,,,,,main,1,1,1,neutral,neutral,k,k,1,0.7039521000115201,245.1288249999925,246.13107889998355,246.11439319999772,None,245.1288249999925,None,245.1288249999925,None,245.1288249999925,None,246.82877085999354,None,246.82877085999354,None,246.82877085999354,None,,,,,,,,,,,,,,108,2023-03-31_17h22.31.733,Main,2022.1.1,60.268629334927994,
negative,positive,1,j,l,,,,,,,,,2,5,41,6,,,,,,,,,main,1,1,1,positive,negative,j,j,1,0.7810821000020951,246.83271699998295,247.84749649997684,247.8310063999961,None,246.83271699998295,None,246.83271699998295,None,246.83271699998295,None,248.6116791599896,None,248.6116791599896,None,248.6116791599896,None,,,,,,,,,,,,,,108,2023-03-31_17h22.31.733,Main,2022.1.1,60.268629334927994,
positive,positive,1,l,j,,,,,,,,,2,6,42,2,,,,,,,,,main,2,2,1,positive,positive,l,l,1,0.7655911000038031,248.6185167999938,249.63081010000315,249.61420819998602,None,248.6185167999938,None,248.6185167999938,None,248.6185167999938,None,250.3787431600038,None,250.3787431600038,None,250.3787431600038,None,,,,,,,,,,,,,,108,2023-03-31_17h22.31.733,Main,2022.1.1,60.268629334927994,
negative,negative,2,j,l,,,,,,,,,2,7,43,9,,,,,,,,,main,1,1,2,negative,negative,j,j,1,0.7815772999892943,250.3825151999772,251.39760789999855,251.38087189997896,None,250.3825151999772,None,250.3825151999772,None,250.3825151999772,None,252.16204115999864,None,252.16204115999864,None,252.16204115999864,None,,,,,,,,,,,,,,108,2023-03-31_17h22.31.733,Main,2022.1.1,60.268629334927994,
neutral,positive,1,k,k,,,,,,,,,2,8,44,4,,,,,,,,,main,2,2,1,positive,neutral,k,k,1,0.7312226000067312,252.18091299998923,253.1785552999936,253.16417750000255,None,252.18091299998923,None,252.18091299998923,None,252.18091299998923,None,253.89487595999964,None,253.89487595999964,None,253.89487595999964,None,,,,,,,,,,,,,,108,2023-03-31_17h22.31.733,Main,2022.1.1,60.268629334927994,
negative,neutral,2,j,l,,,,,,,,,2,9,45,12,,,,,,,,,main,2,2,2,neutral,negative,j,j,1,0.7650664999964647,253.8951337999897,254.89484389999416,254.89484389999416,None,253.8951337999897,None,253.8951337999897,None,253.8951337999897,None,255.66152885999765,None,255.66152885999765,None,255.66152885999765,None,,,,,,,,,,,,,,108,2023-03-31_17h22.31.733,Main,2022.1.1,60.268629334927994,
positive,negative,2,l,j,,,,,,,,,2,10,46,14,,,,,,,,,main,1,1,2,negative,positive,l,l,1,0.7174353000009432,255.66513789998135,256.68071789998794,256.66406519999146,None,255.66513789998135,None,255.66513789998135,None,255.66513789998135,None,257.3806934599823,None,257.3806934599823,None,257.3806934599823,None,,,,,,,,,,,,,,108,2023-03-31_17h22.31.733,Main,2022.1.1,60.268629334927994,
negative,neutral,1,j,l,,,,,,,,,2,11,47,3,,,,,,,,,main,2,2,1,neutral,negative,j,j,1,0.6960975999827497,257.3841040999978,258.39735669997754,258.38069289998384,None,257.3841040999978,None,257.3841040999978,None,257.3841040999978,None,259.078469359997,None,259.078469359997,None,259.078469359997,None,,,,,,,,,,,,,,108,2023-03-31_17h22.31.733,Main,2022.1.1,60.268629334927994,
positive,neutral,2,l,j,,,,,,,,,2,12,48,17,,,,,,,,,main,2,2,2,neutral,positive,l,l,1,0.7986001999815926,259.0822113000031,260.0971591999987,260.08059440000216,None,259.0822113000031,None,259.0822113000031,None,259.0822113000031,None,260.8784381599806,None,260.8784381599806,None,260.8784381599806,None,,,,,,,,,,,,,,108,2023-03-31_17h22.31.733,Main,2022.1.1,60.268629334927994,
neutral,negative,2,k,k,,,,,,,,,2,13,49,16,,,,,,,,,main,2,2,2,negative,neutral,k,k,1,0.6638410000014119,260.88295729999663,261.8971213999903,261.88061890000245,None,260.88295729999663,None,260.88295729999663,None,260.88295729999663,None,262.5450666599907,None,262.5450666599907,None,262.5450666599907,None,,,,,,,,,,,,,,108,2023-03-31_17h22.31.733,Main,2022.1.1,60.268629334927994,
positive,positive,2,l,j,,,,,,,,,2,14,50,11,,,,,,,,,main,1,1,2,positive,positive,l,l,1,0.6652357999992091,262.55102379998425,263.56132290000096,263.54465159997926,None,262.55102379998425,None,262.55102379998425,None,262.55102379998425,None,264.21132745999495,None,264.21132745999495,None,264.21132745999495,None,,,,,,,,,,,,,,108,2023-03-31_17h22.31.733,Main,2022.1.1,60.268629334927994,
negative,positive,2,j,l,,,,,,,,,2,15,51,15,,,,,,,,,main,1,1,2,positive,negative,j,j,1,0.7487175000132993,264.2114680999948,265.2115545999841,265.2115545999841,None,264.2114680999948,None,264.2114680999948,None,264.2114680999948,None,265.9613371599815,None,265.9613371599815,None,265.9613371599815,None,,,,,,,,,,,,,,108,2023-03-31_17h22.31.733,Main,2022.1.1,60.268629334927994,
neutral,positive,2,k,k,,,,,,,,,2,16,52,13,,,,,,,,,main,2,2,2,positive,neutral,k,k,1,0.564940900017973,265.96316990000196,266.97826659999555,266.96132929998566,None,265.96316990000196,None,265.96316990000196,None,265.96316990000196,None,267.5279785599967,None,267.5279785599967,None,267.5279785599967,None,,,,,,,,,,,,,,108,2023-03-31_17h22.31.733,Main,2022.1.1,60.268629334927994,
negative,negative,1,j,l,,,,,,,,,2,17,53,0,,,,,,,,,main,1,1,1,negative,negative,j,j,1,0.7321560999844223,267.53231939999387,268.547069799999,268.5304976000043,None,267.53231939999387,None,267.53231939999387,None,267.53231939999387,None,269.2616045599978,None,269.2616045599978,None,269.2616045599978,None,,,,,,,,,,,,,,108,2023-03-31_17h22.31.733,Main,2022.1.1,60.268629334927994,
neutral,positive,2,k,k,,,,,,,,,3,0,54,13,,,,,,,,,main,1,1,2,positive,neutral,k,k,1,0.6150530000159051,269.2663675999793,270.2803436999966,270.26376879998134,None,269.2663675999793,None,269.2663675999793,None,269.2663675999793,None,270.87823675998953,None,270.87823675998953,None,270.87823675998953,None,,,,,,,,,,,,,,108,2023-03-31_17h22.31.733,Main,2022.1.1,60.268629334927994,
positive,negative,2,l,j,,,,,,,,,3,1,55,14,,,,,,,,,main,1,1,2,negative,positive,l,l,1,0.8149419999972451,270.88206699999864,271.8969686999917,271.88038139999844,None,270.88206699999864,None,270.88206699999864,None,270.88206699999864,None,272.6948506599991,None,272.6948506599991,None,272.6948506599991,None,,,,,,,,,,,,,,108,2023-03-31_17h22.31.733,Main,2022.1.1,60.268629334927994,
neutral,negative,2,k,k,,,,,,,,,3,2,56,16,,,,,,,,,main,2,2,2,negative,neutral,k,k,1,0.5330167999782134,272.6983416999865,273.71360409999033,273.69702199997846,None,272.6983416999865,None,272.6983416999865,None,272.6983416999865,None,274.2281528599968,None,274.2281528599968,None,274.2281528599968,None,,,,,,,,,,,,,,108,2023-03-31_17h22.31.733,Main,2022.1.1,60.268629334927994,
negative,negative,1,j,l,,,,,,,,,3,3,57,0,,,,,,,,,main,1,1,1,negative,negative,j,j,1,0.7303817000065465,274.2325243999949,275.24443979997886,275.2277717999823,None,274.2325243999949,None,274.2325243999949,None,274.2325243999949,None,275.9610496600042,None,275.9610496600042,None,275.9610496600042,None,,,,,,,,,,,,,,108,2023-03-31_17h22.31.733,Main,2022.1.1,60.268629334927994,
neutral,neutral,2,k,k,,,,,,,,,3,4,58,10,,,,,,,,,main,1,1,2,neutral,neutral,k,k,1,0.5525031000142917,275.9626145999937,276.9777955999889,276.9611475999991,None,275.9626145999937,None,275.9626145999937,None,275.9626145999937,None,277.51611355998904,None,277.51611355998904,None,277.51611355998904,None,,,,,,,,,,,,,,108,2023-03-31_17h22.31.733,Main,2022.1.1,60.268629334927994,
negative,positive,1,j,l,,,,,,,,,3,5,59,6,,,,,,,,,main,2,2,1,positive,negative,j,j,1,0.812645900005009,277.5194527999847,278.5302757000027,278.51356229998055,None,277.5194527999847,None,277.5194527999847,None,277.5194527999847,None,279.3301336599805,None,279.3301336599805,None,279.3301336599805,None,,,,,,,,,,,,,,108,2023-03-31_17h22.31.733,Main,2022.1.1,60.268629334927994,
neutral,negative,1,k,k,,,,,,,,,3,6,60,7,,,,,,,,,main,1,1,1,negative,neutral,k,k,1,0.5128517000121064,279.3339918999991,280.34684479999123,280.32802970000193,None,279.3339918999991,None,279.3339918999991,None,279.3339918999991,None,280.8446590599895,None,280.8446590599895,None,280.8446590599895,None,,,,,,,,,,,,,,108,2023-03-31_17h22.31.733,Main,2022.1.1,60.268629334927994,
negative,negative,2,j,l,,,,,,,,,3,7,61,9,,,,,,,,,main,1,1,2,negative,negative,j,j,1,0.6506707000080496,280.8480714999896,281.86350159998983,281.8469019999902,None,280.8480714999896,None,280.8480714999896,None,280.8480714999896,None,282.49686785998057,None,282.49686785998057,None,282.49686785998057,None,,,,,,,,,,,,,,108,2023-03-31_17h22.31.733,Main,2022.1.1,60.268629334927994,
negative,positive,2,j,l,,,,,,,,,3,8,62,15,,,,,,,,,main,1,1,2,positive,negative,j,j,1,0.6309425999934319,282.5017761999916,283.51339649999863,283.49681879999116,None,282.5017761999916,None,282.5017761999916,None,282.5017761999916,None,284.1301910599985,None,284.1301910599985,None,284.1301910599985,None,,,,,,,,,,,,,,108,2023-03-31_17h22.31.733,Main,2022.1.1,60.268629334927994,
positive,neutral,1,l,j,,,,,,,,,3,9,63,8,,,,,,,,,main,1,1,1,neutral,positive,l,l,1,0.9635411000053864,284.13470880000386,285.1442233999842,285.1275303000002,None,284.13470880000386,None,284.13470880000386,None,284.13470880000386,None,286.0941874599783,None,286.0941874599783,None,286.0941874599783,None,,,,,,,,,,,,,,108,2023-03-31_17h22.31.733,Main,2022.1.1,60.268629334927994,
negative,neutral,2,j,l,,,,,,,,,3,10,64,12,,,,,,,,,main,2,2,2,neutral,negative,j,j,1,0.8810081999981776,286.09541109998827,287.110900700005,287.0942368999822,None,286.09541109998827,None,286.09541109998827,None,286.09541109998827,None,287.97750815997716,None,287.97750815997716,None,287.97750815997716,None,,,,,,,,,,,,,,108,2023-03-31_17h22.31.733,Main,2022.1.1,60.268629334927994,
negative,neutral,1,j,l,,,,,,,,,3,11,65,3,,,,,,,,,main,2,2,1,neutral,negative,j,j,1,0.767098000011174,287.98127590000513,288.9965971999918,288.9800032999774,None,287.98127590000513,None,287.98127590000513,None,287.98127590000513,None,289.74641956000124,None,289.74641956000124,None,289.74641956000124,None,,,,,,,,,,,,,,108,2023-03-31_17h22.31.733,Main,2022.1.1,60.268629334927994,
positive,neutral,2,l,j,,,,,,,,,3,12,66,17,,,,,,,,,main,2,2,2,neutral,positive,l,l,1,0.765762299997732,289.7511655999988,290.7632176000043,290.7467004999926,None,289.7511655999988,None,289.7511655999988,None,289.7511655999988,None,291.51332235998126,None,291.51332235998126,None,291.51332235998126,None,,,,,,,,,,,,,,108,2023-03-31_17h22.31.733,Main,2022.1.1,60.268629334927994,
neutral,neutral,1,k,k,,,,,,,,,3,13,67,1,,,,,,,,,main,2,2,1,neutral,neutral,k,k,1,0.5286935000040103,291.5177451999916,292.52994409998064,292.51333570000133,None,291.5177451999916,None,291.5177451999916,None,291.5177451999916,None,293.0444152599783,None,293.0444152599783,None,293.0444152599783,None,,,,,,,,,,,,,,108,2023-03-31_17h22.31.733,Main,2022.1.1,60.268629334927994,
positive,positive,1,l,j,,,,,,,,,3,14,68,2,,,,,,,,,main,2,2,1,positive,positive,l,l,1,0.5318393999768887,293.04830669998773,294.0631853999803,294.046609299985,None,293.04830669998773,None,293.04830669998773,None,293.04830669998773,None,294.5777138599777,None,294.5777138599777,None,294.5777138599777,None,,,,,,,,,,,,,,108,2023-03-31_17h22.31.733,Main,2022.1.1,60.268629334927994,
positive,negative,1,l,j,,,,,,,,,3,15,69,5,,,,,,,,,main,2,2,1,negative,positive,l,l,1,0.614590799988946,294.5816070000001,295.59398740000324,295.57732539999415,None,294.5816070000001,None,294.5816070000001,None,294.5816070000001,None,296.1939091599896,None,296.1939091599896,None,296.1939091599896,None,,,,,,,,,,,,,,108,2023-03-31_17h22.31.733,Main,2022.1.1,60.268629334927994,
positive,positive,2,l,j,,,,,,,,,3,16,70,11,,,,,,,,,main,1,1,2,positive,positive,l,l,1,0.601600399997551,296.19492919999175,297.1939689999854,297.1939689999854,None,296.19492919999175,None,296.19492919999175,None,296.19492919999175,None,297.7943147599988,None,297.7943147599988,None,297.7943147599988,None,,,,,,,,,,,,,,108,2023-03-31_17h22.31.733,Main,2022.1.1,60.268629334927994,
neutral,positive,1,k,k,,,,,,,,,3,17,71,4,,,,,,,,,main,2,2,1,positive,neutral,k,k,1,0.5433636999805458,297.8024813999946,298.81297800000175,298.7964923999971,None,297.8024813999946,None,297.8024813999946,None,297.8024813999946,None,299.34390865997995,None,299.34390865997995,None,299.34390865997995,None,,,,,,,,,,,,,,108,2023-03-31_17h22.31.733,Main,2022.1.1,60.268629334927994,
negative,negative,2,j,l,,,,,,,,,4,0,72,9,,,,,,,,,main,1,1,2,negative,negative,j,j,1,0.7007603999809362,299.3499697999796,300.36306149998563,300.329725699994,None,299.3499697999796,None,299.3499697999796,None,299.3499697999796,None,301.0463447600021,None,301.0463447600021,None,301.0463447600021,None,,,,,,,,,,,,,,108,2023-03-31_17h22.31.733,Main,2022.1.1,60.268629334927994,
neutral,negative,1,k,k,,,,,,,,,4,1,73,7,,,,,,,,,main,1,1,1,negative,neutral,k,k,1,0.7798669000039808,301.0492498999811,302.06291670000064,302.0463566999824,None,301.0492498999811,None,301.0492498999811,None,301.0492498999811,None,302.8274807599781,None,302.8274807599781,None,302.8274807599781,None,,,,,,,,,,,,,,108,2023-03-31_17h22.31.733,Main,2022.1.1,60.268629334927994,
positive,neutral,1,l,j,,,,,,,,,4,2,74,8,,,,,,,,,main,1,1,1,neutral,positive,l,l,1,0.706169500015676,302.83150380000006,303.84619199999725,303.82966170000145,None,302.83150380000006,None,302.83150380000006,None,302.83150380000006,None,304.5313034599938,None,304.5313034599938,None,304.5313034599938,None,,,,,,,,,,,,,,108,2023-03-31_17h22.31.733,Main,2022.1.1,60.268629334927994,
negative,neutral,2,j,l,,,,,,,,,4,3,75,12,,,,,,,,,main,1,1,2,neutral,negative,j,j,1,0.7229421999945771,304.5387168999878,305.5436768999789,305.5270210999879,None,304.5387168999878,None,304.5387168999878,None,304.5387168999878,None,306.2603024599783,None,306.2603024599783,None,306.2603024599783,None,,,,,,,,,,,,,,108,2023-03-31_17h22.31.733,Main,2022.1.1,60.268629334927994,
negative,positive,1,j,l,,,,,,,,,4,4,76,6,,,,,,,,,main,1,1,1,positive,negative,j,j,1,0.7821981000015512,306.2609967000026,307.2603626999771,307.2603626999771,None,306.2609967000026,None,306.2609967000026,None,306.2609967000026,None,308.04367895998877,None,308.04367895998877,None,308.04367895998877,None,,,,,,,,,,,,,,108,2023-03-31_17h22.31.733,Main,2022.1.1,60.268629334927994,
positive,negative,1,l,j,,,,,,,,,4,5,77,5,,,,,,,,,main,1,1,1,negative,positive,l,l,1,0.7316366000159178,308.04454809997696,309.0437135999964,309.0437135999964,None,308.04454809997696,None,308.04454809997696,None,308.04454809997696,None,309.7770347599988,None,309.7770347599988,None,309.7770347599988,None,,,,,,,,,,,,,,108,2023-03-31_17h22.31.733,Main,2022.1.1,60.268629334927994,
positive,neutral,2,l,j,,,,,,,,,4,6,78,17,,,,,,,,,main,2,2,2,neutral,positive,l,l,1,0.7649543999868911,309.78076919997693,310.7961246999912,310.7794792999921,None,309.78076919997693,None,309.78076919997693,None,309.78076919997693,None,311.54363005999477,None,311.54363005999477,None,311.54363005999477,None,,,,,,,,,,,,,,108,2023-03-31_17h22.31.733,Main,2022.1.1,60.268629334927994,
positive,positive,2,l,j,,,,,,,,,4,7,79,11,,,,,,,,,main,1,1,2,positive,positive,l,l,1,0.6677882000221871,311.54723549998016,312.562717599998,312.5461587999889,None,311.54723549998016,None,311.54723549998016,None,311.54723549998016,None,313.2127699599776,None,313.2127699599776,None,313.2127699599776,None,,,,,,,,,,,,,,108,2023-03-31_17h22.31.733,Main,2022.1.1,60.268629334927994,
negative,positive,2,j,l,,,,,,,,,4,8,80,15,,,,,,,,,main,1,1,2,positive,negative,j,j,1,0.7629085999797098,313.21712399998796,314.22933750000084,314.2127607000002,None,313.21712399998796,None,313.21712399998796,None,313.21712399998796,None,314.9781854599831,None,314.9781854599831,None,314.9781854599831,None,,,,,,,,,,,,,,108,2023-03-31_17h22.31.733,Main,2022.1.1,60.268629334927994,
neutral,positive,1,k,k,,,,,,,,,4,9,81,4,,,,,,,,,main,1,1,1,positive,neutral,k,k,1,0.5681948999990709,314.9840880999982,315.9959555999958,315.9794125999906,None,314.9840880999982,None,314.9840880999982,None,314.9840880999982,None,316.543788259977,None,316.543788259977,None,316.543788259977,None,,,,,,,,,,,,,,108,2023-03-31_17h22.31.733,Main,2022.1.1,60.268629334927994,
negative,neutral,1,j,l,,,,,,,,,4,10,82,3,,,,,,,,,main,2,2,1,neutral,negative,j,j,1,0.6761670999985654,316.55277619999833,317.5601359999855,317.5434719999903,None,316.55277619999833,None,316.55277619999833,None,316.55277619999833,None,318.2267601599859,None,318.2267601599859,None,318.2267601599859,None,,,,,,,,,,,,,,108,2023-03-31_17h22.31.733,Main,2022.1.1,60.268629334927994,
neutral,positive,2,k,k,,,,,,,,,4,11,83,13,,,,,,,,,main,1,1,2,positive,neutral,k,k,1,0.8009238999802619,318.226917699998,319.22682499999064,319.22682499999064,None,318.226917699998,None,318.226917699998,None,318.226917699998,None,320.02930465999526,None,320.02930465999526,None,320.02930465999526,None,,,,,,,,,,,,,,108,2023-03-31_17h22.31.733,Main,2022.1.1,60.268629334927994,
positive,negative,2,l,j,,,,,,,,,4,12,84,14,,,,,,,,,main,2,2,2,negative,positive,l,l,1,0.5960168000019621,320.032799699984,321.04584559999057,321.02936349998345,None,320.032799699984,None,320.032799699984,None,320.032799699984,None,321.62708695999464,None,321.62708695999464,None,321.62708695999464,None,,,,,,,,,,,,,,108,2023-03-31_17h22.31.733,Main,2022.1.1,60.268629334927994,
neutral,neutral,2,k,k,,,,,,,,,4,13,85,10,,,,,,,,,main,2,2,2,neutral,neutral,k,k,1,0.5997283000033349,321.6314608999819,322.64586799999233,322.6292291999853,None,321.6314608999819,None,321.6314608999819,None,321.6314608999819,None,323.2291372599837,None,323.2291372599837,None,323.2291372599837,None,,,,,,,,,,,,,,108,2023-03-31_17h22.31.733,Main,2022.1.1,60.268629334927994,
negative,negative,1,j,l,,,,,,,,,4,14,86,0,,,,,,,,,main,1,1,1,negative,negative,j,j,1,0.6963405999995302,323.2321398999775,324.2458636999945,324.2292824999895,None,323.2321398999775,None,323.2321398999775,None,323.2321398999775,None,324.92700455999585,None,324.92700455999585,None,324.92700455999585,None,,,,,,,,,,,,,,108,2023-03-31_17h22.31.733,Main,2022.1.1,60.268629334927994,
neutral,negative,2,k,k,,,,,,,,,4,15,87,16,,,,,,,,,main,1,1,2,negative,neutral,k,k,1,0.6147997000080068,324.9304734999896,325.9459189999907,325.9291819999926,None,324.9304734999896,None,324.9304734999896,None,324.9304734999896,None,326.54330845999067,None,326.54330845999067,None,326.54330845999067,None,,,,,,,,,,,,,,108,2023-03-31_17h22.31.733,Main,2022.1.1,60.268629334927994,
positive,positive,1,l,j,,,,,,,,,4,16,88,2,,,,,,,,,main,1,1,1,positive,positive,l,l,1,0.7485532000137027,326.5527586999815,327.5598786000046,327.54320529999677,None,326.5527586999815,None,326.5527586999815,None,326.5527586999815,None,328.2931619599811,None,328.2931619599811,None,328.2931619599811,None,,,,,,,,,,,,,,108,2023-03-31_17h22.31.733,Main,2022.1.1,60.268629334927994,
neutral,neutral,1,k,k,,,,,,,,,4,17,89,1,,,,,,,,,main,1,1,1,neutral,neutral,k,k,1,0.7641891999810468,328.30990979998023,329.30993229997694,329.29325629997766,None,328.30990979998023,None,328.30990979998023,None,328.30990979998023,None,330.06017825998134,None,330.06017825998134,None,330.06017825998134,None,,,,,,,,,,,,,,108,2023-03-31_17h22.31.733,Main,2022.1.1,60.268629334927994,
neutral,positive,1,k,k,,,,,,,,,5,0,90,4,,,,,,,,,main,1,1,1,positive,neutral,k,k,1,0.6335242000059225,330.06612619999214,331.0790206999809,331.06241660000524,None,330.06612619999214,None,330.06612619999214,None,330.06612619999214,None,331.6950735599792,None,331.6950735599792,None,331.6950735599792,None,,,,,,,,,,,,,,108,2023-03-31_17h22.31.733,Main,2022.1.1,60.268629334927994,
positive,negative,1,l,j,,,,,,,,,5,1,91,5,,,,,,,,,main,1,1,1,negative,positive,l,l,1,0.6638134999957401,331.70046079999884,332.7122911000042,332.6957307999837,None,331.70046079999884,None,331.70046079999884,None,331.70046079999884,None,333.3601588599966,None,333.3601588599966,None,333.3601588599966,None,,,,,,,,,,,,,,108,2023-03-31_17h22.31.733,Main,2022.1.1,60.268629334927994,
positive,positive,2,l,j,,,,,,,,,5,2,92,11,,,,,,,,,main,2,2,2,positive,positive,l,l,1,0.6338049999903888,333.3640775999811,334.37886759999674,334.3623661999882,None,333.3640775999811,None,333.3640775999811,None,333.3640775999811,None,334.99524256000296,None,334.99524256000296,None,334.99524256000296,None,,,,,,,,,,,,,,108,2023-03-31_17h22.31.733,Main,2022.1.1,60.268629334927994,
negative,positive,2,j,l,,,,,,,,,5,3,93,15,,,,,,,,,main,1,1,2,positive,negative,j,j,1,0.945861700020032,335.0002179000003,336.0122433999786,335.9956395000045,None,335.0002179000003,None,335.0002179000003,None,335.0002179000003,None,336.9429989599856,None,336.9429989599856,None,336.9429989599856,None,,,,,,,,,,,,,,108,2023-03-31_17h22.31.733,Main,2022.1.1,60.268629334927994,
positive,neutral,1,l,j,,,,,,,,,5,4,94,8,,,,,,,,,main,2,2,1,neutral,positive,l,l,1,0.7809290000004694,336.94459259998985,337.959669999982,337.9430577000021,None,336.94459259998985,None,336.94459259998985,None,336.94459259998985,None,338.72638735999936,None,338.72638735999936,None,338.72638735999936,None,,,,,,,,,,,,,,108,2023-03-31_17h22.31.733,Main,2022.1.1,60.268629334927994,
positive,positive,1,l,j,,,,,,,,,5,5,95,2,,,,,,,,,main,2,2,1,positive,positive,l,l,1,0.9175235999864526,338.73013719997834,339.745425000001,339.72886249999283,None,338.73013719997834,None,338.73013719997834,None,338.73013719997834,None,340.6454864599917,None,340.6454864599917,None,340.6454864599917,None,,,,,,,,,,,,,,108,2023-03-31_17h22.31.733,Main,2022.1.1,60.268629334927994,
neutral,negative,2,k,k,,,,,,,,,5,6,96,16,,,,,,,,,main,1,1,2,negative,neutral,k,k,1,0.7984396000101697,340.6497137999977,341.6621162999945,341.64541830000235,None,340.6497137999977,None,340.6497137999977,None,340.6497137999977,None,342.44540875999957,None,342.44540875999957,None,342.44540875999957,None,,,,,,,,,,,,,,108,2023-03-31_17h22.31.733,Main,2022.1.1,60.268629334927994,
negative,neutral,1,j,l,,,,,,,,,5,7,97,3,,,,,,,,,main,2,2,1,neutral,negative,j,j,1,0.6970281999965664,342.44860469998093,343.46202369997627,343.4455129999842,None,342.44860469998093,None,342.44860469998093,None,342.44860469998093,None,344.14293545997936,None,344.14293545997936,None,344.14293545997936,None,,,,,,,,,,,,,,108,2023-03-31_17h22.31.733,Main,2022.1.1,60.268629334927994,
positive,neutral,2,l,j,,,,,,,,,5,8,98,17,,,,,,,,,main,1,1,2,neutral,positive,l,l,1,0.7001307000173256,344.14742140000453,345.16203839998343,345.1454127999896,None,344.14742140000453,None,344.14742140000453,None,344.14742140000453,None,345.84536685999484,None,345.84536685999484,None,345.84536685999484,None,,,,,,,,,,,,,,108,2023-03-31_17h22.31.733,Main,2022.1.1,60.268629334927994,
negative,positive,1,j,l,,,,,,,,,5,9,99,6,,,,,,,,,main,1,1,1,positive,negative,j,j,1,0.7456123000010848,345.85012879999704,346.8598931999877,346.844276799995,None,345.85012879999704,None,345.85012879999704,None,345.85012879999704,None,347.59282795998735,None,347.59282795998735,None,347.59282795998735,None,,,,,,,,,,,,,,108,2023-03-31_17h22.31.733,Main,2022.1.1,60.268629334927994,
negative,neutral,2,j,l,,,,,,,,,5,10,100,12,,,,,,,,,main,1,1,2,neutral,negative,j,j,1,0.9308277000091039,347.59415190000436,348.60945950000314,348.5928273999889,None,347.59415190000436,None,347.59415190000436,None,347.59415190000436,None,349.5261910599773,None,349.5261910599773,None,349.5261910599773,None,,,,,,,,,,,,,,108,2023-03-31_17h22.31.733,Main,2022.1.1,60.268629334927994,
positive,negative,2,l,j,,,,,,,,,5,11,101,14,,,,,,,,,main,1,1,2,negative,positive,l,l,1,0.8843406999949366,349.5293857999786,350.52858600000036,350.51198749998,None,349.5293857999786,None,349.5293857999786,None,349.5293857999786,None,351.4118203599763,None,351.4118203599763,None,351.4118203599763,None,,,,,,,,,,,,,,108,2023-03-31_17h22.31.733,Main,2022.1.1,60.268629334927994,
neutral,neutral,1,k,k,,,,,,,,,5,12,102,1,,,,,,,,,main,1,1,1,neutral,neutral,k,k,1,0.6963221000041813,351.41506489997846,352.42865089999395,352.4119706999918,None,351.41506489997846,None,351.41506489997846,None,351.41506489997846,None,353.1097511599772,None,353.1097511599772,None,353.1097511599772,None,,,,,,,,,,,,,,108,2023-03-31_17h22.31.733,Main,2022.1.1,60.268629334927994,
negative,negative,1,j,l,,,,,,,,,5,13,103,0,,,,,,,,,main,1,1,1,negative,negative,j,j,1,0.748468599980697,353.1134698999813,354.128524300002,354.1119071999856,None,353.1134698999813,None,353.1134698999813,None,353.1134698999813,None,354.8596995599917,None,354.8596995599917,None,354.8596995599917,None,,,,,,,,,,,,,,108,2023-03-31_17h22.31.733,Main,2022.1.1,60.268629334927994,
negative,negative,2,j,l,,,,,,,,,5,14,104,9,,,,,,,,,main,2,2,2,negative,negative,j,j,1,0.8503609000181314,354.8636012999923,355.8785083999974,355.86186720000114,None,354.8636012999923,None,354.8636012999923,None,354.8636012999923,None,356.7117430599872,None,356.7117430599872,None,356.7117430599872,None,,,,,,,,,,,,,,108,2023-03-31_17h22.31.733,Main,2022.1.1,60.268629334927994,
neutral,neutral,2,k,k,,,,,,,,,5,15,105,10,,,,,,,,,main,1,1,2,neutral,neutral,k,k,1,0.5793149000091944,356.71590700000525,357.7259192999918,357.7092624999932,None,356.71590700000525,None,356.71590700000525,None,356.71590700000525,None,358.2925992600038,None,358.2925992600038,None,358.2925992600038,None,,,,,,,,,,,,,,108,2023-03-31_17h22.31.733,Main,2022.1.1,60.268629334927994,
neutral,positive,2,k,k,,,,,,,,,5,16,106,13,,,,,,,,,main,1,1,2,positive,neutral,k,k,1,0.614800200011814,358.29280019999715,359.292604199989,359.292604199989,None,358.29280019999715,None,358.29280019999715,None,358.29280019999715,None,359.9092389599944,None,359.9092389599944,None,359.9092389599944,None,,,,,,,,,,,,,,108,2023-03-31_17h22.31.733,Main,2022.1.1,60.268629334927994,
neutral,negative,1,k,k,,,,,,,,,5,17,107,7,,,,,,,,,main,1,1,1,negative,neutral,k,k,1,0.5823674999992363,359.9121445999772,360.91161839998676,360.89505709998775,None,359.9121445999772,None,359.9121445999772,None,359.9121445999772,None,361.4928769599763,None,361.4928769599763,None,361.4928769599763,None,,,,,,,,,,,,,,108,2023-03-31_17h22.31.733,Main,2022.1.1,60.268629334927994,
positive,neutral,1,l,j,,,,,,,,,6,0,108,8,,,,,,,,,main,2,2,1,neutral,positive,l,l,1,0.6674526999995578,361.4964926999819,362.51159489998827,362.4951041000022,None,361.4964926999819,None,361.4964926999819,None,361.4964926999819,None,363.1618220599892,None,363.1618220599892,None,363.1618220599892,None,,,,,,,,,,,,,,108,2023-03-31_17h22.31.733,Main,2022.1.1,60.268629334927994,
positive,positive,2,l,j,,,,,,,,,6,1,109,11,,,,,,,,,main,1,1,2,positive,positive,l,l,1,0.6806496999925002,363.1661056999874,364.1782897999801,364.1616213999805,None,363.1661056999874,None,363.1661056999874,None,363.1661056999874,None,364.8449160599965,None,364.8449160599965,None,364.8449160599965,None,,,,,,,,,,,,,,108,2023-03-31_17h22.31.733,Main,2022.1.1,60.268629334927994,
neutral,negative,1,k,k,,,,,,,,,6,2,110,7,,,,,,,,,main,1,1,1,negative,neutral,k,k,1,0.5963034000014886,364.84788279997883,365.8633751999878,365.844992600003,None,364.84788279997883,None,364.84788279997883,None,364.84788279997883,None,366.4427813599876,None,366.4427813599876,None,366.4427813599876,None,,,,,,,,,,,,,,108,2023-03-31_17h22.31.733,Main,2022.1.1,60.268629334927994,
neutral,positive,2,k,k,,,,,,,,,6,3,111,13,,,,,,,,,main,1,1,2,positive,neutral,k,k,1,0.6179960000154097,366.44619149999926,367.4590811999806,367.4423295999877,None,366.44619149999926,None,366.44619149999926,None,366.44619149999926,None,368.059332059999,None,368.059332059999,None,368.059332059999,None,,,,,,,,,,,,,,108,2023-03-31_17h22.31.733,Main,2022.1.1,60.268629334927994,
negative,positive,2,j,l,,,,,,,,,6,4,112,15,,,,,,,,,main,2,2,2,positive,negative,j,j,1,0.7457137999881525,368.0633009999874,369.0757276999939,369.0592868999811,None,368.0633009999874,None,368.0633009999874,None,368.0633009999874,None,369.80940305998666,None,369.80940305998666,None,369.80940305998666,None,,,,,,,,,,,,,,108,2023-03-31_17h22.31.733,Main,2022.1.1,60.268629334927994,
negative,neutral,2,j,l,,,,,,,,,6,5,113,12,,,,,,,,,main,1,1,2,neutral,negative,j,j,1,0.5996596000040881,369.8136957999959,370.82814529997995,370.81151889998,None,369.8136957999959,None,369.8136957999959,None,369.8136957999959,None,371.411427559983,None,371.411427559983,None,371.411427559983,None,,,,,,,,,,,,,,108,2023-03-31_17h22.31.733,Main,2022.1.1,60.268629334927994,
neutral,neutral,1,k,k,,,,,,,,,6,6,114,1,,,,,,,,,main,1,1,1,neutral,neutral,k,k,1,0.6465247999876738,371.4146411999827,372.4281919999921,372.41156670000055,None,371.4146411999827,None,371.4146411999827,None,371.4146411999827,None,373.05932185997955,None,373.05932185997955,None,373.05932185997955,None,,,,,,,,,,,,,,108,2023-03-31_17h22.31.733,Main,2022.1.1,60.268629334927994,
positive,positive,1,l,j,,,,,,,,,6,7,115,2,,,,,,,,,main,2,2,1,positive,positive,l,l,1,0.7492015000025276,373.0653039999888,374.07805009998265,374.0615670999978,None,373.0653039999888,None,373.0653039999888,None,373.0653039999888,None,374.81026385999286,None,374.81026385999286,None,374.81026385999286,None,,,,,,,,,,,,,,108,2023-03-31_17h22.31.733,Main,2022.1.1,60.268629334927994,
negative,negative,1,j,l,,,,,,,,,6,8,116,0,,,,,,,,,main,1,1,1,negative,negative,j,j,1,0.7496190999809187,374.8161950999929,375.82799829999567,375.81150429998524,None,374.8161950999929,None,374.8161950999929,None,374.8161950999929,None,376.5613472599769,None,376.5613472599769,None,376.5613472599769,None,,,,,,,,,,,,,,108,2023-03-31_17h22.31.733,Main,2022.1.1,60.268629334927994,
neutral,negative,2,k,k,,,,,,,,,6,9,117,16,,,,,,,,,main,2,2,2,negative,neutral,k,k,1,0.5459865999873728,376.56456450000405,377.5755350999825,377.5589903999935,None,376.56456450000405,None,376.56456450000405,None,376.56456450000405,None,378.1088305599813,None,378.1088305599813,None,378.1088305599813,None,,,,,,,,,,,,,,108,2023-03-31_17h22.31.733,Main,2022.1.1,60.268629334927994,
positive,negative,1,l,j,,,,,,,,,6,10,118,5,,,,,,,,,main,2,2,1,negative,positive,l,l,1,0.9150226000056136,378.10898160000215,379.10892109997803,379.10892109997803,None,378.10898160000215,None,378.10898160000215,None,378.10898160000215,None,380.0255351599888,None,380.0255351599888,None,380.0255351599888,None,,,,,,,,,,,,,,108,2023-03-31_17h22.31.733,Main,2022.1.1,60.268629334927994,
negative,neutral,1,j,l,,,,,,,,,6,11,119,3,,,,,,,,,main,1,1,1,neutral,negative,j,j,1,0.6986661000119057,380.03172489997814,381.04466329998104,381.02806929999497,None,380.03172489997814,None,380.03172489997814,None,380.03172489997814,None,381.72545235998115,None,381.72545235998115,None,381.72545235998115,None,,,,,,,,,,,,,,108,2023-03-31_17h22.31.733,Main,2022.1.1,60.268629334927994,
negative,positive,1,j,l,,,,,,,,,6,12,120,6,,,,,,,,,main,1,1,1,positive,negative,j,j,1,0.715335100016091,381.72943419998046,382.7445314999786,382.72557899999083,None,381.72943419998046,None,381.72943419998046,None,381.72943419998046,None,383.4424218599859,None,383.4424218599859,None,383.4424218599859,None,,,,,,,,,,,,,,108,2023-03-31_17h22.31.733,Main,2022.1.1,60.268629334927994,
positive,neutral,2,l,j,,,,,,,,,6,13,121,17,,,,,,,,,main,2,2,2,neutral,positive,l,l,1,0.730811299989,383.44731930000125,384.4612274999963,384.4446568999847,None,383.44731930000125,None,383.44731930000125,None,383.44731930000125,None,385.1754298599961,None,385.1754298599961,None,385.1754298599961,None,,,,,,,,,,,,,,108,2023-03-31_17h22.31.733,Main,2022.1.1,60.268629334927994,
negative,negative,2,j,l,,,,,,,,,6,14,122,9,,,,,,,,,main,2,2,2,negative,negative,j,j,1,0.832373400015058,385.1815762000042,386.1946407999785,386.17789589997847,None,385.1815762000042,None,385.1815762000042,None,385.1815762000042,None,387.00900606000215,None,387.00900606000215,None,387.00900606000215,None,,,,,,,,,,,,,,108,2023-03-31_17h22.31.733,Main,2022.1.1,60.268629334927994,
neutral,neutral,2,k,k,,,,,,,,,6,15,123,10,,,,,,,,,main,2,2,2,neutral,neutral,k,k,1,0.5643099999870174,387.01503859998775,388.02529739998863,388.0086274999776,None,387.01503859998775,None,387.01503859998775,None,387.01503859998775,None,388.5752664599975,None,388.5752664599975,None,388.5752664599975,None,,,,,,,,,,,,,,108,2023-03-31_17h22.31.733,Main,2022.1.1,60.268629334927994,
positive,negative,2,l,j,,,,,,,,,6,16,124,14,,,,,,,,,main,1,1,2,negative,positive,l,l,1,0.7689255000150297,388.5919647999981,389.5921310999838,389.575337199989,None,388.5919647999981,None,388.5919647999981,None,388.5919647999981,None,390.34440565998085,None,390.34440565998085,None,390.34440565998085,None,,,,,,,,,,,,,,108,2023-03-31_17h22.31.733,Main,2022.1.1,60.268629334927994,
neutral,positive,1,k,k,,,,,,,,,6,17,125,4,,,,,,,,,main,2,2,1,positive,neutral,k,k,1,0.5642064000130631,390.3493041000038,391.3610832999984,391.34441869999864,None,390.3493041000038,None,390.3493041000038,None,390.3493041000038,None,391.9111520599807,None,391.9111520599807,None,391.9111520599807,None,,,,,,,,,,,,,,108,2023-03-31_17h22.31.733,Main,2022.1.1,60.268629334927994,
neutral,neutral,1,k,k,,,,,,,,,7,0,126,1,,,,,,,,,main,2,2,1,neutral,neutral,k,k,1,0.681684299983317,391.91509369999403,392.9276414999913,392.9110477999784,None,391.91509369999403,None,391.91509369999403,None,391.91509369999403,None,393.5944593599823,None,393.5944593599823,None,393.5944593599823,None,,,,,,,,,,,,,,108,2023-03-31_17h22.31.733,Main,2022.1.1,60.268629334927994,
neutral,positive,1,k,k,,,,,,,,,7,1,127,4,,,,,,,,,main,2,2,1,positive,neutral,k,k,1,0.5463168999995105,393.5979545000009,394.6088641999813,394.5944159999781,None,393.5979545000009,None,393.5979545000009,None,393.5979545000009,None,395.1421516599774,None,395.1421516599774,None,395.1421516599774,None,,,,,,,,,,,,,,108,2023-03-31_17h22.31.733,Main,2022.1.1,60.268629334927994,
negative,neutral,1,j,l,,,,,,,,,7,2,128,3,,,,,,,,,main,2,2,1,neutral,negative,j,j,1,0.714952699985588,395.14692609998747,396.1609215999779,396.14430839999113,None,395.14692609998747,None,395.14692609998747,None,395.14692609998747,None,396.85879215997994,None,396.85879215997994,None,396.85879215997994,None,,,,,,,,,,,,,,108,2023-03-31_17h22.31.733,Main,2022.1.1,60.268629334927994,
positive,negative,2,l,j,,,,,,,,,7,3,129,14,,,,,,,,,main,2,2,2,negative,positive,l,l,1,0.6817141000065021,396.8624602999771,397.8750374999945,397.8416687999852,None,396.8624602999771,None,396.8624602999771,None,396.8624602999771,None,398.5417151599948,None,398.5417151599948,None,398.5417151599948,None,,,,,,,,,,,,,,108,2023-03-31_17h22.31.733,Main,2022.1.1,60.268629334927994,
positive,neutral,1,l,j,,,,,,,,,7,4,130,8,,,,,,,,,main,2,2,1,neutral,positive,l,l,1,0.7484342999814544,398.54212259998894,399.5417102999927,399.5417102999927,None,398.54212259998894,None,398.54212259998894,None,398.54212259998894,None,400.2917363599816,None,400.2917363599816,None,400.2917363599816,None,,,,,,,,,,,,,,108,2023-03-31_17h22.31.733,Main,2022.1.1,60.268629334927994,
neutral,negative,1,k,k,,,,,,,,,7,5,131,7,,,,,,,,,main,1,1,1,negative,neutral,k,k,1,0.617163500020979,400.2956484000024,401.29413110000314,401.29413110000314,None,400.2956484000024,None,400.2956484000024,None,400.2956484000024,None,401.9107380600006,None,401.9107380600006,None,401.9107380600006,None,,,,,,,,,,,,,,108,2023-03-31_17h22.31.733,Main,2022.1.1,60.268629334927994,
positive,positive,2,l,j,,,,,,,,,7,6,132,11,,,,,,,,,main,2,2,2,positive,positive,l,l,1,0.7642706999904476,401.91670729999896,402.92740149999736,402.9108527999779,None,401.91670729999896,None,401.91670729999896,None,401.91670729999896,None,403.6756412600051,None,403.6756412600051,None,403.6756412600051,None,,,,,,,,,,,,,,108,2023-03-31_17h22.31.733,Main,2022.1.1,60.268629334927994,
positive,positive,1,l,j,,,,,,,,,7,7,133,2,,,,,,,,,main,1,1,1,positive,positive,l,l,1,0.5968135000148322,403.6820454999979,404.6939773999911,404.67738759997883,None,403.6820454999979,None,403.6820454999979,None,403.6820454999979,None,405.27525505998057,None,405.27525505998057,None,405.27525505998057,None,,,,,,,,,,,,,,108,2023-03-31_17h22.31.733,Main,2022.1.1,60.268629334927994,
negative,neutral,2,j,l,,,,,,,,,7,8,134,12,,,,,,,,,main,2,2,2,neutral,negative,j,j,1,0.6816007000161335,405.27906829997664,406.294026699994,406.2773411999806,None,405.27906829997664,None,405.27906829997664,None,405.27906829997664,None,406.95853135997896,None,406.95853135997896,None,406.95853135997896,None,,,,,,,,,,,,,,108,2023-03-31_17h22.31.733,Main,2022.1.1,60.268629334927994,
neutral,negative,2,k,k,,,,,,,,,7,9,135,16,,,,,,,,,main,2,2,2,negative,neutral,k,k,1,0.5977255999750923,406.9624373999832,407.97433810000075,407.9573673999985,None,406.9624373999832,None,406.9624373999832,None,406.9624373999832,None,408.55809235998896,None,408.55809235998896,None,408.55809235998896,None,,,,,,,,,,,,,,108,2023-03-31_17h22.31.733,Main,2022.1.1,60.268629334927994,
negative,positive,1,j,l,,,,,,,,,7,10,136,6,,,,,,,,,main,1,1,1,positive,negative,j,j,1,0.7320061000064015,408.55860140000004,409.5581109999912,409.5581109999912,None,408.55860140000004,None,408.55860140000004,None,408.55860140000004,None,410.2914413599763,None,410.2914413599763,None,410.2914413599763,None,,,,,,,,,,,,,,108,2023-03-31_17h22.31.733,Main,2022.1.1,60.268629334927994,
positive,negative,1,l,j,,,,,,,,,7,11,137,5,,,,,,,,,main,1,1,1,negative,positive,l,l,1,0.6989861000038218,410.30812709999736,411.30815409999923,411.291490899981,None,410.30812709999736,None,410.30812709999736,None,410.30812709999736,None,411.99147215998966,None,411.99147215998966,None,411.99147215998966,None,,,,,,,,,,,,,,108,2023-03-31_17h22.31.733,Main,2022.1.1,60.268629334927994,
positive,neutral,2,l,j,,,,,,,,,7,12,138,17,,,,,,,,,main,2,2,2,neutral,positive,l,l,1,0.6480284999997821,411.9957126999798,413.0105774999829,412.99398219998693,None,411.9957126999798,None,411.9957126999798,None,411.9957126999798,None,413.6414181599801,None,413.6414181599801,None,413.6414181599801,None,,,,,,,,,,,,,,108,2023-03-31_17h22.31.733,Main,2022.1.1,60.268629334927994,
neutral,positive,2,k,k,,,,,,,,,7,13,139,13,,,,,,,,,main,1,1,2,positive,neutral,k,k,1,0.5484999000036623,413.6478856999893,414.66061979997903,414.6439218999876,None,413.6478856999893,None,413.6478856999893,None,413.6478856999893,None,415.19139105999494,None,415.19139105999494,None,415.19139105999494,None,,,,,,,,,,,,,,108,2023-03-31_17h22.31.733,Main,2022.1.1,60.268629334927994,
negative,negative,2,j,l,,,,,,,,,7,14,140,9,,,,,,,,,main,1,1,2,negative,negative,j,j,1,0.6985065000189934,415.1952529999835,416.21058939999784,416.1939080999873,None,415.1952529999835,None,415.1952529999835,None,415.1952529999835,None,416.8916882599995,None,416.8916882599995,None,416.8916882599995,None,,,,,,,,,,,,,,108,2023-03-31_17h22.31.733,Main,2022.1.1,60.268629334927994,
negative,positive,2,j,l,,,,,,,,,7,15,141,15,,,,,,,,,main,1,1,2,positive,negative,j,j,1,0.6173765000130516,416.9104744999786,417.9105546999781,417.8938222999859,None,416.9104744999786,None,416.9104744999786,None,416.9104744999786,None,418.510458460002,None,418.510458460002,None,418.510458460002,None,,,,,,,,,,,,,,108,2023-03-31_17h22.31.733,Main,2022.1.1,60.268629334927994,
negative,negative,1,j,l,,,,,,,,,7,16,142,0,,,,,,,,,main,2,2,1,negative,negative,j,j,1,0.6903866000066046,418.5139399000036,419.5270409999939,419.51045959998737,None,418.5139399000036,None,418.5139399000036,None,418.5139399000036,None,420.2023443599872,None,420.2023443599872,None,420.2023443599872,None,,,,,,,,,,,,,,108,2023-03-31_17h22.31.733,Main,2022.1.1,60.268629334927994,
neutral,neutral,2,k,k,,,,,,,,,7,17,143,10,,,,,,,,,main,2,2,2,neutral,neutral,k,k,1,0.5540281000139657,420.20277069997974,421.2078987999994,421.1912147999974,None,420.20277069997974,None,420.20277069997974,None,420.20277069997974,None,421.7578458599863,None,421.7578458599863,None,421.7578458599863,None,,,,,,,,,,,,,,108,2023-03-31_17h22.31.733,Main,2022.1.1,60.268629334927994,
neutral,neutral,2,k,k,,,,,,,,,8,0,144,10,,,,,,,,,main,2,2,2,neutral,neutral,k,k,1,0.9815471000038087,421.75833399998373,422.7578766999941,422.7578766999941,None,421.75833399998373,None,421.75833399998373,None,421.75833399998373,None,423.74117675998133,None,423.74117675998133,None,423.74117675998133,None,,,,,,,,,,,,,,108,2023-03-31_17h22.31.733,Main,2022.1.1,60.268629334927994,
positive,neutral,1,l,j,,,,,,,,,8,1,145,8,,,,,,,,,main,2,2,1,neutral,positive,l,l,1,0.6846710999961942,423.74485689998255,424.7603383999958,424.7437169000041,None,423.74485689998255,None,423.74485689998255,None,423.74485689998255,None,425.4271074599936,None,425.4271074599936,None,425.4271074599936,None,,,,,,,,,,,,,,108,2023-03-31_17h22.31.733,Main,2022.1.1,60.268629334927994,
negative,neutral,2,j,l,,,,,,,,,8,2,146,12,,,,,,,,,main,2,2,2,neutral,negative,j,j,1,0.7646441999822855,425.4307324999827,426.4436359999818,426.427031899977,None,425.4307324999827,None,425.4307324999827,None,425.4307324999827,None,427.19354645999266,None,427.19354645999266,None,427.19354645999266,None,,,,,,,,,,,,,,108,2023-03-31_17h22.31.733,Main,2022.1.1,60.268629334927994,
neutral,positive,1,k,k,,,,,,,,,8,3,147,4,,,,,,,,,main,1,1,1,positive,neutral,k,k,1,0.5627531000063755,427.1969004999846,428.2103866999969,428.1936369999894,None,427.1969004999846,None,427.1969004999846,None,427.1969004999846,None,428.7577515599958,None,428.7577515599958,None,428.7577515599958,None,,,,,,,,,,,,,,108,2023-03-31_17h22.31.733,Main,2022.1.1,60.268629334927994,
positive,negative,1,l,j,,,,,,,,,8,4,148,5,,,,,,,,,main,1,1,1,negative,positive,l,l,1,0.751012399996398,428.76213699998334,429.776801400003,429.75808820000384,None,428.76213699998334,None,428.76213699998334,None,428.76213699998334,None,430.510127259983,None,430.510127259983,None,430.510127259983,None,,,,,,,,,,,,,,108,2023-03-31_17h22.31.733,Main,2022.1.1,60.268629334927994,
negative,negative,1,j,l,,,,,,,,,8,5,149,0,,,,,,,,,main,1,1,1,negative,negative,j,j,1,0.678445700003067,430.51451859998633,431.53720160000375,431.5146053999779,None,430.51451859998633,None,430.51451859998633,None,430.51451859998633,None,432.19096105998034,None,432.19096105998034,None,432.19096105998034,None,,,,,,,,,,,,,,108,2023-03-31_17h22.31.733,Main,2022.1.1,60.268629334927994,
neutral,positive,2,k,k,,,,,,,,,8,6,150,13,,,,,,,,,main,1,1,2,positive,neutral,k,k,1,0.9677491000038572,432.2076425999985,433.20761509999284,433.19095519999973,None,432.2076425999985,None,432.2076425999985,None,432.2076425999985,None,434.1603235599876,None,434.1603235599876,None,434.1603235599876,None,,,,,,,,,,,,,,108,2023-03-31_17h22.31.733,Main,2022.1.1,60.268629334927994,
positive,positive,2,l,j,,,,,,,,,8,7,151,11,,,,,,,,,main,1,1,2,positive,positive,l,l,1,0.5461384000082035,434.16362149998895,435.17675879999297,435.16007179999724,None,434.16362149998895,None,434.16362149998895,None,434.16362149998895,None,435.70774645999774,None,435.70774645999774,None,435.70774645999774,None,,,,,,,,,,,,,,108,2023-03-31_17h22.31.733,Main,2022.1.1,60.268629334927994,
positive,neutral,2,l,j,,,,,,,,,8,8,152,17,,,,,,,,,main,2,2,2,neutral,positive,l,l,1,0.680840699991677,435.7146159999829,436.7267093999835,436.7100601999846,None,435.7146159999829,None,435.7146159999829,None,435.7146159999829,None,437.3912468599854,None,437.3912468599854,None,437.3912468599854,None,,,,,,,,,,,,,,108,2023-03-31_17h22.31.733,Main,2022.1.1,60.268629334927994,
neutral,negative,2,k,k,,,,,,,,,8,9,153,16,,,,,,,,,main,1,1,2,negative,neutral,k,k,1,0.5321417000086512,437.39526930000284,438.4100630999892,438.3934021999885,None,437.39526930000284,None,437.39526930000284,None,437.39526930000284,None,438.9242393599823,None,438.9242393599823,None,438.9242393599823,None,,,,,,,,,,,,,,108,2023-03-31_17h22.31.733,Main,2022.1.1,60.268629334927994,
neutral,negative,1,k,k,,,,,,,,,8,10,154,7,,,,,,,,,main,2,2,1,negative,neutral,k,k,1,0.6333217000064906,438.93126479999046,439.9433629999985,439.92673809998087,None,438.93126479999046,None,438.93126479999046,None,438.93126479999046,None,440.55991305999925,None,440.55991305999925,None,440.55991305999925,None,,,,,,,,,,,,,,108,2023-03-31_17h22.31.733,Main,2022.1.1,60.268629334927994,
negative,negative,2,j,l,,,,,,,,,8,11,155,9,,,,,,,,,main,2,2,2,negative,negative,j,,0,0.9650238000031095,440.56319329998223,441.5765073999937,441.5598607999855,None,440.56319329998223,None,440.56319329998223,None,440.56319329998223,None,442.52410229999805,None,442.52410229999805,None,442.52410229999805,None,,,,,,,,,,,,,,108,2023-03-31_17h22.31.733,Main,2022.1.1,60.268629334927994,
negative,positive,2,j,l,,,,,,,,,8,12,156,15,,,,,,,,,main,2,2,2,positive,negative,j,j,1,0.9062789999879897,443.52406989998417,444.52411339999526,444.5074463999772,None,443.52406989998417,None,443.52406989998417,None,443.52406989998417,None,445.426694459992,None,445.426694459992,None,445.426694459992,None,,,,,,,,,,,,,,108,2023-03-31_17h22.31.733,Main,2022.1.1,60.268629334927994,
neutral,neutral,1,k,k,,,,,,,,,8,13,157,1,,,,,,,,,main,1,1,1,neutral,neutral,k,k,1,0.712439800001448,445.4303383999795,446.44329460000154,446.42404789998545,None,445.4303383999795,None,445.4303383999795,None,445.4303383999795,None,447.1410539600009,None,447.1410539600009,None,447.1410539600009,None,,,,,,,,,,,,,,108,2023-03-31_17h22.31.733,Main,2022.1.1,60.268629334927994,
negative,neutral,1,j,l,,,,,,,,,8,14,158,3,,,,,,,,,main,2,2,1,neutral,negative,j,j,1,0.7483547999872826,447.14513699998497,448.15985060000094,448.14319319999777,None,447.14513699998497,None,447.14513699998497,None,447.14513699998497,None,448.8909796599881,None,448.8909796599881,None,448.8909796599881,None,,,,,,,,,,,,,,108,2023-03-31_17h22.31.733,Main,2022.1.1,60.268629334927994,
positive,negative,2,l,j,,,,,,,,,8,15,159,14,,,,,,,,,main,2,2,2,negative,positive,l,l,1,0.7816927999956533,448.8947956999764,449.90975920000346,449.89318549999734,None,448.8947956999764,None,448.8947956999764,None,448.8947956999764,None,450.67424725998427,None,450.67424725998427,None,450.67424725998427,None,,,,,,,,,,,,,,108,2023-03-31_17h22.31.733,Main,2022.1.1,60.268629334927994,
positive,positive,1,l,j,,,,,,,,,8,16,160,2,,,,,,,,,main,1,1,1,positive,positive,l,l,1,0.7648964999825694,450.6779338000051,451.69312429998536,451.67650010000216,None,450.6779338000051,None,450.6779338000051,None,450.6779338000051,None,452.44047615998426,None,452.44047615998426,None,452.44047615998426,None,,,,,,,,,,,,,,108,2023-03-31_17h22.31.733,Main,2022.1.1,60.268629334927994,
negative,positive,1,j,l,,,,,,,,,8,17,161,6,,,,,,,,,main,1,1,1,positive,negative,j,j,1,0.6857989999989513,452.44100409999373,453.44052079998073,453.44052079998073,None,452.44100409999373,None,452.44100409999373,None,452.44100409999373,None,454.12411525998033,None,454.12411525998033,None,454.12411525998033,None,,,,,,,,,,,,,,108,2023-03-31_17h22.31.733,Main,2022.1.1,60.268629334927994,
neutral,negative,2,k,k,,,,,,,,,9,0,162,16,,,,,,,,,main,2,2,2,negative,neutral,k,k,1,0.6293783999863081,454.1321568999847,455.1431128999975,455.1263866999943,None,454.1321568999847,None,454.1321568999847,None,454.1321568999847,None,455.75976545999293,None,455.75976545999293,None,455.75976545999293,None,,,,,,,,,,,,,,108,2023-03-31_17h22.31.733,Main,2022.1.1,60.268629334927994,
positive,neutral,1,l,j,,,,,,,,,9,1,163,8,,,,,,,,,main,1,1,1,neutral,positive,l,l,1,0.7286170999868773,455.7644017999992,456.7762710999814,456.75963689998025,None,455.7644017999992,None,455.7644017999992,None,455.7644017999992,None,457.4907827599789,None,457.4907827599789,None,457.4907827599789,None,,,,,,,,,,,,,,108,2023-03-31_17h22.31.733,Main,2022.1.1,60.268629334927994,
negative,negative,2,j,l,,,,,,,,,9,2,164,9,,,,,,,,,main,2,2,2,negative,negative,j,j,1,0.7963203000253998,457.49624109998695,458.50956889998633,458.4930458999879,None,457.49624109998695,None,457.49624109998695,None,457.49624109998695,None,459.2906877600006,None,459.2906877600006,None,459.2906877600006,None,,,,,,,,,,,,,,108,2023-03-31_17h22.31.733,Main,2022.1.1,60.268629334927994,
negative,neutral,1,j,l,,,,,,,,,9,3,165,3,,,,,,,,,main,1,1,1,neutral,negative,j,j,1,0.76525299999048,459.29427569999825,460.30958790000295,460.2928733000008,None,459.29427569999825,None,459.29427569999825,None,459.29427569999825,None,461.0573655599845,None,461.0573655599845,None,461.0573655599845,None,,,,,,,,,,,,,,108,2023-03-31_17h22.31.733,Main,2022.1.1,60.268629334927994,
neutral,negative,1,k,k,,,,,,,,,9,4,166,7,,,,,,,,,main,2,2,1,negative,neutral,k,k,1,0.5480364999966696,461.06340899999486,462.0740171999787,462.05778410000494,None,461.06340899999486,None,461.06340899999486,None,461.06340899999486,None,462.6069661599875,None,462.6069661599875,None,462.6069661599875,None,,,,,,,,,,,,,,108,2023-03-31_17h22.31.733,Main,2022.1.1,60.268629334927994,
positive,neutral,2,l,j,,,,,,,,,9,5,167,17,,,,,,,,,main,2,2,2,neutral,positive,l,l,1,0.6319092999910936,462.60710169997765,463.6069630999991,463.6069630999991,None,462.60710169997765,None,462.60710169997765,None,462.60710169997765,None,464.24027635999374,None,464.24027635999374,None,464.24027635999374,None,,,,,,,,,,,,,,108,2023-03-31_17h22.31.733,Main,2022.1.1,60.268629334927994,
negative,negative,1,j,l,,,,,,,,,9,6,168,0,,,,,,,,,main,1,1,1,negative,negative,j,j,1,0.6986112999729812,464.241114000004,465.24029789998895,465.24029789998895,None,464.241114000004,None,464.241114000004,None,464.241114000004,None,465.94029476,None,465.94029476,None,465.94029476,None,,,,,,,,,,,,,,108,2023-03-31_17h22.31.733,Main,2022.1.1,60.268629334927994,
negative,positive,1,j,l,,,,,,,,,9,7,169,6,,,,,,,,,main,1,1,1,positive,negative,j,j,1,0.681220200000098,465.94809209997766,466.9594766999944,466.94279129998176,None,465.94809209997766,None,465.94809209997766,None,465.94809209997766,None,467.6239101599902,None,467.6239101599902,None,467.6239101599902,None,,,,,,,,,,,,,,108,2023-03-31_17h22.31.733,Main,2022.1.1,60.268629334927994,
positive,negative,2,l,j,,,,,,,,,9,8,170,14,,,,,,,,,main,1,1,2,negative,positive,l,l,1,0.8655881999875419,467.62803779999376,468.6426039999933,468.6261846999987,None,467.62803779999376,None,467.62803779999376,None,467.62803779999376,None,469.49060875999277,None,469.49060875999277,None,469.49060875999277,None,,,,,,,,,,,,,,108,2023-03-31_17h22.31.733,Main,2022.1.1,60.268629334927994,
neutral,neutral,1,k,k,,,,,,,,,9,9,171,1,,,,,,,,,main,1,1,1,neutral,neutral,k,k,1,0.5502481000148691,469.4944593999826,470.50947209997685,470.49269990000175,None,469.4944593999826,None,469.4944593999826,None,469.4944593999826,None,471.0427145599795,None,471.0427145599795,None,471.0427145599795,None,,,,,,,,,,,,,,108,2023-03-31_17h22.31.733,Main,2022.1.1,60.268629334927994,
neutral,positive,2,k,k,,,,,,,,,9,10,172,13,,,,,,,,,main,2,2,2,positive,neutral,k,k,1,0.6649488999973983,471.04600059997756,472.05934320000233,472.0427229999914,None,471.04600059997756,None,471.04600059997756,None,471.04600059997756,None,472.709124459984,None,472.709124459984,None,472.709124459984,None,,,,,,,,,,,,,,108,2023-03-31_17h22.31.733,Main,2022.1.1,60.268629334927994,
positive,positive,1,l,j,,,,,,,,,9,11,173,2,,,,,,,,,main,2,2,1,positive,positive,l,l,1,0.5482406999799423,472.7127436999872,473.72596009998233,473.70930950000184,None,472.7127436999872,None,472.7127436999872,None,472.7127436999872,None,474.2591124599974,None,474.2591124599974,None,474.2591124599974,None,,,,,,,,,,,,,,108,2023-03-31_17h22.31.733,Main,2022.1.1,60.268629334927994,
negative,positive,2,j,l,,,,,,,,,9,12,174,15,,,,,,,,,main,1,1,2,positive,negative,j,j,1,1.29918319999706,474.262075799983,475.2733756999951,475.25690290000057,None,474.262075799983,None,474.262075799983,None,474.262075799983,None,476.55678945999244,None,476.55678945999244,None,476.55678945999244,None,,,,,,,,,,,,,,108,2023-03-31_17h22.31.733,Main,2022.1.1,60.268629334927994,
negative,neutral,2,j,l,,,,,,,,,9,13,175,12,,,,,,,,,main,1,1,2,neutral,negative,j,j,1,0.7622369999880902,476.5603005999874,477.573358499998,477.5566930999921,None,476.5603005999874,None,476.5603005999874,None,476.5603005999874,None,478.32335545999814,None,478.32335545999814,None,478.32335545999814,None,,,,,,,,,,,,,,108,2023-03-31_17h22.31.733,Main,2022.1.1,60.268629334927994,
positive,negative,1,l,j,,,,,,,,,9,14,176,5,,,,,,,,,main,1,1,1,negative,positive,l,l,1,0.7840377000102308,478.3272965999786,479.3426050999842,479.32596729998477,None,478.3272965999786,None,478.3272965999786,None,478.3272965999786,None,480.1090540599951,None,480.1090540599951,None,480.1090540599951,None,,,,,,,,,,,,,,108,2023-03-31_17h22.31.733,Main,2022.1.1,60.268629334927994,
positive,positive,2,l,j,,,,,,,,,9,15,177,11,,,,,,,,,main,2,2,2,positive,positive,l,l,1,0.7132050000072923,480.11250749998726,481.1257106999983,481.1091066999943,None,480.11250749998726,None,480.11250749998726,None,480.11250749998726,None,481.8235969600035,None,481.8235969600035,None,481.8235969600035,None,,,,,,,,,,,,,,108,2023-03-31_17h22.31.733,Main,2022.1.1,60.268629334927994,
neutral,positive,1,k,k,,,,,,,,,9,16,178,4,,,,,,,,,main,1,1,1,positive,neutral,k,k,1,0.7669938000035472,481.82746929998393,482.8424516999803,482.8258427999972,None,481.82746929998393,None,481.82746929998393,None,481.82746929998393,None,483.5921680599975,None,483.5921680599975,None,483.5921680599975,None,,,,,,,,,,,,,,108,2023-03-31_17h22.31.733,Main,2022.1.1,60.268629334927994,
neutral,neutral,2,k,k,,,,,,,,,9,17,179,10,,,,,,,,,main,1,1,2,neutral,neutral,k,k,1,0.7320138000068255,483.5968339999963,484.6091152000008,484.592436499981,None,483.5968339999963,None,483.5968339999963,None,483.5968339999963,None,485.3257601600024,None,485.3257601600024,None,485.3257601600024,None,,,,,,,,,,,,,,108,2023-03-31_17h22.31.733,Main,2022.1.1,60.268629334927994,
neutral,positive,2,k,k,,,,,,,,,10,0,180,13,,,,,,,,,main,1,1,2,positive,neutral,k,k,1,0.6301148999773432,485.33240210000076,486.34243709998555,486.3257682999829,None,485.33240210000076,None,485.33240210000076,None,485.33240210000076,None,486.9564329599787,None,486.9564329599787,None,486.9564329599787,None,,,,,,,,,,,,,,108,2023-03-31_17h22.31.733,Main,2022.1.1,60.268629334927994,
positive,negative,1,l,j,,,,,,,,,10,1,181,5,,,,,,,,,main,2,2,1,negative,positive,l,l,1,0.8974491999833845,486.95786709999084,487.9730939999863,487.95658509997884,None,486.95786709999084,None,486.95786709999084,None,486.95786709999084,None,488.85641135998304,None,488.85641135998304,None,488.85641135998304,None,,,,,,,,,,,,,,108,2023-03-31_17h22.31.733,Main,2022.1.1,60.268629334927994,
negative,neutral,2,j,l,,,,,,,,,10,2,182,12,,,,,,,,,main,1,1,2,neutral,negative,j,j,1,0.7650638000050094,488.85717410000507,489.85642689999077,489.85642689999077,None,488.85717410000507,None,488.85717410000507,None,488.85717410000507,None,490.623063060001,None,490.623063060001,None,490.623063060001,None,,,,,,,,,,,,,,108,2023-03-31_17h22.31.733,Main,2022.1.1,60.268629334927994,
positive,negative,2,l,j,,,,,,,,,10,3,183,14,,,,,,,,,main,1,1,2,negative,positive,l,l,1,0.717169899988221,490.62734730000375,491.6422171999875,491.62549219999346,None,490.62734730000375,None,490.62734730000375,None,490.62734730000375,None,492.34224295998575,None,492.34224295998575,None,492.34224295998575,None,,,,,,,,,,,,,,108,2023-03-31_17h22.31.733,Main,2022.1.1,60.268629334927994,
negative,negative,1,j,l,,,,,,,,,10,4,184,0,,,,,,,,,main,2,2,1,negative,negative,j,j,1,0.6966877999948338,492.34598889999324,493.35881189999054,493.34222729998874,None,492.34598889999324,None,492.34598889999324,None,492.34598889999324,None,494.03997716000305,None,494.03997716000305,None,494.03997716000305,None,,,,,,,,,,,,,,108,2023-03-31_17h22.31.733,Main,2022.1.1,60.268629334927994,
positive,neutral,1,l,j,,,,,,,,,10,5,185,8,,,,,,,,,main,2,2,1,neutral,positive,l,l,1,0.6647487000154797,494.04361539997626,495.058804100001,495.0420941999764,None,494.04361539997626,None,494.04361539997626,None,494.04361539997626,None,495.7066057599848,None,495.7066057599848,None,495.7066057599848,None,,,,,,,,,,,,,,108,2023-03-31_17h22.31.733,Main,2022.1.1,60.268629334927994,
neutral,negative,2,k,k,,,,,,,,,10,6,186,16,,,,,,,,,main,2,2,2,negative,neutral,k,k,1,0.5336604999902193,495.7103602999996,496.7253872999863,496.7088065999851,None,495.7103602999996,None,495.7103602999996,None,495.7103602999996,None,497.24206675997704,None,497.24206675997704,None,497.24206675997704,None,,,,,,,,,,,,,,108,2023-03-31_17h22.31.733,Main,2022.1.1,60.268629334927994,
neutral,positive,1,k,k,,,,,,,,,10,7,187,4,,,,,,,,,main,2,2,1,positive,neutral,k,k,1,0.6796830999956001,497.2454090999963,498.2561521999887,498.2395037999959,None,497.2454090999963,None,497.2454090999963,None,497.2454090999963,None,498.9228345599957,None,498.9228345599957,None,498.9228345599957,None,,,,,,,,,,,,,,108,2023-03-31_17h22.31.733,Main,2022.1.1,60.268629334927994,
positive,positive,1,l,j,,,,,,,,,10,8,188,2,,,,,,,,,main,2,2,1,positive,positive,l,l,1,0.548873799998546,498.9230990999786,499.9230050999904,499.9230050999904,None,498.9230990999786,None,498.9230990999786,None,498.9230990999786,None,500.4732036600006,None,500.4732036600006,None,500.4732036600006,None,,,,,,,,,,,,,,108,2023-03-31_17h22.31.733,Main,2022.1.1,60.268629334927994,
negative,positive,2,j,l,,,,,,,,,10,9,189,15,,,,,,,,,main,2,2,2,positive,negative,j,j,1,0.717148099996848,500.47814579997794,501.48983299999963,501.47441679998883,None,500.47814579997794,None,500.47814579997794,None,500.47814579997794,None,502.1920082599798,None,502.1920082599798,None,502.1920082599798,None,,,,,,,,,,,,,,108,2023-03-31_17h22.31.733,Main,2022.1.1,60.268629334927994,
positive,neutral,2,l,j,,,,,,,,,10,10,190,17,,,,,,,,,main,2,2,2,neutral,positive,l,l,1,0.8153334000089671,502.1960360999801,503.2086950999801,503.19193499998073,None,502.1960360999801,None,502.1960360999801,None,502.1960360999801,None,504.00869765998215,None,504.00869765998215,None,504.00869765998215,None,,,,,,,,,,,,,,108,2023-03-31_17h22.31.733,Main,2022.1.1,60.268629334927994,
positive,positive,2,l,j,,,,,,,,,10,11,191,11,,,,,,,,,main,2,2,2,positive,positive,l,l,1,0.963540800003102,504.01249219998135,505.0251797999954,505.0085009000031,None,504.01249219998135,None,504.01249219998135,None,504.01249219998135,None,505.97398515998503,None,505.97398515998503,None,505.97398515998503,None,,,,,,,,,,,,,,108,2023-03-31_17h22.31.733,Main,2022.1.1,60.268629334927994,
negative,neutral,1,j,l,,,,,,,,,10,12,192,3,,,,,,,,,main,2,2,1,neutral,negative,j,j,1,0.7996778000087943,505.979591899988,506.9918193999911,506.9752748000028,None,505.979591899988,None,505.979591899988,None,505.979591899988,None,507.7750332599797,None,507.7750332599797,None,507.7750332599797,None,,,,,,,,,,,,,,108,2023-03-31_17h22.31.733,Main,2022.1.1,60.268629334927994,
negative,negative,2,j,l,,,,,,,,,10,13,193,9,,,,,,,,,main,2,2,2,negative,negative,j,j,1,0.7790171999949962,507.7784960999852,508.7893788999936,508.77258409999195,None,507.7784960999852,None,507.7784960999852,None,507.7784960999852,None,509.55589345998015,None,509.55589345998015,None,509.55589345998015,None,,,,,,,,,,,,,,108,2023-03-31_17h22.31.733,Main,2022.1.1,60.268629334927994,
negative,positive,1,j,l,,,,,,,,,10,14,194,6,,,,,,,,,main,2,2,1,positive,negative,j,j,1,0.648997899988899,509.5559058999934,510.55594269998255,510.55594269998255,None,509.5559058999934,None,509.5559058999934,None,509.5559058999934,None,511.20625646000263,None,511.20625646000263,None,511.20625646000263,None,,,,,,,,,,,,,,108,2023-03-31_17h22.31.733,Main,2022.1.1,60.268629334927994,
neutral,negative,1,k,k,,,,,,,,,10,15,195,7,,,,,,,,,main,2,2,1,negative,neutral,k,k,1,0.76532330000191,511.2098435999942,512.2251404999988,512.2084097999905,None,511.2098435999942,None,511.2098435999942,None,511.2098435999942,None,512.9728731599869,None,512.9728731599869,None,512.9728731599869,None,,,,,,,,,,,,,,108,2023-03-31_17h22.31.733,Main,2022.1.1,60.268629334927994,
neutral,neutral,1,k,k,,,,,,,,,10,16,196,1,,,,,,,,,main,2,2,1,neutral,neutral,k,k,1,0.7149617999966722,512.9767588999821,513.9916089999897,513.9751640000031,None,512.9767588999821,None,512.9767588999821,None,512.9767588999821,None,514.6895091599843,None,514.6895091599843,None,514.6895091599843,None,,,,,,,,,,,,,,108,2023-03-31_17h22.31.733,Main,2022.1.1,60.268629334927994,
neutral,neutral,2,k,k,,,,,,,,,10,17,197,10,,,,,,,,,main,2,2,2,neutral,neutral,k,k,1,0.583636800001841,514.6933447000047,515.708220999979,515.6915882999892,None,514.6933447000047,None,514.6933447000047,None,514.6933447000047,None,516.2748392599867,None,516.2748392599867,None,516.2748392599867,None,,,,,,,,,,,,,,108,2023-03-31_17h22.31.733,Main,2022.1.1,60.268629334927994,
neutral,positive,1,k,k,,,,,,,,,11,0,198,4,,,,,,,,,main,2,2,1,positive,neutral,k,k,1,0.6133861999842338,516.2776772999787,517.2916422999988,517.27500959998,None,516.2776772999787,None,516.2776772999787,None,516.2776772999787,None,517.8894406599982,None,517.8894406599982,None,517.8894406599982,None,,,,,,,,,,,,,,108,2023-03-31_17h22.31.733,Main,2022.1.1,60.268629334927994,
neutral,negative,1,k,k,,,,,,,,,11,1,199,7,,,,,,,,,main,2,2,1,negative,neutral,k,k,1,1.1480700000247452,517.8933253999858,518.9056591999833,518.8889935000043,None,517.8933253999858,None,517.8933253999858,None,517.8933253999858,None,520.0390202599926,None,520.0390202599926,None,520.0390202599926,None,,,,,,,,,,,,,,108,2023-03-31_17h22.31.733,Main,2022.1.1,60.268629334927994,
negative,positive,2,j,l,,,,,,,,,11,2,200,15,,,,,,,,,main,2,2,2,positive,negative,j,j,1,0.76515410002321,520.0556963999989,521.0557239999762,521.0391159999999,None,520.0556963999989,None,520.0556963999989,None,520.0556963999989,None,521.806051859993,None,521.806051859993,None,521.806051859993,None,,,,,,,,,,,,,,108,2023-03-31_17h22.31.733,Main,2022.1.1,60.268629334927994,
positive,negative,1,l,j,,,,,,,,,11,3,201,5,,,,,,,,,main,2,2,1,negative,positive,l,l,1,0.5841114999784622,521.809947599977,522.8248401999881,522.8081090000051,None,521.809947599977,None,521.809947599977,None,521.809947599977,None,523.3916583600046,None,523.3916583600046,None,523.3916583600046,None,,,,,,,,,,,,,,108,2023-03-31_17h22.31.733,Main,2022.1.1,60.268629334927994,
neutral,neutral,1,k,k,,,,,,,,,11,4,202,1,,,,,,,,,main,1,1,1,neutral,neutral,k,k,1,0.6793718000117224,523.3959517999901,524.408147899987,524.3915456999966,None,523.3959517999901,None,523.3959517999901,None,523.3959517999901,None,525.0727323599974,None,525.0727323599974,None,525.0727323599974,None,,,,,,,,,,,,,,108,2023-03-31_17h22.31.733,Main,2022.1.1,60.268629334927994,
negative,neutral,1,j,l,,,,,,,,,11,5,203,3,,,,,,,,,main,2,2,1,neutral,negative,j,j,1,0.7505167000053916,525.0785423000052,526.091411100002,526.0748976999894,None,525.0785423000052,None,525.0785423000052,None,525.0785423000052,None,526.824880359997,None,526.824880359997,None,526.824880359997,None,,,,,,,,,,,,,,108,2023-03-31_17h22.31.733,Main,2022.1.1,60.268629334927994,
neutral,positive,2,k,k,,,,,,,,,11,6,204,13,,,,,,,,,main,2,2,2,positive,neutral,k,k,1,0.6155411999789067,526.8287936999986,527.8413143999933,527.8247353000042,None,526.8287936999986,None,526.8287936999986,None,526.8287936999986,None,528.4414491600007,None,528.4414491600007,None,528.4414491600007,None,,,,,,,,,,,,,,108,2023-03-31_17h22.31.733,Main,2022.1.1,60.268629334927994,
negative,negative,2,j,l,,,,,,,,,11,7,205,9,,,,,,,,,main,2,2,2,negative,negative,j,k,0,0.5787177000020165,528.445381700003,529.4555030999763,529.438844999997,None,528.445381700003,None,528.445381700003,None,528.445381700003,None,530.0221746999887,None,530.0221746999887,None,530.0221746999887,None,,,,,,,,,,,,,,108,2023-03-31_17h22.31.733,Main,2022.1.1,60.268629334927994,
positive,neutral,1,l,j,,,,,,,,,11,8,206,8,,,,,,,,,main,1,1,1,neutral,positive,l,l,1,1.2563032000034582,531.0221426999778,532.022181599983,532.0054914999928,None,531.0221426999778,None,531.0221426999778,None,531.0221426999778,None,533.2748709599953,None,533.2748709599953,None,533.2748709599953,None,,,,,,,,,,,,,,108,2023-03-31_17h22.31.733,Main,2022.1.1,60.268629334927994,
positive,neutral,2,l,j,,,,,,,,,11,9,207,17,,,,,,,,,main,2,2,2,neutral,positive,l,l,1,1.345638799975859,533.2797798999818,534.2914222999825,534.274663499993,None,533.2797798999818,None,533.2797798999818,None,533.2797798999818,None,535.6220669599832,None,535.6220669599832,None,535.6220669599832,None,,,,,,,,,,,,,,108,2023-03-31_17h22.31.733,Main,2022.1.1,60.268629334927994,
neutral,neutral,2,k,k,,,,,,,,,11,10,208,10,,,,,,,,,main,1,1,2,neutral,neutral,k,k,1,0.5651639999996405,535.6259941000026,536.6411881999811,536.6245777999866,None,535.6259941000026,None,535.6259941000026,None,535.6259941000026,None,537.1890619599842,None,537.1890619599842,None,537.1890619599842,None,,,,,,,,,,,,,,108,2023-03-31_17h22.31.733,Main,2022.1.1,60.268629334927994,
positive,negative,2,l,j,,,,,,,,,11,11,209,14,,,,,,,,,main,2,2,2,negative,positive,l,l,1,0.717402399983257,537.1933137000015,538.2078884999792,538.1912695999781,None,537.1933137000015,None,537.1933137000015,None,537.1933137000015,None,538.9079664599965,None,538.9079664599965,None,538.9079664599965,None,,,,,,,,,,,,,,108,2023-03-31_17h22.31.733,Main,2022.1.1,60.268629334927994,
neutral,negative,2,k,k,,,,,,,,,11,12,210,16,,,,,,,,,main,2,2,2,negative,neutral,k,k,1,0.7805913999909535,538.9119944999984,539.9223169999896,539.9077774999896,None,538.9119944999984,None,538.9119944999984,None,538.9119944999984,None,540.6889614600047,None,540.6889614600047,None,540.6889614600047,None,,,,,,,,,,,,,,108,2023-03-31_17h22.31.733,Main,2022.1.1,60.268629334927994,
positive,positive,2,l,j,,,,,,,,,11,13,211,11,,,,,,,,,main,2,2,2,positive,positive,l,l,1,0.6969335000030696,540.7047961999779,541.7052304999961,541.6885532999877,None,540.7047961999779,None,540.7047961999779,None,540.7047961999779,None,542.3885378599923,None,542.3885378599923,None,542.3885378599923,None,,,,,,,,,,,,,,108,2023-03-31_17h22.31.733,Main,2022.1.1,60.268629334927994,
negative,negative,1,j,l,,,,,,,,,11,14,212,0,,,,,,,,,main,2,2,1,negative,negative,j,j,1,0.7150394000054803,542.3907631000038,543.4055434000038,543.3885745999869,None,542.3907631000038,None,542.3907631000038,None,542.3907631000038,None,544.1052025600045,None,544.1052025600045,None,544.1052025600045,None,,,,,,,,,,,,,,108,2023-03-31_17h22.31.733,Main,2022.1.1,60.268629334927994,
negative,positive,1,j,l,,,,,,,,,11,15,213,6,,,,,,,,,main,1,1,1,positive,negative,j,j,1,0.6342810000060126,544.1085472999839,545.1220660999825,545.1052292999811,None,544.1085472999839,None,544.1085472999839,None,544.1085472999839,None,545.7409432599786,None,545.7409432599786,None,545.7409432599786,None,,,,,,,,,,,,,,108,2023-03-31_17h22.31.733,Main,2022.1.1,60.268629334927994,
positive,positive,1,l,j,,,,,,,,,11,16,214,2,,,,,,,,,main,1,1,1,positive,positive,l,l,1,0.7298156000033487,545.7448739999963,546.7576041999855,546.7410582999873,None,545.7448739999963,None,545.7448739999963,None,545.7448739999963,None,547.4721549599897,None,547.4721549599897,None,547.4721549599897,None,,,,,,,,,,,,,,108,2023-03-31_17h22.31.733,Main,2022.1.1,60.268629334927994,
negative,neutral,2,j,l,,,,,,,,,11,17,215,12,,,,,,,,,main,1,1,2,neutral,negative,j,j,1,0.7317062000220176,547.490931599983,548.4888550000032,548.4743895999854,None,547.490931599983,None,547.490931599983,None,547.490931599983,None,549.2054533599992,None,549.2054533599992,None,549.2054533599992,None,,,,,,,,,,,,,,108,2023-03-31_17h22.31.733,Main,2022.1.1,60.268629334927994,
positive,neutral,1,l,j,,,,,,,,,12,0,216,8,,,,,,,,,main,1,1,1,neutral,positive,l,l,1,0.7983365000109188,549.2091557999956,550.2241790999833,550.2075794999837,None,549.2091557999956,None,549.2091557999956,None,549.2091557999956,None,551.00539766,None,551.00539766,None,551.00539766,None,,,,,,,,,,,,,,108,2023-03-31_17h22.31.733,Main,2022.1.1,60.268629334927994,
neutral,positive,1,k,k,,,,,,,,,12,1,217,4,,,,,,,,,main,2,2,1,positive,neutral,k,k,1,0.7889083999907598,551.0116542000032,552.0241283999931,552.0076073999808,None,551.0116542000032,None,551.0116542000032,None,551.0116542000032,None,552.7947542599984,None,552.7947542599984,None,552.7947542599984,None,,,,,,,,,,,,,,108,2023-03-31_17h22.31.733,Main,2022.1.1,60.268629334927994,
negative,neutral,1,j,l,,,,,,,,,12,2,218,3,,,,,,,,,main,1,1,1,neutral,negative,j,j,1,0.7593181999982335,552.8069631999824,553.823929599981,553.7885815000045,None,552.8069631999824,None,552.8069631999824,None,552.8069631999824,None,554.5551863599801,None,554.5551863599801,None,554.5551863599801,None,,,,,,,,,,,,,,108,2023-03-31_17h22.31.733,Main,2022.1.1,60.268629334927994,
neutral,neutral,1,k,k,,,,,,,,,12,3,219,1,,,,,,,,,main,2,2,1,neutral,neutral,k,k,1,0.665841999987606,554.5598079999909,555.571849400003,555.5551712999877,None,554.5598079999909,None,554.5598079999909,None,554.5598079999909,None,556.2239853599865,None,556.2239853599865,None,556.2239853599865,None,,,,,,,,,,,,,,108,2023-03-31_17h22.31.733,Main,2022.1.1,60.268629334927994,
neutral,neutral,2,k,k,,,,,,,,,12,4,220,10,,,,,,,,,main,2,2,2,neutral,neutral,k,k,1,0.6798506999912206,556.2266579999996,557.238506099995,557.2218374999939,None,556.2266579999996,None,556.2266579999996,None,556.2266579999996,None,557.9051157600013,None,557.9051157600013,None,557.9051157600013,None,,,,,,,,,,,,,,108,2023-03-31_17h22.31.733,Main,2022.1.1,60.268629334927994,
positive,positive,2,l,j,,,,,,,,,12,5,221,11,,,,,,,,,main,2,2,2,positive,positive,l,l,1,0.7182668000168633,557.9088215999946,558.923865299992,558.905133799999,None,557.9088215999946,None,557.9088215999946,None,557.9088215999946,None,559.6249807599932,None,559.6249807599932,None,559.6249807599932,None,,,,,,,,,,,,,,108,2023-03-31_17h22.31.733,Main,2022.1.1,60.268629334927994,
neutral,negative,2,k,k,,,,,,,,,12,6,222,16,,,,,,,,,main,1,1,2,negative,neutral,k,k,1,0.7137895000050776,559.6288166999875,560.6404325999902,560.6216064000037,None,559.6288166999875,None,559.6288166999875,None,559.6288166999875,None,561.3405428599915,None,561.3405428599915,None,561.3405428599915,None,,,,,,,,,,,,,,108,2023-03-31_17h22.31.733,Main,2022.1.1,60.268629334927994,
