target,distractor,set,ans1,ans2,rep_loop2.thisRepN,rep_loop2.thisTrialN,rep_loop2.thisN,rep_loop2.thisIndex,flanker_prac_loop.thisRepN,flanker_prac_loop.thisTrialN,flanker_prac_loop.thisN,flanker_prac_loop.thisIndex,flanker_main_loop.thisRepN,flanker_main_loop.thisTrialN,flanker_main_loop.thisN,flanker_main_loop.thisIndex,fl_inst_resp.keys,fl_inst_resp.rt,sound_1.started,sound_1.stopped,image_4.started,image_4.stopped,back_2.started,back_2.stopped,main_prac,fl_cold,fl_colt,fl_set,fl_dcond,fl_tcond,fl_ans,fl_res,fl_corr,fl_rt,fix_fl.started,fix_fl.stopped,targ.started,targ.stopped,j_button.started,j_button.stopped,k_button.started,k_button.stopped,l_button.started,l_button.stopped,j_button2.started,j_button2.stopped,k_button2.started,k_button2.stopped,l_button2.started,l_button2.stopped,mainback.started,mainback.stopped,key_resp.keys,key_resp.rt,mouse_6.x,mouse_6.y,mouse_6.leftButton,mouse_6.midButton,mouse_6.rightButton,mouse_6.started,mouse_6.stopped,text_2.started,text_2.stopped,id*,date,expName,psychopyVersion,frameRate,
,,,,,0,0,0,0,,,,,,,,,space,54.375115300004836,16.059951560001355,None,70.45873220002977,None,,,,,,,,,,,,,,,,,,,,,,,,,,,,,,,,,,,,,,,,,,109,2023-04-03_16h09.14.875,Main,2022.1.1,61.13609200830137,
negative,negative,2,j,l,,,,,0,0,0,9,,,,,,,,,,,74.05870530003449,None,prac,2,2,2,negative,negative,l,l,1,3.9658889999845996,76.07948960002977,77.08945919998223,77.07278879999649,None,76.07948960002977,None,76.07948960002977,None,76.07948960002977,None,81.04614739998942,None,81.04614739998942,None,81.04614739998942,None,,,,,,,,,,,,,,109,2023-04-03_16h09.14.875,Main,2022.1.1,61.13609200830137,
positive,negative,2,l,j,,,,,0,1,1,14,,,,,,,,,,,,,prac,1,1,2,negative,positive,j,l,0,-0.34659909998299554,82.05742289999034,None,None,None,82.05742289999034,None,82.05742289999034,None,82.05742289999034,None,82.70713350002188,None,82.70713350002188,None,82.70713350002188,None,,,,,,,,,,,,,,109,2023-04-03_16h09.14.875,Main,2022.1.1,61.13609200830137,
neutral,neutral,1,k,k,,,,,0,2,2,1,,,,,,,,,,,,,prac,1,1,1,neutral,neutral,k,k,1,0.9175454000360332,85.70691760000773,86.72252599999774,86.68920359999174,None,85.70691760000773,None,85.70691760000773,None,85.70691760000773,None,87.62253946003038,None,87.62253946003038,None,87.62253946003038,None,,,,,,,,,,,,,,109,2023-04-03_16h09.14.875,Main,2022.1.1,61.13609200830137,
neutral,positive,2,k,k,,,,,0,3,3,13,,,,,,,,,,,,,prac,2,2,2,positive,neutral,k,k,1,0.7826581000117585,87.62251329998253,88.62258510000538,88.62258510000538,None,87.62251329998253,None,87.62251329998253,None,87.62251329998253,None,89.40585856001125,None,89.40585856001125,None,89.40585856001125,None,,,,,,,,,,,,,,109,2023-04-03_16h09.14.875,Main,2022.1.1,61.13609200830137,
positive,negative,1,l,j,,,,,0,4,4,5,,,,,,,,,,,,,prac,2,2,1,negative,positive,j,j,1,0.7004297000239603,89.41014569997787,90.42504270002246,90.40842320001684,None,89.41014569997787,None,89.41014569997787,None,89.41014569997787,None,91.10843966000247,None,91.10843966000247,None,91.10843966000247,None,,,,,,,,,,,,,,109,2023-04-03_16h09.14.875,Main,2022.1.1,61.13609200830137,
negative,negative,1,j,l,,,,,0,5,5,0,,,,,,,,,,,,,prac,1,1,1,negative,negative,l,l,1,0.8487147999694571,91.112615799997,92.12495189998299,92.1083978000097,None,91.112615799997,None,91.112615799997,None,91.112615799997,None,92.95822996001225,None,92.95822996001225,None,92.95822996001225,None,,,,,,,,,,,,,,109,2023-04-03_16h09.14.875,Main,2022.1.1,61.13609200830137,
positive,positive,2,l,j,,,,,0,6,6,11,,,,,,,,,,,,,prac,2,2,2,positive,positive,j,j,1,0.7985912000294775,92.96136120002484,93.97491889999947,93.95832209999207,None,92.96136120002484,None,92.96136120002484,None,92.96136120002484,None,94.75817136002006,None,94.75817136002006,None,94.75817136002006,None,,,,,,,,,,,,,,109,2023-04-03_16h09.14.875,Main,2022.1.1,61.13609200830137,
neutral,positive,1,k,k,,,,,0,7,7,4,,,,,,,,,,,,,prac,2,2,1,positive,neutral,k,k,1,0.6654673000448383,94.76128730003256,95.77481109998189,95.7581962000113,None,94.76128730003256,None,94.76128730003256,None,94.76128730003256,None,96.4248908599955,None,96.4248908599955,None,96.4248908599955,None,,,,,,,,,,,,,,109,2023-04-03_16h09.14.875,Main,2022.1.1,61.13609200830137,
negative,neutral,2,j,l,,,,,0,8,8,12,,,,,,,,,,,,,prac,1,1,2,neutral,negative,l,l,1,0.8793241000385024,96.42787070001941,97.4379005000228,97.42189980001422,None,96.42787070001941,None,96.42787070001941,None,96.42787070001941,None,98.3055983600323,None,98.3055983600323,None,98.3055983600323,None,,,,,,,,,,,,,,109,2023-04-03_16h09.14.875,Main,2022.1.1,61.13609200830137,
positive,positive,1,l,j,,,,,0,9,9,2,,,,,,,,,,,,,prac,2,2,1,positive,positive,j,j,1,1.0671082999906503,98.30628469999647,99.30568410002161,99.30568410002161,None,98.30628469999647,None,98.30628469999647,None,98.30628469999647,None,100.37474465999985,None,100.37474465999985,None,100.37474465999985,None,,,,,,,,,,,,,,109,2023-04-03_16h09.14.875,Main,2022.1.1,61.13609200830137,
positive,neutral,1,l,j,,,,,0,10,10,8,,,,,,,,,,,,,prac,2,2,1,neutral,positive,j,j,1,0.6163930000038818,100.37766649998957,101.3913841000176,101.37480230000801,None,100.37766649998957,None,100.37766649998957,None,100.37766649998957,None,101.99139405997703,None,101.99139405997703,None,101.99139405997703,None,,,,,,,,,,,,,,109,2023-04-03_16h09.14.875,Main,2022.1.1,61.13609200830137,
negative,neutral,1,j,l,,,,,0,11,11,3,,,,,,,,,,,,,prac,1,1,1,neutral,negative,l,l,1,0.764360100030899,101.99531540001044,103.00802950002253,102.99143709999043,None,101.99531540001044,None,101.99531540001044,None,101.99531540001044,None,103.7580118600279,None,103.7580118600279,None,103.7580118600279,None,,,,,,,,,,,,,,109,2023-04-03_16h09.14.875,Main,2022.1.1,61.13609200830137,
neutral,negative,1,k,k,,,,,0,12,12,7,,,,,,,,,,,,,prac,2,2,1,negative,neutral,k,k,1,1.3651868000160903,103.76118099997984,104.77466060000006,104.75804470002186,None,103.76118099997984,None,103.76118099997984,None,103.76118099997984,None,106.12466386002488,None,106.12466386002488,None,106.12466386002488,None,,,,,,,,,,,,,,109,2023-04-03_16h09.14.875,Main,2022.1.1,61.13609200830137,
neutral,neutral,2,k,k,,,,,0,13,13,10,,,,,,,,,,,,,prac,1,1,2,neutral,neutral,k,k,1,0.6620313000166789,106.12821039999835,107.12496950000059,107.1179986000061,None,106.12821039999835,None,106.12821039999835,None,106.12821039999835,None,107.78876216000644,None,107.78876216000644,None,107.78876216000644,None,,,,,,,,,,,,,,109,2023-04-03_16h09.14.875,Main,2022.1.1,61.13609200830137,
negative,positive,2,j,l,,,,,0,14,14,15,,,,,,,,,,,,,prac,2,2,2,positive,negative,l,l,1,0.8155920000281185,107.78872290003346,108.7887735000113,108.7887735000113,None,107.78872290003346,None,107.78872290003346,None,107.78872290003346,None,109.60542846000753,None,109.60542846000753,None,109.60542846000753,None,,,,,,,,,,,,,,109,2023-04-03_16h09.14.875,Main,2022.1.1,61.13609200830137,
neutral,negative,2,k,k,,,,,0,15,15,16,,,,,,,,,,,,,prac,2,2,2,negative,neutral,k,k,1,0.765011300041806,109.6058840000187,110.60545470000943,110.60545470000943,None,109.6058840000187,None,109.6058840000187,None,109.6058840000187,None,111.37208185998024,None,111.37208185998024,None,111.37208185998024,None,,,,,,,,,,,,,,109,2023-04-03_16h09.14.875,Main,2022.1.1,61.13609200830137,
negative,positive,1,j,l,,,,,0,16,16,6,,,,,,,,,,,,,prac,2,2,1,positive,negative,l,j,0,0.6856075000250712,111.375133500027,112.37458820000757,112.35791419999441,None,111.375133500027,None,111.375133500027,None,111.375133500027,None,113.05557660001796,None,113.05557660001796,None,113.05557660001796,None,,,,,,,,,,,,,,109,2023-04-03_16h09.14.875,Main,2022.1.1,61.13609200830137,
positive,neutral,2,l,j,,,,,0,17,17,17,,,,,,,,,,,,,prac,2,2,2,neutral,positive,j,j,1,1.003784500004258,114.05656709999312,115.05778750003083,115.04123020003317,None,114.05656709999312,None,114.05656709999312,None,114.05656709999312,None,116.05774996000109,None,116.05774996000109,None,116.05774996000109,None,,,,,,,,,,,,,,109,2023-04-03_16h09.14.875,Main,2022.1.1,61.13609200830137,
negative,neutral,1,j,l,,,,,1,0,18,3,,,,,,,,,,,,,prac,1,1,1,neutral,negative,l,l,1,0.7480839999625459,116.06120360002387,117.07440620003035,117.0578110999777,None,116.06120360002387,None,116.06120360002387,None,116.06120360002387,None,117.80776006001979,None,117.80776006001979,None,117.80776006001979,None,,,,,,,,,,,,,,109,2023-04-03_16h09.14.875,Main,2022.1.1,61.13609200830137,
neutral,neutral,2,k,k,,,,,1,1,19,10,,,,,,,,,,,,,prac,2,2,2,neutral,neutral,k,k,1,0.712742600007914,117.8107130000135,118.82182050001575,118.80516240000725,None,117.8107130000135,None,117.8107130000135,None,117.8107130000135,None,119.52179496003082,None,119.52179496003082,None,119.52179496003082,None,,,,,,,,,,,,,,109,2023-04-03_16h09.14.875,Main,2022.1.1,61.13609200830137,
neutral,negative,2,k,k,,,,,1,2,20,16,,,,,,,,,,,,,prac,2,2,2,negative,neutral,k,k,1,0.7513504999806173,119.52181130001554,120.5219092000043,120.5219092000043,None,119.52181130001554,None,119.52181130001554,None,119.52181130001554,None,121.27433696000371,None,121.27433696000371,None,121.27433696000371,None,,,,,,,,,,,,,,109,2023-04-03_16h09.14.875,Main,2022.1.1,61.13609200830137,
negative,positive,2,j,l,,,,,1,3,21,15,,,,,,,,,,,,,prac,1,1,2,positive,negative,l,l,1,0.6318682999699377,121.27770899998723,122.29097219998948,122.2743776999996,None,121.27770899998723,None,121.27770899998723,None,121.27770899998723,None,122.90771836002823,None,122.90771836002823,None,122.90771836002823,None,,,,,,,,,,,,,,109,2023-04-03_16h09.14.875,Main,2022.1.1,61.13609200830137,
negative,neutral,2,j,l,,,,,1,4,22,12,,,,,,,,,,,,,prac,2,2,2,neutral,negative,l,l,1,0.6964516000007279,122.91153009998379,123.92425620002905,123.90763199998764,None,122.91153009998379,None,122.91153009998379,None,122.91153009998379,None,124.60546816001879,None,124.60546816001879,None,124.60546816001879,None,,,,,,,,,,,,,,109,2023-04-03_16h09.14.875,Main,2022.1.1,61.13609200830137,
negative,negative,2,j,l,,,,,1,5,23,9,,,,,,,,,,,,,prac,1,1,2,negative,negative,l,l,1,0.634388200007379,124.60827820003033,125.60754150000867,125.5909480000264,None,124.60827820003033,None,124.60827820003033,None,124.60827820003033,None,126.24080936000682,None,126.24080936000682,None,126.24080936000682,None,,,,,,,,,,,,,,109,2023-04-03_16h09.14.875,Main,2022.1.1,61.13609200830137,
positive,positive,2,l,j,,,,,1,6,24,11,,,,,,,,,,,,,prac,1,1,2,positive,positive,j,j,1,0.7648859000182711,126.24416190001648,127.25751359999413,127.24089840002125,None,126.24416190001648,None,126.24416190001648,None,126.24416190001648,None,128.0074781599804,None,128.0074781599804,None,128.0074781599804,None,,,,,,,,,,,,,,109,2023-04-03_16h09.14.875,Main,2022.1.1,61.13609200830137,
neutral,negative,1,k,k,,,,,1,7,25,7,,,,,,,,,,,,,prac,1,1,1,negative,neutral,k,k,1,0.6965556000359356,128.012496499985,129.0216267000069,129.00494100002106,None,128.012496499985,None,128.012496499985,None,128.012496499985,None,129.7030899599893,None,129.7030899599893,None,129.7030899599893,None,,,,,,,,,,,,,,109,2023-04-03_16h09.14.875,Main,2022.1.1,61.13609200830137,
negative,positive,1,j,l,,,,,1,8,26,6,,,,,,,,,,,,,prac,1,1,1,positive,negative,l,l,1,1.0145373999839649,129.70709460001672,130.7216598999803,130.70499420003034,None,129.70709460001672,None,129.70709460001672,None,129.70709460001672,None,131.7216621600208,None,131.7216621600208,None,131.7216621600208,None,,,,,,,,,,,,,,109,2023-04-03_16h09.14.875,Main,2022.1.1,61.13609200830137,
negative,negative,1,j,l,,,,,1,9,27,0,,,,,,,,,,,,,prac,1,1,1,negative,negative,l,l,1,0.6680565000278875,131.7252039000159,132.74077989999205,132.70751410000958,None,131.7252039000159,None,131.7252039000159,None,131.7252039000159,None,133.39078686003342,None,133.39078686003342,None,133.39078686003342,None,,,,,,,,,,,,,,109,2023-04-03_16h09.14.875,Main,2022.1.1,61.13609200830137,
neutral,positive,2,k,k,,,,,1,10,28,13,,,,,,,,,,,,,prac,2,2,2,positive,neutral,k,k,1,0.6970258000073954,133.39398910000455,134.4073465000256,134.39075259998208,None,133.39398910000455,None,133.39398910000455,None,133.39398910000455,None,135.08936266002712,None,135.08936266002712,None,135.08936266002712,None,,,,,,,,,,,,,,109,2023-04-03_16h09.14.875,Main,2022.1.1,61.13609200830137,
neutral,neutral,1,k,k,,,,,1,11,29,1,,,,,,,,,,,,,prac,2,2,1,neutral,neutral,k,k,1,0.6165539000066929,135.10739800002193,136.10735750000458,136.0907510999823,None,135.10739800002193,None,135.10739800002193,None,135.10739800002193,None,136.70730606002036,None,136.70730606002036,None,136.70730606002036,None,,,,,,,,,,,,,,109,2023-04-03_16h09.14.875,Main,2022.1.1,61.13609200830137,
positive,neutral,2,l,j,,,,,1,12,30,17,,,,,,,,,,,,,prac,1,1,2,neutral,positive,j,j,1,1.5817749999696389,136.71008360001724,137.7239649000112,137.70731860003434,None,136.71008360001724,None,136.71008360001724,None,136.71008360001724,None,139.2906057999935,None,139.2906057999935,None,139.2906057999935,None,,,,,,,,,,,,,,109,2023-04-03_16h09.14.875,Main,2022.1.1,61.13609200830137,
positive,positive,1,l,j,,,,,1,13,31,2,,,,,,,,,,,,,prac,1,1,1,positive,positive,j,j,1,0.6982051000231877,140.29908050002996,141.30497950001154,141.27373160002753,None,140.29908050002996,None,140.29908050002996,None,140.29908050002996,None,141.9882568600122,None,141.9882568600122,None,141.9882568600122,None,,,,,,,,,,,,,,109,2023-04-03_16h09.14.875,Main,2022.1.1,61.13609200830137,
positive,negative,1,l,j,,,,,1,14,32,5,,,,,,,,,,,,,prac,2,2,1,negative,positive,j,j,1,0.5641748999478295,141.99234980001347,143.00495129998308,142.99039150000317,None,141.99234980001347,None,141.99234980001347,None,141.99234980001347,None,143.554679160018,None,143.554679160018,None,143.554679160018,None,,,,,,,,,,,,,,109,2023-04-03_16h09.14.875,Main,2022.1.1,61.13609200830137,
positive,neutral,1,l,j,,,,,1,15,33,8,,,,,,,,,,,,,prac,2,2,1,neutral,positive,j,j,1,0.5654563999851234,143.5578803999815,144.55706170003396,144.55706170003396,None,143.5578803999815,None,143.5578803999815,None,143.5578803999815,None,145.1215549599845,None,145.1215549599845,None,145.1215549599845,None,,,,,,,,,,,,,,109,2023-04-03_16h09.14.875,Main,2022.1.1,61.13609200830137,
neutral,positive,1,k,k,,,,,1,16,34,4,,,,,,,,,,,,,prac,1,1,1,positive,neutral,k,k,1,0.5841809999546967,145.12410339998314,146.12362840003334,146.1070250000339,None,145.12410339998314,None,145.12410339998314,None,145.12410339998314,None,146.70695186000086,None,146.70695186000086,None,146.70695186000086,None,,,,,,,,,,,,,,109,2023-04-03_16h09.14.875,Main,2022.1.1,61.13609200830137,
positive,negative,2,l,j,,,,,1,17,35,14,,,,,,,,,,,,,prac,2,2,2,negative,positive,j,j,1,0.7320064000086859,146.70971800002735,147.72152060002554,147.70707950001815,None,146.70971800002735,None,146.70971800002735,None,146.70971800002735,None,148.4402993599768,None,148.4402993599768,None,148.4402993599768,None,,,,,,,,,,,,,,109,2023-04-03_16h09.14.875,Main,2022.1.1,61.13609200830137,
,,,,,,,,,,,,,,,,,,,,,,,,,,,,,,,,,,,,,,,,,,,,,,,,,,,148.43819790001726,None,space,4.182777700014412,,,,,,,,,,109,2023-04-03_16h09.14.875,Main,2022.1.1,61.13609200830137,
,,,,,,,,,,,,,,,,,,,,,,,,,,,,,,,,,,,,,,,,,,,,,,,,,,,,,,,0.19629629,-0.10925926,0,0,0,0.011086359969340265,None,,,109,2023-04-03_16h09.14.875,Main,2022.1.1,61.13609200830137,
positive,negative,1,l,j,,,,,,,,,0,0,0,5,,,,,,,152.64023700001417,None,main,2,2,1,negative,positive,j,j,1,0.7649479000247084,154.65486330003478,155.65446849999717,155.65446849999717,None,154.65486330003478,None,154.65486330003478,None,154.65486330003478,None,156.4214195599896,None,156.4214195599896,None,156.4214195599896,None,,,,,,,,,,,,,,109,2023-04-03_16h09.14.875,Main,2022.1.1,61.13609200830137,
positive,neutral,1,l,j,,,,,,,,,0,1,1,8,,,,,,,,,main,2,2,1,neutral,positive,j,j,1,0.6331754000275396,156.42583880003076,157.44021339999745,157.42354260000866,None,156.42583880003076,None,156.42583880003076,None,156.42583880003076,None,158.05677156000166,None,158.05677156000166,None,158.05677156000166,None,,,,,,,,,,,,,,109,2023-04-03_16h09.14.875,Main,2022.1.1,61.13609200830137,
neutral,neutral,2,k,k,,,,,,,,,0,2,2,10,,,,,,,,,main,2,2,2,neutral,neutral,k,k,1,0.6509147000033408,158.06091290002223,159.0734793000156,159.05687239998952,None,158.06091290002223,None,158.06091290002223,None,158.06091290002223,None,159.70683926001658,None,159.70683926001658,None,159.70683926001658,None,,,,,,,,,,,,,,109,2023-04-03_16h09.14.875,Main,2022.1.1,61.13609200830137,
positive,positive,1,l,j,,,,,,,,,0,3,3,2,,,,,,,,,main,1,1,1,positive,positive,j,j,1,0.7118878000183031,159.71280660002958,160.72344490000978,160.7068556000013,None,159.71280660002958,None,159.71280660002958,None,159.71280660002958,None,161.4233519599773,None,161.4233519599773,None,161.4233519599773,None,,,,,,,,,,,,,,109,2023-04-03_16h09.14.875,Main,2022.1.1,61.13609200830137,
negative,negative,2,j,l,,,,,,,,,0,4,4,9,,,,,,,,,main,1,1,2,negative,negative,l,l,1,0.7291528999921866,161.4263326000073,162.44005299999844,162.4236188000068,None,161.4263326000073,None,161.4263326000073,None,161.4263326000073,None,163.15420116002207,None,163.15420116002207,None,163.15420116002207,None,,,,,,,,,,,,,,109,2023-04-03_16h09.14.875,Main,2022.1.1,61.13609200830137,
neutral,positive,1,k,k,,,,,,,,,0,5,5,4,,,,,,,,,main,2,2,1,positive,neutral,k,k,1,0.731606199988164,163.15419670002302,164.15422610001406,164.15422610001406,None,163.15419670002302,None,163.15419670002302,None,163.15419670002302,None,164.8875817600172,None,164.8875817600172,None,164.8875817600172,None,,,,,,,,,,,,,,109,2023-04-03_16h09.14.875,Main,2022.1.1,61.13609200830137,
negative,positive,2,j,l,,,,,,,,,0,6,6,15,,,,,,,,,main,2,2,2,positive,negative,l,l,1,0.7674965999904089,164.89057580003282,165.88999950001016,165.8734117000131,None,164.89057580003282,None,164.89057580003282,None,164.89057580003282,None,166.65664516000544,None,166.65664516000544,None,166.65664516000544,None,,,,,,,,,,,,,,109,2023-04-03_16h09.14.875,Main,2022.1.1,61.13609200830137,
negative,neutral,2,j,l,,,,,,,,,0,7,7,12,,,,,,,,,main,2,2,2,neutral,negative,l,l,1,0.7813693999778479,166.66062899999088,167.6733371000155,167.656704300025,None,166.66062899999088,None,166.66062899999088,None,166.66062899999088,None,168.44000355999452,None,168.44000355999452,None,168.44000355999452,None,,,,,,,,,,,,,,109,2023-04-03_16h09.14.875,Main,2022.1.1,61.13609200830137,
negative,neutral,1,j,l,,,,,,,,,0,8,8,3,,,,,,,,,main,2,2,1,neutral,negative,l,l,1,0.7125089999753982,168.44311629998265,169.45656720001716,169.4399261000217,None,168.44311629998265,None,168.44311629998265,None,168.44311629998265,None,170.15415195999668,None,170.15415195999668,None,170.15415195999668,None,,,,,,,,,,,,,,109,2023-04-03_16h09.14.875,Main,2022.1.1,61.13609200830137,
neutral,negative,1,k,k,,,,,,,,,0,9,9,7,,,,,,,,,main,2,2,1,negative,neutral,k,k,1,0.7007808999624103,170.1576761000324,171.1733416999923,171.15663879999192,None,170.1576761000324,None,170.1576761000324,None,170.1576761000324,None,171.85652386002477,None,171.85652386002477,None,171.85652386002477,None,,,,,,,,,,,,,,109,2023-04-03_16h09.14.875,Main,2022.1.1,61.13609200830137,
positive,negative,2,l,j,,,,,,,,,0,10,10,14,,,,,,,,,main,1,1,2,negative,positive,j,j,1,0.7115047000115737,171.86075880000135,172.8703308000113,172.85318069998175,None,171.86075880000135,None,171.86075880000135,None,171.86075880000135,None,173.57061886002776,None,173.57061886002776,None,173.57061886002776,None,,,,,,,,,,,,,,109,2023-04-03_16h09.14.875,Main,2022.1.1,61.13609200830137,
positive,positive,2,l,j,,,,,,,,,0,11,11,11,,,,,,,,,main,1,1,2,positive,positive,j,j,1,0.5986164000350982,173.57091670000227,174.57063909998396,174.57063909998396,None,173.57091670000227,None,173.57091670000227,None,173.57091670000227,None,175.17069056002657,None,175.17069056002657,None,175.17069056002657,None,,,,,,,,,,,,,,109,2023-04-03_16h09.14.875,Main,2022.1.1,61.13609200830137,
negative,negative,1,j,l,,,,,,,,,0,12,12,0,,,,,,,,,main,2,2,1,negative,negative,l,l,1,0.6519777999492362,175.17444899998372,176.1897631000029,176.17317080002977,None,175.17444899998372,None,175.17444899998372,None,175.17444899998372,None,176.82309905999574,None,176.82309905999574,None,176.82309905999574,None,,,,,,,,,,,,,,109,2023-04-03_16h09.14.875,Main,2022.1.1,61.13609200830137,
negative,positive,1,j,l,,,,,,,,,0,13,13,6,,,,,,,,,main,2,2,1,positive,negative,l,l,1,0.6616396000026725,176.82770969998091,177.8397034999798,177.82313089998206,None,176.82770969998091,None,176.82770969998091,None,176.82770969998091,None,178.4876100599766,None,178.4876100599766,None,178.4876100599766,None,,,,,,,,,,,,,,109,2023-04-03_16h09.14.875,Main,2022.1.1,61.13609200830137,
neutral,negative,2,k,k,,,,,,,,,0,14,14,16,,,,,,,,,main,2,2,2,negative,neutral,k,k,1,0.5838560000411235,178.4908729000017,179.5063023000257,179.48975900001824,None,178.4908729000017,None,178.4908729000017,None,178.4908729000017,None,180.07299426001265,None,180.07299426001265,None,180.07299426001265,None,,,,,,,,,,,,,,109,2023-04-03_16h09.14.875,Main,2022.1.1,61.13609200830137,
neutral,neutral,1,k,k,,,,,,,,,0,15,15,1,,,,,,,,,main,1,1,1,neutral,neutral,k,k,1,0.5984332999796607,180.07597230002284,181.08967770001618,181.07305120001547,None,180.07597230002284,None,180.07597230002284,None,180.07597230002284,None,181.67300486001187,None,181.67300486001187,None,181.67300486001187,None,,,,,,,,,,,,,,109,2023-04-03_16h09.14.875,Main,2022.1.1,61.13609200830137,
positive,neutral,2,l,j,,,,,,,,,0,16,16,17,,,,,,,,,main,2,2,2,neutral,positive,j,j,1,0.7458956999471411,181.67587949999142,182.68709180003498,182.67043120000744,None,181.67587949999142,None,181.67587949999142,None,181.67587949999142,None,183.42042256002316,None,183.42042256002316,None,183.42042256002316,None,,,,,,,,,,,,,,109,2023-04-03_16h09.14.875,Main,2022.1.1,61.13609200830137,
neutral,positive,2,k,k,,,,,,,,,0,17,17,13,,,,,,,,,main,1,1,2,positive,neutral,k,k,1,0.6982868000050075,183.4210903000203,184.4206538000144,184.4206538000144,None,183.4210903000203,None,183.4210903000203,None,183.4210903000203,None,185.12044106000104,None,185.12044106000104,None,185.12044106000104,None,,,,,,,,,,,,,,109,2023-04-03_16h09.14.875,Main,2022.1.1,61.13609200830137,
negative,negative,1,j,l,,,,,,,,,1,0,18,0,,,,,,,,,main,2,2,1,negative,negative,l,l,1,0.7151193000026979,185.12054099998204,186.12042980000842,186.12042980000842,None,185.12054099998204,None,185.12054099998204,None,185.12054099998204,None,186.83708865999944,None,186.83708865999944,None,186.83708865999944,None,,,,,,,,,,,,,,109,2023-04-03_16h09.14.875,Main,2022.1.1,61.13609200830137,
neutral,neutral,2,k,k,,,,,,,,,1,1,19,10,,,,,,,,,main,2,2,2,neutral,neutral,k,k,1,0.6822920000413433,186.8401496000006,187.83957800001372,187.82292960002087,None,186.8401496000006,None,186.8401496000006,None,186.8401496000006,None,188.52075376001886,None,188.52075376001886,None,188.52075376001886,None,,,,,,,,,,,,,,109,2023-04-03_16h09.14.875,Main,2022.1.1,61.13609200830137,
negative,neutral,1,j,l,,,,,,,,,1,2,20,3,,,,,,,,,main,2,2,1,neutral,negative,l,l,1,0.7171410999726504,188.52430069999536,189.53949110000394,189.52286070003174,None,188.52430069999536,None,188.52430069999536,None,188.52430069999536,None,190.23953206000152,None,190.23953206000152,None,190.23953206000152,None,,,,,,,,,,,,,,109,2023-04-03_16h09.14.875,Main,2022.1.1,61.13609200830137,
negative,positive,1,j,l,,,,,,,,,1,3,21,6,,,,,,,,,main,2,2,1,positive,negative,l,l,1,0.66511519998312,190.2427484000218,191.256069199997,191.23940690001473,None,190.2427484000218,None,190.2427484000218,None,190.2427484000218,None,191.9060778599931,None,191.9060778599931,None,191.9060778599931,None,,,,,,,,,,,,,,109,2023-04-03_16h09.14.875,Main,2022.1.1,61.13609200830137,
neutral,positive,2,k,k,,,,,,,,,1,4,22,13,,,,,,,,,main,1,1,2,positive,neutral,k,k,1,0.7122111999779008,191.90942879999056,192.9202227999922,192.90355580003234,None,191.90942879999056,None,191.90942879999056,None,191.90942879999056,None,193.62016966002994,None,193.62016966002994,None,193.62016966002994,None,,,,,,,,,,,,,,109,2023-04-03_16h09.14.875,Main,2022.1.1,61.13609200830137,
negative,positive,2,j,l,,,,,,,,,1,5,23,15,,,,,,,,,main,2,2,2,positive,negative,l,l,1,0.682014399964828,193.63688910001656,194.63687849999405,194.62021870003082,None,193.63688910001656,None,193.63688910001656,None,193.63688910001656,None,195.30357846001863,None,195.30357846001863,None,195.30357846001863,None,,,,,,,,,,,,,,109,2023-04-03_16h09.14.875,Main,2022.1.1,61.13609200830137,
negative,negative,2,j,l,,,,,,,,,1,6,24,9,,,,,,,,,main,1,1,2,negative,negative,l,l,1,0.6344026000006124,195.30683720001252,196.30605890002334,196.30605890002334,None,195.30683720001252,None,195.30683720001252,None,195.30683720001252,None,196.93942195998972,None,196.93942195998972,None,196.93942195998972,None,,,,,,,,,,,,,,109,2023-04-03_16h09.14.875,Main,2022.1.1,61.13609200830137,
neutral,neutral,1,k,k,,,,,,,,,1,7,25,1,,,,,,,,,main,2,2,1,neutral,neutral,k,k,1,0.6961787000182085,196.94263320002938,197.95597110001836,197.93938280001748,None,196.94263320002938,None,196.94263320002938,None,196.94263320002938,None,198.6373652599985,None,198.6373652599985,None,198.6373652599985,None,,,,,,,,,,,,,,109,2023-04-03_16h09.14.875,Main,2022.1.1,61.13609200830137,
positive,negative,1,l,j,,,,,,,,,1,8,26,5,,,,,,,,,main,1,1,1,negative,positive,j,j,1,0.750298600003589,198.64373090001754,199.65591510001104,199.63927450001938,None,198.64373090001754,None,198.64373090001754,None,198.64373090001754,None,200.38920896000928,None,200.38920896000928,None,200.38920896000928,None,,,,,,,,,,,,,,109,2023-04-03_16h09.14.875,Main,2022.1.1,61.13609200830137,
neutral,positive,1,k,k,,,,,,,,,1,9,27,4,,,,,,,,,main,2,2,1,positive,neutral,k,k,1,0.7152799000032246,200.39253579999786,201.40588889998617,201.38929610000923,None,200.39253579999786,None,200.39253579999786,None,200.39253579999786,None,202.1060391600011,None,202.1060391600011,None,202.1060391600011,None,,,,,,,,,,,,,,109,2023-04-03_16h09.14.875,Main,2022.1.1,61.13609200830137,
positive,neutral,1,l,j,,,,,,,,,1,10,28,8,,,,,,,,,main,2,2,1,neutral,positive,j,j,1,1.0453337999642827,202.10957460000645,203.10330740001518,203.09423839999363,None,202.10957460000645,None,202.10957460000645,None,202.10957460000645,None,204.15330526001054,None,204.15330526001054,None,204.15330526001054,None,,,,,,,,,,,,,,109,2023-04-03_16h09.14.875,Main,2022.1.1,61.13609200830137,
positive,positive,1,l,j,,,,,,,,,1,11,29,2,,,,,,,,,main,1,1,1,positive,positive,j,j,1,0.6984042000258341,204.15330170001835,205.15336190001108,205.15336190001108,None,204.15330170001835,None,204.15330170001835,None,204.15330170001835,None,205.8533450600342,None,205.8533450600342,None,205.8533450600342,None,,,,,,,,,,,,,,109,2023-04-03_16h09.14.875,Main,2022.1.1,61.13609200830137,
negative,neutral,2,j,l,,,,,,,,,1,12,30,12,,,,,,,,,main,1,1,2,neutral,negative,l,l,1,0.7839651000103913,205.8566355999792,206.85585550003452,206.85585550003452,None,205.8566355999792,None,205.8566355999792,None,205.8566355999792,None,207.63913406002104,None,207.63913406002104,None,207.63913406002104,None,,,,,,,,,,,,,,109,2023-04-03_16h09.14.875,Main,2022.1.1,61.13609200830137,
neutral,negative,1,k,k,,,,,,,,,1,13,31,7,,,,,,,,,main,1,1,1,negative,neutral,k,k,1,0.7484022999997251,207.64297019998776,208.6556353000342,208.63917729997775,None,207.64297019998776,None,207.64297019998776,None,207.64297019998776,None,209.3889957600157,None,209.3889957600157,None,209.3889957600157,None,,,,,,,,,,,,,,109,2023-04-03_16h09.14.875,Main,2022.1.1,61.13609200830137,
neutral,negative,2,k,k,,,,,,,,,1,14,32,16,,,,,,,,,main,2,2,2,negative,neutral,k,k,1,0.7488932000123896,209.3930790000013,210.40567340003327,210.38910259999102,None,209.3930790000013,None,209.3930790000013,None,209.3930790000013,None,211.13894186001272,None,211.13894186001272,None,211.13894186001272,None,,,,,,,,,,,,,,109,2023-04-03_16h09.14.875,Main,2022.1.1,61.13609200830137,
positive,neutral,2,l,j,,,,,,,,,1,15,33,17,,,,,,,,,main,1,1,2,neutral,positive,j,j,1,0.7971543000312522,211.1432971000322,212.15567659999942,212.13905659999,None,211.1432971000322,None,211.1432971000322,None,211.1432971000322,None,212.93895276002587,None,212.93895276002587,None,212.93895276002587,None,,,,,,,,,,,,,,109,2023-04-03_16h09.14.875,Main,2022.1.1,61.13609200830137,
positive,negative,2,l,j,,,,,,,,,1,16,34,14,,,,,,,,,main,1,1,2,negative,positive,j,j,1,0.6958470999961719,212.94226660003187,213.95313340000575,213.93646679999074,None,212.94226660003187,None,212.94226660003187,None,212.94226660003187,None,214.63646026003408,None,214.63646026003408,None,214.63646026003408,None,,,,,,,,,,,,,,109,2023-04-03_16h09.14.875,Main,2022.1.1,61.13609200830137,
positive,positive,2,l,j,,,,,,,,,1,17,35,11,,,,,,,,,main,1,1,2,positive,positive,j,j,1,0.6839834999991581,214.6364088000264,215.6364969999995,215.6364969999995,None,214.6364088000264,None,214.6364088000264,None,214.6364088000264,None,216.32214865997668,None,216.32214865997668,None,216.32214865997668,None,,,,,,,,,,,,,,109,2023-04-03_16h09.14.875,Main,2022.1.1,61.13609200830137,
neutral,negative,1,k,k,,,,,,,,,2,0,36,7,,,,,,,,,main,1,1,1,negative,neutral,k,k,1,0.5855554000008851,216.3260983999935,217.33885649999138,217.32224680000218,None,216.3260983999935,None,216.3260983999935,None,216.3260983999935,None,217.90567006003113,None,217.90567006003113,None,217.90567006003113,None,,,,,,,,,,,,,,109,2023-04-03_16h09.14.875,Main,2022.1.1,61.13609200830137,
negative,negative,2,j,l,,,,,,,,,2,1,37,9,,,,,,,,,main,1,1,2,negative,negative,l,l,1,0.9760930999764241,217.9120203999919,218.92217500001425,218.90556159999687,None,217.9120203999919,None,217.9120203999919,None,217.9120203999919,None,219.88671096002219,None,219.88671096002219,None,219.88671096002219,None,,,,,,,,,,,,,,109,2023-04-03_16h09.14.875,Main,2022.1.1,61.13609200830137,
negative,neutral,2,j,l,,,,,,,,,2,2,38,12,,,,,,,,,main,2,2,2,neutral,negative,l,l,1,0.717062400013674,219.8925113999867,220.90548319998197,220.88886120001553,None,219.8925113999867,None,219.8925113999867,None,219.8925113999867,None,221.6054355600034,None,221.6054355600034,None,221.6054355600034,None,,,,,,,,,,,,,,109,2023-04-03_16h09.14.875,Main,2022.1.1,61.13609200830137,
positive,neutral,1,l,j,,,,,,,,,2,3,39,8,,,,,,,,,main,2,2,1,neutral,positive,j,j,1,0.7484467999893241,221.6084326999844,222.62209930003155,222.60548570001265,None,221.6084326999844,None,221.6084326999844,None,221.6084326999844,None,223.35544706003276,None,223.35544706003276,None,223.35544706003276,None,,,,,,,,,,,,,,109,2023-04-03_16h09.14.875,Main,2022.1.1,61.13609200830137,
positive,positive,1,l,j,,,,,,,,,2,4,40,2,,,,,,,,,main,2,2,1,positive,positive,j,j,1,0.6959599999827333,223.35844380001072,224.36955750000197,224.3528957000235,None,223.35844380001072,None,223.35844380001072,None,223.35844380001072,None,225.052850460005,None,225.052850460005,None,225.052850460005,None,,,,,,,,,,,,,,109,2023-04-03_16h09.14.875,Main,2022.1.1,61.13609200830137,
neutral,neutral,2,k,k,,,,,,,,,2,5,41,10,,,,,,,,,main,2,2,2,neutral,neutral,k,k,1,0.684320000000298,225.0532076000236,226.0529136999976,226.0529136999976,None,225.0532076000236,None,225.0532076000236,None,225.0532076000236,None,226.73865396000912,None,226.73865396000912,None,226.73865396000912,None,,,,,,,,,,,,,,109,2023-04-03_16h09.14.875,Main,2022.1.1,61.13609200830137,
neutral,neutral,1,k,k,,,,,,,,,2,6,42,1,,,,,,,,,main,1,1,1,neutral,neutral,k,k,1,0.8148707000073045,226.742693600012,227.75528839998879,227.73870620003436,None,226.742693600012,None,226.742693600012,None,226.742693600012,None,228.55525266001933,None,228.55525266001933,None,228.55525266001933,None,,,,,,,,,,,,,,109,2023-04-03_16h09.14.875,Main,2022.1.1,61.13609200830137,
negative,neutral,1,j,l,,,,,,,,,2,7,43,3,,,,,,,,,main,1,1,1,neutral,negative,l,l,1,0.9985963000217453,228.56483749998733,229.5719298000331,229.55533140001353,None,228.56483749998733,None,228.56483749998733,None,228.56483749998733,None,230.55532395998017,None,230.55532395998017,None,230.55532395998017,None,,,,,,,,,,,,,,109,2023-04-03_16h09.14.875,Main,2022.1.1,61.13609200830137,
negative,positive,1,j,l,,,,,,,,,2,8,44,6,,,,,,,,,main,1,1,1,positive,negative,l,l,1,0.6988209999981336,230.55834029999096,231.57190590002574,231.55524900002638,None,230.55834029999096,None,230.55834029999096,None,230.55834029999096,None,232.25524226001,None,232.25524226001,None,232.25524226001,None,,,,,,,,,,,,,,109,2023-04-03_16h09.14.875,Main,2022.1.1,61.13609200830137,
neutral,positive,1,k,k,,,,,,,,,2,9,45,4,,,,,,,,,main,1,1,1,positive,neutral,k,k,1,0.6786469999933615,232.25895370001672,233.2717661000206,233.2552560000331,None,232.25895370001672,None,232.25895370001672,None,232.25895370001672,None,233.93596816000064,None,233.93596816000064,None,233.93596816000064,None,,,,,,,,,,,,,,109,2023-04-03_16h09.14.875,Main,2022.1.1,61.13609200830137,
positive,negative,2,l,j,,,,,,,,,2,10,46,14,,,,,,,,,main,2,2,2,negative,positive,j,j,1,0.8145779999904335,233.93664060003357,234.93601579999086,234.93601579999086,None,233.93664060003357,None,233.93664060003357,None,233.93664060003357,None,235.75268406003016,None,235.75268406003016,None,235.75268406003016,None,,,,,,,,,,,,,,109,2023-04-03_16h09.14.875,Main,2022.1.1,61.13609200830137,
negative,negative,1,j,l,,,,,,,,,2,11,47,0,,,,,,,,,main,2,2,1,negative,negative,l,l,1,0.7152052999590524,235.75320879998617,236.7526644000318,236.7526644000318,None,235.75320879998617,None,235.75320879998617,None,235.75320879998617,None,237.4693180599832,None,237.4693180599832,None,237.4693180599832,None,,,,,,,,,,,,,,109,2023-04-03_16h09.14.875,Main,2022.1.1,61.13609200830137,
positive,negative,1,l,j,,,,,,,,,2,12,48,5,,,,,,,,,main,1,1,1,negative,positive,j,j,1,0.7172416999819688,237.4734735999955,238.48835509998025,238.47183860000223,None,237.4734735999955,None,237.4734735999955,None,237.4734735999955,None,239.18851706002607,None,239.18851706002607,None,239.18851706002607,None,,,,,,,,,,,,,,109,2023-04-03_16h09.14.875,Main,2022.1.1,61.13609200830137,
positive,positive,2,l,j,,,,,,,,,2,13,49,11,,,,,,,,,main,1,1,2,positive,positive,j,j,1,0.8479393000015989,239.19215560000157,240.20508370001335,240.18844790000003,None,239.19215560000157,None,239.19215560000157,None,239.19215560000157,None,241.0383682600339,None,241.0383682600339,None,241.0383682600339,None,,,,,,,,,,,,,,109,2023-04-03_16h09.14.875,Main,2022.1.1,61.13609200830137,
positive,neutral,2,l,j,,,,,,,,,2,14,50,17,,,,,,,,,main,2,2,2,neutral,positive,j,j,1,1.1484109000302851,241.04150960000698,242.0549972000299,242.03839479997987,None,241.04150960000698,None,241.04150960000698,None,241.04150960000698,None,243.18835496001412,None,243.18835496001412,None,243.18835496001412,None,,,,,,,,,,,,,,109,2023-04-03_16h09.14.875,Main,2022.1.1,61.13609200830137,
neutral,positive,2,k,k,,,,,,,,,2,15,51,13,,,,,,,,,main,1,1,2,positive,neutral,k,k,1,0.7980975999962538,243.19172960001742,244.20492360001663,244.18840640003327,None,243.19172960001742,None,243.19172960001742,None,243.19172960001742,None,244.98823865999003,None,244.98823865999003,None,244.98823865999003,None,,,,,,,,,,,,,,109,2023-04-03_16h09.14.875,Main,2022.1.1,61.13609200830137,
negative,positive,2,j,l,,,,,,,,,2,16,52,15,,,,,,,,,main,2,2,2,positive,negative,l,l,1,1.02940060000401,244.99141479999525,246.00255770003423,245.98573680000845,None,244.99141479999525,None,244.99141479999525,None,244.99141479999525,None,247.01904156001984,None,247.01904156001984,None,247.01904156001984,None,,,,,,,,,,,,,,109,2023-04-03_16h09.14.875,Main,2022.1.1,61.13609200830137,
neutral,negative,2,k,k,,,,,,,,,2,17,53,16,,,,,,,,,main,1,1,2,negative,neutral,k,k,1,0.8188902999972925,247.01901759998873,248.02162559999852,248.02162559999852,None,247.01901759998873,None,247.01901759998873,None,247.01901759998873,None,248.83633316000925,None,248.83633316000925,None,248.83633316000925,None,,,,,,,,,,,,,,109,2023-04-03_16h09.14.875,Main,2022.1.1,61.13609200830137,
positive,neutral,2,l,j,,,,,,,,,3,0,54,17,,,,,,,,,main,1,1,2,neutral,positive,j,j,1,0.7634254000149667,248.8429005999933,249.85476279997965,249.83818190003512,None,248.8429005999933,None,248.8429005999933,None,248.8429005999933,None,250.60484605999665,None,250.60484605999665,None,250.60484605999665,None,,,,,,,,,,,,,,109,2023-04-03_16h09.14.875,Main,2022.1.1,61.13609200830137,
neutral,negative,1,k,k,,,,,,,,,3,1,55,7,,,,,,,,,main,2,2,1,negative,neutral,k,k,1,0.7151146999676712,250.60787010000786,251.6214394000126,251.604865900008,None,250.60787010000786,None,250.60787010000786,None,250.60787010000786,None,252.32139385999182,None,252.32139385999182,None,252.32139385999182,None,,,,,,,,,,,,,,109,2023-04-03_16h09.14.875,Main,2022.1.1,61.13609200830137,
positive,positive,1,l,j,,,,,,,,,3,2,56,2,,,,,,,,,main,2,2,1,positive,positive,j,j,1,0.7650564999785274,252.32471100002294,253.33802460000152,253.3214565999806,None,252.32471100002294,None,252.32471100002294,None,252.32471100002294,None,254.08805675997866,None,254.08805675997866,None,254.08805675997866,None,,,,,,,,,,,,,,109,2023-04-03_16h09.14.875,Main,2022.1.1,61.13609200830137,
neutral,negative,2,k,k,,,,,,,,,3,3,57,16,,,,,,,,,main,1,1,2,negative,neutral,k,k,1,0.695819600019604,254.09138870000606,255.10222699999576,255.0855545999948,None,254.09138870000606,None,254.09138870000606,None,254.09138870000606,None,255.78551286000294,None,255.78551286000294,None,255.78551286000294,None,,,,,,,,,,,,,,109,2023-04-03_16h09.14.875,Main,2022.1.1,61.13609200830137,
negative,neutral,2,j,l,,,,,,,,,3,4,58,12,,,,,,,,,main,2,2,2,neutral,negative,l,l,1,0.8484829000080936,255.78554810001515,256.7855726000271,256.7855726000271,None,255.78554810001515,None,255.78554810001515,None,255.78554810001515,None,257.6355892599793,None,257.6355892599793,None,257.6355892599793,None,,,,,,,,,,,,,,109,2023-04-03_16h09.14.875,Main,2022.1.1,61.13609200830137,
positive,positive,2,l,j,,,,,,,,,3,5,59,11,,,,,,,,,main,2,2,2,positive,positive,j,j,1,0.7486135000362992,257.63608239998575,258.63554220000515,258.63554220000515,None,257.63608239998575,None,257.63608239998575,None,257.63608239998575,None,259.38571516000667,None,259.38571516000667,None,259.38571516000667,None,,,,,,,,,,,,,,109,2023-04-03_16h09.14.875,Main,2022.1.1,61.13609200830137,
negative,neutral,1,j,l,,,,,,,,,3,6,60,3,,,,,,,,,main,1,1,1,neutral,negative,l,l,1,0.8003655000356957,259.39209700003266,260.40462570003,260.3880434000166,None,259.39209700003266,None,259.39209700003266,None,259.39209700003266,None,261.1878408599994,None,261.1878408599994,None,261.1878408599994,None,,,,,,,,,,,,,,109,2023-04-03_16h09.14.875,Main,2022.1.1,61.13609200830137,
negative,negative,1,j,l,,,,,,,,,3,7,61,0,,,,,,,,,main,1,1,1,negative,negative,l,l,1,0.6644426999846473,261.1919654000085,262.20455979998223,262.1879843000206,None,261.1919654000085,None,261.1919654000085,None,261.1919654000085,None,262.8545721600065,None,262.8545721600065,None,262.8545721600065,None,,,,,,,,,,,,,,109,2023-04-03_16h09.14.875,Main,2022.1.1,61.13609200830137,
neutral,positive,2,k,k,,,,,,,,,3,8,62,13,,,,,,,,,main,1,1,2,positive,neutral,k,k,1,0.7817062999820337,262.8573065000237,263.87112169998,263.85462340002414,None,262.8573065000237,None,262.8573065000237,None,262.8573065000237,None,264.6378764599911,None,264.6378764599911,None,264.6378764599911,None,,,,,,,,,,,,,,109,2023-04-03_16h09.14.875,Main,2022.1.1,61.13609200830137,
negative,positive,2,j,l,,,,,,,,,3,9,63,15,,,,,,,,,main,2,2,2,positive,negative,l,l,1,0.8143447000184096,264.6421189000248,265.6544670999865,265.63787510001566,None,264.6421189000248,None,264.6421189000248,None,264.6421189000248,None,266.4544532600092,None,266.4544532600092,None,266.4544532600092,None,,,,,,,,,,,,,,109,2023-04-03_16h09.14.875,Main,2022.1.1,61.13609200830137,
positive,neutral,1,l,j,,,,,,,,,3,10,64,8,,,,,,,,,main,2,2,1,neutral,positive,j,j,1,0.745820099953562,266.457755099982,267.46858480002265,267.45192020002287,None,266.457755099982,None,266.457755099982,None,266.457755099982,None,268.20192356001354,None,268.20192356001354,None,268.20192356001354,None,,,,,,,,,,,,,,109,2023-04-03_16h09.14.875,Main,2022.1.1,61.13609200830137,
neutral,neutral,1,k,k,,,,,,,,,3,11,65,1,,,,,,,,,main,1,1,1,neutral,neutral,k,k,1,0.6314913000096567,268.2019576000166,269.20194300002186,269.20194300002186,None,268.2019576000166,None,268.2019576000166,None,268.2019576000166,None,269.8352642600192,None,269.8352642600192,None,269.8352642600192,None,,,,,,,,,,,,,,109,2023-04-03_16h09.14.875,Main,2022.1.1,61.13609200830137,
positive,negative,1,l,j,,,,,,,,,3,12,66,5,,,,,,,,,main,2,2,1,negative,positive,j,j,1,0.700180999992881,269.8368733000243,270.8519500999828,270.8352821000153,None,269.8368733000243,None,269.8368733000243,None,269.8368733000243,None,271.53767606000184,None,271.53767606000184,None,271.53767606000184,None,,,,,,,,,,,,,,109,2023-04-03_16h09.14.875,Main,2022.1.1,61.13609200830137,
neutral,neutral,2,k,k,,,,,,,,,3,13,67,10,,,,,,,,,main,1,1,2,neutral,neutral,k,k,1,0.5815479999873787,271.5416547000059,272.55443150002975,272.5377602999797,None,271.5416547000059,None,271.5416547000059,None,271.5416547000059,None,273.1209818599862,None,273.1209818599862,None,273.1209818599862,None,,,,,,,,,,,,,,109,2023-04-03_16h09.14.875,Main,2022.1.1,61.13609200830137,
neutral,positive,1,k,k,,,,,,,,,3,14,68,4,,,,,,,,,main,1,1,1,positive,neutral,k,k,1,0.7154500000178814,273.12380770000163,274.1376323000295,274.1210275000194,None,273.12380770000163,None,273.12380770000163,None,273.12380770000163,None,274.8376020600088,None,274.8376020600088,None,274.8376020600088,None,,,,,,,,,,,,,,109,2023-04-03_16h09.14.875,Main,2022.1.1,61.13609200830137,
negative,positive,1,j,l,,,,,,,,,3,15,69,6,,,,,,,,,main,1,1,1,positive,negative,l,l,1,0.8316168999881484,274.84092350001447,275.85432220000075,275.8376374000218,None,274.84092350001447,None,274.84092350001447,None,274.84092350001447,None,276.6708765599877,None,276.6708765599877,None,276.6708765599877,None,,,,,,,,,,,,,,109,2023-04-03_16h09.14.875,Main,2022.1.1,61.13609200830137,
positive,negative,2,l,j,,,,,,,,,3,16,70,14,,,,,,,,,main,2,2,2,negative,positive,j,j,1,0.7625072000082582,276.6739921999979,277.6875116000301,277.67097159998957,None,276.6739921999979,None,276.6739921999979,None,276.6739921999979,None,278.43512726000046,None,278.43512726000046,None,278.43512726000046,None,,,,,,,,,,,,,,109,2023-04-03_16h09.14.875,Main,2022.1.1,61.13609200830137,
negative,negative,2,j,l,,,,,,,,,3,17,71,9,,,,,,,,,main,2,2,2,negative,negative,l,l,1,0.9153031000168994,278.44087240000954,279.45165529998485,279.4349820999778,None,278.44087240000954,None,278.44087240000954,None,278.44087240000954,None,280.3516723599867,None,280.3516723599867,None,280.3516723599867,None,,,,,,,,,,,,,,109,2023-04-03_16h09.14.875,Main,2022.1.1,61.13609200830137,
neutral,neutral,2,k,k,,,,,,,,,4,0,72,10,,,,,,,,,main,2,2,2,neutral,neutral,k,k,1,0.697934299998451,280.3520088000223,281.35169229999883,281.35169229999883,None,280.3520088000223,None,280.3520088000223,None,280.3520088000223,None,282.05163616001374,None,282.05163616001374,None,282.05163616001374,None,,,,,,,,,,,,,,109,2023-04-03_16h09.14.875,Main,2022.1.1,61.13609200830137,
neutral,negative,1,k,k,,,,,,,,,4,1,73,7,,,,,,,,,main,1,1,1,negative,neutral,k,k,1,0.7015549999778159,282.05189780000364,283.0516550000175,283.0516550000175,None,282.05189780000364,None,282.05189780000364,None,282.05189780000364,None,283.7543235599995,None,283.7543235599995,None,283.7543235599995,None,,,,,,,,,,,,,,109,2023-04-03_16h09.14.875,Main,2022.1.1,61.13609200830137,
negative,neutral,2,j,l,,,,,,,,,4,2,74,12,,,,,,,,,main,2,2,2,neutral,negative,l,l,1,0.8809910000418313,283.75812519999454,284.77071070001693,284.7541290000081,None,283.75812519999454,None,283.75812519999454,None,283.75812519999454,None,285.6372764600208,None,285.6372764600208,None,285.6372764600208,None,,,,,,,,,,,,,,109,2023-04-03_16h09.14.875,Main,2022.1.1,61.13609200830137,
negative,negative,1,j,l,,,,,,,,,4,3,75,0,,,,,,,,,main,2,2,1,negative,negative,l,l,1,0.6819081999710761,285.6415445000166,286.65393169998424,286.63739129999885,None,285.6415445000166,None,285.6415445000166,None,285.6415445000166,None,287.32060956001516,None,287.32060956001516,None,287.32060956001516,None,,,,,,,,,,,,,,109,2023-04-03_16h09.14.875,Main,2022.1.1,61.13609200830137,
neutral,negative,2,k,k,,,,,,,,,4,4,76,16,,,,,,,,,main,1,1,2,negative,neutral,k,k,1,0.6960314000025392,287.3235473000095,288.3372832000023,288.3206222000299,None,287.3235473000095,None,287.3235473000095,None,287.3235473000095,None,289.0184766600258,None,289.0184766600258,None,289.0184766600258,None,,,,,,,,,,,,,,109,2023-04-03_16h09.14.875,Main,2022.1.1,61.13609200830137,
positive,positive,1,l,j,,,,,,,,,4,5,77,2,,,,,,,,,main,1,1,1,positive,positive,j,j,1,0.7472957000136375,289.02242990001105,290.03724020003574,290.02065500000026,None,289.02242990001105,None,289.02242990001105,None,289.02242990001105,None,290.7680536600063,None,290.7680536600063,None,290.7680536600063,None,,,,,,,,,,,,,,109,2023-04-03_16h09.14.875,Main,2022.1.1,61.13609200830137,
negative,negative,2,j,l,,,,,,,,,4,6,78,9,,,,,,,,,main,2,2,2,negative,negative,l,l,1,0.7152586000156589,290.7680453999783,291.7680875000078,291.7680875000078,None,290.7680453999783,None,290.7680453999783,None,290.7680453999783,None,292.4847673599841,None,292.4847673599841,None,292.4847673599841,None,,,,,,,,,,,,,,109,2023-04-03_16h09.14.875,Main,2022.1.1,61.13609200830137,
negative,neutral,1,j,l,,,,,,,,,4,7,79,3,,,,,,,,,main,2,2,1,neutral,negative,l,l,1,0.9842737999861129,292.48818510002457,293.4872433000128,293.4872433000128,None,292.48818510002457,None,292.48818510002457,None,292.48818510002457,None,294.4704929600237,None,294.4704929600237,None,294.4704929600237,None,,,,,,,,,,,,,,109,2023-04-03_16h09.14.875,Main,2022.1.1,61.13609200830137,
negative,positive,1,j,l,,,,,,,,,4,8,80,6,,,,,,,,,main,2,2,1,positive,negative,l,l,1,0.6148492000065744,294.47399450000376,295.4871564999921,295.46849499997916,None,294.47399450000376,None,294.47399450000376,None,294.47399450000376,None,296.0871187599958,None,296.0871187599958,None,296.0871187599958,None,,,,,,,,,,,,,,109,2023-04-03_16h09.14.875,Main,2022.1.1,61.13609200830137,
positive,negative,1,l,j,,,,,,,,,4,9,81,5,,,,,,,,,main,2,2,1,negative,positive,j,j,1,0.7984937999863178,296.09053290000884,297.103766300017,297.0871721000294,None,296.09053290000884,None,296.09053290000884,None,296.09053290000884,None,297.8870586599922,None,297.8870586599922,None,297.8870586599922,None,,,,,,,,,,,,,,109,2023-04-03_16h09.14.875,Main,2022.1.1,61.13609200830137,
neutral,positive,1,k,k,,,,,,,,,4,10,82,4,,,,,,,,,main,2,2,1,positive,neutral,k,k,1,0.6814522000495344,297.8906141000334,298.90372549998574,298.8871225999901,None,297.8906141000334,None,297.8906141000334,None,297.8906141000334,None,299.57035285998137,None,299.57035285998137,None,299.57035285998137,None,,,,,,,,,,,,,,109,2023-04-03_16h09.14.875,Main,2022.1.1,61.13609200830137,
positive,negative,2,l,j,,,,,,,,,4,11,83,14,,,,,,,,,main,1,1,2,negative,positive,j,j,1,0.9122311999672092,299.57354830001714,300.5870187000255,300.57075630000327,None,299.57354830001714,None,299.57354830001714,None,299.57354830001714,None,301.4844921599841,None,301.4844921599841,None,301.4844921599841,None,,,,,,,,,,,,,,109,2023-04-03_16h09.14.875,Main,2022.1.1,61.13609200830137,
neutral,neutral,1,k,k,,,,,,,,,4,12,84,1,,,,,,,,,main,1,1,1,neutral,neutral,k,k,1,0.6975551000214182,301.4850197000196,302.48451460001525,302.48451460001525,None,301.4850197000196,None,301.4850197000196,None,301.4850197000196,None,303.18451696000994,None,303.18451696000994,None,303.18451696000994,None,,,,,,,,,,,,,,109,2023-04-03_16h09.14.875,Main,2022.1.1,61.13609200830137,
positive,neutral,2,l,j,,,,,,,,,4,13,85,17,,,,,,,,,main,1,1,2,neutral,positive,j,j,1,0.8511662000091746,303.188253899978,304.20360820001224,304.1703405000153,None,303.188253899978,None,303.188253899978,None,303.188253899978,None,305.0369015599834,None,305.0369015599834,None,305.0369015599834,None,,,,,,,,,,,,,,109,2023-04-03_16h09.14.875,Main,2022.1.1,61.13609200830137,
negative,positive,2,j,l,,,,,,,,,4,14,86,15,,,,,,,,,main,2,2,2,positive,negative,l,l,1,0.7696613000007346,305.04016299999785,306.0535659000161,306.03690200002166,None,305.04016299999785,None,305.04016299999785,None,305.04016299999785,None,306.80357086001897,None,306.80357086001897,None,306.80357086001897,None,,,,,,,,,,,,,,109,2023-04-03_16h09.14.875,Main,2022.1.1,61.13609200830137,
positive,neutral,1,l,j,,,,,,,,,4,15,87,8,,,,,,,,,main,2,2,1,neutral,positive,j,j,1,0.7435236999881454,306.8117656999966,307.82021849998273,307.80358240002533,None,306.8117656999966,None,306.8117656999966,None,306.8117656999966,None,308.55349456002006,None,308.55349456002006,None,308.55349456002006,None,,,,,,,,,,,,,,109,2023-04-03_16h09.14.875,Main,2022.1.1,61.13609200830137,
positive,positive,2,l,j,,,,,,,,,4,16,88,11,,,,,,,,,main,1,1,2,positive,positive,j,j,1,0.682021300017368,308.55644230003236,309.5701649999828,309.55355620000046,None,308.55644230003236,None,308.55644230003236,None,308.55644230003236,None,310.2369228599826,None,310.2369228599826,None,310.2369228599826,None,,,,,,,,,,,,,,109,2023-04-03_16h09.14.875,Main,2022.1.1,61.13609200830137,
neutral,positive,2,k,k,,,,,,,,,4,17,89,13,,,,,,,,,main,1,1,2,positive,neutral,k,k,1,0.6631789999664761,310.2401054999791,311.2509396999958,311.23428279999644,None,310.2401054999791,None,310.2401054999791,None,310.2401054999791,None,311.9009618599783,None,311.9009618599783,None,311.9009618599783,None,,,,,,,,,,,,,,109,2023-04-03_16h09.14.875,Main,2022.1.1,61.13609200830137,
neutral,neutral,1,k,k,,,,,,,,,5,0,90,1,,,,,,,,,main,1,1,1,neutral,neutral,k,k,1,0.6997673999867402,311.90154570003506,312.9009812999866,312.9009812999866,None,311.90154570003506,None,311.90154570003506,None,311.90154570003506,None,313.60340935999994,None,313.60340935999994,None,313.60340935999994,None,,,,,,,,,,,,,,109,2023-04-03_16h09.14.875,Main,2022.1.1,61.13609200830137,
positive,negative,1,l,j,,,,,,,,,5,1,91,5,,,,,,,,,main,1,1,1,negative,positive,j,j,1,0.9154625000082888,313.6072106999927,314.61998140002834,314.6034660000005,None,313.6072106999927,None,313.6072106999927,None,313.6072106999927,None,315.5200550599955,None,315.5200550599955,None,315.5200550599955,None,,,,,,,,,,,,,,109,2023-04-03_16h09.14.875,Main,2022.1.1,61.13609200830137,
negative,negative,1,j,l,,,,,,,,,5,2,92,0,,,,,,,,,main,1,1,1,negative,negative,l,l,1,0.8126159000094049,315.5232794000185,316.53665389999514,316.5200515000033,None,315.5232794000185,None,315.5232794000185,None,315.5232794000185,None,317.33452876000666,None,317.33452876000666,None,317.33452876000666,None,,,,,,,,,,,,,,109,2023-04-03_16h09.14.875,Main,2022.1.1,61.13609200830137,
negative,positive,2,j,l,,,,,,,,,5,3,93,15,,,,,,,,,main,1,1,2,positive,negative,l,l,1,0.7643490999471396,317.33886180003174,318.35330230003456,318.3367073999834,None,317.33886180003174,None,317.33886180003174,None,317.33886180003174,None,319.10110276001507,None,319.10110276001507,None,319.10110276001507,None,,,,,,,,,,,,,,109,2023-04-03_16h09.14.875,Main,2022.1.1,61.13609200830137,
negative,neutral,2,j,l,,,,,,,,,5,4,94,12,,,,,,,,,main,2,2,2,neutral,negative,l,l,1,0.667921100044623,319.1075309999869,320.119928500033,320.1032983000041,None,319.1075309999869,None,319.1075309999869,None,319.1075309999869,None,320.77072296001717,None,320.77072296001717,None,320.77072296001717,None,,,,,,,,,,,,,,109,2023-04-03_16h09.14.875,Main,2022.1.1,61.13609200830137,
negative,positive,1,j,l,,,,,,,,,5,5,95,6,,,,,,,,,main,1,1,1,positive,negative,l,l,1,0.6117885999847203,320.784307599999,321.78405519999797,321.7673822999932,None,320.784307599999,None,320.784307599999,None,320.784307599999,None,322.38402676001425,None,322.38402676001425,None,322.38402676001425,None,,,,,,,,,,,,,,109,2023-04-03_16h09.14.875,Main,2022.1.1,61.13609200830137,
negative,negative,2,j,l,,,,,,,,,5,6,96,9,,,,,,,,,main,2,2,2,negative,negative,l,l,1,0.6520139999920502,322.38401879998855,323.3865901000099,323.3865901000099,None,322.38401879998855,None,322.38401879998855,None,322.38401879998855,None,324.0365988600068,None,324.0365988600068,None,324.0365988600068,None,,,,,,,,,,,,,,109,2023-04-03_16h09.14.875,Main,2022.1.1,61.13609200830137,
neutral,negative,2,k,k,,,,,,,,,5,7,97,16,,,,,,,,,main,1,1,2,negative,neutral,k,k,1,0.6638338000047952,324.04040260001784,325.05314999999246,325.0365473999991,None,324.04040260001784,None,324.04040260001784,None,324.04040260001784,None,325.7030962599791,None,325.7030962599791,None,325.7030962599791,None,,,,,,,,,,,,,,109,2023-04-03_16h09.14.875,Main,2022.1.1,61.13609200830137,
negative,neutral,1,j,l,,,,,,,,,5,8,98,3,,,,,,,,,main,2,2,1,neutral,negative,l,l,1,0.9465275999973528,325.7057980999816,326.7198717999854,326.703175200033,None,325.7057980999816,None,325.7057980999816,None,325.7057980999816,None,327.6509817600134,None,327.6509817600134,None,327.6509817600134,None,,,,,,,,,,,,,,109,2023-04-03_16h09.14.875,Main,2022.1.1,61.13609200830137,
positive,negative,2,l,j,,,,,,,,,5,9,99,14,,,,,,,,,main,1,1,2,negative,positive,j,j,1,0.7503805999876931,327.65399920003256,328.65315840003313,328.65315840003313,None,327.65399920003256,None,327.65399920003256,None,327.65399920003256,None,329.4029426599853,None,329.4029426599853,None,329.4029426599853,None,,,,,,,,,,,,,,109,2023-04-03_16h09.14.875,Main,2022.1.1,61.13609200830137,
positive,neutral,1,l,j,,,,,,,,,5,10,100,8,,,,,,,,,main,2,2,1,neutral,positive,j,j,1,1.062865900050383,329.40566769998986,330.4167684999993,330.40006760001415,None,329.40566769998986,None,329.40566769998986,None,329.40566769998986,None,331.4671629599878,None,331.4671629599878,None,331.4671629599878,None,,,,,,,,,,,,,,109,2023-04-03_16h09.14.875,Main,2022.1.1,61.13609200830137,
neutral,neutral,2,k,k,,,,,,,,,5,11,101,10,,,,,,,,,main,1,1,2,neutral,neutral,k,k,1,0.6648409000481479,331.46717710001394,332.46718769997824,332.46718769997824,None,331.46717710001394,None,331.46717710001394,None,331.46717710001394,None,333.13386345999317,None,333.13386345999317,None,333.13386345999317,None,,,,,,,,,,,,,,109,2023-04-03_16h09.14.875,Main,2022.1.1,61.13609200830137,
positive,neutral,2,l,j,,,,,,,,,5,12,102,17,,,,,,,,,main,2,2,2,neutral,positive,j,j,1,0.7010681999963708,333.13525320001645,334.15053430001717,334.1338850000175,None,333.13525320001645,None,333.13525320001645,None,333.13525320001645,None,334.8363712600083,None,334.8363712600083,None,334.8363712600083,None,,,,,,,,,,,,,,109,2023-04-03_16h09.14.875,Main,2022.1.1,61.13609200830137,
neutral,positive,1,k,k,,,,,,,,,5,13,103,4,,,,,,,,,main,1,1,1,positive,neutral,k,k,1,0.6649232999770902,334.83924130001105,335.8529359999811,335.83632750000106,None,334.83924130001105,None,334.83924130001105,None,334.83924130001105,None,336.50293035998476,None,336.50293035998476,None,336.50293035998476,None,,,,,,,,,,,,,,109,2023-04-03_16h09.14.875,Main,2022.1.1,61.13609200830137,
neutral,positive,2,k,k,,,,,,,,,5,14,104,13,,,,,,,,,main,1,1,2,positive,neutral,k,k,1,0.698605099983979,336.50589030003175,337.51953859999776,337.50295609998284,None,336.50589030003175,None,336.50589030003175,None,336.50589030003175,None,338.20300086000935,None,338.20300086000935,None,338.20300086000935,None,,,,,,,,,,,,,,109,2023-04-03_16h09.14.875,Main,2022.1.1,61.13609200830137,
positive,positive,1,l,j,,,,,,,,,5,15,105,2,,,,,,,,,main,1,1,1,positive,positive,j,j,1,0.6146173999877647,338.2062683000113,339.2194968999829,339.2029046000098,None,338.2062683000113,None,338.2062683000113,None,338.2062683000113,None,339.8194976599887,None,339.8194976599887,None,339.8194976599887,None,,,,,,,,,,,,,,109,2023-04-03_16h09.14.875,Main,2022.1.1,61.13609200830137,
positive,positive,2,l,j,,,,,,,,,5,16,106,11,,,,,,,,,main,2,2,2,positive,positive,j,j,1,0.6124970000237226,339.82347890001256,340.83613950002473,340.8195495000109,None,339.82347890001256,None,339.82347890001256,None,339.82347890001256,None,341.4339908600203,None,341.4339908600203,None,341.4339908600203,None,,,,,,,,,,,,,,109,2023-04-03_16h09.14.875,Main,2022.1.1,61.13609200830137,
neutral,negative,1,k,k,,,,,,,,,5,17,107,7,,,,,,,,,main,1,1,1,negative,neutral,k,k,1,0.5987558999913745,341.43759400001727,342.45026000001235,342.43356199999107,None,341.43759400001727,None,341.43759400001727,None,341.43759400001727,None,343.0335678599775,None,343.0335678599775,None,343.0335678599775,None,,,,,,,,,,,,,,109,2023-04-03_16h09.14.875,Main,2022.1.1,61.13609200830137,
neutral,neutral,2,k,k,,,,,,,,,6,0,108,10,,,,,,,,,main,2,2,2,neutral,neutral,k,k,1,0.7000412999768741,343.0345520999981,344.03362990001915,344.03362990001915,None,343.0345520999981,None,343.0345520999981,None,343.0345520999981,None,344.7361520599923,None,344.7361520599923,None,344.7361520599923,None,,,,,,,,,,,,,,109,2023-04-03_16h09.14.875,Main,2022.1.1,61.13609200830137,
positive,neutral,1,l,j,,,,,,,,,6,1,109,8,,,,,,,,,main,2,2,1,neutral,positive,j,j,1,0.6627866000053473,344.7400937000057,345.7526923000114,345.73612389998743,None,344.7400937000057,None,344.7400937000057,None,344.7400937000057,None,346.40039115999826,None,346.40039115999826,None,346.40039115999826,None,,,,,,,,,,,,,,109,2023-04-03_16h09.14.875,Main,2022.1.1,61.13609200830137,
negative,negative,2,j,l,,,,,,,,,6,2,110,9,,,,,,,,,main,2,2,2,negative,negative,l,l,1,0.6340020999778062,346.4065777999931,347.4193124999874,347.4027906000265,None,346.4065777999931,None,346.4065777999931,None,346.4065777999931,None,348.0360568600125,None,348.0360568600125,None,348.0360568600125,None,,,,,,,,,,,,,,109,2023-04-03_16h09.14.875,Main,2022.1.1,61.13609200830137,
negative,neutral,2,j,l,,,,,,,,,6,3,111,12,,,,,,,,,main,1,1,2,neutral,negative,l,l,1,0.6961912999977358,348.03880360000767,349.0526249000104,349.03601480001817,None,348.03880360000767,None,348.03880360000767,None,348.03880360000767,None,349.73371586001014,None,349.73371586001014,None,349.73371586001014,None,,,,,,,,,,,,,,109,2023-04-03_16h09.14.875,Main,2022.1.1,61.13609200830137,
negative,negative,1,j,l,,,,,,,,,6,4,112,0,,,,,,,,,main,2,2,1,negative,negative,l,l,1,0.7818555000121705,349.74020790000213,350.7525664999848,350.73598130000755,None,349.74020790000213,None,349.74020790000213,None,349.74020790000213,None,351.51708376001335,None,351.51708376001335,None,351.51708376001335,None,,,,,,,,,,,,,,109,2023-04-03_16h09.14.875,Main,2022.1.1,61.13609200830137,
positive,positive,2,l,j,,,,,,,,,6,5,113,11,,,,,,,,,main,2,2,2,positive,positive,j,j,1,0.7482079000328667,351.5206818000297,352.53336110000964,352.5167033000034,None,351.5206818000297,None,351.5206818000297,None,351.5206818000297,None,353.2666663599783,None,353.2666663599783,None,353.2666663599783,None,,,,,,,,,,,,,,109,2023-04-03_16h09.14.875,Main,2022.1.1,61.13609200830137,
positive,positive,1,l,j,,,,,,,,,6,6,114,2,,,,,,,,,main,2,2,1,positive,positive,j,j,1,0.684596800012514,353.26672389998566,354.26672010001494,354.26672010001494,None,353.26672389998566,None,353.26672389998566,None,353.26672389998566,None,354.9524227600312,None,354.9524227600312,None,354.9524227600312,None,,,,,,,,,,,,,,109,2023-04-03_16h09.14.875,Main,2022.1.1,61.13609200830137,
positive,negative,1,l,j,,,,,,,,,6,7,115,5,,,,,,,,,main,2,2,1,negative,positive,j,j,1,0.8478519000345841,354.9561924000154,355.9691489000106,355.9525299000088,None,354.9561924000154,None,354.9561924000154,None,354.9561924000154,None,356.8024326600251,None,356.8024326600251,None,356.8024326600251,None,,,,,,,,,,,,,,109,2023-04-03_16h09.14.875,Main,2022.1.1,61.13609200830137,
negative,positive,2,j,l,,,,,,,,,6,8,116,15,,,,,,,,,main,2,2,2,positive,negative,l,l,1,0.7817990999901667,356.80528550001327,357.81907720002346,357.8024961000192,None,356.80528550001327,None,356.80528550001327,None,356.80528550001327,None,358.58571995999665,None,358.58571995999665,None,358.58571995999665,None,,,,,,,,,,,,,,109,2023-04-03_16h09.14.875,Main,2022.1.1,61.13609200830137,
negative,neutral,1,j,l,,,,,,,,,6,9,117,3,,,,,,,,,main,2,2,1,neutral,negative,l,l,1,0.6982926999917254,358.589870100026,359.60240109998267,359.58578030002536,None,358.589870100026,None,358.589870100026,None,358.589870100026,None,360.28563385999297,None,360.28563385999297,None,360.28563385999297,None,,,,,,,,,,,,,,109,2023-04-03_16h09.14.875,Main,2022.1.1,61.13609200830137,
neutral,negative,2,k,k,,,,,,,,,6,10,118,16,,,,,,,,,main,1,1,2,negative,neutral,k,k,1,0.6802099000196904,360.28836690000026,361.3579761000001,361.2857296000002,None,360.28836690000026,None,360.28836690000026,None,360.28836690000026,None,361.96647686000216,None,361.96647686000216,None,361.96647686000216,None,,,,,,,,,,,,,,109,2023-04-03_16h09.14.875,Main,2022.1.1,61.13609200830137,
neutral,positive,2,k,k,,,,,,,,,6,11,119,13,,,,,,,,,main,2,2,2,positive,neutral,k,k,1,0.6310458999942057,361.96732090000296,362.9665021999972,362.9665021999972,None,361.96732090000296,None,361.96732090000296,None,361.96732090000296,None,363.5998234599945,None,363.5998234599945,None,363.5998234599945,None,,,,,,,,,,,,,,109,2023-04-03_16h09.14.875,Main,2022.1.1,61.13609200830137,
neutral,positive,1,k,k,,,,,,,,,6,12,120,4,,,,,,,,,main,2,2,1,positive,neutral,k,k,1,0.5841590000200085,363.59983479999937,364.6023532000254,364.6023532000254,None,363.59983479999937,None,363.59983479999937,None,363.59983479999937,None,365.1855806600186,None,365.1855806600186,None,365.1855806600186,None,,,,,,,,,,,,,,109,2023-04-03_16h09.14.875,Main,2022.1.1,61.13609200830137,
positive,negative,2,l,j,,,,,,,,,6,13,121,14,,,,,,,,,main,2,2,2,negative,positive,j,j,1,0.6479824999696575,365.1886099000112,366.20223559997976,366.18564300000435,None,365.1886099000112,None,365.1886099000112,None,365.1886099000112,None,366.8351237599971,None,366.8351237599971,None,366.8351237599971,None,,,,,,,,,,,,,,109,2023-04-03_16h09.14.875,Main,2022.1.1,61.13609200830137,
neutral,negative,1,k,k,,,,,,,,,6,14,122,7,,,,,,,,,main,1,1,1,negative,neutral,k,k,1,0.6967541999765672,366.8402528000297,367.85219750000397,367.8355702999979,None,366.8402528000297,None,366.8402528000297,None,366.8402528000297,None,368.5332454600255,None,368.5332454600255,None,368.5332454600255,None,,,,,,,,,,,,,,109,2023-04-03_16h09.14.875,Main,2022.1.1,61.13609200830137,
positive,neutral,2,l,j,,,,,,,,,6,15,123,17,,,,,,,,,main,2,2,2,neutral,positive,j,j,1,0.5838952999911271,368.5396119999932,369.5521582000074,369.53554940002505,None,368.5396119999932,None,368.5396119999932,None,368.5396119999932,None,370.11882525997936,None,370.11882525997936,None,370.11882525997936,None,,,,,,,,,,,,,,109,2023-04-03_16h09.14.875,Main,2022.1.1,61.13609200830137,
neutral,neutral,1,k,k,,,,,,,,,6,16,124,1,,,,,,,,,main,1,1,1,neutral,neutral,k,k,1,0.5648954000207596,370.12217849999433,371.13547179999296,371.1188609999954,None,370.12217849999433,None,370.12217849999433,None,370.12217849999433,None,371.6854896600242,None,371.6854896600242,None,371.6854896600242,None,,,,,,,,,,,,,,109,2023-04-03_16h09.14.875,Main,2022.1.1,61.13609200830137,
negative,positive,1,j,l,,,,,,,,,6,17,125,6,,,,,,,,,main,2,2,1,positive,negative,l,l,1,0.8295919000520371,371.68965449999087,372.6995944000082,372.6828969999915,None,371.68965449999087,None,371.68965449999087,None,371.68965449999087,None,373.5161700599827,None,373.5161700599827,None,373.5161700599827,None,,,,,,,,,,,,,,109,2023-04-03_16h09.14.875,Main,2022.1.1,61.13609200830137,
neutral,positive,1,k,k,,,,,,,,,7,0,126,4,,,,,,,,,main,2,2,1,positive,neutral,k,k,1,0.6985004000016488,373.51627690001624,374.51880180003354,374.51880180003354,None,373.51627690001624,None,373.51627690001624,None,373.51627690001624,None,375.21643346002094,None,375.21643346002094,None,375.21643346002094,None,,,,,,,,,,,,,,109,2023-04-03_16h09.14.875,Main,2022.1.1,61.13609200830137,
negative,neutral,1,j,l,,,,,,,,,7,1,127,3,,,,,,,,,main,2,2,1,neutral,negative,l,l,1,0.7004517000168562,375.2228911999846,376.23535670002457,376.2187626999803,None,375.2228911999846,None,375.2228911999846,None,375.2228911999846,None,376.91872456001585,None,376.91872456001585,None,376.91872456001585,None,,,,,,,,,,,,,,109,2023-04-03_16h09.14.875,Main,2022.1.1,61.13609200830137,
negative,positive,2,j,l,,,,,,,,,7,2,128,15,,,,,,,,,main,2,2,2,positive,negative,l,l,1,0.7467608000151813,376.9227981999866,377.9353191999835,377.91874629998347,None,376.9227981999866,None,376.9227981999866,None,376.9227981999866,None,378.66653545999435,None,378.66653545999435,None,378.66653545999435,None,,,,,,,,,,,,,,109,2023-04-03_16h09.14.875,Main,2022.1.1,61.13609200830137,
positive,negative,2,l,j,,,,,,,,,7,3,129,14,,,,,,,,,main,2,2,2,negative,positive,j,j,1,0.6305089999805205,378.6709315000335,379.685277600016,379.6687129000202,None,378.6709315000335,None,378.6709315000335,None,378.6709315000335,None,380.2998417600291,None,380.2998417600291,None,380.2998417600291,None,,,,,,,,,,,,,,109,2023-04-03_16h09.14.875,Main,2022.1.1,61.13609200830137,
positive,negative,1,l,j,,,,,,,,,7,4,130,5,,,,,,,,,main,2,2,1,negative,positive,j,j,1,0.6838003000011668,380.3035166999907,381.318490100035,381.30200780002633,None,380.3035166999907,None,380.3035166999907,None,380.3035166999907,None,381.9852206600015,None,381.9852206600015,None,381.9852206600015,None,,,,,,,,,,,,,,109,2023-04-03_16h09.14.875,Main,2022.1.1,61.13609200830137,
neutral,positive,2,k,k,,,,,,,,,7,5,131,13,,,,,,,,,main,1,1,2,positive,neutral,k,k,1,0.6130507999914698,381.98840949998703,382.9993327999837,382.9826691999915,None,381.98840949998703,None,381.98840949998703,None,381.98840949998703,None,383.5993009600323,None,383.5993009600323,None,383.5993009600323,None,,,,,,,,,,,,,,109,2023-04-03_16h09.14.875,Main,2022.1.1,61.13609200830137,
negative,positive,1,j,l,,,,,,,,,7,6,132,6,,,,,,,,,main,2,2,1,positive,negative,l,l,1,0.7693063000333495,383.5999560999917,384.5993888999801,384.5993888999801,None,383.5999560999917,None,383.5999560999917,None,383.5999560999917,None,385.3683957600268,None,385.3683957600268,None,385.3683957600268,None,,,,,,,,,,,,,,109,2023-04-03_16h09.14.875,Main,2022.1.1,61.13609200830137,
neutral,neutral,2,k,k,,,,,,,,,7,7,133,10,,,,,,,,,main,2,2,2,neutral,neutral,k,k,1,0.6128403999609873,385.374023500015,386.38508550002007,386.36846600001445,None,385.374023500015,None,385.374023500015,None,385.374023500015,None,386.9850928600179,None,386.9850928600179,None,386.9850928600179,None,,,,,,,,,,,,,,109,2023-04-03_16h09.14.875,Main,2022.1.1,61.13609200830137,
negative,negative,1,j,l,,,,,,,,,7,8,134,0,,,,,,,,,main,2,2,1,negative,negative,l,l,1,0.5629191999905743,386.98799729999155,388.0017438000068,387.98515600000974,None,386.98799729999155,None,386.98799729999155,None,386.98799729999155,None,388.54955395999133,None,388.54955395999133,None,388.54955395999133,None,,,,,,,,,,,,,,109,2023-04-03_16h09.14.875,Main,2022.1.1,61.13609200830137,
positive,positive,1,l,j,,,,,,,,,7,9,135,2,,,,,,,,,main,2,2,1,positive,positive,j,j,1,0.6838561999611557,388.55609720002394,389.56839000002947,389.5517562000314,None,388.55609720002394,None,388.55609720002394,None,388.55609720002394,None,390.2350282599917,None,390.2350282599917,None,390.2350282599917,None,,,,,,,,,,,,,,109,2023-04-03_16h09.14.875,Main,2022.1.1,61.13609200830137,
neutral,negative,2,k,k,,,,,,,,,7,10,136,16,,,,,,,,,main,2,2,2,negative,neutral,k,k,1,1.0623487000120804,390.2391542000114,391.2516879999894,391.23505840002326,None,390.2391542000114,None,390.2391542000114,None,390.2391542000114,None,392.299122260022,None,392.299122260022,None,392.299122260022,None,,,,,,,,,,,,,,109,2023-04-03_16h09.14.875,Main,2022.1.1,61.13609200830137,
negative,negative,2,j,l,,,,,,,,,7,11,137,9,,,,,,,,,main,1,1,2,negative,negative,l,l,1,0.6995185999548994,392.29914130002726,393.299170400016,393.299170400016,None,392.29914130002726,None,392.29914130002726,None,392.29914130002726,None,393.9991903600283,None,393.9991903600283,None,393.9991903600283,None,,,,,,,,,,,,,,109,2023-04-03_16h09.14.875,Main,2022.1.1,61.13609200830137,
positive,neutral,2,l,j,,,,,,,,,7,12,138,17,,,,,,,,,main,2,2,2,neutral,positive,j,j,1,0.6997886000317521,394.0158614999964,395.01827140001114,395.0016335999826,None,394.0158614999964,None,394.0158614999964,None,394.0158614999964,None,395.70153935999843,None,395.70153935999843,None,395.70153935999843,None,,,,,,,,,,,,,,109,2023-04-03_16h09.14.875,Main,2022.1.1,61.13609200830137,
neutral,negative,1,k,k,,,,,,,,,7,13,139,7,,,,,,,,,main,2,2,1,negative,neutral,k,k,1,0.615360600000713,395.70555150002474,396.7182283999864,396.7016341999988,None,395.70555150002474,None,395.70555150002474,None,395.70555150002474,None,397.3182133599883,None,397.3182133599883,None,397.3182133599883,None,,,,,,,,,,,,,,109,2023-04-03_16h09.14.875,Main,2022.1.1,61.13609200830137,
neutral,neutral,1,k,k,,,,,,,,,7,14,140,1,,,,,,,,,main,2,2,1,neutral,neutral,k,k,1,0.6154813999892212,397.32136150001315,398.33487580000656,398.31826169998385,None,397.32136150001315,None,397.32136150001315,None,397.32136150001315,None,398.93486515998376,None,398.93486515998376,None,398.93486515998376,None,,,,,,,,,,,,,,109,2023-04-03_16h09.14.875,Main,2022.1.1,61.13609200830137,
negative,neutral,2,j,l,,,,,,,,,7,15,141,12,,,,,,,,,main,1,1,2,neutral,negative,l,l,1,0.5979682000470348,398.93861549999565,399.95149330003187,399.93488620000426,None,398.93861549999565,None,398.93861549999565,None,398.93861549999565,None,400.5348769599921,None,400.5348769599921,None,400.5348769599921,None,,,,,,,,,,,,,,109,2023-04-03_16h09.14.875,Main,2022.1.1,61.13609200830137,
positive,neutral,1,l,j,,,,,,,,,7,16,142,8,,,,,,,,,main,2,2,1,neutral,positive,j,j,1,0.6322258000145666,400.53819460002705,401.55146669998066,401.5348543000291,None,400.53819460002705,None,400.53819460002705,None,400.53819460002705,None,402.16868806002896,None,402.16868806002896,None,402.16868806002896,None,,,,,,,,,,,,,,109,2023-04-03_16h09.14.875,Main,2022.1.1,61.13609200830137,
positive,positive,2,l,j,,,,,,,,,7,17,143,11,,,,,,,,,main,1,1,2,positive,positive,j,j,1,0.6286661000340246,402.18247070000507,403.1822778999922,403.1656114999787,None,402.18247070000507,None,402.18247070000507,None,402.18247070000507,None,403.7989216600079,None,403.7989216600079,None,403.7989216600079,None,,,,,,,,,,,,,,109,2023-04-03_16h09.14.875,Main,2022.1.1,61.13609200830137,
positive,negative,2,l,j,,,,,,,,,8,0,144,14,,,,,,,,,main,1,1,2,negative,positive,j,j,1,0.7340390999452211,403.79888519999804,404.80142969998997,404.80142969998997,None,403.79888519999804,None,403.79888519999804,None,403.79888519999804,None,405.53467586003245,None,405.53467586003245,None,405.53467586003245,None,,,,,,,,,,,,,,109,2023-04-03_16h09.14.875,Main,2022.1.1,61.13609200830137,
negative,negative,2,j,l,,,,,,,,,8,1,145,9,,,,,,,,,main,2,2,2,negative,negative,l,l,1,0.6695741000003181,405.53741140000056,406.5513183000148,406.5347377000144,None,405.53741140000056,None,405.53741140000056,None,405.53741140000056,None,407.20143476001687,None,407.20143476001687,None,407.20143476001687,None,,,,,,,,,,,,,,109,2023-04-03_16h09.14.875,Main,2022.1.1,61.13609200830137,
positive,negative,1,l,j,,,,,,,,,8,2,146,5,,,,,,,,,main,2,2,1,negative,positive,j,j,1,0.6442237000446767,407.2093430000241,408.21797450003214,408.2013575999881,None,407.2093430000241,None,407.2093430000241,None,407.2093430000241,None,408.85126705998556,None,408.85126705998556,None,408.85126705998556,None,,,,,,,,,,,,,,109,2023-04-03_16h09.14.875,Main,2022.1.1,61.13609200830137,
neutral,negative,2,k,k,,,,,,,,,8,3,147,16,,,,,,,,,main,1,1,2,negative,neutral,k,k,1,0.6962491000303999,408.8549087999854,409.86794229998486,409.85133680002764,None,408.8549087999854,None,408.8549087999854,None,408.8549087999854,None,410.54944575998235,None,410.54944575998235,None,410.54944575998235,None,,,,,,,,,,,,,,109,2023-04-03_16h09.14.875,Main,2022.1.1,61.13609200830137,
neutral,negative,1,k,k,,,,,,,,,8,4,148,7,,,,,,,,,main,1,1,1,negative,neutral,k,k,1,0.6309859000029974,410.55574270000216,411.5678879999905,411.5512873000116,None,410.55574270000216,None,410.55574270000216,None,410.55574270000216,None,412.18205026002835,None,412.18205026002835,None,412.18205026002835,None,,,,,,,,,,,,,,109,2023-04-03_16h09.14.875,Main,2022.1.1,61.13609200830137,
negative,neutral,1,j,l,,,,,,,,,8,5,149,3,,,,,,,,,main,2,2,1,neutral,negative,l,l,1,1.01505459996406,412.1820210000151,413.1820515000145,413.1820515000145,None,412.1820210000151,None,412.1820210000151,None,412.1820210000151,None,414.1986986600212,None,414.1986986600212,None,414.1986986600212,None,,,,,,,,,,,,,,109,2023-04-03_16h09.14.875,Main,2022.1.1,61.13609200830137,
positive,neutral,1,l,j,,,,,,,,,8,6,150,8,,,,,,,,,main,1,1,1,neutral,positive,j,j,1,0.7149168000323698,414.1998531999998,415.21536959998775,415.19872139999643,None,414.1998531999998,None,414.1998531999998,None,414.1998531999998,None,415.91537165998017,None,415.91537165998017,None,415.91537165998017,None,,,,,,,,,,,,,,109,2023-04-03_16h09.14.875,Main,2022.1.1,61.13609200830137,
positive,neutral,2,l,j,,,,,,,,,8,7,151,17,,,,,,,,,main,1,1,2,neutral,positive,j,j,1,0.7177758999750949,415.9188045000192,416.9177914999891,416.9012061000103,None,415.9188045000192,None,415.9188045000192,None,415.9188045000192,None,417.63443966001506,None,417.63443966001506,None,417.63443966001506,None,,,,,,,,,,,,,,109,2023-04-03_16h09.14.875,Main,2022.1.1,61.13609200830137,
negative,neutral,2,j,l,,,,,,,,,8,8,152,12,,,,,,,,,main,2,2,2,neutral,negative,l,l,1,0.6984274999704212,417.63726380001754,418.6510893999948,418.6344743000227,None,417.63726380001754,None,417.63726380001754,None,417.63726380001754,None,419.33437536000275,None,419.33437536000275,None,419.33437536000275,None,,,,,,,,,,,,,,109,2023-04-03_16h09.14.875,Main,2022.1.1,61.13609200830137,
negative,negative,1,j,l,,,,,,,,,8,9,153,0,,,,,,,,,main,2,2,1,negative,negative,l,l,1,0.6795759000233375,419.3375452000182,420.35102860000916,420.3344348000246,None,419.3375452000182,None,419.3375452000182,None,419.3375452000182,None,421.0152743600309,None,421.0152743600309,None,421.0152743600309,None,,,,,,,,,,,,,,109,2023-04-03_16h09.14.875,Main,2022.1.1,61.13609200830137,
positive,positive,1,l,j,,,,,,,,,8,10,154,2,,,,,,,,,main,2,2,1,positive,positive,j,j,1,0.7173373000114225,421.0220939000137,422.03440190001857,422.01772260002326,None,421.0220939000137,None,421.0220939000137,None,421.0220939000137,None,422.7342809600057,None,422.7342809600057,None,422.7342809600057,None,,,,,,,,,,,,,,109,2023-04-03_16h09.14.875,Main,2022.1.1,61.13609200830137,
negative,positive,1,j,l,,,,,,,,,8,11,155,6,,,,,,,,,main,2,2,1,positive,negative,l,l,1,0.6624343000003137,422.73772620002273,423.74845040001674,423.7317851000116,None,422.73772620002273,None,422.73772620002273,None,422.73772620002273,None,424.3984299600241,None,424.3984299600241,None,424.3984299600241,None,,,,,,,,,,,,,,109,2023-04-03_16h09.14.875,Main,2022.1.1,61.13609200830137,
positive,positive,2,l,j,,,,,,,,,8,12,156,11,,,,,,,,,main,1,1,2,positive,positive,j,j,1,0.6486179999774322,424.39842049998697,425.3984947000281,425.3984947000281,None,424.39842049998697,None,424.39842049998697,None,424.39842049998697,None,426.04880515999395,None,426.04880515999395,None,426.04880515999395,None,,,,,,,,,,,,,,109,2023-04-03_16h09.14.875,Main,2022.1.1,61.13609200830137,
neutral,neutral,2,k,k,,,,,,,,,8,13,157,10,,,,,,,,,main,1,1,2,neutral,neutral,k,k,1,0.600478500011377,426.05279739998514,427.0675614000065,427.05098910001107,None,426.05279739998514,None,426.05279739998514,None,426.05279739998514,None,427.6509129600134,None,427.6509129600134,None,427.6509129600134,None,,,,,,,,,,,,,,109,2023-04-03_16h09.14.875,Main,2022.1.1,61.13609200830137,
neutral,neutral,1,k,k,,,,,,,,,8,14,158,1,,,,,,,,,main,2,2,1,neutral,neutral,k,k,1,0.6985081000020728,427.6537662000046,428.66754100000253,428.65093619999243,None,427.6537662000046,None,427.6537662000046,None,427.6537662000046,None,429.3508169599925,None,429.3508169599925,None,429.3508169599925,None,,,,,,,,,,,,,,109,2023-04-03_16h09.14.875,Main,2022.1.1,61.13609200830137,
neutral,positive,2,k,k,,,,,,,,,8,15,159,13,,,,,,,,,main,1,1,2,positive,neutral,k,k,1,0.6657097000279464,429.3544292000006,430.3675002999953,430.35088270000415,None,429.3544292000006,None,429.3544292000006,None,429.3544292000006,None,431.0174918599776,None,431.0174918599776,None,431.0174918599776,None,,,,,,,,,,,,,,109,2023-04-03_16h09.14.875,Main,2022.1.1,61.13609200830137,
negative,positive,2,j,l,,,,,,,,,8,16,160,15,,,,,,,,,main,1,1,2,positive,negative,l,l,1,0.7955443999962881,431.0215221000253,432.03410520002944,432.0174860000261,None,431.0215221000253,None,431.0215221000253,None,431.0215221000253,None,432.8152902600239,None,432.8152902600239,None,432.8152902600239,None,,,,,,,,,,,,,,109,2023-04-03_16h09.14.875,Main,2022.1.1,61.13609200830137,
neutral,positive,1,k,k,,,,,,,,,8,17,161,4,,,,,,,,,main,2,2,1,positive,neutral,k,k,1,0.6658080999623053,432.81904460000806,433.83156020002207,433.8148921999964,None,432.81904460000806,None,432.81904460000806,None,432.81904460000806,None,434.4815671600052,None,434.4815671600052,None,434.4815671600052,None,,,,,,,,,,,,,,109,2023-04-03_16h09.14.875,Main,2022.1.1,61.13609200830137,
positive,negative,1,l,j,,,,,,,,,9,0,162,5,,,,,,,,,main,1,1,1,negative,positive,j,j,1,0.6139471999485977,434.48274000000674,435.49823790002847,435.48159540002234,None,434.48274000000674,None,434.48274000000674,None,434.48274000000674,None,436.0982434600126,None,436.0982434600126,None,436.0982434600126,None,,,,,,,,,,,,,,109,2023-04-03_16h09.14.875,Main,2022.1.1,61.13609200830137,
neutral,neutral,1,k,k,,,,,,,,,9,1,163,1,,,,,,,,,main,2,2,1,neutral,neutral,k,k,1,0.6507282000384293,436.1016559000127,437.10069120000117,437.10069120000117,None,436.1016559000127,None,436.1016559000127,None,436.1016559000127,None,437.7506852600025,None,437.7506852600025,None,437.7506852600025,None,,,,,,,,,,,,,,109,2023-04-03_16h09.14.875,Main,2022.1.1,61.13609200830137,
negative,neutral,2,j,l,,,,,,,,,9,2,164,12,,,,,,,,,main,1,1,2,neutral,negative,l,l,1,0.7125206000055186,437.75373280001804,438.76730250002583,438.75070540001616,None,437.75373280001804,None,437.75373280001804,None,437.75373280001804,None,439.4648473599926,None,439.4648473599926,None,439.4648473599926,None,,,,,,,,,,,,,,109,2023-04-03_16h09.14.875,Main,2022.1.1,61.13609200830137,
negative,negative,1,j,l,,,,,,,,,9,3,165,0,,,,,,,,,main,2,2,1,negative,negative,l,l,1,0.6723813999560662,439.47119280003244,440.48391640000045,440.46733439998934,None,439.47119280003244,None,439.47119280003244,None,439.47119280003244,None,441.1356871600263,None,441.1356871600263,None,441.1356871600263,None,,,,,,,,,,,,,,109,2023-04-03_16h09.14.875,Main,2022.1.1,61.13609200830137,
positive,positive,1,l,j,,,,,,,,,9,4,166,2,,,,,,,,,main,1,1,1,positive,positive,j,j,1,0.7089519999572076,441.1431004999904,442.15054080000846,442.133956100035,None,441.1431004999904,None,441.1431004999904,None,441.1431004999904,None,442.85052655999317,None,442.85052655999317,None,442.85052655999317,None,,,,,,,,,,,,,,109,2023-04-03_16h09.14.875,Main,2022.1.1,61.13609200830137,
negative,neutral,1,j,l,,,,,,,,,9,5,167,3,,,,,,,,,main,1,1,1,neutral,negative,l,l,1,0.6794003000250086,442.85419980000006,443.86465780000435,443.8480118000298,None,442.85419980000006,None,442.85419980000006,None,442.85419980000006,None,444.5312755599851,None,444.5312755599851,None,444.5312755599851,None,,,,,,,,,,,,,,109,2023-04-03_16h09.14.875,Main,2022.1.1,61.13609200830137,
negative,negative,2,j,l,,,,,,,,,9,6,168,9,,,,,,,,,main,1,1,2,negative,negative,l,l,1,0.6013668000232428,444.53130879998207,445.5313790999935,445.5313790999935,None,444.53130879998207,None,444.53130879998207,None,444.53130879998207,None,446.1339626599918,None,446.1339626599918,None,446.1339626599918,None,,,,,,,,,,,,,,109,2023-04-03_16h09.14.875,Main,2022.1.1,61.13609200830137,
positive,negative,2,l,j,,,,,,,,,9,7,169,14,,,,,,,,,main,1,1,2,negative,positive,j,j,1,0.8311194000416435,446.1371000999934,447.15045339998323,447.1338119999855,None,446.1371000999934,None,446.1371000999934,None,446.1371000999934,None,447.96701426001965,None,447.96701426001965,None,447.96701426001965,None,,,,,,,,,,,,,,109,2023-04-03_16h09.14.875,Main,2022.1.1,61.13609200830137,
negative,positive,2,j,l,,,,,,,,,9,8,170,15,,,,,,,,,main,2,2,2,positive,negative,l,l,1,0.6322215999825858,447.97003339999355,448.98372960003326,448.9671646000352,None,447.97003339999355,None,447.97003339999355,None,447.97003339999355,None,449.600523360027,None,449.600523360027,None,449.600523360027,None,,,,,,,,,,,,,,109,2023-04-03_16h09.14.875,Main,2022.1.1,61.13609200830137,
neutral,negative,2,k,k,,,,,,,,,9,9,171,16,,,,,,,,,main,2,2,2,negative,neutral,k,k,1,0.6148277000174858,449.60359850001987,450.6170364000136,450.60043900000164,None,449.60359850001987,None,449.60359850001987,None,449.60359850001987,None,451.21706365998836,None,451.21706365998836,None,451.21706365998836,None,,,,,,,,,,,,,,109,2023-04-03_16h09.14.875,Main,2022.1.1,61.13609200830137,
neutral,negative,1,k,k,,,,,,,,,9,10,172,7,,,,,,,,,main,1,1,1,negative,neutral,k,k,1,0.5818178000045009,451.2237332999939,452.2336570000043,452.2170954000321,None,451.2237332999939,None,451.2237332999939,None,451.2237332999939,None,452.80030686001993,None,452.80030686001993,None,452.80030686001993,None,,,,,,,,,,,,,,109,2023-04-03_16h09.14.875,Main,2022.1.1,61.13609200830137,
neutral,neutral,2,k,k,,,,,,,,,9,11,173,10,,,,,,,,,main,2,2,2,neutral,neutral,k,k,1,0.6124764999840409,452.8036498000147,453.8144474999863,453.79777649999596,None,452.8036498000147,None,452.8036498000147,None,452.8036498000147,None,454.4143995600287,None,454.4143995600287,None,454.4143995600287,None,,,,,,,,,,,,,,109,2023-04-03_16h09.14.875,Main,2022.1.1,61.13609200830137,
neutral,positive,2,k,k,,,,,,,,,9,12,174,13,,,,,,,,,main,1,1,2,positive,neutral,k,k,1,0.6175742000341415,454.414416500018,455.4145104000345,455.4145104000345,None,454.414416500018,None,454.414416500018,None,454.414416500018,None,456.03357986001066,None,456.03357986001066,None,456.03357986001066,None,,,,,,,,,,,,,,109,2023-04-03_16h09.14.875,Main,2022.1.1,61.13609200830137,
negative,positive,1,j,l,,,,,,,,,9,13,175,6,,,,,,,,,main,1,1,1,positive,negative,l,l,1,0.6495328000164591,456.03674910002155,457.0502445999882,457.03361069998937,None,456.03674910002155,None,456.03674910002155,None,456.03674910002155,None,457.6836239600205,None,457.6836239600205,None,457.6836239600205,None,,,,,,,,,,,,,,109,2023-04-03_16h09.14.875,Main,2022.1.1,61.13609200830137,
neutral,positive,1,k,k,,,,,,,,,9,14,176,4,,,,,,,,,main,1,1,1,positive,neutral,k,k,1,0.6969982000300661,457.6878735999926,458.7001835000119,458.6835878000129,None,457.6878735999926,None,457.6878735999926,None,457.6878735999926,None,459.38350225997857,None,459.38350225997857,None,459.38350225997857,None,,,,,,,,,,,,,,109,2023-04-03_16h09.14.875,Main,2022.1.1,61.13609200830137,
positive,positive,2,l,j,,,,,,,,,9,15,177,11,,,,,,,,,main,2,2,2,positive,positive,j,j,1,0.6819507000036538,459.38760110002477,460.400122400024,460.3835636000149,None,459.38760110002477,None,459.38760110002477,None,459.38760110002477,None,461.06684565999313,None,461.06684565999313,None,461.06684565999313,None,,,,,,,,,,,,,,109,2023-04-03_16h09.14.875,Main,2022.1.1,61.13609200830137,
positive,neutral,2,l,j,,,,,,,,,9,16,178,17,,,,,,,,,main,1,1,2,neutral,positive,j,j,1,0.6149458999861963,461.06968760001473,462.08346970001,462.06678980001016,None,461.06968760001473,None,461.06968760001473,None,461.06968760001473,None,462.6834180600243,None,462.6834180600243,None,462.6834180600243,None,,,,,,,,,,,,,,109,2023-04-03_16h09.14.875,Main,2022.1.1,61.13609200830137,
positive,neutral,1,l,j,,,,,,,,,9,17,179,8,,,,,,,,,main,2,2,1,neutral,positive,j,j,1,0.6793544000247493,462.6864202999859,463.6975389000145,463.68087670003297,None,462.6864202999859,None,462.6864202999859,None,462.6864202999859,None,464.3642050600145,None,464.3642050600145,None,464.3642050600145,None,,,,,,,,,,,,,,109,2023-04-03_16h09.14.875,Main,2022.1.1,61.13609200830137,
positive,neutral,1,l,j,,,,,,,,,10,0,180,8,,,,,,,,,main,2,2,1,neutral,positive,j,j,1,0.5649430999765173,464.3642308000126,465.36422260000836,465.36422260000836,None,464.3642308000126,None,464.3642308000126,None,464.3642308000126,None,465.93090745999945,None,465.93090745999945,None,465.93090745999945,None,,,,,,,,,,,,,,109,2023-04-03_16h09.14.875,Main,2022.1.1,61.13609200830137,
negative,positive,1,j,l,,,,,,,,,10,1,181,6,,,,,,,,,main,1,1,1,positive,negative,l,k,0,0.6183505000080913,465.93160690000514,466.93092100002104,466.93092100002104,None,465.93160690000514,None,465.93160690000514,None,465.93160690000514,None,467.55002279998735,None,467.55002279998735,None,467.55002279998735,None,,,,,,,,,,,,,,109,2023-04-03_16h09.14.875,Main,2022.1.1,61.13609200830137,
positive,positive,2,l,j,,,,,,,,,10,2,182,11,,,,,,,,,main,1,1,2,positive,positive,j,j,1,0.919975099968724,468.54840090003563,469.5500400000019,469.53333030000795,None,468.54840090003563,None,468.54840090003563,None,468.54840090003563,None,470.4665220599971,None,470.4665220599971,None,470.4665220599971,None,,,,,,,,,,,,,,109,2023-04-03_16h09.14.875,Main,2022.1.1,61.13609200830137,
neutral,neutral,1,k,k,,,,,,,,,10,3,183,1,,,,,,,,,main,1,1,1,neutral,neutral,k,k,1,0.76493040000787,470.4694435999845,471.48325410002144,471.46663789998274,None,470.4694435999845,None,470.4694435999845,None,470.4694435999845,None,472.2333394599962,None,472.2333394599962,None,472.2333394599962,None,,,,,,,,,,,,,,109,2023-04-03_16h09.14.875,Main,2022.1.1,61.13609200830137,
positive,negative,1,l,j,,,,,,,,,10,4,184,5,,,,,,,,,main,2,2,1,negative,positive,j,j,1,0.6951463000150397,472.2375396999996,473.2498593000346,473.2332910000114,None,472.2375396999996,None,472.2375396999996,None,472.2375396999996,None,473.93101746002213,None,473.93101746002213,None,473.93101746002213,None,,,,,,,,,,,,,,109,2023-04-03_16h09.14.875,Main,2022.1.1,61.13609200830137,
negative,neutral,2,j,l,,,,,,,,,10,5,185,12,,,,,,,,,main,2,2,2,neutral,negative,l,l,1,0.6818493999890052,473.9375409000204,474.9473442999879,474.9306745000067,None,473.9375409000204,None,473.9375409000204,None,473.9375409000204,None,475.6139802599908,None,475.6139802599908,None,475.6139802599908,None,,,,,,,,,,,,,,109,2023-04-03_16h09.14.875,Main,2022.1.1,61.13609200830137,
neutral,neutral,2,k,k,,,,,,,,,10,6,186,10,,,,,,,,,main,2,2,2,neutral,neutral,k,k,1,0.6341118999989703,475.6140144999954,476.6140233000042,476.6140233000042,None,475.6140144999954,None,475.6140144999954,None,475.6140144999954,None,477.24983365997906,None,477.24983365997906,None,477.24983365997906,None,,,,,,,,,,,,,,109,2023-04-03_16h09.14.875,Main,2022.1.1,61.13609200830137,
negative,neutral,1,j,l,,,,,,,,,10,7,187,3,,,,,,,,,main,2,2,1,neutral,negative,l,l,1,0.8482578999828547,477.25315689999843,478.26640750002116,478.2498256000108,None,477.25315689999843,None,477.25315689999843,None,477.25315689999843,None,479.09973436001457,None,479.09973436001457,None,479.09973436001457,None,,,,,,,,,,,,,,109,2023-04-03_16h09.14.875,Main,2022.1.1,61.13609200830137,
negative,negative,2,j,l,,,,,,,,,10,8,188,9,,,,,,,,,main,2,2,2,negative,negative,l,l,1,0.6651606999803334,479.10248990001855,480.1163811000297,480.0997908000136,None,479.10248990001855,None,479.10248990001855,None,479.10248990001855,None,480.7665020600078,None,480.7665020600078,None,480.7665020600078,None,,,,,,,,,,,,,,109,2023-04-03_16h09.14.875,Main,2022.1.1,61.13609200830137,
neutral,positive,1,k,k,,,,,,,,,10,9,189,4,,,,,,,,,main,2,2,1,positive,neutral,k,k,1,0.681797800003551,480.77094870002475,481.7830044000293,481.7663967999979,None,480.77094870002475,None,480.77094870002475,None,480.77094870002475,None,482.4496672600042,None,482.4496672600042,None,482.4496672600042,None,,,,,,,,,,,,,,109,2023-04-03_16h09.14.875,Main,2022.1.1,61.13609200830137,
positive,positive,1,l,j,,,,,,,,,10,10,190,2,,,,,,,,,main,1,1,1,positive,positive,j,j,1,0.7290107000153512,482.4533467000001,483.46629429998575,483.44965349999256,None,482.4533467000001,None,482.4533467000001,None,482.4533467000001,None,484.18050336000744,None,484.18050336000744,None,484.18050336000744,None,,,,,,,,,,,,,,109,2023-04-03_16h09.14.875,Main,2022.1.1,61.13609200830137,
negative,positive,2,j,l,,,,,,,,,10,11,191,15,,,,,,,,,main,1,1,2,positive,negative,l,l,1,0.7983938999823295,484.1839842000045,485.1971277000266,485.18044000002556,None,484.1839842000045,None,484.1839842000045,None,484.1839842000045,None,485.9804115599953,None,485.9804115599953,None,485.9804115599953,None,,,,,,,,,,,,,,109,2023-04-03_16h09.14.875,Main,2022.1.1,61.13609200830137,
neutral,negative,1,k,k,,,,,,,,,10,12,192,7,,,,,,,,,main,1,1,1,negative,neutral,k,k,1,0.7175634000450373,485.9804973999853,486.9804489000235,486.9804489000235,None,485.9804973999853,None,485.9804973999853,None,485.9804973999853,None,487.6994711600244,None,487.6994711600244,None,487.6994711600244,None,,,,,,,,,,,,,,109,2023-04-03_16h09.14.875,Main,2022.1.1,61.13609200830137,
neutral,negative,2,k,k,,,,,,,,,10,13,193,16,,,,,,,,,main,1,1,2,negative,neutral,k,k,1,0.6150087999994867,487.70247419999214,488.71619290002855,488.69959460000973,None,487.70247419999214,None,487.70247419999214,None,487.70247419999214,None,489.31617006002926,None,489.31617006002926,None,489.31617006002926,None,,,,,,,,,,,,,,109,2023-04-03_16h09.14.875,Main,2022.1.1,61.13609200830137,
positive,negative,2,l,j,,,,,,,,,10,14,194,14,,,,,,,,,main,2,2,2,negative,positive,j,j,1,0.6815388999530114,489.31916000001365,490.33279570000013,490.31621700001415,None,489.31916000001365,None,489.31916000001365,None,489.31916000001365,None,490.9994669599808,None,490.9994669599808,None,490.9994669599808,None,,,,,,,,,,,,,,109,2023-04-03_16h09.14.875,Main,2022.1.1,61.13609200830137,
positive,neutral,2,l,j,,,,,,,,,10,15,195,17,,,,,,,,,main,2,2,2,neutral,positive,j,j,1,0.6820416999980807,491.0032912000315,492.0161093000206,491.99951400002465,None,491.0032912000315,None,491.0032912000315,None,491.0032912000315,None,492.68273896003376,None,492.68273896003376,None,492.68273896003376,None,,,,,,,,,,,,,,109,2023-04-03_16h09.14.875,Main,2022.1.1,61.13609200830137,
negative,negative,1,j,l,,,,,,,,,10,16,196,0,,,,,,,,,main,1,1,1,negative,negative,l,l,1,0.7151854999829084,492.6857467999798,493.6994015999953,493.68280810001306,None,492.6857467999798,None,492.6857467999798,None,492.6857467999798,None,494.39948845999317,None,494.39948845999317,None,494.39948845999317,None,,,,,,,,,,,,,,109,2023-04-03_16h09.14.875,Main,2022.1.1,61.13609200830137,
neutral,positive,2,k,k,,,,,,,,,10,17,197,13,,,,,,,,,main,1,1,2,positive,neutral,k,k,1,0.6122907999670133,494.40252890001284,495.41350399999646,495.39682989998255,None,494.40252890001284,None,494.40252890001284,None,494.40252890001284,None,496.01347885997967,None,496.01347885997967,None,496.01347885997967,None,,,,,,,,,,,,,,109,2023-04-03_16h09.14.875,Main,2022.1.1,61.13609200830137,
positive,positive,2,l,j,,,,,,,,,11,0,198,11,,,,,,,,,main,1,1,2,positive,positive,j,j,1,0.8675502999685705,496.01351259998046,497.01355660002446,497.01355660002446,None,496.01351259998046,None,496.01351259998046,None,496.01351259998046,None,497.88276006003144,None,497.88276006003144,None,497.88276006003144,None,,,,,,,,,,,,,,109,2023-04-03_16h09.14.875,Main,2022.1.1,61.13609200830137,
neutral,negative,1,k,k,,,,,,,,,11,1,199,7,,,,,,,,,main,1,1,1,negative,neutral,k,k,1,0.5318319000070915,497.88630650000414,498.89930230000755,498.88268430001335,None,497.88630650000414,None,497.88630650000414,None,497.88630650000414,None,499.41588706000476,None,499.41588706000476,None,499.41588706000476,None,,,,,,,,,,,,,,109,2023-04-03_16h09.14.875,Main,2022.1.1,61.13609200830137,
positive,neutral,2,l,j,,,,,,,,,11,2,200,17,,,,,,,,,main,2,2,2,neutral,positive,j,j,1,0.6817028999794275,499.41931610001484,500.4325883000274,500.41596940002637,None,499.41931610001484,None,499.41931610001484,None,499.41931610001484,None,501.0993060600129,None,501.0993060600129,None,501.0993060600129,None,,,,,,,,,,,,,,109,2023-04-03_16h09.14.875,Main,2022.1.1,61.13609200830137,
positive,positive,1,l,j,,,,,,,,,11,3,201,2,,,,,,,,,main,2,2,1,positive,positive,j,j,1,0.6817532000131905,501.10358609998366,502.1158825000166,502.099273800035,None,501.10358609998366,None,501.10358609998366,None,501.10358609998366,None,502.78263426002815,None,502.78263426002815,None,502.78263426002815,None,,,,,,,,,,,,,,109,2023-04-03_16h09.14.875,Main,2022.1.1,61.13609200830137,
negative,positive,2,j,l,,,,,,,,,11,4,202,15,,,,,,,,,main,1,1,2,positive,negative,l,l,1,0.6647879999945872,502.78567620000103,503.7991590999882,503.78256389999297,None,502.78567620000103,None,502.78567620000103,None,502.78567620000103,None,504.44913526002784,None,504.44913526002784,None,504.44913526002784,None,,,,,,,,,,,,,,109,2023-04-03_16h09.14.875,Main,2022.1.1,61.13609200830137,
negative,negative,1,j,l,,,,,,,,,11,5,203,0,,,,,,,,,main,1,1,1,negative,negative,l,l,1,0.8455726999673061,504.4526018000324,505.4528167999815,505.4462722000317,None,504.4526018000324,None,504.4526018000324,None,504.4526018000324,None,506.29660836003023,None,506.29660836003023,None,506.29660836003023,None,,,,,,,,,,,,,,109,2023-04-03_16h09.14.875,Main,2022.1.1,61.13609200830137,
negative,negative,2,j,l,,,,,,,,,11,6,204,9,,,,,,,,,main,2,2,2,negative,negative,l,l,1,0.7658996999962255,506.29709170002025,507.2966596999904,507.2966596999904,None,506.29709170002025,None,506.29709170002025,None,506.29709170002025,None,508.0632931600092,None,508.0632931600092,None,508.0632931600092,None,,,,,,,,,,,,,,109,2023-04-03_16h09.14.875,Main,2022.1.1,61.13609200830137,
negative,neutral,2,j,l,,,,,,,,,11,7,205,12,,,,,,,,,main,1,1,2,neutral,negative,l,l,1,0.6976126999943517,508.06487860000925,509.0799863000284,509.0633116000099,None,508.06487860000925,None,508.06487860000925,None,508.06487860000925,None,509.7632783600246,None,509.7632783600246,None,509.7632783600246,None,,,,,,,,,,,,,,109,2023-04-03_16h09.14.875,Main,2022.1.1,61.13609200830137,
neutral,negative,2,k,k,,,,,,,,,11,8,206,16,,,,,,,,,main,1,1,2,negative,neutral,k,k,1,0.6343251999933273,509.76738059998024,510.78246489999583,510.76579590002075,None,509.76738059998024,None,509.76738059998024,None,509.76738059998024,None,511.3989556600107,None,511.3989556600107,None,511.3989556600107,None,,,,,,,,,,,,,,109,2023-04-03_16h09.14.875,Main,2022.1.1,61.13609200830137,
positive,negative,1,l,j,,,,,,,,,11,9,207,5,,,,,,,,,main,2,2,1,negative,positive,j,j,1,0.6816812999895774,511.4022009000182,512.4156647000345,512.3990900000208,None,511.4022009000182,None,511.4022009000182,None,511.4022009000182,None,513.0822340599959,None,513.0822340599959,None,513.0822340599959,None,,,,,,,,,,,,,,109,2023-04-03_16h09.14.875,Main,2022.1.1,61.13609200830137,
positive,negative,2,l,j,,,,,,,,,11,10,208,14,,,,,,,,,main,2,2,2,negative,positive,j,j,1,0.631753999972716,513.0857225999935,514.0989689999842,514.0823564000311,None,513.0857225999935,None,513.0857225999935,None,513.0857225999935,None,514.7156327599776,None,514.7156327599776,None,514.7156327599776,None,,,,,,,,,,,,,,109,2023-04-03_16h09.14.875,Main,2022.1.1,61.13609200830137,
positive,neutral,1,l,j,,,,,,,,,11,11,209,8,,,,,,,,,main,2,2,1,neutral,positive,j,j,1,0.6155390999629162,514.7195739999879,515.7322579000029,515.7156286999816,None,514.7195739999879,None,514.7195739999879,None,514.7195739999879,None,516.3334286600118,None,516.3334286600118,None,516.3334286600118,None,,,,,,,,,,,,,,109,2023-04-03_16h09.14.875,Main,2022.1.1,61.13609200830137,
negative,neutral,1,j,l,,,,,,,,,11,12,210,3,,,,,,,,,main,2,2,1,neutral,negative,l,l,1,0.6781144000124186,516.3363457000232,517.3463690999779,517.3296977999853,None,516.3363457000232,None,516.3363457000232,None,516.3363457000232,None,518.0130129599827,None,518.0130129599827,None,518.0130129599827,None,,,,,,,,,,,,,,109,2023-04-03_16h09.14.875,Main,2022.1.1,61.13609200830137,
neutral,positive,2,k,k,,,,,,,,,11,13,211,13,,,,,,,,,main,2,2,2,positive,neutral,k,k,1,0.6174748999765143,518.0131708999979,519.0130682000308,519.0130682000308,None,518.0131708999979,None,518.0131708999979,None,518.0131708999979,None,519.6322368600056,None,519.6322368600056,None,519.6322368600056,None,,,,,,,,,,,,,,109,2023-04-03_16h09.14.875,Main,2022.1.1,61.13609200830137,
neutral,positive,1,k,k,,,,,,,,,11,14,212,4,,,,,,,,,main,2,2,1,positive,neutral,k,k,1,0.6150046999682672,519.6364186999854,520.6488216000143,520.6322180000134,None,519.6364186999854,None,519.6364186999854,None,519.6364186999854,None,521.2488792599877,None,521.2488792599877,None,521.2488792599877,None,,,,,,,,,,,,,,109,2023-04-03_16h09.14.875,Main,2022.1.1,61.13609200830137,
negative,positive,1,j,l,,,,,,,,,11,15,213,6,,,,,,,,,main,1,1,1,positive,negative,l,l,1,1.5982687999494374,521.2521742000245,522.265431399981,522.2488383000018,None,521.2521742000245,None,521.2521742000245,None,521.2521742000245,None,523.8487145000254,None,523.8487145000254,None,523.8487145000254,None,,,,,,,,,,,,,,109,2023-04-03_16h09.14.875,Main,2022.1.1,61.13609200830137,
neutral,neutral,1,k,k,,,,,,,,,11,16,214,1,,,,,,,,,main,2,2,1,neutral,neutral,k,k,1,0.6535444000037387,524.8473471000325,525.8486918000272,525.832097000035,None,524.8473471000325,None,524.8473471000325,None,524.8473471000325,None,526.4987922600237,None,526.4987922600237,None,526.4987922600237,None,,,,,,,,,,,,,,109,2023-04-03_16h09.14.875,Main,2022.1.1,61.13609200830137,
neutral,neutral,2,k,k,,,,,,,,,11,17,215,10,,,,,,,,,main,2,2,2,neutral,neutral,k,k,1,0.5955189999658614,526.5022214000346,527.512853000022,527.4961590000312,None,526.5022214000346,None,526.5022214000346,None,526.5022214000346,None,528.0961614599917,None,528.0961614599917,None,528.0961614599917,None,,,,,,,,,,,,,,109,2023-04-03_16h09.14.875,Main,2022.1.1,61.13609200830137,
neutral,positive,1,k,k,,,,,,,,,12,0,216,4,,,,,,,,,main,2,2,1,positive,neutral,k,k,1,0.58193330001086,528.09628290002,529.096208300034,529.096208300034,None,528.09628290002,None,528.09628290002,None,528.09628290002,None,529.6794948600116,None,529.6794948600116,None,529.6794948600116,None,,,,,,,,,,,,,,109,2023-04-03_16h09.14.875,Main,2022.1.1,61.13609200830137,
negative,neutral,2,j,l,,,,,,,,,12,1,217,12,,,,,,,,,main,2,2,2,neutral,negative,l,l,1,0.7008527000434697,529.6830891999998,530.698595200025,530.682011500001,None,529.6830891999998,None,529.6830891999998,None,529.6830891999998,None,531.3819927600096,None,531.3819927600096,None,531.3819927600096,None,,,,,,,,,,,,,,109,2023-04-03_16h09.14.875,Main,2022.1.1,61.13609200830137,
neutral,neutral,1,k,k,,,,,,,,,12,2,218,1,,,,,,,,,main,1,1,1,neutral,neutral,k,k,1,0.7650196999893524,531.3851757000084,532.3985609000083,532.3819546999875,None,531.3851757000084,None,531.3851757000084,None,531.3851757000084,None,533.1484952599974,None,533.1484952599974,None,533.1484952599974,None,,,,,,,,,,,,,,109,2023-04-03_16h09.14.875,Main,2022.1.1,61.13609200830137,
positive,neutral,2,l,j,,,,,,,,,12,3,219,17,,,,,,,,,main,1,1,2,neutral,positive,j,j,1,0.6980577000067569,533.1516855999944,534.1652443000348,534.14857140003,None,533.1516855999944,None,533.1516855999944,None,533.1516855999944,None,534.8484830600325,None,534.8484830600325,None,534.8484830600325,None,,,,,,,,,,,,,,109,2023-04-03_16h09.14.875,Main,2022.1.1,61.13609200830137,
positive,negative,1,l,j,,,,,,,,,12,4,220,5,,,,,,,,,main,2,2,1,negative,positive,j,j,1,0.6820212999591604,534.8515145999845,535.8650663000299,535.8485770000261,None,534.8515145999845,None,534.8515145999845,None,534.8515145999845,None,536.5317651599878,None,536.5317651599878,None,536.5317651599878,None,,,,,,,,,,,,,,109,2023-04-03_16h09.14.875,Main,2022.1.1,61.13609200830137,
negative,negative,1,j,l,,,,,,,,,12,5,221,0,,,,,,,,,main,1,1,1,negative,negative,l,l,1,0.7791558000026271,536.5351994999801,537.5459188999957,537.529250600026,None,536.5351994999801,None,536.5351994999801,None,536.5351994999801,None,538.3125360600068,None,538.3125360600068,None,538.3125360600068,None,,,,,,,,,,,,,,109,2023-04-03_16h09.14.875,Main,2022.1.1,61.13609200830137,
neutral,neutral,2,k,k,,,,,,,,,12,6,222,10,,,,,,,,,main,1,1,2,neutral,neutral,k,k,1,0.6841867999755777,538.3125486000208,539.3126434999867,539.3126434999867,None,538.3125486000208,None,538.3125486000208,None,538.3125486000208,None,539.9983843600028,None,539.9983843600028,None,539.9983843600028,None,,,,,,,,,,,,,,109,2023-04-03_16h09.14.875,Main,2022.1.1,61.13609200830137,
negative,neutral,1,j,l,,,,,,,,,12,7,223,3,,,,,,,,,main,1,1,1,neutral,negative,l,l,1,1.1466915999772027,540.0015391000197,541.0150292000035,540.9983738000155,None,540.0015391000197,None,540.0015391000197,None,540.0015391000197,None,542.146709060017,None,542.146709060017,None,542.146709060017,None,,,,,,,,,,,,,,109,2023-04-03_16h09.14.875,Main,2022.1.1,61.13609200830137,
