target,distractor,set,ans1,ans2,rep_loop2.thisRepN,rep_loop2.thisTrialN,rep_loop2.thisN,rep_loop2.thisIndex,flanker_prac_loop.thisRepN,flanker_prac_loop.thisTrialN,flanker_prac_loop.thisN,flanker_prac_loop.thisIndex,flanker_main_loop.thisRepN,flanker_main_loop.thisTrialN,flanker_main_loop.thisN,flanker_main_loop.thisIndex,fl_inst_resp.keys,fl_inst_resp.rt,sound_1.started,sound_1.stopped,image_4.started,image_4.stopped,back_2.started,back_2.stopped,main_prac,fl_cold,fl_colt,fl_set,fl_dcond,fl_tcond,fl_ans,fl_res,fl_corr,fl_rt,fix_fl.started,fix_fl.stopped,targ.started,targ.stopped,j_button.started,j_button.stopped,k_button.started,k_button.stopped,l_button.started,l_button.stopped,j_button2.started,j_button2.stopped,k_button2.started,k_button2.stopped,l_button2.started,l_button2.stopped,mainback.started,mainback.stopped,key_resp.keys,key_resp.rt,mouse_6.x,mouse_6.y,mouse_6.leftButton,mouse_6.midButton,mouse_6.rightButton,mouse_6.started,mouse_6.stopped,text_2.started,text_2.stopped,id*,date,expName,psychopyVersion,frameRate,
,,,,,0,0,0,0,,,,,,,,,space,52.78830900002504,29.918406239984325,None,82.73151289997622,None,,,,,,,,,,,,,,,,,,,,,,,,,,,,,,,,,,,,,,,,,,110,2023-04-04_14h44.18.180,Main,2022.1.1,60.02523459812596,
positive,neutral,1,l,j,,,,,0,0,0,8,,,,,,,,,,,86.76728690002346,None,prac,2,2,1,neutral,positive,l,l,1,2.023104500025511,88.7795613000053,89.783974400023,89.76725849998184,None,88.7795613000053,None,88.7795613000053,None,88.7795613000053,None,91.80378880002536,None,91.80378880002536,None,91.80378880002536,None,,,,,,,,,,,,,,110,2023-04-04_14h44.18.180,Main,2022.1.1,60.02523459812596,
neutral,negative,2,k,k,,,,,0,1,1,16,,,,,,,,,,,,,prac,2,2,2,negative,neutral,k,k,1,1.2856094999588095,92.81617589999223,93.83041140000569,93.81414879998192,None,92.81617589999223,None,92.81617589999223,None,92.81617589999223,None,95.09809513999498,None,95.09809513999498,None,95.09809513999498,None,,,,,,,,,,,,,,110,2023-04-04_14h44.18.180,Main,2022.1.1,60.02523459812596,
neutral,positive,1,k,k,,,,,0,2,2,4,,,,,,,,,,,,,prac,2,2,1,positive,neutral,k,k,1,1.2140159999835305,95.10008020000532,96.11460600001737,96.09800930001074,None,95.10008020000532,None,95.10008020000532,None,95.10008020000532,None,97.31456064000376,None,97.31456064000376,None,97.31456064000376,None,,,,,,,,,,,,,,110,2023-04-04_14h44.18.180,Main,2022.1.1,60.02523459812596,
positive,neutral,2,l,j,,,,,0,3,3,17,,,,,,,,,,,,,prac,1,1,2,neutral,positive,l,l,1,1.0995836000074632,97.31743270001607,98.33126519998768,98.31457699998282,None,97.31743270001607,None,97.31743270001607,None,97.31743270001607,None,99.41491853996995,None,99.41491853996995,None,99.41491853996995,None,,,,,,,,,,,,,,110,2023-04-04_14h44.18.180,Main,2022.1.1,60.02523459812596,
negative,positive,1,j,l,,,,,0,4,4,6,,,,,,,,,,,,,prac,1,1,1,positive,negative,j,j,1,1.1666455999948084,99.42182539997157,100.43155909999041,100.41712370002642,None,99.42182539997157,None,99.42182539997157,None,99.42182539997157,None,101.58370314001222,None,101.58370314001222,None,101.58370314001222,None,,,,,,,,,,,,,,110,2023-04-04_14h44.18.180,Main,2022.1.1,60.02523459812596,
positive,negative,2,l,j,,,,,0,5,5,14,,,,,,,,,,,,,prac,1,1,2,negative,positive,l,l,1,0.9316469000186771,101.58698780002305,102.60031680000247,102.58371039998019,None,101.58698780002305,None,101.58698780002305,None,101.58698780002305,None,103.51683864001534,None,103.51683864001534,None,103.51683864001534,None,,,,,,,,,,,,,,110,2023-04-04_14h44.18.180,Main,2022.1.1,60.02523459812596,
neutral,neutral,2,k,k,,,,,0,6,6,10,,,,,,,,,,,,,prac,2,2,2,neutral,neutral,k,k,1,0.9132565000327304,103.5200614000205,104.53355539997574,104.51694699999643,None,103.5200614000205,None,103.5200614000205,None,103.5200614000205,None,105.43144733998342,None,105.43144733998342,None,105.43144733998342,None,,,,,,,,,,,,,,110,2023-04-04_14h44.18.180,Main,2022.1.1,60.02523459812596,
positive,negative,1,l,j,,,,,0,7,7,5,,,,,,,,,,,,,prac,1,1,1,negative,positive,l,l,1,0.9485356999794021,105.4373074999894,106.45010949997231,106.43359540001256,None,105.4373074999894,None,105.4373074999894,None,105.4373074999894,None,107.380961640022,None,107.380961640022,None,107.380961640022,None,,,,,,,,,,,,,,110,2023-04-04_14h44.18.180,Main,2022.1.1,60.02523459812596,
neutral,neutral,1,k,k,,,,,0,8,8,1,,,,,,,,,,,,,prac,2,2,1,neutral,neutral,k,k,1,1.1319251999957487,107.381063000008,108.3810014000046,108.3810014000046,None,107.381063000008,None,107.381063000008,None,107.381063000008,None,109.51434093997231,None,109.51434093997231,None,109.51434093997231,None,,,,,,,,,,,,,,110,2023-04-04_14h44.18.180,Main,2022.1.1,60.02523459812596,
positive,positive,2,l,j,,,,,0,9,9,11,,,,,,,,,,,,,prac,2,2,2,positive,positive,l,l,1,0.7681194000178948,109.51792700000806,110.53350189997582,110.51692429999821,None,109.51792700000806,None,109.51792700000806,None,109.51792700000806,None,111.28369334000745,None,111.28369334000745,None,111.28369334000745,None,,,,,,,,,,,,,,110,2023-04-04_14h44.18.180,Main,2022.1.1,60.02523459812596,
negative,negative,1,j,l,,,,,0,10,10,0,,,,,,,,,,,,,prac,1,1,1,negative,negative,j,j,1,1.2627457000198774,111.28784579999046,112.3000078999903,112.28345539997099,None,111.28784579999046,None,111.28784579999046,None,111.28784579999046,None,113.54794244000804,None,113.54794244000804,None,113.54794244000804,None,,,,,,,,,,,,,,110,2023-04-04_14h44.18.180,Main,2022.1.1,60.02523459812596,
negative,neutral,2,j,l,,,,,0,11,11,12,,,,,,,,,,,,,prac,2,2,2,neutral,negative,j,j,1,1.2166177000035532,113.56466520001413,114.56454579997808,114.55015680001816,None,113.56466520001413,None,113.56466520001413,None,113.56466520001413,None,115.76665703997132,None,115.76665703997132,None,115.76665703997132,None,,,,,,,,,,,,,,110,2023-04-04_14h44.18.180,Main,2022.1.1,60.02523459812596,
negative,negative,2,j,l,,,,,0,12,12,9,,,,,,,,,,,,,prac,2,2,2,negative,negative,j,j,1,0.8320523999864236,115.77016339998227,116.78327160002664,116.76451080001425,None,115.77016339998227,None,115.77016339998227,None,115.77016339998227,None,117.60002524002338,None,117.60002524002338,None,117.60002524002338,None,,,,,,,,,,,,,,110,2023-04-04_14h44.18.180,Main,2022.1.1,60.02523459812596,
neutral,negative,1,k,k,,,,,0,13,13,7,,,,,,,,,,,,,prac,2,2,1,negative,neutral,k,k,1,0.9298994999844581,117.6031027000281,118.61407080001663,118.5974154000287,None,117.6031027000281,None,117.6031027000281,None,117.6031027000281,None,119.53070923998602,None,119.53070923998602,None,119.53070923998602,None,,,,,,,,,,,,,,110,2023-04-04_14h44.18.180,Main,2022.1.1,60.02523459812596,
positive,positive,1,l,j,,,,,0,14,14,2,,,,,,,,,,,,,prac,1,1,1,positive,positive,l,l,1,0.8488723000045866,119.53078339999774,120.53080409998074,120.53080409998074,None,119.53078339999774,None,119.53078339999774,None,119.53078339999774,None,121.3807629400224,None,121.3807629400224,None,121.3807629400224,None,,,,,,,,,,,,,,110,2023-04-04_14h44.18.180,Main,2022.1.1,60.02523459812596,
neutral,positive,2,k,k,,,,,0,15,15,13,,,,,,,,,,,,,prac,2,2,2,positive,neutral,k,k,1,0.9489826000062749,121.38314079999691,122.39742110000225,122.3807470999891,None,121.38314079999691,None,121.38314079999691,None,121.38314079999691,None,123.33121373997419,None,123.33121373997419,None,123.33121373997419,None,,,,,,,,,,,,,,110,2023-04-04_14h44.18.180,Main,2022.1.1,60.02523459812596,
negative,positive,2,j,l,,,,,0,16,16,15,,,,,,,,,,,,,prac,1,1,2,positive,negative,j,j,1,1.0815888000070117,123.34987829998136,124.34982870001113,124.33321429998614,None,123.34987829998136,None,123.34987829998136,None,123.34987829998136,None,125.41431553997681,None,125.41431553997681,None,125.41431553997681,None,,,,,,,,,,,,,,110,2023-04-04_14h44.18.180,Main,2022.1.1,60.02523459812596,
negative,neutral,1,j,l,,,,,0,17,17,3,,,,,,,,,,,,,prac,2,2,1,neutral,negative,j,j,1,0.8322263999725692,125.42081899999175,126.43313909997232,126.3997944999719,None,125.42081899999175,None,125.42081899999175,None,125.42081899999175,None,127.24767703997786,None,127.24767703997786,None,127.24767703997786,None,,,,,,,,,,,,,,110,2023-04-04_14h44.18.180,Main,2022.1.1,60.02523459812596,
negative,negative,1,j,l,,,,,1,0,18,0,,,,,,,,,,,,,prac,2,2,1,negative,negative,j,j,1,0.7820524999988265,127.25114529998973,128.26634819997707,128.24969819997204,None,127.25114529998973,None,127.25114529998973,None,127.25114529998973,None,129.0309357400227,None,129.0309357400227,None,129.0309357400227,None,,,,,,,,,,,,,,110,2023-04-04_14h44.18.180,Main,2022.1.1,60.02523459812596,
positive,positive,1,l,j,,,,,1,1,19,2,,,,,,,,,,,,,prac,1,1,1,positive,positive,l,l,1,1.0818817999679595,129.0344489000272,130.04968459997326,130.03312540001934,None,129.0344489000272,None,129.0344489000272,None,129.0344489000272,None,131.1141837399744,None,131.1141837399744,None,131.1141837399744,None,,,,,,,,,,,,,,110,2023-04-04_14h44.18.180,Main,2022.1.1,60.02523459812596,
positive,positive,2,l,j,,,,,1,2,20,11,,,,,,,,,,,,,prac,1,1,2,positive,positive,l,l,1,0.8985275999875739,131.1329847999732,132.1471542000072,132.11381389998132,None,131.1329847999732,None,131.1329847999732,None,131.1329847999732,None,133.01381433997886,None,133.01381433997886,None,133.01381433997886,None,,,,,,,,,,,,,,110,2023-04-04_14h44.18.180,Main,2022.1.1,60.02523459812596,
neutral,neutral,1,k,k,,,,,1,3,21,1,,,,,,,,,,,,,prac,2,2,1,neutral,neutral,k,k,1,0.6161019999999553,133.01376880001044,134.01383339997847,134.01383339997847,None,133.01376880001044,None,133.01376880001044,None,133.01376880001044,None,134.63078763997765,None,134.63078763997765,None,134.63078763997765,None,,,,,,,,,,,,,,110,2023-04-04_14h44.18.180,Main,2022.1.1,60.02523459812596,
neutral,neutral,2,k,k,,,,,1,4,22,10,,,,,,,,,,,,,prac,2,2,2,neutral,neutral,k,k,1,0.6813644000212662,134.6367088999832,135.64742340001976,135.63297440001043,None,134.6367088999832,None,134.6367088999832,None,134.6367088999832,None,136.31410663998105,None,136.31410663998105,None,136.31410663998105,None,,,,,,,,,,,,,,110,2023-04-04_14h44.18.180,Main,2022.1.1,60.02523459812596,
neutral,negative,1,k,k,,,,,1,5,23,7,,,,,,,,,,,,,prac,2,2,1,negative,neutral,k,k,1,0.7320402999757789,136.3202345999889,137.33077030000277,137.31631560000824,None,136.3202345999889,None,136.3202345999889,None,136.3202345999889,None,138.04745314000758,None,138.04745314000758,None,138.04745314000758,None,,,,,,,,,,,,,,110,2023-04-04_14h44.18.180,Main,2022.1.1,60.02523459812596,
positive,neutral,2,l,j,,,,,1,6,24,17,,,,,,,,,,,,,prac,1,1,2,neutral,positive,l,l,1,0.9818950000335462,138.05357280001044,139.06612380000297,139.03293029998895,None,138.05357280001044,None,138.05357280001044,None,138.05357280001044,None,140.0306744400121,None,140.0306744400121,None,140.0306744400121,None,,,,,,,,,,,,,,110,2023-04-04_14h44.18.180,Main,2022.1.1,60.02523459812596,
negative,neutral,2,j,l,,,,,1,7,25,12,,,,,,,,,,,,,prac,1,1,2,neutral,negative,j,j,1,0.9815803000237793,140.0346075000125,141.0494770000223,141.01613940001698,None,140.0346075000125,None,140.0346075000125,None,140.0346075000125,None,142.01359503999703,None,142.01359503999703,None,142.01359503999703,None,,,,,,,,,,,,,,110,2023-04-04_14h44.18.180,Main,2022.1.1,60.02523459812596,
neutral,positive,1,k,k,,,,,1,8,26,4,,,,,,,,,,,,,prac,2,2,1,positive,neutral,k,k,1,0.8151535000069998,142.0146047999733,143.0302640000009,143.01359310001135,None,142.0146047999733,None,142.0146047999733,None,142.0146047999733,None,143.83031423999347,None,143.83031423999347,None,143.83031423999347,None,,,,,,,,,,,,,,110,2023-04-04_14h44.18.180,Main,2022.1.1,60.02523459812596,
positive,negative,2,l,j,,,,,1,9,27,14,,,,,,,,,,,,,prac,2,2,2,negative,positive,l,l,1,0.7677916999673471,143.83389160002116,144.84935879998375,144.83040500001516,None,143.83389160002116,None,143.83389160002116,None,143.83389160002116,None,145.5993605399679,None,145.5993605399679,None,145.5993605399679,None,,,,,,,,,,,,,,110,2023-04-04_14h44.18.180,Main,2022.1.1,60.02523459812596,
positive,negative,1,l,j,,,,,1,10,28,5,,,,,,,,,,,,,prac,2,2,1,negative,positive,l,l,1,0.7467279000557028,145.60241930000484,146.61607879999792,146.599463200022,None,145.60241930000484,None,145.60241930000484,None,145.60241930000484,None,147.3471978399728,None,147.3471978399728,None,147.3471978399728,None,,,,,,,,,,,,,,110,2023-04-04_14h44.18.180,Main,2022.1.1,60.02523459812596,
neutral,positive,2,k,k,,,,,1,11,29,13,,,,,,,,,,,,,prac,2,2,2,positive,neutral,k,k,1,0.7986523999716155,147.36605180002516,148.36599119997118,148.3494306000066,None,147.36605180002516,None,147.36605180002516,None,147.36605180002516,None,149.14715024000617,None,149.14715024000617,None,149.14715024000617,None,,,,,,,,,,,,,,110,2023-04-04_14h44.18.180,Main,2022.1.1,60.02523459812596,
negative,negative,2,j,l,,,,,1,12,30,9,,,,,,,,,,,,,prac,1,1,2,negative,negative,j,j,1,0.715152999968268,149.15004179999232,150.14711939997505,150.13264169998,None,149.15004179999232,None,149.15004179999232,None,149.15004179999232,None,150.86374544001302,None,150.86374544001302,None,150.86374544001302,None,,,,,,,,,,,,,,110,2023-04-04_14h44.18.180,Main,2022.1.1,60.02523459812596,
negative,positive,1,j,l,,,,,1,13,31,6,,,,,,,,,,,,,prac,1,1,1,positive,negative,j,j,1,0.76518450002186,150.86904680001317,151.87958509998862,151.86235700000543,None,150.86904680001317,None,150.86904680001317,None,150.86904680001317,None,152.63005553999102,None,152.63005553999102,None,152.63005553999102,None,,,,,,,,,,,,,,110,2023-04-04_14h44.18.180,Main,2022.1.1,60.02523459812596,
neutral,negative,2,k,k,,,,,1,14,32,16,,,,,,,,,,,,,prac,1,1,2,negative,neutral,k,k,1,0.698828799999319,152.63004820002243,153.63004120002734,153.63004120002734,None,152.63004820002243,None,152.63004820002243,None,152.63004820002243,None,154.33009303999717,None,154.33009303999717,None,154.33009303999717,None,,,,,,,,,,,,,,110,2023-04-04_14h44.18.180,Main,2022.1.1,60.02523459812596,
negative,neutral,1,j,l,,,,,1,15,33,3,,,,,,,,,,,,,prac,1,1,1,neutral,negative,j,j,1,0.8165515000000596,154.33558219997212,155.3492342000245,155.33262389997253,None,154.33558219997212,None,154.33558219997212,None,154.33558219997212,None,156.1470606400224,None,156.1470606400224,None,156.1470606400224,None,,,,,,,,,,,,,,110,2023-04-04_14h44.18.180,Main,2022.1.1,60.02523459812596,
positive,neutral,1,l,j,,,,,1,16,34,8,,,,,,,,,,,,,prac,2,2,1,neutral,positive,l,l,1,0.7978477000142448,156.1509362999932,157.16583690000698,157.1492569000111,None,156.1509362999932,None,156.1509362999932,None,156.1509362999932,None,157.94698113998749,None,157.94698113998749,None,157.94698113998749,None,,,,,,,,,,,,,,110,2023-04-04_14h44.18.180,Main,2022.1.1,60.02523459812596,
negative,positive,2,j,l,,,,,1,17,35,15,,,,,,,,,,,,,prac,1,1,2,positive,negative,j,j,1,0.7819383000023663,157.95038729999214,158.9657309000031,158.94704609998735,None,157.95038729999214,None,157.95038729999214,None,157.95038729999214,None,159.73027023997275,None,159.73027023997275,None,159.73027023997275,None,,,,,,,,,,,,,,110,2023-04-04_14h44.18.180,Main,2022.1.1,60.02523459812596,
,,,,,,,,,,,,,,,,,,,,,,,,,,,,,,,,,,,,,,,,,,,,,,,,,,,159.73037910001585,None,space,5.065349500044249,,,,,,,,,,110,2023-04-04_14h44.18.180,Main,2022.1.1,60.02523459812596,
,,,,,,,,,,,,,,,,,,,,,,,,,,,,,,,,,,,,,,,,,,,,,,,,,,,,,,,0.59907407,-0.41944444,0,0,0,0.011079539952334017,None,,,110,2023-04-04_14h44.18.180,Main,2022.1.1,60.02523459812596,
negative,negative,2,j,l,,,,,,,,,0,0,0,9,,,,,,,164.8156958000036,None,main,1,1,2,negative,negative,j,j,1,0.8613270999630913,166.82045780000044,167.8322481000214,167.81572309997864,None,166.82045780000044,None,166.82045780000044,None,166.82045780000044,None,168.6797794399725,None,168.6797794399725,None,168.6797794399725,None,,,,,,,,,,,,,,110,2023-04-04_14h44.18.180,Main,2022.1.1,60.02523459812596,
neutral,negative,2,k,k,,,,,,,,,0,1,1,16,,,,,,,,,main,2,2,2,negative,neutral,k,k,1,0.717390300007537,168.68431550002424,169.69889960001456,169.68230799998855,None,168.68431550002424,None,168.68431550002424,None,168.68431550002424,None,170.39894064001857,None,170.39894064001857,None,170.39894064001857,None,,,,,,,,,,,,,,110,2023-04-04_14h44.18.180,Main,2022.1.1,60.02523459812596,
positive,positive,2,l,j,,,,,,,,,0,2,2,11,,,,,,,,,main,2,2,2,positive,positive,l,l,1,0.8571066000149585,170.40328720002435,171.41554429999087,171.39886189997196,None,170.40328720002435,None,170.40328720002435,None,170.40328720002435,None,172.25835713998532,None,172.25835713998532,None,172.25835713998532,None,,,,,,,,,,,,,,110,2023-04-04_14h44.18.180,Main,2022.1.1,60.02523459812596,
neutral,neutral,2,k,k,,,,,,,,,0,3,3,10,,,,,,,,,main,2,2,2,neutral,neutral,k,k,1,0.6696738000027835,172.269274100021,173.27962270000717,173.2463020000141,None,172.269274100021,None,172.269274100021,None,172.269274100021,None,173.92960523998482,None,173.92960523998482,None,173.92960523998482,None,,,,,,,,,,,,,,110,2023-04-04_14h44.18.180,Main,2022.1.1,60.02523459812596,
negative,positive,2,j,l,,,,,,,,,0,4,4,15,,,,,,,,,main,2,2,2,positive,negative,j,j,1,0.7649303000071086,173.9462645999738,174.94630509999115,174.92964019998908,None,173.9462645999738,None,173.9462645999738,None,173.9462645999738,None,175.69626293999028,None,175.69626293999028,None,175.69626293999028,None,,,,,,,,,,,,,,110,2023-04-04_14h44.18.180,Main,2022.1.1,60.02523459812596,
neutral,neutral,1,k,k,,,,,,,,,0,5,5,1,,,,,,,,,main,1,1,1,neutral,neutral,k,k,1,0.6172420000075363,175.69676179997623,176.69626549998065,176.69626549998065,None,175.69676179997623,None,175.69676179997623,None,175.69676179997623,None,177.31532474000124,None,177.31532474000124,None,177.31532474000124,None,,,,,,,,,,,,,,110,2023-04-04_14h44.18.180,Main,2022.1.1,60.02523459812596,
neutral,positive,2,k,k,,,,,,,,,0,6,6,13,,,,,,,,,main,1,1,2,positive,neutral,k,k,1,0.5676130999927409,177.3194485999993,178.33208080002805,178.31326289998833,None,177.3194485999993,None,177.3194485999993,None,177.3194485999993,None,178.8822956399934,None,178.8822956399934,None,178.8822956399934,None,,,,,,,,,,,,,,110,2023-04-04_14h44.18.180,Main,2022.1.1,60.02523459812596,
negative,negative,1,j,l,,,,,,,,,0,7,7,0,,,,,,,,,main,1,1,1,negative,negative,j,j,1,0.7601863999734633,178.88815900002373,179.89869429997634,179.8821341000148,None,178.88815900002373,None,178.88815900002373,None,178.88815900002373,None,180.64652284000186,None,180.64652284000186,None,180.64652284000186,None,,,,,,,,,,,,,,110,2023-04-04_14h44.18.180,Main,2022.1.1,60.02523459812596,
neutral,negative,1,k,k,,,,,,,,,0,8,8,7,,,,,,,,,main,2,2,1,negative,neutral,k,k,1,0.5980060000438243,180.65037240000675,181.66520689998288,181.64858330000425,None,180.65037240000675,None,180.65037240000675,None,180.65037240000675,None,182.24618163999986,None,182.24618163999986,None,182.24618163999986,None,,,,,,,,,,,,,,110,2023-04-04_14h44.18.180,Main,2022.1.1,60.02523459812596,
neutral,positive,1,k,k,,,,,,,,,0,9,9,4,,,,,,,,,main,2,2,1,positive,neutral,k,k,1,0.5822432999848388,182.25309640000341,183.26311010000063,183.24864329997217,None,182.25309640000341,None,182.25309640000341,None,182.25309640000341,None,183.82983313999722,None,183.82983313999722,None,183.82983313999722,None,,,,,,,,,,,,,,110,2023-04-04_14h44.18.180,Main,2022.1.1,60.02523459812596,
positive,positive,1,l,j,,,,,,,,,0,10,10,2,,,,,,,,,main,1,1,1,positive,positive,l,l,1,0.8479452000465244,183.8335897999932,184.84850610001013,184.83194649999496,None,183.8335897999932,None,183.8335897999932,None,183.8335897999932,None,185.67935913997354,None,185.67935913997354,None,185.67935913997354,None,,,,,,,,,,,,,,110,2023-04-04_14h44.18.180,Main,2022.1.1,60.02523459812596,
positive,neutral,2,l,j,,,,,,,,,0,11,11,17,,,,,,,,,main,2,2,2,neutral,positive,l,l,1,0.6485937999677844,185.6793029999826,186.6793680000119,186.6793680000119,None,185.6793029999826,None,185.6793029999826,None,185.6793029999826,None,187.329362840025,None,187.329362840025,None,187.329362840025,None,,,,,,,,,,,,,,110,2023-04-04_14h44.18.180,Main,2022.1.1,60.02523459812596,
negative,neutral,1,j,l,,,,,,,,,0,12,12,3,,,,,,,,,main,1,1,1,neutral,negative,j,j,1,0.8483374000061303,187.33520899998257,188.3484502999927,188.33192460000282,None,187.33520899998257,None,187.33520899998257,None,187.33520899998257,None,189.17965683997028,None,189.17965683997028,None,189.17965683997028,None,,,,,,,,,,,,,,110,2023-04-04_14h44.18.180,Main,2022.1.1,60.02523459812596,
positive,neutral,1,l,j,,,,,,,,,0,13,13,8,,,,,,,,,main,1,1,1,neutral,positive,l,l,1,0.9987148999935016,189.18361900001764,190.19851030001882,190.1818611000199,None,189.18361900001764,None,189.18361900001764,None,189.18361900001764,None,191.1797442399955,None,191.1797442399955,None,191.1797442399955,None,,,,,,,,,,,,,,110,2023-04-04_14h44.18.180,Main,2022.1.1,60.02523459812596,
negative,positive,1,j,l,,,,,,,,,0,14,14,6,,,,,,,,,main,1,1,1,positive,negative,j,j,1,0.8497640999848954,191.18603550002445,192.1984694999992,192.18173359998036,None,191.18603550002445,None,191.18603550002445,None,191.18603550002445,None,193.03176353998134,None,193.03176353998134,None,193.03176353998134,None,,,,,,,,,,,,,,110,2023-04-04_14h44.18.180,Main,2022.1.1,60.02523459812596,
negative,neutral,2,j,l,,,,,,,,,0,15,15,12,,,,,,,,,main,1,1,2,neutral,negative,j,j,1,0.7129413000075147,193.04134769999655,194.04824500001268,194.03181499999482,None,193.04134769999655,None,193.04134769999655,None,193.04134769999655,None,194.74661174001523,None,194.74661174001523,None,194.74661174001523,None,,,,,,,,,,,,,,110,2023-04-04_14h44.18.180,Main,2022.1.1,60.02523459812596,
positive,negative,2,l,j,,,,,,,,,0,16,16,14,,,,,,,,,main,1,1,2,negative,positive,l,l,1,0.8144160999800079,194.75249210000038,195.7624000000069,195.7457375000231,None,194.75249210000038,None,194.75249210000038,None,194.75249210000038,None,196.5624876399932,None,196.5624876399932,None,196.5624876399932,None,,,,,,,,,,,,,,110,2023-04-04_14h44.18.180,Main,2022.1.1,60.02523459812596,
positive,negative,1,l,j,,,,,,,,,0,17,17,5,,,,,,,,,main,1,1,1,negative,positive,l,l,1,0.6484039999777451,196.56260800000746,197.56248229998164,197.56248229998164,None,196.56260800000746,None,196.56260800000746,None,196.56260800000746,None,198.21281113997685,None,198.21281113997685,None,198.21281113997685,None,,,,,,,,,,,,,,110,2023-04-04_14h44.18.180,Main,2022.1.1,60.02523459812596,
negative,negative,1,j,l,,,,,,,,,1,0,18,0,,,,,,,,,main,2,2,1,negative,negative,j,j,1,0.7846813999931328,198.21660169999814,199.2315414000186,199.21502599999076,None,198.21660169999814,None,198.21660169999814,None,198.21660169999814,None,199.9992301399878,None,199.9992301399878,None,199.9992301399878,None,,,,,,,,,,,,,,110,2023-04-04_14h44.18.180,Main,2022.1.1,60.02523459812596,
neutral,positive,1,k,k,,,,,,,,,1,1,19,4,,,,,,,,,main,1,1,1,positive,neutral,k,k,1,0.7633342000190169,200.00232059997506,201.01483970001573,200.9983179999981,None,200.00232059997506,None,200.00232059997506,None,200.00232059997506,None,201.7625384399842,None,201.7625384399842,None,201.7625384399842,None,,,,,,,,,,,,,,110,2023-04-04_14h44.18.180,Main,2022.1.1,60.02523459812596,
positive,negative,2,l,j,,,,,,,,,1,2,20,14,,,,,,,,,main,1,1,2,negative,positive,l,l,1,0.7804269000189379,201.76943639997626,202.78152870002668,202.7649404000258,None,201.76943639997626,None,201.76943639997626,None,201.76943639997626,None,203.5459620400041,None,203.5459620400041,None,203.5459620400041,None,,,,,,,,,,,,,,110,2023-04-04_14h44.18.180,Main,2022.1.1,60.02523459812596,
negative,positive,1,j,l,,,,,,,,,1,3,21,6,,,,,,,,,main,2,2,1,positive,negative,j,j,1,0.7646813999745063,203.54989109997405,204.56265300000086,204.54816569999093,None,203.54989109997405,None,203.54989109997405,None,203.54989109997405,None,205.3122219400073,None,205.3122219400073,None,205.3122219400073,None,,,,,,,,,,,,,,110,2023-04-04_14h44.18.180,Main,2022.1.1,60.02523459812596,
neutral,neutral,2,k,k,,,,,,,,,1,4,22,10,,,,,,,,,main,2,2,2,neutral,neutral,k,k,1,0.6976376000093296,205.31342100002803,206.32891240000026,206.31224010000005,None,205.31342100002803,None,205.31342100002803,None,205.31342100002803,None,207.01229383998435,None,207.01229383998435,None,207.01229383998435,None,,,,,,,,,,,,,,110,2023-04-04_14h44.18.180,Main,2022.1.1,60.02523459812596,
positive,negative,1,l,j,,,,,,,,,1,5,23,5,,,,,,,,,main,2,2,1,negative,positive,l,l,1,0.9003298000316136,207.01860790001228,208.03142329998082,208.012619599991,None,207.01860790001228,None,207.01860790001228,None,207.01860790001228,None,208.9147086400015,None,208.9147086400015,None,208.9147086400015,None,,,,,,,,,,,,,,110,2023-04-04_14h44.18.180,Main,2022.1.1,60.02523459812596,
positive,neutral,2,l,j,,,,,,,,,1,6,24,17,,,,,,,,,main,2,2,2,neutral,positive,l,l,1,0.712582600011956,208.9193082000129,209.93141209997702,209.91472100000829,None,208.9193082000129,None,208.9193082000129,None,208.9193082000129,None,210.62887173999917,None,210.62887173999917,None,210.62887173999917,None,,,,,,,,,,,,,,110,2023-04-04_14h44.18.180,Main,2022.1.1,60.02523459812596,
neutral,neutral,1,k,k,,,,,,,,,1,7,25,1,,,,,,,,,main,1,1,1,neutral,neutral,k,k,1,0.7150334999896586,210.63239240000257,211.6313538000104,211.6313538000104,None,210.63239240000257,None,210.63239240000257,None,210.63239240000257,None,212.34555854000502,None,212.34555854000502,None,212.34555854000502,None,,,,,,,,,,,,,,110,2023-04-04_14h44.18.180,Main,2022.1.1,60.02523459812596,
neutral,negative,2,k,k,,,,,,,,,1,8,26,16,,,,,,,,,main,2,2,2,negative,neutral,k,k,1,0.5821013000095263,212.35199270001613,213.36457139998674,213.3480124999769,None,212.35199270001613,None,212.35199270001613,None,212.35199270001613,None,213.92919193998097,None,213.92919193998097,None,213.92919193998097,None,,,,,,,,,,,,,,110,2023-04-04_14h44.18.180,Main,2022.1.1,60.02523459812596,
neutral,positive,2,k,k,,,,,,,,,1,9,27,13,,,,,,,,,main,1,1,2,positive,neutral,k,k,1,0.5648022999521345,213.93402779998723,214.94791520002764,214.92913519998547,None,213.93402779998723,None,213.93402779998723,None,213.93402779998723,None,215.49537994000713,None,215.49537994000713,None,215.49537994000713,None,,,,,,,,,,,,,,110,2023-04-04_14h44.18.180,Main,2022.1.1,60.02523459812596,
positive,positive,1,l,j,,,,,,,,,1,10,28,2,,,,,,,,,main,2,2,1,positive,positive,l,l,1,0.8315865999902599,215.49587909999536,216.49537949997466,216.49537949997466,None,215.49587909999536,None,215.49587909999536,None,215.49587909999536,None,217.32874503997738,None,217.32874503997738,None,217.32874503997738,None,,,,,,,,,,,,,,110,2023-04-04_14h44.18.180,Main,2022.1.1,60.02523459812596,
negative,negative,2,j,l,,,,,,,,,1,11,29,9,,,,,,,,,main,1,1,2,negative,negative,j,j,1,0.8154999999678694,217.3319313999964,218.33132950001163,218.33132950001163,None,217.3319313999964,None,217.3319313999964,None,217.3319313999964,None,219.14575453997242,None,219.14575453997242,None,219.14575453997242,None,,,,,,,,,,,,,,110,2023-04-04_14h44.18.180,Main,2022.1.1,60.02523459812596,
negative,neutral,1,j,l,,,,,,,,,1,12,30,3,,,,,,,,,main,1,1,1,neutral,negative,j,j,1,1.0171129000373185,219.149299599987,220.16453629999887,220.147927300015,None,219.149299599987,None,219.149299599987,None,219.149299599987,None,221.16449113997515,None,221.16449113997515,None,221.16449113997515,None,,,,,,,,,,,,,,110,2023-04-04_14h44.18.180,Main,2022.1.1,60.02523459812596,
neutral,negative,1,k,k,,,,,,,,,1,13,31,7,,,,,,,,,main,1,1,1,negative,neutral,k,k,1,0.6983649000176229,221.16758539999137,222.1811233999906,222.16453900001943,None,221.16758539999137,None,221.16758539999137,None,221.16758539999137,None,222.86432283998585,None,222.86432283998585,None,222.86432283998585,None,,,,,,,,,,,,,,110,2023-04-04_14h44.18.180,Main,2022.1.1,60.02523459812596,
positive,positive,2,l,j,,,,,,,,,1,14,32,11,,,,,,,,,main,2,2,2,positive,positive,l,l,1,0.7795760000008158,222.86812399997143,223.8810282999766,223.86439110001083,None,222.86812399997143,None,222.86812399997143,None,222.86812399997143,None,224.64538343999885,None,224.64538343999885,None,224.64538343999885,None,,,,,,,,,,,,,,110,2023-04-04_14h44.18.180,Main,2022.1.1,60.02523459812596,
negative,positive,2,j,l,,,,,,,,,1,15,33,15,,,,,,,,,main,1,1,2,positive,negative,j,j,1,0.7815089999930933,224.6517559000058,225.6618666999857,225.64511729998048,None,224.6517559000058,None,224.6517559000058,None,224.6517559000058,None,226.4284886399808,None,226.4284886399808,None,226.4284886399808,None,,,,,,,,,,,,,,110,2023-04-04_14h44.18.180,Main,2022.1.1,60.02523459812596,
negative,neutral,2,j,l,,,,,,,,,1,16,34,12,,,,,,,,,main,2,2,2,neutral,negative,j,j,1,1.0490208999835886,226.42872620001435,227.42852409998886,227.42852409998886,None,226.42872620001435,None,226.42872620001435,None,226.42872620001435,None,228.4790401399776,None,228.4790401399776,None,228.4790401399776,None,,,,,,,,,,,,,,110,2023-04-04_14h44.18.180,Main,2022.1.1,60.02523459812596,
positive,neutral,1,l,j,,,,,,,,,1,17,35,8,,,,,,,,,main,1,1,1,neutral,positive,l,l,1,0.783713600016199,228.48512409999967,229.49765430000843,229.48097759997472,None,228.48512409999967,None,228.48512409999967,None,228.48512409999967,None,230.2642000400054,None,230.2642000400054,None,230.2642000400054,None,,,,,,,,,,,,,,110,2023-04-04_14h44.18.180,Main,2022.1.1,60.02523459812596,
positive,positive,1,l,j,,,,,,,,,2,0,36,2,,,,,,,,,main,2,2,1,positive,positive,l,l,1,0.7976564000127837,230.2688239000272,231.28085410001222,231.2642491000006,None,230.2688239000272,None,230.2688239000272,None,230.2688239000272,None,232.06417244001642,None,232.06417244001642,None,232.06417244001642,None,,,,,,,,,,,,,,110,2023-04-04_14h44.18.180,Main,2022.1.1,60.02523459812596,
positive,negative,1,l,j,,,,,,,,,2,1,37,5,,,,,,,,,main,1,1,1,negative,positive,l,l,1,0.6316319000325166,232.06762059999164,233.08078999997815,233.0620686999755,None,232.06762059999164,None,232.06762059999164,None,232.06762059999164,None,233.6974628399883,None,233.6974628399883,None,233.6974628399883,None,,,,,,,,,,,,,,110,2023-04-04_14h44.18.180,Main,2022.1.1,60.02523459812596,
neutral,negative,2,k,k,,,,,,,,,2,2,38,16,,,,,,,,,main,2,2,2,negative,neutral,k,k,1,0.8485366000095382,233.70146050001495,234.71418389998144,234.6975634000264,None,233.70146050001495,None,233.70146050001495,None,233.70146050001495,None,235.54744153997746,None,235.54744153997746,None,235.54744153997746,None,,,,,,,,,,,,,,110,2023-04-04_14h44.18.180,Main,2022.1.1,60.02523459812596,
positive,negative,2,l,j,,,,,,,,,2,3,39,14,,,,,,,,,main,2,2,2,negative,positive,l,l,1,0.8487077999743633,235.5505747999996,236.561598100001,236.54495050001424,None,235.5505747999996,None,235.5505747999996,None,235.5505747999996,None,237.3948886400147,None,237.3948886400147,None,237.3948886400147,None,,,,,,,,,,,,,,110,2023-04-04_14h44.18.180,Main,2022.1.1,60.02523459812596,
negative,positive,1,j,l,,,,,,,,,2,4,40,6,,,,,,,,,main,2,2,1,positive,negative,j,j,1,0.7949540000408888,237.3985480000265,238.4115963000222,238.3949257999775,None,237.3985480000265,None,237.3985480000265,None,237.3985480000265,None,239.194882040011,None,239.194882040011,None,239.194882040011,None,,,,,,,,,,,,,,110,2023-04-04_14h44.18.180,Main,2022.1.1,60.02523459812596,
neutral,neutral,2,k,k,,,,,,,,,2,5,41,10,,,,,,,,,main,2,2,2,neutral,neutral,k,k,1,0.865395000029821,239.19568369997432,240.1949306000024,240.1949306000024,None,239.19568369997432,None,239.19568369997432,None,239.19568369997432,None,241.0619290399889,None,241.0619290399889,None,241.0619290399889,None,,,,,,,,,,,,,,110,2023-04-04_14h44.18.180,Main,2022.1.1,60.02523459812596,
negative,negative,2,j,l,,,,,,,,,2,6,42,9,,,,,,,,,main,1,1,2,negative,negative,j,j,1,0.8875881999847479,241.06759960000636,242.0785633000196,242.06200829998124,None,241.06759960000636,None,241.06759960000636,None,241.06759960000636,None,242.9483231400198,None,242.9483231400198,None,242.9483231400198,None,,,,,,,,,,,,,,110,2023-04-04_14h44.18.180,Main,2022.1.1,60.02523459812596,
neutral,negative,1,k,k,,,,,,,,,2,7,43,7,,,,,,,,,main,1,1,1,negative,neutral,k,k,1,0.6424086999613792,242.95458850002615,243.96391250001034,243.9472896999796,None,242.95458850002615,None,242.95458850002615,None,242.95458850002615,None,244.59515693997383,None,244.59515693997383,None,244.59515693997383,None,,,,,,,,,,,,,,110,2023-04-04_14h44.18.180,Main,2022.1.1,60.02523459812596,
positive,neutral,1,l,j,,,,,,,,,2,8,44,8,,,,,,,,,main,2,2,1,neutral,positive,l,l,1,0.7686585999908857,244.60158130002674,245.61387689999538,245.59733610000694,None,244.60158130002674,None,244.60158130002674,None,244.60158130002674,None,246.36407444001526,None,246.36407444001526,None,246.36407444001526,None,,,,,,,,,,,,,,110,2023-04-04_14h44.18.180,Main,2022.1.1,60.02523459812596,
neutral,positive,1,k,k,,,,,,,,,2,9,45,4,,,,,,,,,main,1,1,1,positive,neutral,k,k,1,0.6947454999899492,246.36852030002046,247.38059750001412,247.36389939999208,None,246.36852030002046,None,246.36852030002046,None,246.36852030002046,None,248.06170154000284,None,248.06170154000284,None,248.06170154000284,None,,,,,,,,,,,,,,110,2023-04-04_14h44.18.180,Main,2022.1.1,60.02523459812596,
positive,neutral,2,l,j,,,,,,,,,2,10,46,17,,,,,,,,,main,1,1,2,neutral,positive,l,l,1,0.8483975999988616,248.06802339997375,249.07797589997062,249.06133220001357,None,248.06802339997375,None,248.06802339997375,None,248.06802339997375,None,249.91131574001048,None,249.91131574001048,None,249.91131574001048,None,,,,,,,,,,,,,,110,2023-04-04_14h44.18.180,Main,2022.1.1,60.02523459812596,
negative,negative,1,j,l,,,,,,,,,2,11,47,0,,,,,,,,,main,2,2,1,negative,negative,j,j,1,0.800800499971956,249.9115846999921,250.9113789999974,250.9113789999974,None,249.9115846999921,None,249.9115846999921,None,249.9115846999921,None,251.71375133997645,None,251.71375133997645,None,251.71375133997645,None,,,,,,,,,,,,,,110,2023-04-04_14h44.18.180,Main,2022.1.1,60.02523459812596,
neutral,positive,2,k,k,,,,,,,,,2,12,48,13,,,,,,,,,main,1,1,2,positive,neutral,k,k,1,0.629272399994079,251.7171212999965,252.73041249997914,252.7137961999979,None,251.7171212999965,None,251.7171212999965,None,251.7171212999965,None,253.34462243997842,None,253.34462243997842,None,253.34462243997842,None,,,,,,,,,,,,,,110,2023-04-04_14h44.18.180,Main,2022.1.1,60.02523459812596,
positive,positive,2,l,j,,,,,,,,,2,13,49,11,,,,,,,,,main,1,1,2,positive,positive,l,l,1,0.7985395999858156,253.34825949999504,254.36378910002531,254.34711079997942,None,253.34825949999504,None,253.34825949999504,None,253.34825949999504,None,255.14458374002135,None,255.14458374002135,None,255.14458374002135,None,,,,,,,,,,,,,,110,2023-04-04_14h44.18.180,Main,2022.1.1,60.02523459812596,
negative,positive,2,j,l,,,,,,,,,2,14,50,15,,,,,,,,,main,2,2,2,positive,negative,j,j,1,0.9172629000386223,255.1485477000242,256.16153069998836,256.14711580000585,None,255.1485477000242,None,255.1485477000242,None,255.1485477000242,None,257.0636418399925,None,257.0636418399925,None,257.0636418399925,None,,,,,,,,,,,,,,110,2023-04-04_14h44.18.180,Main,2022.1.1,60.02523459812596,
negative,neutral,1,j,l,,,,,,,,,2,15,51,3,,,,,,,,,main,2,2,1,neutral,negative,j,j,1,1.0457562999799848,257.0670700999908,258.0803243999835,258.0636627000058,None,257.0670700999908,None,257.0670700999908,None,257.0670700999908,None,259.11105273999857,None,259.11105273999857,None,259.11105273999857,None,,,,,,,,,,,,,,110,2023-04-04_14h44.18.180,Main,2022.1.1,60.02523459812596,
negative,neutral,2,j,l,,,,,,,,,2,16,52,12,,,,,,,,,main,1,1,2,neutral,negative,j,j,1,0.7318819999927655,259.11106949998066,260.1110818000161,260.1110818000161,None,259.11106949998066,None,259.11106949998066,None,259.11106949998066,None,260.8444528399676,None,260.8444528399676,None,260.8444528399676,None,,,,,,,,,,,,,,110,2023-04-04_14h44.18.180,Main,2022.1.1,60.02523459812596,
neutral,neutral,1,k,k,,,,,,,,,2,17,53,1,,,,,,,,,main,2,2,1,neutral,neutral,k,k,1,0.6656320999609306,260.84789959999034,261.84694640000816,261.84694640000816,None,260.84789959999034,None,260.84789959999034,None,260.84789959999034,None,262.5114448399807,None,262.5114448399807,None,262.5114448399807,None,,,,,,,,,,,,,,110,2023-04-04_14h44.18.180,Main,2022.1.1,60.02523459812596,
negative,positive,1,j,l,,,,,,,,,3,0,54,6,,,,,,,,,main,2,2,1,positive,negative,j,j,1,0.7482020999887027,262.51753239997197,263.5302391999867,263.513652499998,None,262.51753239997197,None,262.51753239997197,None,262.51753239997197,None,264.26135183997104,None,264.26135183997104,None,264.26135183997104,None,,,,,,,,,,,,,,110,2023-04-04_14h44.18.180,Main,2022.1.1,60.02523459812596,
negative,neutral,2,j,l,,,,,,,,,3,1,55,12,,,,,,,,,main,2,2,2,neutral,negative,j,j,1,0.7818219000473619,264.26501610002015,265.28012279997347,265.2635466000065,None,264.26501610002015,None,264.26501610002015,None,264.26501610002015,None,266.04468664001325,None,266.04468664001325,None,266.04468664001325,None,,,,,,,,,,,,,,110,2023-04-04_14h44.18.180,Main,2022.1.1,60.02523459812596,
positive,positive,1,l,j,,,,,,,,,3,2,56,2,,,,,,,,,main,1,1,1,positive,positive,l,l,1,0.8316346000065096,266.04850670002634,267.0613038999727,267.04669759998797,None,266.04850670002634,None,266.04850670002634,None,266.04850670002634,None,267.8779751399823,None,267.8779751399823,None,267.8779751399823,None,,,,,,,,,,,,,,110,2023-04-04_14h44.18.180,Main,2022.1.1,60.02523459812596,
neutral,positive,1,k,k,,,,,,,,,3,3,57,4,,,,,,,,,main,1,1,1,positive,neutral,k,k,1,0.6815753999981098,267.88662190001924,268.89397380000446,268.8766590000014,None,267.88662190001924,None,267.88662190001924,None,267.88662190001924,None,269.56091474000715,None,269.56091474000715,None,269.56091474000715,None,,,,,,,,,,,,,,110,2023-04-04_14h44.18.180,Main,2022.1.1,60.02523459812596,
negative,neutral,1,j,l,,,,,,,,,3,4,58,3,,,,,,,,,main,2,2,1,neutral,negative,j,j,1,0.7648286999901757,269.5608458999777,270.56087300000945,270.56087300000945,None,269.5608458999777,None,269.5608458999777,None,269.5608458999777,None,271.32754044000177,None,271.32754044000177,None,271.32754044000177,None,,,,,,,,,,,,,,110,2023-04-04_14h44.18.180,Main,2022.1.1,60.02523459812596,
positive,positive,2,l,j,,,,,,,,,3,5,59,11,,,,,,,,,main,2,2,2,positive,positive,l,l,1,1.5825824999483302,271.3290920999716,272.34419329999946,272.32752689998597,None,271.3290920999716,None,271.3290920999716,None,271.3290920999716,None,273.9112683000276,None,273.9112683000276,None,273.9112683000276,None,,,,,,,,,,,,,,110,2023-04-04_14h44.18.180,Main,2022.1.1,60.02523459812596,
positive,negative,2,l,j,,,,,,,,,3,6,60,14,,,,,,,,,main,2,2,2,negative,positive,l,l,1,0.9349208999774419,274.91206100001,275.9132604000042,275.8966375999735,None,274.91206100001,None,274.91206100001,None,274.91206100001,None,276.8445453399734,None,276.8445453399734,None,276.8445453399734,None,,,,,,,,,,,,,,110,2023-04-04_14h44.18.180,Main,2022.1.1,60.02523459812596,
positive,neutral,1,l,j,,,,,,,,,3,7,61,8,,,,,,,,,main,1,1,1,neutral,positive,l,l,1,0.7479716999805532,276.85058259998914,277.86329740000656,277.84408259997144,None,276.85058259998914,None,276.85058259998914,None,276.85058259998914,None,278.5943826400151,None,278.5943826400151,None,278.5943826400151,None,,,,,,,,,,,,,,110,2023-04-04_14h44.18.180,Main,2022.1.1,60.02523459812596,
negative,negative,2,j,l,,,,,,,,,3,8,62,9,,,,,,,,,main,2,2,2,negative,negative,j,j,1,0.7478704000241123,278.6002960000187,279.61313650000375,279.5965457999846,None,278.6002960000187,None,278.6002960000187,None,278.6002960000187,None,280.34402964000475,None,280.34402964000475,None,280.34402964000475,None,,,,,,,,,,,,,,110,2023-04-04_14h44.18.180,Main,2022.1.1,60.02523459812596,
negative,positive,2,j,l,,,,,,,,,3,9,63,15,,,,,,,,,main,2,2,2,positive,negative,j,j,1,0.831909500004258,280.3496788999764,281.36311089998344,281.3465292999754,None,280.3496788999764,None,280.3496788999764,None,280.3496788999764,None,282.1772630400199,None,282.1772630400199,None,282.1772630400199,None,,,,,,,,,,,,,,110,2023-04-04_14h44.18.180,Main,2022.1.1,60.02523459812596,
positive,neutral,2,l,j,,,,,,,,,3,10,64,17,,,,,,,,,main,1,1,2,neutral,positive,l,l,1,0.9818449000013061,282.177213500021,283.1772573000053,283.1772573000053,None,282.177213500021,None,282.177213500021,None,282.177213500021,None,284.1606362400169,None,284.1606362400169,None,284.1606362400169,None,,,,,,,,,,,,,,110,2023-04-04_14h44.18.180,Main,2022.1.1,60.02523459812596,
neutral,neutral,2,k,k,,,,,,,,,3,11,65,10,,,,,,,,,main,2,2,2,neutral,neutral,k,k,1,1.365575399948284,284.1662333999993,285.1796920999768,285.1631166000152,None,284.1662333999993,None,284.1662333999993,None,284.1662333999993,None,286.5275507399754,None,286.5275507399754,None,286.5275507399754,None,,,,,,,,,,,,,,110,2023-04-04_14h44.18.180,Main,2022.1.1,60.02523459812596,
negative,negative,1,j,l,,,,,,,,,3,12,66,0,,,,,,,,,main,2,2,1,negative,negative,j,j,1,0.848066300037317,286.5464942000108,287.54640920000384,287.52975440002047,None,286.5464942000108,None,286.5464942000108,None,286.5464942000108,None,288.37754224000383,None,288.37754224000383,None,288.37754224000383,None,,,,,,,,,,,,,,110,2023-04-04_14h44.18.180,Main,2022.1.1,60.02523459812596,
neutral,neutral,1,k,k,,,,,,,,,3,13,67,1,,,,,,,,,main,1,1,1,neutral,neutral,k,k,1,0.9354648999869823,288.382954199973,289.39637450000737,289.3797126999707,None,288.382954199973,None,288.382954199973,None,288.382954199973,None,290.31455584002543,None,290.31455584002543,None,290.31455584002543,None,,,,,,,,,,,,,,110,2023-04-04_14h44.18.180,Main,2022.1.1,60.02523459812596,
neutral,positive,2,k,k,,,,,,,,,3,14,68,13,,,,,,,,,main,2,2,2,positive,neutral,k,k,1,0.6781817000010051,290.318204900017,291.3296553000109,291.3130471999757,None,290.318204900017,None,290.318204900017,None,290.318204900017,None,291.99368474002114,None,291.99368474002114,None,291.99368474002114,None,,,,,,,,,,,,,,110,2023-04-04_14h44.18.180,Main,2022.1.1,60.02523459812596,
neutral,negative,2,k,k,,,,,,,,,3,15,69,16,,,,,,,,,main,1,1,2,negative,neutral,k,k,1,0.8146923999884166,291.9953423999832,293.01040349999676,292.993718600017,None,291.9953423999832,None,291.9953423999832,None,291.9953423999832,None,293.8104535399878,None,293.8104535399878,None,293.8104535399878,None,,,,,,,,,,,,,,110,2023-04-04_14h44.18.180,Main,2022.1.1,60.02523459812596,
neutral,negative,1,k,k,,,,,,,,,3,16,70,7,,,,,,,,,main,1,1,1,negative,neutral,k,k,1,0.851021500013303,293.8162586999824,294.8295571000199,294.81298530002823,None,293.8162586999824,None,293.8162586999824,None,293.8162586999824,None,295.6631565399992,None,295.6631565399992,None,295.6631565399992,None,,,,,,,,,,,,,,110,2023-04-04_14h44.18.180,Main,2022.1.1,60.02523459812596,
positive,negative,1,l,j,,,,,,,,,3,17,71,5,,,,,,,,,main,1,1,1,negative,positive,l,l,1,0.8618628000258468,295.66739939997206,296.6794443000108,296.6628541999962,None,295.66739939997206,None,295.66739939997206,None,295.66739939997206,None,297.52738144002507,None,297.52738144002507,None,297.52738144002507,None,,,,,,,,,,,,,,110,2023-04-04_14h44.18.180,Main,2022.1.1,60.02523459812596,
neutral,negative,2,k,k,,,,,,,,,4,0,72,16,,,,,,,,,main,1,1,2,negative,neutral,k,k,1,1.0317400999483652,297.53307960001985,298.5460967000108,298.5295299999998,None,297.53307960001985,None,297.53307960001985,None,297.53307960001985,None,299.56059983999586,None,299.56059983999586,None,299.56059983999586,None,,,,,,,,,,,,,,110,2023-04-04_14h44.18.180,Main,2022.1.1,60.02523459812596,
positive,neutral,1,l,j,,,,,,,,,4,1,73,8,,,,,,,,,main,2,2,1,neutral,positive,l,l,1,1.098476400016807,299.56636469997466,300.5772440999863,300.5628014000249,None,299.56636469997466,None,299.56636469997466,None,299.56636469997466,None,301.6605778399797,None,301.6605778399797,None,301.6605778399797,None,,,,,,,,,,,,,,110,2023-04-04_14h44.18.180,Main,2022.1.1,60.02523459812596,
positive,positive,1,l,j,,,,,,,,,4,2,74,2,,,,,,,,,main,1,1,1,positive,positive,l,l,1,0.7479768999619409,301.66640099999495,302.67681189998984,302.6601438000216,None,301.66640099999495,None,301.66640099999495,None,301.66640099999495,None,303.4101570399769,None,303.4101570399769,None,303.4101570399769,None,,,,,,,,,,,,,,110,2023-04-04_14h44.18.180,Main,2022.1.1,60.02523459812596,
negative,positive,2,j,l,,,,,,,,,4,3,75,15,,,,,,,,,main,1,1,2,positive,negative,j,j,1,0.8150835999986157,303.4101281000185,304.4101683999761,304.4101683999761,None,303.4101281000185,None,303.4101281000185,None,303.4101281000185,None,305.2268065400247,None,305.2268065400247,None,305.2268065400247,None,,,,,,,,,,,,,,110,2023-04-04_14h44.18.180,Main,2022.1.1,60.02523459812596,
negative,negative,2,j,l,,,,,,,,,4,4,76,9,,,,,,,,,main,2,2,2,negative,negative,j,j,1,0.6483976000454277,305.22907930001384,306.24346369999694,306.2268080000067,None,305.22907930001384,None,305.22907930001384,None,305.22907930001384,None,306.876829239988,None,306.876829239988,None,306.876829239988,None,,,,,,,,,,,,,,110,2023-04-04_14h44.18.180,Main,2022.1.1,60.02523459812596,
positive,negative,1,l,j,,,,,,,,,4,5,77,5,,,,,,,,,main,2,2,1,negative,positive,l,l,1,0.8344891000306234,306.88287339999806,307.89588169998024,307.8793172999867,None,306.88287339999806,None,306.88287339999806,None,306.88287339999806,None,308.71261634000695,None,308.71261634000695,None,308.71261634000695,None,,,,,,,,,,,,,,110,2023-04-04_14h44.18.180,Main,2022.1.1,60.02523459812596,
negative,positive,1,j,l,,,,,,,,,4,6,78,6,,,,,,,,,main,1,1,1,positive,negative,j,j,1,0.7497542999917641,308.72070449998137,309.72917080001207,309.7125640999875,None,308.72070449998137,None,308.72070449998137,None,308.72070449998137,None,310.46407523999807,None,310.46407523999807,None,310.46407523999807,None,,,,,,,,,,,,,,110,2023-04-04_14h44.18.180,Main,2022.1.1,60.02523459812596,
neutral,neutral,2,k,k,,,,,,,,,4,7,79,10,,,,,,,,,main,2,2,2,neutral,neutral,k,k,1,0.8969867000123486,310.46746820001863,311.479126500024,311.46255230001407,None,310.46746820001863,None,310.46746820001863,None,310.46746820001863,None,312.3626634399814,None,312.3626634399814,None,312.3626634399814,None,,,,,,,,,,,,,,110,2023-04-04_14h44.18.180,Main,2022.1.1,60.02523459812596,
neutral,negative,1,k,k,,,,,,,,,4,8,80,7,,,,,,,,,main,2,2,1,negative,neutral,k,k,1,0.665580399974715,312.3665945000248,313.3791395999724,313.3603343999712,None,312.3665945000248,None,312.3665945000248,None,312.3665945000248,None,314.0298229399894,None,314.0298229399894,None,314.0298229399894,None,,,,,,,,,,,,,,110,2023-04-04_14h44.18.180,Main,2022.1.1,60.02523459812596,
neutral,neutral,1,k,k,,,,,,,,,4,9,81,1,,,,,,,,,main,1,1,1,neutral,neutral,k,k,1,0.5783529999898747,314.0338850999833,315.0432119999896,315.02654099999927,None,314.0338850999833,None,314.0338850999833,None,314.0338850999833,None,315.6098369399959,None,315.6098369399959,None,315.6098369399959,None,,,,,,,,,,,,,,110,2023-04-04_14h44.18.180,Main,2022.1.1,60.02523459812596,
positive,neutral,2,l,j,,,,,,,,,4,10,82,17,,,,,,,,,main,2,2,2,neutral,positive,l,l,1,0.6653317000018433,315.60986069997307,316.6098720000009,316.6098720000009,None,315.60986069997307,None,315.60986069997307,None,315.60986069997307,None,317.2765907399997,None,317.2765907399997,None,317.2765907399997,None,,,,,,,,,,,,,,110,2023-04-04_14h44.18.180,Main,2022.1.1,60.02523459812596,
negative,neutral,2,j,l,,,,,,,,,4,11,83,12,,,,,,,,,main,2,2,2,neutral,negative,j,j,1,0.7482725000008941,317.2825193000026,318.29574740002863,318.2790645000059,None,317.2825193000026,None,317.2825193000026,None,317.2825193000026,None,319.0265572399774,None,319.0265572399774,None,319.0265572399774,None,,,,,,,,,,,,,,110,2023-04-04_14h44.18.180,Main,2022.1.1,60.02523459812596,
negative,neutral,1,j,l,,,,,,,,,4,12,84,3,,,,,,,,,main,1,1,1,neutral,negative,j,j,1,0.7320534999598749,319.0329748999793,320.0456736999913,320.0290966000175,None,319.0329748999793,None,319.0329748999793,None,319.0329748999793,None,320.76016713997234,None,320.76016713997234,None,320.76016713997234,None,,,,,,,,,,,,,,110,2023-04-04_14h44.18.180,Main,2022.1.1,60.02523459812596,
negative,negative,1,j,l,,,,,,,,,4,13,85,0,,,,,,,,,main,1,1,1,negative,negative,j,j,1,0.71514639997622,320.7661024000263,321.7789722000016,321.7623140999931,None,320.7661024000263,None,320.7661024000263,None,320.7661024000263,None,322.47676293998376,None,322.47676293998376,None,322.47676293998376,None,,,,,,,,,,,,,,110,2023-04-04_14h44.18.180,Main,2022.1.1,60.02523459812596,
positive,positive,2,l,j,,,,,,,,,4,14,86,11,,,,,,,,,main,1,1,2,positive,positive,l,l,1,0.7652369000134058,322.48323539999546,323.4955608000164,323.4790384999942,None,322.48323539999546,None,322.48323539999546,None,322.48323539999546,None,324.24343523998397,None,324.24343523998397,None,324.24343523998397,None,,,,,,,,,,,,,,110,2023-04-04_14h44.18.180,Main,2022.1.1,60.02523459812596,
neutral,positive,1,k,k,,,,,,,,,4,15,87,4,,,,,,,,,main,2,2,1,positive,neutral,k,k,1,0.814427400007844,324.24962339998456,325.25965010002255,325.24295300000813,None,324.24962339998456,None,324.24962339998456,None,324.24962339998456,None,326.05962703998085,None,326.05962703998085,None,326.05962703998085,None,,,,,,,,,,,,,,110,2023-04-04_14h44.18.180,Main,2022.1.1,60.02523459812596,
positive,negative,2,l,j,,,,,,,,,4,16,88,14,,,,,,,,,main,2,2,2,negative,positive,l,l,1,0.8846426000236534,326.0596162999864,327.05971000000136,327.05971000000136,None,326.0596162999864,None,326.0596162999864,None,326.0596162999864,None,327.9456683400029,None,327.9456683400029,None,327.9456683400029,None,,,,,,,,,,,,,,110,2023-04-04_14h44.18.180,Main,2022.1.1,60.02523459812596,
neutral,positive,2,k,k,,,,,,,,,4,17,89,13,,,,,,,,,main,1,1,2,positive,neutral,k,k,1,0.7629230999737047,327.9494324999978,328.96000520000234,328.94558759999927,None,327.9494324999978,None,327.9494324999978,None,327.9494324999978,None,329.71012813997805,None,329.71012813997805,None,329.71012813997805,None,,,,,,,,,,,,,,110,2023-04-04_14h44.18.180,Main,2022.1.1,60.02523459812596,
positive,negative,2,l,j,,,,,,,,,5,0,90,14,,,,,,,,,main,1,1,2,negative,positive,l,l,1,0.7170620000106283,329.7158969999873,330.7288054000237,330.71215440001106,None,329.7158969999873,None,329.7158969999873,None,329.7158969999873,None,331.4287936399749,None,331.4287936399749,None,331.4287936399749,None,,,,,,,,,,,,,,110,2023-04-04_14h44.18.180,Main,2022.1.1,60.02523459812596,
positive,positive,2,l,j,,,,,,,,,5,1,91,11,,,,,,,,,main,2,2,2,positive,positive,l,l,1,0.729725299985148,331.43281169998227,332.44533949997276,332.4288187000202,None,331.43281169998227,None,331.43281169998227,None,331.43281169998227,None,333.1599014400097,None,333.1599014400097,None,333.1599014400097,None,,,,,,,,,,,,,,110,2023-04-04_14h44.18.180,Main,2022.1.1,60.02523459812596,
negative,neutral,2,j,l,,,,,,,,,5,2,92,12,,,,,,,,,main,1,1,2,neutral,negative,j,j,1,0.7981032999814488,333.16602639999473,334.1786503000185,334.1620492999791,None,333.16602639999473,None,333.16602639999473,None,333.16602639999473,None,334.95986664002413,None,334.95986664002413,None,334.95986664002413,None,,,,,,,,,,,,,,110,2023-04-04_14h44.18.180,Main,2022.1.1,60.02523459812596,
neutral,neutral,1,k,k,,,,,,,,,5,3,93,1,,,,,,,,,main,2,2,1,neutral,neutral,k,k,1,0.8315013999817893,334.9652874000021,335.9761441000155,335.959477700002,None,334.9652874000021,None,334.9652874000021,None,334.9652874000021,None,336.79277023997275,None,336.79277023997275,None,336.79277023997275,None,,,,,,,,,,,,,,110,2023-04-04_14h44.18.180,Main,2022.1.1,60.02523459812596,
negative,positive,1,j,l,,,,,,,,,5,4,94,6,,,,,,,,,main,2,2,1,positive,negative,j,j,1,0.8484406999778003,336.7930370999966,337.79280430002837,337.79280430002837,None,336.7930370999966,None,336.7930370999966,None,336.7930370999966,None,338.64276974000387,None,338.64276974000387,None,338.64276974000387,None,,,,,,,,,,,,,,110,2023-04-04_14h44.18.180,Main,2022.1.1,60.02523459812596,
negative,negative,1,j,l,,,,,,,,,5,5,95,0,,,,,,,,,main,1,1,1,negative,negative,j,j,1,0.6319940999965183,338.64321010001004,339.64276010001777,339.64276010001777,None,338.64321010001004,None,338.64321010001004,None,338.64321010001004,None,340.27629404001055,None,340.27629404001055,None,340.27629404001055,None,,,,,,,,,,,,,,110,2023-04-04_14h44.18.180,Main,2022.1.1,60.02523459812596,
positive,negative,1,l,j,,,,,,,,,5,6,96,5,,,,,,,,,main,2,2,1,negative,positive,l,l,1,0.8150248000165448,340.2832924000104,341.2951858000015,341.27861859998666,None,340.2832924000104,None,340.2832924000104,None,340.2832924000104,None,342.0930474399764,None,342.0930474399764,None,342.0930474399764,None,,,,,,,,,,,,,,110,2023-04-04_14h44.18.180,Main,2022.1.1,60.02523459812596,
neutral,positive,2,k,k,,,,,,,,,5,7,97,13,,,,,,,,,main,2,2,2,positive,neutral,k,k,1,0.7650944999768399,342.0988939999952,343.1096977000125,343.0951859999914,None,342.0988939999952,None,342.0988939999952,None,342.0988939999952,None,343.8596620400029,None,343.8596620400029,None,343.8596620400029,None,,,,,,,,,,,,,,110,2023-04-04_14h44.18.180,Main,2022.1.1,60.02523459812596,
neutral,neutral,2,k,k,,,,,,,,,5,8,98,10,,,,,,,,,main,1,1,2,neutral,neutral,k,k,1,0.6673594000167213,343.86574889998883,344.87845720001496,344.85962010000367,None,343.86574889998883,None,343.86574889998883,None,343.86574889998883,None,345.52851184001776,None,345.52851184001776,None,345.52851184001776,None,,,,,,,,,,,,,,110,2023-04-04_14h44.18.180,Main,2022.1.1,60.02523459812596,
negative,negative,2,j,l,,,,,,,,,5,9,99,9,,,,,,,,,main,2,2,2,negative,negative,j,l,0,0.6961314000072889,345.53332119999686,346.54514010000275,346.5284402000252,None,345.53332119999686,None,345.53332119999686,None,345.53332119999686,None,347.2262703999877,None,347.2262703999877,None,347.2262703999877,None,,,,,,,,,,,,,,110,2023-04-04_14h44.18.180,Main,2022.1.1,60.02523459812596,
positive,neutral,2,l,j,,,,,,,,,5,10,100,17,,,,,,,,,main,2,2,2,neutral,positive,l,l,1,0.7867044000304304,348.22596369998064,349.2258440000005,349.20918270002585,None,348.22596369998064,None,348.22596369998064,None,348.22596369998064,None,350.00922713997426,None,350.00922713997426,None,350.00922713997426,None,,,,,,,,,,,,,,110,2023-04-04_14h44.18.180,Main,2022.1.1,60.02523459812596,
neutral,positive,1,k,k,,,,,,,,,5,11,101,4,,,,,,,,,main,2,2,1,positive,neutral,k,k,1,0.7827665000222623,350.01584870001534,351.02620550000574,351.01176879997365,None,350.01584870001534,None,350.01584870001534,None,350.01584870001534,None,351.7928439400101,None,351.7928439400101,None,351.7928439400101,None,,,,,,,,,,,,,,110,2023-04-04_14h44.18.180,Main,2022.1.1,60.02523459812596,
neutral,negative,1,k,k,,,,,,,,,5,12,102,7,,,,,,,,,main,1,1,1,negative,neutral,k,k,1,1.2807198999798857,351.79967590002343,352.8115894999937,352.7949696999858,None,351.79967590002343,None,351.79967590002343,None,351.79967590002343,None,354.07609423999094,None,354.07609423999094,None,354.07609423999094,None,,,,,,,,,,,,,,110,2023-04-04_14h44.18.180,Main,2022.1.1,60.02523459812596,
negative,positive,2,j,l,,,,,,,,,5,13,103,15,,,,,,,,,main,2,2,2,positive,negative,j,j,1,0.7838153000338934,354.0826537000248,355.0949339999934,355.0783328000107,None,354.0826537000248,None,354.0826537000248,None,354.0826537000248,None,355.861508039973,None,355.861508039973,None,355.861508039973,None,,,,,,,,,,,,,,110,2023-04-04_14h44.18.180,Main,2022.1.1,60.02523459812596,
positive,positive,1,l,j,,,,,,,,,5,14,104,2,,,,,,,,,main,2,2,1,positive,positive,l,l,1,0.7798120999941602,355.8654907000018,356.8781267000013,356.8615515999845,None,355.8654907000018,None,355.8654907000018,None,355.8654907000018,None,357.64271034001723,None,357.64271034001723,None,357.64271034001723,None,,,,,,,,,,,,,,110,2023-04-04_14h44.18.180,Main,2022.1.1,60.02523459812596,
negative,neutral,1,j,l,,,,,,,,,5,15,105,3,,,,,,,,,main,1,1,1,neutral,negative,j,j,1,0.6313073999481276,357.6483909999952,358.6589358000201,358.64227090001805,None,357.6483909999952,None,357.6483909999952,None,357.6483909999952,None,359.2756274399988,None,359.2756274399988,None,359.2756274399988,None,,,,,,,,,,,,,,110,2023-04-04_14h44.18.180,Main,2022.1.1,60.02523459812596,
neutral,negative,2,k,k,,,,,,,,,5,16,106,16,,,,,,,,,main,1,1,2,negative,neutral,k,k,1,0.7317439999897033,359.27561399998376,360.2756508999737,360.2756508999737,None,359.27561399998376,None,359.27561399998376,None,359.27561399998376,None,361.0089691399888,None,361.0089691399888,None,361.0089691399888,None,,,,,,,,,,,,,,110,2023-04-04_14h44.18.180,Main,2022.1.1,60.02523459812596,
positive,neutral,1,l,j,,,,,,,,,5,17,107,8,,,,,,,,,main,1,1,1,neutral,positive,l,l,1,0.6508349000359885,361.01514259999385,362.02805869997246,362.0114549000282,None,361.01514259999385,None,361.01514259999385,None,361.01514259999385,None,362.66152483997286,None,362.66152483997286,None,362.66152483997286,None,,,,,,,,,,,,,,110,2023-04-04_14h44.18.180,Main,2022.1.1,60.02523459812596,
negative,neutral,2,j,l,,,,,,,,,6,0,108,12,,,,,,,,,main,2,2,2,neutral,negative,j,j,1,0.7128775999881327,362.66553739999654,363.6758922999725,363.65920350002125,None,362.66553739999654,None,362.66553739999654,None,362.66553739999654,None,364.37580824001344,None,364.37580824001344,None,364.37580824001344,None,,,,,,,,,,,,,,110,2023-04-04_14h44.18.180,Main,2022.1.1,60.02523459812596,
negative,positive,1,j,l,,,,,,,,,6,1,109,6,,,,,,,,,main,1,1,1,positive,negative,j,j,1,0.7317645000293851,364.382387700025,365.3925448000082,365.37797500001034,None,364.382387700025,None,364.382387700025,None,364.382387700025,None,366.109213140019,None,366.109213140019,None,366.109213140019,None,,,,,,,,,,,,,,110,2023-04-04_14h44.18.180,Main,2022.1.1,60.02523459812596,
neutral,neutral,1,k,k,,,,,,,,,6,2,110,1,,,,,,,,,main,1,1,1,neutral,neutral,k,k,1,0.7149791999836452,366.1151002999977,367.12796700000763,367.1091461000033,None,366.1151002999977,None,366.1151002999977,None,366.1151002999977,None,367.8257831400086,None,367.8257831400086,None,367.8257831400086,None,,,,,,,,,,,,,,110,2023-04-04_14h44.18.180,Main,2022.1.1,60.02523459812596,
negative,negative,2,j,l,,,,,,,,,6,3,111,9,,,,,,,,,main,1,1,2,negative,negative,j,j,1,0.7815873999497853,367.84467329998733,368.85871539998334,368.82536349998554,None,367.84467329998733,None,367.84467329998733,None,367.84467329998733,None,369.60876154001454,None,369.60876154001454,None,369.60876154001454,None,,,,,,,,,,,,,,110,2023-04-04_14h44.18.180,Main,2022.1.1,60.02523459812596,
negative,neutral,1,j,l,,,,,,,,,6,4,112,3,,,,,,,,,main,1,1,1,neutral,negative,j,j,1,0.6649321999866515,369.60868070001015,370.60875010001473,370.60875010001473,None,369.60868070001015,None,369.60868070001015,None,369.60868070001015,None,371.2754132399976,None,371.2754132399976,None,371.2754132399976,None,,,,,,,,,,,,,,110,2023-04-04_14h44.18.180,Main,2022.1.1,60.02523459812596,
positive,negative,2,l,j,,,,,,,,,6,5,113,14,,,,,,,,,main,1,1,2,negative,positive,l,l,1,0.8652486999635585,371.2780879000202,372.2920397000271,372.2753652000101,None,371.2780879000202,None,371.2780879000202,None,371.2780879000202,None,373.14207484000946,None,373.14207484000946,None,373.14207484000946,None,,,,,,,,,,,,,,110,2023-04-04_14h44.18.180,Main,2022.1.1,60.02523459812596,
positive,neutral,1,l,j,,,,,,,,,6,6,114,8,,,,,,,,,main,2,2,1,neutral,positive,l,l,1,0.7652435000054538,373.1481073999894,374.16106740001123,374.14456240000436,None,373.1481073999894,None,373.1481073999894,None,373.1481073999894,None,374.9090445400041,None,374.9090445400041,None,374.9090445400041,None,,,,,,,,,,,,,,110,2023-04-04_14h44.18.180,Main,2022.1.1,60.02523459812596,
neutral,negative,1,k,k,,,,,,,,,6,7,115,7,,,,,,,,,main,1,1,1,negative,neutral,k,k,1,0.6679905999917537,374.91517280001426,375.92772909998894,375.91122339997673,None,374.91517280001426,None,374.91517280001426,None,374.91517280001426,None,376.57884493998137,None,376.57884493998137,None,376.57884493998137,None,,,,,,,,,,,,,,110,2023-04-04_14h44.18.180,Main,2022.1.1,60.02523459812596,
neutral,positive,1,k,k,,,,,,,,,6,8,116,4,,,,,,,,,main,2,2,1,positive,neutral,k,k,1,0.6782769999699667,376.5828792999964,377.5944688000018,377.5777894000057,None,376.5828792999964,None,376.5828792999964,None,376.5828792999964,None,378.2589747399732,None,378.2589747399732,None,378.2589747399732,None,,,,,,,,,,,,,,110,2023-04-04_14h44.18.180,Main,2022.1.1,60.02523459812596,
positive,neutral,2,l,j,,,,,,,,,6,9,117,17,,,,,,,,,main,2,2,2,neutral,positive,l,l,1,0.9178483999567106,378.2651458000182,379.2776979000191,379.26106019999133,None,378.2651458000182,None,378.2651458000182,None,378.2651458000182,None,380.179025739996,None,380.179025739996,None,380.179025739996,None,,,,,,,,,,,,,,110,2023-04-04_14h44.18.180,Main,2022.1.1,60.02523459812596,
positive,negative,1,l,j,,,,,,,,,6,10,118,5,,,,,,,,,main,1,1,1,negative,positive,l,l,1,0.8112201999756508,380.18226119998144,381.1913743999903,381.174133100023,None,380.18226119998144,None,380.18226119998144,None,380.18226119998144,None,381.99181794000907,None,381.99181794000907,None,381.99181794000907,None,,,,,,,,,,,,,,110,2023-04-04_14h44.18.180,Main,2022.1.1,60.02523459812596,
neutral,negative,2,k,k,,,,,,,,,6,11,119,16,,,,,,,,,main,2,2,2,negative,neutral,k,k,1,0.7314110000152141,381.996076099982,383.00844160001725,382.9919245999772,None,381.996076099982,None,381.996076099982,None,381.996076099982,None,383.72514903997654,None,383.72514903997654,None,383.72514903997654,None,,,,,,,,,,,,,,110,2023-04-04_14h44.18.180,Main,2022.1.1,60.02523459812596,
positive,positive,2,l,j,,,,,,,,,6,12,120,11,,,,,,,,,main,2,2,2,positive,positive,l,l,1,0.8489719000062905,383.7310485999915,384.7442472000257,384.72765389998676,None,383.7310485999915,None,383.7310485999915,None,383.7310485999915,None,385.5754434399831,None,385.5754434399831,None,385.5754434399831,None,,,,,,,,,,,,,,110,2023-04-04_14h44.18.180,Main,2022.1.1,60.02523459812596,
negative,negative,1,j,l,,,,,,,,,6,13,121,0,,,,,,,,,main,1,1,1,negative,negative,j,j,1,0.7826059999642894,385.58147430000827,386.5942278999719,386.5776454000152,None,385.58147430000827,None,385.58147430000827,None,385.58147430000827,None,387.358867440006,None,387.358867440006,None,387.358867440006,None,,,,,,,,,,,,,,110,2023-04-04_14h44.18.180,Main,2022.1.1,60.02523459812596,
positive,positive,1,l,j,,,,,,,,,6,14,122,2,,,,,,,,,main,2,2,1,positive,positive,l,l,1,0.7815763999824412,387.3648342000088,388.37537480000174,388.3587033000076,None,387.3648342000088,None,387.3648342000088,None,387.3648342000088,None,389.1420115399931,None,389.1420115399931,None,389.1420115399931,None,,,,,,,,,,,,,,110,2023-04-04_14h44.18.180,Main,2022.1.1,60.02523459812596,
negative,positive,2,j,l,,,,,,,,,6,15,123,15,,,,,,,,,main,2,2,2,positive,negative,j,j,1,0.8307865000097081,389.14878739998676,390.1607557000243,390.14201349997893,None,389.14878739998676,None,389.14878739998676,None,389.14878739998676,None,390.9752888399933,None,390.9752888399933,None,390.9752888399933,None,,,,,,,,,,,,,,110,2023-04-04_14h44.18.180,Main,2022.1.1,60.02523459812596,
neutral,neutral,2,k,k,,,,,,,,,6,16,124,10,,,,,,,,,main,2,2,2,neutral,neutral,k,k,1,1.7147034999798052,390.9941222000052,392.00823570002103,391.9749153999728,None,390.9941222000052,None,390.9941222000052,None,390.9941222000052,None,393.6916020999779,None,393.6916020999779,None,393.6916020999779,None,,,,,,,,,,,,,,110,2023-04-04_14h44.18.180,Main,2022.1.1,60.02523459812596,
neutral,positive,2,k,k,,,,,,,,,6,17,125,13,,,,,,,,,main,1,1,2,positive,neutral,k,k,1,0.6201675999909639,394.69259569997666,395.6940729999915,395.6774672999745,None,394.69259569997666,None,394.69259569997666,None,394.69259569997666,None,396.310709240014,None,396.310709240014,None,396.310709240014,None,,,,,,,,,,,,,,110,2023-04-04_14h44.18.180,Main,2022.1.1,60.02523459812596,
positive,neutral,2,l,j,,,,,,,,,7,0,126,17,,,,,,,,,main,1,1,2,neutral,positive,l,l,1,0.7639596000080928,396.31501700001536,397.32728399999905,397.3107621999807,None,396.31501700001536,None,396.31501700001536,None,396.31501700001536,None,398.07516404000927,None,398.07516404000927,None,398.07516404000927,None,,,,,,,,,,,,,,110,2023-04-04_14h44.18.180,Main,2022.1.1,60.02523459812596,
neutral,positive,2,k,k,,,,,,,,,7,1,127,13,,,,,,,,,main,2,2,2,positive,neutral,k,k,1,0.6639078999869525,398.0799191999831,399.0939757999731,399.0773831999977,None,398.0799191999831,None,398.0799191999831,None,398.0799191999831,None,399.7417896399682,None,399.7417896399682,None,399.7417896399682,None,,,,,,,,,,,,,,110,2023-04-04_14h44.18.180,Main,2022.1.1,60.02523459812596,
negative,neutral,1,j,l,,,,,,,,,7,2,128,3,,,,,,,,,main,2,2,1,neutral,negative,j,j,1,0.7648986999993213,399.74739809997845,400.76064900000347,400.7440210999921,None,399.74739809997845,None,399.74739809997845,None,399.74739809997845,None,401.50842773999904,None,401.50842773999904,None,401.50842773999904,None,,,,,,,,,,,,,,110,2023-04-04_14h44.18.180,Main,2022.1.1,60.02523459812596,
neutral,positive,1,k,k,,,,,,,,,7,3,129,4,,,,,,,,,main,2,2,1,positive,neutral,k,j,0,0.5306373999919742,401.51490399998147,402.5246964999824,402.5080403999891,None,401.51490399998147,None,401.51490399998147,None,401.51490399998147,None,403.04137689998606,None,403.04137689998606,None,403.04137689998606,None,,,,,,,,,,,,,,110,2023-04-04_14h44.18.180,Main,2022.1.1,60.02523459812596,
negative,negative,2,j,l,,,,,,,,,7,4,130,9,,,,,,,,,main,2,2,2,negative,negative,j,j,1,0.7534455999848433,404.04144709999673,405.041328900028,405.0246610000031,None,404.04144709999673,None,404.04144709999673,None,404.04144709999673,None,405.79133513998823,None,405.79133513998823,None,405.79133513998823,None,,,,,,,,,,,,,,110,2023-04-04_14h44.18.180,Main,2022.1.1,60.02523459812596,
negative,negative,1,j,l,,,,,,,,,7,5,131,0,,,,,,,,,main,1,1,1,negative,negative,j,j,1,0.8025566000142135,405.79737729998305,406.8105708999792,406.7939110000152,None,405.79737729998305,None,405.79737729998305,None,405.79737729998305,None,407.59535873999704,None,407.59535873999704,None,407.59535873999704,None,,,,,,,,,,,,,,110,2023-04-04_14h44.18.180,Main,2022.1.1,60.02523459812596,
positive,positive,2,l,j,,,,,,,,,7,6,132,11,,,,,,,,,main,2,2,2,positive,positive,l,l,1,0.8455100999563001,407.5990402000025,408.61029199999757,408.5938198000076,None,407.5990402000025,None,407.5990402000025,None,407.5990402000025,None,409.4416156399937,None,409.4416156399937,None,409.4416156399937,None,,,,,,,,,,,,,,110,2023-04-04_14h44.18.180,Main,2022.1.1,60.02523459812596,
positive,positive,1,l,j,,,,,,,,,7,7,133,2,,,,,,,,,main,2,2,1,positive,positive,l,l,1,0.6639472999959253,409.44827220001025,410.4603447000263,410.44369019998703,None,409.44827220001025,None,409.44827220001025,None,409.44827220001025,None,411.10822233998334,None,411.10822233998334,None,411.10822233998334,None,,,,,,,,,,,,,,110,2023-04-04_14h44.18.180,Main,2022.1.1,60.02523459812596,
negative,neutral,2,j,l,,,,,,,,,7,8,134,12,,,,,,,,,main,1,1,2,neutral,negative,j,j,1,0.782353799964767,411.11386919999495,412.12697629997274,412.110385100008,None,411.11386919999495,None,411.11386919999495,None,411.11386919999495,None,412.891527039971,None,412.891527039971,None,412.891527039971,None,,,,,,,,,,,,,,110,2023-04-04_14h44.18.180,Main,2022.1.1,60.02523459812596,
positive,neutral,1,l,j,,,,,,,,,7,9,135,8,,,,,,,,,main,1,1,1,neutral,positive,l,l,1,0.7639641999849118,412.8975847000256,413.9102647000109,413.8936837000074,None,412.8975847000256,None,412.8975847000256,None,412.8975847000256,None,414.65769934000565,None,414.65769934000565,None,414.65769934000565,None,,,,,,,,,,,,,,110,2023-04-04_14h44.18.180,Main,2022.1.1,60.02523459812596,
neutral,neutral,2,k,k,,,,,,,,,7,10,136,10,,,,,,,,,main,1,1,2,neutral,neutral,k,k,1,0.7484706999966875,414.6576979000238,415.6577214000281,415.6577214000281,None,414.6576979000238,None,414.6576979000238,None,414.6576979000238,None,416.4077841400111,None,416.4077841400111,None,416.4077841400111,None,,,,,,,,,,,,,,110,2023-04-04_14h44.18.180,Main,2022.1.1,60.02523459812596,
positive,negative,2,l,j,,,,,,,,,7,11,137,14,,,,,,,,,main,2,2,2,negative,positive,l,l,1,0.7321287000086159,416.4134119999944,417.4269207000034,417.4102293999749,None,416.4134119999944,None,416.4134119999944,None,416.4134119999944,None,418.1414007399988,None,418.1414007399988,None,418.1414007399988,None,,,,,,,,,,,,,,110,2023-04-04_14h44.18.180,Main,2022.1.1,60.02523459812596,
negative,positive,2,j,l,,,,,,,,,7,12,138,15,,,,,,,,,main,2,2,2,positive,negative,j,j,1,0.7650705000269227,418.1474318000255,419.1601182000013,419.1435323000187,None,418.1474318000255,None,418.1474318000255,None,418.1474318000255,None,419.9079877399898,None,419.9079877399898,None,419.9079877399898,None,,,,,,,,,,,,,,110,2023-04-04_14h44.18.180,Main,2022.1.1,60.02523459812596,
neutral,neutral,1,k,k,,,,,,,,,7,13,139,1,,,,,,,,,main,2,2,1,neutral,neutral,k,k,1,0.7651318000280298,419.9137077999767,420.92674020002596,420.91022309998516,None,419.9137077999767,None,419.9137077999767,None,419.9137077999767,None,421.6746199399757,None,421.6746199399757,None,421.6746199399757,None,,,,,,,,,,,,,,110,2023-04-04_14h44.18.180,Main,2022.1.1,60.02523459812596,
neutral,negative,1,k,k,,,,,,,,,7,14,140,7,,,,,,,,,main,2,2,1,negative,neutral,k,k,1,0.6985209000413306,421.6805460000178,422.6934582000249,422.6768081000191,None,421.6805460000178,None,421.6805460000178,None,421.6805460000178,None,423.37460124001956,None,423.37460124001956,None,423.37460124001956,None,,,,,,,,,,,,,,110,2023-04-04_14h44.18.180,Main,2022.1.1,60.02523459812596,
positive,negative,1,l,j,,,,,,,,,7,15,141,5,,,,,,,,,main,1,1,1,negative,positive,l,l,1,0.8146254000021145,423.3805517000146,424.3934189999709,424.3768405999872,None,423.3805517000146,None,423.3805517000146,None,423.3805517000146,None,425.190808140015,None,425.190808140015,None,425.190808140015,None,,,,,,,,,,,,,,110,2023-04-04_14h44.18.180,Main,2022.1.1,60.02523459812596,
neutral,negative,2,k,k,,,,,,,,,7,16,142,16,,,,,,,,,main,1,1,2,negative,neutral,k,k,1,0.6983555000042543,425.1907762999763,426.19082479999634,426.19082479999634,None,425.1907762999763,None,425.1907762999763,None,425.1907762999763,None,426.89087173998706,None,426.89087173998706,None,426.89087173998706,None,,,,,,,,,,,,,,110,2023-04-04_14h44.18.180,Main,2022.1.1,60.02523459812596,
negative,positive,1,j,l,,,,,,,,,7,17,143,6,,,,,,,,,main,2,2,1,positive,negative,j,j,1,0.7318908000015654,426.89647699997295,427.90993409999646,427.8933516999823,None,426.89647699997295,None,426.89647699997295,None,426.89647699997295,None,428.6241582400224,None,428.6241582400224,None,428.6241582400224,None,,,,,,,,,,,,,,110,2023-04-04_14h44.18.180,Main,2022.1.1,60.02523459812596,
neutral,negative,2,k,k,,,,,,,,,8,0,144,16,,,,,,,,,main,1,1,2,negative,neutral,k,k,1,0.8328875000006519,428.6298445999855,429.64334559999406,429.62663940002676,None,428.6298445999855,None,428.6298445999855,None,428.6298445999855,None,430.4579818399914,None,430.4579818399914,None,430.4579818399914,None,,,,,,,,,,,,,,110,2023-04-04_14h44.18.180,Main,2022.1.1,60.02523459812596,
negative,negative,2,j,l,,,,,,,,,8,1,145,9,,,,,,,,,main,2,2,2,negative,negative,j,j,1,0.8640535000013188,430.4641796000069,431.4765063999803,431.45993150002323,None,430.4641796000069,None,430.4641796000069,None,430.4641796000069,None,432.32438374000486,None,432.32438374000486,None,432.32438374000486,None,,,,,,,,,,,,,,110,2023-04-04_14h44.18.180,Main,2022.1.1,60.02523459812596,
neutral,negative,1,k,k,,,,,,,,,8,2,146,7,,,,,,,,,main,2,2,1,negative,neutral,k,k,1,0.6985785000142641,432.33021330001066,433.34318899997743,433.32437390001724,None,432.33021330001066,None,432.33021330001066,None,432.33021330001066,None,434.02434273999535,None,434.02434273999535,None,434.02434273999535,None,,,,,,,,,,,,,,110,2023-04-04_14h44.18.180,Main,2022.1.1,60.02523459812596,
positive,positive,1,l,j,,,,,,,,,8,3,147,2,,,,,,,,,main,1,1,1,positive,positive,l,l,1,0.8477423000149429,434.03032129997155,435.04057830001693,435.0239256999921,None,434.03032129997155,None,434.03032129997155,None,434.03032129997155,None,435.8739349400101,None,435.8739349400101,None,435.8739349400101,None,,,,,,,,,,,,,,110,2023-04-04_14h44.18.180,Main,2022.1.1,60.02523459812596,
positive,negative,1,l,j,,,,,,,,,8,4,148,5,,,,,,,,,main,2,2,1,negative,positive,l,l,1,0.835881499981042,435.8759958000155,436.89061920001404,436.87394349998794,None,435.8759958000155,None,435.8759958000155,None,435.8759958000155,None,437.70729024002213,None,437.70729024002213,None,437.70729024002213,None,,,,,,,,,,,,,,110,2023-04-04_14h44.18.180,Main,2022.1.1,60.02523459812596,
neutral,neutral,1,k,k,,,,,,,,,8,5,149,1,,,,,,,,,main,1,1,1,neutral,neutral,k,k,1,0.6944594000233337,437.71178489999147,438.7238881000085,438.7072355999844,None,437.71178489999147,None,437.71178489999147,None,437.71178489999147,None,439.4072837399843,None,439.4072837399843,None,439.4072837399843,None,,,,,,,,,,,,,,110,2023-04-04_14h44.18.180,Main,2022.1.1,60.02523459812596,
negative,positive,2,j,l,,,,,,,,,8,6,150,15,,,,,,,,,main,2,2,2,positive,negative,j,j,1,0.8046597999637015,439.4130906999926,440.42646909999894,440.40975689998595,None,439.4130906999926,None,439.4130906999926,None,439.4130906999926,None,441.213416239986,None,441.213416239986,None,441.213416239986,None,,,,,,,,,,,,,,110,2023-04-04_14h44.18.180,Main,2022.1.1,60.02523459812596,
negative,positive,1,j,l,,,,,,,,,8,7,151,6,,,,,,,,,main,1,1,1,positive,negative,j,j,1,1.3938631999772042,441.2175114999991,442.22417609998956,442.209652599995,None,441.2175114999991,None,441.2175114999991,None,441.2175114999991,None,443.6079474399856,None,443.6079474399856,None,443.6079474399856,None,,,,,,,,,,,,,,110,2023-04-04_14h44.18.180,Main,2022.1.1,60.02523459812596,
positive,neutral,2,l,j,,,,,,,,,8,8,152,17,,,,,,,,,main,1,1,2,neutral,positive,l,l,1,0.7493516999529675,443.61438460001955,444.6263607000001,444.6096934999805,None,443.61438460001955,None,443.61438460001955,None,443.61438460001955,None,445.35969683997683,None,445.35969683997683,None,445.35969683997683,None,,,,,,,,,,,,,,110,2023-04-04_14h44.18.180,Main,2022.1.1,60.02523459812596,
positive,negative,2,l,j,,,,,,,,,8,9,153,14,,,,,,,,,main,1,1,2,negative,positive,l,l,1,0.6127732999739237,445.3635314999847,446.37620499997865,446.35959349997574,None,445.3635314999847,None,445.3635314999847,None,445.3635314999847,None,446.9740126399964,None,446.9740126399964,None,446.9740126399964,None,,,,,,,,,,,,,,110,2023-04-04_14h44.18.180,Main,2022.1.1,60.02523459812596,
negative,negative,1,j,l,,,,,,,,,8,10,154,0,,,,,,,,,main,2,2,1,negative,negative,j,j,1,0.7314537999918684,446.9803549000062,447.990329799999,447.97364159999415,None,446.9803549000062,None,446.9803549000062,None,446.9803549000062,None,448.70698043999147,None,448.70698043999147,None,448.70698043999147,None,,,,,,,,,,,,,,110,2023-04-04_14h44.18.180,Main,2022.1.1,60.02523459812596,
positive,positive,2,l,j,,,,,,,,,8,11,155,11,,,,,,,,,main,2,2,2,positive,positive,l,l,1,0.9679572999593802,448.70706659997813,449.70705879997695,449.70705879997695,None,448.70706659997813,None,448.70706659997813,None,448.70706659997813,None,450.67637133998215,None,450.67637133998215,None,450.67637133998215,None,,,,,,,,,,,,,,110,2023-04-04_14h44.18.180,Main,2022.1.1,60.02523459812596,
positive,neutral,1,l,j,,,,,,,,,8,12,156,8,,,,,,,,,main,1,1,1,neutral,positive,l,l,1,0.9812931999913417,450.6801157000009,451.692790400004,451.6761717000045,None,450.6801157000009,None,450.6801157000009,None,450.6801157000009,None,452.65952004001593,None,452.65952004001593,None,452.65952004001593,None,,,,,,,,,,,,,,110,2023-04-04_14h44.18.180,Main,2022.1.1,60.02523459812596,
neutral,neutral,2,k,k,,,,,,,,,8,13,157,10,,,,,,,,,main,1,1,2,neutral,neutral,k,k,1,0.8289597000111826,452.66356279997854,453.67604729998857,453.6595252000261,None,452.66356279997854,None,452.66356279997854,None,452.66356279997854,None,454.49028164001066,None,454.49028164001066,None,454.49028164001066,None,,,,,,,,,,,,,,110,2023-04-04_14h44.18.180,Main,2022.1.1,60.02523459812596,
negative,neutral,2,j,l,,,,,,,,,8,14,158,12,,,,,,,,,main,2,2,2,neutral,negative,j,j,1,0.7146828000550158,454.49736269999994,455.50934380001854,455.4927278999821,None,454.49736269999994,None,454.49736269999994,None,454.49736269999994,None,456.20719754001476,None,456.20719754001476,None,456.20719754001476,None,,,,,,,,,,,,,,110,2023-04-04_14h44.18.180,Main,2022.1.1,60.02523459812596,
neutral,positive,1,k,k,,,,,,,,,8,15,159,4,,,,,,,,,main,1,1,1,positive,neutral,k,k,1,0.8314511000062339,456.2133982999949,457.2259516000049,457.2094022000092,None,456.2133982999949,None,456.2133982999949,None,456.2133982999949,None,458.0401469400211,None,458.0401469400211,None,458.0401469400211,None,,,,,,,,,,,,,,110,2023-04-04_14h44.18.180,Main,2022.1.1,60.02523459812596,
negative,neutral,1,j,l,,,,,,,,,8,16,160,3,,,,,,,,,main,2,2,1,neutral,negative,j,j,1,0.898409100016579,458.0400838999776,459.0401044000173,459.0401044000173,None,458.0400838999776,None,458.0400838999776,None,458.0400838999776,None,459.9401862399944,None,459.9401862399944,None,459.9401862399944,None,,,,,,,,,,,,,,110,2023-04-04_14h44.18.180,Main,2022.1.1,60.02523459812596,
neutral,positive,2,k,k,,,,,,,,,8,17,161,13,,,,,,,,,main,1,1,2,positive,neutral,k,k,1,1.6986184000270441,459.9467256999924,460.95920550002484,460.94268779997947,None,459.9467256999924,None,459.9467256999924,None,459.9467256999924,None,462.6404139000224,None,462.6404139000224,None,462.6404139000224,None,,,,,,,,,,,,,,110,2023-04-04_14h44.18.180,Main,2022.1.1,60.02523459812596,
positive,negative,1,l,j,,,,,,,,,9,0,162,5,,,,,,,,,main,1,1,1,negative,positive,l,l,1,0.7858241999638267,463.64075189997675,464.64250449999236,464.62590980000095,None,463.64075189997675,None,463.64075189997675,None,463.64075189997675,None,465.4237120399892,None,465.4237120399892,None,465.4237120399892,None,,,,,,,,,,,,,,110,2023-04-04_14h44.18.180,Main,2022.1.1,60.02523459812596,
negative,positive,2,j,l,,,,,,,,,9,1,163,15,,,,,,,,,main,2,2,2,positive,negative,j,j,1,0.7137319999746978,465.42982840002514,466.44245809997665,466.4258869999903,None,465.42982840002514,None,465.42982840002514,None,465.42982840002514,None,467.1403322400118,None,467.1403322400118,None,467.1403322400118,None,,,,,,,,,,,,,,110,2023-04-04_14h44.18.180,Main,2022.1.1,60.02523459812596,
negative,negative,1,j,l,,,,,,,,,9,2,164,0,,,,,,,,,main,2,2,1,negative,negative,j,j,1,0.797210399992764,467.14642499998445,468.15643620002083,468.14002980000805,None,467.14642499998445,None,467.14642499998445,None,467.14642499998445,None,468.93993063996896,None,468.93993063996896,None,468.93993063996896,None,,,,,,,,,,,,,,110,2023-04-04_14h44.18.180,Main,2022.1.1,60.02523459812596,
neutral,positive,1,k,k,,,,,,,,,9,3,165,4,,,,,,,,,main,1,1,1,positive,neutral,k,k,1,0.748337300028652,468.9398643000168,469.9399045999744,469.9399045999744,None,468.9398643000168,None,468.9398643000168,None,468.9398643000168,None,470.68991984000314,None,470.68991984000314,None,470.68991984000314,None,,,,,,,,,,,,,,110,2023-04-04_14h44.18.180,Main,2022.1.1,60.02523459812596,
negative,neutral,2,j,l,,,,,,,,,9,4,166,12,,,,,,,,,main,2,2,2,neutral,negative,j,l,0,0.7317764000035822,470.69241050002165,471.7065361000132,471.68986959999893,None,470.69241050002165,None,470.69241050002165,None,470.69241050002165,None,472.4232162000262,None,472.4232162000262,None,472.4232162000262,None,,,,,,,,,,,,,,110,2023-04-04_14h44.18.180,Main,2022.1.1,60.02523459812596,
positive,neutral,1,l,j,,,,,,,,,9,5,167,8,,,,,,,,,main,1,1,1,neutral,positive,l,l,1,0.9346040000091307,473.42429059999995,474.4257090999745,474.4090900999727,None,473.42429059999995,None,473.42429059999995,None,473.42429059999995,None,475.3568305399793,None,475.3568305399793,None,475.3568305399793,None,,,,,,,,,,,,,,110,2023-04-04_14h44.18.180,Main,2022.1.1,60.02523459812596,
neutral,negative,1,k,k,,,,,,,,,9,6,168,7,,,,,,,,,main,1,1,1,negative,neutral,k,k,1,0.7190440000267699,475.3628503999789,476.3755454000202,476.3590402000118,None,475.3628503999789,None,475.3628503999789,None,475.3628503999789,None,477.07747374001775,None,477.07747374001775,None,477.07747374001775,None,,,,,,,,,,,,,,110,2023-04-04_14h44.18.180,Main,2022.1.1,60.02523459812596,
positive,negative,2,l,j,,,,,,,,,9,7,169,14,,,,,,,,,main,2,2,2,negative,positive,l,l,1,0.9943674000096507,477.0810964999837,478.09218819998205,478.07559429999674,None,477.0810964999837,None,477.0810964999837,None,477.0810964999837,None,479.0735013399797,None,479.0735013399797,None,479.0735013399797,None,,,,,,,,,,,,,,110,2023-04-04_14h44.18.180,Main,2022.1.1,60.02523459812596,
positive,neutral,2,l,j,,,,,,,,,9,8,170,17,,,,,,,,,main,2,2,2,neutral,positive,l,l,1,0.7910948999924585,479.08003379998263,480.0922597000026,480.07562820002204,None,479.08003379998263,None,479.08003379998263,None,479.08003379998263,None,480.86696414001636,None,480.86696414001636,None,480.86696414001636,None,,,,,,,,,,,,,,110,2023-04-04_14h44.18.180,Main,2022.1.1,60.02523459812596,
neutral,neutral,1,k,k,,,,,,,,,9,9,171,1,,,,,,,,,main,1,1,1,neutral,neutral,k,k,1,0.9710824000067078,480.8671325999894,481.87295210000593,481.85629209998297,None,480.8671325999894,None,480.8671325999894,None,480.8671325999894,None,482.83966983998545,None,482.83966983998545,None,482.83966983998545,None,,,,,,,,,,,,,,110,2023-04-04_14h44.18.180,Main,2022.1.1,60.02523459812596,
negative,neutral,1,j,l,,,,,,,,,9,10,172,3,,,,,,,,,main,1,1,1,neutral,negative,j,j,1,0.867618800024502,482.84291339997435,483.8421469000168,483.8421469000168,None,482.84291339997435,None,482.84291339997435,None,482.84291339997435,None,484.7088858400064,None,484.7088858400064,None,484.7088858400064,None,,,,,,,,,,,,,,110,2023-04-04_14h44.18.180,Main,2022.1.1,60.02523459812596,
neutral,neutral,2,k,k,,,,,,,,,9,11,173,10,,,,,,,,,main,2,2,2,neutral,neutral,k,k,1,1.0296496000373736,484.71283879998373,485.72541339998133,485.7088002000237,None,484.71283879998373,None,484.71283879998373,None,484.71283879998373,None,486.73958873997327,None,486.73958873997327,None,486.73958873997327,None,,,,,,,,,,,,,,110,2023-04-04_14h44.18.180,Main,2022.1.1,60.02523459812596,
negative,negative,2,j,l,,,,,,,,,9,12,174,9,,,,,,,,,main,2,2,2,negative,negative,j,j,1,0.7983683000202291,486.7459814000176,487.7587278999854,487.7421304999734,None,486.7459814000176,None,486.7459814000176,None,486.7459814000176,None,488.5398455399962,None,488.5398455399962,None,488.5398455399962,None,,,,,,,,,,,,,,110,2023-04-04_14h44.18.180,Main,2022.1.1,60.02523459812596,
positive,positive,1,l,j,,,,,,,,,9,13,175,2,,,,,,,,,main,1,1,1,positive,positive,l,l,1,0.8486607000231743,488.54542989999754,489.5585779999965,489.5420417999849,None,488.54542989999754,None,488.54542989999754,None,488.54542989999754,None,490.3898246399884,None,490.3898246399884,None,490.3898246399884,None,,,,,,,,,,,,,,110,2023-04-04_14h44.18.180,Main,2022.1.1,60.02523459812596,
positive,positive,2,l,j,,,,,,,,,9,14,176,11,,,,,,,,,main,1,1,2,positive,positive,l,l,1,0.8148411999573,490.3959467000095,491.4060245999717,491.38937290001195,None,490.3959467000095,None,490.3959467000095,None,490.3959467000095,None,492.2060862399929,None,492.2060862399929,None,492.2060862399929,None,,,,,,,,,,,,,,110,2023-04-04_14h44.18.180,Main,2022.1.1,60.02523459812596,
neutral,negative,2,k,k,,,,,,,,,9,15,177,16,,,,,,,,,main,1,1,2,negative,neutral,k,k,1,0.7341972000431269,492.2060698000132,493.2060854000156,493.2060854000156,None,492.2060698000132,None,492.2060698000132,None,492.2060698000132,None,493.9420094400237,None,493.9420094400237,None,493.9420094400237,None,,,,,,,,,,,,,,110,2023-04-04_14h44.18.180,Main,2022.1.1,60.02523459812596,
neutral,positive,2,k,k,,,,,,,,,9,16,178,13,,,,,,,,,main,2,2,2,positive,neutral,k,k,1,0.6459829999948852,493.9467998999753,494.9584953999729,494.94192670000484,None,493.9467998999753,None,493.9467998999753,None,493.9467998999753,None,495.589747539995,None,495.589747539995,None,495.589747539995,None,,,,,,,,,,,,,,110,2023-04-04_14h44.18.180,Main,2022.1.1,60.02523459812596,
negative,positive,1,j,l,,,,,,,,,9,17,179,6,,,,,,,,,main,1,1,1,positive,negative,j,j,1,0.8006211000028998,495.5962088999804,496.6085258999956,496.58967700001085,None,495.5962088999804,None,495.5962088999804,None,495.5962088999804,None,497.3918719399779,None,497.3918719399779,None,497.3918719399779,None,,,,,,,,,,,,,,110,2023-04-04_14h44.18.180,Main,2022.1.1,60.02523459812596,
negative,positive,1,j,l,,,,,,,,,10,0,180,6,,,,,,,,,main,2,2,1,positive,negative,j,j,1,0.697145200043451,497.39698179997504,498.40849040000467,498.39181990001816,None,497.39698179997504,None,497.39698179997504,None,497.39698179997504,None,499.0893080400245,None,499.0893080400245,None,499.0893080400245,None,,,,,,,,,,,,,,110,2023-04-04_14h44.18.180,Main,2022.1.1,60.02523459812596,
negative,negative,1,j,l,,,,,,,,,10,1,181,0,,,,,,,,,main,1,1,1,negative,negative,j,j,1,0.747384799993597,499.0960522000096,500.10838729998795,500.09174910001457,None,499.0960522000096,None,499.0960522000096,None,499.0960522000096,None,500.83960793997977,None,500.83960793997977,None,500.83960793997977,None,,,,,,,,,,,,,,110,2023-04-04_14h44.18.180,Main,2022.1.1,60.02523459812596,
negative,negative,2,j,l,,,,,,,,,10,2,182,9,,,,,,,,,main,2,2,2,negative,negative,j,j,1,0.664520199992694,500.8454138999805,501.8558192999917,501.83915309997974,None,500.8454138999805,None,500.8454138999805,None,500.8454138999805,None,502.5057745399943,None,502.5057745399943,None,502.5057745399943,None,,,,,,,,,,,,,,110,2023-04-04_14h44.18.180,Main,2022.1.1,60.02523459812596,
negative,positive,2,j,l,,,,,,,,,10,3,183,15,,,,,,,,,main,2,2,2,positive,negative,j,j,1,0.5653022000333294,502.5072702000034,503.5225195999956,503.50584370002616,None,502.5072702000034,None,502.5072702000034,None,502.5072702000034,None,504.07253103998374,None,504.07253103998374,None,504.07253103998374,None,,,,,,,,,,,,,,110,2023-04-04_14h44.18.180,Main,2022.1.1,60.02523459812596,
positive,negative,1,l,j,,,,,,,,,10,4,184,5,,,,,,,,,main,1,1,1,negative,positive,l,l,1,0.7985460000345483,504.0732290999731,505.0724816999864,505.0724816999864,None,504.0732290999731,None,504.0732290999731,None,504.0732290999731,None,505.8725109399937,None,505.8725109399937,None,505.8725109399937,None,,,,,,,,,,,,,,110,2023-04-04_14h44.18.180,Main,2022.1.1,60.02523459812596,
positive,neutral,2,l,j,,,,,,,,,10,5,185,17,,,,,,,,,main,1,1,2,neutral,positive,l,l,1,0.7002320000319742,505.889173500007,506.89162050001323,506.8750701000099,None,505.889173500007,None,505.889173500007,None,505.889173500007,None,507.5750048400194,None,507.5750048400194,None,507.5750048400194,None,,,,,,,,,,,,,,110,2023-04-04_14h44.18.180,Main,2022.1.1,60.02523459812596,
positive,positive,1,l,j,,,,,,,,,10,6,186,2,,,,,,,,,main,1,1,1,positive,positive,l,l,1,0.6473384999553673,507.57898410002235,508.5914997999789,508.5749985000002,None,507.57898410002235,None,507.57898410002235,None,507.57898410002235,None,509.2227399399679,None,509.2227399399679,None,509.2227399399679,None,,,,,,,,,,,,,,110,2023-04-04_14h44.18.180,Main,2022.1.1,60.02523459812596,
positive,negative,2,l,j,,,,,,,,,10,7,187,14,,,,,,,,,main,2,2,2,negative,positive,l,l,1,0.5803609999711625,509.22896179999225,510.24146240000846,510.2249908000231,None,509.22896179999225,None,509.22896179999225,None,509.22896179999225,None,510.8057946400193,None,510.8057946400193,None,510.8057946400193,None,,,,,,,,,,,,,,110,2023-04-04_14h44.18.180,Main,2022.1.1,60.02523459812596,
positive,neutral,1,l,j,,,,,,,,,10,8,188,8,,,,,,,,,main,1,1,1,neutral,positive,l,l,1,0.5819601999828592,510.8121617999859,511.8248095000163,511.8082377000246,None,510.8121617999859,None,510.8121617999859,None,510.8121617999859,None,512.38932033999,None,512.38932033999,None,512.38932033999,None,,,,,,,,,,,,,,110,2023-04-04_14h44.18.180,Main,2022.1.1,60.02523459812596,
negative,neutral,1,j,l,,,,,,,,,10,9,189,3,,,,,,,,,main,1,1,1,neutral,negative,j,j,1,0.7145429000374861,512.4081772000063,513.4081182000227,513.391527300002,None,512.4081772000063,None,512.4081772000063,None,512.4081772000063,None,514.1055355400138,None,514.1055355400138,None,514.1055355400138,None,,,,,,,,,,,,,,110,2023-04-04_14h44.18.180,Main,2022.1.1,60.02523459812596,
negative,neutral,2,j,l,,,,,,,,,10,10,190,12,,,,,,,,,main,1,1,2,neutral,negative,j,j,1,0.6484614000073634,514.106001099979,515.1055805999786,515.1055805999786,None,514.106001099979,None,514.106001099979,None,514.106001099979,None,515.7555637400189,None,515.7555637400189,None,515.7555637400189,None,,,,,,,,,,,,,,110,2023-04-04_14h44.18.180,Main,2022.1.1,60.02523459812596,
neutral,negative,1,k,k,,,,,,,,,10,11,191,7,,,,,,,,,main,1,1,1,negative,neutral,k,k,1,0.7656973000266589,515.755517099984,516.7556251999922,516.7556251999922,None,515.755517099984,None,515.755517099984,None,515.755517099984,None,517.5225965399702,None,517.5225965399702,None,517.5225965399702,None,,,,,,,,,,,,,,110,2023-04-04_14h44.18.180,Main,2022.1.1,60.02523459812596,
neutral,positive,2,k,k,,,,,,,,,10,12,192,13,,,,,,,,,main,2,2,2,positive,neutral,k,k,1,0.648640199971851,517.5284728999832,518.5413125000196,518.5248020999716,None,517.5284728999832,None,517.5284728999832,None,517.5284728999832,None,519.1725313400209,None,519.1725313400209,None,519.1725313400209,None,,,,,,,,,,,,,,110,2023-04-04_14h44.18.180,Main,2022.1.1,60.02523459812596,
neutral,neutral,2,k,k,,,,,,,,,10,13,193,10,,,,,,,,,main,2,2,2,neutral,neutral,k,k,1,0.5977675000322051,519.184513300017,520.1912673999905,520.1746923999744,None,519.184513300017,None,519.184513300017,None,519.184513300017,None,520.7724981399776,None,520.7724981399776,None,520.7724981399776,None,,,,,,,,,,,,,,110,2023-04-04_14h44.18.180,Main,2022.1.1,60.02523459812596,
positive,positive,2,l,j,,,,,,,,,10,14,194,11,,,,,,,,,main,1,1,2,positive,positive,l,l,1,0.766071500023827,520.7804392999969,521.7912430000142,521.7746629000176,None,520.7804392999969,None,520.7804392999969,None,520.7804392999969,None,522.5390971400018,None,522.5390971400018,None,522.5390971400018,None,,,,,,,,,,,,,,110,2023-04-04_14h44.18.180,Main,2022.1.1,60.02523459812596,
neutral,positive,1,k,k,,,,,,,,,10,15,195,4,,,,,,,,,main,2,2,1,positive,neutral,k,k,1,0.7075894000008702,522.5453474000096,523.557857399981,523.5413222999778,None,522.5453474000096,None,522.5453474000096,None,522.5453474000096,None,524.2491196400194,None,524.2491196400194,None,524.2491196400194,None,,,,,,,,,,,,,,110,2023-04-04_14h44.18.180,Main,2022.1.1,60.02523459812596,
neutral,negative,2,k,k,,,,,,,,,10,16,196,16,,,,,,,,,main,1,1,2,negative,neutral,k,k,1,0.5879358000238426,524.2658177000121,525.2722433999879,525.2389930000063,None,524.2658177000121,None,524.2658177000121,None,524.2658177000121,None,525.8389294399938,None,525.8389294399938,None,525.8389294399938,None,,,,,,,,,,,,,,110,2023-04-04_14h44.18.180,Main,2022.1.1,60.02523459812596,
neutral,neutral,1,k,k,,,,,,,,,10,17,197,1,,,,,,,,,main,1,1,1,neutral,neutral,k,k,1,0.6818586000008509,525.8441095000017,526.8555551000172,526.8389238999807,None,525.8441095000017,None,525.8441095000017,None,525.8441095000017,None,527.522274240019,None,527.522274240019,None,527.522274240019,None,,,,,,,,,,,,,,110,2023-04-04_14h44.18.180,Main,2022.1.1,60.02523459812596,
neutral,negative,1,k,k,,,,,,,,,11,0,198,7,,,,,,,,,main,1,1,1,negative,neutral,k,k,1,0.5987121000071056,527.5290924999863,528.5409541000263,528.5243801000179,None,527.5290924999863,None,527.5290924999863,None,527.5290924999863,None,529.1223109399841,None,529.1223109399841,None,529.1223109399841,None,,,,,,,,,,,,,,110,2023-04-04_14h44.18.180,Main,2022.1.1,60.02523459812596,
neutral,neutral,2,k,k,,,,,,,,,11,1,199,10,,,,,,,,,main,2,2,2,neutral,neutral,k,k,1,0.6474362000008114,529.1285054999753,530.1409101000172,530.1221760999761,None,529.1285054999753,None,529.1285054999753,None,529.1285054999753,None,530.7721786399895,None,530.7721786399895,None,530.7721786399895,None,,,,,,,,,,,,,,110,2023-04-04_14h44.18.180,Main,2022.1.1,60.02523459812596,
positive,negative,1,l,j,,,,,,,,,11,2,200,5,,,,,,,,,main,2,2,1,negative,positive,l,k,0,0.6148619999876246,530.7779622999951,531.7909253999824,531.7721764000016,None,530.7779622999951,None,530.7779622999951,None,530.7779622999951,None,532.3889677000116,None,532.3889677000116,None,532.3889677000116,None,,,,,,,,,,,,,,110,2023-04-04_14h44.18.180,Main,2022.1.1,60.02523459812596,
negative,negative,1,j,l,,,,,,,,,11,3,201,0,,,,,,,,,main,2,2,1,negative,negative,j,j,1,0.703442600031849,533.3892930999864,534.3908379999921,534.3742115999921,None,533.3892930999864,None,533.3892930999864,None,533.3892930999864,None,535.0908406399947,None,535.0908406399947,None,535.0908406399947,None,,,,,,,,,,,,,,110,2023-04-04_14h44.18.180,Main,2022.1.1,60.02523459812596,
negative,neutral,2,j,l,,,,,,,,,11,4,202,12,,,,,,,,,main,2,2,2,neutral,negative,j,j,1,0.6486777000245638,535.0950647999998,536.1076384999906,536.0910164000234,None,535.0950647999998,None,535.0950647999998,None,535.0950647999998,None,536.7409788400225,None,536.7409788400225,None,536.7409788400225,None,,,,,,,,,,,,,,110,2023-04-04_14h44.18.180,Main,2022.1.1,60.02523459812596,
positive,neutral,1,l,j,,,,,,,,,11,5,203,8,,,,,,,,,main,2,2,1,neutral,positive,l,l,1,0.828825099975802,536.7443039999926,537.7550906999968,537.7384068000247,None,536.7443039999926,None,536.7443039999926,None,536.7443039999926,None,538.5717346399731,None,538.5717346399731,None,538.5717346399731,None,,,,,,,,,,,,,,110,2023-04-04_14h44.18.180,Main,2022.1.1,60.02523459812596,
neutral,positive,2,k,k,,,,,,,,,11,6,204,13,,,,,,,,,main,1,1,2,positive,neutral,k,k,1,0.6812436999753118,538.5735529999947,539.5742618999793,539.5742618999793,None,538.5735529999947,None,538.5735529999947,None,538.5735529999947,None,540.2554213399824,None,540.2554213399824,None,540.2554213399824,None,,,,,,,,,,,,,,110,2023-04-04_14h44.18.180,Main,2022.1.1,60.02523459812596,
neutral,neutral,1,k,k,,,,,,,,,11,7,205,1,,,,,,,,,main,2,2,1,neutral,neutral,k,k,1,0.6341041999985464,540.2608152999892,541.2720570000238,541.2576156000141,None,540.2608152999892,None,540.2608152999892,None,540.2608152999892,None,541.890938039968,None,541.890938039968,None,541.890938039968,None,,,,,,,,,,,,,,110,2023-04-04_14h44.18.180,Main,2022.1.1,60.02523459812596,
negative,negative,2,j,l,,,,,,,,,11,8,206,9,,,,,,,,,main,2,2,2,negative,negative,j,l,0,0.17961240001022816,541.8977119000047,542.9074899000116,542.8908170000068,None,541.8977119000047,None,541.8977119000047,None,541.8977119000047,None,543.0741215000162,None,543.0741215000162,None,543.0741215000162,None,,,,,,,,,,,,,,110,2023-04-04_14h44.18.180,Main,2022.1.1,60.02523459812596,
neutral,positive,1,k,k,,,,,,,,,11,9,207,4,,,,,,,,,main,1,1,1,positive,neutral,k,k,1,0.6684879999957047,544.0722524999874,545.0740385000245,545.0575110000209,None,544.0722524999874,None,544.0722524999874,None,544.0722524999874,None,545.7387090399686,None,545.7387090399686,None,545.7387090399686,None,,,,,,,,,,,,,,110,2023-04-04_14h44.18.180,Main,2022.1.1,60.02523459812596,
negative,positive,2,j,l,,,,,,,,,11,10,208,15,,,,,,,,,main,2,2,2,positive,negative,j,j,1,0.8807417000061832,545.7553105999832,546.7573674999876,546.7385579000111,None,545.7553105999832,None,545.7553105999832,None,545.7553105999832,None,547.6215229399793,None,547.6215229399793,None,547.6215229399793,None,,,,,,,,,,,,,,110,2023-04-04_14h44.18.180,Main,2022.1.1,60.02523459812596,
positive,positive,1,l,j,,,,,,,,,11,11,209,2,,,,,,,,,main,1,1,1,positive,positive,l,l,1,0.8651205999776721,547.6214581999811,548.6216176999733,548.6216176999733,None,547.6214581999811,None,547.6214581999811,None,547.6214581999811,None,549.4882232399948,None,549.4882232399948,None,549.4882232399948,None,,,,,,,,,,,,,,110,2023-04-04_14h44.18.180,Main,2022.1.1,60.02523459812596,
positive,neutral,2,l,j,,,,,,,,,11,12,210,17,,,,,,,,,main,2,2,2,neutral,positive,l,l,1,0.8822754999855533,549.494026099972,550.507281499973,550.4906822000048,None,549.494026099972,None,549.494026099972,None,549.494026099972,None,551.3719249400135,None,551.3719249400135,None,551.3719249400135,None,,,,,,,,,,,,,,110,2023-04-04_14h44.18.180,Main,2022.1.1,60.02523459812596,
neutral,negative,2,k,k,,,,,,,,,11,13,211,16,,,,,,,,,main,2,2,2,negative,neutral,k,k,1,0.8151526000001468,551.3776603000006,552.390722399985,552.374040100025,None,551.3776603000006,None,551.3776603000006,None,551.3776603000006,None,553.1882502399792,None,553.1882502399792,None,553.1882502399792,None,,,,,,,,,,,,,,110,2023-04-04_14h44.18.180,Main,2022.1.1,60.02523459812596,
positive,negative,2,l,j,,,,,,,,,11,14,212,14,,,,,,,,,main,1,1,2,negative,positive,l,l,1,0.8670504000037909,553.195057999983,554.2072718000272,554.1906940999907,None,553.195057999983,None,553.195057999983,None,553.195057999983,None,555.05724584001,None,555.05724584001,None,555.05724584001,None,,,,,,,,,,,,,,110,2023-04-04_14h44.18.180,Main,2022.1.1,60.02523459812596,
negative,positive,1,j,l,,,,,,,,,11,15,213,6,,,,,,,,,main,2,2,1,positive,negative,j,j,1,0.7489041999797337,555.0611672999803,556.0738308000145,556.0572421000106,None,555.0611672999803,None,555.0611672999803,None,555.0611672999803,None,556.8074730399937,None,556.8074730399937,None,556.8074730399937,None,,,,,,,,,,,,,,110,2023-04-04_14h44.18.180,Main,2022.1.1,60.02523459812596,
positive,positive,2,l,j,,,,,,,,,11,16,214,11,,,,,,,,,main,1,1,2,positive,positive,l,l,1,0.8954303999780677,556.811084099987,557.8213075000094,557.804645599972,None,556.811084099987,None,556.811084099987,None,556.811084099987,None,558.7045825400098,None,558.7045825400098,None,558.7045825400098,None,,,,,,,,,,,,,,110,2023-04-04_14h44.18.180,Main,2022.1.1,60.02523459812596,
negative,neutral,1,j,l,,,,,,,,,11,17,215,3,,,,,,,,,main,2,2,1,neutral,negative,j,j,1,0.7153448000317439,558.7060256000259,559.7212923999759,559.7046260000207,None,558.7060256000259,None,558.7060256000259,None,558.7060256000259,None,560.4216481399897,None,560.4216481399897,None,560.4216481399897,None,,,,,,,,,,,,,,110,2023-04-04_14h44.18.180,Main,2022.1.1,60.02523459812596,
neutral,neutral,1,k,k,,,,,,,,,12,0,216,1,,,,,,,,,main,1,1,1,neutral,neutral,k,k,1,0.7152046000119299,560.427257400006,561.4404477999778,561.4237832999788,None,560.427257400006,None,560.427257400006,None,560.427257400006,None,562.1383733399969,None,562.1383733399969,None,562.1383733399969,None,,,,,,,,,,,,,,110,2023-04-04_14h44.18.180,Main,2022.1.1,60.02523459812596,
negative,neutral,2,j,l,,,,,,,,,12,1,217,12,,,,,,,,,main,2,2,2,neutral,negative,j,j,1,1.8672971000196412,562.1443032000097,563.1570193999796,563.140407799976,None,562.1443032000097,None,562.1443032000097,None,562.1443032000097,None,565.0048554000095,None,565.0048554000095,None,565.0048554000095,None,,,,,,,,,,,,,,110,2023-04-04_14h44.18.180,Main,2022.1.1,60.02523459812596,
negative,negative,2,j,l,,,,,,,,,12,2,218,9,,,,,,,,,main,2,2,2,negative,negative,j,j,1,1.3676067999913357,566.0050385000068,567.0069369000266,566.990340600023,None,566.0050385000068,None,566.0050385000068,None,566.0050385000068,None,568.3710756400076,None,568.3710756400076,None,568.3710756400076,None,,,,,,,,,,,,,,110,2023-04-04_14h44.18.180,Main,2022.1.1,60.02523459812596,
positive,neutral,1,l,j,,,,,,,,,12,3,219,8,,,,,,,,,main,1,1,1,neutral,positive,l,l,1,0.7815986000350676,568.3712912999908,569.3710433000233,569.3710433000233,None,568.3712912999908,None,568.3712912999908,None,568.3712912999908,None,570.1544244399818,None,570.1544244399818,None,570.1544244399818,None,,,,,,,,,,,,,,110,2023-04-04_14h44.18.180,Main,2022.1.1,60.02523459812596,
neutral,positive,1,k,k,,,,,,,,,12,4,220,4,,,,,,,,,main,2,2,1,positive,neutral,k,k,1,0.8985685000079684,570.1569692000048,571.1710588000133,571.1543920999975,None,570.1569692000048,None,570.1569692000048,None,570.1569692000048,None,572.0544003399962,None,572.0544003399962,None,572.0544003399962,None,,,,,,,,,,,,,,110,2023-04-04_14h44.18.180,Main,2022.1.1,60.02523459812596,
negative,positive,2,j,l,,,,,,,,,12,5,221,15,,,,,,,,,main,2,2,2,positive,negative,j,j,1,0.853927800024394,572.0606170999818,573.0734356999747,573.0567952999845,None,572.0606170999818,None,572.0606170999818,None,572.0606170999818,None,573.9099988399946,None,573.9099988399946,None,573.9099988399946,None,,,,,,,,,,,,,,110,2023-04-04_14h44.18.180,Main,2022.1.1,60.02523459812596,
neutral,positive,2,k,k,,,,,,,,,12,6,222,13,,,,,,,,,main,1,1,2,positive,neutral,k,k,1,0.8474965000059456,573.9135572999949,574.9234303000267,574.9068222999922,None,573.9135572999949,None,573.9135572999949,None,573.9135572999949,None,575.7581292399962,None,575.7581292399962,None,575.7581292399962,None,,,,,,,,,,,,,,110,2023-04-04_14h44.18.180,Main,2022.1.1,60.02523459812596,
positive,positive,2,l,j,,,,,,,,,12,7,223,11,,,,,,,,,main,1,1,2,positive,positive,l,l,1,0.8273715000250377,575.7627093999763,576.7733609999996,576.7568353000097,None,575.7627093999763,None,575.7627093999763,None,575.7627093999763,None,577.5878876399772,None,577.5878876399772,None,577.5878876399772,None,,,,,,,,,,,,,,110,2023-04-04_14h44.18.180,Main,2022.1.1,60.02523459812596,
