target,distractor,set,ans1,ans2,rep_loop2.thisRepN,rep_loop2.thisTrialN,rep_loop2.thisN,rep_loop2.thisIndex,flanker_prac_loop.thisRepN,flanker_prac_loop.thisTrialN,flanker_prac_loop.thisN,flanker_prac_loop.thisIndex,flanker_main_loop.thisRepN,flanker_main_loop.thisTrialN,flanker_main_loop.thisN,flanker_main_loop.thisIndex,fl_inst_resp.keys,fl_inst_resp.rt,sound_1.started,sound_1.stopped,image_4.started,image_4.stopped,back_2.started,back_2.stopped,main_prac,fl_cold,fl_colt,fl_set,fl_dcond,fl_tcond,fl_ans,fl_res,fl_corr,fl_rt,fix_fl.started,fix_fl.stopped,targ.started,targ.stopped,j_button.started,j_button.stopped,k_button.started,k_button.stopped,l_button.started,l_button.stopped,j_button2.started,j_button2.stopped,k_button2.started,k_button2.stopped,l_button2.started,l_button2.stopped,mainback.started,mainback.stopped,key_resp.keys,key_resp.rt,mouse_6.x,mouse_6.y,mouse_6.leftButton,mouse_6.midButton,mouse_6.rightButton,mouse_6.started,mouse_6.stopped,text_2.started,text_2.stopped,id*,date,expName,psychopyVersion,frameRate,
,,,,,0,0,0,0,,,,,,,,,space,53.115721000009216,16.97244377004099,None,70.11902520002332,None,,,,,,,,,,,,,,,,,,,,,,,,,,,,,,,,,,,,,,,,,,111,2023-04-04_17h10.08.946,Main,2022.1.1,59.99800805794959,
neutral,negative,2,k,k,,,,,0,0,0,16,,,,,,,,,,,74.0880226000445,None,prac,2,2,2,negative,neutral,k,k,1,1.543896900024265,76.09415020002052,77.10452069999883,77.0879240000504,None,76.09415020002052,None,76.09415020002052,None,76.09415020002052,None,78.63534209999489,None,78.63534209999489,None,78.63534209999489,None,,,,,,,,,,,,,,111,2023-04-04_17h10.08.946,Main,2022.1.1,59.99800805794959,
positive,negative,1,l,j,,,,,0,1,1,5,,,,,,,,,,,,,prac,2,2,1,negative,positive,j,j,1,1.2391600999981165,79.63531650003279,80.63535200001206,80.61868380004307,None,79.63531650003279,None,79.63531650003279,None,79.63531650003279,None,81.87103967002477,None,81.87103967002477,None,81.87103967002477,None,,,,,,,,,,,,,,111,2023-04-04_17h10.08.946,Main,2022.1.1,59.99800805794959,
neutral,positive,2,k,k,,,,,0,2,2,13,,,,,,,,,,,,,prac,2,2,2,positive,neutral,k,k,1,1.081996299966704,81.87534480000613,82.8876894999994,82.87112830003025,None,81.87534480000613,None,81.87534480000613,None,81.87534480000613,None,83.9543080700154,None,83.9543080700154,None,83.9543080700154,None,,,,,,,,,,,,,,111,2023-04-04_17h10.08.946,Main,2022.1.1,59.99800805794959,
negative,positive,2,j,l,,,,,0,3,3,15,,,,,,,,,,,,,prac,2,2,2,positive,negative,l,l,1,0.9479522000183351,83.95823620003648,84.97099900001194,84.95440560003044,None,83.95823620003648,None,83.95823620003648,None,83.95823620003648,None,85.90427227004548,None,85.90427227004548,None,85.90427227004548,None,,,,,,,,,,,,,,111,2023-04-04_17h10.08.946,Main,2022.1.1,59.99800805794959,
negative,negative,2,j,l,,,,,0,4,4,9,,,,,,,,,,,,,prac,1,1,2,negative,negative,l,l,1,0.8460765000199899,85.90830950002419,86.92098540003644,86.904375800048,None,85.90830950002419,None,85.90830950002419,None,85.90830950002419,None,87.75181357004331,None,87.75181357004331,None,87.75181357004331,None,,,,,,,,,,,,,,111,2023-04-04_17h10.08.946,Main,2022.1.1,59.99800805794959,
negative,negative,1,j,l,,,,,0,5,5,0,,,,,,,,,,,,,prac,2,2,1,negative,negative,l,j,0,1.1486949999816716,87.75494100002106,88.76840840000659,88.75173590000486,None,87.75494100002106,None,87.75494100002106,None,87.75494100002106,None,89.90174450003542,None,89.90174450003542,None,89.90174450003542,None,,,,,,,,,,,,,,111,2023-04-04_17h10.08.946,Main,2022.1.1,59.99800805794959,
negative,positive,1,j,l,,,,,0,6,6,6,,,,,,,,,,,,,prac,2,2,1,positive,negative,l,l,1,0.9561163000180386,90.9018025000114,91.90416350000305,91.8875793000334,None,90.9018025000114,None,90.9018025000114,None,90.9018025000114,None,92.854085770034,None,92.854085770034,None,92.854085770034,None,,,,,,,,,,,,,,111,2023-04-04_17h10.08.946,Main,2022.1.1,59.99800805794959,
negative,neutral,2,j,l,,,,,0,7,7,12,,,,,,,,,,,,,prac,1,1,2,neutral,negative,l,l,1,0.8812705000163987,92.85810170002514,93.87083160004113,93.85420970001724,None,92.85810170002514,None,92.85810170002514,None,92.85810170002514,None,94.73746497004177,None,94.73746497004177,None,94.73746497004177,None,,,,,,,,,,,,,,111,2023-04-04_17h10.08.946,Main,2022.1.1,59.99800805794959,
positive,positive,1,l,j,,,,,0,8,8,2,,,,,,,,,,,,,prac,2,2,1,positive,positive,j,j,1,0.931752200005576,94.74083399999654,95.75404120003805,95.73747839999851,None,94.74083399999654,None,94.74083399999654,None,94.74083399999654,None,96.67071367003373,None,96.67071367003373,None,96.67071367003373,None,,,,,,,,,,,,,,111,2023-04-04_17h10.08.946,Main,2022.1.1,59.99800805794959,
positive,positive,2,l,j,,,,,0,9,9,11,,,,,,,,,,,,,prac,2,2,2,positive,positive,j,j,1,0.9359289999702014,96.67391510005109,97.68737500003772,97.67080170003464,None,96.67391510005109,None,96.67391510005109,None,96.67391510005109,None,98.60797357000993,None,98.60797357000993,None,98.60797357000993,None,,,,,,,,,,,,,,111,2023-04-04_17h10.08.946,Main,2022.1.1,59.99800805794959,
positive,neutral,1,l,j,,,,,0,10,10,8,,,,,,,,,,,,,prac,1,1,1,neutral,positive,j,j,1,1.0754373999661766,98.61847159999888,99.61818370001856,99.60151790000964,None,98.61847159999888,None,98.61847159999888,None,98.61847159999888,None,100.68480987003423,None,100.68480987003423,None,100.68480987003423,None,,,,,,,,,,,,,,111,2023-04-04_17h10.08.946,Main,2022.1.1,59.99800805794959,
positive,negative,2,l,j,,,,,0,11,11,14,,,,,,,,,,,,,prac,2,2,2,negative,positive,j,j,1,0.7819291999912821,100.68786550004734,101.687333400012,101.67074680002406,None,100.68786550004734,None,100.68786550004734,None,100.68786550004734,None,102.46814247000148,None,102.46814247000148,None,102.46814247000148,None,,,,,,,,,,,,,,111,2023-04-04_17h10.08.946,Main,2022.1.1,59.99800805794959,
neutral,neutral,1,k,k,,,,,0,12,12,1,,,,,,,,,,,,,prac,1,1,1,neutral,neutral,k,k,1,0.6511869999812916,102.47406999999657,103.4873157000402,103.4540378000238,None,102.47406999999657,None,102.47406999999657,None,102.47406999999657,None,104.12055147003267,None,104.12055147003267,None,104.12055147003267,None,,,,,,,,,,,,,,111,2023-04-04_17h10.08.946,Main,2022.1.1,59.99800805794959,
neutral,positive,1,k,k,,,,,0,13,13,4,,,,,,,,,,,,,prac,1,1,1,positive,neutral,k,k,1,0.6653718999586999,104.12392300000647,105.13725349999731,105.12066590000177,None,104.12392300000647,None,104.12392300000647,None,104.12392300000647,None,105.78719947004575,None,105.78719947004575,None,105.78719947004575,None,,,,,,,,,,,,,,111,2023-04-04_17h10.08.946,Main,2022.1.1,59.99800805794959,
neutral,negative,1,k,k,,,,,0,14,14,7,,,,,,,,,,,,,prac,2,2,1,negative,neutral,k,k,1,0.7464651000336744,105.79018450004514,106.80386560002808,106.78723830002127,None,105.79018450004514,None,105.79018450004514,None,105.79018450004514,None,107.53470537003014,None,107.53470537003014,None,107.53470537003014,None,,,,,,,,,,,,,,111,2023-04-04_17h10.08.946,Main,2022.1.1,59.99800805794959,
negative,neutral,1,j,l,,,,,0,15,15,3,,,,,,,,,,,,,prac,2,2,1,neutral,negative,l,l,1,0.7317177000222728,107.53864370001247,108.55384589999449,108.53725850000046,None,107.53864370001247,None,107.53864370001247,None,107.53864370001247,None,109.2679557700234,None,109.2679557700234,None,109.2679557700234,None,,,,,,,,,,,,,,111,2023-04-04_17h10.08.946,Main,2022.1.1,59.99800805794959,
neutral,neutral,2,k,k,,,,,0,16,16,10,,,,,,,,,,,,,prac,1,1,2,neutral,neutral,k,k,1,0.8650246000033803,109.26796150003793,110.26800219999859,110.26800219999859,None,109.26796150003793,None,109.26796150003793,None,109.26796150003793,None,111.13459157001344,None,111.13459157001344,None,111.13459157001344,None,,,,,,,,,,,,,,111,2023-04-04_17h10.08.946,Main,2022.1.1,59.99800805794959,
positive,neutral,2,l,j,,,,,0,17,17,17,,,,,,,,,,,,,prac,1,1,2,neutral,positive,j,j,1,0.8488712999969721,111.13675130001502,112.1512998000253,112.13465660001384,None,111.13675130001502,None,111.13675130001502,None,111.13675130001502,None,112.98457607004676,None,112.98457607004676,None,112.98457607004676,None,,,,,,,,,,,,,,111,2023-04-04_17h10.08.946,Main,2022.1.1,59.99800805794959,
neutral,neutral,1,k,k,,,,,1,0,18,1,,,,,,,,,,,,,prac,1,1,1,neutral,neutral,k,k,1,0.7827194999554195,112.98733730003005,113.98711600003298,113.9705083000008,None,112.98733730003005,None,112.98733730003005,None,112.98733730003005,None,114.76832547004452,None,114.76832547004452,None,114.76832547004452,None,,,,,,,,,,,,,,111,2023-04-04_17h10.08.946,Main,2022.1.1,59.99800805794959,
neutral,negative,2,k,k,,,,,1,1,19,16,,,,,,,,,,,,,prac,2,2,2,negative,neutral,k,k,1,0.7172107999795116,114.77428980002878,115.78701670002192,115.77038520004135,None,114.77428980002878,None,114.77428980002878,None,114.77428980002878,None,116.48705627001473,None,116.48705627001473,None,116.48705627001473,None,,,,,,,,,,,,,,111,2023-04-04_17h10.08.946,Main,2022.1.1,59.99800805794959,
negative,neutral,1,j,l,,,,,1,2,20,3,,,,,,,,,,,,,prac,2,2,1,neutral,negative,l,l,1,0.9334741999628022,116.49105710000731,117.50366040004883,117.48702749999939,None,116.49105710000731,None,116.49105710000731,None,116.49105710000731,None,118.41783797002282,None,118.41783797002282,None,118.41783797002282,None,,,,,,,,,,,,,,111,2023-04-04_17h10.08.946,Main,2022.1.1,59.99800805794959,
positive,neutral,1,l,j,,,,,1,3,21,8,,,,,,,,,,,,,prac,2,2,1,neutral,positive,j,j,1,0.9611535999574699,118.42471580003621,119.43694290000712,119.42035760002909,None,118.42471580003621,None,118.42471580003621,None,118.42471580003621,None,120.38442096999498,None,120.38442096999498,None,120.38442096999498,None,,,,,,,,,,,,,,111,2023-04-04_17h10.08.946,Main,2022.1.1,59.99800805794959,
neutral,positive,2,k,k,,,,,1,4,22,13,,,,,,,,,,,,,prac,1,1,2,positive,neutral,k,k,1,0.7485931999981403,120.38772900000913,121.40105720004067,121.38437080004951,None,120.38772900000913,None,120.38772900000913,None,120.38772900000913,None,122.13431597001036,None,122.13431597001036,None,122.13431597001036,None,,,,,,,,,,,,,,111,2023-04-04_17h10.08.946,Main,2022.1.1,59.99800805794959,
positive,positive,1,l,j,,,,,1,5,23,2,,,,,,,,,,,,,prac,1,1,1,positive,positive,j,j,1,0.8320053000352345,122.1343865999952,123.13442740001483,123.13442740001483,None,122.1343865999952,None,122.1343865999952,None,122.1343865999952,None,123.96766447002884,None,123.96766447002884,None,123.96766447002884,None,,,,,,,,,,,,,,111,2023-04-04_17h10.08.946,Main,2022.1.1,59.99800805794959,
negative,positive,2,j,l,,,,,1,6,24,15,,,,,,,,,,,,,prac,1,1,2,positive,negative,l,l,1,0.648901000036858,123.96781330002705,124.96769650001079,124.96769650001079,None,123.96781330002705,None,123.96781330002705,None,123.96781330002705,None,125.61768487003283,None,125.61768487003283,None,125.61768487003283,None,,,,,,,,,,,,,,111,2023-04-04_17h10.08.946,Main,2022.1.1,59.99800805794959,
negative,negative,1,j,l,,,,,1,7,25,0,,,,,,,,,,,,,prac,1,1,1,negative,negative,l,l,1,0.7343259999761358,125.62121220002882,126.63681980001274,126.62023020000197,None,125.62121220002882,None,125.62121220002882,None,125.62121220002882,None,127.35341107001878,None,127.35341107001878,None,127.35341107001878,None,,,,,,,,,,,,,,111,2023-04-04_17h10.08.946,Main,2022.1.1,59.99800805794959,
negative,positive,1,j,l,,,,,1,8,26,6,,,,,,,,,,,,,prac,2,2,1,positive,negative,l,l,1,0.7302533999900334,127.35659969999688,128.37011430005077,128.35349070001394,None,127.35659969999688,None,127.35659969999688,None,127.35659969999688,None,129.08489937004052,None,129.08489937004052,None,129.08489937004052,None,,,,,,,,,,,,,,111,2023-04-04_17h10.08.946,Main,2022.1.1,59.99800805794959,
positive,positive,2,l,j,,,,,1,9,27,11,,,,,,,,,,,,,prac,1,1,2,positive,positive,j,j,1,0.7006170999957249,129.09121980000054,130.1034067000146,130.08680700004334,None,129.09121980000054,None,129.09121980000054,None,129.09121980000054,None,130.78667947004433,None,130.78667947004433,None,130.78667947004433,None,,,,,,,,,,,,,,111,2023-04-04_17h10.08.946,Main,2022.1.1,59.99800805794959,
neutral,positive,1,k,k,,,,,1,10,28,4,,,,,,,,,,,,,prac,1,1,1,positive,neutral,k,k,1,0.798661099979654,130.79012900003,131.80326990003232,131.78668230003677,None,130.79012900003,None,130.79012900003,None,130.79012900003,None,132.587102469994,None,132.587102469994,None,132.587102469994,None,,,,,,,,,,,,,,111,2023-04-04_17h10.08.946,Main,2022.1.1,59.99800805794959,
negative,negative,2,j,l,,,,,1,11,29,9,,,,,,,,,,,,,prac,1,1,2,negative,negative,l,l,1,0.9458102000062354,132.591504800017,133.60079990001395,133.58412260003388,None,132.591504800017,None,132.591504800017,None,132.591504800017,None,134.53410587000545,None,134.53410587000545,None,134.53410587000545,None,,,,,,,,,,,,,,111,2023-04-04_17h10.08.946,Main,2022.1.1,59.99800805794959,
positive,negative,1,l,j,,,,,1,12,30,5,,,,,,,,,,,,,prac,1,1,1,negative,positive,j,j,1,0.7321388999698684,134.53411690000212,135.53417090000585,135.53417090000585,None,134.53411690000212,None,134.53411690000212,None,134.53411690000212,None,136.2674093699956,None,136.2674093699956,None,136.2674093699956,None,,,,,,,,,,,,,,111,2023-04-04_17h10.08.946,Main,2022.1.1,59.99800805794959,
positive,neutral,2,l,j,,,,,1,13,31,17,,,,,,,,,,,,,prac,2,2,2,neutral,positive,j,j,1,0.6678445999859832,136.26804350002203,137.26749050000217,137.26749050000217,None,136.26804350002203,None,136.26804350002203,None,136.26804350002203,None,137.93657737004688,None,137.93657737004688,None,137.93657737004688,None,,,,,,,,,,,,,,111,2023-04-04_17h10.08.946,Main,2022.1.1,59.99800805794959,
positive,negative,2,l,j,,,,,1,14,32,14,,,,,,,,,,,,,prac,1,1,2,negative,positive,j,j,1,0.5985145999584347,137.9406896000146,138.95322530000703,138.93663270003162,None,137.9406896000146,None,137.9406896000146,None,137.9406896000146,None,139.53650347004296,None,139.53650347004296,None,139.53650347004296,None,,,,,,,,,,,,,,111,2023-04-04_17h10.08.946,Main,2022.1.1,59.99800805794959,
negative,neutral,2,j,l,,,,,1,15,33,12,,,,,,,,,,,,,prac,1,1,2,neutral,negative,l,l,1,0.779540800023824,139.53939970000647,140.55319810000947,140.53657500003465,None,139.53939970000647,None,139.53939970000647,None,139.53939970000647,None,141.31767307001283,None,141.31767307001283,None,141.31767307001283,None,,,,,,,,,,,,,,111,2023-04-04_17h10.08.946,Main,2022.1.1,59.99800805794959,
neutral,neutral,2,k,k,,,,,1,16,34,10,,,,,,,,,,,,,prac,2,2,2,neutral,neutral,k,k,1,0.8658574000000954,141.32375260000117,142.33651049999753,142.30321080004796,None,141.32375260000117,None,141.32375260000117,None,141.32375260000117,None,143.18429137004424,None,143.18429137004424,None,143.18429137004424,None,,,,,,,,,,,,,,111,2023-04-04_17h10.08.946,Main,2022.1.1,59.99800805794959,
neutral,negative,1,k,k,,,,,1,17,35,7,,,,,,,,,,,,,prac,1,1,1,negative,neutral,k,k,1,0.9046746999956667,143.19049850001466,144.20321380003588,144.18428330001188,None,143.19049850001466,None,143.19049850001466,None,143.19049850001466,None,145.0898208700295,None,145.0898208700295,None,145.0898208700295,None,,,,,,,,,,,,,,111,2023-04-04_17h10.08.946,Main,2022.1.1,59.99800805794959,
,,,,,,,,,,,,,,,,,,,,,,,,,,,,,,,,,,,,,,,,,,,,,,,,,,,145.09763520001434,None,space,5.943687100021634,,,,,,,,,,111,2023-04-04_17h10.08.946,Main,2022.1.1,59.99800805794959,
,,,,,,,,,,,,,,,,,,,,,,,,,,,,,,,,,,,,,,,,,,,,,,,,,,,,,,,0.69074076,-0.28703704,0,0,0,0.010481770033948123,None,,,111,2023-04-04_17h10.08.946,Main,2022.1.1,59.99800805794959,
positive,negative,1,l,j,,,,,,,,,0,0,0,5,,,,,,,151.0696269000182,None,main,1,1,1,negative,positive,j,j,1,0.8808220999781042,153.07356750004692,154.08624610002153,154.06963480002014,None,153.07356750004692,None,153.07356750004692,None,153.07356750004692,None,154.95280287002097,None,154.95280287002097,None,154.95280287002097,None,,,,,,,,,,,,,,111,2023-04-04_17h10.08.946,Main,2022.1.1,59.99800805794959,
negative,neutral,1,j,l,,,,,,,,,0,1,1,3,,,,,,,,,main,1,1,1,neutral,negative,l,l,1,0.8145091000478715,154.95741740002995,155.9695394000155,155.9529214000213,None,154.95741740002995,None,154.95741740002995,None,154.95741740002995,None,156.76961826999323,None,156.76961826999323,None,156.76961826999323,None,,,,,,,,,,,,,,111,2023-04-04_17h10.08.946,Main,2022.1.1,59.99800805794959,
neutral,neutral,2,k,k,,,,,,,,,0,2,2,10,,,,,,,,,main,2,2,2,neutral,neutral,k,k,1,0.8123505000257865,156.7735581000452,157.78362450003624,157.76697930000955,None,156.7735581000452,None,156.7735581000452,None,156.7735581000452,None,158.58359237004188,None,158.58359237004188,None,158.58359237004188,None,,,,,,,,,,,,,,111,2023-04-04_17h10.08.946,Main,2022.1.1,59.99800805794959,
positive,positive,2,l,j,,,,,,,,,0,3,3,11,,,,,,,,,main,1,1,2,positive,positive,j,j,1,0.73184050002601,158.58358150004642,159.58363080001436,159.58363080001436,None,158.58358150004642,None,158.58358150004642,None,158.58358150004642,None,160.31690987002222,None,160.31690987002222,None,160.31690987002222,None,,,,,,,,,,,,,,111,2023-04-04_17h10.08.946,Main,2022.1.1,59.99800805794959,
neutral,positive,2,k,k,,,,,,,,,0,4,4,13,,,,,,,,,main,2,2,2,positive,neutral,k,k,1,0.6817890999955125,160.31756890000543,161.316967700026,161.316967700026,None,160.31756890000543,None,160.31756890000543,None,160.31756890000543,None,162.00022337004194,None,162.00022337004194,None,162.00022337004194,None,,,,,,,,,,,,,,111,2023-04-04_17h10.08.946,Main,2022.1.1,59.99800805794959,
negative,positive,1,j,l,,,,,,,,,0,5,5,6,,,,,,,,,main,2,2,1,positive,negative,l,l,1,0.7649892999907024,162.0041839000187,163.01936210005078,163.00277080002706,None,162.0041839000187,None,162.0041839000187,None,162.0041839000187,None,163.7668305700121,None,163.7668305700121,None,163.7668305700121,None,,,,,,,,,,,,,,111,2023-04-04_17h10.08.946,Main,2022.1.1,59.99800805794959,
neutral,negative,1,k,k,,,,,,,,,0,6,6,7,,,,,,,,,main,2,2,1,negative,neutral,k,k,1,0.7654471999849193,163.773675000004,164.78598190000048,164.76938130002236,None,163.773675000004,None,163.773675000004,None,163.773675000004,None,165.53380727000186,None,165.53380727000186,None,165.53380727000186,None,,,,,,,,,,,,,,111,2023-04-04_17h10.08.946,Main,2022.1.1,59.99800805794959,
positive,positive,1,l,j,,,,,,,,,0,7,7,2,,,,,,,,,main,2,2,1,positive,positive,j,j,1,0.7314733000239357,165.53991260001203,166.5526138000423,166.53602230001707,None,165.53991260001203,None,165.53991260001203,None,165.53991260001203,None,167.26711987000309,None,167.26711987000309,None,167.26711987000309,None,,,,,,,,,,,,,,111,2023-04-04_17h10.08.946,Main,2022.1.1,59.99800805794959,
negative,neutral,2,j,l,,,,,,,,,0,8,8,12,,,,,,,,,main,1,1,2,neutral,negative,l,l,1,0.7523512999759987,167.27263980003772,168.28588969999691,168.26932650001254,None,167.27263980003772,None,167.27263980003772,None,167.27263980003772,None,169.01929437002983,None,169.01929437002983,None,169.01929437002983,None,,,,,,,,,,,,,,111,2023-04-04_17h10.08.946,Main,2022.1.1,59.99800805794959,
neutral,negative,2,k,k,,,,,,,,,0,9,9,16,,,,,,,,,main,2,2,2,negative,neutral,k,k,1,0.6624534000293352,169.0239221000229,170.03337730001658,170.0167096000514,None,169.0239221000229,None,169.0239221000229,None,169.0239221000229,None,170.68334677001113,None,170.68334677001113,None,170.68334677001113,None,,,,,,,,,,,,,,111,2023-04-04_17h10.08.946,Main,2022.1.1,59.99800805794959,
negative,negative,2,j,l,,,,,,,,,0,10,10,9,,,,,,,,,main,1,1,2,negative,negative,l,l,1,0.7966956999734975,170.6853557000286,171.70012809999753,171.68339650001144,None,170.6853557000286,None,170.6853557000286,None,170.6853557000286,None,172.4833066700434,None,172.4833066700434,None,172.4833066700434,None,,,,,,,,,,,,,,111,2023-04-04_17h10.08.946,Main,2022.1.1,59.99800805794959,
negative,positive,2,j,l,,,,,,,,,0,11,11,15,,,,,,,,,main,2,2,2,positive,negative,l,l,1,0.7179497999604791,172.48344999999972,173.48339320003288,173.48339320003288,None,172.48344999999972,None,172.48344999999972,None,172.48344999999972,None,174.20244897000376,None,174.20244897000376,None,174.20244897000376,None,,,,,,,,,,,,,,111,2023-04-04_17h10.08.946,Main,2022.1.1,59.99800805794959,
negative,negative,1,j,l,,,,,,,,,0,12,12,0,,,,,,,,,main,2,2,1,negative,negative,l,l,1,0.9326803999720141,174.20583340001758,175.21684960002312,175.2024980999995,None,174.20583340001758,None,174.20583340001758,None,174.20583340001758,None,176.13681847003173,None,176.13681847003173,None,176.13681847003173,None,,,,,,,,,,,,,,111,2023-04-04_17h10.08.946,Main,2022.1.1,59.99800805794959,
positive,neutral,2,l,j,,,,,,,,,0,13,13,17,,,,,,,,,main,1,1,2,neutral,positive,j,j,1,0.7971791999880224,176.1397997000022,177.15243800001917,177.13580450002337,None,176.1397997000022,None,176.1397997000022,None,176.1397997000022,None,177.93580117001548,None,177.93580117001548,None,177.93580117001548,None,,,,,,,,,,,,,,111,2023-04-04_17h10.08.946,Main,2022.1.1,59.99800805794959,
neutral,neutral,1,k,k,,,,,,,,,0,14,14,1,,,,,,,,,main,1,1,1,neutral,neutral,k,k,1,0.7660677999956533,177.93973760004155,178.9523906999966,178.93577270000242,None,177.93973760004155,None,177.93973760004155,None,177.93973760004155,None,179.7023000700341,None,179.7023000700341,None,179.7023000700341,None,,,,,,,,,,,,,,111,2023-04-04_17h10.08.946,Main,2022.1.1,59.99800805794959,
neutral,positive,1,k,k,,,,,,,,,0,15,15,4,,,,,,,,,main,1,1,1,positive,neutral,k,k,1,0.6637763000326231,179.70687750005163,180.71899950003717,180.70235910004703,None,179.70687750005163,None,179.70687750005163,None,179.70687750005163,None,181.3686124699947,None,181.3686124699947,None,181.3686124699947,None,,,,,,,,,,,,,,111,2023-04-04_17h10.08.946,Main,2022.1.1,59.99800805794959,
positive,negative,2,l,j,,,,,,,,,0,16,16,14,,,,,,,,,main,1,1,2,negative,positive,j,j,1,0.7317423999775201,181.38333630003035,182.3833908000379,182.3689259000239,None,181.38333630003035,None,181.38333630003035,None,181.38333630003035,None,183.10204766999814,None,183.10204766999814,None,183.10204766999814,None,,,,,,,,,,,,,,111,2023-04-04_17h10.08.946,Main,2022.1.1,59.99800805794959,
positive,neutral,1,l,j,,,,,,,,,0,17,17,8,,,,,,,,,main,2,2,1,neutral,positive,j,j,1,0.8961903000017628,183.10611670004437,184.11876100004883,184.10216730000684,None,183.10611670004437,None,183.10611670004437,None,183.10611670004437,None,184.99993947003387,None,184.99993947003387,None,184.99993947003387,None,,,,,,,,,,,,,,111,2023-04-04_17h10.08.946,Main,2022.1.1,59.99800805794959,
neutral,neutral,2,k,k,,,,,,,,,1,0,18,10,,,,,,,,,main,1,1,2,neutral,neutral,k,k,1,0.7495558999944478,185.00512570003048,186.01876550004818,186.00217140000314,None,185.00512570003048,None,185.00512570003048,None,185.00512570003048,None,186.75097416999634,None,186.75097416999634,None,186.75097416999634,None,,,,,,,,,,,,,,111,2023-04-04_17h10.08.946,Main,2022.1.1,59.99800805794959,
negative,positive,1,j,l,,,,,,,,,1,1,19,6,,,,,,,,,main,2,2,1,positive,negative,l,l,1,0.7497770999907516,186.75631950004026,187.76864610001212,187.752122600039,None,186.75631950004026,None,186.75631950004026,None,186.75631950004026,None,188.50196786999587,None,188.50196786999587,None,188.50196786999587,None,,,,,,,,,,,,,,111,2023-04-04_17h10.08.946,Main,2022.1.1,59.99800805794959,
neutral,positive,1,k,k,,,,,,,,,1,2,20,4,,,,,,,,,main,2,2,1,positive,neutral,k,k,1,0.729338499950245,188.505348900042,189.5186467000167,189.50208050000947,None,188.505348900042,None,188.505348900042,None,188.505348900042,None,190.2330181700003,None,190.2330181700003,None,190.2330181700003,None,,,,,,,,,,,,,,111,2023-04-04_17h10.08.946,Main,2022.1.1,59.99800805794959,
neutral,positive,2,k,k,,,,,,,,,1,3,21,13,,,,,,,,,main,1,1,2,positive,neutral,k,k,1,0.6497376000043005,190.23944160004612,191.25196210003924,191.23540260002483,None,190.23944160004612,None,190.23944160004612,None,190.23944160004612,None,191.88316937001073,None,191.88316937001073,None,191.88316937001073,None,,,,,,,,,,,,,,111,2023-04-04_17h10.08.946,Main,2022.1.1,59.99800805794959,
negative,positive,2,j,l,,,,,,,,,1,4,22,15,,,,,,,,,main,1,1,2,positive,negative,l,l,1,0.730464700027369,191.8874975000508,192.9019733000314,192.8853069000179,None,191.8874975000508,None,191.8874975000508,None,191.8874975000508,None,193.61626496998943,None,193.61626496998943,None,193.61626496998943,None,,,,,,,,,,,,,,111,2023-04-04_17h10.08.946,Main,2022.1.1,59.99800805794959,
positive,neutral,1,l,j,,,,,,,,,1,5,23,8,,,,,,,,,main,2,2,1,neutral,positive,j,j,1,0.7649618000141345,193.6218130000052,194.63524470000993,194.618666400027,None,193.6218130000052,None,193.6218130000052,None,193.6218130000052,None,195.38283317001188,None,195.38283317001188,None,195.38283317001188,None,,,,,,,,,,,,,,111,2023-04-04_17h10.08.946,Main,2022.1.1,59.99800805794959,
positive,negative,2,l,j,,,,,,,,,1,6,24,14,,,,,,,,,main,2,2,2,negative,positive,j,j,1,0.7316389000043273,195.3861674000509,196.38533750001807,196.38533750001807,None,195.3861674000509,None,195.3861674000509,None,195.3861674000509,None,197.11608206999372,None,197.11608206999372,None,197.11608206999372,None,,,,,,,,,,,,,,111,2023-04-04_17h10.08.946,Main,2022.1.1,59.99800805794959,
positive,negative,1,l,j,,,,,,,,,1,7,25,5,,,,,,,,,main,2,2,1,negative,positive,j,j,1,0.6986334999674,197.1160913000349,198.11610850004945,198.11610850004945,None,197.1160913000349,None,197.1160913000349,None,197.1160913000349,None,198.81609586999403,None,198.81609586999403,None,198.81609586999403,None,,,,,,,,,,,,,,111,2023-04-04_17h10.08.946,Main,2022.1.1,59.99800805794959,
negative,neutral,1,j,l,,,,,,,,,1,8,26,3,,,,,,,,,main,1,1,1,neutral,negative,l,l,1,0.7343354999902658,198.82325390004553,199.8352449000231,199.8186229999992,None,198.82325390004553,None,198.82325390004553,None,198.82325390004553,None,200.55193607003312,None,200.55193607003312,None,200.55193607003312,None,,,,,,,,,,,,,,111,2023-04-04_17h10.08.946,Main,2022.1.1,59.99800805794959,
positive,neutral,2,l,j,,,,,,,,,1,9,27,17,,,,,,,,,main,1,1,2,neutral,positive,j,j,1,0.9129660000326112,200.55487420002464,201.56853410002077,201.55196170002455,None,200.55487420002464,None,200.55487420002464,None,200.55487420002464,None,202.4663688700006,None,202.4663688700006,None,202.4663688700006,None,,,,,,,,,,,,,,111,2023-04-04_17h10.08.946,Main,2022.1.1,59.99800805794959,
neutral,negative,1,k,k,,,,,,,,,1,10,28,7,,,,,,,,,main,1,1,1,negative,neutral,k,k,1,0.6498732999898493,202.47266190004302,203.48515760002192,203.4685697000241,None,202.47266190004302,None,202.47266190004302,None,202.47266190004302,None,204.11850957002608,None,204.11850957002608,None,204.11850957002608,None,,,,,,,,,,,,,,111,2023-04-04_17h10.08.946,Main,2022.1.1,59.99800805794959,
negative,neutral,2,j,l,,,,,,,,,1,11,29,12,,,,,,,,,main,2,2,2,neutral,negative,l,l,1,0.7822852000244893,204.12145670002792,205.1351229000138,205.11852580000414,None,204.12145670002792,None,204.12145670002792,None,204.12145670002792,None,205.90233986999957,None,205.90233986999957,None,205.90233986999957,None,,,,,,,,,,,,,,111,2023-04-04_17h10.08.946,Main,2022.1.1,59.99800805794959,
neutral,negative,2,k,k,,,,,,,,,1,12,30,16,,,,,,,,,main,2,2,2,negative,neutral,k,k,1,0.8953231000341475,205.90598420001334,206.91838250000728,206.90182300005108,None,205.90598420001334,None,205.90598420001334,None,205.90598420001334,None,207.7991705700464,None,207.7991705700464,None,207.7991705700464,None,,,,,,,,,,,,,,111,2023-04-04_17h10.08.946,Main,2022.1.1,59.99800805794959,
positive,positive,1,l,j,,,,,,,,,1,13,31,2,,,,,,,,,main,1,1,1,positive,positive,j,j,1,0.7153282000217587,207.7992297000019,208.79926520003937,208.79926520003937,None,207.7992297000019,None,207.7992297000019,None,207.7992297000019,None,209.5158934700361,None,209.5158934700361,None,209.5158934700361,None,,,,,,,,,,,,,,111,2023-04-04_17h10.08.946,Main,2022.1.1,59.99800805794959,
positive,positive,2,l,j,,,,,,,,,1,14,32,11,,,,,,,,,main,2,2,2,positive,positive,j,j,1,0.7651641999837011,209.5195217000437,210.53501480002888,210.51843360002385,None,209.5195217000437,None,209.5195217000437,None,209.5195217000437,None,211.2825070699968,None,211.2825070699968,None,211.2825070699968,None,,,,,,,,,,,,,,111,2023-04-04_17h10.08.946,Main,2022.1.1,59.99800805794959,
negative,negative,2,j,l,,,,,,,,,1,15,33,9,,,,,,,,,main,1,1,2,negative,negative,l,l,1,0.7671598000451922,211.28600500000175,212.30166830000235,212.28504520002753,None,211.28600500000175,None,211.28600500000175,None,211.28600500000175,None,213.0515883700049,None,213.0515883700049,None,213.0515883700049,None,,,,,,,,,,,,,,111,2023-04-04_17h10.08.946,Main,2022.1.1,59.99800805794959,
negative,negative,1,j,l,,,,,,,,,1,16,34,0,,,,,,,,,main,2,2,1,negative,negative,l,l,1,0.7649706000229344,213.0546261999989,214.06825930002378,214.05167790001724,None,213.0546261999989,None,213.0546261999989,None,213.0546261999989,None,214.8181825699925,None,214.8181825699925,None,214.8181825699925,None,,,,,,,,,,,,,,111,2023-04-04_17h10.08.946,Main,2022.1.1,59.99800805794959,
neutral,neutral,1,k,k,,,,,,,,,1,17,35,1,,,,,,,,,main,1,1,1,neutral,neutral,k,k,1,0.6294135999632999,214.8222853000043,215.8349034000421,215.81829399999697,None,214.8222853000043,None,214.8222853000043,None,214.8222853000043,None,216.44906946999836,None,216.44906946999836,None,216.44906946999836,None,,,,,,,,,,,,,,111,2023-04-04_17h10.08.946,Main,2022.1.1,59.99800805794959,
neutral,negative,1,k,k,,,,,,,,,2,0,36,7,,,,,,,,,main,1,1,1,negative,neutral,k,k,1,0.7818165000062436,216.45505750004668,217.46569040004397,217.44902250001905,None,216.45505750004668,None,216.45505750004668,None,216.45505750004668,None,218.23230347002973,None,218.23230347002973,None,218.23230347002973,None,,,,,,,,,,,,,,111,2023-04-04_17h10.08.946,Main,2022.1.1,59.99800805794959,
negative,negative,2,j,l,,,,,,,,,2,1,37,9,,,,,,,,,main,1,1,2,negative,negative,l,l,1,0.7650116999866441,218.23251650005113,219.23239360004663,219.23239360004663,None,218.23251650005113,None,218.23251650005113,None,218.23251650005113,None,219.99905057001743,None,219.99905057001743,None,219.99905057001743,None,,,,,,,,,,,,,,111,2023-04-04_17h10.08.946,Main,2022.1.1,59.99800805794959,
neutral,neutral,2,k,k,,,,,,,,,2,2,38,10,,,,,,,,,main,2,2,2,neutral,neutral,k,k,1,0.7151929999818094,220.00567630003206,221.01813530002255,221.0015296000056,None,220.00567630003206,None,220.00567630003206,None,220.00567630003206,None,221.7157217700209,None,221.7157217700209,None,221.7157217700209,None,,,,,,,,,,,,,,111,2023-04-04_17h10.08.946,Main,2022.1.1,59.99800805794959,
neutral,positive,2,k,k,,,,,,,,,2,3,39,13,,,,,,,,,main,1,1,2,positive,neutral,k,k,1,0.6814367000479251,221.72509800002445,222.73476479999954,222.71813980001025,None,221.72509800002445,None,221.72509800002445,None,221.72509800002445,None,223.39891486999696,None,223.39891486999696,None,223.39891486999696,None,,,,,,,,,,,,,,111,2023-04-04_17h10.08.946,Main,2022.1.1,59.99800805794959,
negative,neutral,1,j,l,,,,,,,,,2,4,40,3,,,,,,,,,main,2,2,1,neutral,negative,l,l,1,0.750767299963627,223.4051191000035,224.41805430001114,224.40146370005095,None,223.4051191000035,None,223.4051191000035,None,223.4051191000035,None,225.15135777003016,None,225.15135777003016,None,225.15135777003016,None,,,,,,,,,,,,,,111,2023-04-04_17h10.08.946,Main,2022.1.1,59.99800805794959,
positive,neutral,1,l,j,,,,,,,,,2,5,41,8,,,,,,,,,main,1,1,1,neutral,positive,j,j,1,0.7966650000307709,225.1540573000093,226.168040700024,226.15143180004088,None,225.1540573000093,None,225.1540573000093,None,225.1540573000093,None,226.94940197002725,None,226.94940197002725,None,226.94940197002725,None,,,,,,,,,,,,,,111,2023-04-04_17h10.08.946,Main,2022.1.1,59.99800805794959,
positive,neutral,2,l,j,,,,,,,,,2,6,42,17,,,,,,,,,main,1,1,2,neutral,positive,j,j,1,0.7643686999799684,226.95551370002795,227.96545479999622,227.94876370002748,None,226.95551370002795,None,226.95551370002795,None,226.95551370002795,None,228.71540037001833,None,228.71540037001833,None,228.71540037001833,None,,,,,,,,,,,,,,111,2023-04-04_17h10.08.946,Main,2022.1.1,59.99800805794959,
neutral,positive,1,k,k,,,,,,,,,2,7,43,4,,,,,,,,,main,2,2,1,positive,neutral,k,k,1,0.5845007000025362,228.71544360002736,229.71552870003507,229.71552870003507,None,228.71544360002736,None,228.71544360002736,None,228.71544360002736,None,230.30129147001426,None,230.30129147001426,None,230.30129147001426,None,,,,,,,,,,,,,,111,2023-04-04_17h10.08.946,Main,2022.1.1,59.99800805794959,
negative,positive,2,j,l,,,,,,,,,2,8,44,15,,,,,,,,,main,2,2,2,positive,negative,l,l,1,0.6481624000007287,230.30476600001566,231.31788630003575,231.30130910000298,None,230.30476600001566,None,230.30476600001566,None,230.30476600001566,None,231.95110587002128,None,231.95110587002128,None,231.95110587002128,None,,,,,,,,,,,,,,111,2023-04-04_17h10.08.946,Main,2022.1.1,59.99800805794959,
neutral,negative,2,k,k,,,,,,,,,2,9,45,16,,,,,,,,,main,2,2,2,negative,neutral,k,k,1,0.8151658999850042,231.95433150004828,232.96784850000404,232.9512314000167,None,231.95433150004828,None,231.95433150004828,None,231.95433150004828,None,233.76791047002772,None,233.76791047002772,None,233.76791047002772,None,,,,,,,,,,,,,,111,2023-04-04_17h10.08.946,Main,2022.1.1,59.99800805794959,
negative,positive,1,j,l,,,,,,,,,2,10,46,6,,,,,,,,,main,1,1,1,positive,negative,l,l,1,0.7958127000019886,233.7710839000065,234.7844952000305,234.76788980001584,None,233.7710839000065,None,233.7710839000065,None,233.7710839000065,None,235.56533747003996,None,235.56533747003996,None,235.56533747003996,None,,,,,,,,,,,,,,111,2023-04-04_17h10.08.946,Main,2022.1.1,59.99800805794959,
positive,positive,1,l,j,,,,,,,,,2,11,47,2,,,,,,,,,main,1,1,1,positive,positive,j,j,1,0.8474044000031427,235.5697110000183,236.58444480004255,236.567848900042,None,235.5697110000183,None,235.5697110000183,None,235.5697110000183,None,237.41518257000135,None,237.41518257000135,None,237.41518257000135,None,,,,,,,,,,,,,,111,2023-04-04_17h10.08.946,Main,2022.1.1,59.99800805794959,
positive,negative,2,l,j,,,,,,,,,2,12,48,14,,,,,,,,,main,1,1,2,negative,positive,j,j,1,0.7151457999716513,237.4152433000272,238.415281100024,238.415281100024,None,237.4152433000272,None,237.4152433000272,None,237.4152433000272,None,239.13191727002268,None,239.13191727002268,None,239.13191727002268,None,,,,,,,,,,,,,,111,2023-04-04_17h10.08.946,Main,2022.1.1,59.99800805794959,
negative,neutral,2,j,l,,,,,,,,,2,13,49,12,,,,,,,,,main,2,2,2,neutral,negative,l,l,1,0.7679368000244722,239.1352448000107,240.1344711999991,240.1344711999991,None,239.1352448000107,None,239.1352448000107,None,239.1352448000107,None,240.90112617001287,None,240.90112617001287,None,240.90112617001287,None,,,,,,,,,,,,,,111,2023-04-04_17h10.08.946,Main,2022.1.1,59.99800805794959,
negative,negative,1,j,l,,,,,,,,,2,14,50,0,,,,,,,,,main,2,2,1,negative,negative,l,l,1,0.7149809999973513,240.90501859999495,241.9176776999957,241.9011016000295,None,240.90501859999495,None,240.90501859999495,None,240.90501859999495,None,242.6176114699978,None,242.6176114699978,None,242.6176114699978,None,,,,,,,,,,,,,,111,2023-04-04_17h10.08.946,Main,2022.1.1,59.99800805794959,
positive,negative,1,l,j,,,,,,,,,2,15,51,5,,,,,,,,,main,2,2,1,negative,positive,j,j,1,0.7981968999956734,242.6211292000371,243.63431860000128,243.61771850002697,None,242.6211292000371,None,242.6211292000371,None,242.6211292000371,None,244.41757097002701,None,244.41757097002701,None,244.41757097002701,None,,,,,,,,,,,,,,111,2023-04-04_17h10.08.946,Main,2022.1.1,59.99800805794959,
neutral,neutral,1,k,k,,,,,,,,,2,16,52,1,,,,,,,,,main,1,1,1,neutral,neutral,k,k,1,0.7622218999895267,244.42047500004992,245.4342776000267,245.41765660000965,None,244.42047500004992,None,244.42047500004992,None,244.42047500004992,None,246.18175237003598,None,246.18175237003598,None,246.18175237003598,None,,,,,,,,,,,,,,111,2023-04-04_17h10.08.946,Main,2022.1.1,59.99800805794959,
positive,positive,2,l,j,,,,,,,,,2,17,53,11,,,,,,,,,main,1,1,2,positive,positive,j,j,1,0.7151310999761336,246.18585730000632,247.19800160004525,247.18123530002777,None,246.18585730000632,None,246.18585730000632,None,246.18585730000632,None,247.89831876999816,None,247.89831876999816,None,247.89831876999816,None,,,,,,,,,,,,,,111,2023-04-04_17h10.08.946,Main,2022.1.1,59.99800805794959,
negative,positive,2,j,l,,,,,,,,,3,0,54,15,,,,,,,,,main,1,1,2,positive,negative,l,l,1,0.7988424000213854,247.89836190000642,248.8983997000032,248.8983997000032,None,247.89836190000642,None,247.89836190000642,None,247.89836190000642,None,249.69839767000522,None,249.69839767000522,None,249.69839767000522,None,,,,,,,,,,,,,,111,2023-04-04_17h10.08.946,Main,2022.1.1,59.99800805794959,
neutral,negative,1,k,k,,,,,,,,,3,1,55,7,,,,,,,,,main,1,1,1,negative,neutral,k,k,1,0.7840505000203848,249.70202710002195,250.71745130000636,250.7009150000522,None,249.70202710002195,None,249.70202710002195,None,249.70202710002195,None,251.48412586999476,None,251.48412586999476,None,251.48412586999476,None,,,,,,,,,,,,,,111,2023-04-04_17h10.08.946,Main,2022.1.1,59.99800805794959,
positive,positive,1,l,j,,,,,,,,,3,2,56,2,,,,,,,,,main,1,1,1,positive,positive,j,j,1,0.7982437000027858,251.48742970003514,252.50081310002133,252.48420930001885,None,251.48742970003514,None,251.48742970003514,None,251.48742970003514,None,253.28402627003962,None,253.28402627003962,None,253.28402627003962,None,,,,,,,,,,,,,,111,2023-04-04_17h10.08.946,Main,2022.1.1,59.99800805794959,
neutral,neutral,2,k,k,,,,,,,,,3,3,57,10,,,,,,,,,main,2,2,2,neutral,neutral,k,k,1,0.7653623999794945,253.28750310000032,254.30078130000038,254.28415960003622,None,253.28750310000032,None,253.28750310000032,None,253.28750310000032,None,255.05103307002574,None,255.05103307002574,None,255.05103307002574,None,,,,,,,,,,,,,,111,2023-04-04_17h10.08.946,Main,2022.1.1,59.99800805794959,
neutral,neutral,1,k,k,,,,,,,,,3,4,58,1,,,,,,,,,main,1,1,1,neutral,neutral,k,k,1,0.8816237000282854,255.05400130001362,256.0673734000302,256.05079150001984,None,255.05400130001362,None,255.05400130001362,None,255.05400130001362,None,256.9340484699991,None,256.9340484699991,None,256.9340484699991,None,,,,,,,,,,,,,,111,2023-04-04_17h10.08.946,Main,2022.1.1,59.99800805794959,
positive,neutral,1,l,j,,,,,,,,,3,5,59,8,,,,,,,,,main,1,1,1,neutral,positive,j,j,1,0.6954277000040747,256.9374977000407,257.9481608000351,257.9315025000251,None,256.9374977000407,None,256.9374977000407,None,256.9374977000407,None,258.6314726700133,None,258.6314726700133,None,258.6314726700133,None,,,,,,,,,,,,,,111,2023-04-04_17h10.08.946,Main,2022.1.1,59.99800805794959,
neutral,negative,2,k,k,,,,,,,,,3,6,60,16,,,,,,,,,main,2,2,2,negative,neutral,k,k,1,0.7676467999699526,258.6314889000496,259.6315600000089,259.6315600000089,None,258.6314889000496,None,258.6314889000496,None,258.6314889000496,None,260.4006903700123,None,260.4006903700123,None,260.4006903700123,None,,,,,,,,,,,,,,111,2023-04-04_17h10.08.946,Main,2022.1.1,59.99800805794959,
negative,negative,2,j,l,,,,,,,,,3,7,61,9,,,,,,,,,main,1,1,2,negative,negative,l,l,1,0.7985257999971509,260.4045595000498,261.41730860003736,261.4006905000424,None,260.4045595000498,None,260.4045595000498,None,260.4045595000498,None,262.20071027003576,None,262.20071027003576,None,262.20071027003576,None,,,,,,,,,,,,,,111,2023-04-04_17h10.08.946,Main,2022.1.1,59.99800805794959,
negative,neutral,2,j,l,,,,,,,,,3,8,62,12,,,,,,,,,main,2,2,2,neutral,negative,l,l,1,0.7624925000127405,262.2045632000081,263.2172259000363,263.2006457000389,None,262.2045632000081,None,262.2045632000081,None,262.2045632000081,None,263.96471147001137,None,263.96471147001137,None,263.96471147001137,None,,,,,,,,,,,,,,111,2023-04-04_17h10.08.946,Main,2022.1.1,59.99800805794959,
negative,positive,1,j,l,,,,,,,,,3,9,63,6,,,,,,,,,main,1,1,1,positive,negative,l,l,1,0.8987264999886975,263.96825670002727,264.9837823000271,264.96727310004644,None,263.96825670002727,None,263.96825670002727,None,263.96825670002727,None,265.8646869700227,None,265.8646869700227,None,265.8646869700227,None,,,,,,,,,,,,,,111,2023-04-04_17h10.08.946,Main,2022.1.1,59.99800805794959,
negative,negative,1,j,l,,,,,,,,,3,10,64,0,,,,,,,,,main,2,2,1,negative,negative,l,l,1,0.6814233000040986,265.8716968999943,266.8838097000262,266.86723190004705,None,265.8716968999943,None,265.8716968999943,None,265.8716968999943,None,267.54791066999894,None,267.54791066999894,None,267.54791066999894,None,,,,,,,,,,,,,,111,2023-04-04_17h10.08.946,Main,2022.1.1,59.99800805794959,
positive,negative,1,l,j,,,,,,,,,3,11,65,5,,,,,,,,,main,2,2,1,negative,positive,j,j,1,0.8981099000084214,267.5481536000152,268.5479552000179,268.5479552000179,None,267.5481536000152,None,267.5481536000152,None,267.5481536000152,None,269.4479611699993,None,269.4479611699993,None,269.4479611699993,None,,,,,,,,,,,,,,111,2023-04-04_17h10.08.946,Main,2022.1.1,59.99800805794959,
positive,neutral,2,l,j,,,,,,,,,3,12,66,17,,,,,,,,,main,1,1,2,neutral,positive,j,j,1,0.7823337999871001,269.45489250001265,270.46708570001647,270.4504992000293,None,269.45489250001265,None,269.45489250001265,None,269.45489250001265,None,271.2316163700365,None,271.2316163700365,None,271.2316163700365,None,,,,,,,,,,,,,,111,2023-04-04_17h10.08.946,Main,2022.1.1,59.99800805794959,
negative,neutral,1,j,l,,,,,,,,,3,13,67,3,,,,,,,,,main,2,2,1,neutral,negative,l,l,1,0.7644179000053555,271.2381338000414,272.25037610001164,272.23378030001186,None,271.2381338000414,None,271.2381338000414,None,271.2381338000414,None,272.9978832700348,None,272.9978832700348,None,272.9978832700348,None,,,,,,,,,,,,,,111,2023-04-04_17h10.08.946,Main,2022.1.1,59.99800805794959,
positive,negative,2,l,j,,,,,,,,,3,14,68,14,,,,,,,,,main,1,1,2,negative,positive,j,j,1,0.7150353000033647,273.0039485000307,274.0170509000309,274.00041180005064,None,273.0039485000307,None,273.0039485000307,None,273.0039485000307,None,274.714485770039,None,274.714485770039,None,274.714485770039,None,,,,,,,,,,,,,,111,2023-04-04_17h10.08.946,Main,2022.1.1,59.99800805794959,
neutral,positive,1,k,k,,,,,,,,,3,15,69,4,,,,,,,,,main,2,2,1,positive,neutral,k,k,1,0.7001055000000633,274.71797729999525,275.7336580000119,275.71705140004633,None,274.71797729999525,None,274.71797729999525,None,274.71797729999525,None,276.4147492700198,None,276.4147492700198,None,276.4147492700198,None,,,,,,,,,,,,,,111,2023-04-04_17h10.08.946,Main,2022.1.1,59.99800805794959,
positive,positive,2,l,j,,,,,,,,,3,16,70,11,,,,,,,,,main,2,2,2,positive,positive,j,j,1,0.680205799988471,276.42112350004027,277.4306513000047,277.4135414000484,None,276.42112350004027,None,276.42112350004027,None,276.42112350004027,None,278.09771236999075,None,278.09771236999075,None,278.09771236999075,None,,,,,,,,,,,,,,111,2023-04-04_17h10.08.946,Main,2022.1.1,59.99800805794959,
neutral,positive,2,k,k,,,,,,,,,3,17,71,13,,,,,,,,,main,2,2,2,positive,neutral,k,k,1,0.64846789999865,278.0986494999961,279.0977189000114,279.0977189000114,None,278.0986494999961,None,278.0986494999961,None,278.0986494999961,None,279.74774957000625,None,279.74774957000625,None,279.74774957000625,None,,,,,,,,,,,,,,111,2023-04-04_17h10.08.946,Main,2022.1.1,59.99800805794959,
neutral,negative,1,k,k,,,,,,,,,4,0,72,7,,,,,,,,,main,2,2,1,negative,neutral,k,k,1,0.5842641000053845,279.7532024999964,280.7668554999982,280.7502685000072,None,279.7532024999964,None,279.7532024999964,None,279.7532024999964,None,281.33339107002246,None,281.33339107002246,None,281.33339107002246,None,,,,,,,,,,,,,,111,2023-04-04_17h10.08.946,Main,2022.1.1,59.99800805794959,
negative,positive,2,j,l,,,,,,,,,4,1,73,15,,,,,,,,,main,1,1,2,positive,negative,l,l,1,0.8121791000012308,281.33793090004474,282.3501351000159,282.3335694000125,None,281.33793090004474,None,281.33793090004474,None,281.33793090004474,None,283.14800307003895,None,283.14800307003895,None,283.14800307003895,None,,,,,,,,,,,,,,111,2023-04-04_17h10.08.946,Main,2022.1.1,59.99800805794959,
positive,negative,1,l,j,,,,,,,,,4,2,74,5,,,,,,,,,main,2,2,1,negative,positive,j,j,1,0.9838234999915585,283.15413870004704,284.1667880000314,284.1501756000216,None,283.15413870004704,None,283.15413870004704,None,283.15413870004704,None,285.13353927003334,None,285.13353927003334,None,285.13353927003334,None,,,,,,,,,,,,,,111,2023-04-04_17h10.08.946,Main,2022.1.1,59.99800805794959,
neutral,positive,2,k,k,,,,,,,,,4,3,75,13,,,,,,,,,main,2,2,2,positive,neutral,k,k,1,0.7296893000020646,285.1374254000257,286.1500649000518,286.13347290002275,None,285.1374254000257,None,285.1374254000257,None,285.1374254000257,None,286.8645739700354,None,286.8645739700354,None,286.8645739700354,None,,,,,,,,,,,,,,111,2023-04-04_17h10.08.946,Main,2022.1.1,59.99800805794959,
neutral,neutral,1,k,k,,,,,,,,,4,4,76,1,,,,,,,,,main,1,1,1,neutral,neutral,k,k,1,0.7144059999845922,286.87052990001393,287.8808540000464,287.86421440000413,None,286.87052990001393,None,286.87052990001393,None,286.87052990001393,None,288.58077557001377,None,288.58077557001377,None,288.58077557001377,None,,,,,,,,,,,,,,111,2023-04-04_17h10.08.946,Main,2022.1.1,59.99800805794959,
negative,positive,1,j,l,,,,,,,,,4,5,77,6,,,,,,,,,main,2,2,1,positive,negative,l,l,1,0.865040400007274,288.5809061000473,289.58092170004966,289.58092170004966,None,288.5809061000473,None,288.5809061000473,None,288.5809061000473,None,290.44752357004324,None,290.44752357004324,None,290.44752357004324,None,,,,,,,,,,,,,,111,2023-04-04_17h10.08.946,Main,2022.1.1,59.99800805794959,
positive,neutral,2,l,j,,,,,,,,,4,6,78,17,,,,,,,,,main,2,2,2,neutral,positive,j,j,1,1.0152955999947153,290.4508627000032,291.4500651000417,291.4500651000417,None,290.4508627000032,None,290.4508627000032,None,290.4508627000032,None,292.46445307002284,None,292.46445307002284,None,292.46445307002284,None,,,,,,,,,,,,,,111,2023-04-04_17h10.08.946,Main,2022.1.1,59.99800805794959,
neutral,positive,1,k,k,,,,,,,,,4,7,79,4,,,,,,,,,main,1,1,1,positive,neutral,k,k,1,0.6995276999659836,292.4687146000215,293.48329290002584,293.46667440002784,None,292.4687146000215,None,292.4687146000215,None,292.4687146000215,None,294.16651677003244,None,294.16651677003244,None,294.16651677003244,None,,,,,,,,,,,,,,111,2023-04-04_17h10.08.946,Main,2022.1.1,59.99800805794959,
positive,positive,2,l,j,,,,,,,,,4,8,80,11,,,,,,,,,main,2,2,2,positive,positive,j,j,1,0.7653096999856643,294.170385800011,295.1832142000203,295.1666166000068,None,294.170385800011,None,294.170385800011,None,294.170385800011,None,295.93313557003273,None,295.93313557003273,None,295.93313557003273,None,,,,,,,,,,,,,,111,2023-04-04_17h10.08.946,Main,2022.1.1,59.99800805794959,
neutral,neutral,2,k,k,,,,,,,,,4,9,81,10,,,,,,,,,main,1,1,2,neutral,neutral,k,k,1,0.711564700002782,295.93708800000604,296.9498659000383,296.9332527000224,None,295.93708800000604,None,295.93708800000604,None,295.93708800000604,None,297.64726617001577,None,297.64726617001577,None,297.64726617001577,None,,,,,,,,,,,,,,111,2023-04-04_17h10.08.946,Main,2022.1.1,59.99800805794959,
positive,negative,2,l,j,,,,,,,,,4,10,82,14,,,,,,,,,main,2,2,2,negative,positive,j,j,1,0.7644930999958888,297.6480274000205,298.6473082000157,298.6473082000157,None,297.6480274000205,None,297.6480274000205,None,297.6480274000205,None,299.4139960699889,None,299.4139960699889,None,299.4139960699889,None,,,,,,,,,,,,,,111,2023-04-04_17h10.08.946,Main,2022.1.1,59.99800805794959,
negative,neutral,1,j,l,,,,,,,,,4,11,83,3,,,,,,,,,main,1,1,1,neutral,negative,l,l,1,0.6818234999664128,299.4170935000293,300.4164726000163,300.39983970002504,None,299.4170935000293,None,299.4170935000293,None,299.4170935000293,None,301.0972900700348,None,301.0972900700348,None,301.0972900700348,None,,,,,,,,,,,,,,111,2023-04-04_17h10.08.946,Main,2022.1.1,59.99800805794959,
negative,negative,1,j,l,,,,,,,,,4,12,84,0,,,,,,,,,main,2,2,1,negative,negative,l,l,1,0.7680580000160262,301.1044113000389,302.11635790002765,302.0998158000293,None,301.1044113000389,None,301.1044113000389,None,301.1044113000389,None,302.86632666999355,None,302.86632666999355,None,302.86632666999355,None,,,,,,,,,,,,,,111,2023-04-04_17h10.08.946,Main,2022.1.1,59.99800805794959,
positive,positive,1,l,j,,,,,,,,,4,13,85,2,,,,,,,,,main,1,1,1,positive,positive,j,j,1,0.7315450999885798,302.87480610003695,303.88304550002795,303.8664432000369,None,302.87480610003695,None,302.87480610003695,None,302.87480610003695,None,304.59964167001306,None,304.59964167001306,None,304.59964167001306,None,,,,,,,,,,,,,,111,2023-04-04_17h10.08.946,Main,2022.1.1,59.99800805794959,
negative,neutral,2,j,l,,,,,,,,,4,14,86,12,,,,,,,,,main,2,2,2,neutral,negative,l,l,1,0.745908499986399,304.60397840000223,305.6163415000192,305.5997331000399,None,304.60397840000223,None,304.60397840000223,None,304.60397840000223,None,306.348203870008,None,306.348203870008,None,306.348203870008,None,,,,,,,,,,,,,,111,2023-04-04_17h10.08.946,Main,2022.1.1,59.99800805794959,
neutral,negative,2,k,k,,,,,,,,,4,15,87,16,,,,,,,,,main,2,2,2,negative,neutral,k,k,1,0.7150610000244342,306.35425700002816,307.3663005999988,307.3496647000429,None,306.35425700002816,None,306.35425700002816,None,306.35425700002816,None,308.0637484699895,None,308.0637484699895,None,308.0637484699895,None,,,,,,,,,,,,,,111,2023-04-04_17h10.08.946,Main,2022.1.1,59.99800805794959,
positive,neutral,1,l,j,,,,,,,,,4,16,88,8,,,,,,,,,main,1,1,1,neutral,positive,j,j,1,0.713715499965474,308.06468870001845,309.0637818000396,309.0637818000396,None,308.06468870001845,None,308.06468870001845,None,308.06468870001845,None,309.78041607002376,None,309.78041607002376,None,309.78041607002376,None,,,,,,,,,,,,,,111,2023-04-04_17h10.08.946,Main,2022.1.1,59.99800805794959,
negative,negative,2,j,l,,,,,,,,,4,17,89,9,,,,,,,,,main,1,1,2,negative,negative,l,l,1,0.7657602999825031,309.79717370000435,310.7995924000279,310.7829499000218,None,309.79717370000435,None,309.79717370000435,None,309.79717370000435,None,311.5481425700185,None,311.5481425700185,None,311.5481425700185,None,,,,,,,,,,,,,,111,2023-04-04_17h10.08.946,Main,2022.1.1,59.99800805794959,
positive,positive,2,l,j,,,,,,,,,5,0,90,11,,,,,,,,,main,2,2,2,positive,positive,j,j,1,0.7509209999698214,311.5542221000069,312.56617350003216,312.5495826000115,None,311.5542221000069,None,311.5542221000069,None,311.5542221000069,None,313.2969783700013,None,313.2969783700013,None,313.2969783700013,None,,,,,,,,,,,,,,111,2023-04-04_17h10.08.946,Main,2022.1.1,59.99800805794959,
neutral,neutral,2,k,k,,,,,,,,,5,1,91,10,,,,,,,,,main,2,2,2,neutral,neutral,k,k,1,0.6802216000505723,313.30434200004674,314.31611120002344,314.2995360000059,None,313.30434200004674,None,313.30434200004674,None,313.30434200004674,None,314.98273747001656,None,314.98273747001656,None,314.98273747001656,None,,,,,,,,,,,,,,111,2023-04-04_17h10.08.946,Main,2022.1.1,59.99800805794959,
negative,positive,1,j,l,,,,,,,,,5,2,92,6,,,,,,,,,main,2,2,1,positive,negative,l,l,1,0.711642500013113,314.9871271000011,315.99704690004,315.9828040000284,None,314.9871271000011,None,314.9871271000011,None,314.9871271000011,None,316.69691316999376,None,316.69691316999376,None,316.69691316999376,None,,,,,,,,,,,,,,111,2023-04-04_17h10.08.946,Main,2022.1.1,59.99800805794959,
negative,positive,2,j,l,,,,,,,,,5,3,93,15,,,,,,,,,main,1,1,2,positive,negative,l,l,1,0.8316400999901816,316.7012772000162,317.71357040002476,317.69690820004325,None,316.7012772000162,None,316.7012772000162,None,316.7012772000162,None,318.5301707700186,None,318.5301707700186,None,318.5301707700186,None,,,,,,,,,,,,,,111,2023-04-04_17h10.08.946,Main,2022.1.1,59.99800805794959,
positive,positive,1,l,j,,,,,,,,,5,4,94,2,,,,,,,,,main,2,2,1,positive,positive,j,j,1,0.7333751000114717,318.5306135000428,319.53021700005047,319.53021700005047,None,318.5306135000428,None,318.5306135000428,None,318.5306135000428,None,320.26353477000373,None,320.26353477000373,None,320.26353477000373,None,,,,,,,,,,,,,,111,2023-04-04_17h10.08.946,Main,2022.1.1,59.99800805794959,
neutral,neutral,1,k,k,,,,,,,,,5,5,95,1,,,,,,,,,main,2,2,1,neutral,neutral,k,k,1,0.6160138000268489,320.26559070002986,321.2802110000048,321.2635550000123,None,320.26559070002986,None,320.26559070002986,None,320.26559070002986,None,321.88273846998925,None,321.88273846998925,None,321.88273846998925,None,,,,,,,,,,,,,,111,2023-04-04_17h10.08.946,Main,2022.1.1,59.99800805794959,
negative,negative,2,j,l,,,,,,,,,5,6,96,9,,,,,,,,,main,2,2,2,negative,negative,l,l,1,0.6815753999981098,321.8867650000029,322.89929370000027,322.88270630000625,None,321.8867650000029,None,321.8867650000029,None,321.8867650000029,None,323.56600157003265,None,323.56600157003265,None,323.56600157003265,None,,,,,,,,,,,,,,111,2023-04-04_17h10.08.946,Main,2022.1.1,59.99800805794959,
positive,negative,1,l,j,,,,,,,,,5,7,97,5,,,,,,,,,main,1,1,1,negative,positive,j,j,1,0.6485775000182912,323.5688183000311,324.5825681000133,324.5659752000356,None,323.5688183000311,None,323.5688183000311,None,323.5688183000311,None,325.21590216999755,None,325.21590216999755,None,325.21590216999755,None,,,,,,,,,,,,,,111,2023-04-04_17h10.08.946,Main,2022.1.1,59.99800805794959,
positive,neutral,2,l,j,,,,,,,,,5,8,98,17,,,,,,,,,main,2,2,2,neutral,positive,j,j,1,0.6627671000314876,325.2191449000384,326.2325590000255,326.21595610002987,None,325.2191449000384,None,325.2191449000384,None,325.2191449000384,None,326.88020936999817,None,326.88020936999817,None,326.88020936999817,None,,,,,,,,,,,,,,111,2023-04-04_17h10.08.946,Main,2022.1.1,59.99800805794959,
positive,negative,2,l,j,,,,,,,,,5,9,99,14,,,,,,,,,main,1,1,2,negative,positive,j,j,1,0.5996556000318378,326.8867151000304,327.89917530003004,327.8825895000482,None,326.8867151000304,None,326.8867151000304,None,326.8867151000304,None,328.4815790700435,None,328.4815790700435,None,328.4815790700435,None,,,,,,,,,,,,,,111,2023-04-04_17h10.08.946,Main,2022.1.1,59.99800805794959,
neutral,negative,2,k,k,,,,,,,,,5,10,100,16,,,,,,,,,main,2,2,2,negative,neutral,k,k,1,0.6802131999866106,328.4872006000369,329.4966371000046,329.4799656000105,None,328.4872006000369,None,328.4872006000369,None,328.4872006000369,None,330.16321567004195,None,330.16321567004195,None,330.16321567004195,None,,,,,,,,,,,,,,111,2023-04-04_17h10.08.946,Main,2022.1.1,59.99800805794959,
neutral,positive,2,k,k,,,,,,,,,5,11,101,13,,,,,,,,,main,1,1,2,positive,neutral,k,k,1,0.6352219000109471,330.1632938000257,331.16328780003823,331.16328780003823,None,330.1632938000257,None,330.1632938000257,None,330.1632938000257,None,331.79670007003585,None,331.79670007003585,None,331.79670007003585,None,,,,,,,,,,,,,,111,2023-04-04_17h10.08.946,Main,2022.1.1,59.99800805794959,
neutral,negative,1,k,k,,,,,,,,,5,12,102,7,,,,,,,,,main,1,1,1,negative,neutral,k,k,1,0.9457135000266135,331.80087010003626,332.8133117000107,332.79662960005226,None,331.80087010003626,None,331.80087010003626,None,331.80087010003626,None,333.74744996999505,None,333.74744996999505,None,333.74744996999505,None,,,,,,,,,,,,,,111,2023-04-04_17h10.08.946,Main,2022.1.1,59.99800805794959,
negative,neutral,2,j,l,,,,,,,,,5,13,103,12,,,,,,,,,main,2,2,2,neutral,negative,l,l,1,0.6668452000012621,333.75378300005104,334.7656935999985,334.7491868000361,None,333.75378300005104,None,333.75378300005104,None,333.75378300005104,None,335.41559466999604,None,335.41559466999604,None,335.41559466999604,None,,,,,,,,,,,,,,111,2023-04-04_17h10.08.946,Main,2022.1.1,59.99800805794959,
negative,neutral,1,j,l,,,,,,,,,5,14,104,3,,,,,,,,,main,2,2,1,neutral,negative,l,l,1,1.0150359999970533,335.4186564999982,336.4323534000432,336.4157144000055,None,335.4186564999982,None,335.4186564999982,None,335.4186564999982,None,337.4322707700252,None,337.4322707700252,None,337.4322707700252,None,,,,,,,,,,,,,,111,2023-04-04_17h10.08.946,Main,2022.1.1,59.99800805794959,
positive,neutral,1,l,j,,,,,,,,,5,15,105,8,,,,,,,,,main,1,1,1,neutral,positive,j,j,1,0.6817535000154749,337.43489710002905,338.4489349000505,338.43235200003255,None,337.43489710002905,None,337.43489710002905,None,337.43489710002905,None,339.11558257003196,None,339.11558257003196,None,339.11558257003196,None,,,,,,,,,,,,,,111,2023-04-04_17h10.08.946,Main,2022.1.1,59.99800805794959,
negative,negative,1,j,l,,,,,,,,,5,16,106,0,,,,,,,,,main,2,2,1,negative,negative,l,l,1,0.9029414000106044,339.1185494000092,340.1322581000277,340.1156583999982,None,339.1185494000092,None,339.1185494000092,None,339.1185494000092,None,341.015672170039,None,341.015672170039,None,341.015672170039,None,,,,,,,,,,,,,,111,2023-04-04_17h10.08.946,Main,2022.1.1,59.99800805794959,
neutral,positive,1,k,k,,,,,,,,,5,17,107,4,,,,,,,,,main,1,1,1,positive,neutral,k,k,1,0.741415299999062,341.0234849000117,342.02969990001293,342.01302830001805,None,341.0234849000117,None,341.0234849000117,None,341.0234849000117,None,342.7629565700248,None,342.7629565700248,None,342.7629565700248,None,,,,,,,,,,,,,,111,2023-04-04_17h10.08.946,Main,2022.1.1,59.99800805794959,
negative,neutral,2,j,l,,,,,,,,,6,0,108,12,,,,,,,,,main,1,1,2,neutral,negative,l,l,1,0.6984875000198372,342.76296960003674,343.76306690002093,343.76306690002093,None,342.76296960003674,None,342.76296960003674,None,342.76296960003674,None,344.46294437000176,None,344.46294437000176,None,344.46294437000176,None,,,,,,,,,,,,,,111,2023-04-04_17h10.08.946,Main,2022.1.1,59.99800805794959,
neutral,positive,2,k,k,,,,,,,,,6,1,109,13,,,,,,,,,main,2,2,2,positive,neutral,k,k,1,0.6855553999776021,344.46357850002823,345.46305190003477,345.46305190003477,None,344.46357850002823,None,344.46357850002823,None,344.46357850002823,None,346.14876687003414,None,346.14876687003414,None,346.14876687003414,None,,,,,,,,,,,,,,111,2023-04-04_17h10.08.946,Main,2022.1.1,59.99800805794959,
neutral,neutral,2,k,k,,,,,,,,,6,2,110,10,,,,,,,,,main,1,1,2,neutral,neutral,k,k,1,0.6109835999668576,346.1534082000144,347.1654441000428,347.1488310000277,None,346.1534082000144,None,346.1534082000144,None,346.1534082000144,None,347.7629298699961,None,347.7629298699961,None,347.7629298699961,None,,,,,,,,,,,,,,111,2023-04-04_17h10.08.946,Main,2022.1.1,59.99800805794959,
positive,neutral,2,l,j,,,,,,,,,6,3,111,17,,,,,,,,,main,2,2,2,neutral,positive,j,j,1,0.6154017000226304,347.766183300002,348.76537940005073,348.74869510001736,None,347.766183300002,None,347.766183300002,None,347.766183300002,None,349.37970157003144,None,349.37970157003144,None,349.37970157003144,None,,,,,,,,,,,,,,111,2023-04-04_17h10.08.946,Main,2022.1.1,59.99800805794959,
neutral,negative,1,k,k,,,,,,,,,6,4,112,7,,,,,,,,,main,1,1,1,negative,neutral,k,k,1,0.8011319999932311,349.3858440000331,350.3987224000157,350.3821178000071,None,349.3858440000331,None,349.3858440000331,None,349.3858440000331,None,351.18204987003116,None,351.18204987003116,None,351.18204987003116,None,,,,,,,,,,,,,,111,2023-04-04_17h10.08.946,Main,2022.1.1,59.99800805794959,
positive,positive,2,l,j,,,,,,,,,6,5,113,11,,,,,,,,,main,2,2,2,positive,positive,j,j,1,0.7816419000155292,351.18610920000356,352.1986451999983,352.18208190001315,None,351.18610920000356,None,351.18610920000356,None,351.18610920000356,None,352.96535956999867,None,352.96535956999867,None,352.96535956999867,None,,,,,,,,,,,,,,111,2023-04-04_17h10.08.946,Main,2022.1.1,59.99800805794959,
negative,negative,1,j,l,,,,,,,,,6,6,114,0,,,,,,,,,main,1,1,1,negative,negative,l,l,1,0.8122351999627426,352.97090820001904,353.97948520001955,353.9628050000174,None,352.97090820001904,None,352.97090820001904,None,352.97090820001904,None,354.7793667700083,None,354.7793667700083,None,354.7793667700083,None,,,,,,,,,,,,,,111,2023-04-04_17h10.08.946,Main,2022.1.1,59.99800805794959,
negative,negative,2,j,l,,,,,,,,,6,7,115,9,,,,,,,,,main,2,2,2,negative,negative,l,l,1,0.6976924000191502,354.77990630001295,355.7794751000474,355.7794751000474,None,354.77990630001295,None,354.77990630001295,None,354.77990630001295,None,356.47938646999535,None,356.47938646999535,None,356.47938646999535,None,,,,,,,,,,,,,,111,2023-04-04_17h10.08.946,Main,2022.1.1,59.99800805794959,
neutral,neutral,1,k,k,,,,,,,,,6,8,116,1,,,,,,,,,main,2,2,1,neutral,neutral,k,k,1,0.8836774000083096,356.4961086999974,357.4961131000309,357.47943430003943,None,356.4961086999974,None,356.4961086999974,None,356.4961086999974,None,358.36516087002235,None,358.36516087002235,None,358.36516087002235,None,,,,,,,,,,,,,,111,2023-04-04_17h10.08.946,Main,2022.1.1,59.99800805794959,
positive,negative,2,l,j,,,,,,,,,6,9,117,14,,,,,,,,,main,1,1,2,negative,positive,j,j,1,0.7165387000422925,358.3680763000157,359.38186730002053,359.3652815000387,None,358.3680763000157,None,358.3680763000157,None,358.3680763000157,None,360.0819381700188,None,360.0819381700188,None,360.0819381700188,None,,,,,,,,,,,,,,111,2023-04-04_17h10.08.946,Main,2022.1.1,59.99800805794959,
negative,neutral,1,j,l,,,,,,,,,6,10,118,3,,,,,,,,,main,1,1,1,neutral,negative,l,l,1,0.7470392000395805,360.0865795999998,361.09849520004354,361.0819180000108,None,360.0865795999998,None,360.0865795999998,None,360.0865795999998,None,361.8317894699925,None,361.8317894699925,None,361.8317894699925,None,,,,,,,,,,,,,,111,2023-04-04_17h10.08.946,Main,2022.1.1,59.99800805794959,
neutral,positive,1,k,k,,,,,,,,,6,11,119,4,,,,,,,,,main,1,1,1,positive,neutral,k,k,1,0.7663949000416324,361.835787900025,362.8484524000087,362.8318589000264,None,361.835787900025,None,361.835787900025,None,361.835787900025,None,363.5968348700029,None,363.5968348700029,None,363.5968348700029,None,,,,,,,,,,,,,,111,2023-04-04_17h10.08.946,Main,2022.1.1,59.99800805794959,
negative,positive,1,j,l,,,,,,,,,6,12,120,6,,,,,,,,,main,2,2,1,positive,negative,l,k,0,0.594413299986627,363.60317240003496,364.61504200001946,364.5984735999955,None,363.60317240003496,None,363.60317240003496,None,363.60317240003496,None,365.1959228000487,None,365.1959228000487,None,365.1959228000487,None,,,,,,,,,,,,,,111,2023-04-04_17h10.08.946,Main,2022.1.1,59.99800805794959,
positive,neutral,1,l,j,,,,,,,,,6,13,121,8,,,,,,,,,main,2,2,1,neutral,positive,j,j,1,0.872783399943728,366.19590800005244,367.1959216000396,367.17925139999716,None,366.19590800005244,None,366.19590800005244,None,366.19590800005244,None,368.06501397002137,None,368.06501397002137,None,368.06501397002137,None,,,,,,,,,,,,,,111,2023-04-04_17h10.08.946,Main,2022.1.1,59.99800805794959,
positive,positive,1,l,j,,,,,,,,,6,14,122,2,,,,,,,,,main,2,2,1,positive,positive,j,j,1,0.7470160000375472,368.06919160002144,369.08164200000465,369.0649926000042,None,368.06919160002144,None,368.06919160002144,None,368.06919160002144,None,369.81489397003895,None,369.81489397003895,None,369.81489397003895,None,,,,,,,,,,,,,,111,2023-04-04_17h10.08.946,Main,2022.1.1,59.99800805794959,
neutral,negative,2,k,k,,,,,,,,,6,15,123,16,,,,,,,,,main,1,1,2,negative,neutral,k,k,1,0.780333700007759,369.81901279999875,370.8316024999949,370.8149664000375,None,369.81901279999875,None,369.81901279999875,None,369.81901279999875,None,371.5961262700206,None,371.5961262700206,None,371.5961262700206,None,,,,,,,,,,,,,,111,2023-04-04_17h10.08.946,Main,2022.1.1,59.99800805794959,
negative,positive,2,j,l,,,,,,,,,6,16,124,15,,,,,,,,,main,1,1,2,positive,negative,l,l,1,0.7311826000222936,371.60246770002414,372.6148879000102,372.5982836000039,None,371.60246770002414,None,371.60246770002414,None,371.60246770002414,None,373.3293012700218,None,373.3293012700218,None,373.3293012700218,None,,,,,,,,,,,,,,111,2023-04-04_17h10.08.946,Main,2022.1.1,59.99800805794959,
positive,negative,1,l,j,,,,,,,,,6,17,125,5,,,,,,,,,main,2,2,1,negative,positive,j,j,1,1.597878300002776,373.3358764000004,374.3481458000024,374.3315563000506,None,373.3358764000004,None,373.3358764000004,None,373.3358764000004,None,375.9290203000419,None,375.9290203000419,None,375.9290203000419,None,,,,,,,,,,,,,,111,2023-04-04_17h10.08.946,Main,2022.1.1,59.99800805794959,
neutral,negative,2,k,k,,,,,,,,,7,0,126,16,,,,,,,,,main,1,1,2,negative,neutral,k,k,1,0.770818299963139,376.9289809000329,377.92899939999916,377.91232860001037,None,376.9289809000329,None,376.9289809000329,None,376.9289809000329,None,378.69627497002364,None,378.69627497002364,None,378.69627497002364,None,,,,,,,,,,,,,,111,2023-04-04_17h10.08.946,Main,2022.1.1,59.99800805794959,
positive,neutral,2,l,j,,,,,,,,,7,1,127,17,,,,,,,,,main,2,2,2,neutral,positive,j,j,1,0.680964800005313,378.7026490000426,379.7147415000363,379.6981624000473,None,378.7026490000426,None,378.7026490000426,None,378.7026490000426,None,380.3788784699922,None,380.3788784699922,None,380.3788784699922,None,,,,,,,,,,,,,,111,2023-04-04_17h10.08.946,Main,2022.1.1,59.99800805794959,
negative,negative,2,j,l,,,,,,,,,7,2,128,9,,,,,,,,,main,1,1,2,negative,negative,l,l,1,0.7840173000004143,380.38248280005064,381.3980362000293,381.3814250000287,None,380.38248280005064,None,380.38248280005064,None,380.38248280005064,None,382.16461127001674,None,382.16461127001674,None,382.16461127001674,None,,,,,,,,,,,,,,111,2023-04-04_17h10.08.946,Main,2022.1.1,59.99800805794959,
positive,negative,1,l,j,,,,,,,,,7,3,129,5,,,,,,,,,main,1,1,1,negative,positive,j,j,1,0.8013187000178732,382.16754690004745,383.1813265000237,383.16474310000194,None,382.16754690004745,None,382.16754690004745,None,382.16754690004745,None,383.96322357003226,None,383.96322357003226,None,383.96322357003226,None,,,,,,,,,,,,,,111,2023-04-04_17h10.08.946,Main,2022.1.1,59.99800805794959,
negative,neutral,1,j,l,,,,,,,,,7,4,130,3,,,,,,,,,main,2,2,1,neutral,negative,l,l,1,0.7762406999827363,383.9709091000259,384.9787893000175,384.96213729999727,None,383.9709091000259,None,383.9709091000259,None,383.9709091000259,None,385.745381770021,None,385.745381770021,None,385.745381770021,None,,,,,,,,,,,,,,111,2023-04-04_17h10.08.946,Main,2022.1.1,59.99800805794959,
negative,positive,2,j,l,,,,,,,,,7,5,131,15,,,,,,,,,main,1,1,2,positive,negative,l,l,1,0.6985391000052914,385.74540770001477,386.7454850000213,386.7454850000213,None,385.74540770001477,None,385.74540770001477,None,385.74540770001477,None,387.4454194700287,None,387.4454194700287,None,387.4454194700287,None,,,,,,,,,,,,,,111,2023-04-04_17h10.08.946,Main,2022.1.1,59.99800805794959,
positive,neutral,1,l,j,,,,,,,,,7,6,132,8,,,,,,,,,main,1,1,1,neutral,positive,j,j,1,0.8316388000384904,387.4487238000147,388.4479340999969,388.4479340999969,None,387.4487238000147,None,387.4487238000147,None,387.4487238000147,None,389.2787114700244,None,389.2787114700244,None,389.2787114700244,None,,,,,,,,,,,,,,111,2023-04-04_17h10.08.946,Main,2022.1.1,59.99800805794959,
neutral,negative,1,k,k,,,,,,,,,7,7,133,7,,,,,,,,,main,2,2,1,negative,neutral,k,k,1,0.6843896000063978,389.28264340001624,390.29797240003245,390.2813004000345,None,389.28264340001624,None,389.28264340001624,None,389.28264340001624,None,390.96436037001547,None,390.96436037001547,None,390.96436037001547,None,,,,,,,,,,,,,,111,2023-04-04_17h10.08.946,Main,2022.1.1,59.99800805794959,
neutral,neutral,2,k,k,,,,,,,,,7,8,134,10,,,,,,,,,main,2,2,2,neutral,neutral,k,k,1,0.7151363000157289,390.9676841000328,391.98114490002627,391.9645372000523,None,390.9676841000328,None,390.9676841000328,None,390.9676841000328,None,392.681071770034,None,392.681071770034,None,392.681071770034,None,,,,,,,,,,,,,,111,2023-04-04_17h10.08.946,Main,2022.1.1,59.99800805794959,
positive,positive,1,l,j,,,,,,,,,7,9,135,2,,,,,,,,,main,2,2,1,positive,positive,j,j,1,0.7128926000441425,392.6843893000041,393.69779820000986,393.6811682000407,None,392.6843893000041,None,392.6843893000041,None,392.6843893000041,None,394.3955923700181,None,394.3955923700181,None,394.3955923700181,None,,,,,,,,,,,,,,111,2023-04-04_17h10.08.946,Main,2022.1.1,59.99800805794959,
positive,negative,2,l,j,,,,,,,,,7,10,136,14,,,,,,,,,main,2,2,2,negative,positive,j,j,1,0.6980966000119224,394.3992864000029,395.41189790004864,395.3952523000189,None,394.3992864000029,None,394.3992864000029,None,394.3992864000029,None,396.09518306999814,None,396.09518306999814,None,396.09518306999814,None,,,,,,,,,,,,,,111,2023-04-04_17h10.08.946,Main,2022.1.1,59.99800805794959,
neutral,positive,2,k,k,,,,,,,,,7,11,137,13,,,,,,,,,main,1,1,2,positive,neutral,k,k,1,0.7343143000034615,396.09521170001244,397.09526760003064,397.09526760003064,None,396.09521170001244,None,396.09521170001244,None,396.09521170001244,None,397.8311179700016,None,397.8311179700016,None,397.8311179700016,None,,,,,,,,,,,,,,111,2023-04-04_17h10.08.946,Main,2022.1.1,59.99800805794959,
negative,neutral,2,j,l,,,,,,,,,7,12,138,12,,,,,,,,,main,2,2,2,neutral,negative,l,l,1,0.6815853000152856,397.8357711000135,398.8476576000103,398.83107050001854,None,397.8357711000135,None,397.8357711000135,None,397.8357711000135,None,399.51424436999366,None,399.51424436999366,None,399.51424436999366,None,,,,,,,,,,,,,,111,2023-04-04_17h10.08.946,Main,2022.1.1,59.99800805794959,
neutral,neutral,1,k,k,,,,,,,,,7,13,139,1,,,,,,,,,main,2,2,1,neutral,neutral,k,k,1,0.7483721999451518,399.518339000002,400.5311111000483,400.5143792000017,None,399.518339000002,None,399.518339000002,None,399.518339000002,None,401.26419677003867,None,401.26419677003867,None,401.26419677003867,None,,,,,,,,,,,,,,111,2023-04-04_17h10.08.946,Main,2022.1.1,59.99800805794959,
negative,positive,1,j,l,,,,,,,,,7,14,140,6,,,,,,,,,main,2,2,1,positive,negative,l,l,1,0.7300862999982201,401.2682110000169,402.2809253000305,402.2643184000044,None,401.2682110000169,None,401.2682110000169,None,401.2682110000169,None,402.9963556700444,None,402.9963556700444,None,402.9963556700444,None,,,,,,,,,,,,,,111,2023-04-04_17h10.08.946,Main,2022.1.1,59.99800805794959,
positive,positive,2,l,j,,,,,,,,,7,15,141,11,,,,,,,,,main,1,1,2,positive,positive,j,j,1,0.7819344000308774,403.00220630003605,404.014215000032,403.99764390004566,None,403.00220630003605,None,403.00220630003605,None,403.00220630003605,None,404.780770370044,None,404.780770370044,None,404.780770370044,None,,,,,,,,,,,,,,111,2023-04-04_17h10.08.946,Main,2022.1.1,59.99800805794959,
negative,negative,1,j,l,,,,,,,,,7,16,142,0,,,,,,,,,main,1,1,1,negative,negative,l,l,1,0.8292623999877833,404.7838667000178,405.79503560002195,405.7783763000043,None,404.7838667000178,None,404.7838667000178,None,404.7838667000178,None,406.6116120700084,None,406.6116120700084,None,406.6116120700084,None,,,,,,,,,,,,,,111,2023-04-04_17h10.08.946,Main,2022.1.1,59.99800805794959,
neutral,positive,1,k,k,,,,,,,,,7,17,143,4,,,,,,,,,main,2,2,1,positive,neutral,k,k,1,0.8011359000229277,406.61163170001237,407.61169250000967,407.61169250000967,None,406.61163170001237,None,406.61163170001237,None,406.61163170001237,None,408.4142349700036,None,408.4142349700036,None,408.4142349700036,None,,,,,,,,,,,,,,111,2023-04-04_17h10.08.946,Main,2022.1.1,59.99800805794959,
positive,positive,2,l,j,,,,,,,,,8,0,144,11,,,,,,,,,main,1,1,2,positive,positive,j,j,1,0.8152760000084527,408.4183150000172,409.43070570001146,409.41412470000796,None,408.4183150000172,None,408.4183150000172,None,408.4183150000172,None,410.23078617000135,None,410.23078617000135,None,410.23078617000135,None,,,,,,,,,,,,,,111,2023-04-04_17h10.08.946,Main,2022.1.1,59.99800805794959,
negative,neutral,1,j,l,,,,,,,,,8,1,145,3,,,,,,,,,main,2,2,1,neutral,negative,l,l,1,1.0128947999910451,410.2345015000319,411.2473806000198,411.2307802000432,None,410.2345015000319,None,410.2345015000319,None,410.2345015000319,None,412.2454773699923,None,412.2454773699923,None,412.2454773699923,None,,,,,,,,,,,,,,111,2023-04-04_17h10.08.946,Main,2022.1.1,59.99800805794959,
negative,negative,2,j,l,,,,,,,,,8,2,146,9,,,,,,,,,main,2,2,2,negative,negative,l,l,1,0.7836473999777809,412.2640939000412,413.26400970004033,413.2473980000359,None,412.2640939000412,None,412.2640939000412,None,412.2640939000412,None,414.03070487001094,None,414.03070487001094,None,414.03070487001094,None,,,,,,,,,,,,,,111,2023-04-04_17h10.08.946,Main,2022.1.1,59.99800805794959,
neutral,positive,2,k,k,,,,,,,,,8,3,147,13,,,,,,,,,main,2,2,2,positive,neutral,k,k,1,0.8125867000198923,414.03386230004253,415.0443895000499,415.0272162000183,None,414.03386230004253,None,414.03386230004253,None,414.03386230004253,None,415.8447676700365,None,415.8447676700365,None,415.8447676700365,None,,,,,,,,,,,,,,111,2023-04-04_17h10.08.946,Main,2022.1.1,59.99800805794959,
positive,negative,1,l,j,,,,,,,,,8,4,148,5,,,,,,,,,main,1,1,1,negative,positive,j,j,1,0.7660465000080876,415.84531290002633,416.84480080002686,416.84480080002686,None,415.84531290002633,None,415.84531290002633,None,415.84531290002633,None,417.6114283700066,None,417.6114283700066,None,417.6114283700066,None,,,,,,,,,,,,,,111,2023-04-04_17h10.08.946,Main,2022.1.1,59.99800805794959,
neutral,negative,1,k,k,,,,,,,,,8,5,149,7,,,,,,,,,main,1,1,1,negative,neutral,k,k,1,0.8818125000107102,417.6161125000217,418.63057780003874,418.6139684000518,None,417.6161125000217,None,417.6161125000217,None,417.6161125000217,None,419.49543136999125,None,419.49543136999125,None,419.49543136999125,None,,,,,,,,,,,,,,111,2023-04-04_17h10.08.946,Main,2022.1.1,59.99800805794959,
neutral,neutral,2,k,k,,,,,,,,,8,6,150,10,,,,,,,,,main,1,1,2,neutral,neutral,k,k,1,0.9326423999737017,419.5018699000357,420.5138647000422,420.4973251000047,None,419.5018699000357,None,419.5018699000357,None,419.5018699000357,None,421.4304974700266,None,421.4304974700266,None,421.4304974700266,None,,,,,,,,,,,,,,111,2023-04-04_17h10.08.946,Main,2022.1.1,59.99800805794959,
neutral,negative,2,k,k,,,,,,,,,8,7,151,16,,,,,,,,,main,2,2,2,negative,neutral,k,k,1,0.7460115000139922,421.4334833000321,422.4471591000329,422.43055200000526,None,421.4334833000321,None,421.4334833000321,None,421.4334833000321,None,423.1779851699888,None,423.1779851699888,None,423.1779851699888,None,,,,,,,,,,,,,,111,2023-04-04_17h10.08.946,Main,2022.1.1,59.99800805794959,
positive,positive,1,l,j,,,,,,,,,8,8,152,2,,,,,,,,,main,2,2,1,positive,positive,j,j,1,0.750951099966187,423.18425540003227,424.19709710002644,424.18052440002793,None,423.18425540003227,None,423.18425540003227,None,423.18425540003227,None,424.93035887001895,None,424.93035887001895,None,424.93035887001895,None,,,,,,,,,,,,,,111,2023-04-04_17h10.08.946,Main,2022.1.1,59.99800805794959,
neutral,neutral,1,k,k,,,,,,,,,8,9,153,1,,,,,,,,,main,2,2,1,neutral,neutral,k,k,1,0.7791168999974616,424.9334893000196,425.94460840005195,425.92794280004455,None,424.9334893000196,None,424.9334893000196,None,424.9334893000196,None,426.7111859700002,None,426.7111859700002,None,426.7111859700002,None,,,,,,,,,,,,,,111,2023-04-04_17h10.08.946,Main,2022.1.1,59.99800805794959,
positive,neutral,2,l,j,,,,,,,,,8,10,154,17,,,,,,,,,main,1,1,2,neutral,positive,j,j,1,0.8335195999825373,426.7111906000064,427.7112679000129,427.7112679000129,None,426.7111906000064,None,426.7111906000064,None,426.7111906000064,None,428.5462588699942,None,428.5462588699942,None,428.5462588699942,None,,,,,,,,,,,,,,111,2023-04-04_17h10.08.946,Main,2022.1.1,59.99800805794959,
negative,positive,2,j,l,,,,,,,,,8,11,155,15,,,,,,,,,main,2,2,2,positive,negative,l,l,1,0.7470674999640323,428.5516951000318,429.56365020002704,429.54706740000984,None,428.5516951000318,None,428.5516951000318,None,428.5516951000318,None,430.2944661700225,None,430.2944661700225,None,430.2944661700225,None,,,,,,,,,,,,,,111,2023-04-04_17h10.08.946,Main,2022.1.1,59.99800805794959,
negative,positive,1,j,l,,,,,,,,,8,12,156,6,,,,,,,,,main,2,2,1,positive,negative,l,l,1,0.8818984999670647,430.2983534000232,431.3136356000323,431.2970489000436,None,430.2983534000232,None,430.2983534000232,None,430.2983534000232,None,432.17813767004407,None,432.17813767004407,None,432.17813767004407,None,,,,,,,,,,,,,,111,2023-04-04_17h10.08.946,Main,2022.1.1,59.99800805794959,
neutral,positive,1,k,k,,,,,,,,,8,13,157,4,,,,,,,,,main,1,1,1,positive,neutral,k,k,1,0.78494809998665,432.1835369000328,433.19690820004325,433.18034840002656,None,432.1835369000328,None,432.1835369000328,None,432.1835369000328,None,433.963662569999,None,433.963662569999,None,433.963662569999,None,,,,,,,,,,,,,,111,2023-04-04_17h10.08.946,Main,2022.1.1,59.99800805794959,
positive,negative,2,l,j,,,,,,,,,8,14,158,14,,,,,,,,,main,1,1,2,negative,positive,j,j,1,0.811243399977684,433.96805440000026,434.9813901000307,434.9601021000417,None,433.96805440000026,None,433.96805440000026,None,433.96805440000026,None,435.7776537700032,None,435.7776537700032,None,435.7776537700032,None,,,,,,,,,,,,,,111,2023-04-04_17h10.08.946,Main,2022.1.1,59.99800805794959,
positive,neutral,1,l,j,,,,,,,,,8,15,159,8,,,,,,,,,main,2,2,1,neutral,positive,j,j,1,0.7359101999900304,435.7776640999946,436.77770900004543,436.77770900004543,None,435.7776640999946,None,435.7776640999946,None,435.7776640999946,None,437.51097226999116,None,437.51097226999116,None,437.51097226999116,None,,,,,,,,,,,,,,111,2023-04-04_17h10.08.946,Main,2022.1.1,59.99800805794959,
negative,neutral,2,j,l,,,,,,,,,8,16,160,12,,,,,,,,,main,2,2,2,neutral,negative,l,l,1,0.7446177000529133,437.51537520001875,438.52770350000355,438.5110328000155,None,437.51537520001875,None,437.51537520001875,None,437.51537520001875,None,439.26096446999,None,439.26096446999,None,439.26096446999,None,,,,,,,,,,,,,,111,2023-04-04_17h10.08.946,Main,2022.1.1,59.99800805794959,
negative,negative,1,j,l,,,,,,,,,8,17,161,0,,,,,,,,,main,1,1,1,negative,negative,l,l,1,1.1842431999975815,439.26436590001686,440.26348340004915,440.26348340004915,None,439.26436590001686,None,439.26436590001686,None,439.26436590001686,None,441.44682136999324,None,441.44682136999324,None,441.44682136999324,None,,,,,,,,,,,,,,111,2023-04-04_17h10.08.946,Main,2022.1.1,59.99800805794959,
neutral,positive,1,k,k,,,,,,,,,9,0,162,4,,,,,,,,,main,2,2,1,positive,neutral,k,k,1,0.7802001000382006,441.45008430001326,442.46342760004336,442.4467929000384,None,441.45008430001326,None,441.45008430001326,None,441.45008430001326,None,443.2286324700166,None,443.2286324700166,None,443.2286324700166,None,,,,,,,,,,,,,,111,2023-04-04_17h10.08.946,Main,2022.1.1,59.99800805794959,
positive,positive,2,l,j,,,,,,,,,9,1,163,11,,,,,,,,,main,2,2,2,positive,positive,j,j,1,0.7664327999809757,443.23472240002593,444.24669600004563,444.23008980002487,None,443.23472240002593,None,443.23472240002593,None,443.23472240002593,None,444.99664507003615,None,444.99664507003615,None,444.99664507003615,None,,,,,,,,,,,,,,111,2023-04-04_17h10.08.946,Main,2022.1.1,59.99800805794959,
negative,neutral,2,j,l,,,,,,,,,9,2,164,12,,,,,,,,,main,1,1,2,neutral,negative,l,l,1,1.1625732999527827,444.9996207000222,446.01332200004254,445.99671770003624,None,444.9996207000222,None,444.9996207000222,None,444.9996207000222,None,447.1607064700278,None,447.1607064700278,None,447.1607064700278,None,,,,,,,,,,,,,,111,2023-04-04_17h10.08.946,Main,2022.1.1,59.99800805794959,
neutral,neutral,2,k,k,,,,,,,,,9,3,165,10,,,,,,,,,main,1,1,2,neutral,neutral,k,k,1,0.8316188000026159,447.16812230000505,448.1774143000366,448.160751300049,None,447.16812230000505,None,447.16812230000505,None,447.16812230000505,None,448.99407027004634,None,448.99407027004634,None,448.99407027004634,None,,,,,,,,,,,,,,111,2023-04-04_17h10.08.946,Main,2022.1.1,59.99800805794959,
positive,negative,1,l,j,,,,,,,,,9,4,166,5,,,,,,,,,main,1,1,1,negative,positive,j,j,1,0.8485507000004873,448.99429910001345,449.99412290001055,449.99412290001055,None,448.99429910001345,None,448.99429910001345,None,448.99429910001345,None,450.8440546700207,None,450.8440546700207,None,450.8440546700207,None,,,,,,,,,,,,,,111,2023-04-04_17h10.08.946,Main,2022.1.1,59.99800805794959,
neutral,neutral,1,k,k,,,,,,,,,9,5,167,1,,,,,,,,,main,2,2,1,neutral,neutral,k,k,1,0.7331312000169419,450.84753220004495,451.8466490000137,451.8466490000137,None,450.84753220004495,None,450.84753220004495,None,450.84753220004495,None,452.5786782699928,None,452.5786782699928,None,452.5786782699928,None,,,,,,,,,,,,,,111,2023-04-04_17h10.08.946,Main,2022.1.1,59.99800805794959,
positive,neutral,1,l,j,,,,,,,,,9,6,168,8,,,,,,,,,main,2,2,1,neutral,positive,j,j,1,0.682769900013227,452.584459100035,453.5964879000094,453.579968200007,None,452.584459100035,None,452.584459100035,None,452.584459100035,None,454.26308817003735,None,454.26308817003735,None,454.26308817003735,None,,,,,,,,,,,,,,111,2023-04-04_17h10.08.946,Main,2022.1.1,59.99800805794959,
positive,neutral,2,l,j,,,,,,,,,9,7,169,17,,,,,,,,,main,1,1,2,neutral,positive,j,j,1,0.7987633000011556,454.2669557000045,455.2797991000116,455.26317210000707,None,454.2669557000045,None,454.2669557000045,None,454.2669557000045,None,456.0631680699938,None,456.0631680699938,None,456.0631680699938,None,,,,,,,,,,,,,,111,2023-04-04_17h10.08.946,Main,2022.1.1,59.99800805794959,
positive,negative,2,l,j,,,,,,,,,9,8,170,14,,,,,,,,,main,1,1,2,negative,positive,j,j,1,0.7628456000238657,456.06600950000575,457.0797330000205,457.06318940001074,None,456.06600950000575,None,456.06600950000575,None,456.06600950000575,None,457.82757677004554,None,457.82757677004554,None,457.82757677004554,None,,,,,,,,,,,,,,111,2023-04-04_17h10.08.946,Main,2022.1.1,59.99800805794959,
neutral,positive,2,k,k,,,,,,,,,9,9,171,13,,,,,,,,,main,1,1,2,positive,neutral,k,k,1,0.7649043999845162,457.83067130000563,458.8438337999978,458.8271692999988,None,457.83067130000563,None,457.83067130000563,None,457.83067130000563,None,459.5937405700155,None,459.5937405700155,None,459.5937405700155,None,,,,,,,,,,,,,,111,2023-04-04_17h10.08.946,Main,2022.1.1,59.99800805794959,
negative,negative,2,j,l,,,,,,,,,9,10,172,9,,,,,,,,,main,1,1,2,negative,negative,l,l,1,0.951101699960418,459.5938116000034,460.5938819000148,460.5938819000148,None,459.5938116000034,None,459.5938116000034,None,459.5938116000034,None,461.54635647003886,None,461.54635647003886,None,461.54635647003886,None,,,,,,,,,,,,,,111,2023-04-04_17h10.08.946,Main,2022.1.1,59.99800805794959,
neutral,negative,1,k,k,,,,,,,,,9,11,173,7,,,,,,,,,main,2,2,1,negative,neutral,k,k,1,0.848256399971433,461.5497772000381,462.5628738999949,462.5463661000249,None,461.5497772000381,None,461.5497772000381,None,461.5497772000381,None,463.3962013699987,None,463.3962013699987,None,463.3962013699987,None,,,,,,,,,,,,,,111,2023-04-04_17h10.08.946,Main,2022.1.1,59.99800805794959,
negative,negative,1,j,l,,,,,,,,,9,12,174,0,,,,,,,,,main,2,2,1,negative,negative,l,l,1,0.8817110999953002,463.39911500003655,464.41291780001484,464.3962996000191,None,463.39911500003655,None,463.39911500003655,None,463.39911500003655,None,465.2795127700141,None,465.2795127700141,None,465.2795127700141,None,,,,,,,,,,,,,,111,2023-04-04_17h10.08.946,Main,2022.1.1,59.99800805794959,
neutral,negative,2,k,k,,,,,,,,,9,13,175,16,,,,,,,,,main,2,2,2,negative,neutral,k,k,1,0.7628276000032201,465.28281770000467,466.29630310001085,466.27961710002273,None,465.28281770000467,None,465.28281770000467,None,465.28281770000467,None,467.04398806999086,None,467.04398806999086,None,467.04398806999086,None,,,,,,,,,,,,,,111,2023-04-04_17h10.08.946,Main,2022.1.1,59.99800805794959,
negative,neutral,1,j,l,,,,,,,,,9,14,176,3,,,,,,,,,main,2,2,1,neutral,negative,l,l,1,0.9815046000294387,467.04773720004596,468.0628332000342,468.04622650000965,None,467.04773720004596,None,467.04773720004596,None,467.04773720004596,None,469.0268946700438,None,469.0268946700438,None,469.0268946700438,None,,,,,,,,,,,,,,111,2023-04-04_17h10.08.946,Main,2022.1.1,59.99800805794959,
positive,positive,1,l,j,,,,,,,,,9,15,177,2,,,,,,,,,main,2,2,1,positive,positive,j,k,0,0.8150838000001386,469.0269637000165,470.0269906000467,470.0269906000467,None,469.0269637000165,None,469.0269637000165,None,469.0269637000165,None,470.8437128000078,None,470.8437128000078,None,470.8437128000078,None,,,,,,,,,,,,,,111,2023-04-04_17h10.08.946,Main,2022.1.1,59.99800805794959,
negative,positive,1,j,l,,,,,,,,,9,16,178,6,,,,,,,,,main,2,2,1,positive,negative,l,l,1,0.8844774999888614,471.8450371000217,472.8461295000161,472.82947749999585,None,471.8450371000217,None,471.8450371000217,None,471.8450371000217,None,473.7271286700328,None,473.7271286700328,None,473.7271286700328,None,,,,,,,,,,,,,,111,2023-04-04_17h10.08.946,Main,2022.1.1,59.99800805794959,
negative,positive,2,j,l,,,,,,,,,9,17,179,15,,,,,,,,,main,1,1,2,positive,negative,l,l,1,1.033735600009095,473.7336862999946,474.7460055000265,474.7294005000149,None,473.7336862999946,None,473.7336862999946,None,473.7336862999946,None,475.7626011699962,None,475.7626011699962,None,475.7626011699962,None,,,,,,,,,,,,,,111,2023-04-04_17h10.08.946,Main,2022.1.1,59.99800805794959,
negative,positive,2,j,l,,,,,,,,,10,0,180,15,,,,,,,,,main,2,2,2,positive,negative,l,l,1,0.6992707999888808,475.76575370004866,476.77932750002947,476.7627061000094,None,475.76575370004866,None,475.76575370004866,None,475.76575370004866,None,477.46331647004115,None,477.46331647004115,None,477.46331647004115,None,,,,,,,,,,,,,,111,2023-04-04_17h10.08.946,Main,2022.1.1,59.99800805794959,
neutral,neutral,1,k,k,,,,,,,,,10,1,181,1,,,,,,,,,main,1,1,1,neutral,neutral,k,k,1,0.7446157999802381,477.4672119000461,478.47676930000307,478.4454985000193,None,477.4672119000461,None,477.4672119000461,None,477.4672119000461,None,479.21003866999524,None,479.21003866999524,None,479.21003866999524,None,,,,,,,,,,,,,,111,2023-04-04_17h10.08.946,Main,2022.1.1,59.99800805794959,
neutral,negative,2,k,k,,,,,,,,,10,2,182,16,,,,,,,,,main,1,1,2,negative,neutral,k,k,1,0.8487243999843486,479.21007760002976,480.21008310001343,480.21008310001343,None,479.21007760002976,None,479.21007760002976,None,479.21007760002976,None,481.06004876999066,None,481.06004876999066,None,481.06004876999066,None,,,,,,,,,,,,,,111,2023-04-04_17h10.08.946,Main,2022.1.1,59.99800805794959,
neutral,neutral,2,k,k,,,,,,,,,10,3,183,10,,,,,,,,,main,1,1,2,neutral,neutral,k,k,1,0.7672833999968134,481.0659134000307,482.0792264000047,482.06262510002125,None,481.0659134000307,None,481.0659134000307,None,481.0659134000307,None,482.8291545700107,None,482.8291545700107,None,482.8291545700107,None,,,,,,,,,,,,,,111,2023-04-04_17h10.08.946,Main,2022.1.1,59.99800805794959,
positive,neutral,1,l,j,,,,,,,,,10,4,184,8,,,,,,,,,main,1,1,1,neutral,positive,j,j,1,0.7817880000220612,482.8322173000197,483.8458830000018,483.82923430000665,None,482.8322173000197,None,482.8322173000197,None,482.8322173000197,None,484.61252967001053,None,484.61252967001053,None,484.61252967001053,None,,,,,,,,,,,,,,111,2023-04-04_17h10.08.946,Main,2022.1.1,59.99800805794959,
positive,negative,1,l,j,,,,,,,,,10,5,185,5,,,,,,,,,main,1,1,1,negative,positive,j,j,1,0.7625645999796689,484.6164113000268,485.6291523000109,485.6125278000254,None,484.6164113000268,None,484.6164113000268,None,484.6164113000268,None,486.3765948700078,None,486.3765948700078,None,486.3765948700078,None,,,,,,,,,,,,,,111,2023-04-04_17h10.08.946,Main,2022.1.1,59.99800805794959,
positive,neutral,2,l,j,,,,,,,,,10,6,186,17,,,,,,,,,main,2,2,2,neutral,positive,j,j,1,0.6986126999836415,486.3820012000506,487.39575490000425,487.36253189999843,None,486.3820012000506,None,486.3820012000506,None,486.3820012000506,None,488.07658817002664,None,488.07658817002664,None,488.07658817002664,None,,,,,,,,,,,,,,111,2023-04-04_17h10.08.946,Main,2022.1.1,59.99800805794959,
positive,negative,2,l,j,,,,,,,,,10,7,187,14,,,,,,,,,main,2,2,2,negative,positive,j,j,1,0.7981260999804363,488.08257700002287,489.09347330004675,489.0765809000004,None,488.08257700002287,None,488.08257700002287,None,488.08257700002287,None,489.8764725700079,None,489.8764725700079,None,489.8764725700079,None,,,,,,,,,,,,,,111,2023-04-04_17h10.08.946,Main,2022.1.1,59.99800805794959,
neutral,negative,1,k,k,,,,,,,,,10,8,188,7,,,,,,,,,main,2,2,1,negative,neutral,k,k,1,0.7670707000070252,489.8780049000052,490.8932166000013,490.8765550000244,None,489.8780049000052,None,489.8780049000052,None,489.8780049000052,None,491.6456798700441,None,491.6456798700441,None,491.6456798700441,None,,,,,,,,,,,,,,111,2023-04-04_17h10.08.946,Main,2022.1.1,59.99800805794959,
negative,neutral,2,j,l,,,,,,,,,10,9,189,12,,,,,,,,,main,2,2,2,neutral,negative,l,l,1,1.3983730000327341,491.65023840003414,492.6622788000386,492.6457072000485,None,491.65023840003414,None,491.65023840003414,None,491.65023840003414,None,494.0455325699935,None,494.0455325699935,None,494.0455325699935,None,,,,,,,,,,,,,,111,2023-04-04_17h10.08.946,Main,2022.1.1,59.99800805794959,
neutral,positive,1,k,k,,,,,,,,,10,10,190,4,,,,,,,,,main,2,2,1,positive,neutral,k,k,1,0.7816866999492049,494.04855010000756,495.0622720000101,495.04565159999765,None,494.04855010000756,None,494.04855010000756,None,494.04855010000756,None,495.82896247000315,None,495.82896247000315,None,495.82896247000315,None,,,,,,,,,,,,,,111,2023-04-04_17h10.08.946,Main,2022.1.1,59.99800805794959,
positive,positive,1,l,j,,,,,,,,,10,11,191,2,,,,,,,,,main,2,2,1,positive,positive,j,j,1,0.8144467999809422,495.83302020002156,496.8455098000122,496.828941600048,None,495.83302020002156,None,495.83302020002156,None,495.83302020002156,None,497.64555036998934,None,497.64555036998934,None,497.64555036998934,None,,,,,,,,,,,,,,111,2023-04-04_17h10.08.946,Main,2022.1.1,59.99800805794959,
negative,negative,2,j,l,,,,,,,,,10,12,192,9,,,,,,,,,main,2,2,2,negative,negative,l,l,1,0.762532300024759,497.6484730000375,498.6596393000218,498.64299429999664,None,497.6484730000375,None,497.6484730000375,None,497.6484730000375,None,499.409591870039,None,499.409591870039,None,499.409591870039,None,,,,,,,,,,,,,,111,2023-04-04_17h10.08.946,Main,2022.1.1,59.99800805794959,
neutral,positive,2,k,k,,,,,,,,,10,13,193,13,,,,,,,,,main,2,2,2,positive,neutral,k,k,1,0.7487511999788694,499.409595300036,500.40969689999474,500.40969689999474,None,499.409595300036,None,499.409595300036,None,499.409595300036,None,501.1596339700103,None,501.1596339700103,None,501.1596339700103,None,,,,,,,,,,,,,,111,2023-04-04_17h10.08.946,Main,2022.1.1,59.99800805794959,
negative,neutral,1,j,l,,,,,,,,,10,14,194,3,,,,,,,,,main,1,1,1,neutral,negative,l,l,1,0.8173530999920331,501.16013259999454,502.1596897999989,502.1596897999989,None,501.16013259999454,None,501.16013259999454,None,501.16013259999454,None,502.9788443700003,None,502.9788443700003,None,502.9788443700003,None,,,,,,,,,,,,,,111,2023-04-04_17h10.08.946,Main,2022.1.1,59.99800805794959,
negative,positive,1,j,l,,,,,,,,,10,15,195,6,,,,,,,,,main,1,1,1,positive,negative,l,l,1,0.6819710999843664,502.98222720000194,503.99542920000385,503.9788502000156,None,502.98222720000194,None,502.98222720000194,None,502.98222720000194,None,504.66200537002294,None,504.66200537002294,None,504.66200537002294,None,,,,,,,,,,,,,,111,2023-04-04_17h10.08.946,Main,2022.1.1,59.99800805794959,
negative,negative,1,j,l,,,,,,,,,10,16,196,0,,,,,,,,,main,1,1,1,negative,negative,l,l,1,0.5984464000212029,504.6650819000206,505.67874040000606,505.6621166000259,None,504.6650819000206,None,504.6650819000206,None,504.6650819000206,None,506.26196967001886,None,506.26196967001886,None,506.26196967001886,None,,,,,,,,,,,,,,111,2023-04-04_17h10.08.946,Main,2022.1.1,59.99800805794959,
positive,positive,2,l,j,,,,,,,,,10,17,197,11,,,,,,,,,main,2,2,2,positive,positive,j,j,1,1.0292450999841094,506.26549110002816,507.2786829000106,507.26206430001184,None,506.26549110002816,None,506.26549110002816,None,506.26549110002816,None,508.292939870042,None,508.292939870042,None,508.292939870042,None,,,,,,,,,,,,,,111,2023-04-04_17h10.08.946,Main,2022.1.1,59.99800805794959,
neutral,positive,1,k,k,,,,,,,,,11,0,198,4,,,,,,,,,main,2,2,1,positive,neutral,k,k,1,0.7508873000042513,508.2992175000254,509.31194980000146,509.2953625000082,None,508.2992175000254,None,508.2992175000254,None,508.2992175000254,None,510.0452050700027,None,510.0452050700027,None,510.0452050700027,None,,,,,,,,,,,,,,111,2023-04-04_17h10.08.946,Main,2022.1.1,59.99800805794959,
negative,neutral,2,j,l,,,,,,,,,11,1,199,12,,,,,,,,,main,1,1,2,neutral,negative,l,l,1,0.7456496999948286,510.04880910000065,511.0594364000135,511.04277360002743,None,510.04880910000065,None,510.04880910000065,None,510.04880910000065,None,511.7926824700029,None,511.7926824700029,None,511.7926824700029,None,,,,,,,,,,,,,,111,2023-04-04_17h10.08.946,Main,2022.1.1,59.99800805794959,
positive,neutral,1,l,j,,,,,,,,,11,2,200,8,,,,,,,,,main,1,1,1,neutral,positive,j,j,1,0.89853890001541,511.792728600034,512.7927378000459,512.7927378000459,None,511.792728600034,None,511.792728600034,None,511.792728600034,None,513.6926512700214,None,513.6926512700214,None,513.6926512700214,None,,,,,,,,,,,,,,111,2023-04-04_17h10.08.946,Main,2022.1.1,59.99800805794959,
positive,negative,2,l,j,,,,,,,,,11,3,201,14,,,,,,,,,main,1,1,2,negative,positive,j,j,1,0.8012512999703176,513.6929805999971,514.6927306000143,514.6927306000143,None,513.6929805999971,None,513.6929805999971,None,513.6929805999971,None,515.495141769998,None,515.495141769998,None,515.495141769998,None,,,,,,,,,,,,,,111,2023-04-04_17h10.08.946,Main,2022.1.1,59.99800805794959,
neutral,neutral,1,k,k,,,,,,,,,11,4,202,1,,,,,,,,,main,1,1,1,neutral,neutral,k,k,1,0.7324785999953747,515.4983461000375,516.5118251999957,516.4952225000015,None,515.4983461000375,None,515.4983461000375,None,515.4983461000375,None,517.2292285700154,None,517.2292285700154,None,517.2292285700154,None,,,,,,,,,,,,,,111,2023-04-04_17h10.08.946,Main,2022.1.1,59.99800805794959,
negative,negative,1,j,l,,,,,,,,,11,5,203,0,,,,,,,,,main,2,2,1,negative,negative,l,l,1,0.7828095000004396,517.2333493000478,518.2450604000478,518.22847490001,None,517.2333493000478,None,517.2333493000478,None,517.2333493000478,None,519.0097123700019,None,519.0097123700019,None,519.0097123700019,None,,,,,,,,,,,,,,111,2023-04-04_17h10.08.946,Main,2022.1.1,59.99800805794959,
negative,positive,1,j,l,,,,,,,,,11,6,204,6,,,,,,,,,main,1,1,1,positive,negative,l,l,1,0.860711999994237,519.0168154000421,520.0284340000362,520.0120077000465,None,519.0168154000421,None,519.0168154000421,None,519.0168154000421,None,520.8758920700114,None,520.8758920700114,None,520.8758920700114,None,,,,,,,,,,,,,,111,2023-04-04_17h10.08.946,Main,2022.1.1,59.99800805794959,
positive,positive,1,l,j,,,,,,,,,11,7,205,2,,,,,,,,,main,2,2,1,positive,positive,j,j,1,0.8652563999639824,520.8819406999974,521.8921245000092,521.8717713000369,None,520.8819406999974,None,520.8819406999974,None,520.8819406999974,None,522.7424147700134,None,522.7424147700134,None,522.7424147700134,None,,,,,,,,,,,,,,111,2023-04-04_17h10.08.946,Main,2022.1.1,59.99800805794959,
neutral,neutral,2,k,k,,,,,,,,,11,8,206,10,,,,,,,,,main,1,1,2,neutral,neutral,k,k,1,0.8152088000206277,522.7424395999988,523.7425023000105,523.7425023000105,None,522.7424395999988,None,522.7424395999988,None,522.7424395999988,None,524.5594572700269,None,524.5594572700269,None,524.5594572700269,None,,,,,,,,,,,,,,111,2023-04-04_17h10.08.946,Main,2022.1.1,59.99800805794959,
neutral,positive,2,k,k,,,,,,,,,11,9,207,13,,,,,,,,,main,2,2,2,positive,neutral,k,k,1,0.7832398999598809,524.565903300012,525.5782607000438,525.5616728000459,None,524.565903300012,None,524.565903300012,None,524.565903300012,None,526.3448806700238,None,526.3448806700238,None,526.3448806700238,None,,,,,,,,,,,,,,111,2023-04-04_17h10.08.946,Main,2022.1.1,59.99800805794959,
negative,neutral,1,j,l,,,,,,,,,11,10,208,3,,,,,,,,,main,2,2,1,neutral,negative,l,l,1,0.7651950999861583,526.3480061000446,527.3615604000515,527.3449564000475,None,526.3480061000446,None,526.3480061000446,None,526.3480061000446,None,528.111564969999,None,528.111564969999,None,528.111564969999,None,,,,,,,,,,,,,,111,2023-04-04_17h10.08.946,Main,2022.1.1,59.99800805794959,
neutral,negative,2,k,k,,,,,,,,,11,11,209,16,,,,,,,,,main,2,2,2,negative,neutral,k,k,1,0.7480603000149131,528.1148087000474,529.1282188000041,529.111587100022,None,528.1148087000474,None,528.1148087000474,None,528.1148087000474,None,529.8614046700008,None,529.8614046700008,None,529.8614046700008,None,,,,,,,,,,,,,,111,2023-04-04_17h10.08.946,Main,2022.1.1,59.99800805794959,
negative,negative,2,j,l,,,,,,,,,11,12,210,9,,,,,,,,,main,1,1,2,negative,negative,l,l,1,0.8313764000195079,529.8647181999986,530.8780739000067,530.861562200007,None,529.8647181999986,None,529.8647181999986,None,529.8647181999986,None,531.6948421699984,None,531.6948421699984,None,531.6948421699984,None,,,,,,,,,,,,,,111,2023-04-04_17h10.08.946,Main,2022.1.1,59.99800805794959,
positive,neutral,2,l,j,,,,,,,,,11,13,211,17,,,,,,,,,main,1,1,2,neutral,positive,j,j,1,0.8624809000175446,531.6975778000196,532.7089164000354,532.6922556000063,None,531.6975778000196,None,531.6975778000196,None,531.6975778000196,None,533.5588295700203,None,533.5588295700203,None,533.5588295700203,None,,,,,,,,,,,,,,111,2023-04-04_17h10.08.946,Main,2022.1.1,59.99800805794959,
positive,positive,2,l,j,,,,,,,,,11,14,212,11,,,,,,,,,main,2,2,2,positive,positive,j,j,1,0.8179076000233181,533.5588901000447,534.5589920000057,534.5589920000057,None,533.5588901000447,None,533.5588901000447,None,533.5588901000447,None,535.3781816700415,None,535.3781816700415,None,535.3781816700415,None,,,,,,,,,,,,,,111,2023-04-04_17h10.08.946,Main,2022.1.1,59.99800805794959,
negative,positive,2,j,l,,,,,,,,,11,15,213,15,,,,,,,,,main,1,1,2,positive,negative,l,l,1,0.7150899000116624,535.3810311999987,536.3946798000252,536.3780849000323,None,535.3810311999987,None,535.3810311999987,None,535.3810311999987,None,537.0946289700281,None,537.0946289700281,None,537.0946289700281,None,,,,,,,,,,,,,,111,2023-04-04_17h10.08.946,Main,2022.1.1,59.99800805794959,
neutral,negative,1,k,k,,,,,,,,,11,16,214,7,,,,,,,,,main,1,1,1,negative,neutral,k,k,1,0.6794043999980204,537.0975824000197,538.1113363000331,538.0947019000305,None,537.0975824000197,None,537.0975824000197,None,537.0975824000197,None,538.7755004700215,None,538.7755004700215,None,538.7755004700215,None,,,,,,,,,,,,,,111,2023-04-04_17h10.08.946,Main,2022.1.1,59.99800805794959,
positive,negative,1,l,j,,,,,,,,,11,17,215,5,,,,,,,,,main,2,2,1,negative,positive,j,j,1,0.7881718999706209,538.7822919000173,539.7923068000237,539.7779857999994,None,538.7822919000173,None,538.7822919000173,None,538.7822919000173,None,540.5612475700385,None,540.5612475700385,None,540.5612475700385,None,,,,,,,,,,,,,,111,2023-04-04_17h10.08.946,Main,2022.1.1,59.99800805794959,
neutral,neutral,1,k,k,,,,,,,,,12,0,216,1,,,,,,,,,main,2,2,1,neutral,neutral,k,k,1,0.7417973999981768,540.5683491000091,541.5779059000197,541.5613489000243,None,540.5683491000091,None,540.5683491000091,None,540.5683491000091,None,542.3086637700384,None,542.3086637700384,None,542.3086637700384,None,,,,,,,,,,,,,,111,2023-04-04_17h10.08.946,Main,2022.1.1,59.99800805794959,
positive,neutral,1,l,j,,,,,,,,,12,1,217,8,,,,,,,,,main,2,2,1,neutral,positive,j,k,0,0.6986796000273898,542.3087263000198,543.308741100016,543.308741100016,None,542.3087263000198,None,542.3087263000198,None,542.3087263000198,None,544.0087649000343,None,544.0087649000343,None,544.0087649000343,None,,,,,,,,,,,,,,111,2023-04-04_17h10.08.946,Main,2022.1.1,59.99800805794959,
positive,negative,1,l,j,,,,,,,,,12,2,218,5,,,,,,,,,main,1,1,1,negative,positive,j,j,1,0.9509748999844305,545.0094061000273,546.0111738000414,545.9945633000461,None,545.0094061000273,None,545.0094061000273,None,545.0094061000273,None,546.9586535700422,None,546.9586535700422,None,546.9586535700422,None,,,,,,,,,,,,,,111,2023-04-04_17h10.08.946,Main,2022.1.1,59.99800805794959,
neutral,positive,2,k,k,,,,,,,,,12,3,219,13,,,,,,,,,main,2,2,2,positive,neutral,k,k,1,0.7680015999940224,546.9623488000361,547.9777826000354,547.9611855000257,None,546.9623488000361,None,546.9623488000361,None,546.9623488000361,None,548.7258512700267,None,548.7258512700267,None,548.7258512700267,None,,,,,,,,,,,,,,111,2023-04-04_17h10.08.946,Main,2022.1.1,59.99800805794959,
negative,neutral,2,j,l,,,,,,,,,12,4,220,12,,,,,,,,,main,2,2,2,neutral,negative,l,l,1,0.9145485999761149,548.7323732000077,549.7444182000472,549.7278170000063,None,548.7323732000077,None,548.7323732000077,None,548.7323732000077,None,550.6443525700073,None,550.6443525700073,None,550.6443525700073,None,,,,,,,,,,,,,,111,2023-04-04_17h10.08.946,Main,2022.1.1,59.99800805794959,
negative,neutral,1,j,l,,,,,,,,,12,5,221,3,,,,,,,,,main,1,1,1,neutral,negative,l,l,1,0.845592099998612,550.6480181000079,551.6610974000068,551.6444325000048,None,550.6480181000079,None,550.6480181000079,None,550.6480181000079,None,552.491780370014,None,552.491780370014,None,552.491780370014,None,,,,,,,,,,,,,,111,2023-04-04_17h10.08.946,Main,2022.1.1,59.99800805794959,
negative,negative,1,j,l,,,,,,,,,12,6,222,0,,,,,,,,,main,2,2,1,negative,negative,l,l,1,0.7319331999751739,552.492223600042,553.4918573000468,553.4918573000468,None,552.492223600042,None,552.492223600042,None,552.492223600042,None,554.2251505700464,None,554.2251505700464,None,554.2251505700464,None,,,,,,,,,,,,,,111,2023-04-04_17h10.08.946,Main,2022.1.1,59.99800805794959,
positive,neutral,2,l,j,,,,,,,,,12,7,223,17,,,,,,,,,main,1,1,2,neutral,positive,j,j,1,0.8174078000010923,554.2294962000451,555.2443103000405,555.2276997000445,None,554.2294962000451,None,554.2294962000451,None,554.2294962000451,None,556.0442296700261,None,556.0442296700261,None,556.0442296700261,None,,,,,,,,,,,,,,111,2023-04-04_17h10.08.946,Main,2022.1.1,59.99800805794959,
