target,distractor,set,ans1,ans2,rep_loop2.thisRepN,rep_loop2.thisTrialN,rep_loop2.thisN,rep_loop2.thisIndex,flanker_prac_loop.thisRepN,flanker_prac_loop.thisTrialN,flanker_prac_loop.thisN,flanker_prac_loop.thisIndex,flanker_main_loop.thisRepN,flanker_main_loop.thisTrialN,flanker_main_loop.thisN,flanker_main_loop.thisIndex,fl_inst_resp.keys,fl_inst_resp.rt,sound_1.started,sound_1.stopped,image_4.started,image_4.stopped,back_2.started,back_2.stopped,main_prac,fl_cold,fl_colt,fl_set,fl_dcond,fl_tcond,fl_ans,fl_res,fl_corr,fl_rt,fix_fl.started,fix_fl.stopped,targ.started,targ.stopped,j_button.started,j_button.stopped,k_button.started,k_button.stopped,l_button.started,l_button.stopped,j_button2.started,j_button2.stopped,k_button2.started,k_button2.stopped,l_button2.started,l_button2.stopped,mainback.started,mainback.stopped,key_resp.keys,key_resp.rt,mouse_6.x,mouse_6.y,mouse_6.leftButton,mouse_6.midButton,mouse_6.rightButton,mouse_6.started,mouse_6.stopped,text_2.started,text_2.stopped,id*,date,expName,psychopyVersion,frameRate,
,,,,,0,0,0,0,,,,,,,,,space,54.34328779997304,36.36892037992366,None,90.732116799918,None,,,,,,,,,,,,,,,,,,,,,,,,,,,,,,,,,,,,,,,,,,112,2023-04-06_13h43.27.248,Main,2022.1.1,60.10030740722717,
neutral,negative,2,k,k,,,,,0,0,0,16,,,,,,,,,,,94.26789909997024,None,prac,1,1,2,negative,neutral,k,k,1,3.269408200052567,96.28470979991835,97.28458199999295,97.26789279992227,None,96.28470979991835,None,96.28470979991835,None,96.28470979991835,None,100.55165369994938,None,100.55165369994938,None,100.55165369994938,None,,,,,,,,,,,,,,112,2023-04-06_13h43.27.248,Main,2022.1.1,60.10030740722717,
negative,neutral,1,j,l,,,,,0,1,1,3,,,,,,,,,,,,,prac,2,2,1,neutral,negative,j,j,1,1.5088970999931917,101.5652253999142,102.56521969998721,102.54855810001027,None,101.5652253999142,None,101.5652253999142,None,101.5652253999142,None,104.06429160002153,None,104.06429160002153,None,104.06429160002153,None,,,,,,,,,,,,,,112,2023-04-06_13h43.27.248,Main,2022.1.1,60.10030740722717,
positive,neutral,2,l,j,,,,,0,2,2,17,,,,,,,,,,,,,prac,2,2,2,neutral,positive,l,l,1,1.1243858999805525,105.06673850002699,106.06767859996762,106.05104429996572,None,105.06673850002699,None,105.06673850002699,None,105.06673850002699,None,107.18443617995362,None,107.18443617995362,None,107.18443617995362,None,,,,,,,,,,,,,,112,2023-04-06_13h43.27.248,Main,2022.1.1,60.10030740722717,
negative,negative,1,j,l,,,,,0,3,3,0,,,,,,,,,,,,,prac,2,2,1,negative,negative,j,j,1,1.061199099989608,107.19293869996909,108.20093069993891,108.18213279999327,None,107.19293869996909,None,107.19293869996909,None,107.19293869996909,None,109.25094928001053,None,109.25094928001053,None,109.25094928001053,None,,,,,,,,,,,,,,112,2023-04-06_13h43.27.248,Main,2022.1.1,60.10030740722717,
neutral,neutral,1,k,k,,,,,0,4,4,1,,,,,,,,,,,,,prac,1,1,1,neutral,neutral,k,k,1,0.5981662999838591,109.25442559993826,110.26744159997907,110.25093410001136,None,109.25442559993826,None,109.25442559993826,None,109.25442559993826,None,110.85081667990889,None,110.85081667990889,None,110.85081667990889,None,,,,,,,,,,,,,,112,2023-04-06_13h43.27.248,Main,2022.1.1,60.10030740722717,
positive,positive,1,l,j,,,,,0,5,5,2,,,,,,,,,,,,,prac,2,2,1,positive,positive,l,l,1,0.7963713000062853,110.85382800002117,111.8650278999703,111.84837070002686,None,110.85382800002117,None,110.85382800002117,None,110.85382800002117,None,112.64832117992918,None,112.64832117992918,None,112.64832117992918,None,,,,,,,,,,,,,,112,2023-04-06_13h43.27.248,Main,2022.1.1,60.10030740722717,
negative,positive,2,j,l,,,,,0,6,6,15,,,,,,,,,,,,,prac,2,2,2,positive,negative,j,j,1,0.883615699945949,112.64982419996522,113.66506309993565,113.64840209996328,None,112.64982419996522,None,112.64982419996522,None,112.64982419996522,None,114.53406867992598,None,114.53406867992598,None,114.53406867992598,None,,,,,,,,,,,,,,112,2023-04-06_13h43.27.248,Main,2022.1.1,60.10030740722717,
negative,negative,2,j,l,,,,,0,7,7,9,,,,,,,,,,,,,prac,2,2,2,negative,negative,j,j,1,0.7653107999358326,114.53713770001195,115.550880099996,115.5342726999661,None,114.53713770001195,None,114.53713770001195,None,114.53713770001195,None,116.30084087993018,None,116.30084087993018,None,116.30084087993018,None,,,,,,,,,,,,,,112,2023-04-06_13h43.27.248,Main,2022.1.1,60.10030740722717,
negative,neutral,2,j,l,,,,,0,8,8,12,,,,,,,,,,,,,prac,2,2,2,neutral,negative,j,j,1,0.6799103999510407,116.30347029992845,117.3174404000165,117.300840199925,None,116.30347029992845,None,116.30347029992845,None,116.30347029992845,None,117.98195777998771,None,117.98195777998771,None,117.98195777998771,None,,,,,,,,,,,,,,112,2023-04-06_13h43.27.248,Main,2022.1.1,60.10030740722717,
neutral,neutral,2,k,k,,,,,0,9,9,10,,,,,,,,,,,,,prac,2,2,2,neutral,neutral,k,k,1,0.7324385000392795,117.98514899995644,118.98415459995158,118.98415459995158,None,117.98514899995644,None,117.98514899995644,None,117.98514899995644,None,119.71549468000885,None,119.71549468000885,None,119.71549468000885,None,,,,,,,,,,,,,,112,2023-04-06_13h43.27.248,Main,2022.1.1,60.10030740722717,
neutral,negative,1,k,k,,,,,0,10,10,7,,,,,,,,,,,,,prac,2,2,1,negative,neutral,k,k,1,0.7749138999497518,119.72159909992479,120.73396039998624,120.71745829994325,None,119.72159909992479,None,119.72159909992479,None,119.72159909992479,None,121.49174247998744,None,121.49174247998744,None,121.49174247998744,None,,,,,,,,,,,,,,112,2023-04-06_13h43.27.248,Main,2022.1.1,60.10030740722717,
positive,positive,2,l,j,,,,,0,11,11,11,,,,,,,,,,,,,prac,1,1,2,positive,positive,l,l,1,1.438698900048621,121.50241920002736,122.51484640000854,122.4815157999983,None,121.50241920002736,None,121.50241920002736,None,121.50241920002736,None,123.93148647996131,None,123.93148647996131,None,123.93148647996131,None,,,,,,,,,,,,,,112,2023-04-06_13h43.27.248,Main,2022.1.1,60.10030740722717,
positive,negative,1,l,j,,,,,0,12,12,5,,,,,,,,,,,,,prac,1,1,1,negative,positive,l,l,1,0.9319132999517024,123.93266539997421,124.94813709997106,124.93148010002915,None,123.93266539997421,None,123.93266539997421,None,123.93266539997421,None,125.86481507997959,None,125.86481507997959,None,125.86481507997959,None,,,,,,,,,,,,,,112,2023-04-06_13h43.27.248,Main,2022.1.1,60.10030740722717,
neutral,positive,2,k,k,,,,,0,13,13,13,,,,,,,,,,,,,prac,2,2,2,positive,neutral,k,k,1,0.716432899935171,125.86843709996901,126.88391600002069,126.8673491999507,None,125.86843709996901,None,125.86843709996901,None,125.86843709996901,None,127.5828095799312,None,127.5828095799312,None,127.5828095799312,None,,,,,,,,,,,,,,112,2023-04-06_13h43.27.248,Main,2022.1.1,60.10030740722717,
positive,neutral,1,l,j,,,,,0,14,14,8,,,,,,,,,,,,,prac,2,2,1,neutral,positive,l,l,1,0.6975696000736207,127.58825009991415,128.60061750002205,128.58396299998276,None,127.58825009991415,None,127.58825009991415,None,127.58825009991415,None,129.28174517992883,None,129.28174517992883,None,129.28174517992883,None,,,,,,,,,,,,,,112,2023-04-06_13h43.27.248,Main,2022.1.1,60.10030740722717,
neutral,positive,1,k,k,,,,,0,15,15,4,,,,,,,,,,,,,prac,1,1,1,positive,neutral,k,k,1,0.7146674999967217,129.30060800001957,130.3004947999725,130.2838881999487,None,129.30060800001957,None,129.30060800001957,None,129.30060800001957,None,130.99832937996834,None,130.99832937996834,None,130.99832937996834,None,,,,,,,,,,,,,,112,2023-04-06_13h43.27.248,Main,2022.1.1,60.10030740722717,
negative,positive,1,j,l,,,,,0,16,16,6,,,,,,,,,,,,,prac,2,2,1,positive,negative,j,j,1,0.8689322000136599,131.0023112000199,132.01723200001288,131.99833939992823,None,131.0023112000199,None,131.0023112000199,None,131.0023112000199,None,132.86839788001961,None,132.86839788001961,None,132.86839788001961,None,,,,,,,,,,,,,,112,2023-04-06_13h43.27.248,Main,2022.1.1,60.10030740722717,
positive,negative,2,l,j,,,,,0,17,17,14,,,,,,,,,,,,,prac,1,1,2,negative,positive,l,l,1,0.9282793999882415,132.8717705999734,133.88129289995413,133.86459989997093,None,132.8717705999734,None,132.8717705999734,None,132.8717705999734,None,134.79789477996528,None,134.79789477996528,None,134.79789477996528,None,,,,,,,,,,,,,,112,2023-04-06_13h43.27.248,Main,2022.1.1,60.10030740722717,
neutral,negative,2,k,k,,,,,1,0,18,16,,,,,,,,,,,,,prac,1,1,2,negative,neutral,k,k,1,0.732187999994494,134.79787539993413,135.79795459995512,135.79795459995512,None,134.79787539993413,None,134.79787539993413,None,134.79787539993413,None,136.53125437991693,None,136.53125437991693,None,136.53125437991693,None,,,,,,,,,,,,,,112,2023-04-06_13h43.27.248,Main,2022.1.1,60.10030740722717,
neutral,neutral,2,k,k,,,,,1,1,19,10,,,,,,,,,,,,,prac,2,2,2,neutral,neutral,k,k,1,0.5844762000488117,136.5318613999989,137.53126740001608,137.53126740001608,None,136.5318613999989,None,136.5318613999989,None,136.5318613999989,None,138.11705138001125,None,138.11705138001125,None,138.11705138001125,None,,,,,,,,,,,,,,112,2023-04-06_13h43.27.248,Main,2022.1.1,60.10030740722717,
positive,positive,1,l,j,,,,,1,2,20,2,,,,,,,,,,,,,prac,1,1,1,positive,positive,l,j,0,1.1836467999964952,138.1200961000286,139.1337099999655,139.1170972000109,None,138.1200961000286,None,138.1200961000286,None,138.1200961000286,None,140.29913920001127,None,140.29913920001127,None,140.29913920001127,None,,,,,,,,,,,,,,112,2023-04-06_13h43.27.248,Main,2022.1.1,60.10030740722717,
neutral,negative,1,k,k,,,,,1,3,21,7,,,,,,,,,,,,,prac,2,2,1,negative,neutral,k,k,1,0.9370448000263423,141.29848469991703,142.30036150000524,142.28367639996577,None,141.29848469991703,None,141.29848469991703,None,141.29848469991703,None,143.23357547996565,None,143.23357547996565,None,143.23357547996565,None,,,,,,,,,,,,,,112,2023-04-06_13h43.27.248,Main,2022.1.1,60.10030740722717,
negative,positive,2,j,l,,,,,1,4,22,15,,,,,,,,,,,,,prac,2,2,2,positive,negative,j,j,1,0.8626119999680668,143.23697760002688,144.24814989999868,144.23366819997318,None,143.23697760002688,None,143.23697760002688,None,143.23697760002688,None,145.09805907998233,None,145.09805907998233,None,145.09805907998233,None,,,,,,,,,,,,,,112,2023-04-06_13h43.27.248,Main,2022.1.1,60.10030740722717,
positive,negative,1,l,j,,,,,1,5,23,5,,,,,,,,,,,,,prac,1,1,1,negative,positive,l,l,1,0.7318071000045165,145.10440239997115,146.11434700002428,146.09767569997348,None,145.10440239997115,None,145.10440239997115,None,145.10440239997115,None,146.83096257995348,None,146.83096257995348,None,146.83096257995348,None,,,,,,,,,,,,,,112,2023-04-06_13h43.27.248,Main,2022.1.1,60.10030740722717,
positive,neutral,2,l,j,,,,,1,6,24,17,,,,,,,,,,,,,prac,1,1,2,neutral,positive,l,l,1,0.832501900033094,146.83152459992561,147.83107279997785,147.83107279997785,None,146.83152459992561,None,146.83152459992561,None,146.83152459992561,None,148.66435667991172,None,148.66435667991172,None,148.66435667991172,None,,,,,,,,,,,,,,112,2023-04-06_13h43.27.248,Main,2022.1.1,60.10030740722717,
negative,positive,1,j,l,,,,,1,7,25,6,,,,,,,,,,,,,prac,1,1,1,positive,negative,j,j,1,0.8007734999991953,148.6652423000196,149.6643972999882,149.6643972999882,None,148.6652423000196,None,148.6652423000196,None,148.6652423000196,None,150.46679787992034,None,150.46679787992034,None,150.46679787992034,None,,,,,,,,,,,,,,112,2023-04-06_13h43.27.248,Main,2022.1.1,60.10030740722717,
negative,neutral,2,j,l,,,,,1,8,26,12,,,,,,,,,,,,,prac,2,2,2,neutral,negative,j,j,1,0.8130181001033634,150.46972419996746,151.483533599996,151.46687130001374,None,150.46972419996746,None,150.46972419996746,None,150.46972419996746,None,152.2812679800205,None,152.2812679800205,None,152.2812679800205,None,,,,,,,,,,,,,,112,2023-04-06_13h43.27.248,Main,2022.1.1,60.10030740722717,
negative,negative,1,j,l,,,,,1,9,27,0,,,,,,,,,,,,,prac,1,1,1,negative,negative,j,j,1,0.8157311000395566,152.28517559997272,153.3000456999289,153.28342079999857,None,152.28517559997272,None,152.28517559997272,None,152.28517559997272,None,154.0979639799567,None,154.0979639799567,None,154.0979639799567,None,,,,,,,,,,,,,,112,2023-04-06_13h43.27.248,Main,2022.1.1,60.10030740722717,
neutral,positive,1,k,k,,,,,1,10,28,4,,,,,,,,,,,,,prac,2,2,1,positive,neutral,k,k,1,0.7173897000029683,154.1014198999619,155.1166782999644,155.10009439999703,None,154.1014198999619,None,154.1014198999619,None,154.1014198999619,None,155.81660177991725,None,155.81660177991725,None,155.81660177991725,None,,,,,,,,,,,,,,112,2023-04-06_13h43.27.248,Main,2022.1.1,60.10030740722717,
neutral,neutral,1,k,k,,,,,1,11,29,1,,,,,,,,,,,,,prac,1,1,1,neutral,neutral,k,k,1,0.6153011000715196,155.8194785999367,156.83336789999157,156.8167182999896,None,155.8194785999367,None,155.8194785999367,None,155.8194785999367,None,157.43328717993572,None,157.43328717993572,None,157.43328717993572,None,,,,,,,,,,,,,,112,2023-04-06_13h43.27.248,Main,2022.1.1,60.10030740722717,
negative,negative,2,j,l,,,,,1,12,30,9,,,,,,,,,,,,,prac,1,1,2,negative,negative,j,j,1,0.6963029999751598,157.43562130001374,158.4474487999687,158.43076929997187,None,157.43562130001374,None,157.43562130001374,None,157.43562130001374,None,159.13073867992497,None,159.13073867992497,None,159.13073867992497,None,,,,,,,,,,,,,,112,2023-04-06_13h43.27.248,Main,2022.1.1,60.10030740722717,
negative,neutral,1,j,l,,,,,1,13,31,3,,,,,,,,,,,,,prac,2,2,1,neutral,negative,j,j,1,0.7322366000153124,159.13076199998613,160.1308573000133,160.1308573000133,None,159.13076199998613,None,159.13076199998613,None,159.13076199998613,None,160.8641208799323,None,160.8641208799323,None,160.8641208799323,None,,,,,,,,,,,,,,112,2023-04-06_13h43.27.248,Main,2022.1.1,60.10030740722717,
positive,negative,2,l,j,,,,,1,14,32,14,,,,,,,,,,,,,prac,2,2,2,negative,positive,l,l,1,0.7821167000802234,160.86415479995776,161.86414610000793,161.86414610000793,None,160.86415479995776,None,160.86415479995776,None,160.86415479995776,None,162.64749987996183,None,162.64749987996183,None,162.64749987996183,None,,,,,,,,,,,,,,112,2023-04-06_13h43.27.248,Main,2022.1.1,60.10030740722717,
positive,neutral,1,l,j,,,,,1,15,33,8,,,,,,,,,,,,,prac,2,2,1,neutral,positive,l,l,1,0.5846338999690488,162.65314950002357,163.6666490000207,163.6333649000153,None,162.65314950002357,None,162.65314950002357,None,162.65314950002357,None,164.23318197999615,None,164.23318197999615,None,164.23318197999615,None,,,,,,,,,,,,,,112,2023-04-06_13h43.27.248,Main,2022.1.1,60.10030740722717,
neutral,positive,2,k,k,,,,,1,16,34,13,,,,,,,,,,,,,prac,2,2,2,positive,neutral,k,k,1,0.6486661999952048,164.23620849999133,165.24999449995812,165.23328309995122,None,164.23620849999133,None,164.23620849999133,None,164.23620849999133,None,165.88310438001062,None,165.88310438001062,None,165.88310438001062,None,,,,,,,,,,,,,,112,2023-04-06_13h43.27.248,Main,2022.1.1,60.10030740722717,
positive,positive,2,l,j,,,,,1,17,35,11,,,,,,,,,,,,,prac,2,2,2,positive,positive,l,l,1,0.6321814000839368,165.88694519991986,166.89981059997808,166.88328990002628,None,165.88694519991986,None,165.88694519991986,None,165.88694519991986,None,167.51643057996407,None,167.51643057996407,None,167.51643057996407,None,,,,,,,,,,,,,,112,2023-04-06_13h43.27.248,Main,2022.1.1,60.10030740722717,
,,,,,,,,,,,,,,,,,,,,,,,,,,,,,,,,,,,,,,,,,,,,,,,,,,,167.51647089992184,None,space,11.806268999935128,,,,,,,,,,112,2023-04-06_13h43.27.248,Main,2022.1.1,60.10030740722717,
,,,,,,,,,,,,,,,,,,,,,,,,,,,,,,,,,,,,,,,,,,,,,,,,,,,,,,,0.6805556,-0.27314815,0,0,0,0.010912779835052788,None,,,112,2023-04-06_13h43.27.248,Main,2022.1.1,60.10030740722717,
negative,positive,1,j,l,,,,,,,,,0,0,0,6,,,,,,,179.34707709995564,None,main,1,1,1,positive,negative,j,j,1,0.9132653999840841,181.34974690002855,182.3637303999858,182.34705769992433,None,181.34974690002855,None,181.34974690002855,None,181.34974690002855,None,183.2637231799541,None,183.2637231799541,None,183.2637231799541,None,,,,,,,,,,,,,,112,2023-04-06_13h43.27.248,Main,2022.1.1,60.10030740722717,
neutral,neutral,1,k,k,,,,,,,,,0,1,1,1,,,,,,,,,main,2,2,1,neutral,neutral,k,k,1,0.699930900009349,183.2687524999492,184.28287200001068,184.2662703000242,None,183.2687524999492,None,183.2687524999492,None,183.2687524999492,None,184.96622838000766,None,184.96622838000766,None,184.96622838000766,None,,,,,,,,,,,,,,112,2023-04-06_13h43.27.248,Main,2022.1.1,60.10030740722717,
positive,neutral,1,l,j,,,,,,,,,0,2,2,8,,,,,,,,,main,2,2,1,neutral,positive,l,l,1,0.6826235000044107,184.9694751999341,185.98286059999373,185.96622449997813,None,184.9694751999341,None,184.9694751999341,None,184.9694751999341,None,186.64939437995199,None,186.64939437995199,None,186.64939437995199,None,,,,,,,,,,,,,,112,2023-04-06_13h43.27.248,Main,2022.1.1,60.10030740722717,
positive,positive,1,l,j,,,,,,,,,0,3,3,2,,,,,,,,,main,2,2,1,positive,positive,l,l,1,0.6973090000683442,186.65382379991934,187.66609590000007,187.64948599995114,None,186.65382379991934,None,186.65382379991934,None,186.65382379991934,None,188.3493587799836,None,188.3493587799836,None,188.3493587799836,None,,,,,,,,,,,,,,112,2023-04-06_13h43.27.248,Main,2022.1.1,60.10030740722717,
negative,neutral,1,j,l,,,,,,,,,0,4,4,3,,,,,,,,,main,1,1,1,neutral,negative,j,j,1,0.7793537999968976,188.3532458000118,189.36601709993556,189.34727969998494,None,188.3532458000118,None,188.3532458000118,None,188.3532458000118,None,190.13035308001562,None,190.13035308001562,None,190.13035308001562,None,,,,,,,,,,,,,,112,2023-04-06_13h43.27.248,Main,2022.1.1,60.10030740722717,
negative,negative,1,j,l,,,,,,,,,0,5,5,0,,,,,,,,,main,1,1,1,negative,negative,j,j,1,0.5850423999363557,190.1363841999555,191.1468149999855,191.11347769992426,None,190.1363841999555,None,190.1363841999555,None,190.1363841999555,None,191.7135209799977,None,191.7135209799977,None,191.7135209799977,None,,,,,,,,,,,,,,112,2023-04-06_13h43.27.248,Main,2022.1.1,60.10030740722717,
negative,neutral,2,j,l,,,,,,,,,0,6,6,12,,,,,,,,,main,1,1,2,neutral,negative,j,j,1,0.5960064999526367,191.71684969996568,192.73017979995348,192.7135275999317,None,191.71684969996568,None,191.71684969996568,None,191.71684969996568,None,193.3135246800026,None,193.3135246800026,None,193.3135246800026,None,,,,,,,,,,,,,,112,2023-04-06_13h43.27.248,Main,2022.1.1,60.10030740722717,
positive,negative,1,l,j,,,,,,,,,0,7,7,5,,,,,,,,,main,1,1,1,negative,positive,l,l,1,1.3645868999883533,193.31509819999337,194.3301807999378,194.31351180002093,None,193.31509819999337,None,193.31509819999337,None,193.31509819999337,None,195.68016047999262,None,195.68016047999262,None,195.68016047999262,None,,,,,,,,,,,,,,112,2023-04-06_13h43.27.248,Main,2022.1.1,60.10030740722717,
positive,positive,2,l,j,,,,,,,,,0,8,8,11,,,,,,,,,main,2,2,2,positive,positive,l,l,1,0.6486446999479085,195.69722410000395,196.6992321999278,196.6826856000116,None,195.69722410000395,None,195.69722410000395,None,195.69722410000395,None,197.33047647997736,None,197.33047647997736,None,197.33047647997736,None,,,,,,,,,,,,,,112,2023-04-06_13h43.27.248,Main,2022.1.1,60.10030740722717,
positive,negative,2,l,j,,,,,,,,,0,9,9,14,,,,,,,,,main,2,2,2,negative,positive,l,l,1,0.6003686999902129,197.33418210002128,198.3492455999367,198.33266700000968,None,197.33418210002128,None,197.33418210002128,None,197.33418210002128,None,198.9324670799775,None,198.9324670799775,None,198.9324670799775,None,,,,,,,,,,,,,,112,2023-04-06_13h43.27.248,Main,2022.1.1,60.10030740722717,
neutral,negative,1,k,k,,,,,,,,,0,10,10,7,,,,,,,,,main,2,2,1,negative,neutral,k,j,0,1.0647447999799624,198.93565489992034,199.9491718999343,199.93265490001068,None,198.93565489992034,None,198.93565489992034,None,198.93565489992034,None,200.99913859996013,None,200.99913859996013,None,200.99913859996013,None,,,,,,,,,,,,,,112,2023-04-06_13h43.27.248,Main,2022.1.1,60.10030740722717,
neutral,positive,2,k,k,,,,,,,,,0,11,11,13,,,,,,,,,main,2,2,2,positive,neutral,k,k,1,0.8677093000151217,201.9979948999826,203.013273700024,202.97992529999465,None,201.9979948999826,None,201.9979948999826,None,201.9979948999826,None,203.8632173799211,None,203.8632173799211,None,203.8632173799211,None,,,,,,,,,,,,,,112,2023-04-06_13h43.27.248,Main,2022.1.1,60.10030740722717,
neutral,positive,1,k,k,,,,,,,,,0,12,12,4,,,,,,,,,main,2,2,1,positive,neutral,k,k,1,0.7314804999623448,203.86368960002437,204.86331209994387,204.86331209994387,None,203.86368960002437,None,203.86368960002437,None,203.86368960002437,None,205.59673637992236,None,205.59673637992236,None,205.59673637992236,None,,,,,,,,,,,,,,112,2023-04-06_13h43.27.248,Main,2022.1.1,60.10030740722717,
neutral,neutral,2,k,k,,,,,,,,,0,13,13,10,,,,,,,,,main,1,1,2,neutral,neutral,k,k,1,0.5839447999605909,205.6028426999692,206.6157358000055,206.59911710000597,None,205.6028426999692,None,205.6028426999692,None,205.6028426999692,None,207.18238457993138,None,207.18238457993138,None,207.18238457993138,None,,,,,,,,,,,,,,112,2023-04-06_13h43.27.248,Main,2022.1.1,60.10030740722717,
negative,negative,2,j,l,,,,,,,,,0,14,14,9,,,,,,,,,main,1,1,2,negative,negative,j,j,1,1.0643031999934465,207.18658650002908,208.1990256999852,208.18247789994348,None,207.18658650002908,None,207.18658650002908,None,207.18658650002908,None,209.24891247998457,None,209.24891247998457,None,209.24891247998457,None,,,,,,,,,,,,,,112,2023-04-06_13h43.27.248,Main,2022.1.1,60.10030740722717,
negative,positive,2,j,l,,,,,,,,,0,15,15,15,,,,,,,,,main,2,2,2,positive,negative,j,j,1,0.6797826000256464,209.25219149992336,210.26563369994983,210.24905989994295,None,209.25219149992336,None,209.25219149992336,None,209.25219149992336,None,210.9302119799191,None,210.9302119799191,None,210.9302119799191,None,,,,,,,,,,,,,,112,2023-04-06_13h43.27.248,Main,2022.1.1,60.10030740722717,
neutral,negative,2,k,k,,,,,,,,,0,16,16,16,,,,,,,,,main,1,1,2,negative,neutral,k,k,1,0.6339764000149444,210.93630329996813,211.948965699994,211.93232679995708,None,210.93630329996813,None,210.93630329996813,None,210.93630329996813,None,212.56553317992947,None,212.56553317992947,None,212.56553317992947,None,,,,,,,,,,,,,,112,2023-04-06_13h43.27.248,Main,2022.1.1,60.10030740722717,
positive,neutral,2,l,j,,,,,,,,,0,17,17,17,,,,,,,,,main,1,1,2,neutral,positive,l,l,1,0.8127307000104338,212.56858520000242,213.5797930000117,213.5631290000165,None,212.56858520000242,None,212.56858520000242,None,212.56858520000242,None,214.37972807991318,None,214.37972807991318,None,214.37972807991318,None,,,,,,,,,,,,,,112,2023-04-06_13h43.27.248,Main,2022.1.1,60.10030740722717,
neutral,negative,2,k,k,,,,,,,,,1,0,18,16,,,,,,,,,main,2,2,2,negative,neutral,k,k,1,0.5839318999787793,214.37985949998256,215.379800900002,215.379800900002,None,214.37985949998256,None,214.37985949998256,None,214.37985949998256,None,215.96555307998787,None,215.96555307998787,None,215.96555307998787,None,,,,,,,,,,,,,,112,2023-04-06_13h43.27.248,Main,2022.1.1,60.10030740722717,
negative,positive,1,j,l,,,,,,,,,1,1,19,6,,,,,,,,,main,2,2,1,positive,negative,j,j,1,0.7983465000288561,215.96882029995322,216.98230059992056,216.96562269993592,None,215.96882029995322,None,215.96882029995322,None,215.96882029995322,None,217.76549867996945,None,217.76549867996945,None,217.76549867996945,None,,,,,,,,,,,,,,112,2023-04-06_13h43.27.248,Main,2022.1.1,60.10030740722717,
positive,neutral,2,l,j,,,,,,,,,1,2,20,17,,,,,,,,,main,1,1,2,neutral,positive,l,l,1,0.7652098999824375,217.76829499995802,218.83440769999288,218.76561819994822,None,217.76829499995802,None,217.76829499995802,None,217.76829499995802,None,219.53214927997905,None,219.53214927997905,None,219.53214927997905,None,,,,,,,,,,,,,,112,2023-04-06_13h43.27.248,Main,2022.1.1,60.10030740722717,
negative,neutral,1,j,l,,,,,,,,,1,3,21,3,,,,,,,,,main,2,2,1,neutral,negative,j,j,1,0.7481716999318451,219.53850989998318,220.54880049999338,220.53214999998454,None,219.53850989998318,None,219.53850989998318,None,219.53850989998318,None,221.28203238002024,None,221.28203238002024,None,221.28203238002024,None,,,,,,,,,,,,,,112,2023-04-06_13h43.27.248,Main,2022.1.1,60.10030740722717,
negative,neutral,2,j,l,,,,,,,,,1,4,22,12,,,,,,,,,main,2,2,2,neutral,negative,j,j,1,0.6628124000271782,221.28526969999075,222.30532149993815,222.2829906999832,None,221.28526969999075,None,221.28526969999075,None,221.28526969999075,None,222.94619207994546,None,222.94619207994546,None,222.94619207994546,None,,,,,,,,,,,,,,112,2023-04-06_13h43.27.248,Main,2022.1.1,60.10030740722717,
neutral,positive,2,k,k,,,,,,,,,1,5,23,13,,,,,,,,,main,2,2,2,positive,neutral,k,k,1,0.6983962999656796,222.94627710001078,223.94624359998852,223.94624359998852,None,222.94627710001078,None,222.94627710001078,None,222.94627710001078,None,224.64624997999053,None,224.64624997999053,None,224.64624997999053,None,,,,,,,,,,,,,,112,2023-04-06_13h43.27.248,Main,2022.1.1,60.10030740722717,
positive,positive,2,l,j,,,,,,,,,1,6,24,11,,,,,,,,,main,1,1,2,positive,positive,l,l,1,0.7334865999873728,224.64972510002553,225.6487812999403,225.6487812999403,None,224.64972510002553,None,224.64972510002553,None,224.64972510002553,None,226.38117207996547,None,226.38117207996547,None,226.38117207996547,None,,,,,,,,,,,,,,112,2023-04-06_13h43.27.248,Main,2022.1.1,60.10030740722717,
negative,positive,2,j,l,,,,,,,,,1,7,25,15,,,,,,,,,main,1,1,2,positive,negative,j,j,1,1.097391700022854,226.3865925000282,227.3987283000024,227.38207489997149,None,226.3865925000282,None,226.3865925000282,None,226.3865925000282,None,228.47951167998835,None,228.47951167998835,None,228.47951167998835,None,,,,,,,,,,,,,,112,2023-04-06_13h43.27.248,Main,2022.1.1,60.10030740722717,
neutral,negative,1,k,k,,,,,,,,,1,8,26,7,,,,,,,,,main,1,1,1,negative,neutral,k,k,1,0.6001795999472961,228.4837563999463,229.49862129997928,229.48197989992332,None,228.4837563999463,None,228.4837563999463,None,228.4837563999463,None,230.08188997991383,None,230.08188997991383,None,230.08188997991383,None,,,,,,,,,,,,,,112,2023-04-06_13h43.27.248,Main,2022.1.1,60.10030740722717,
positive,positive,1,l,j,,,,,,,,,1,9,27,2,,,,,,,,,main,2,2,1,positive,positive,l,l,1,0.931812800001353,230.08518549997825,231.0985547999153,231.07980840001255,None,230.08518549997825,None,230.08518549997825,None,230.08518549997825,None,232.0151813799981,None,232.0151813799981,None,232.0151813799981,None,,,,,,,,,,,,,,112,2023-04-06_13h43.27.248,Main,2022.1.1,60.10030740722717,
positive,negative,1,l,j,,,,,,,,,1,10,28,5,,,,,,,,,main,2,2,1,negative,positive,l,l,1,0.6291652000509202,232.01855509995949,233.02937869995367,233.0127098999219,None,232.01855509995949,None,232.01855509995949,None,232.01855509995949,None,233.6459928800119,None,233.6459928800119,None,233.6459928800119,None,,,,,,,,,,,,,,112,2023-04-06_13h43.27.248,Main,2022.1.1,60.10030740722717,
negative,negative,1,j,l,,,,,,,,,1,11,29,0,,,,,,,,,main,2,2,1,negative,negative,j,k,0,0.6322875999612734,233.66274639999028,234.66278150002472,234.6460989000043,None,233.66274639999028,None,233.66274639999028,None,233.66274639999028,None,235.2797656999901,None,235.2797656999901,None,235.2797656999901,None,,,,,,,,,,,,,,112,2023-04-06_13h43.27.248,Main,2022.1.1,60.10030740722717,
neutral,positive,1,k,k,,,,,,,,,1,12,30,4,,,,,,,,,main,2,2,1,positive,neutral,k,k,1,0.7185393000254408,236.28061599994544,237.28183739993256,237.26522659999318,None,236.28061599994544,None,236.28061599994544,None,236.28061599994544,None,237.99683798002079,None,237.99683798002079,None,237.99683798002079,None,,,,,,,,,,,,,,112,2023-04-06_13h43.27.248,Main,2022.1.1,60.10030740722717,
neutral,neutral,2,k,k,,,,,,,,,1,13,31,10,,,,,,,,,main,2,2,2,neutral,neutral,k,k,1,0.5982467000139877,238.00302299996838,239.01509539992549,238.9984814999625,None,238.00302299996838,None,238.00302299996838,None,238.00302299996838,None,239.59599647999275,None,239.59599647999275,None,239.59599647999275,None,,,,,,,,,,,,,,112,2023-04-06_13h43.27.248,Main,2022.1.1,60.10030740722717,
neutral,neutral,1,k,k,,,,,,,,,1,14,32,1,,,,,,,,,main,2,2,1,neutral,neutral,k,k,1,0.5826539000263438,239.60310279997066,240.6150328000076,240.59844450000674,None,239.60310279997066,None,239.60310279997066,None,239.60310279997066,None,241.18174377994146,None,241.18174377994146,None,241.18174377994146,None,,,,,,,,,,,,,,112,2023-04-06_13h43.27.248,Main,2022.1.1,60.10030740722717,
positive,negative,2,l,j,,,,,,,,,1,15,33,14,,,,,,,,,main,2,2,2,negative,positive,l,l,1,0.7160564999794587,241.1852922999533,242.19839999999385,242.18177419994026,None,241.1852922999533,None,241.1852922999533,None,241.1852922999533,None,242.8991648799507,None,242.8991648799507,None,242.8991648799507,None,,,,,,,,,,,,,,112,2023-04-06_13h43.27.248,Main,2022.1.1,60.10030740722717,
negative,negative,2,j,l,,,,,,,,,1,16,34,9,,,,,,,,,main,1,1,2,negative,negative,j,j,1,0.7950146000366658,242.91272209992167,243.9125129999593,243.89581569994334,None,242.91272209992167,None,242.91272209992167,None,242.91272209992167,None,244.6957940799417,None,244.6957940799417,None,244.6957940799417,None,,,,,,,,,,,,,,112,2023-04-06_13h43.27.248,Main,2022.1.1,60.10030740722717,
positive,neutral,1,l,j,,,,,,,,,1,17,35,8,,,,,,,,,main,1,1,1,neutral,positive,l,l,1,0.7343401999678463,244.695799899986,245.6958783000009,245.6958783000009,None,244.695799899986,None,244.695799899986,None,244.695799899986,None,246.4316546799615,None,246.4316546799615,None,246.4316546799615,None,,,,,,,,,,,,,,112,2023-04-06_13h43.27.248,Main,2022.1.1,60.10030740722717,
negative,positive,2,j,l,,,,,,,,,2,0,36,15,,,,,,,,,main,2,2,2,positive,negative,j,j,1,0.6650665000779554,246.43497269996442,247.44836329994723,247.4317761999555,None,246.43497269996442,None,246.43497269996442,None,246.43497269996442,None,248.09826007999945,None,248.09826007999945,None,248.09826007999945,None,,,,,,,,,,,,,,112,2023-04-06_13h43.27.248,Main,2022.1.1,60.10030740722717,
negative,negative,2,j,l,,,,,,,,,2,1,37,9,,,,,,,,,main,1,1,2,negative,negative,j,j,1,0.5959816999966279,248.10133289999794,249.1148984999163,249.0982874999754,None,248.10133289999794,None,248.10133289999794,None,248.10133289999794,None,249.69609428001567,None,249.69609428001567,None,249.69609428001567,None,,,,,,,,,,,,,,112,2023-04-06_13h43.27.248,Main,2022.1.1,60.10030740722717,
positive,positive,1,l,j,,,,,,,,,2,2,38,2,,,,,,,,,main,2,2,1,positive,positive,l,l,1,0.6510770000750199,249.69993959995918,250.71489639999345,250.68162369995844,None,249.69993959995918,None,249.69993959995918,None,249.69993959995918,None,251.3481706800172,None,251.3481706800172,None,251.3481706800172,None,,,,,,,,,,,,,,112,2023-04-06_13h43.27.248,Main,2022.1.1,60.10030740722717,
neutral,neutral,1,k,k,,,,,,,,,2,3,39,1,,,,,,,,,main,2,2,1,neutral,neutral,k,k,1,0.7149366999510676,251.351639600005,252.3627163999481,252.34827219997533,None,251.351639600005,None,251.351639600005,None,251.351639600005,None,253.06486707997973,None,253.06486707997973,None,253.06486707997973,None,,,,,,,,,,,,,,112,2023-04-06_13h43.27.248,Main,2022.1.1,60.10030740722717,
negative,neutral,1,j,l,,,,,,,,,2,4,40,3,,,,,,,,,main,2,2,1,neutral,negative,j,j,1,0.7624502000398934,253.07510749995708,254.07897679996677,254.06231099995784,None,253.07510749995708,None,253.07510749995708,None,253.07510749995708,None,254.82892457991838,None,254.82892457991838,None,254.82892457991838,None,,,,,,,,,,,,,,112,2023-04-06_13h43.27.248,Main,2022.1.1,60.10030740722717,
negative,neutral,2,j,l,,,,,,,,,2,5,41,12,,,,,,,,,main,2,2,2,neutral,negative,j,j,1,0.7011341000907123,254.82893049996346,255.8315653000027,255.8315653000027,None,254.82893049996346,None,254.82893049996346,None,254.82893049996346,None,256.53144507997206,None,256.53144507997206,None,256.53144507997206,None,,,,,,,,,,,,,,112,2023-04-06_13h43.27.248,Main,2022.1.1,60.10030740722717,
negative,positive,1,j,l,,,,,,,,,2,6,42,6,,,,,,,,,main,2,2,1,positive,negative,j,j,1,1.2818339999066666,256.53467700001784,257.54809990001377,257.5315045999596,None,256.53467700001784,None,256.53467700001784,None,256.53467700001784,None,258.81474918001334,None,258.81474918001334,None,258.81474918001334,None,,,,,,,,,,,,,,112,2023-04-06_13h43.27.248,Main,2022.1.1,60.10030740722717,
positive,neutral,1,l,j,,,,,,,,,2,7,43,8,,,,,,,,,main,2,2,1,neutral,positive,l,l,1,0.6291787000373006,258.8181337999413,259.8313354999991,259.8147666999139,None,258.8181337999413,None,258.8181337999413,None,258.8181337999413,None,260.44555447997993,None,260.44555447997993,None,260.44555447997993,None,,,,,,,,,,,,,,112,2023-04-06_13h43.27.248,Main,2022.1.1,60.10030740722717,
negative,negative,1,j,l,,,,,,,,,2,8,44,0,,,,,,,,,main,1,1,1,negative,negative,j,j,1,0.781941800029017,260.4491899999557,261.46477510000113,261.4481646999484,None,260.4491899999557,None,260.4491899999557,None,260.4491899999557,None,262.22891037995,None,262.22891037995,None,262.22891037995,None,,,,,,,,,,,,,,112,2023-04-06_13h43.27.248,Main,2022.1.1,60.10030740722717,
positive,positive,2,l,j,,,,,,,,,2,9,45,11,,,,,,,,,main,1,1,2,positive,positive,l,l,1,0.764873499982059,262.23535079997964,263.2479624999687,263.23145510000177,None,262.23535079997964,None,262.23535079997964,None,262.23535079997964,None,263.9954405799741,None,263.9954405799741,None,263.9954405799741,None,,,,,,,,,,,,,,112,2023-04-06_13h43.27.248,Main,2022.1.1,60.10030740722717,
positive,negative,2,l,j,,,,,,,,,2,10,46,14,,,,,,,,,main,2,2,2,negative,positive,l,l,1,0.7317580999806523,263.99547319998965,264.9954802999273,264.9954802999273,None,263.99547319998965,None,263.99547319998965,None,263.99547319998965,None,265.72878527992873,None,265.72878527992873,None,265.72878527992873,None,,,,,,,,,,,,,,112,2023-04-06_13h43.27.248,Main,2022.1.1,60.10030740722717,
neutral,positive,2,k,k,,,,,,,,,2,11,47,13,,,,,,,,,main,2,2,2,positive,neutral,k,k,1,1.3346589000429958,265.7296319999732,266.72879780002404,266.72879780002404,None,265.7296319999732,None,265.7296319999732,None,265.7296319999732,None,268.06460837998895,None,268.06460837998895,None,268.06460837998895,None,,,,,,,,,,,,,,112,2023-04-06_13h43.27.248,Main,2022.1.1,60.10030740722717,
neutral,positive,1,k,k,,,,,,,,,2,12,48,4,,,,,,,,,main,1,1,1,positive,neutral,k,k,1,-0.7038079999620095,268.0680583999492,None,None,None,268.0680583999492,None,268.0680583999492,None,268.0680583999492,None,268.36248499993235,None,268.36248499993235,None,268.36248499993235,None,,,,,,,,,,,,,,112,2023-04-06_13h43.27.248,Main,2022.1.1,60.10030740722717,
positive,neutral,2,l,j,,,,,,,,,2,13,49,17,,,,,,,,,main,1,1,2,neutral,positive,l,l,1,0.7533719999482855,271.3640896999277,272.3645336999325,272.3478856999427,None,271.3640896999277,None,271.3640896999277,None,271.3640896999277,None,273.11444107992577,None,273.11444107992577,None,273.11444107992577,None,,,,,,,,,,,,,,112,2023-04-06_13h43.27.248,Main,2022.1.1,60.10030740722717,
neutral,negative,1,k,k,,,,,,,,,2,14,50,7,,,,,,,,,main,2,2,1,negative,neutral,k,k,1,0.7482247001025826,273.1187700999435,274.1311076999409,274.11452529998496,None,273.1187700999435,None,273.1187700999435,None,273.1187700999435,None,274.8643315800233,None,274.8643315800233,None,274.8643315800233,None,,,,,,,,,,,,,,112,2023-04-06_13h43.27.248,Main,2022.1.1,60.10030740722717,
neutral,negative,2,k,k,,,,,,,,,2,15,51,16,,,,,,,,,main,2,2,2,negative,neutral,k,k,1,0.9782854999648407,274.86848800000735,275.87856199999806,275.8618938999716,None,274.86848800000735,None,274.86848800000735,None,274.86848800000735,None,276.845206279913,None,276.845206279913,None,276.845206279913,None,,,,,,,,,,,,,,112,2023-04-06_13h43.27.248,Main,2022.1.1,60.10030740722717,
neutral,neutral,2,k,k,,,,,,,,,2,16,52,10,,,,,,,,,main,2,2,2,neutral,neutral,k,k,1,0.6978171999799088,276.84576219995506,277.8452681999188,277.8452681999188,None,276.84576219995506,None,276.84576219995506,None,276.84576219995506,None,278.54520157994705,None,278.54520157994705,None,278.54520157994705,None,,,,,,,,,,,,,,112,2023-04-06_13h43.27.248,Main,2022.1.1,60.10030740722717,
positive,negative,1,l,j,,,,,,,,,2,17,53,5,,,,,,,,,main,2,2,1,negative,positive,l,l,1,0.6849001001100987,278.54645699996036,279.5619226000272,279.54525369999465,None,278.54645699996036,None,278.54645699996036,None,278.54645699996036,None,280.231099679973,None,280.231099679973,None,280.231099679973,None,,,,,,,,,,,,,,112,2023-04-06_13h43.27.248,Main,2022.1.1,60.10030740722717,
positive,positive,1,l,j,,,,,,,,,3,0,54,2,,,,,,,,,main,1,1,1,positive,positive,l,l,1,0.6315575999906287,280.23497589991894,281.2476622000104,281.23108179995324,None,280.23497589991894,None,280.23497589991894,None,280.23497589991894,None,281.864280679985,None,281.864280679985,None,281.864280679985,None,,,,,,,,,,,,,,112,2023-04-06_13h43.27.248,Main,2022.1.1,60.10030740722717,
negative,neutral,2,j,l,,,,,,,,,3,1,55,12,,,,,,,,,main,2,2,2,neutral,negative,j,j,1,0.8294498999603093,281.8678208999336,282.8810293999268,282.8643528999528,None,281.8678208999336,None,281.8678208999336,None,281.8678208999336,None,283.69543337998914,None,283.69543337998914,None,283.69543337998914,None,,,,,,,,,,,,,,112,2023-04-06_13h43.27.248,Main,2022.1.1,60.10030740722717,
neutral,negative,1,k,k,,,,,,,,,3,2,56,7,,,,,,,,,main,2,2,1,negative,neutral,k,k,1,0.5649720999645069,283.70174269995186,284.71424389991444,284.69769369997084,None,283.70174269995186,None,283.70174269995186,None,283.70174269995186,None,285.26189728002066,None,285.26189728002066,None,285.26189728002066,None,,,,,,,,,,,,,,112,2023-04-06_13h43.27.248,Main,2022.1.1,60.10030740722717,
neutral,negative,2,k,k,,,,,,,,,3,3,57,16,,,,,,,,,main,1,1,2,negative,neutral,k,k,1,0.6649557000491768,285.26857429998927,286.28083770000376,286.26421529997606,None,285.26857429998927,None,285.26857429998927,None,285.26857429998927,None,286.92874058000746,None,286.92874058000746,None,286.92874058000746,None,,,,,,,,,,,,,,112,2023-04-06_13h43.27.248,Main,2022.1.1,60.10030740722717,
positive,negative,2,l,j,,,,,,,,,3,4,58,14,,,,,,,,,main,2,2,2,negative,positive,l,l,1,0.6982961000176147,286.94541949999984,287.9449945000233,287.92829830001574,None,286.94541949999984,None,286.94541949999984,None,286.94541949999984,None,288.62832777996084,None,288.62832777996084,None,288.62832777996084,None,,,,,,,,,,,,,,112,2023-04-06_13h43.27.248,Main,2022.1.1,60.10030740722717,
positive,neutral,1,l,j,,,,,,,,,3,5,59,8,,,,,,,,,main,2,2,1,neutral,positive,l,l,1,0.6484793999698013,288.62835469993297,289.6283455999801,289.6283455999801,None,288.62835469993297,None,288.62835469993297,None,288.62835469993297,None,290.2783394799568,None,290.2783394799568,None,290.2783394799568,None,,,,,,,,,,,,,,112,2023-04-06_13h43.27.248,Main,2022.1.1,60.10030740722717,
negative,negative,1,j,l,,,,,,,,,3,6,60,0,,,,,,,,,main,2,2,1,negative,negative,j,j,1,0.8315978000173345,290.27900179999415,291.27837720001116,291.27837720001116,None,290.27900179999415,None,290.27900179999415,None,290.27900179999415,None,292.11165697991385,None,292.11165697991385,None,292.11165697991385,None,,,,,,,,,,,,,,112,2023-04-06_13h43.27.248,Main,2022.1.1,60.10030740722717,
neutral,positive,2,k,k,,,,,,,,,3,7,61,13,,,,,,,,,main,2,2,2,positive,neutral,k,k,1,0.6845998000353575,292.1189171000151,293.1307217000285,293.1142056999961,None,292.1189171000151,None,292.1189171000151,None,292.1189171000151,None,293.79739427999596,None,293.79739427999596,None,293.79739427999596,None,,,,,,,,,,,,,,112,2023-04-06_13h43.27.248,Main,2022.1.1,60.10030740722717,
neutral,neutral,1,k,k,,,,,,,,,3,8,62,1,,,,,,,,,main,2,2,1,neutral,neutral,k,k,1,0.8622851999243721,293.8006153999595,294.8140585999936,294.79743159993086,None,293.8006153999595,None,293.8006153999595,None,293.8006153999595,None,295.66157667993104,None,295.66157667993104,None,295.66157667993104,None,,,,,,,,,,,,,,112,2023-04-06_13h43.27.248,Main,2022.1.1,60.10030740722717,
negative,negative,2,j,l,,,,,,,,,3,9,63,9,,,,,,,,,main,2,2,2,negative,negative,j,j,1,1.2675538999028504,295.664926599944,296.6640432999702,296.6640432999702,None,295.664926599944,None,295.664926599944,None,295.664926599944,None,297.9306762799621,None,297.9306762799621,None,297.9306762799621,None,,,,,,,,,,,,,,112,2023-04-06_13h43.27.248,Main,2022.1.1,60.10030740722717,
negative,positive,2,j,l,,,,,,,,,3,10,64,15,,,,,,,,,main,1,1,2,positive,negative,j,j,1,0.6583620000164956,297.93377110001165,298.94725179998204,298.93058749998454,None,297.93377110001165,None,297.93377110001165,None,297.93377110001165,None,299.59046498001555,None,299.59046498001555,None,299.59046498001555,None,,,,,,,,,,,,,,112,2023-04-06_13h43.27.248,Main,2022.1.1,60.10030740722717,
negative,positive,1,j,l,,,,,,,,,3,11,65,6,,,,,,,,,main,1,1,1,positive,negative,j,j,1,0.819421699969098,299.6058707999764,300.6114626999479,300.57812820002437,None,299.6058707999764,None,299.6058707999764,None,299.6058707999764,None,301.4113927799277,None,301.4113927799277,None,301.4113927799277,None,,,,,,,,,,,,,,112,2023-04-06_13h43.27.248,Main,2022.1.1,60.10030740722717,
neutral,positive,1,k,k,,,,,,,,,3,12,66,4,,,,,,,,,main,2,2,1,positive,neutral,k,k,1,2.6498344000428915,301.41138139995746,302.4114446999738,302.4114446999738,None,301.41138139995746,None,301.41138139995746,None,301.41138139995746,None,305.06179529998917,None,305.06179529998917,None,305.06179529998917,None,,,,,,,,,,,,,,112,2023-04-06_13h43.27.248,Main,2022.1.1,60.10030740722717,
neutral,neutral,2,k,k,,,,,,,,,3,13,67,10,,,,,,,,,main,2,2,2,neutral,neutral,k,k,1,0.8370328000746667,306.0620265000034,307.0639330999693,307.04722129995935,None,306.0620265000034,None,306.0620265000034,None,306.0620265000034,None,307.89718987992967,None,307.89718987992967,None,307.89718987992967,None,,,,,,,,,,,,,,112,2023-04-06_13h43.27.248,Main,2022.1.1,60.10030740722717,
positive,positive,2,l,j,,,,,,,,,3,14,68,11,,,,,,,,,main,2,2,2,positive,positive,l,l,1,0.779533400083892,307.90092609997373,308.91387239994947,308.8971776999533,None,307.90092609997373,None,307.90092609997373,None,307.90092609997373,None,309.67861617999154,None,309.67861617999154,None,309.67861617999154,None,,,,,,,,,,,,,,112,2023-04-06_13h43.27.248,Main,2022.1.1,60.10030740722717,
negative,neutral,1,j,l,,,,,,,,,3,15,69,3,,,,,,,,,main,2,2,1,neutral,negative,j,j,1,1.039947299985215,309.6844932999229,310.6970818999689,310.68042599991895,None,309.6844932999229,None,309.6844932999229,None,309.6844932999229,None,311.72029718002307,None,311.72029718002307,None,311.72029718002307,None,,,,,,,,,,,,,,112,2023-04-06_13h43.27.248,Main,2022.1.1,60.10030740722717,
positive,negative,1,l,j,,,,,,,,,3,16,70,5,,,,,,,,,main,1,1,1,negative,positive,l,l,1,0.7897699000313878,311.73669169994537,312.7445170999272,312.7111904999474,None,311.73669169994537,None,311.73669169994537,None,311.73669169994537,None,313.51113917995247,None,313.51113917995247,None,313.51113917995247,None,,,,,,,,,,,,,,112,2023-04-06_13h43.27.248,Main,2022.1.1,60.10030740722717,
positive,neutral,2,l,j,,,,,,,,,3,17,71,17,,,,,,,,,main,2,2,2,neutral,positive,l,l,1,0.6982194000156596,313.5113505999325,314.5112054999918,314.5112054999918,None,313.5113505999325,None,313.5113505999325,None,313.5113505999325,None,315.21117137991826,None,315.21117137991826,None,315.21117137991826,None,,,,,,,,,,,,,,112,2023-04-06_13h43.27.248,Main,2022.1.1,60.10030740722717,
positive,neutral,1,l,j,,,,,,,,,4,0,72,8,,,,,,,,,main,2,2,1,neutral,positive,l,l,1,0.6337664999300614,315.22794579993933,316.23037859995384,316.21373830002267,None,315.22794579993933,None,315.22794579993933,None,315.22794579993933,None,316.84690937995913,None,316.84690937995913,None,316.84690937995913,None,,,,,,,,,,,,,,112,2023-04-06_13h43.27.248,Main,2022.1.1,60.10030740722717,
positive,negative,1,l,j,,,,,,,,,4,1,73,5,,,,,,,,,main,2,2,1,negative,positive,l,l,1,0.6982907999772578,316.85051529994234,317.8636992999818,317.8470432999311,None,316.85051529994234,None,316.85051529994234,None,316.85051529994234,None,318.5469814799959,None,318.5469814799959,None,318.5469814799959,None,,,,,,,,,,,,,,112,2023-04-06_13h43.27.248,Main,2022.1.1,60.10030740722717,
neutral,negative,2,k,k,,,,,,,,,4,2,74,16,,,,,,,,,main,1,1,2,negative,neutral,k,k,1,0.7461723999585956,318.54997960000765,319.563570600003,319.54698629991617,None,318.54997960000765,None,318.54997960000765,None,318.54997960000765,None,320.2947569799377,None,320.2947569799377,None,320.2947569799377,None,,,,,,,,,,,,,,112,2023-04-06_13h43.27.248,Main,2022.1.1,60.10030740722717,
negative,positive,1,j,l,,,,,,,,,4,3,75,6,,,,,,,,,main,2,2,1,positive,negative,j,j,1,1.281546700047329,320.30079220002517,321.3137190999696,321.2970284000039,None,320.30079220002517,None,320.30079220002517,None,320.30079220002517,None,322.5777546799742,None,322.5777546799742,None,322.5777546799742,None,,,,,,,,,,,,,,112,2023-04-06_13h43.27.248,Main,2022.1.1,60.10030740722717,
negative,negative,1,j,l,,,,,,,,,4,4,76,0,,,,,,,,,main,2,2,1,negative,negative,j,j,1,0.7482655999483541,322.5841111999471,323.5968923999462,323.58024379995186,None,322.5841111999471,None,322.5841111999471,None,322.5841111999471,None,324.32762338002215,None,324.32762338002215,None,324.32762338002215,None,,,,,,,,,,,,,,112,2023-04-06_13h43.27.248,Main,2022.1.1,60.10030740722717,
neutral,positive,1,k,k,,,,,,,,,4,5,77,4,,,,,,,,,main,2,2,1,positive,neutral,k,k,1,0.79852330009453,324.3276450999547,325.327631299966,325.327631299966,None,324.3276450999547,None,324.3276450999547,None,324.3276450999547,None,326.1276202799287,None,326.1276202799287,None,326.1276202799287,None,,,,,,,,,,,,,,112,2023-04-06_13h43.27.248,Main,2022.1.1,60.10030740722717,
negative,neutral,1,j,l,,,,,,,,,4,6,78,3,,,,,,,,,main,1,1,1,neutral,negative,j,j,1,0.8313974000047892,326.13000000000466,327.14428919996135,327.127636399935,None,326.13000000000466,None,326.13000000000466,None,326.13000000000466,None,327.96095927993304,None,327.96095927993304,None,327.96095927993304,None,,,,,,,,,,,,,,112,2023-04-06_13h43.27.248,Main,2022.1.1,60.10030740722717,
positive,positive,2,l,j,,,,,,,,,4,7,79,11,,,,,,,,,main,2,2,2,positive,positive,l,l,1,0.8175576999783516,327.9645052999258,328.98011160001624,328.96351739997044,None,327.9645052999258,None,327.9645052999258,None,327.9645052999258,None,329.78011968000794,None,329.78011968000794,None,329.78011968000794,None,,,,,,,,,,,,,,112,2023-04-06_13h43.27.248,Main,2022.1.1,60.10030740722717,
positive,positive,1,l,j,,,,,,,,,4,8,80,2,,,,,,,,,main,2,2,1,positive,positive,l,l,1,1.1818611999042332,329.78418359998614,330.79459159995895,330.7801084999228,None,329.78418359998614,None,329.78418359998614,None,329.78418359998614,None,331.96346218001565,None,331.96346218001565,None,331.96346218001565,None,,,,,,,,,,,,,,112,2023-04-06_13h43.27.248,Main,2022.1.1,60.10030740722717,
negative,negative,2,j,l,,,,,,,,,4,9,81,9,,,,,,,,,main,1,1,2,negative,negative,j,j,1,0.779242999968119,331.96730199991725,332.97996749996673,332.9634014000185,None,331.96730199991725,None,331.96730199991725,None,331.96730199991725,None,333.74422887994444,None,333.74422887994444,None,333.74422887994444,None,,,,,,,,,,,,,,112,2023-04-06_13h43.27.248,Main,2022.1.1,60.10030740722717,
neutral,neutral,2,k,k,,,,,,,,,4,10,82,10,,,,,,,,,main,1,1,2,neutral,neutral,k,k,1,0.7164629000471905,333.7503524000058,334.76335169991944,334.74669780000113,None,333.7503524000058,None,333.7503524000058,None,333.7503524000058,None,335.46116677999964,None,335.46116677999964,None,335.46116677999964,None,,,,,,,,,,,,,,112,2023-04-06_13h43.27.248,Main,2022.1.1,60.10030740722717,
negative,neutral,2,j,l,,,,,,,,,4,11,83,12,,,,,,,,,main,2,2,2,neutral,negative,j,j,1,0.7313757999800146,335.4672889999347,336.47737450001296,336.4607093000086,None,335.4672889999347,None,335.4672889999347,None,335.4672889999347,None,337.19402687998956,None,337.19402687998956,None,337.19402687998956,None,,,,,,,,,,,,,,112,2023-04-06_13h43.27.248,Main,2022.1.1,60.10030740722717,
neutral,negative,1,k,k,,,,,,,,,4,12,84,7,,,,,,,,,main,1,1,1,negative,neutral,k,k,1,0.7319382999558002,337.19589630002156,338.2107508999761,338.1940891999984,None,337.19589630002156,None,337.19589630002156,None,337.19589630002156,None,338.9274027799489,None,338.9274027799489,None,338.9274027799489,None,,,,,,,,,,,,,,112,2023-04-06_13h43.27.248,Main,2022.1.1,60.10030740722717,
negative,positive,2,j,l,,,,,,,,,4,13,85,15,,,,,,,,,main,2,2,2,positive,negative,j,j,1,0.7830606999341398,338.9306663000025,339.94406529993284,339.92739690002054,None,338.9306663000025,None,338.9306663000025,None,338.9306663000025,None,340.7131370799849,None,340.7131370799849,None,340.7131370799849,None,,,,,,,,,,,,,,112,2023-04-06_13h43.27.248,Main,2022.1.1,60.10030740722717,
neutral,neutral,1,k,k,,,,,,,,,4,14,86,1,,,,,,,,,main,1,1,1,neutral,neutral,k,k,1,0.7459773999871686,340.71603549993597,341.7298162999796,341.71318570000585,None,340.71603549993597,None,340.71603549993597,None,340.71603549993597,None,342.46068937997336,None,342.46068937997336,None,342.46068937997336,None,,,,,,,,,,,,,,112,2023-04-06_13h43.27.248,Main,2022.1.1,60.10030740722717,
neutral,positive,2,k,k,,,,,,,,,4,15,87,13,,,,,,,,,main,2,2,2,positive,neutral,k,k,1,0.6487493999302387,342.4671243999619,343.47975089994725,343.4631917999359,None,342.4671243999619,None,342.4671243999619,None,342.4671243999619,None,344.1109445799608,None,344.1109445799608,None,344.1109445799608,None,,,,,,,,,,,,,,112,2023-04-06_13h43.27.248,Main,2022.1.1,60.10030740722717,
positive,neutral,2,l,j,,,,,,,,,4,16,88,17,,,,,,,,,main,2,2,2,neutral,positive,l,l,1,0.767517099971883,344.1172354000155,345.12972810002975,345.1131355999969,None,344.1172354000155,None,344.1172354000155,None,344.1172354000155,None,345.8806242799852,None,345.8806242799852,None,345.8806242799852,None,,,,,,,,,,,,,,112,2023-04-06_13h43.27.248,Main,2022.1.1,60.10030740722717,
positive,negative,2,l,j,,,,,,,,,4,17,89,14,,,,,,,,,main,2,2,2,negative,positive,l,l,1,0.712831599987112,345.88453179993667,346.89425819995813,346.87757619994227,None,345.88453179993667,None,345.88453179993667,None,345.88453179993667,None,347.59389257992154,None,347.59389257992154,None,347.59389257992154,None,,,,,,,,,,,,,,112,2023-04-06_13h43.27.248,Main,2022.1.1,60.10030740722717,
negative,neutral,1,j,l,,,,,,,,,5,0,90,3,,,,,,,,,main,1,1,1,neutral,negative,j,j,1,0.781239099917002,347.60036809998564,348.6104748999933,348.59380599996075,None,347.60036809998564,None,347.60036809998564,None,347.60036809998564,None,349.3771141799167,None,349.3771141799167,None,349.3771141799167,None,,,,,,,,,,,,,,112,2023-04-06_13h43.27.248,Main,2022.1.1,60.10030740722717,
neutral,negative,2,k,k,,,,,,,,,5,1,91,16,,,,,,,,,main,2,2,2,negative,neutral,k,k,1,0.7644068000372499,349.37841999996454,350.3938551999163,350.3772162999958,None,349.37841999996454,None,349.37841999996454,None,349.37841999996454,None,351.143823480024,None,351.143823480024,None,351.143823480024,None,,,,,,,,,,,,,,112,2023-04-06_13h43.27.248,Main,2022.1.1,60.10030740722717,
negative,negative,2,j,l,,,,,,,,,5,2,92,9,,,,,,,,,main,2,2,2,negative,negative,j,j,1,0.7652386000845581,351.1470929000061,352.1605056999251,352.14383179997094,None,351.1470929000061,None,351.1470929000061,None,351.1470929000061,None,352.9104849800002,None,352.9104849800002,None,352.9104849800002,None,,,,,,,,,,,,,,112,2023-04-06_13h43.27.248,Main,2022.1.1,60.10030740722717,
negative,positive,2,j,l,,,,,,,,,5,3,93,15,,,,,,,,,main,2,2,2,positive,negative,j,j,1,0.9324595000362024,352.91721159999724,353.9295753999613,353.9129324000096,None,352.91721159999724,None,352.91721159999724,None,352.91721159999724,None,354.84408688000406,None,354.84408688000406,None,354.84408688000406,None,,,,,,,,,,,,,,112,2023-04-06_13h43.27.248,Main,2022.1.1,60.10030740722717,
neutral,neutral,1,k,k,,,,,,,,,5,4,94,1,,,,,,,,,main,1,1,1,neutral,neutral,k,k,1,0.6317837999667972,354.86290029995143,355.8627789999591,355.8462531999685,None,354.86290029995143,None,354.86290029995143,None,354.86290029995143,None,356.4773498799419,None,356.4773498799419,None,356.4773498799419,None,,,,,,,,,,,,,,112,2023-04-06_13h43.27.248,Main,2022.1.1,60.10030740722717,
positive,negative,2,l,j,,,,,,,,,5,5,95,14,,,,,,,,,main,2,2,2,negative,positive,l,l,1,1.3140983000630513,356.48393759992905,357.4960996999871,357.47947669995483,None,356.48393759992905,None,356.48393759992905,None,356.48393759992905,None,358.79398588000333,None,358.79398588000333,None,358.79398588000333,None,,,,,,,,,,,,,,112,2023-04-06_13h43.27.248,Main,2022.1.1,60.10030740722717,
positive,neutral,1,l,j,,,,,,,,,5,6,96,8,,,,,,,,,main,2,2,1,neutral,positive,l,l,1,0.6814584999810904,358.8000957999611,359.81282480002847,359.79622229991946,None,358.8000957999611,None,358.8000957999611,None,358.8000957999611,None,360.4768795799697,None,360.4768795799697,None,360.4768795799697,None,,,,,,,,,,,,,,112,2023-04-06_13h43.27.248,Main,2022.1.1,60.10030740722717,
positive,neutral,2,l,j,,,,,,,,,5,7,97,17,,,,,,,,,main,1,1,2,neutral,positive,l,j,0,0.7482602000236511,360.47698819998186,361.4769235999556,361.4769235999556,None,360.47698819998186,None,360.47698819998186,None,360.47698819998186,None,362.22693729994353,None,362.22693729994353,None,362.22693729994353,None,,,,,,,,,,,,,,112,2023-04-06_13h43.27.248,Main,2022.1.1,60.10030740722717,
neutral,negative,1,k,k,,,,,,,,,5,8,98,7,,,,,,,,,main,1,1,1,negative,neutral,k,k,1,0.6748319999314845,363.22693599993363,364.22697059996426,364.21031150000636,None,363.22693599993363,None,363.22693599993363,None,363.22693599993363,None,364.89395197995475,None,364.89395197995475,None,364.89395197995475,None,,,,,,,,,,,,,,112,2023-04-06_13h43.27.248,Main,2022.1.1,60.10030740722717,
neutral,positive,2,k,k,,,,,,,,,5,9,99,13,,,,,,,,,main,1,1,2,positive,neutral,k,k,1,0.6125053999712691,364.90188569994643,365.91275919997133,365.89611269999295,None,364.90188569994643,None,364.90188569994643,None,364.90188569994643,None,366.5126521799481,None,366.5126521799481,None,366.5126521799481,None,,,,,,,,,,,,,,112,2023-04-06_13h43.27.248,Main,2022.1.1,60.10030740722717,
negative,negative,1,j,l,,,,,,,,,5,10,100,0,,,,,,,,,main,2,2,1,negative,negative,j,l,0,0.6157270999392495,366.5165980999591,367.52938500000164,367.51272709993646,None,366.5165980999591,None,366.5165980999591,None,366.5165980999591,None,368.1271820999682,None,368.1271820999682,None,368.1271820999682,None,,,,,,,,,,,,,,112,2023-04-06_13h43.27.248,Main,2022.1.1,60.10030740722717,
positive,positive,2,l,j,,,,,,,,,5,11,101,11,,,,,,,,,main,2,2,2,positive,positive,l,l,1,0.8179441000102088,369.12807610002346,370.12922869995236,370.1126969999168,None,369.12807610002346,None,369.12807610002346,None,369.12807610002346,None,370.94380208002406,None,370.94380208002406,None,370.94380208002406,None,,,,,,,,,,,,,,112,2023-04-06_13h43.27.248,Main,2022.1.1,60.10030740722717,
neutral,positive,1,k,k,,,,,,,,,5,12,102,4,,,,,,,,,main,2,2,1,positive,neutral,k,k,1,0.7979359999299049,370.9496624999447,371.96248330001254,371.9459415000165,None,370.9496624999447,None,370.9496624999447,None,370.9496624999447,None,372.7433343800018,None,372.7433343800018,None,372.7433343800018,None,,,,,,,,,,,,,,112,2023-04-06_13h43.27.248,Main,2022.1.1,60.10030740722717,
negative,positive,1,j,l,,,,,,,,,5,13,103,6,,,,,,,,,main,1,1,1,positive,negative,j,j,1,0.8314789000432938,372.743535000016,373.7433731999481,373.7433731999481,None,372.743535000016,None,372.743535000016,None,372.743535000016,None,374.5766915799119,None,374.5766915799119,None,374.5766915799119,None,,,,,,,,,,,,,,112,2023-04-06_13h43.27.248,Main,2022.1.1,60.10030740722717,
neutral,neutral,2,k,k,,,,,,,,,5,14,104,10,,,,,,,,,main,2,2,2,neutral,neutral,k,k,1,0.6651891000801697,374.5773283999879,375.5766898000147,375.5766898000147,None,374.5773283999879,None,374.5773283999879,None,374.5773283999879,None,376.2433467799798,None,376.2433467799798,None,376.2433467799798,None,,,,,,,,,,,,,,112,2023-04-06_13h43.27.248,Main,2022.1.1,60.10030740722717,
positive,positive,1,l,j,,,,,,,,,5,15,105,2,,,,,,,,,main,1,1,1,positive,positive,l,l,1,0.6983496999600902,376.24967799999285,377.26249450002797,377.2459022999974,None,376.24967799999285,None,376.24967799999285,None,376.24967799999285,None,377.9434859799454,None,377.9434859799454,None,377.9434859799454,None,,,,,,,,,,,,,,112,2023-04-06_13h43.27.248,Main,2022.1.1,60.10030740722717,
positive,negative,1,l,j,,,,,,,,,5,16,106,5,,,,,,,,,main,2,2,1,negative,positive,l,l,1,0.7821876000380144,377.94977379997727,378.9623821999412,378.94579949998297,None,377.94977379997727,None,377.94977379997727,None,377.94977379997727,None,379.726978180022,None,379.726978180022,None,379.726978180022,None,,,,,,,,,,,,,,112,2023-04-06_13h43.27.248,Main,2022.1.1,60.10030740722717,
negative,neutral,2,j,l,,,,,,,,,5,17,107,12,,,,,,,,,main,1,1,2,neutral,negative,j,j,1,0.8812526999972761,379.73285899998154,380.7457332999911,380.72915429994464,None,379.73285899998154,None,379.73285899998154,None,379.73285899998154,None,381.6102345799096,None,381.6102345799096,None,381.6102345799096,None,,,,,,,,,,,,,,112,2023-04-06_13h43.27.248,Main,2022.1.1,60.10030740722717,
negative,positive,1,j,l,,,,,,,,,6,0,108,6,,,,,,,,,main,2,2,1,positive,negative,j,j,1,1.16741719993297,381.6163235999411,382.62899919995107,382.61246380000375,None,381.6163235999411,None,381.6163235999411,None,381.6163235999411,None,383.77891757993496,None,383.77891757993496,None,383.77891757993496,None,,,,,,,,,,,,,,112,2023-04-06_13h43.27.248,Main,2022.1.1,60.10030740722717,
negative,neutral,2,j,l,,,,,,,,,6,1,109,12,,,,,,,,,main,1,1,2,neutral,negative,j,j,1,0.829007500084117,383.7819016999565,384.79310909996275,384.77643450000323,None,383.7819016999565,None,383.7819016999565,None,383.7819016999565,None,385.6097270800034,None,385.6097270800034,None,385.6097270800034,None,,,,,,,,,,,,,,112,2023-04-06_13h43.27.248,Main,2022.1.1,60.10030740722717,
positive,neutral,1,l,j,,,,,,,,,6,2,110,8,,,,,,,,,main,2,2,1,neutral,positive,l,l,1,0.7313127999659628,385.610299599939,386.6098187000025,386.6098187000025,None,385.610299599939,None,385.610299599939,None,385.610299599939,None,387.34312548001765,None,387.34312548001765,None,387.34312548001765,None,,,,,,,,,,,,,,112,2023-04-06_13h43.27.248,Main,2022.1.1,60.10030740722717,
negative,negative,1,j,l,,,,,,,,,6,3,111,0,,,,,,,,,main,2,2,1,negative,negative,j,l,0,0.56470939994324,387.346378599992,388.35982399992645,388.3431523999898,None,387.346378599992,None,387.346378599992,None,387.346378599992,None,388.9123489999911,None,388.9123489999911,None,388.9123489999911,None,,,,,,,,,,,,,,112,2023-04-06_13h43.27.248,Main,2022.1.1,60.10030740722717,
neutral,neutral,1,k,k,,,,,,,,,6,4,112,1,,,,,,,,,main,2,2,1,neutral,neutral,k,k,1,0.753630300052464,389.9105541999452,390.9121882999316,390.89564409991726,None,389.9105541999452,None,389.9105541999452,None,389.9105541999452,None,391.66232058000753,None,391.66232058000753,None,391.66232058000753,None,,,,,,,,,,,,,,112,2023-04-06_13h43.27.248,Main,2022.1.1,60.10030740722717,
neutral,neutral,2,k,k,,,,,,,,,6,5,113,10,,,,,,,,,main,2,2,2,neutral,neutral,k,k,1,1.179115999955684,391.66621049994137,392.67882579995785,392.662256599986,None,391.66621049994137,None,391.66621049994137,None,391.66621049994137,None,393.84298688001,None,393.84298688001,None,393.84298688001,None,,,,,,,,,,,,,,112,2023-04-06_13h43.27.248,Main,2022.1.1,60.10030740722717,
positive,positive,2,l,j,,,,,,,,,6,6,114,11,,,,,,,,,main,1,1,2,positive,positive,l,l,1,0.8683567000553012,393.8471300000092,394.8621619999176,394.8455053999787,None,393.8471300000092,None,393.8471300000092,None,393.8471300000092,None,395.71323727993297,None,395.71323727993297,None,395.71323727993297,None,,,,,,,,,,,,,,112,2023-04-06_13h43.27.248,Main,2022.1.1,60.10030740722717,
negative,neutral,1,j,l,,,,,,,,,6,7,115,3,,,,,,,,,main,2,2,1,neutral,negative,j,j,1,0.7115995000349358,395.72642760002054,396.72863709996454,396.7098540000152,None,395.72642760002054,None,395.72642760002054,None,395.72642760002054,None,397.42652797992343,None,397.42652797992343,None,397.42652797992343,None,,,,,,,,,,,,,,112,2023-04-06_13h43.27.248,Main,2022.1.1,60.10030740722717,
negative,positive,2,j,l,,,,,,,,,6,8,116,15,,,,,,,,,main,1,1,2,positive,negative,j,l,0,1.3818813000107184,397.4321445999667,398.44311579992063,398.4264753999887,None,397.4321445999667,None,397.4321445999667,None,397.4321445999667,None,399.8097913999809,None,399.8097913999809,None,399.8097913999809,None,,,,,,,,,,,,,,112,2023-04-06_13h43.27.248,Main,2022.1.1,60.10030740722717,
positive,negative,2,l,j,,,,,,,,,6,9,117,14,,,,,,,,,main,1,1,2,negative,positive,l,l,1,0.8014909999910742,400.80964200000744,401.80975269991904,401.7931079999544,None,400.80964200000744,None,400.80964200000744,None,400.80964200000744,None,402.609750779951,None,402.609750779951,None,402.609750779951,None,,,,,,,,,,,,,,112,2023-04-06_13h43.27.248,Main,2022.1.1,60.10030740722717,
neutral,positive,1,k,k,,,,,,,,,6,10,118,4,,,,,,,,,main,2,2,1,positive,neutral,k,k,1,0.7815613000420853,402.61547560000326,403.62846419995185,403.6097355999518,None,402.61547560000326,None,402.61547560000326,None,402.61547560000326,None,404.3931265799562,None,404.3931265799562,None,404.3931265799562,None,,,,,,,,,,,,,,112,2023-04-06_13h43.27.248,Main,2022.1.1,60.10030740722717,
positive,positive,1,l,j,,,,,,,,,6,11,119,2,,,,,,,,,main,2,2,1,positive,positive,l,l,1,0.7816335000097752,404.39857139997184,405.409736600006,405.39531479997095,None,404.39857139997184,None,404.39857139997184,None,404.39857139997184,None,406.17634118001445,None,406.17634118001445,None,406.17634118001445,None,,,,,,,,,,,,,,112,2023-04-06_13h43.27.248,Main,2022.1.1,60.10030740722717,
neutral,negative,1,k,k,,,,,,,,,6,12,120,7,,,,,,,,,main,1,1,1,negative,neutral,k,k,1,0.7192266000201926,406.18231239996385,407.19507199991494,407.17844079993665,None,406.18231239996385,None,406.18231239996385,None,406.18231239996385,None,407.89504127998373,None,407.89504127998373,None,407.89504127998373,None,,,,,,,,,,,,,,112,2023-04-06_13h43.27.248,Main,2022.1.1,60.10030740722717,
neutral,positive,2,k,k,,,,,,,,,6,13,121,13,,,,,,,,,main,1,1,2,positive,neutral,k,k,1,0.829981500050053,407.8997150999494,408.9096608000109,408.8952140000183,None,407.8997150999494,None,407.8997150999494,None,407.8997150999494,None,409.728589579952,None,409.728589579952,None,409.728589579952,None,,,,,,,,,,,,,,112,2023-04-06_13h43.27.248,Main,2022.1.1,60.10030740722717,
negative,negative,2,j,l,,,,,,,,,6,14,122,9,,,,,,,,,main,1,1,2,negative,negative,j,j,1,0.7790827000280842,409.7329799999716,410.74259739997797,410.7259339999873,None,409.7329799999716,None,409.7329799999716,None,409.7329799999716,None,411.50927297994497,None,411.50927297994497,None,411.50927297994497,None,,,,,,,,,,,,,,112,2023-04-06_13h43.27.248,Main,2022.1.1,60.10030740722717,
positive,neutral,2,l,j,,,,,,,,,6,15,123,17,,,,,,,,,main,1,1,2,neutral,positive,l,l,1,0.9321767999790609,411.5092398999259,412.50930959999096,412.50930959999096,None,411.5092398999259,None,411.5092398999259,None,411.5092398999259,None,413.44292397997344,None,413.44292397997344,None,413.44292397997344,None,,,,,,,,,,,,,,112,2023-04-06_13h43.27.248,Main,2022.1.1,60.10030740722717,
neutral,negative,2,k,k,,,,,,,,,6,16,124,16,,,,,,,,,main,2,2,2,negative,neutral,k,k,1,0.7477867000270635,413.4617941000033,414.4616623999318,414.445129300002,None,413.4617941000033,None,413.4617941000033,None,413.4617941000033,None,415.1929074799642,None,415.1929074799642,None,415.1929074799642,None,,,,,,,,,,,,,,112,2023-04-06_13h43.27.248,Main,2022.1.1,60.10030740722717,
positive,negative,1,l,j,,,,,,,,,6,17,125,5,,,,,,,,,main,2,2,1,negative,positive,l,l,1,0.698909999919124,415.1986575999763,416.2117586999666,416.1951090999646,None,415.1986575999763,None,415.1986575999763,None,415.1986575999763,None,416.893010680005,None,416.893010680005,None,416.893010680005,None,,,,,,,,,,,,,,112,2023-04-06_13h43.27.248,Main,2022.1.1,60.10030740722717,
positive,negative,1,l,j,,,,,,,,,7,0,126,5,,,,,,,,,main,1,1,1,negative,positive,l,l,1,0.6815416000317782,416.8993214999791,417.9116596999811,417.8951466999715,None,416.8993214999791,None,416.8993214999791,None,416.8993214999791,None,418.57613928001376,None,418.57613928001376,None,418.57613928001376,None,,,,,,,,,,,,,,112,2023-04-06_13h43.27.248,Main,2022.1.1,60.10030740722717,
negative,negative,2,j,l,,,,,,,,,7,1,127,9,,,,,,,,,main,2,2,2,negative,negative,j,j,1,0.863956099958159,418.5800836000126,419.5950224000262,419.5783503999701,None,418.5800836000126,None,418.5800836000126,None,418.5800836000126,None,420.44238317993006,None,420.44238317993006,None,420.44238317993006,None,,,,,,,,,,,,,,112,2023-04-06_13h43.27.248,Main,2022.1.1,60.10030740722717,
positive,neutral,2,l,j,,,,,,,,,7,2,128,17,,,,,,,,,main,2,2,2,neutral,positive,l,l,1,1.0997207999462262,420.4424451999366,421.4424270999152,421.4424270999152,None,420.4424451999366,None,420.4424451999366,None,420.4424451999366,None,422.54280447997155,None,422.54280447997155,None,422.54280447997155,None,,,,,,,,,,,,,,112,2023-04-06_13h43.27.248,Main,2022.1.1,60.10030740722717,
positive,positive,2,l,j,,,,,,,,,7,3,129,11,,,,,,,,,main,1,1,2,positive,positive,l,l,1,0.7320394000271335,422.549155900022,423.5615749999415,423.545023499988,None,422.549155900022,None,422.549155900022,None,422.549155900022,None,424.276154279965,None,424.276154279965,None,424.276154279965,None,,,,,,,,,,,,,,112,2023-04-06_13h43.27.248,Main,2022.1.1,60.10030740722717,
neutral,negative,2,k,k,,,,,,,,,7,4,130,16,,,,,,,,,main,2,2,2,negative,neutral,k,k,1,0.7315647000214085,424.2824137000134,425.2948724000016,425.27816270000767,None,424.2824137000134,None,424.2824137000134,None,424.2824137000134,None,426.0093351799529,None,426.0093351799529,None,426.0093351799529,None,,,,,,,,,,,,,,112,2023-04-06_13h43.27.248,Main,2022.1.1,60.10030740722717,
negative,neutral,2,j,l,,,,,,,,,7,5,131,12,,,,,,,,,main,2,2,2,neutral,negative,j,j,1,0.699470000108704,426.0155302999774,427.0282008999493,427.0115349999396,None,426.0155302999774,None,426.0155302999774,None,426.0155302999774,None,427.7114424800035,None,427.7114424800035,None,427.7114424800035,None,,,,,,,,,,,,,,112,2023-04-06_13h43.27.248,Main,2022.1.1,60.10030740722717,
neutral,neutral,1,k,k,,,,,,,,,7,6,132,1,,,,,,,,,main,1,1,1,neutral,neutral,k,k,1,0.7317447999957949,427.71513179992326,428.72818690002896,428.71153400000185,None,427.71513179992326,None,427.71513179992326,None,427.71513179992326,None,429.444757379964,None,429.444757379964,None,429.444757379964,None,,,,,,,,,,,,,,112,2023-04-06_13h43.27.248,Main,2022.1.1,60.10030740722717,
negative,neutral,1,j,l,,,,,,,,,7,7,133,3,,,,,,,,,main,1,1,1,neutral,negative,j,j,1,0.7793649999657646,429.4484495000215,430.45891129993834,430.44223199994303,None,429.4484495000215,None,429.4484495000215,None,429.4484495000215,None,431.22552267999856,None,431.22552267999856,None,431.22552267999856,None,,,,,,,,,,,,,,112,2023-04-06_13h43.27.248,Main,2022.1.1,60.10030740722717,
neutral,neutral,2,k,k,,,,,,,,,7,8,134,10,,,,,,,,,main,2,2,2,neutral,neutral,k,k,1,0.7009220001054928,431.2255113000283,432.2255986999953,432.2255986999953,None,431.2255113000283,None,431.2255113000283,None,431.2255113000283,None,432.92797137997115,None,432.92797137997115,None,432.92797137997115,None,,,,,,,,,,,,,,112,2023-04-06_13h43.27.248,Main,2022.1.1,60.10030740722717,
positive,negative,2,l,j,,,,,,,,,7,9,135,14,,,,,,,,,main,2,2,2,negative,positive,l,l,1,0.8956158000510186,432.93256420001853,433.9447775000008,433.9280973999994,None,432.93256420001853,None,432.93256420001853,None,432.93256420001853,None,434.82583917994054,None,434.82583917994054,None,434.82583917994054,None,,,,,,,,,,,,,,112,2023-04-06_13h43.27.248,Main,2022.1.1,60.10030740722717,
neutral,positive,1,k,k,,,,,,,,,7,10,136,4,,,,,,,,,main,1,1,1,positive,neutral,k,k,1,0.7353254000190645,434.8315666000126,435.84472339996137,435.8258365999209,None,434.8315666000126,None,434.8315666000126,None,434.8315666000126,None,436.5614629800199,None,436.5614629800199,None,436.5614629800199,None,,,,,,,,,,,,,,112,2023-04-06_13h43.27.248,Main,2022.1.1,60.10030740722717,
negative,positive,2,j,l,,,,,,,,,7,11,137,15,,,,,,,,,main,1,1,2,positive,negative,j,j,1,0.7135793999768794,436.56595830002334,437.5778612999711,437.56123879994266,None,436.56595830002334,None,436.56595830002334,None,436.56595830002334,None,438.27796107998586,None,438.27796107998586,None,438.27796107998586,None,,,,,,,,,,,,,,112,2023-04-06_13h43.27.248,Main,2022.1.1,60.10030740722717,
neutral,positive,2,k,k,,,,,,,,,7,12,138,13,,,,,,,,,main,1,1,2,positive,neutral,k,k,1,0.629729799926281,438.28101419995073,439.29466869996395,439.2779579999624,None,438.28101419995073,None,438.28101419995073,None,438.28101419995073,None,439.909056279948,None,439.909056279948,None,439.909056279948,None,,,,,,,,,,,,,,112,2023-04-06_13h43.27.248,Main,2022.1.1,60.10030740722717,
negative,positive,1,j,l,,,,,,,,,7,13,139,6,,,,,,,,,main,2,2,1,positive,negative,j,j,1,0.6644819000503048,439.9278877999168,440.9420141999144,440.90866039996035,None,439.9278877999168,None,439.9278877999168,None,439.9278877999168,None,441.5753389799735,None,441.5753389799735,None,441.5753389799735,None,,,,,,,,,,,,,,112,2023-04-06_13h43.27.248,Main,2022.1.1,60.10030740722717,
positive,neutral,1,l,j,,,,,,,,,7,14,140,8,,,,,,,,,main,1,1,1,neutral,positive,l,l,1,0.7679675000254065,441.57590389996767,442.57539549993817,442.57539549993817,None,441.57590389996767,None,441.57590389996767,None,441.57590389996767,None,443.34232287995985,None,443.34232287995985,None,443.34232287995985,None,,,,,,,,,,,,,,112,2023-04-06_13h43.27.248,Main,2022.1.1,60.10030740722717,
negative,negative,1,j,l,,,,,,,,,7,15,141,0,,,,,,,,,main,2,2,1,negative,negative,j,j,1,0.9647020000265911,443.3492429999169,444.3612240999937,444.3445727999788,None,443.3492429999169,None,443.3492429999169,None,443.3492429999169,None,445.3110999799334,None,445.3110999799334,None,445.3110999799334,None,,,,,,,,,,,,,,112,2023-04-06_13h43.27.248,Main,2022.1.1,60.10030740722717,
neutral,negative,1,k,k,,,,,,,,,7,16,142,7,,,,,,,,,main,1,1,1,negative,neutral,k,k,1,0.6645727000432089,445.31499560002703,446.32775669998955,446.3111062999815,None,445.31499560002703,None,445.31499560002703,None,445.31499560002703,None,446.9778352799127,None,446.9778352799127,None,446.9778352799127,None,,,,,,,,,,,,,,112,2023-04-06_13h43.27.248,Main,2022.1.1,60.10030740722717,
positive,positive,1,l,j,,,,,,,,,7,17,143,2,,,,,,,,,main,1,1,1,positive,positive,l,l,1,0.6962880999781191,446.9805252000224,447.9943635999225,447.9778654000256,None,446.9805252000224,None,446.9805252000224,None,446.9805252000224,None,448.67554997992704,None,448.67554997992704,None,448.67554997992704,None,,,,,,,,,,,,,,112,2023-04-06_13h43.27.248,Main,2022.1.1,60.10030740722717,
neutral,positive,2,k,k,,,,,,,,,8,0,144,13,,,,,,,,,main,1,1,2,positive,neutral,k,k,1,0.6988289000000805,448.68207390001044,449.69438769994304,449.6777934000129,None,448.68207390001044,None,448.68207390001044,None,448.68207390001044,None,450.37612957998647,None,450.37612957998647,None,450.37612957998647,None,,,,,,,,,,,,,,112,2023-04-06_13h43.27.248,Main,2022.1.1,60.10030740722717,
positive,positive,2,l,j,,,,,,,,,8,1,145,11,,,,,,,,,main,1,1,2,positive,positive,l,l,1,0.7810792999807745,450.38207529997453,451.3917720000027,451.3751111999154,None,450.38207529997453,None,450.38207529997453,None,450.38207529997453,None,452.15843337997796,None,452.15843337997796,None,452.15843337997796,None,,,,,,,,,,,,,,112,2023-04-06_13h43.27.248,Main,2022.1.1,60.10030740722717,
positive,neutral,1,l,j,,,,,,,,,8,2,146,8,,,,,,,,,main,1,1,1,neutral,positive,l,l,1,0.7814257999416441,452.1584552000277,453.1585067999549,453.1585067999549,None,452.1584552000277,None,452.1584552000277,None,452.1584552000277,None,453.9418123800075,None,453.9418123800075,None,453.9418123800075,None,,,,,,,,,,,,,,112,2023-04-06_13h43.27.248,Main,2022.1.1,60.10030740722717,
neutral,negative,2,k,k,,,,,,,,,8,3,147,16,,,,,,,,,main,2,2,2,negative,neutral,k,k,1,0.6168714999221265,453.9433707999997,454.9584939000197,454.94182970002294,None,453.9433707999997,None,453.9433707999997,None,453.9433707999997,None,455.56107697999107,None,455.56107697999107,None,455.56107697999107,None,,,,,,,,,,,,,,112,2023-04-06_13h43.27.248,Main,2022.1.1,60.10030740722717,
negative,positive,2,j,l,,,,,,,,,8,4,148,15,,,,,,,,,main,1,1,2,positive,negative,j,j,1,0.7958077000221238,455.56951679999474,456.5775704999687,456.5609251999995,None,455.56951679999474,None,455.56951679999474,None,455.56951679999474,None,457.3584498799406,None,457.3584498799406,None,457.3584498799406,None,,,,,,,,,,,,,,112,2023-04-06_13h43.27.248,Main,2022.1.1,60.10030740722717,
negative,negative,1,j,l,,,,,,,,,8,5,149,0,,,,,,,,,main,1,1,1,negative,negative,j,j,1,0.6675542000448331,457.3642838000087,458.37761009996757,458.34415679995436,None,457.3642838000087,None,457.3642838000087,None,457.3642838000087,None,459.0274434800027,None,459.0274434800027,None,459.0274434800027,None,,,,,,,,,,,,,,112,2023-04-06_13h43.27.248,Main,2022.1.1,60.10030740722717,
negative,neutral,2,j,l,,,,,,,,,8,6,150,12,,,,,,,,,main,2,2,2,neutral,negative,j,j,1,0.5817668000236154,459.0305074999342,460.0417093000142,460.02760129992384,None,459.0305074999342,None,459.0305074999342,None,459.0305074999342,None,460.61089118001985,None,460.61089118001985,None,460.61089118001985,None,,,,,,,,,,,,,,112,2023-04-06_13h43.27.248,Main,2022.1.1,60.10030740722717,
positive,negative,1,l,j,,,,,,,,,8,7,151,5,,,,,,,,,main,2,2,1,negative,positive,l,l,1,0.6812807000242174,460.6149290999165,461.6273900999222,461.6108564999886,None,460.6149290999165,None,460.6149290999165,None,460.6149290999165,None,462.2941243800102,None,462.2941243800102,None,462.2941243800102,None,,,,,,,,,,,,,,112,2023-04-06_13h43.27.248,Main,2022.1.1,60.10030740722717,
negative,negative,2,j,l,,,,,,,,,8,8,152,9,,,,,,,,,main,2,2,2,negative,negative,j,,0,0.9817763000028208,462.29727069998626,463.308249099995,463.29156729998067,None,462.29727069998626,None,462.29727069998626,None,462.29727069998626,None,464.2748784000287,None,464.2748784000287,None,464.2748784000287,None,,,,,,,,,,,,,,112,2023-04-06_13h43.27.248,Main,2022.1.1,60.10030740722717,
positive,negative,2,l,j,,,,,,,,,8,9,153,14,,,,,,,,,main,2,2,2,negative,positive,l,l,1,0.7869197999825701,465.27496129996143,466.2749394000275,466.2582957999548,None,465.27496129996143,None,465.27496129996143,None,465.27496129996143,None,467.0582469799789,None,467.0582469799789,None,467.0582469799789,None,,,,,,,,,,,,,,112,2023-04-06_13h43.27.248,Main,2022.1.1,60.10030740722717,
neutral,negative,1,k,k,,,,,,,,,8,10,154,7,,,,,,,,,main,1,1,1,negative,neutral,k,k,1,0.7024431000463665,467.06428139994387,468.0773865999654,468.0607745000161,None,467.06428139994387,None,467.06428139994387,None,467.06428139994387,None,468.7584478799487,None,468.7584478799487,None,468.7584478799487,None,,,,,,,,,,,,,,112,2023-04-06_13h43.27.248,Main,2022.1.1,60.10030740722717,
neutral,neutral,2,k,k,,,,,,,,,8,11,155,10,,,,,,,,,main,2,2,2,neutral,neutral,k,k,1,0.7443074999609962,468.76758290000726,469.77733770001214,469.7607394999359,None,468.76758290000726,None,468.76758290000726,None,468.76758290000726,None,470.50847178001425,None,470.50847178001425,None,470.50847178001425,None,,,,,,,,,,,,,,112,2023-04-06_13h43.27.248,Main,2022.1.1,60.10030740722717,
negative,neutral,1,j,l,,,,,,,,,8,12,156,3,,,,,,,,,main,2,2,1,neutral,negative,j,j,1,0.999180999933742,470.5147701000096,471.52720259991474,471.51065780001227,None,470.5147701000096,None,470.5147701000096,None,470.5147701000096,None,472.5105007799808,None,472.5105007799808,None,472.5105007799808,None,,,,,,,,,,,,,,112,2023-04-06_13h43.27.248,Main,2022.1.1,60.10030740722717,
neutral,neutral,1,k,k,,,,,,,,,8,13,157,1,,,,,,,,,main,2,2,1,neutral,neutral,k,k,1,0.7629306999733672,472.5136559000239,473.52717619994655,473.5106804999523,None,472.5136559000239,None,472.5136559000239,None,472.5136559000239,None,474.2750632799231,None,474.2750632799231,None,474.2750632799231,None,,,,,,,,,,,,,,112,2023-04-06_13h43.27.248,Main,2022.1.1,60.10030740722717,
neutral,positive,1,k,k,,,,,,,,,8,14,158,4,,,,,,,,,main,2,2,1,positive,neutral,k,k,1,0.581410999991931,474.2809360999381,475.2913103000028,475.27464409999084,None,474.2809360999381,None,474.2809360999381,None,474.2809360999381,None,475.8579582799226,None,475.8579582799226,None,475.8579582799226,None,,,,,,,,,,,,,,112,2023-04-06_13h43.27.248,Main,2022.1.1,60.10030740722717,
negative,positive,1,j,l,,,,,,,,,8,15,159,6,,,,,,,,,main,1,1,1,positive,negative,j,j,1,0.9651362999575213,475.8579599999357,476.8580241999589,476.8580241999589,None,475.8579599999357,None,475.8579599999357,None,475.8579599999357,None,477.8246794799576,None,477.8246794799576,None,477.8246794799576,None,,,,,,,,,,,,,,112,2023-04-06_13h43.27.248,Main,2022.1.1,60.10030740722717,
positive,positive,1,l,j,,,,,,,,,8,16,160,2,,,,,,,,,main,1,1,1,positive,positive,l,l,1,0.6655037999153137,477.82500459998846,478.8246954999631,478.8246954999631,None,477.82500459998846,None,477.82500459998846,None,477.82500459998846,None,479.49168947993314,None,479.49168947993314,None,479.49168947993314,None,,,,,,,,,,,,,,112,2023-04-06_13h43.27.248,Main,2022.1.1,60.10030740722717,
positive,neutral,2,l,j,,,,,,,,,8,17,161,17,,,,,,,,,main,2,2,2,neutral,positive,l,l,1,0.8652346000308171,479.4977635999676,480.5104560999898,480.493849499966,None,479.4977635999676,None,479.4977635999676,None,479.4977635999676,None,481.3583148799604,None,481.3583148799604,None,481.3583148799604,None,,,,,,,,,,,,,,112,2023-04-06_13h43.27.248,Main,2022.1.1,60.10030740722717,
neutral,positive,1,k,k,,,,,,,,,9,0,162,4,,,,,,,,,main,2,2,1,positive,neutral,k,k,1,0.7001407999778166,481.3644065000117,482.3772374999244,482.3604690999491,None,481.3644065000117,None,481.3644065000117,None,481.3644065000117,None,483.06038307994606,None,483.06038307994606,None,483.06038307994606,None,,,,,,,,,,,,,,112,2023-04-06_13h43.27.248,Main,2022.1.1,60.10030740722717,
positive,positive,1,l,j,,,,,,,,,9,1,163,2,,,,,,,,,main,2,2,1,positive,positive,l,l,1,1.8958029999630526,483.0645384999225,484.07709249993786,484.06046940002125,None,483.0645384999225,None,483.0645384999225,None,483.0645384999225,None,485.95819039992057,None,485.95819039992057,None,485.95819039992057,None,,,,,,,,,,,,,,112,2023-04-06_13h43.27.248,Main,2022.1.1,60.10030740722717,
negative,negative,2,j,l,,,,,,,,,9,2,164,9,,,,,,,,,main,2,2,2,negative,negative,j,j,1,0.7537851999513805,486.95783500000834,487.9577970999526,487.94112129998393,None,486.95783500000834,None,486.95783500000834,None,486.95783500000834,None,488.70777568002234,None,488.70777568002234,None,488.70777568002234,None,,,,,,,,,,,,,,112,2023-04-06_13h43.27.248,Main,2022.1.1,60.10030740722717,
negative,negative,1,j,l,,,,,,,,,9,3,165,0,,,,,,,,,main,2,2,1,negative,negative,j,j,1,0.8477352000772953,488.70899559999816,489.72446509997826,489.70779669994954,None,488.70899559999816,None,488.70899559999816,None,488.70899559999816,None,490.55776457991453,None,490.55776457991453,None,490.55776457991453,None,,,,,,,,,,,,,,112,2023-04-06_13h43.27.248,Main,2022.1.1,60.10030740722717,
neutral,neutral,2,k,k,,,,,,,,,9,4,166,10,,,,,,,,,main,1,1,2,neutral,neutral,k,k,1,0.7819213999900967,490.5607201999519,491.5602875999175,491.5602875999175,None,490.5607201999519,None,490.5607201999519,None,490.5607201999519,None,492.34141007999426,None,492.34141007999426,None,492.34141007999426,None,,,,,,,,,,,,,,112,2023-04-06_13h43.27.248,Main,2022.1.1,60.10030740722717,
positive,negative,2,l,j,,,,,,,,,9,5,167,14,,,,,,,,,main,2,2,2,negative,positive,l,l,1,0.7521408000029624,492.3453090999974,493.3601979999803,493.34139780001715,None,492.3453090999974,None,492.3453090999974,None,492.3453090999974,None,494.09492597999053,None,494.09492597999053,None,494.09492597999053,None,,,,,,,,,,,,,,112,2023-04-06_13h43.27.248,Main,2022.1.1,60.10030740722717,
positive,negative,1,l,j,,,,,,,,,9,6,168,5,,,,,,,,,main,2,2,1,negative,positive,l,l,1,0.7109390000114217,494.0990292999195,495.1102261999622,495.09358510002494,None,494.0990292999195,None,494.0990292999195,None,494.0990292999195,None,495.8080272799358,None,495.8080272799358,None,495.8080272799358,None,,,,,,,,,,,,,,112,2023-04-06_13h43.27.248,Main,2022.1.1,60.10030740722717,
neutral,negative,1,k,k,,,,,,,,,9,7,169,7,,,,,,,,,main,1,1,1,negative,neutral,k,k,1,0.6670560000929981,495.8121181000024,496.82682299998123,496.8102516999934,None,495.8121181000024,None,495.8121181000024,None,495.8121181000024,None,497.4766260800185,None,497.4766260800185,None,497.4766260800185,None,,,,,,,,,,,,,,112,2023-04-06_13h43.27.248,Main,2022.1.1,60.10030740722717,
positive,neutral,2,l,j,,,,,,,,,9,8,170,17,,,,,,,,,main,2,2,2,neutral,positive,l,l,1,0.6463040000526235,497.47964979999233,498.4933658000082,498.4768090000143,None,497.47964979999233,None,497.47964979999233,None,497.47964979999233,None,499.12417417999825,None,499.12417417999825,None,499.12417417999825,None,,,,,,,,,,,,,,112,2023-04-06_13h43.27.248,Main,2022.1.1,60.10030740722717,
neutral,neutral,1,k,k,,,,,,,,,9,9,171,1,,,,,,,,,main,1,1,1,neutral,neutral,k,k,1,0.5808359000366181,499.1256050999509,500.14085490000434,500.12420969991945,None,499.1256050999509,None,499.1256050999509,None,499.1256050999509,None,500.70753987997307,None,500.70753987997307,None,500.70753987997307,None,,,,,,,,,,,,,,112,2023-04-06_13h43.27.248,Main,2022.1.1,60.10030740722717,
positive,neutral,1,l,j,,,,,,,,,9,10,172,8,,,,,,,,,main,2,2,1,neutral,positive,l,l,1,0.6988540000747889,500.7075431999983,501.70754700002726,501.70754700002726,None,500.7075431999983,None,500.7075431999983,None,500.7075431999983,None,502.4075569799403,None,502.4075569799403,None,502.4075569799403,None,,,,,,,,,,,,,,112,2023-04-06_13h43.27.248,Main,2022.1.1,60.10030740722717,
negative,positive,2,j,l,,,,,,,,,9,11,173,15,,,,,,,,,main,1,1,2,positive,negative,j,j,1,0.7986104000592604,502.41131959995255,503.42668639996555,503.41008129995316,None,502.41131959995255,None,502.41131959995255,None,502.41131959995255,None,504.2075141800102,None,504.2075141800102,None,504.2075141800102,None,,,,,,,,,,,,,,112,2023-04-06_13h43.27.248,Main,2022.1.1,60.10030740722717,
neutral,negative,2,k,k,,,,,,,,,9,12,174,16,,,,,,,,,main,2,2,2,negative,neutral,k,k,1,0.6169411001028493,504.2145117999753,505.2266096000094,505.2100221000146,None,504.2145117999753,None,504.2145117999753,None,504.2145117999753,None,505.8265771799721,None,505.8265771799721,None,505.8265771799721,None,,,,,,,,,,,,,,112,2023-04-06_13h43.27.248,Main,2022.1.1,60.10030740722717,
negative,neutral,2,j,l,,,,,,,,,9,13,175,12,,,,,,,,,main,2,2,2,neutral,negative,j,j,1,0.8630318000214174,505.8298191999784,506.8432602999965,506.82666379993316,None,505.8298191999784,None,505.8298191999784,None,505.8298191999784,None,507.69136517997833,None,507.69136517997833,None,507.69136517997833,None,,,,,,,,,,,,,,112,2023-04-06_13h43.27.248,Main,2022.1.1,60.10030740722717,
negative,neutral,1,j,l,,,,,,,,,9,14,176,3,,,,,,,,,main,1,1,1,neutral,negative,j,j,1,0.7179020999465138,507.6971779000014,508.70991199999116,508.6932460999815,None,507.6971779000014,None,507.6971779000014,None,507.6971779000014,None,509.4098311799113,None,509.4098311799113,None,509.4098311799113,None,,,,,,,,,,,,,,112,2023-04-06_13h43.27.248,Main,2022.1.1,60.10030740722717,
neutral,positive,2,k,k,,,,,,,,,9,15,177,13,,,,,,,,,main,2,2,2,positive,neutral,k,k,1,0.6473956999834627,509.41426749993116,510.42437749996316,510.4099056000123,None,509.41426749993116,None,509.41426749993116,None,509.41426749993116,None,511.0595573799452,None,511.0595573799452,None,511.0595573799452,None,,,,,,,,,,,,,,112,2023-04-06_13h43.27.248,Main,2022.1.1,60.10030740722717,
positive,positive,2,l,j,,,,,,,,,9,16,178,11,,,,,,,,,main,1,1,2,positive,positive,l,l,1,1.0128663999494165,511.05983909999486,512.0739963999949,512.0573183000088,None,511.05983909999486,None,511.05983909999486,None,511.05983909999486,None,513.0739728799323,None,513.0739728799323,None,513.0739728799323,None,,,,,,,,,,,,,,112,2023-04-06_13h43.27.248,Main,2022.1.1,60.10030740722717,
negative,positive,1,j,l,,,,,,,,,9,17,179,6,,,,,,,,,main,2,2,1,positive,negative,j,j,1,0.8818015999859199,513.0757251000032,514.0906367999269,514.0739722999278,None,513.0757251000032,None,513.0757251000032,None,513.0757251000032,None,514.9572912799428,None,514.9572912799428,None,514.9572912799428,None,,,,,,,,,,,,,,112,2023-04-06_13h43.27.248,Main,2022.1.1,60.10030740722717,
positive,negative,1,l,j,,,,,,,,,10,0,180,5,,,,,,,,,main,2,2,1,negative,positive,l,l,1,0.7175017999252304,514.961039799964,515.9764962999616,515.9598135999404,None,514.961039799964,None,514.961039799964,None,514.961039799964,None,516.6764275799738,None,516.6764275799738,None,516.6764275799738,None,,,,,,,,,,,,,,112,2023-04-06_13h43.27.248,Main,2022.1.1,60.10030740722717,
neutral,negative,1,k,k,,,,,,,,,10,1,181,7,,,,,,,,,main,1,1,1,negative,neutral,k,k,1,0.6306227999739349,516.6795978000155,517.6930377000244,517.6764395999489,None,516.6795978000155,None,516.6795978000155,None,516.6795978000155,None,518.3075509799179,None,518.3075509799179,None,518.3075509799179,None,,,,,,,,,,,,,,112,2023-04-06_13h43.27.248,Main,2022.1.1,60.10030740722717,
negative,positive,1,j,l,,,,,,,,,10,2,182,6,,,,,,,,,main,1,1,1,positive,negative,j,j,1,0.7475134999258444,518.3139127999311,519.3264166000299,519.3097665000241,None,518.3139127999311,None,518.3139127999311,None,518.3139127999311,None,520.0577801799169,None,520.0577801799169,None,520.0577801799169,None,,,,,,,,,,,,,,112,2023-04-06_13h43.27.248,Main,2022.1.1,60.10030740722717,
positive,neutral,2,l,j,,,,,,,,,10,3,183,17,,,,,,,,,main,1,1,2,neutral,positive,l,l,1,0.8150314999511465,520.0642854999751,521.0763761999551,521.0574733000249,None,520.0642854999751,None,520.0642854999751,None,520.0642854999751,None,521.8741686799564,None,521.8741686799564,None,521.8741686799564,None,,,,,,,,,,,,,,112,2023-04-06_13h43.27.248,Main,2022.1.1,60.10030740722717,
positive,positive,2,l,j,,,,,,,,,10,4,184,11,,,,,,,,,main,2,2,2,positive,positive,l,l,1,0.6981569998897612,521.8801034999778,522.8929005999817,522.8763740999857,None,521.8801034999778,None,521.8801034999778,None,521.8801034999778,None,523.5737130799331,None,523.5737130799331,None,523.5737130799331,None,,,,,,,,,,,,,,112,2023-04-06_13h43.27.248,Main,2022.1.1,60.10030740722717,
negative,positive,2,j,l,,,,,,,,,10,5,185,15,,,,,,,,,main,2,2,2,positive,negative,j,j,1,0.7817447999259457,523.5737808999838,524.5737221000018,524.5737221000018,None,523.5737808999838,None,523.5737808999838,None,523.5737808999838,None,525.3570818800014,None,525.3570818800014,None,525.3570818800014,None,,,,,,,,,,,,,,112,2023-04-06_13h43.27.248,Main,2022.1.1,60.10030740722717,
negative,neutral,1,j,l,,,,,,,,,10,6,186,3,,,,,,,,,main,2,2,1,neutral,negative,j,l,0,0.9006625999463722,525.35801909992,526.3570851000259,526.3570851000259,None,525.35801909992,None,525.35801909992,None,525.35801909992,None,527.2570831999183,None,527.2570831999183,None,527.2570831999183,None,,,,,,,,,,,,,,112,2023-04-06_13h43.27.248,Main,2022.1.1,60.10030740722717,
neutral,neutral,1,k,k,,,,,,,,,10,7,187,1,,,,,,,,,main,2,2,1,neutral,neutral,k,k,1,0.685767599963583,528.2576579999877,529.2594796000049,529.2428962999256,None,528.2576579999877,None,528.2576579999877,None,528.2576579999877,None,529.940695580002,None,529.940695580002,None,529.940695580002,None,,,,,,,,,,,,,,112,2023-04-06_13h43.27.248,Main,2022.1.1,60.10030740722717,
neutral,positive,1,k,k,,,,,,,,,10,8,188,4,,,,,,,,,main,1,1,1,positive,neutral,k,k,1,0.7638117000460625,529.9452445999486,530.9594603999285,530.9428474999731,None,529.9452445999486,None,529.9452445999486,None,529.9452445999486,None,531.7072502799798,None,531.7072502799798,None,531.7072502799798,None,,,,,,,,,,,,,,112,2023-04-06_13h43.27.248,Main,2022.1.1,60.10030740722717,
positive,neutral,1,l,j,,,,,,,,,10,9,189,8,,,,,,,,,main,2,2,1,neutral,positive,l,l,1,0.6808999999193475,531.7112425999949,532.7260294000152,532.7095346000278,None,531.7112425999949,None,531.7112425999949,None,531.7112425999949,None,533.3905850799289,None,533.3905850799289,None,533.3905850799289,None,,,,,,,,,,,,,,112,2023-04-06_13h43.27.248,Main,2022.1.1,60.10030740722717,
positive,positive,1,l,j,,,,,,,,,10,10,190,2,,,,,,,,,main,2,2,1,positive,positive,l,l,1,0.7232577000977471,533.396712900023,534.4093463999452,534.3927099999273,None,533.396712900023,None,533.396712900023,None,533.396712900023,None,535.1158861799864,None,535.1158861799864,None,535.1158861799864,None,,,,,,,,,,,,,,112,2023-04-06_13h43.27.248,Main,2022.1.1,60.10030740722717,
negative,negative,1,j,l,,,,,,,,,10,11,191,0,,,,,,,,,main,2,2,1,negative,negative,j,j,1,0.7560001999372616,535.1326112999814,536.1407631000038,536.1070729999337,None,535.1326112999814,None,535.1326112999814,None,535.1326112999814,None,536.8737075799378,None,536.8737075799378,None,536.8737075799378,None,,,,,,,,,,,,,,112,2023-04-06_13h43.27.248,Main,2022.1.1,60.10030740722717,
negative,neutral,2,j,l,,,,,,,,,10,12,192,12,,,,,,,,,main,2,2,2,neutral,negative,j,j,1,0.8152090000221506,536.8777834000066,537.8904072999721,537.8737325000111,None,536.8777834000066,None,536.8777834000066,None,536.8777834000066,None,538.6903516799445,None,538.6903516799445,None,538.6903516799445,None,,,,,,,,,,,,,,112,2023-04-06_13h43.27.248,Main,2022.1.1,60.10030740722717,
neutral,positive,2,k,k,,,,,,,,,10,13,193,13,,,,,,,,,main,2,2,2,positive,neutral,k,j,0,0.6483695999486372,538.6937664999859,539.7070288999239,539.6903466000222,None,538.6937664999859,None,538.6937664999859,None,538.6937664999859,None,540.3403578000143,None,540.3403578000143,None,540.3403578000143,None,,,,,,,,,,,,,,112,2023-04-06_13h43.27.248,Main,2022.1.1,60.10030740722717,
neutral,negative,2,k,k,,,,,,,,,10,14,194,16,,,,,,,,,main,2,2,2,negative,neutral,k,k,1,0.9345463000936434,541.3403309999267,542.3423485999228,542.3236873999704,None,541.3403309999267,None,541.3403309999267,None,541.3403309999267,None,543.2736412799219,None,543.2736412799219,None,543.2736412799219,None,,,,,,,,,,,,,,112,2023-04-06_13h43.27.248,Main,2022.1.1,60.10030740722717,
positive,negative,2,l,j,,,,,,,,,10,15,195,14,,,,,,,,,main,1,1,2,negative,positive,l,l,1,0.748393899993971,543.2786623999709,544.2903469000012,544.273628899944,None,543.2786623999709,None,543.2786623999709,None,543.2786623999709,None,545.0236108799232,None,545.0236108799232,None,545.0236108799232,None,,,,,,,,,,,,,,112,2023-04-06_13h43.27.248,Main,2022.1.1,60.10030740722717,
neutral,neutral,2,k,k,,,,,,,,,10,16,196,10,,,,,,,,,main,2,2,2,neutral,neutral,k,k,1,0.6152042000321671,545.0299204000039,546.0425039000111,546.0236104999203,None,545.0299204000039,None,545.0299204000039,None,545.0299204000039,None,546.6402458800236,None,546.6402458800236,None,546.6402458800236,None,,,,,,,,,,,,,,112,2023-04-06_13h43.27.248,Main,2022.1.1,60.10030740722717,
negative,negative,2,j,l,,,,,,,,,10,17,197,9,,,,,,,,,main,1,1,2,negative,negative,j,j,1,0.8181882000062615,546.6436759999488,547.6556052999804,547.6395139999222,None,546.6436759999488,None,546.6436759999488,None,546.6436759999488,None,548.4565290799598,None,548.4565290799598,None,548.4565290799598,None,,,,,,,,,,,,,,112,2023-04-06_13h43.27.248,Main,2022.1.1,60.10030740722717,
positive,neutral,2,l,j,,,,,,,,,11,0,198,17,,,,,,,,,main,1,1,2,neutral,positive,l,l,1,0.7142561000073329,548.459589999984,549.4733415999217,549.4565631999867,None,548.459589999984,None,548.459589999984,None,548.459589999984,None,550.1758160799742,None,550.1758160799742,None,550.1758160799742,None,,,,,,,,,,,,,,112,2023-04-06_13h43.27.248,Main,2022.1.1,60.10030740722717,
negative,neutral,2,j,l,,,,,,,,,11,1,199,12,,,,,,,,,main,2,2,2,neutral,negative,j,j,1,0.7802979999687523,550.1784702999284,551.1924177999608,551.1758223000215,None,550.1784702999284,None,550.1784702999284,None,550.1784702999284,None,551.9568885800196,None,551.9568885800196,None,551.9568885800196,None,,,,,,,,,,,,,,112,2023-04-06_13h43.27.248,Main,2022.1.1,60.10030740722717,
positive,negative,1,l,j,,,,,,,,,11,2,200,5,,,,,,,,,main,2,2,1,negative,positive,l,l,1,0.7977127999765798,551.9630385999335,552.9756590999896,552.9590804999461,None,551.9630385999335,None,551.9630385999335,None,551.9630385999335,None,553.7565376799554,None,553.7565376799554,None,553.7565376799554,None,,,,,,,,,,,,,,112,2023-04-06_13h43.27.248,Main,2022.1.1,60.10030740722717,
neutral,neutral,1,k,k,,,,,,,,,11,3,201,1,,,,,,,,,main,2,2,1,neutral,neutral,k,k,1,0.6484359999885783,553.7629637999926,554.7756255000131,554.7590045999968,None,553.7629637999926,None,553.7629637999926,None,553.7629637999926,None,555.4068121799734,None,555.4068121799734,None,555.4068121799734,None,,,,,,,,,,,,,,112,2023-04-06_13h43.27.248,Main,2022.1.1,60.10030740722717,
negative,negative,1,j,l,,,,,,,,,11,4,202,0,,,,,,,,,main,1,1,1,negative,negative,j,j,1,0.8310481000225991,555.4108211999992,556.4256228000158,556.4090142999776,None,555.4108211999992,None,555.4108211999992,None,555.4108211999992,None,557.2401796799619,None,557.2401796799619,None,557.2401796799619,None,,,,,,,,,,,,,,112,2023-04-06_13h43.27.248,Main,2022.1.1,60.10030740722717,
neutral,neutral,2,k,k,,,,,,,,,11,5,203,10,,,,,,,,,main,2,2,2,neutral,neutral,k,k,1,0.7481715999310836,557.243619899964,558.2563738999888,558.2397204999579,None,557.243619899964,None,557.243619899964,None,557.243619899964,None,558.9897005799227,None,558.9897005799227,None,558.9897005799227,None,,,,,,,,,,,,,,112,2023-04-06_13h43.27.248,Main,2022.1.1,60.10030740722717,
neutral,negative,2,k,k,,,,,,,,,11,6,204,16,,,,,,,,,main,2,2,2,negative,neutral,k,k,1,0.6330170000437647,558.9900797000155,559.9897414000006,559.9897414000006,None,558.9900797000155,None,558.9900797000155,None,558.9900797000155,None,560.6233589799609,None,560.6233589799609,None,560.6233589799609,None,,,,,,,,,,,,,,112,2023-04-06_13h43.27.248,Main,2022.1.1,60.10030740722717,
neutral,negative,1,k,k,,,,,,,,,11,7,205,7,,,,,,,,,main,1,1,1,negative,neutral,k,k,1,0.7476043999195099,560.6273406000109,561.6421501999721,561.6255526000168,None,560.6273406000109,None,560.6273406000109,None,560.6273406000109,None,562.3733429799555,None,562.3733429799555,None,562.3733429799555,None,,,,,,,,,,,,,,112,2023-04-06_13h43.27.248,Main,2022.1.1,60.10030740722717,
positive,negative,2,l,j,,,,,,,,,11,8,206,14,,,,,,,,,main,2,2,2,negative,positive,l,l,1,0.6816528000636026,562.3770461999811,563.3920933000045,563.3755140999565,None,562.3770461999811,None,562.3770461999811,None,562.3770461999811,None,564.0566335799173,None,564.0566335799173,None,564.0566335799173,None,,,,,,,,,,,,,,112,2023-04-06_13h43.27.248,Main,2022.1.1,60.10030740722717,
positive,positive,2,l,j,,,,,,,,,11,9,207,11,,,,,,,,,main,2,2,2,positive,positive,l,l,1,1.1819274999434128,564.0630290999543,565.0754172999877,565.056628499995,None,564.0630290999543,None,564.0630290999543,None,564.0630290999543,None,566.239920179965,None,566.239920179965,None,566.239920179965,None,,,,,,,,,,,,,,112,2023-04-06_13h43.27.248,Main,2022.1.1,60.10030740722717,
negative,neutral,1,j,l,,,,,,,,,11,10,208,3,,,,,,,,,main,2,2,1,neutral,negative,j,j,1,0.6982963000191376,566.2456115999958,567.2586920999456,567.2420857999241,None,566.2456115999958,None,566.2456115999958,None,566.2456115999958,None,567.9398811799707,None,567.9398811799707,None,567.9398811799707,None,,,,,,,,,,,,,,112,2023-04-06_13h43.27.248,Main,2022.1.1,60.10030740722717,
positive,positive,1,l,j,,,,,,,,,11,11,209,2,,,,,,,,,main,2,2,1,positive,positive,l,l,1,0.7649905000580475,567.9455632999307,568.9561274999287,568.9394620999228,None,567.9455632999307,None,567.9455632999307,None,567.9455632999307,None,569.706095379917,None,569.706095379917,None,569.706095379917,None,,,,,,,,,,,,,,112,2023-04-06_13h43.27.248,Main,2022.1.1,60.10030740722717,
negative,positive,1,j,l,,,,,,,,,11,12,210,6,,,,,,,,,main,2,2,1,positive,negative,j,j,1,0.7149840000784025,569.706205299939,570.7061718999175,570.7061718999175,None,569.706205299939,None,569.706205299939,None,569.706205299939,None,571.4228116799146,None,571.4228116799146,None,571.4228116799146,None,,,,,,,,,,,,,,112,2023-04-06_13h43.27.248,Main,2022.1.1,60.10030740722717,
negative,negative,2,j,l,,,,,,,,,11,13,211,9,,,,,,,,,main,1,1,2,negative,negative,j,j,1,0.7518685000250116,571.4234153999714,572.4228423999157,572.4228423999157,None,571.4234153999714,None,571.4234153999714,None,571.4234153999714,None,573.176099579921,None,573.176099579921,None,573.176099579921,None,,,,,,,,,,,,,,112,2023-04-06_13h43.27.248,Main,2022.1.1,60.10030740722717,
neutral,positive,2,k,k,,,,,,,,,11,14,212,13,,,,,,,,,main,2,2,2,positive,neutral,k,k,1,0.7836890999460593,573.1804042999865,574.1919657000108,574.1753054999281,None,573.1804042999865,None,573.1804042999865,None,573.1804042999865,None,574.9615448799683,None,574.9615448799683,None,574.9615448799683,None,,,,,,,,,,,,,,112,2023-04-06_13h43.27.248,Main,2022.1.1,60.10030740722717,
positive,neutral,1,l,j,,,,,,,,,11,15,213,8,,,,,,,,,main,2,2,1,neutral,positive,l,l,1,0.7264006000477821,574.9753930999432,575.9753032999579,575.958610599977,None,574.9753930999432,None,574.9753930999432,None,574.9753930999432,None,576.6897018800024,None,576.6897018800024,None,576.6897018800024,None,,,,,,,,,,,,,,112,2023-04-06_13h43.27.248,Main,2022.1.1,60.10030740722717,
negative,positive,2,j,l,,,,,,,,,11,16,214,15,,,,,,,,,main,1,1,2,positive,negative,j,j,1,0.7006305999821052,576.7085825999966,577.7085024999687,577.6919326999923,None,576.7085825999966,None,576.7085825999966,None,576.7085825999966,None,578.3920113799628,None,578.3920113799628,None,578.3920113799628,None,,,,,,,,,,,,,,112,2023-04-06_13h43.27.248,Main,2022.1.1,60.10030740722717,
neutral,positive,1,k,k,,,,,,,,,11,17,215,4,,,,,,,,,main,2,2,1,positive,neutral,k,k,1,0.6638010999886319,578.3947197999805,579.408382399939,579.3918551999377,None,578.3947197999805,None,578.3947197999805,None,578.3947197999805,None,580.0569328799844,None,580.0569328799844,None,580.0569328799844,None,,,,,,,,,,,,,,112,2023-04-06_13h43.27.248,Main,2022.1.1,60.10030740722717,
positive,negative,1,l,j,,,,,,,,,12,0,216,5,,,,,,,,,main,2,2,1,negative,positive,l,l,1,0.7806873000226915,580.0630403999239,581.0725568999769,581.0559793999419,None,580.0630403999239,None,580.0630403999239,None,580.0630403999239,None,581.8391957800137,None,581.8391957800137,None,581.8391957800137,None,,,,,,,,,,,,,,112,2023-04-06_13h43.27.248,Main,2022.1.1,60.10030740722717,
neutral,negative,1,k,k,,,,,,,,,12,1,217,7,,,,,,,,,main,2,2,1,negative,neutral,k,k,1,0.5982811000430956,581.839222199982,582.8392744999146,582.8392744999146,None,581.839222199982,None,581.839222199982,None,581.839222199982,None,583.4392316799145,None,583.4392316799145,None,583.4392316799145,None,,,,,,,,,,,,,,112,2023-04-06_13h43.27.248,Main,2022.1.1,60.10030740722717,
neutral,neutral,1,k,k,,,,,,,,,12,2,218,1,,,,,,,,,main,1,1,1,neutral,neutral,k,k,1,0.7354069999419153,583.4399771000026,584.4392785999225,584.4392785999225,None,583.4399771000026,None,583.4399771000026,None,583.4399771000026,None,585.1750484799501,None,585.1750484799501,None,585.1750484799501,None,,,,,,,,,,,,,,112,2023-04-06_13h43.27.248,Main,2022.1.1,60.10030740722717,
positive,negative,2,l,j,,,,,,,,,12,3,219,14,,,,,,,,,main,1,1,2,negative,positive,l,l,1,0.7306677999440581,585.179439599975,586.1917235000292,586.1750954999588,None,585.179439599975,None,585.179439599975,None,585.179439599975,None,586.9084387800191,None,586.9084387800191,None,586.9084387800191,None,,,,,,,,,,,,,,112,2023-04-06_13h43.27.248,Main,2022.1.1,60.10030740722717,
negative,positive,1,j,l,,,,,,,,,12,4,220,6,,,,,,,,,main,1,1,1,positive,negative,j,j,1,0.6457693000556901,586.9113367999671,587.9249736999627,587.9083970999345,None,586.9113367999671,None,586.9113367999671,None,586.9113367999671,None,588.5558173799888,None,588.5558173799888,None,588.5558173799888,None,,,,,,,,,,,,,,112,2023-04-06_13h43.27.248,Main,2022.1.1,60.10030740722717,
positive,neutral,1,l,j,,,,,,,,,12,5,221,8,,,,,,,,,main,2,2,1,neutral,positive,l,l,1,0.5979541999986395,588.5628054999979,589.5750508999918,589.5583136000205,None,588.5628054999979,None,588.5628054999979,None,588.5628054999979,None,590.1557966799243,None,590.1557966799243,None,590.1557966799243,None,,,,,,,,,,,,,,112,2023-04-06_13h43.27.248,Main,2022.1.1,60.10030740722717,
neutral,positive,2,k,k,,,,,,,,,12,6,222,13,,,,,,,,,main,2,2,2,positive,neutral,k,k,1,0.5819724999601021,590.1623432999477,591.1727826999268,591.1559416999808,None,590.1623432999477,None,590.1623432999477,None,590.1623432999477,None,591.7394420799334,None,591.7394420799334,None,591.7394420799334,None,,,,,,,,,,,,,,112,2023-04-06_13h43.27.248,Main,2022.1.1,60.10030740722717,
positive,neutral,2,l,j,,,,,,,,,12,7,223,17,,,,,,,,,main,2,2,2,neutral,positive,l,l,1,0.6649426999501884,591.7454467000207,592.7556763999164,592.7390134999296,None,591.7454467000207,None,591.7454467000207,None,591.7454467000207,None,593.4056241800077,None,593.4056241800077,None,593.4056241800077,None,,,,,,,,,,,,,,112,2023-04-06_13h43.27.248,Main,2022.1.1,60.10030740722717,
