target,distractor,set,ans1,ans2,rep_loop2.thisRepN,rep_loop2.thisTrialN,rep_loop2.thisN,rep_loop2.thisIndex,flanker_prac_loop.thisRepN,flanker_prac_loop.thisTrialN,flanker_prac_loop.thisN,flanker_prac_loop.thisIndex,flanker_main_loop.thisRepN,flanker_main_loop.thisTrialN,flanker_main_loop.thisN,flanker_main_loop.thisIndex,fl_inst_resp.keys,fl_inst_resp.rt,sound_1.started,sound_1.stopped,image_4.started,image_4.stopped,back_2.started,back_2.stopped,main_prac,fl_cold,fl_colt,fl_set,fl_dcond,fl_tcond,fl_ans,fl_res,fl_corr,fl_rt,fix_fl.started,fix_fl.stopped,targ.started,targ.stopped,j_button.started,j_button.stopped,k_button.started,k_button.stopped,l_button.started,l_button.stopped,j_button2.started,j_button2.stopped,k_button2.started,k_button2.stopped,l_button2.started,l_button2.stopped,mainback.started,mainback.stopped,key_resp.keys,key_resp.rt,mouse_6.x,mouse_6.y,mouse_6.leftButton,mouse_6.midButton,mouse_6.rightButton,mouse_6.started,mouse_6.stopped,text_2.started,text_2.stopped,id*,date,expName,psychopyVersion,frameRate,
,,,,,0,0,0,0,,,,,,,,,space,50.92134490003809,23.82783228990156,None,74.77423999994062,None,,,,,,,,,,,,,,,,,,,,,,,,,,,,,,,,,,,,,,,,,,201,2023-03-27_12h58.36.203,Main,2022.1.1,59.87245962146879,
negative,negative,1,j,l,,,,,0,0,0,0,,,,,,,,,,,78.79345779982395,None,prac,2,2,1,negative,negative,l,k,0,3.5603132999967784,80.79940899997018,81.80732689984143,81.7906729998067,None,80.79940899997018,None,80.79940899997018,None,80.79940899997018,None,85.3626061999239,None,85.3626061999239,None,85.3626061999239,None,,,,,,,,,,,,,,201,2023-03-27_12h58.36.203,Main,2022.1.1,59.87245962146879,
positive,positive,2,l,j,,,,,0,1,1,11,,,,,,,,,,,,,prac,2,2,2,positive,positive,j,j,1,1.2507962000090629,86.37527449987829,87.39054829999804,87.35728709981777,None,86.37527449987829,None,86.37527449987829,None,86.37527449987829,None,88.6238101899391,None,88.6238101899391,None,88.6238101899391,None,,,,,,,,,,,,,,201,2023-03-27_12h58.36.203,Main,2022.1.1,59.87245962146879,
negative,neutral,2,j,l,,,,,0,2,2,12,,,,,,,,,,,,,prac,2,2,2,neutral,negative,l,l,1,1.0984055998269469,88.62765569984913,89.64051109994762,89.6238496999722,None,88.62765569984913,None,88.62765569984913,None,88.62765569984913,None,90.7238042898709,None,90.7238042898709,None,90.7238042898709,None,,,,,,,,,,,,,,201,2023-03-27_12h58.36.203,Main,2022.1.1,59.87245962146879,
negative,positive,2,j,l,,,,,0,3,3,15,,,,,,,,,,,,,prac,2,2,2,positive,negative,l,l,1,0.9026711999904364,90.7271044999361,91.72674389998429,91.72674389998429,None,90.7271044999361,None,90.7271044999361,None,90.7271044999361,None,92.62380258988124,None,92.62380258988124,None,92.62380258988124,None,,,,,,,,,,,,,,201,2023-03-27_12h58.36.203,Main,2022.1.1,59.87245962146879,
negative,negative,2,j,l,,,,,0,4,4,9,,,,,,,,,,,,,prac,1,1,2,negative,negative,l,l,1,0.9611492999829352,92.63171729980968,93.64313609991223,93.62377659999765,None,92.63171729980968,None,92.63171729980968,None,92.63171729980968,None,94.59040308992844,None,94.59040308992844,None,94.59040308992844,None,,,,,,,,,,,,,,201,2023-03-27_12h58.36.203,Main,2022.1.1,59.87245962146879,
neutral,negative,1,k,k,,,,,0,5,5,7,,,,,,,,,,,,,prac,1,1,1,negative,neutral,k,k,1,0.8820198997855186,94.59673379990272,95.60705629992299,95.59319859999232,None,94.59673379990272,None,94.59673379990272,None,94.59673379990272,None,96.47374798979145,None,96.47374798979145,None,96.47374798979145,None,,,,,,,,,,,,,,201,2023-03-27_12h58.36.203,Main,2022.1.1,59.87245962146879,
neutral,positive,2,k,k,,,,,0,6,6,13,,,,,,,,,,,,,prac,1,1,2,positive,neutral,k,k,1,0.8150623999536037,96.476994499797,97.49032899993472,97.47366259992123,None,96.476994499797,None,96.476994499797,None,96.476994499797,None,98.2902938899817,None,98.2902938899817,None,98.2902938899817,None,,,,,,,,,,,,,,201,2023-03-27_12h58.36.203,Main,2022.1.1,59.87245962146879,
positive,positive,1,l,j,,,,,0,7,7,2,,,,,,,,,,,,,prac,2,2,1,positive,positive,j,j,1,1.2824320001527667,98.29312019981444,99.30697989999317,99.29028919991106,None,98.29312019981444,None,98.29312019981444,None,98.29312019981444,None,100.57369828985539,None,100.57369828985539,None,100.57369828985539,None,,,,,,,,,,,,,,201,2023-03-27_12h58.36.203,Main,2022.1.1,59.87245962146879,
negative,positive,1,j,l,,,,,0,8,8,6,,,,,,,,,,,,,prac,2,2,1,positive,negative,l,l,1,1.331017900025472,100.57784699997865,101.59029249986634,101.57646349980496,None,100.57784699997865,None,100.57784699997865,None,100.57784699997865,None,102.90695998996962,None,102.90695998996962,None,102.90695998996962,None,,,,,,,,,,,,,,201,2023-03-27_12h58.36.203,Main,2022.1.1,59.87245962146879,
positive,neutral,2,l,j,,,,,0,9,9,17,,,,,,,,,,,,,prac,1,1,2,neutral,positive,j,j,1,0.9319553000386804,102.91007240000181,103.9235747999046,103.90691209980287,None,102.91007240000181,None,102.91007240000181,None,102.91007240000181,None,104.8401845900109,None,104.8401845900109,None,104.8401845900109,None,,,,,,,,,,,,,,201,2023-03-27_12h58.36.203,Main,2022.1.1,59.87245962146879,
neutral,neutral,2,k,k,,,,,0,10,10,10,,,,,,,,,,,,,prac,1,1,2,neutral,neutral,k,k,1,0.8152244000229985,104.84331619995646,105.8568792999722,105.82354429992847,None,104.84331619995646,None,104.84331619995646,None,104.84331619995646,None,106.65680718997028,None,106.65680718997028,None,106.65680718997028,None,,,,,,,,,,,,,,201,2023-03-27_12h58.36.203,Main,2022.1.1,59.87245962146879,
neutral,negative,2,k,k,,,,,0,11,11,16,,,,,,,,,,,,,prac,1,1,2,negative,neutral,k,k,1,0.6821760998573154,106.6595934999641,107.6762212999165,107.64030229998752,None,106.6595934999641,None,106.6595934999641,None,106.6595934999641,None,108.3401030899724,None,108.3401030899724,None,108.3401030899724,None,,,,,,,,,,,,,,201,2023-03-27_12h58.36.203,Main,2022.1.1,59.87245962146879,
positive,neutral,1,l,j,,,,,0,12,12,8,,,,,,,,,,,,,prac,2,2,1,neutral,positive,j,j,1,0.7817919000517577,108.34365069982596,109.35687639983371,109.34023899980821,None,108.34365069982596,None,108.34365069982596,None,108.34365069982596,None,110.12343258985784,None,110.12343258985784,None,110.12343258985784,None,,,,,,,,,,,,,,201,2023-03-27_12h58.36.203,Main,2022.1.1,59.87245962146879,
positive,negative,2,l,j,,,,,0,13,13,14,,,,,,,,,,,,,prac,2,2,2,negative,positive,j,j,1,0.86504409997724,110.12624349980615,111.14281389978714,111.12343819998205,None,110.12624349980615,None,110.12624349980615,None,110.12624349980615,None,111.98979338996578,None,111.98979338996578,None,111.98979338996578,None,,,,,,,,,,,,,,201,2023-03-27_12h58.36.203,Main,2022.1.1,59.87245962146879,
neutral,positive,1,k,k,,,,,0,14,14,4,,,,,,,,,,,,,prac,2,2,1,positive,neutral,k,k,1,0.8982265999075025,111.99702109978534,113.00673879985698,112.99007849977352,None,111.99702109978534,None,111.99702109978534,None,111.99702109978534,None,113.89002648990136,None,113.89002648990136,None,113.89002648990136,None,,,,,,,,,,,,,,201,2023-03-27_12h58.36.203,Main,2022.1.1,59.87245962146879,
positive,negative,1,l,j,,,,,0,15,15,5,,,,,,,,,,,,,prac,1,1,1,negative,positive,j,j,1,0.8820081998128444,113.89308129996061,114.89277819986455,114.89277819986455,None,113.89308129996061,None,113.89308129996061,None,113.89308129996061,None,115.77333188981284,None,115.77333188981284,None,115.77333188981284,None,,,,,,,,,,,,,,201,2023-03-27_12h58.36.203,Main,2022.1.1,59.87245962146879,
neutral,neutral,1,k,k,,,,,0,16,16,1,,,,,,,,,,,,,prac,2,2,1,neutral,neutral,k,k,1,0.8511981000192463,115.77656669984572,116.78996999980882,116.75663119996898,None,115.77656669984572,None,115.77656669984572,None,115.77656669984572,None,117.62600968980696,None,117.62600968980696,None,117.62600968980696,None,,,,,,,,,,,,,,201,2023-03-27_12h58.36.203,Main,2022.1.1,59.87245962146879,
negative,neutral,1,j,l,,,,,0,17,17,3,,,,,,,,,,,,,prac,1,1,1,neutral,negative,l,l,1,0.6961398001294583,117.62856639991514,118.63996219984256,118.62332199979573,None,117.62856639991514,None,117.62856639991514,None,117.62856639991514,None,119.32321648991201,None,119.32321648991201,None,119.32321648991201,None,,,,,,,,,,,,,,201,2023-03-27_12h58.36.203,Main,2022.1.1,59.87245962146879,
positive,neutral,2,l,j,,,,,1,0,18,17,,,,,,,,,,,,,prac,2,2,2,neutral,positive,j,j,1,0.6818661999423057,119.32869199989364,120.33989289985038,120.32323439978063,None,119.32869199989364,None,119.32869199989364,None,119.32869199989364,None,121.00655028985348,None,121.00655028985348,None,121.00655028985348,None,,,,,,,,,,,,,,201,2023-03-27_12h58.36.203,Main,2022.1.1,59.87245962146879,
negative,positive,1,j,l,,,,,1,1,19,6,,,,,,,,,,,,,prac,1,1,1,positive,negative,l,l,1,1.4155135001055896,121.00955739989877,122.02334029995836,122.00659609981813,None,121.00955739989877,None,121.00955739989877,None,121.00955739989877,None,123.4231456899317,None,123.4231456899317,None,123.4231456899317,None,,,,,,,,,,,,,,201,2023-03-27_12h58.36.203,Main,2022.1.1,59.87245962146879,
positive,negative,1,l,j,,,,,1,2,20,5,,,,,,,,,,,,,prac,2,2,1,negative,positive,j,j,1,0.7693337998352945,123.4265539997723,124.42315249983221,124.42315249983221,None,123.4265539997723,None,123.4265539997723,None,123.4265539997723,None,125.18992238997016,None,125.18992238997016,None,125.18992238997016,None,,,,,,,,,,,,,,201,2023-03-27_12h58.36.203,Main,2022.1.1,59.87245962146879,
negative,neutral,1,j,l,,,,,1,3,21,3,,,,,,,,,,,,,prac,2,2,1,neutral,negative,l,l,1,0.8790935000870377,125.19668429996818,126.20661429991014,126.1898217999842,None,125.19668429996818,None,125.19668429996818,None,125.19668429996818,None,127.07326528981794,None,127.07326528981794,None,127.07326528981794,None,,,,,,,,,,,,,,201,2023-03-27_12h58.36.203,Main,2022.1.1,59.87245962146879,
neutral,neutral,2,k,k,,,,,1,4,22,10,,,,,,,,,,,,,prac,1,1,2,neutral,neutral,k,k,1,0.780514599988237,127.08143369993195,128.08977949991822,128.07310479995795,None,127.08143369993195,None,127.08143369993195,None,127.08143369993195,None,128.85638838999438,None,128.85638838999438,None,128.85638838999438,None,,,,,,,,,,,,,,201,2023-03-27_12h58.36.203,Main,2022.1.1,59.87245962146879,
positive,negative,2,l,j,,,,,1,5,23,14,,,,,,,,,,,,,prac,2,2,2,negative,positive,j,j,1,0.7989778998307884,128.85938009992242,129.87306879996322,129.83983249985613,None,128.85938009992242,None,128.85938009992242,None,128.85938009992242,None,130.65680558995808,None,130.65680558995808,None,130.65680558995808,None,,,,,,,,,,,,,,201,2023-03-27_12h58.36.203,Main,2022.1.1,59.87245962146879,
negative,negative,1,j,l,,,,,1,6,24,0,,,,,,,,,,,,,prac,2,2,1,negative,negative,l,l,1,0.8318841999862343,130.66262459987774,131.67304399982095,131.6563842999749,None,130.66262459987774,None,130.66262459987774,None,130.66262459987774,None,132.48965158981736,None,132.48965158981736,None,132.48965158981736,None,,,,,,,,,,,,,,201,2023-03-27_12h58.36.203,Main,2022.1.1,59.87245962146879,
positive,positive,2,l,j,,,,,1,7,25,11,,,,,,,,,,,,,prac,1,1,2,positive,positive,j,j,1,0.681667499942705,132.4937154999934,133.5063407998532,133.4924461999908,None,132.4937154999934,None,132.4937154999934,None,132.4937154999934,None,134.17296818986068,None,134.17296818986068,None,134.17296818986068,None,,,,,,,,,,,,,,201,2023-03-27_12h58.36.203,Main,2022.1.1,59.87245962146879,
positive,positive,1,l,j,,,,,1,8,26,2,,,,,,,,,,,,,prac,1,1,1,positive,positive,j,j,1,0.7318842001259327,134.17578749987297,135.1896548999939,135.1731307997834,None,134.17578749987297,None,134.17578749987297,None,134.17578749987297,None,135.9062523899367,None,135.9062523899367,None,135.9062523899367,None,,,,,,,,,,,,,,201,2023-03-27_12h58.36.203,Main,2022.1.1,59.87245962146879,
positive,neutral,1,l,j,,,,,1,9,27,8,,,,,,,,,,,,,prac,2,2,1,neutral,positive,j,j,1,0.6983298000413924,135.90928409993649,136.92293669981882,136.9062558999285,None,135.90928409993649,None,135.90928409993649,None,135.90928409993649,None,137.60600758988875,None,137.60600758988875,None,137.60600758988875,None,,,,,,,,,,,,,,201,2023-03-27_12h58.36.203,Main,2022.1.1,59.87245962146879,
negative,positive,2,j,l,,,,,1,10,28,15,,,,,,,,,,,,,prac,2,2,2,positive,negative,l,l,1,0.7865130000282079,137.60864699981175,138.6230017999187,138.5895784997847,None,137.60864699981175,None,137.60864699981175,None,137.60864699981175,None,139.39362528983037,None,139.39362528983037,None,139.39362528983037,None,,,,,,,,,,,,,,201,2023-03-27_12h58.36.203,Main,2022.1.1,59.87245962146879,
neutral,positive,1,k,k,,,,,1,11,29,4,,,,,,,,,,,,,prac,2,2,1,positive,neutral,k,k,1,0.7448504997882992,139.3974113999866,140.40886779990979,140.3895170998294,None,139.3974113999866,None,139.3974113999866,None,139.3974113999866,None,141.1395378899062,None,141.1395378899062,None,141.1395378899062,None,,,,,,,,,,,,,,201,2023-03-27_12h58.36.203,Main,2022.1.1,59.87245962146879,
negative,neutral,2,j,l,,,,,1,12,30,12,,,,,,,,,,,,,prac,2,2,2,neutral,negative,l,l,1,0.8312511998228729,141.1460066998843,142.156158400001,142.13948939996772,None,141.1460066998843,None,141.1460066998843,None,141.1460066998843,None,142.97279518998693,None,142.97279518998693,None,142.97279518998693,None,,,,,,,,,,,,,,201,2023-03-27_12h58.36.203,Main,2022.1.1,59.87245962146879,
neutral,negative,1,k,k,,,,,1,13,31,7,,,,,,,,,,,,,prac,1,1,1,negative,neutral,k,k,1,0.7322638998739421,142.97586809983477,143.99221189995296,143.9728830999229,None,142.97586809983477,None,142.97586809983477,None,142.97586809983477,None,144.7060765898088,None,144.7060765898088,None,144.7060765898088,None,,,,,,,,,,,,,,201,2023-03-27_12h58.36.203,Main,2022.1.1,59.87245962146879,
neutral,negative,2,k,k,,,,,1,14,32,16,,,,,,,,,,,,,prac,1,1,2,negative,neutral,k,k,1,0.6817711000330746,144.70927649992518,145.72558899992146,145.70611699996516,None,144.70927649992518,None,144.70927649992518,None,144.70927649992518,None,146.38936598987783,None,146.38936598987783,None,146.38936598987783,None,,,,,,,,,,,,,,201,2023-03-27_12h58.36.203,Main,2022.1.1,59.87245962146879,
negative,negative,2,j,l,,,,,1,15,33,9,,,,,,,,,,,,,prac,2,2,2,negative,negative,l,l,1,0.7821280998177826,146.39448609994724,147.40605679992586,147.38938690000214,None,146.39448609994724,None,146.39448609994724,None,146.39448609994724,None,148.1726565898163,None,148.1726565898163,None,148.1726565898163,None,,,,,,,,,,,,,,201,2023-03-27_12h58.36.203,Main,2022.1.1,59.87245962146879,
neutral,positive,2,k,k,,,,,1,16,34,13,,,,,,,,,,,,,prac,2,2,2,positive,neutral,k,k,1,0.7990436998661608,148.17618799977936,149.17271729977801,149.17271729977801,None,148.17618799977936,None,148.17618799977936,None,148.17618799977936,None,149.97267118997405,None,149.97267118997405,None,149.97267118997405,None,,,,,,,,,,,,,,201,2023-03-27_12h58.36.203,Main,2022.1.1,59.87245962146879,
neutral,neutral,1,k,k,,,,,1,17,35,1,,,,,,,,,,,,,prac,1,1,1,neutral,neutral,k,k,1,0.6978066000156105,149.97600339981727,150.9893406999763,150.97267979988828,None,149.97600339981727,None,149.97600339981727,None,149.97600339981727,None,151.6723619899014,None,151.6723619899014,None,151.6723619899014,None,,,,,,,,,,,,,,201,2023-03-27_12h58.36.203,Main,2022.1.1,59.87245962146879,
,,,,,,,,,,,,,,,,,,,,,,,,,,,,,,,,,,,,,,,,,,,,,,,,,,,151.67265849979594,None,space,5.542696800082922,,,,,,,,,,201,2023-03-27_12h58.36.203,Main,2022.1.1,59.87245962146879,
,,,,,,,,,,,,,,,,,,,,,,,,,,,,,,,,,,,,,,,,,,,,,,,,,,,,,,,0.6925926,-0.30277777,0,0,0,0.01116769015789032,None,,,201,2023-03-27_12h58.36.203,Main,2022.1.1,59.87245962146879,
negative,neutral,1,j,l,,,,,,,,,0,0,0,3,,,,,,,157.24191789980978,None,main,1,1,1,neutral,negative,l,l,1,0.8453708000015467,159.24636389990337,160.25852529983968,160.2392736999318,None,159.24636389990337,None,159.24636389990337,None,159.24636389990337,None,161.08905918982344,None,161.08905918982344,None,161.08905918982344,None,,,,,,,,,,,,,,201,2023-03-27_12h58.36.203,Main,2022.1.1,59.87245962146879,
positive,negative,1,l,j,,,,,,,,,0,1,1,5,,,,,,,,,main,2,2,1,negative,positive,j,j,1,0.7131568000186235,161.09438219992444,162.1057871999219,162.0891065998003,None,161.09438219992444,None,161.09438219992444,None,161.09438219992444,None,162.80573938989545,None,162.80573938989545,None,162.80573938989545,None,,,,,,,,,,,,,,201,2023-03-27_12h58.36.203,Main,2022.1.1,59.87245962146879,
neutral,negative,1,k,k,,,,,,,,,0,2,2,7,,,,,,,,,main,1,1,1,negative,neutral,k,k,1,0.6143044999334961,162.81036419980228,163.82241689995863,163.80573759996332,None,162.81036419980228,None,162.81036419980228,None,162.81036419980228,None,164.42237058996687,None,164.42237058996687,None,164.42237058996687,None,,,,,,,,,,,,,,201,2023-03-27_12h58.36.203,Main,2022.1.1,59.87245962146879,
neutral,neutral,2,k,k,,,,,,,,,0,3,3,10,,,,,,,,,main,1,1,2,neutral,neutral,k,k,1,0.631855399813503,164.42790289991535,165.44181799981743,165.42235319991596,None,164.42790289991535,None,164.42790289991535,None,164.42790289991535,None,166.05567248996812,None,166.05567248996812,None,166.05567248996812,None,,,,,,,,,,,,,,201,2023-03-27_12h58.36.203,Main,2022.1.1,59.87245962146879,
neutral,negative,2,k,k,,,,,,,,,0,4,4,16,,,,,,,,,main,2,2,2,negative,neutral,k,k,1,0.5479501001536846,166.0595302998554,167.07231509988196,167.05846609990112,None,166.0595302998554,None,166.0595302998554,None,166.0595302998554,None,167.60564049000385,None,167.60564049000385,None,167.60564049000385,None,,,,,,,,,,,,,,201,2023-03-27_12h58.36.203,Main,2022.1.1,59.87245962146879,
negative,positive,2,j,l,,,,,,,,,0,5,5,15,,,,,,,,,main,1,1,2,positive,negative,l,l,1,0.7819453000556678,167.60886129993014,168.62231149990112,168.60563439992256,None,167.60886129993014,None,167.60886129993014,None,167.60886129993014,None,169.38892408988903,None,169.38892408988903,None,169.38892408988903,None,,,,,,,,,,,,,,201,2023-03-27_12h58.36.203,Main,2022.1.1,59.87245962146879,
neutral,positive,2,k,k,,,,,,,,,0,6,6,13,,,,,,,,,main,1,1,2,positive,neutral,k,k,1,0.6151058000978082,169.3921656999737,170.40834169997834,170.39166149985977,None,169.3921656999737,None,169.3921656999737,None,169.3921656999737,None,171.00558988999109,None,171.00558988999109,None,171.00558988999109,None,,,,,,,,,,,,,,201,2023-03-27_12h58.36.203,Main,2022.1.1,59.87245962146879,
positive,neutral,2,l,j,,,,,,,,,0,7,7,17,,,,,,,,,main,2,2,2,neutral,positive,j,j,1,0.6984242999460548,171.00906789978035,172.02225619996898,172.005597199779,None,171.00906789978035,None,171.00906789978035,None,171.00906789978035,None,172.70555928994435,None,172.70555928994435,None,172.70555928994435,None,,,,,,,,,,,,,,201,2023-03-27_12h58.36.203,Main,2022.1.1,59.87245962146879,
positive,neutral,1,l,j,,,,,,,,,0,8,8,8,,,,,,,,,main,2,2,1,neutral,positive,j,j,1,0.8314477999228984,172.71233319980092,173.72222709981725,173.70555869978853,None,172.71233319980092,None,172.71233319980092,None,172.71233319980092,None,174.53883118990342,None,174.53883118990342,None,174.53883118990342,None,,,,,,,,,,,,,,201,2023-03-27_12h58.36.203,Main,2022.1.1,59.87245962146879,
negative,negative,1,j,l,,,,,,,,,0,9,9,0,,,,,,,,,main,2,2,1,negative,negative,l,l,1,1.5483160000294447,174.54232719982974,175.55557249998674,175.54166819993407,None,174.54232719982974,None,174.54232719982974,None,174.54232719982974,None,177.08882239996456,None,177.08882239996456,None,177.08882239996456,None,,,,,,,,,,,,,,201,2023-03-27_12h58.36.203,Main,2022.1.1,59.87245962146879,
neutral,neutral,1,k,k,,,,,,,,,0,10,10,1,,,,,,,,,main,2,2,1,neutral,neutral,k,k,1,0.7508555999957025,178.09026449988596,179.1055281998124,179.07212049979717,None,178.09026449988596,None,178.09026449988596,None,178.09026449988596,None,179.8387485897867,None,179.8387485897867,None,179.8387485897867,None,,,,,,,,,,,,,,201,2023-03-27_12h58.36.203,Main,2022.1.1,59.87245962146879,
neutral,positive,1,k,k,,,,,,,,,0,11,11,4,,,,,,,,,main,2,2,1,positive,neutral,k,k,1,0.6147611001506448,179.84371649986133,180.85541499988176,180.83884769980796,None,179.84371649986133,None,179.84371649986133,None,179.84371649986133,None,181.45543588993604,None,181.45543588993604,None,181.45543588993604,None,,,,,,,,,,,,,,201,2023-03-27_12h58.36.203,Main,2022.1.1,59.87245962146879,
positive,negative,2,l,j,,,,,,,,,0,12,12,14,,,,,,,,,main,2,2,2,negative,positive,j,j,1,0.7148181002121419,181.46118339989334,182.47477809991688,182.45539129991084,None,181.46118339989334,None,181.46118339989334,None,181.46118339989334,None,183.17197358997072,None,183.17197358997072,None,183.17197358997072,None,,,,,,,,,,,,,,201,2023-03-27_12h58.36.203,Main,2022.1.1,59.87245962146879,
negative,negative,2,j,l,,,,,,,,,0,13,13,9,,,,,,,,,main,2,2,2,negative,negative,l,l,1,0.8154108999297023,183.17516319989227,184.1720257999841,184.1581492999103,None,183.17516319989227,None,183.17516319989227,None,183.17516319989227,None,184.9887603897834,None,184.9887603897834,None,184.9887603897834,None,,,,,,,,,,,,,,201,2023-03-27_12h58.36.203,Main,2022.1.1,59.87245962146879,
positive,positive,1,l,j,,,,,,,,,0,14,14,2,,,,,,,,,main,2,2,1,positive,positive,j,j,1,0.8649870997760445,184.9921441997867,185.99147269991226,185.99147269991226,None,184.9921441997867,None,184.9921441997867,None,184.9921441997867,None,186.8552987898467,None,186.8552987898467,None,186.8552987898467,None,,,,,,,,,,,,,,201,2023-03-27_12h58.36.203,Main,2022.1.1,59.87245962146879,
positive,positive,2,l,j,,,,,,,,,0,15,15,11,,,,,,,,,main,2,2,2,positive,positive,j,j,1,0.9818196999840438,186.87196629983373,187.8719635999296,187.85528479982167,None,186.87196629983373,None,186.87196629983373,None,186.87196629983373,None,188.8386505899718,None,188.8386505899718,None,188.8386505899718,None,,,,,,,,,,,,,,201,2023-03-27_12h58.36.203,Main,2022.1.1,59.87245962146879,
negative,neutral,2,j,l,,,,,,,,,0,16,16,12,,,,,,,,,main,2,2,2,neutral,negative,l,l,1,1.2315195000264794,188.8425452997908,189.8553820999805,189.83858739980496,None,188.8425452997908,None,188.8425452997908,None,188.8425452997908,None,191.07187648995313,None,191.07187648995313,None,191.07187648995313,None,,,,,,,,,,,,,,201,2023-03-27_12h58.36.203,Main,2022.1.1,59.87245962146879,
negative,positive,1,j,l,,,,,,,,,0,17,17,6,,,,,,,,,main,2,2,1,positive,negative,l,l,1,0.7815685998648405,191.07572219986469,192.088677899912,192.07187419990078,None,191.07572219986469,None,191.07572219986469,None,191.07572219986469,None,192.85515988983678,None,192.85515988983678,None,192.85515988983678,None,,,,,,,,,,,,,,201,2023-03-27_12h58.36.203,Main,2022.1.1,59.87245962146879,
positive,neutral,2,l,j,,,,,,,,,1,0,18,17,,,,,,,,,main,1,1,2,neutral,positive,j,j,1,0.7481301999650896,192.85869519994594,193.8719430998899,193.85517809982412,None,192.85869519994594,None,192.85869519994594,None,192.85869519994594,None,194.6050581898773,None,194.6050581898773,None,194.6050581898773,None,,,,,,,,,,,,,,201,2023-03-27_12h58.36.203,Main,2022.1.1,59.87245962146879,
negative,neutral,2,j,l,,,,,,,,,1,1,19,12,,,,,,,,,main,1,1,2,neutral,negative,l,l,1,0.7815674999728799,194.6246037997771,195.6384870999027,195.605095599778,None,194.6246037997771,None,194.6246037997771,None,194.6246037997771,None,196.3884597899625,None,196.3884597899625,None,196.3884597899625,None,,,,,,,,,,,,,,201,2023-03-27_12h58.36.203,Main,2022.1.1,59.87245962146879,
negative,negative,1,j,l,,,,,,,,,1,2,20,0,,,,,,,,,main,1,1,1,negative,negative,l,l,1,0.8985941000282764,196.40778399980627,197.40509729995392,197.39129780000076,None,196.40778399980627,None,196.40778399980627,None,196.40778399980627,None,198.28835608989465,None,198.28835608989465,None,198.28835608989465,None,,,,,,,,,,,,,,201,2023-03-27_12h58.36.203,Main,2022.1.1,59.87245962146879,
positive,positive,1,l,j,,,,,,,,,1,3,21,2,,,,,,,,,main,2,2,1,positive,positive,j,j,1,0.749222100013867,198.29204489989206,199.30515819997527,199.28839549981058,None,198.29204489989206,None,198.29204489989206,None,198.29204489989206,None,200.0383742898004,None,200.0383742898004,None,200.0383742898004,None,,,,,,,,,,,,,,201,2023-03-27_12h58.36.203,Main,2022.1.1,59.87245962146879,
neutral,neutral,1,k,k,,,,,,,,,1,4,22,1,,,,,,,,,main,2,2,1,neutral,neutral,k,k,1,0.7169617998879403,200.05521749984473,201.05769199994393,201.0383785997983,None,200.05521749984473,None,200.05521749984473,None,200.05521749984473,None,201.75780618998687,None,201.75780618998687,None,201.75780618998687,None,,,,,,,,,,,,,,201,2023-03-27_12h58.36.203,Main,2022.1.1,59.87245962146879,
neutral,negative,2,k,k,,,,,,,,,1,5,23,16,,,,,,,,,main,2,2,2,negative,neutral,k,k,1,0.6788496000226587,201.760954399826,202.7716755999718,202.75501209986396,None,201.760954399826,None,201.760954399826,None,201.760954399826,None,203.4382927899016,None,203.4382927899016,None,203.4382927899016,None,,,,,,,,,,,,,,201,2023-03-27_12h58.36.203,Main,2022.1.1,59.87245962146879,
neutral,positive,2,k,k,,,,,,,,,1,6,24,13,,,,,,,,,main,1,1,2,positive,neutral,k,k,1,0.5983629999682307,203.4419774999842,204.4549507999327,204.441142299911,None,203.4419774999842,None,203.4419774999842,None,203.4419774999842,None,205.03803378988522,None,205.03803378988522,None,205.03803378988522,None,,,,,,,,,,,,,,201,2023-03-27_12h58.36.203,Main,2022.1.1,59.87245962146879,
positive,positive,2,l,j,,,,,,,,,1,7,25,11,,,,,,,,,main,1,1,2,positive,positive,j,j,1,0.8817825999576598,205.0417521998752,206.0384070998989,206.0384070998989,None,205.0417521998752,None,205.0417521998752,None,205.0417521998752,None,206.92156958992126,None,206.92156958992126,None,206.92156958992126,None,,,,,,,,,,,,,,201,2023-03-27_12h58.36.203,Main,2022.1.1,59.87245962146879,
neutral,negative,1,k,k,,,,,,,,,1,8,26,7,,,,,,,,,main,2,2,1,negative,neutral,k,k,1,0.7981056999415159,206.9410856999457,207.95763029996306,207.92156179994345,None,206.9410856999457,None,206.9410856999457,None,206.9410856999457,None,208.72123528986702,None,208.72123528986702,None,208.72123528986702,None,,,,,,,,,,,,,,201,2023-03-27_12h58.36.203,Main,2022.1.1,59.87245962146879,
negative,neutral,1,j,l,,,,,,,,,1,9,27,3,,,,,,,,,main,2,2,1,neutral,negative,l,l,1,0.7653008999768645,208.72756049991585,209.73817649995908,209.72150779981166,None,208.72756049991585,None,208.72756049991585,None,208.72756049991585,None,210.48816258988808,None,210.48816258988808,None,210.48816258988808,None,,,,,,,,,,,,,,201,2023-03-27_12h58.36.203,Main,2022.1.1,59.87245962146879,
positive,neutral,1,l,j,,,,,,,,,1,10,28,8,,,,,,,,,main,2,2,1,neutral,positive,j,j,1,0.8510584000032395,210.49420119985007,211.50482289982028,211.48815819993615,None,210.49420119985007,None,210.49420119985007,None,210.49420119985007,None,212.34088028983678,None,212.34088028983678,None,212.34088028983678,None,,,,,,,,,,,,,,201,2023-03-27_12h58.36.203,Main,2022.1.1,59.87245962146879,
positive,negative,1,l,j,,,,,,,,,1,11,29,5,,,,,,,,,main,1,1,1,negative,positive,j,j,1,0.6289726998656988,212.34391309996136,213.35752619989216,213.34086939995177,None,212.34391309996136,None,212.34391309996136,None,212.34391309996136,None,213.97143888978752,None,213.97143888978752,None,213.97143888978752,None,,,,,,,,,,,,,,201,2023-03-27_12h58.36.203,Main,2022.1.1,59.87245962146879,
positive,negative,2,l,j,,,,,,,,,1,12,30,14,,,,,,,,,main,2,2,2,negative,positive,j,j,1,0.9313819999806583,213.97548879985698,214.98812469979748,214.9714261998888,None,213.97548879985698,None,213.97548879985698,None,213.97548879985698,None,215.9044684899738,None,215.9044684899738,None,215.9044684899738,None,,,,,,,,,,,,,,201,2023-03-27_12h58.36.203,Main,2022.1.1,59.87245962146879,
negative,positive,2,j,l,,,,,,,,,1,13,31,15,,,,,,,,,main,2,2,2,positive,negative,l,l,1,0.6988497001584619,215.9079649997875,216.92412879993208,216.90471559995785,None,215.9079649997875,None,215.9079649997875,None,215.9079649997875,None,217.6046829898143,None,217.6046829898143,None,217.6046829898143,None,,,,,,,,,,,,,,201,2023-03-27_12h58.36.203,Main,2022.1.1,59.87245962146879,
negative,negative,2,j,l,,,,,,,,,1,14,32,9,,,,,,,,,main,2,2,2,negative,negative,l,l,1,0.7149139998946339,217.60805789986625,218.62133289990015,218.60465379990637,None,217.60805789986625,None,217.60805789986625,None,217.60805789986625,None,219.32127358990255,None,219.32127358990255,None,219.32127358990255,None,,,,,,,,,,,,,,201,2023-03-27_12h58.36.203,Main,2022.1.1,59.87245962146879,
neutral,neutral,2,k,k,,,,,,,,,1,15,33,10,,,,,,,,,main,2,2,2,neutral,neutral,k,k,1,0.6819260001648217,219.32476739981212,220.33794919983484,220.32129319990054,None,219.32476739981212,None,219.32476739981212,None,219.32476739981212,None,221.00467128998133,None,221.00467128998133,None,221.00467128998133,None,,,,,,,,,,,,,,201,2023-03-27_12h58.36.203,Main,2022.1.1,59.87245962146879,
neutral,positive,1,k,k,,,,,,,,,1,16,34,4,,,,,,,,,main,1,1,1,positive,neutral,k,k,1,0.8646931999828666,221.0083629998844,222.0212866999209,222.00472259987146,None,221.0083629998844,None,221.0083629998844,None,221.0083629998844,None,222.87121578997466,None,222.87121578997466,None,222.87121578997466,None,,,,,,,,,,,,,,201,2023-03-27_12h58.36.203,Main,2022.1.1,59.87245962146879,
negative,positive,1,j,l,,,,,,,,,1,17,35,6,,,,,,,,,main,2,2,1,positive,negative,l,l,1,1.1655721999704838,222.87524019996636,223.887906299904,223.87122739991173,None,222.87524019996636,None,222.87524019996636,None,222.87524019996636,None,225.03788238989654,None,225.03788238989654,None,225.03788238989654,None,,,,,,,,,,,,,,201,2023-03-27_12h58.36.203,Main,2022.1.1,59.87245962146879,
positive,neutral,1,l,j,,,,,,,,,2,0,36,8,,,,,,,,,main,2,2,1,neutral,positive,j,j,1,0.7646491001360118,225.0416638997849,226.05452459980734,226.0378740997985,None,225.0416638997849,None,225.0416638997849,None,225.0416638997849,None,226.80447418980765,None,226.80447418980765,None,226.80447418980765,None,,,,,,,,,,,,,,201,2023-03-27_12h58.36.203,Main,2022.1.1,59.87245962146879,
negative,neutral,2,j,l,,,,,,,,,2,1,37,12,,,,,,,,,main,2,2,2,neutral,negative,l,l,1,0.931867599952966,226.80741329980083,227.80447799991816,227.80447799991816,None,226.80741329980083,None,226.80741329980083,None,226.80741329980083,None,228.737756089936,None,228.737756089936,None,228.737756089936,None,,,,,,,,,,,,,,201,2023-03-27_12h58.36.203,Main,2022.1.1,59.87245962146879,
negative,negative,2,j,l,,,,,,,,,2,2,38,9,,,,,,,,,main,1,1,2,negative,negative,l,l,1,0.8654064000584185,228.75450319983065,229.75443979981355,229.7211097998079,None,228.75450319983065,None,228.75450319983065,None,228.75450319983065,None,230.60443808992858,None,230.60443808992858,None,230.60443808992858,None,,,,,,,,,,,,,,201,2023-03-27_12h58.36.203,Main,2022.1.1,59.87245962146879,
positive,positive,2,l,j,,,,,,,,,2,3,39,11,,,,,,,,,main,1,1,2,positive,positive,j,j,1,0.7821138000581414,230.60822319984436,231.62119699991308,231.60442609991878,None,230.60822319984436,None,230.60822319984436,None,230.60822319984436,None,232.38840348988305,None,232.38840348988305,None,232.38840348988305,None,,,,,,,,,,,,,,201,2023-03-27_12h58.36.203,Main,2022.1.1,59.87245962146879,
neutral,positive,1,k,k,,,,,,,,,2,4,40,4,,,,,,,,,main,2,2,1,positive,neutral,k,k,1,0.7811953998170793,232.39491759985685,233.4070690998342,233.38772989995778,None,232.39491759985685,None,232.39491759985685,None,232.39491759985685,None,234.17101308999116,None,234.17101308999116,None,234.17101308999116,None,,,,,,,,,,,,,,201,2023-03-27_12h58.36.203,Main,2022.1.1,59.87245962146879,
negative,negative,1,j,l,,,,,,,,,2,5,41,0,,,,,,,,,main,2,2,1,negative,negative,l,l,1,0.7651508001144975,234.17451069992967,235.18770219990984,235.17102479981259,None,234.17451069992967,None,234.17451069992967,None,234.17451069992967,None,235.9376821899088,None,235.9376821899088,None,235.9376821899088,None,,,,,,,,,,,,,,201,2023-03-27_12h58.36.203,Main,2022.1.1,59.87245962146879,
positive,negative,2,l,j,,,,,,,,,2,6,42,14,,,,,,,,,main,2,2,2,negative,positive,j,j,1,0.7480560999829322,235.94132349989377,236.93764079990797,236.93764079990797,None,235.94132349989377,None,235.94132349989377,None,235.94132349989377,None,237.68753478995058,None,237.68753478995058,None,237.68753478995058,None,,,,,,,,,,,,,,201,2023-03-27_12h58.36.203,Main,2022.1.1,59.87245962146879,
neutral,negative,2,k,k,,,,,,,,,2,7,43,16,,,,,,,,,main,2,2,2,negative,neutral,k,k,1,0.6983952999580652,237.69395869993605,238.70426409994252,238.68759259977378,None,237.69395869993605,None,237.69395869993605,None,237.69395869993605,None,239.3875474898843,None,239.3875474898843,None,239.3875474898843,None,,,,,,,,,,,,,,201,2023-03-27_12h58.36.203,Main,2022.1.1,59.87245962146879,
negative,positive,1,j,l,,,,,,,,,2,8,44,6,,,,,,,,,main,2,2,1,positive,negative,l,l,1,0.7484790999442339,239.39109669998288,240.40426260000095,240.38756819977425,None,239.39109669998288,None,239.39109669998288,None,239.39109669998288,None,241.13756548978853,None,241.13756548978853,None,241.13756548978853,None,,,,,,,,,,,,,,201,2023-03-27_12h58.36.203,Main,2022.1.1,59.87245962146879,
negative,positive,2,j,l,,,,,,,,,2,9,45,15,,,,,,,,,main,2,2,2,positive,negative,l,l,1,0.7315448999870569,241.14118829998188,242.13756459997967,242.13756459997967,None,241.14118829998188,None,241.14118829998188,None,241.14118829998188,None,242.87084758996497,None,242.87084758996497,None,242.87084758996497,None,,,,,,,,,,,,,,201,2023-03-27_12h58.36.203,Main,2022.1.1,59.87245962146879,
positive,negative,1,l,j,,,,,,,,,2,10,46,5,,,,,,,,,main,1,1,1,negative,positive,j,j,1,0.881686600157991,242.87380839977413,243.87085139984265,243.87085139984265,None,242.87380839977413,None,242.87380839977413,None,242.87380839977413,None,244.75425518995615,None,244.75425518995615,None,244.75425518995615,None,,,,,,,,,,,,,,201,2023-03-27_12h58.36.203,Main,2022.1.1,59.87245962146879,
positive,positive,1,l,j,,,,,,,,,2,11,47,2,,,,,,,,,main,2,2,1,positive,positive,j,j,1,0.6485474000219256,244.75751369982027,245.75416919984855,245.75416919984855,None,244.75751369982027,None,244.75751369982027,None,244.75751369982027,None,246.4041292899521,None,246.4041292899521,None,246.4041292899521,None,,,,,,,,,,,,,,201,2023-03-27_12h58.36.203,Main,2022.1.1,59.87245962146879,
negative,neutral,1,j,l,,,,,,,,,2,12,48,3,,,,,,,,,main,2,2,1,neutral,negative,l,l,1,0.7983548999764025,246.4076602999121,247.42078970000148,247.40408979984932,None,246.4076602999121,None,246.4076602999121,None,246.4076602999121,None,248.20408108986447,None,248.20408108986447,None,248.20408108986447,None,,,,,,,,,,,,,,201,2023-03-27_12h58.36.203,Main,2022.1.1,59.87245962146879,
neutral,positive,2,k,k,,,,,,,,,2,13,49,13,,,,,,,,,main,1,1,2,positive,neutral,k,k,1,0.6492528999224305,248.20973399979994,249.22083259979263,249.20408099982888,None,248.20973399979994,None,248.20973399979994,None,248.20973399979994,None,249.85401458984705,None,249.85401458984705,None,249.85401458984705,None,,,,,,,,,,,,,,201,2023-03-27_12h58.36.203,Main,2022.1.1,59.87245962146879,
neutral,neutral,2,k,k,,,,,,,,,2,14,50,10,,,,,,,,,main,1,1,2,neutral,neutral,k,k,1,0.5806799000129104,249.86009999993257,250.87069619982503,250.85401899996214,None,249.86009999993257,None,249.86009999993257,None,249.86009999993257,None,251.4373209899524,None,251.4373209899524,None,251.4373209899524,None,,,,,,,,,,,,,,201,2023-03-27_12h58.36.203,Main,2022.1.1,59.87245962146879,
neutral,negative,1,k,k,,,,,,,,,2,15,51,7,,,,,,,,,main,1,1,1,negative,neutral,k,k,1,0.5647913999855518,251.4408687998075,252.45398919982836,252.4373376998119,None,251.4408687998075,None,251.4408687998075,None,251.4408687998075,None,253.00400418990756,None,253.00400418990756,None,253.00400418990756,None,,,,,,,,,,,,,,201,2023-03-27_12h58.36.203,Main,2022.1.1,59.87245962146879,
neutral,neutral,1,k,k,,,,,,,,,2,16,52,1,,,,,,,,,main,2,2,1,neutral,neutral,k,k,1,0.5821769000031054,253.00767409987748,254.00398939987645,254.00398939987645,None,253.00767409987748,None,253.00767409987748,None,253.00767409987748,None,254.58726188999134,None,254.58726188999134,None,254.58726188999134,None,,,,,,,,,,,,,,201,2023-03-27_12h58.36.203,Main,2022.1.1,59.87245962146879,
positive,neutral,2,l,j,,,,,,,,,2,17,53,17,,,,,,,,,main,2,2,2,neutral,positive,j,j,1,0.8149604999925941,254.5931517998688,255.60394849977456,255.59006409998983,None,254.5931517998688,None,254.5931517998688,None,254.5931517998688,None,256.40393068983684,None,256.40393068983684,None,256.40393068983684,None,,,,,,,,,,,,,,201,2023-03-27_12h58.36.203,Main,2022.1.1,59.87245962146879,
neutral,positive,2,k,k,,,,,,,,,3,0,54,13,,,,,,,,,main,1,1,2,positive,neutral,k,k,1,0.7153362000826746,256.4094518998172,257.4231540998444,257.4066279998515,None,256.4094518998172,None,256.4094518998172,None,256.4094518998172,None,258.12055598984006,None,258.12055598984006,None,258.12055598984006,None,,,,,,,,,,,,,,201,2023-03-27_12h58.36.203,Main,2022.1.1,59.87245962146879,
neutral,negative,1,k,k,,,,,,,,,3,1,55,7,,,,,,,,,main,2,2,1,negative,neutral,k,k,1,0.6812661001458764,258.12451059999876,259.1372159998864,259.1205612998456,None,258.12451059999876,None,258.12451059999876,None,258.12451059999876,None,259.8038221899653,None,259.8038221899653,None,259.8038221899653,None,,,,,,,,,,,,,,201,2023-03-27_12h58.36.203,Main,2022.1.1,59.87245962146879,
positive,neutral,2,l,j,,,,,,,,,3,2,56,17,,,,,,,,,main,1,1,2,neutral,positive,j,j,1,0.6651231998112053,259.80692869983613,260.8204793999903,260.8065413997974,None,259.80692869983613,None,259.80692869983613,None,259.80692869983613,None,261.4704418898793,None,261.4704418898793,None,261.4704418898793,None,,,,,,,,,,,,,,201,2023-03-27_12h58.36.203,Main,2022.1.1,59.87245962146879,
negative,neutral,1,j,l,,,,,,,,,3,3,57,3,,,,,,,,,main,1,1,1,neutral,negative,l,l,1,0.7652460001409054,261.4738775999285,262.4704874998424,262.4704874998424,None,261.4738775999285,None,261.4738775999285,None,261.4738775999285,None,263.23714688995386,None,263.23714688995386,None,263.23714688995386,None,,,,,,,,,,,,,,201,2023-03-27_12h58.36.203,Main,2022.1.1,59.87245962146879,
positive,positive,1,l,j,,,,,,,,,3,4,58,2,,,,,,,,,main,1,1,1,positive,positive,j,j,1,0.7981533000711352,263.240764999995,264.23712019994855,264.23712019994855,None,263.240764999995,None,263.240764999995,None,263.240764999995,None,265.0371119898511,None,265.0371119898511,None,265.0371119898511,None,,,,,,,,,,,,,,201,2023-03-27_12h58.36.203,Main,2022.1.1,59.87245962146879,
negative,positive,2,j,l,,,,,,,,,3,5,59,15,,,,,,,,,main,1,1,2,positive,negative,l,l,1,0.7485939001198858,265.0406687997747,266.0537606999278,266.0398473998066,None,265.0406687997747,None,265.0406687997747,None,265.0406687997747,None,266.78704218978527,None,266.78704218978527,None,266.78704218978527,None,,,,,,,,,,,,,,201,2023-03-27_12h58.36.203,Main,2022.1.1,59.87245962146879,
neutral,neutral,2,k,k,,,,,,,,,3,6,60,10,,,,,,,,,main,1,1,2,neutral,neutral,k,k,1,1.2813434000127017,266.7909461997915,267.80368739995174,267.78702949988656,None,266.7909461997915,None,266.7909461997915,None,266.7909461997915,None,269.07034688994753,None,269.07034688994753,None,269.07034688994753,None,,,,,,,,,,,,,,201,2023-03-27_12h58.36.203,Main,2022.1.1,59.87245962146879,
negative,neutral,2,j,l,,,,,,,,,3,7,61,12,,,,,,,,,main,1,1,2,neutral,negative,l,l,1,0.7481123998295516,269.0734456998762,270.0870025998447,270.0536685998086,None,269.0734456998762,None,269.0734456998762,None,269.0734456998762,None,270.8202627898892,None,270.8202627898892,None,270.8202627898892,None,,,,,,,,,,,,,,201,2023-03-27_12h58.36.203,Main,2022.1.1,59.87245962146879,
positive,positive,2,l,j,,,,,,,,,3,8,62,11,,,,,,,,,main,2,2,2,positive,positive,j,j,1,0.6985551998950541,270.83971219998784,271.83695439994335,271.823048299877,None,270.83971219998784,None,270.83971219998784,None,270.83971219998784,None,272.5202756898245,None,272.5202756898245,None,272.5202756898245,None,,,,,,,,,,,,,,201,2023-03-27_12h58.36.203,Main,2022.1.1,59.87245962146879,
negative,positive,1,j,l,,,,,,,,,3,9,63,6,,,,,,,,,main,2,2,1,positive,negative,l,l,1,0.7995019999798387,272.5258078998886,273.5369057999924,273.5202713999897,None,272.5258078998886,None,272.5258078998886,None,272.5258078998886,None,274.3202323898906,None,274.3202323898906,None,274.3202323898906,None,,,,,,,,,,,,,,201,2023-03-27_12h58.36.203,Main,2022.1.1,59.87245962146879,
neutral,positive,1,k,k,,,,,,,,,3,10,64,4,,,,,,,,,main,2,2,1,positive,neutral,k,k,1,0.7136884001083672,274.32479579979554,275.3368981999811,275.32309189997613,None,274.32479579979554,None,274.32479579979554,None,274.32479579979554,None,276.03684209000784,None,276.03684209000784,None,276.03684209000784,None,,,,,,,,,,,,,,201,2023-03-27_12h58.36.203,Main,2022.1.1,59.87245962146879,
positive,negative,2,l,j,,,,,,,,,3,11,65,14,,,,,,,,,main,1,1,2,negative,positive,j,j,1,0.6836868999525905,276.0535503998399,277.0535261000041,277.03687789989635,None,276.0535503998399,None,276.0535503998399,None,276.0535503998399,None,277.7229789899895,None,277.7229789899895,None,277.7229789899895,None,,,,,,,,,,,,,,201,2023-03-27_12h58.36.203,Main,2022.1.1,59.87245962146879,
negative,negative,1,j,l,,,,,,,,,3,12,66,0,,,,,,,,,main,2,2,1,negative,negative,l,l,1,0.7800171000417322,277.72532429988496,278.73681179992855,278.72011379990727,None,277.72532429988496,None,277.72532429988496,None,277.72532429988496,None,279.5034469898557,None,279.5034469898557,None,279.5034469898557,None,,,,,,,,,,,,,,201,2023-03-27_12h58.36.203,Main,2022.1.1,59.87245962146879,
neutral,neutral,1,k,k,,,,,,,,,3,13,67,1,,,,,,,,,main,1,1,1,neutral,neutral,k,k,1,0.6309276001993567,279.5074346999172,280.5228733997792,280.50623569986783,None,279.5074346999172,None,279.5074346999172,None,279.5074346999172,None,281.1367604899453,None,281.1367604899453,None,281.1367604899453,None,,,,,,,,,,,,,,201,2023-03-27_12h58.36.203,Main,2022.1.1,59.87245962146879,
positive,negative,1,l,j,,,,,,,,,3,14,68,5,,,,,,,,,main,2,2,1,negative,positive,j,j,1,0.6487210998311639,281.14006079989485,282.15627489984035,282.136841399828,None,281.14006079989485,None,281.14006079989485,None,281.14006079989485,None,282.78681558992247,None,282.78681558992247,None,282.78681558992247,None,,,,,,,,,,,,,,201,2023-03-27_12h58.36.203,Main,2022.1.1,59.87245962146879,
neutral,negative,2,k,k,,,,,,,,,3,15,69,16,,,,,,,,,main,1,1,2,negative,neutral,k,k,1,0.7149757000152022,282.7900931998156,283.80336549994536,283.78671669983305,None,282.7900931998156,None,282.7900931998156,None,282.7900931998156,None,284.50336538993287,None,284.50336538993287,None,284.50336538993287,None,,,,,,,,,,,,,,201,2023-03-27_12h58.36.203,Main,2022.1.1,59.87245962146879,
positive,neutral,1,l,j,,,,,,,,,3,16,70,8,,,,,,,,,main,1,1,1,neutral,positive,j,j,1,0.7483312000986189,284.508728899993,285.52001099986956,285.5033633999992,None,284.508728899993,None,284.508728899993,None,284.508728899993,None,286.25332428996916,None,286.25332428996916,None,286.25332428996916,None,,,,,,,,,,,,,,201,2023-03-27_12h58.36.203,Main,2022.1.1,59.87245962146879,
negative,negative,2,j,l,,,,,,,,,3,17,71,9,,,,,,,,,main,2,2,2,negative,negative,l,l,1,0.7817535998765379,286.2572519998066,287.269971099915,287.2533289999701,None,286.2572519998066,None,286.2572519998066,None,286.2572519998066,None,288.03668989001306,None,288.03668989001306,None,288.03668989001306,None,,,,,,,,,,,,,,201,2023-03-27_12h58.36.203,Main,2022.1.1,59.87245962146879,
negative,neutral,1,j,l,,,,,,,,,4,0,72,3,,,,,,,,,main,2,2,1,neutral,negative,l,l,1,0.9984146999195218,288.04009259981103,289.0533030999359,289.03672529989854,None,288.04009259981103,None,288.04009259981103,None,288.04009259981103,None,290.03656548999714,None,290.03656548999714,None,290.03656548999714,None,,,,,,,,,,,,,,201,2023-03-27_12h58.36.203,Main,2022.1.1,59.87245962146879,
negative,positive,1,j,l,,,,,,,,,4,1,73,6,,,,,,,,,main,2,2,1,positive,negative,l,l,1,0.6321177999489009,290.0400983998552,291.0366136999801,291.0366136999801,None,290.0400983998552,None,290.0400983998552,None,290.0400983998552,None,291.66985298988874,None,291.66985298988874,None,291.66985298988874,None,,,,,,,,,,,,,,201,2023-03-27_12h58.36.203,Main,2022.1.1,59.87245962146879,
positive,negative,2,l,j,,,,,,,,,4,2,74,14,,,,,,,,,main,2,2,2,negative,positive,j,j,1,0.714773700106889,291.6758911998477,292.68652469990775,292.6699270999525,None,291.6758911998477,None,291.6758911998477,None,291.6758911998477,None,293.3865247898968,None,293.3865247898968,None,293.3865247898968,None,,,,,,,,,,,,,,201,2023-03-27_12h58.36.203,Main,2022.1.1,59.87245962146879,
negative,positive,2,j,l,,,,,,,,,4,3,75,15,,,,,,,,,main,2,2,2,positive,negative,l,l,1,0.765034900046885,293.39004859980196,294.3866648999974,294.3866648999974,None,293.39004859980196,None,293.39004859980196,None,293.39004859980196,None,295.15315869001205,None,295.15315869001205,None,295.15315869001205,None,,,,,,,,,,,,,,201,2023-03-27_12h58.36.203,Main,2022.1.1,59.87245962146879,
positive,neutral,1,l,j,,,,,,,,,4,4,76,8,,,,,,,,,main,2,2,1,neutral,positive,j,j,1,0.8648292000871152,295.15673049981706,296.15600789990276,296.15600789990276,None,295.15673049981706,None,295.15673049981706,None,295.15673049981706,None,297.01986128992866,None,297.01986128992866,None,297.01986128992866,None,,,,,,,,,,,,,,201,2023-03-27_12h58.36.203,Main,2022.1.1,59.87245962146879,
negative,neutral,2,j,l,,,,,,,,,4,5,77,12,,,,,,,,,main,2,2,2,neutral,negative,l,l,1,0.7149237000849098,297.0365133997984,298.0364260999486,298.0197653998621,None,297.0365133997984,None,297.0365133997984,None,297.0365133997984,None,298.7364140899619,None,298.7364140899619,None,298.7364140899619,None,,,,,,,,,,,,,,201,2023-03-27_12h58.36.203,Main,2022.1.1,59.87245962146879,
negative,negative,1,j,l,,,,,,,,,4,6,78,0,,,,,,,,,main,2,2,1,negative,negative,l,l,1,0.7017244999296963,298.74031729996204,299.75308949989267,299.73642389988527,None,298.74031729996204,None,298.74031729996204,None,298.74031729996204,None,300.4393331899075,None,300.4393331899075,None,300.4393331899075,None,,,,,,,,,,,,,,201,2023-03-27_12h58.36.203,Main,2022.1.1,59.87245962146879,
neutral,neutral,2,k,k,,,,,,,,,4,7,79,10,,,,,,,,,main,2,2,2,neutral,neutral,k,k,1,0.6954132998362184,300.4424327998422,301.45305489981547,301.4363843998872,None,300.4424327998422,None,300.4424327998422,None,300.4424327998422,None,302.136491689994,None,302.136491689994,None,302.136491689994,None,,,,,,,,,,,,,,201,2023-03-27_12h58.36.203,Main,2022.1.1,59.87245962146879,
negative,negative,2,j,l,,,,,,,,,4,8,80,9,,,,,,,,,main,1,1,2,negative,negative,l,l,1,0.7644694000482559,302.1422196999192,303.15574629977345,303.13635039981455,None,302.1422196999192,None,302.1422196999192,None,302.1422196999192,None,303.902754089958,None,303.902754089958,None,303.902754089958,None,,,,,,,,,,,,,,201,2023-03-27_12h58.36.203,Main,2022.1.1,59.87245962146879,
neutral,positive,2,k,k,,,,,,,,,4,9,81,13,,,,,,,,,main,2,2,2,positive,neutral,k,k,1,0.7988229999318719,303.9223279999569,304.9362717999611,304.9030882997904,None,303.9223279999569,None,303.9223279999569,None,303.9223279999569,None,305.70290428998413,None,305.70290428998413,None,305.70290428998413,None,,,,,,,,,,,,,,201,2023-03-27_12h58.36.203,Main,2022.1.1,59.87245962146879,
neutral,positive,1,k,k,,,,,,,,,4,10,82,4,,,,,,,,,main,2,2,1,positive,neutral,k,k,1,0.950349299935624,305.70631019980647,306.72229769988917,306.7029401999898,None,305.70631019980647,None,305.70631019980647,None,305.70631019980647,None,307.6540058899438,None,307.6540058899438,None,307.6540058899438,None,,,,,,,,,,,,,,201,2023-03-27_12h58.36.203,Main,2022.1.1,59.87245962146879,
neutral,negative,2,k,k,,,,,,,,,4,11,83,16,,,,,,,,,main,1,1,2,negative,neutral,k,k,1,1.2475644999649376,307.66003759996966,308.6695613998454,308.65568479988724,None,307.66003759996966,None,307.66003759996966,None,307.66003759996966,None,309.90280798978637,None,309.90280798978637,None,309.90280798978637,None,,,,,,,,,,,,,,201,2023-03-27_12h58.36.203,Main,2022.1.1,59.87245962146879,
positive,positive,2,l,j,,,,,,,,,4,12,84,11,,,,,,,,,main,2,2,2,positive,positive,j,j,1,0.7807797000277787,309.90728219994344,310.91959859989583,310.9029694998171,None,309.90728219994344,None,309.90728219994344,None,309.90728219994344,None,311.6862501899479,None,311.6862501899479,None,311.6862501899479,None,,,,,,,,,,,,,,201,2023-03-27_12h58.36.203,Main,2022.1.1,59.87245962146879,
positive,negative,1,l,j,,,,,,,,,4,13,85,5,,,,,,,,,main,1,1,1,negative,positive,j,j,1,0.8146854001097381,311.68972229980864,312.7028245998081,312.6861504998524,None,311.68972229980864,None,311.68972229980864,None,311.68972229980864,None,313.50279318999964,None,313.50279318999964,None,313.50279318999964,None,,,,,,,,,,,,,,201,2023-03-27_12h58.36.203,Main,2022.1.1,59.87245962146879,
neutral,negative,1,k,k,,,,,,,,,4,14,86,7,,,,,,,,,main,1,1,1,negative,neutral,k,k,1,0.6650569001212716,313.5059987998102,314.5027706997935,314.48887659981847,None,313.5059987998102,None,313.5059987998102,None,313.5059987998102,None,315.1693770898739,None,315.1693770898739,None,315.1693770898739,None,,,,,,,,,,,,,,201,2023-03-27_12h58.36.203,Main,2022.1.1,59.87245962146879,
positive,positive,1,l,j,,,,,,,,,4,15,87,2,,,,,,,,,main,1,1,1,positive,positive,j,j,1,0.7151303999125957,315.1726948998403,316.1694137000013,316.1694137000013,None,315.1726948998403,None,315.1726948998403,None,315.1726948998403,None,316.8860670897877,None,316.8860670897877,None,316.8860670897877,None,,,,,,,,,,,,,,201,2023-03-27_12h58.36.203,Main,2022.1.1,59.87245962146879,
positive,neutral,2,l,j,,,,,,,,,4,16,88,17,,,,,,,,,main,1,1,2,neutral,positive,j,j,1,0.7649630000814795,316.8892751999665,317.88603959977627,317.88603959977627,None,316.8892751999665,None,316.8892751999665,None,316.8892751999665,None,318.65268158998805,None,318.65268158998805,None,318.65268158998805,None,,,,,,,,,,,,,,201,2023-03-27_12h58.36.203,Main,2022.1.1,59.87245962146879,
neutral,neutral,1,k,k,,,,,,,,,4,17,89,1,,,,,,,,,main,2,2,1,neutral,neutral,k,k,1,0.69860569993034,318.6557322998997,319.66938359988853,319.6360325999558,None,318.6557322998997,None,318.6557322998997,None,318.6557322998997,None,320.3526737898821,None,320.3526737898821,None,320.3526737898821,None,,,,,,,,,,,,,,201,2023-03-27_12h58.36.203,Main,2022.1.1,59.87245962146879,
negative,positive,1,j,l,,,,,,,,,5,0,90,6,,,,,,,,,main,2,2,1,positive,negative,l,l,1,0.8483351999893785,320.3562981998548,321.3526591998525,321.3526591998525,None,320.3562981998548,None,320.3562981998548,None,320.3562981998548,None,322.20267368985805,None,322.20267368985805,None,322.20267368985805,None,,,,,,,,,,,,,,201,2023-03-27_12h58.36.203,Main,2022.1.1,59.87245962146879,
neutral,negative,1,k,k,,,,,,,,,5,1,91,7,,,,,,,,,main,2,2,1,negative,neutral,k,k,1,0.7149768001399934,322.2058162998874,323.21932629984803,323.1859374998603,None,322.2058162998874,None,322.2058162998874,None,322.2058162998874,None,323.9192269900115,None,323.9192269900115,None,323.9192269900115,None,,,,,,,,,,,,,,201,2023-03-27_12h58.36.203,Main,2022.1.1,59.87245962146879,
negative,neutral,2,j,l,,,,,,,,,5,2,92,12,,,,,,,,,main,2,2,2,neutral,negative,l,l,1,0.8319456002209336,323.9223036998883,324.9359281999059,324.9192503998056,None,323.9223036998883,None,323.9223036998883,None,323.9223036998883,None,325.752681489964,None,325.752681489964,None,325.752681489964,None,,,,,,,,,,,,,,201,2023-03-27_12h58.36.203,Main,2022.1.1,59.87245962146879,
positive,positive,1,l,j,,,,,,,,,5,3,93,2,,,,,,,,,main,2,2,1,positive,positive,j,j,1,0.7152011999860406,325.7560484998394,326.76921799988486,326.75254489993677,None,325.7560484998394,None,325.7560484998394,None,325.7560484998394,None,327.4691976899514,None,327.4691976899514,None,327.4691976899514,None,,,,,,,,,,,,,,201,2023-03-27_12h58.36.203,Main,2022.1.1,59.87245962146879,
positive,negative,1,l,j,,,,,,,,,5,4,94,5,,,,,,,,,main,2,2,1,negative,positive,j,j,1,0.6150354000274092,327.4730820998084,328.4858465997968,328.4691710998304,None,327.4730820998084,None,327.4730820998084,None,327.4730820998084,None,329.08577958999666,None,329.08577958999666,None,329.08577958999666,None,,,,,,,,,,,,,,201,2023-03-27_12h58.36.203,Main,2022.1.1,59.87245962146879,
neutral,positive,2,k,k,,,,,,,,,5,5,95,13,,,,,,,,,main,2,2,2,positive,neutral,k,k,1,0.7149517999496311,329.08918089978397,330.10243759979494,330.08575799991377,None,329.08918089978397,None,329.08918089978397,None,329.08918089978397,None,330.8023885899922,None,330.8023885899922,None,330.8023885899922,None,,,,,,,,,,,,,,201,2023-03-27_12h58.36.203,Main,2022.1.1,59.87245962146879,
positive,positive,2,l,j,,,,,,,,,5,6,96,11,,,,,,,,,main,2,2,2,positive,positive,j,j,1,0.6817228000145406,330.80900959996507,331.8218297997955,331.8024124999065,None,330.80900959996507,None,330.80900959996507,None,330.80900959996507,None,332.48575518995057,None,332.48575518995057,None,332.48575518995057,None,,,,,,,,,,,,,,201,2023-03-27_12h58.36.203,Main,2022.1.1,59.87245962146879,
negative,negative,2,j,l,,,,,,,,,5,7,97,9,,,,,,,,,main,2,2,2,negative,negative,l,l,1,0.7316302999388427,332.4913424998522,333.50241249985993,333.48854259983636,None,332.4913424998522,None,332.4913424998522,None,332.4913424998522,None,334.2190012898529,None,334.2190012898529,None,334.2190012898529,None,,,,,,,,,,,,,,201,2023-03-27_12h58.36.203,Main,2022.1.1,59.87245962146879,
neutral,positive,1,k,k,,,,,,,,,5,8,98,4,,,,,,,,,main,2,2,1,positive,neutral,k,k,1,0.7153606000356376,334.22232159995474,335.2190116997808,335.2190116997808,None,334.22232159995474,None,334.22232159995474,None,334.22232159995474,None,335.9356756898807,None,335.9356756898807,None,335.9356756898807,None,,,,,,,,,,,,,,201,2023-03-27_12h58.36.203,Main,2022.1.1,59.87245962146879,
neutral,negative,2,k,k,,,,,,,,,5,9,99,16,,,,,,,,,main,2,2,2,negative,neutral,k,k,1,0.681422800058499,335.9415176999755,336.95234319986776,336.9356666998938,None,335.9415176999755,None,335.9415176999755,None,335.9415176999755,None,337.6189620899269,None,337.6189620899269,None,337.6189620899269,None,,,,,,,,,,,,,,201,2023-03-27_12h58.36.203,Main,2022.1.1,59.87245962146879,
negative,positive,2,j,l,,,,,,,,,5,10,100,15,,,,,,,,,main,1,1,2,positive,negative,l,l,1,0.6986097998451442,337.6246389998123,338.63563089980744,338.6217981998343,None,337.6246389998123,None,337.6246389998123,None,337.6246389998123,None,339.31903768999035,None,339.31903768999035,None,339.31903768999035,None,,,,,,,,,,,,,,201,2023-03-27_12h58.36.203,Main,2022.1.1,59.87245962146879,
positive,negative,2,l,j,,,,,,,,,5,11,101,14,,,,,,,,,main,2,2,2,negative,positive,j,j,1,0.731467500096187,339.32239299989305,340.32183369994164,340.32183369994164,None,339.32239299989305,None,339.32239299989305,None,339.32239299989305,None,341.0522008898435,None,341.0522008898435,None,341.0522008898435,None,,,,,,,,,,,,,,201,2023-03-27_12h58.36.203,Main,2022.1.1,59.87245962146879,
negative,neutral,1,j,l,,,,,,,,,5,12,102,3,,,,,,,,,main,2,2,1,neutral,negative,l,l,1,0.8651063998695463,341.0576643999666,342.06901769991964,342.0522391998675,None,341.0576643999666,None,341.0576643999666,None,341.0576643999666,None,342.9188465899089,None,342.9188465899089,None,342.9188465899089,None,,,,,,,,,,,,,,201,2023-03-27_12h58.36.203,Main,2022.1.1,59.87245962146879,
negative,negative,1,j,l,,,,,,,,,5,13,103,0,,,,,,,,,main,1,1,1,negative,negative,l,l,1,0.6985585000365973,342.9242370999418,343.9355367999524,343.9188579998445,None,342.9242370999418,None,342.9242370999418,None,342.9242370999418,None,344.61879438993054,None,344.61879438993054,None,344.61879438993054,None,,,,,,,,,,,,,,201,2023-03-27_12h58.36.203,Main,2022.1.1,59.87245962146879,
positive,neutral,2,l,j,,,,,,,,,5,14,104,17,,,,,,,,,main,1,1,2,neutral,positive,j,j,1,0.6649603000842035,344.62231789994985,345.63824589992873,345.61901779985055,None,344.62231789994985,None,344.62231789994985,None,344.62231789994985,None,346.2854556899285,None,346.2854556899285,None,346.2854556899285,None,,,,,,,,,,,,,,201,2023-03-27_12h58.36.203,Main,2022.1.1,59.87245962146879,
neutral,neutral,2,k,k,,,,,,,,,5,15,105,10,,,,,,,,,main,1,1,2,neutral,neutral,k,k,1,0.5815995999146253,346.28875289997086,347.30211069993675,347.28546139993705,None,346.28875289997086,None,346.28875289997086,None,346.28875289997086,None,347.8687325899256,None,347.8687325899256,None,347.8687325899256,None,,,,,,,,,,,,,,201,2023-03-27_12h58.36.203,Main,2022.1.1,59.87245962146879,
neutral,neutral,1,k,k,,,,,,,,,5,16,106,1,,,,,,,,,main,1,1,1,neutral,neutral,k,k,1,0.8652868999633938,347.8715937999077,348.88543919986114,348.86877379985526,None,347.8715937999077,None,347.8715937999077,None,347.8715937999077,None,349.735635489854,None,349.735635489854,None,349.735635489854,None,,,,,,,,,,,,,,201,2023-03-27_12h58.36.203,Main,2022.1.1,59.87245962146879,
positive,neutral,1,l,j,,,,,,,,,5,17,107,8,,,,,,,,,main,2,2,1,neutral,positive,j,j,1,0.7482491999398917,349.7411045997869,350.7520614999812,350.73537899996154,None,349.7411045997869,None,349.7411045997869,None,349.7411045997869,None,351.48536948992404,None,351.48536948992404,None,351.48536948992404,None,,,,,,,,,,,,,,201,2023-03-27_12h58.36.203,Main,2022.1.1,59.87245962146879,
neutral,neutral,2,k,k,,,,,,,,,6,0,108,10,,,,,,,,,main,1,1,2,neutral,neutral,k,k,1,0.7649958000984043,351.4907701998018,352.5047271999065,352.4687172998674,None,351.4907701998018,None,351.4907701998018,None,351.4907701998018,None,353.2519640898565,None,353.2519640898565,None,353.2519640898565,None,,,,,,,,,,,,,,201,2023-03-27_12h58.36.203,Main,2022.1.1,59.87245962146879,
negative,neutral,1,j,l,,,,,,,,,6,1,109,3,,,,,,,,,main,1,1,1,neutral,negative,l,,0,0.9185248999856412,353.2550906999968,354.268650499871,354.23663009982556,None,353.2550906999968,None,353.2550906999968,None,353.2550906999968,None,355.16865339991637,None,355.16865339991637,None,355.16865339991637,None,,,,,,,,,,,,,,201,2023-03-27_12h58.36.203,Main,2022.1.1,59.87245962146879,
neutral,positive,2,k,k,,,,,,,,,6,2,110,13,,,,,,,,,main,2,2,2,positive,neutral,k,k,1,0.9022001998964697,356.16971079981886,357.18525149999186,357.1519421997946,None,356.16971079981886,None,356.16971079981886,None,356.16971079981886,None,358.0685462899739,None,358.0685462899739,None,358.0685462899739,None,,,,,,,,,,,,,,201,2023-03-27_12h58.36.203,Main,2022.1.1,59.87245962146879,
negative,positive,2,j,l,,,,,,,,,6,3,111,15,,,,,,,,,main,2,2,2,positive,negative,l,l,1,0.7311783998738974,358.07383199990727,359.08523179986514,359.06856639985926,None,358.07383199990727,None,358.07383199990727,None,358.07383199990727,None,359.80186238994355,None,359.80186238994355,None,359.80186238994355,None,,,,,,,,,,,,,,201,2023-03-27_12h58.36.203,Main,2022.1.1,59.87245962146879,
negative,positive,1,j,l,,,,,,,,,6,4,112,6,,,,,,,,,main,1,1,1,positive,negative,l,l,1,0.8332609999924898,359.80628109979443,360.8186694998294,360.8019017998595,None,359.80628109979443,None,359.80628109979443,None,359.80628109979443,None,361.6378703898983,None,361.6378703898983,None,361.6378703898983,None,,,,,,,,,,,,,,201,2023-03-27_12h58.36.203,Main,2022.1.1,59.87245962146879,
positive,positive,2,l,j,,,,,,,,,6,5,113,11,,,,,,,,,main,2,2,2,positive,positive,j,j,1,0.6783217000775039,361.6423444999382,362.6518416998442,362.6351680997759,None,361.6423444999382,None,361.6423444999382,None,361.6423444999382,None,363.3184488899307,None,363.3184488899307,None,363.3184488899307,None,,,,,,,,,,,,,,201,2023-03-27_12h58.36.203,Main,2022.1.1,59.87245962146879,
positive,neutral,2,l,j,,,,,,,,,6,6,114,17,,,,,,,,,main,2,2,2,neutral,positive,j,j,1,0.5983207998797297,363.32437129993923,364.33519949996844,364.3184368999209,None,363.32437129993923,None,363.32437129993923,None,363.32437129993923,None,364.918532889965,None,364.918532889965,None,364.918532889965,None,,,,,,,,,,,,,,201,2023-03-27_12h58.36.203,Main,2022.1.1,59.87245962146879,
positive,neutral,1,l,j,,,,,,,,,6,7,115,8,,,,,,,,,main,1,1,1,neutral,positive,j,j,1,0.915701299905777,364.9221871998161,365.93522589979693,365.91845029988326,None,364.9221871998161,None,364.9221871998161,None,364.9221871998161,None,366.83507148984353,None,366.83507148984353,None,366.83507148984353,None,,,,,,,,,,,,,,201,2023-03-27_12h58.36.203,Main,2022.1.1,59.87245962146879,
negative,negative,2,j,l,,,,,,,,,6,8,116,9,,,,,,,,,main,2,2,2,negative,negative,l,l,1,0.6974176000803709,366.8390847998671,367.85173209989443,367.8350336998701,None,366.8390847998671,None,366.8390847998671,None,366.8390847998671,None,368.53501178992445,None,368.53501178992445,None,368.53501178992445,None,,,,,,,,,,,,,,201,2023-03-27_12h58.36.203,Main,2022.1.1,59.87245962146879,
neutral,negative,1,k,k,,,,,,,,,6,9,117,7,,,,,,,,,main,1,1,1,negative,neutral,k,k,1,0.7317378998268396,368.53867299994454,369.551669199951,369.53516949992627,None,368.53867299994454,None,368.53867299994454,None,368.53867299994454,None,370.2683260898804,None,370.2683260898804,None,370.2683260898804,None,,,,,,,,,,,,,,201,2023-03-27_12h58.36.203,Main,2022.1.1,59.87245962146879,
neutral,negative,2,k,k,,,,,,,,,6,10,118,16,,,,,,,,,main,2,2,2,negative,neutral,k,k,1,0.7155700998846442,370.2739457997959,371.28498169989325,371.2683249998372,None,370.2739457997959,None,370.2739457997959,None,370.2739457997959,None,371.98519978991243,None,371.98519978991243,None,371.98519978991243,None,,,,,,,,,,,,,,201,2023-03-27_12h58.36.203,Main,2022.1.1,59.87245962146879,
neutral,positive,1,k,k,,,,,,,,,6,11,119,4,,,,,,,,,main,2,2,1,positive,neutral,k,k,1,0.5815480998717248,371.990675999783,373.00162589992397,372.98494529980235,None,371.990675999783,None,371.990675999783,None,371.990675999783,None,373.5687301898608,None,373.5687301898608,None,373.5687301898608,None,,,,,,,,,,,,,,201,2023-03-27_12h58.36.203,Main,2022.1.1,59.87245962146879,
negative,neutral,2,j,l,,,,,,,,,6,12,120,12,,,,,,,,,main,1,1,2,neutral,negative,l,l,1,0.6979726999998093,373.57503609987907,374.5876346998848,374.57139439997263,None,373.57503609987907,None,373.57503609987907,None,373.57503609987907,None,375.2681980898371,None,375.2681980898371,None,375.2681980898371,None,,,,,,,,,,,,,,201,2023-03-27_12h58.36.203,Main,2022.1.1,59.87245962146879,
positive,negative,2,l,j,,,,,,,,,6,13,121,14,,,,,,,,,main,2,2,2,negative,positive,j,j,1,0.6980375000275671,375.2716170998756,376.268219999969,376.268219999969,None,375.2716170998756,None,375.2716170998756,None,375.2716170998756,None,376.96791058981324,None,376.96791058981324,None,376.96791058981324,None,,,,,,,,,,,,,,201,2023-03-27_12h58.36.203,Main,2022.1.1,59.87245962146879,
neutral,neutral,1,k,k,,,,,,,,,6,14,122,1,,,,,,,,,main,2,2,1,neutral,neutral,k,k,1,0.7319078999571502,376.97345609986223,377.9848629999906,377.9682818998117,None,376.97345609986223,None,376.97345609986223,None,376.97345609986223,None,378.70147938996087,None,378.70147938996087,None,378.70147938996087,None,,,,,,,,,,,,,,201,2023-03-27_12h58.36.203,Main,2022.1.1,59.87245962146879,
positive,negative,1,l,j,,,,,,,,,6,15,123,5,,,,,,,,,main,1,1,1,negative,positive,j,l,0,0.8481529999990016,378.70703059993684,379.7181421997957,379.7014941999223,None,378.70703059993684,None,378.70703059993684,None,378.70703059993684,None,380.55144319985993,None,380.55144319985993,None,380.55144319985993,None,,,,,,,,,,,,,,201,2023-03-27_12h58.36.203,Main,2022.1.1,59.87245962146879,
positive,positive,1,l,j,,,,,,,,,6,16,124,2,,,,,,,,,main,2,2,1,positive,positive,j,j,1,0.7509183001238853,381.55272309994325,382.56810979987495,382.5347378998995,None,381.55272309994325,None,381.55272309994325,None,381.55272309994325,None,383.3013760898495,None,383.3013760898495,None,383.3013760898495,None,,,,,,,,,,,,,,201,2023-03-27_12h58.36.203,Main,2022.1.1,59.87245962146879,
negative,negative,1,j,l,,,,,,,,,6,17,125,0,,,,,,,,,main,2,2,1,negative,negative,l,l,1,0.8479808999691159,383.30543509987183,384.3180664998945,384.3013941999525,None,383.30543509987183,None,383.30543509987183,None,383.30543509987183,None,385.1513389900094,None,385.1513389900094,None,385.1513389900094,None,,,,,,,,,,,,,,201,2023-03-27_12h58.36.203,Main,2022.1.1,59.87245962146879,
positive,positive,2,l,j,,,,,,,,,7,0,126,11,,,,,,,,,main,2,2,2,positive,positive,j,j,1,0.6318159999791533,385.1549565999303,386.1680087998975,386.1541619999334,None,385.1549565999303,None,385.1549565999303,None,385.1549565999303,None,386.78466148993465,None,386.78466148993465,None,386.78466148993465,None,,,,,,,,,,,,,,201,2023-03-27_12h58.36.203,Main,2022.1.1,59.87245962146879,
neutral,positive,1,k,k,,,,,,,,,7,1,127,4,,,,,,,,,main,1,1,1,positive,neutral,k,k,1,0.7484470999334008,386.78798779984936,387.8013205998577,387.78464169986546,None,386.78798779984936,None,386.78798779984936,None,386.78798779984936,None,388.53469558984506,None,388.53469558984506,None,388.53469558984506,None,,,,,,,,,,,,,,201,2023-03-27_12h58.36.203,Main,2022.1.1,59.87245962146879,
negative,negative,1,j,l,,,,,,,,,7,2,128,0,,,,,,,,,main,1,1,1,negative,negative,l,l,1,0.7818745002150536,388.53785869991407,389.5345944999717,389.5345944999717,None,388.53785869991407,None,388.53785869991407,None,388.53785869991407,None,390.31790598987135,None,390.31790598987135,None,390.31790598987135,None,,,,,,,,,,,,,,201,2023-03-27_12h58.36.203,Main,2022.1.1,59.87245962146879,
negative,negative,2,j,l,,,,,,,,,7,3,129,9,,,,,,,,,main,2,2,2,negative,negative,l,l,1,0.697985699865967,390.3218376999721,391.33730619982816,391.3179474999197,None,390.3218376999721,None,390.3218376999721,None,390.3218376999721,None,392.0178433898138,None,392.0178433898138,None,392.0178433898138,None,,,,,,,,,,,,,,201,2023-03-27_12h58.36.203,Main,2022.1.1,59.87245962146879,
positive,neutral,2,l,j,,,,,,,,,7,4,130,17,,,,,,,,,main,2,2,2,neutral,positive,j,j,1,0.6663373000919819,392.021177199902,393.01788969989866,393.01788969989866,None,392.021177199902,None,392.021177199902,None,392.021177199902,None,393.6844972899882,None,393.6844972899882,None,393.6844972899882,None,,,,,,,,,,,,,,201,2023-03-27_12h58.36.203,Main,2022.1.1,59.87245962146879,
positive,positive,1,l,j,,,,,,,,,7,5,131,2,,,,,,,,,main,2,2,1,positive,positive,j,j,1,0.9306312999688089,393.69066689978354,394.70389689994045,394.6873107999563,None,393.69066689978354,None,393.69066689978354,None,393.69066689978354,None,395.6177764899796,None,395.6177764899796,None,395.6177764899796,None,,,,,,,,,,,,,,201,2023-03-27_12h58.36.203,Main,2022.1.1,59.87245962146879,
neutral,neutral,2,k,k,,,,,,,,,7,6,132,10,,,,,,,,,main,1,1,2,neutral,neutral,k,k,1,0.6986118000932038,395.62378409993835,396.63715989980847,396.61778779979795,None,395.62378409993835,None,395.62378409993835,None,395.62378409993835,None,397.31793338984716,None,397.31793338984716,None,397.31793338984716,None,,,,,,,,,,,,,,201,2023-03-27_12h58.36.203,Main,2022.1.1,59.87245962146879,
neutral,neutral,1,k,k,,,,,,,,,7,7,133,1,,,,,,,,,main,2,2,1,neutral,neutral,k,k,1,0.68173209996894,397.3229874998797,398.3371648998,398.31779699982144,None,397.3229874998797,None,397.3229874998797,None,397.3229874998797,None,399.0010891898302,None,399.0010891898302,None,399.0010891898302,None,,,,,,,,,,,,,,201,2023-03-27_12h58.36.203,Main,2022.1.1,59.87245962146879,
negative,neutral,2,j,l,,,,,,,,,7,8,134,12,,,,,,,,,main,1,1,2,neutral,negative,l,l,1,0.7648938000202179,399.0067234998569,400.01771929999813,400.0038096997887,None,399.0067234998569,None,399.0067234998569,None,399.0067234998569,None,400.7676929898327,None,400.7676929898327,None,400.7676929898327,None,,,,,,,,,,,,,,201,2023-03-27_12h58.36.203,Main,2022.1.1,59.87245962146879,
neutral,negative,2,k,k,,,,,,,,,7,9,135,16,,,,,,,,,main,2,2,2,negative,neutral,k,k,1,0.7176900999620557,400.77056749979965,401.784381599864,401.7677071997896,None,400.77056749979965,None,400.77056749979965,None,400.77056749979965,None,402.48436248993966,None,402.48436248993966,None,402.48436248993966,None,,,,,,,,,,,,,,201,2023-03-27_12h58.36.203,Main,2022.1.1,59.87245962146879,
negative,positive,2,j,l,,,,,,,,,7,10,136,15,,,,,,,,,main,1,1,2,positive,negative,l,l,1,0.8459904999472201,402.49033849989064,403.50102289998904,403.48434949992225,None,402.49033849989064,None,402.49033849989064,None,402.49033849989064,None,404.3343186899321,None,404.3343186899321,None,404.3343186899321,None,,,,,,,,,,,,,,201,2023-03-27_12h58.36.203,Main,2022.1.1,59.87245962146879,
negative,neutral,1,j,l,,,,,,,,,7,11,137,3,,,,,,,,,main,2,2,1,neutral,negative,l,l,1,0.7318037000950426,404.33979419991374,405.3509428999387,405.3203561999835,None,404.33979419991374,None,404.33979419991374,None,404.33979419991374,None,406.06756368994246,None,406.06756368994246,None,406.06756368994246,None,,,,,,,,,,,,,,201,2023-03-27_12h58.36.203,Main,2022.1.1,59.87245962146879,
neutral,negative,1,k,k,,,,,,,,,7,12,138,7,,,,,,,,,main,1,1,1,negative,neutral,k,k,1,0.7652869001030922,406.07315059984103,407.084271799773,407.0677659998182,None,406.07315059984103,None,406.07315059984103,None,406.07315059984103,None,407.8341988899512,None,407.8341988899512,None,407.8341988899512,None,,,,,,,,,,,,,,201,2023-03-27_12h58.36.203,Main,2022.1.1,59.87245962146879,
positive,negative,1,l,j,,,,,,,,,7,13,139,5,,,,,,,,,main,1,1,1,negative,positive,j,j,1,0.6479750999715179,407.8400985999033,408.85086719994433,408.83421109989285,None,407.8400985999033,None,407.8400985999033,None,407.8400985999033,None,409.4841695899842,None,409.4841695899842,None,409.4841695899842,None,,,,,,,,,,,,,,201,2023-03-27_12h58.36.203,Main,2022.1.1,59.87245962146879,
positive,neutral,1,l,j,,,,,,,,,7,14,140,8,,,,,,,,,main,1,1,1,neutral,positive,j,j,1,0.9650954999960959,409.48957389988936,410.50085469987243,410.4841922998894,None,409.48957389988936,None,409.48957389988936,None,409.48957389988936,None,411.4508331899298,None,411.4508331899298,None,411.4508331899298,None,,,,,,,,,,,,,,201,2023-03-27_12h58.36.203,Main,2022.1.1,59.87245962146879,
neutral,positive,2,k,k,,,,,,,,,7,15,141,13,,,,,,,,,main,2,2,2,positive,neutral,k,k,1,0.6649943001102656,411.45668389997445,412.4674572998192,412.45363009977154,None,411.45668389997445,None,411.45668389997445,None,411.45668389997445,None,413.11759278986136,None,413.11759278986136,None,413.11759278986136,None,,,,,,,,,,,,,,201,2023-03-27_12h58.36.203,Main,2022.1.1,59.87245962146879,
positive,negative,2,l,j,,,,,,,,,7,16,142,14,,,,,,,,,main,1,1,2,negative,positive,j,j,1,0.6814840000588447,413.12149639986455,414.13410679996014,414.1174285998568,None,413.12149639986455,None,413.12149639986455,None,413.12149639986455,None,414.80073948989155,None,414.80073948989155,None,414.80073948989155,None,,,,,,,,,,,,,,201,2023-03-27_12h58.36.203,Main,2022.1.1,59.87245962146879,
negative,positive,1,j,l,,,,,,,,,7,17,143,6,,,,,,,,,main,2,2,1,positive,negative,l,l,1,0.816371199907735,414.8059859999921,415.81739229988307,415.80347029981203,None,414.8059859999921,None,414.8059859999921,None,414.8059859999921,None,416.61743778984527,None,416.61743778984527,None,416.61743778984527,None,,,,,,,,,,,,,,201,2023-03-27_12h58.36.203,Main,2022.1.1,59.87245962146879,
negative,positive,2,j,l,,,,,,,,,8,0,144,15,,,,,,,,,main,2,2,2,positive,negative,l,l,1,0.647362899966538,416.62214150000364,417.6367471998092,417.6173646999523,None,416.62214150000364,None,416.62214150000364,None,416.62214150000364,None,418.26734748987946,None,418.26734748987946,None,418.26734748987946,None,,,,,,,,,,,,,,201,2023-03-27_12h58.36.203,Main,2022.1.1,59.87245962146879,
neutral,neutral,2,k,k,,,,,,,,,8,1,145,10,,,,,,,,,main,1,1,2,neutral,neutral,k,k,1,0.6480892000254244,418.2706848999951,419.2867754998151,419.26736119994894,None,418.2706848999951,None,418.2706848999951,None,418.2706848999951,None,419.9173219899414,None,419.9173219899414,None,419.9173219899414,None,,,,,,,,,,,,,,201,2023-03-27_12h58.36.203,Main,2022.1.1,59.87245962146879,
neutral,negative,1,k,k,,,,,,,,,8,2,146,7,,,,,,,,,main,2,2,1,negative,neutral,k,k,1,0.5818193000741303,419.9206878999248,420.92001329991035,420.92001329991035,None,419.9206878999248,None,419.9206878999248,None,419.9206878999248,None,421.50072048993314,None,421.50072048993314,None,421.50072048993314,None,,,,,,,,,,,,,,201,2023-03-27_12h58.36.203,Main,2022.1.1,59.87245962146879,
neutral,positive,1,k,k,,,,,,,,,8,3,147,4,,,,,,,,,main,2,2,1,positive,neutral,k,k,1,0.5159384000580758,421.5174106999766,422.5172915000003,422.5006104998756,None,421.5174106999766,None,421.5174106999766,None,421.5174106999766,None,423.01698199000674,None,423.01698199000674,None,423.01698199000674,None,,,,,,,,,,,,,,201,2023-03-27_12h58.36.203,Main,2022.1.1,59.87245962146879,
negative,negative,2,j,l,,,,,,,,,8,4,148,9,,,,,,,,,main,1,1,2,negative,negative,l,l,1,0.6307803001254797,423.024417999899,424.03398979990743,424.01726949983276,None,423.024417999899,None,423.024417999899,None,423.024417999899,None,424.6505433900049,None,424.6505433900049,None,424.6505433900049,None,,,,,,,,,,,,,,201,2023-03-27_12h58.36.203,Main,2022.1.1,59.87245962146879,
neutral,negative,2,k,k,,,,,,,,,8,5,149,16,,,,,,,,,main,2,2,2,negative,neutral,k,k,1,0.631842999951914,424.6558579998091,425.6673101999331,425.6505322998855,None,424.6558579998091,None,424.6558579998091,None,424.6558579998091,None,426.28393528999294,None,426.28393528999294,None,426.28393528999294,None,,,,,,,,,,,,,,201,2023-03-27_12h58.36.203,Main,2022.1.1,59.87245962146879,
positive,neutral,2,l,j,,,,,,,,,8,6,150,17,,,,,,,,,main,1,1,2,neutral,positive,j,j,1,0.6815899999346584,426.2874081998598,427.28384869988076,427.28384869988076,None,426.2874081998598,None,426.2874081998598,None,426.2874081998598,None,427.9671290897997,None,427.9671290897997,None,427.9671290897997,None,,,,,,,,,,,,,,201,2023-03-27_12h58.36.203,Main,2022.1.1,59.87245962146879,
negative,negative,1,j,l,,,,,,,,,8,7,151,0,,,,,,,,,main,1,1,1,negative,negative,l,l,1,0.6493670002091676,427.97051179991104,428.9838113998994,428.9700085998047,None,427.97051179991104,None,427.97051179991104,None,427.97051179991104,None,429.61811188997234,None,429.61811188997234,None,429.61811188997234,None,,,,,,,,,,,,,,201,2023-03-27_12h58.36.203,Main,2022.1.1,59.87245962146879,
neutral,positive,2,k,k,,,,,,,,,8,8,152,13,,,,,,,,,main,2,2,2,positive,neutral,k,k,1,0.5317486999556422,429.6239812998101,430.6338066000026,430.61710709985346,None,429.6239812998101,None,429.6239812998101,None,429.6239812998101,None,431.15045219000893,None,431.15045219000893,None,431.15045219000893,None,,,,,,,,,,,,,,201,2023-03-27_12h58.36.203,Main,2022.1.1,59.87245962146879,
negative,neutral,1,j,l,,,,,,,,,8,9,153,3,,,,,,,,,main,2,2,1,neutral,negative,l,k,0,0.49738799990154803,431.1565663998481,432.16708449996077,432.15042069996707,None,431.1565663998481,None,431.1565663998481,None,431.1565663998481,None,432.65316679980606,None,432.65316679980606,None,432.65316679980606,None,,,,,,,,,,,,,,201,2023-03-27_12h58.36.203,Main,2022.1.1,59.87245962146879,
neutral,neutral,1,k,k,,,,,,,,,8,10,154,1,,,,,,,,,main,2,2,1,neutral,neutral,k,k,1,0.8009351999498904,433.6676954999566,434.6671722999308,434.6531163000036,None,433.6676954999566,None,433.6676954999566,None,433.6676954999566,None,435.4669653898338,None,435.4669653898338,None,435.4669653898338,None,,,,,,,,,,,,,,201,2023-03-27_12h58.36.203,Main,2022.1.1,59.87245962146879,
positive,negative,2,l,j,,,,,,,,,8,11,155,14,,,,,,,,,main,2,2,2,negative,positive,j,j,1,0.5981949998531491,435.4705311998259,436.4837425998412,436.46698249992914,None,435.4705311998259,None,435.4705311998259,None,435.4705311998259,None,437.0670527898939,None,437.0670527898939,None,437.0670527898939,None,,,,,,,,,,,,,,201,2023-03-27_12h58.36.203,Main,2022.1.1,59.87245962146879,
positive,positive,2,l,j,,,,,,,,,8,12,156,11,,,,,,,,,main,2,2,2,positive,positive,j,j,1,0.5988606999162585,437.0715351998806,438.08361599990167,438.0669649997726,None,437.0715351998806,None,437.0715351998806,None,437.0715351998806,None,438.6671002899995,None,438.6671002899995,None,438.6671002899995,None,,,,,,,,,,,,,,201,2023-03-27_12h58.36.203,Main,2022.1.1,59.87245962146879,
positive,positive,1,l,j,,,,,,,,,8,13,157,2,,,,,,,,,main,2,2,1,positive,positive,j,j,1,0.6468461002223194,438.67232999997213,439.68355679977685,439.666898699943,None,438.67232999997213,None,438.67232999997213,None,438.67232999997213,None,440.3166568897897,None,440.3166568897897,None,440.3166568897897,None,,,,,,,,,,,,,,201,2023-03-27_12h58.36.203,Main,2022.1.1,59.87245962146879,
negative,positive,1,j,l,,,,,,,,,8,14,158,6,,,,,,,,,main,1,1,1,positive,negative,l,l,1,0.7650262000970542,440.32047539995983,441.3362807999365,441.3170216998551,None,440.32047539995983,None,440.32047539995983,None,440.32047539995983,None,442.0835192898987,None,442.0835192898987,None,442.0835192898987,None,,,,,,,,,,,,,,201,2023-03-27_12h58.36.203,Main,2022.1.1,59.87245962146879,
positive,negative,1,l,j,,,,,,,,,8,15,159,5,,,,,,,,,main,1,1,1,negative,positive,j,j,1,0.7650797998066992,442.0868067999836,443.10020509990864,443.0863319998607,None,442.0868067999836,None,442.0868067999836,None,442.0868067999836,None,443.85015568991656,None,443.85015568991656,None,443.85015568991656,None,,,,,,,,,,,,,,201,2023-03-27_12h58.36.203,Main,2022.1.1,59.87245962146879,
negative,neutral,2,j,l,,,,,,,,,8,16,160,12,,,,,,,,,main,2,2,2,neutral,negative,l,l,1,0.7150936000980437,443.8557809998747,444.86684069992043,444.8501624998171,None,443.8557809998747,None,443.8557809998747,None,443.8557809998747,None,445.5667824898148,None,445.5667824898148,None,445.5667824898148,None,,,,,,,,,,,,,,201,2023-03-27_12h58.36.203,Main,2022.1.1,59.87245962146879,
positive,neutral,1,l,j,,,,,,,,,8,17,161,8,,,,,,,,,main,2,2,1,neutral,positive,j,j,1,0.6492312999907881,445.572200599825,446.5861283999402,446.5667660997715,None,445.572200599825,None,445.572200599825,None,445.572200599825,None,447.2167544899741,None,447.2167544899741,None,447.2167544899741,None,,,,,,,,,,,,,,201,2023-03-27_12h58.36.203,Main,2022.1.1,59.87245962146879,
positive,negative,1,l,j,,,,,,,,,9,0,162,5,,,,,,,,,main,2,2,1,negative,positive,j,j,1,0.6144081999082118,447.23349989997223,448.23343359981664,448.2167543999385,None,447.23349989997223,None,447.23349989997223,None,447.23349989997223,None,448.83341038988436,None,448.83341038988436,None,448.83341038988436,None,,,,,,,,,,,,,,201,2023-03-27_12h58.36.203,Main,2022.1.1,59.87245962146879,
neutral,positive,2,k,k,,,,,,,,,9,1,163,13,,,,,,,,,main,2,2,2,positive,neutral,k,k,1,0.6816464001312852,448.83709129993804,449.85019759996794,449.8333928999491,None,448.83709129993804,None,448.83709129993804,None,448.83709129993804,None,450.516704989993,None,450.516704989993,None,450.516704989993,None,,,,,,,,,,,,,,201,2023-03-27_12h58.36.203,Main,2022.1.1,59.87245962146879,
positive,neutral,2,l,j,,,,,,,,,9,2,164,17,,,,,,,,,main,1,1,2,neutral,positive,j,j,1,0.6333498999010772,450.52221559989266,451.53334659989923,451.5195562997833,None,450.52221559989266,None,450.52221559989266,None,450.52221559989266,None,452.1502009899588,None,452.1502009899588,None,452.1502009899588,None,,,,,,,,,,,,,,201,2023-03-27_12h58.36.203,Main,2022.1.1,59.87245962146879,
negative,negative,1,j,l,,,,,,,,,9,3,165,0,,,,,,,,,main,1,1,1,negative,negative,l,l,1,0.7802069000899792,452.155355299823,453.16668319981545,453.14999979990534,None,452.155355299823,None,452.155355299823,None,452.155355299823,None,453.93328968987333,None,453.93328968987333,None,453.93328968987333,None,,,,,,,,,,,,,,201,2023-03-27_12h58.36.203,Main,2022.1.1,59.87245962146879,
negative,positive,1,j,l,,,,,,,,,9,4,166,6,,,,,,,,,main,1,1,1,positive,negative,l,l,1,0.6985222999937832,453.93694379995577,454.94997609988786,454.93333429982886,None,453.93694379995577,None,453.93694379995577,None,453.93694379995577,None,455.6332963899942,None,455.6332963899942,None,455.6332963899942,None,,,,,,,,,,,,,,201,2023-03-27_12h58.36.203,Main,2022.1.1,59.87245962146879,
neutral,positive,1,k,k,,,,,,,,,9,5,167,4,,,,,,,,,main,1,1,1,positive,neutral,k,k,1,0.7813436000142246,455.63929339987226,456.6500335999299,456.6332801999524,None,455.63929339987226,None,455.63929339987226,None,455.63929339987226,None,457.4165493898792,None,457.4165493898792,None,457.4165493898792,None,,,,,,,,,,,,,,201,2023-03-27_12h58.36.203,Main,2022.1.1,59.87245962146879,
positive,positive,2,l,j,,,,,,,,,9,6,168,11,,,,,,,,,main,1,1,2,positive,positive,j,j,1,0.7820347999222577,457.421997099882,458.4331952999346,458.4192853998393,None,457.421997099882,None,457.421997099882,None,457.421997099882,None,459.1998772899853,None,459.1998772899853,None,459.1998772899853,None,,,,,,,,,,,,,,201,2023-03-27_12h58.36.203,Main,2022.1.1,59.87245962146879,
negative,neutral,1,j,l,,,,,,,,,9,7,169,3,,,,,,,,,main,2,2,1,neutral,negative,l,l,1,0.74870719993487,459.20545199979097,460.21667659981176,460.1998621998355,None,459.20545199979097,None,459.20545199979097,None,459.20545199979097,None,460.9498337900033,None,460.9498337900033,None,460.9498337900033,None,,,,,,,,,,,,,,201,2023-03-27_12h58.36.203,Main,2022.1.1,59.87245962146879,
neutral,negative,1,k,k,,,,,,,,,9,8,170,7,,,,,,,,,main,1,1,1,negative,neutral,k,k,1,0.6647835997864604,460.95580489980057,461.96646609995514,461.9498171999585,None,460.95580489980057,None,460.95580489980057,None,460.95580489980057,None,462.61648678982164,None,462.61648678982164,None,462.61648678982164,None,,,,,,,,,,,,,,201,2023-03-27_12h58.36.203,Main,2022.1.1,59.87245962146879,
positive,positive,1,l,j,,,,,,,,,9,9,171,2,,,,,,,,,main,2,2,1,positive,positive,j,j,1,0.6316660000011325,462.6223970998544,463.63312869984657,463.6165582998656,None,462.6223970998544,None,462.6223970998544,None,462.6223970998544,None,464.2497348898789,None,464.2497348898789,None,464.2497348898789,None,,,,,,,,,,,,,,201,2023-03-27_12h58.36.203,Main,2022.1.1,59.87245962146879,
positive,neutral,1,l,j,,,,,,,,,9,10,172,8,,,,,,,,,main,1,1,1,neutral,positive,j,j,1,0.6647187999915332,464.2561797997914,465.2664748998359,465.2499902998097,None,464.2561797997914,None,464.2561797997914,None,464.2561797997914,None,465.9165613899706,None,465.9165613899706,None,465.9165613899706,None,,,,,,,,,,,,,,201,2023-03-27_12h58.36.203,Main,2022.1.1,59.87245962146879,
negative,negative,2,j,l,,,,,,,,,9,11,173,9,,,,,,,,,main,2,2,2,negative,negative,l,l,1,0.7829980000387877,465.92684009997174,466.9330907999538,466.9191177999601,None,465.92684009997174,None,465.92684009997174,None,465.92684009997174,None,467.69976168980355,None,467.69976168980355,None,467.69976168980355,None,,,,,,,,,,,,,,201,2023-03-27_12h58.36.203,Main,2022.1.1,59.87245962146879,
negative,neutral,2,j,l,,,,,,,,,9,12,174,12,,,,,,,,,main,2,2,2,neutral,negative,l,l,1,0.7275881001260132,467.707616899861,468.716420999961,468.69968579988927,None,467.707616899861,None,467.707616899861,None,467.707616899861,None,469.4329603898106,None,469.4329603898106,None,469.4329603898106,None,,,,,,,,,,,,,,201,2023-03-27_12h58.36.203,Main,2022.1.1,59.87245962146879,
neutral,neutral,1,k,k,,,,,,,,,9,13,175,1,,,,,,,,,main,2,2,1,neutral,neutral,k,k,1,0.6641628998331726,469.4395834999159,470.44972799997777,470.4329931999091,None,469.4395834999159,None,469.4395834999159,None,469.4395834999159,None,471.0997162898304,None,471.0997162898304,None,471.0997162898304,None,,,,,,,,,,,,,,201,2023-03-27_12h58.36.203,Main,2022.1.1,59.87245962146879,
neutral,negative,2,k,k,,,,,,,,,9,14,176,16,,,,,,,,,main,2,2,2,negative,neutral,k,k,1,0.5981614999473095,471.10320779983886,472.11642439989373,472.09972619987093,None,471.10320779983886,None,471.10320779983886,None,471.10320779983886,None,472.6995569899911,None,472.6995569899911,None,472.6995569899911,None,,,,,,,,,,,,,,201,2023-03-27_12h58.36.203,Main,2022.1.1,59.87245962146879,
positive,negative,2,l,j,,,,,,,,,9,15,177,14,,,,,,,,,main,2,2,2,negative,positive,j,j,1,0.8482704998459667,472.71914849989116,473.73293139995076,473.69959819992073,None,472.71914849989116,None,472.71914849989116,None,472.71914849989116,None,474.5495352898026,None,474.5495352898026,None,474.5495352898026,None,,,,,,,,,,,,,,201,2023-03-27_12h58.36.203,Main,2022.1.1,59.87245962146879,
negative,positive,2,j,l,,,,,,,,,9,16,178,15,,,,,,,,,main,1,1,2,positive,negative,l,l,1,0.7485227999277413,474.5550589999184,475.566220899811,475.54958139988594,None,474.5550589999184,None,474.5550589999184,None,474.5550589999184,None,476.2995938897831,None,476.2995938897831,None,476.2995938897831,None,,,,,,,,,,,,,,201,2023-03-27_12h58.36.203,Main,2022.1.1,59.87245962146879,
neutral,neutral,2,k,k,,,,,,,,,9,17,179,10,,,,,,,,,main,2,2,2,neutral,neutral,k,k,1,0.7827936001121998,476.30486669996753,477.3161745998077,477.2994953999296,None,476.30486669996753,None,476.30486669996753,None,476.30486669996753,None,478.0827965898672,None,478.0827965898672,None,478.0827965898672,None,,,,,,,,,,,,,,201,2023-03-27_12h58.36.203,Main,2022.1.1,59.87245962146879,
negative,negative,2,j,l,,,,,,,,,10,0,180,9,,,,,,,,,main,2,2,2,negative,negative,l,l,1,0.9473190000280738,478.08895669993944,479.09946089982986,479.0855364999734,None,478.08895669993944,None,478.08895669993944,None,478.08895669993944,None,480.03295718987937,None,480.03295718987937,None,480.03295718987937,None,,,,,,,,,,,,,,201,2023-03-27_12h58.36.203,Main,2022.1.1,59.87245962146879,
positive,positive,2,l,j,,,,,,,,,10,1,181,11,,,,,,,,,main,2,2,2,positive,positive,j,j,1,0.6818911000154912,480.0389278999064,481.0494465997908,481.01891319989227,None,480.0389278999064,None,480.0389278999064,None,480.0389278999064,None,481.71621668983715,None,481.71621668983715,None,481.71621668983715,None,,,,,,,,,,,,,,201,2023-03-27_12h58.36.203,Main,2022.1.1,59.87245962146879,
neutral,neutral,1,k,k,,,,,,,,,10,2,182,1,,,,,,,,,main,1,1,1,neutral,neutral,k,k,1,0.7473325999453664,481.7221583998762,482.7354613998905,482.718837399967,None,481.7221583998762,None,481.7221583998762,None,481.7221583998762,None,483.46604548993054,None,483.46604548993054,None,483.46604548993054,None,,,,,,,,,,,,,,201,2023-03-27_12h58.36.203,Main,2022.1.1,59.87245962146879,
negative,neutral,2,j,l,,,,,,,,,10,3,183,12,,,,,,,,,main,1,1,2,neutral,negative,l,l,1,0.798505200073123,483.4719014998991,484.48552689980716,484.4660211999435,None,483.4719014998991,None,483.4719014998991,None,483.4719014998991,None,485.2657933898037,None,485.2657933898037,None,485.2657933898037,None,,,,,,,,,,,,,,201,2023-03-27_12h58.36.203,Main,2022.1.1,59.87245962146879,
positive,positive,1,l,j,,,,,,,,,10,4,184,2,,,,,,,,,main,2,2,1,positive,positive,j,j,1,0.8652776000089943,485.27304329979233,486.2826543999836,486.2660137999337,None,485.27304329979233,None,485.27304329979233,None,485.27304329979233,None,487.1327789900126,None,487.1327789900126,None,487.1327789900126,None,,,,,,,,,,,,,,201,2023-03-27_12h58.36.203,Main,2022.1.1,59.87245962146879,
neutral,neutral,2,k,k,,,,,,,,,10,5,185,10,,,,,,,,,main,1,1,2,neutral,neutral,k,k,1,0.7482241000980139,487.1379131998401,488.1520160997752,488.13270029984415,None,487.1379131998401,None,487.1379131998401,None,487.1379131998401,None,488.8826727899024,None,488.8826727899024,None,488.8826727899024,None,,,,,,,,,,,,,,201,2023-03-27_12h58.36.203,Main,2022.1.1,59.87245962146879,
positive,negative,1,l,j,,,,,,,,,10,6,186,5,,,,,,,,,main,1,1,1,negative,positive,j,j,1,0.6987694001290947,488.88860549987294,489.89939279993996,489.88258259999566,None,488.88860549987294,None,488.88860549987294,None,488.88860549987294,None,490.5825483898399,None,490.5825483898399,None,490.5825483898399,None,,,,,,,,,,,,,,201,2023-03-27_12h58.36.203,Main,2022.1.1,59.87245962146879,
neutral,negative,1,k,k,,,,,,,,,10,7,187,7,,,,,,,,,main,2,2,1,negative,neutral,k,k,1,0.7647295000497252,490.5864911999088,491.59923429996707,491.58544289995916,None,490.5864911999088,None,490.5864911999088,None,490.5864911999088,None,492.3491886900039,None,492.3491886900039,None,492.3491886900039,None,,,,,,,,,,,,,,201,2023-03-27_12h58.36.203,Main,2022.1.1,59.87245962146879,
neutral,negative,2,k,k,,,,,,,,,10,8,188,16,,,,,,,,,main,2,2,2,negative,neutral,k,k,1,0.7315756001044065,492.35411979979835,493.3658539999742,493.3491678999271,None,492.35411979979835,None,492.35411979979835,None,492.35411979979835,None,494.0824643898988,None,494.0824643898988,None,494.0824643898988,None,,,,,,,,,,,,,,201,2023-03-27_12h58.36.203,Main,2022.1.1,59.87245962146879,
negative,neutral,1,j,l,,,,,,,,,10,9,189,3,,,,,,,,,main,2,2,1,neutral,negative,l,l,1,1.0328232999891043,494.08620539982803,495.1018622999545,495.08247849997133,None,494.08620539982803,None,494.08620539982803,None,494.08620539982803,None,496.115532790008,None,496.115532790008,None,496.115532790008,None,,,,,,,,,,,,,,201,2023-03-27_12h58.36.203,Main,2022.1.1,59.87245962146879,
positive,neutral,2,l,j,,,,,,,,,10,10,190,17,,,,,,,,,main,2,2,2,neutral,positive,j,j,1,0.6640744998585433,496.1198284998536,497.1324760999996,497.1158032999374,None,496.1198284998536,None,496.1198284998536,None,496.1198284998536,None,497.78244258991907,None,497.78244258991907,None,497.78244258991907,None,,,,,,,,,,,,,,201,2023-03-27_12h58.36.203,Main,2022.1.1,59.87245962146879,
negative,positive,2,j,l,,,,,,,,,10,11,191,15,,,,,,,,,main,1,1,2,positive,negative,l,l,1,0.9153954999055713,497.7854702998884,498.79910089983605,498.76576819992624,None,497.7854702998884,None,497.7854702998884,None,497.7854702998884,None,499.6990779898362,None,499.6990779898362,None,499.6990779898362,None,,,,,,,,,,,,,,201,2023-03-27_12h58.36.203,Main,2022.1.1,59.87245962146879,
negative,positive,1,j,l,,,,,,,,,10,12,192,6,,,,,,,,,main,2,2,1,positive,negative,l,l,1,0.7982894000597298,499.70282969996333,500.7157297998201,500.69907629978843,None,499.70282969996333,None,499.70282969996333,None,499.70282969996333,None,501.49901858989614,None,501.49901858989614,None,501.49901858989614,None,,,,,,,,,,,,,,201,2023-03-27_12h58.36.203,Main,2022.1.1,59.87245962146879,
positive,neutral,1,l,j,,,,,,,,,10,13,193,8,,,,,,,,,main,2,2,1,neutral,positive,j,j,1,0.7819505000952631,501.5157829998061,502.51837379997596,502.49898979999125,None,501.5157829998061,None,501.5157829998061,None,501.5157829998061,None,503.2823279899778,None,503.2823279899778,None,503.2823279899778,None,,,,,,,,,,,,,,201,2023-03-27_12h58.36.203,Main,2022.1.1,59.87245962146879,
neutral,positive,1,k,k,,,,,,,,,10,14,194,4,,,,,,,,,main,2,2,1,positive,neutral,k,k,1,0.715580000076443,503.2861581998877,504.2989816998597,504.28231139993295,None,503.2861581998877,None,503.2861581998877,None,503.2861581998877,None,504.99891168989706,None,504.99891168989706,None,504.99891168989706,None,,,,,,,,,,,,,,201,2023-03-27_12h58.36.203,Main,2022.1.1,59.87245962146879,
negative,negative,1,j,l,,,,,,,,,10,15,195,0,,,,,,,,,main,2,2,1,negative,negative,l,l,1,0.8143360998947173,505.01834709988907,506.01829589996487,506.00169499986805,None,505.01834709988907,None,505.01834709988907,None,505.01834709988907,None,506.8156647898024,None,506.8156647898024,None,506.8156647898024,None,,,,,,,,,,,,,,201,2023-03-27_12h58.36.203,Main,2022.1.1,59.87245962146879,
positive,negative,2,l,j,,,,,,,,,10,16,196,14,,,,,,,,,main,1,1,2,negative,positive,j,j,1,0.7316763999406248,506.8215553998016,507.83224369981326,507.8155908999033,None,506.8215553998016,None,506.8215553998016,None,506.8215553998016,None,508.5488550899783,None,508.5488550899783,None,508.5488550899783,None,,,,,,,,,,,,,,201,2023-03-27_12h58.36.203,Main,2022.1.1,59.87245962146879,
neutral,positive,2,k,k,,,,,,,,,10,17,197,13,,,,,,,,,main,1,1,2,positive,neutral,k,k,1,0.6818689999636263,508.5520913999062,509.56554319988936,509.53231039992534,None,508.5520913999062,None,508.5520913999062,None,508.5520913999062,None,510.23218738979193,None,510.23218738979193,None,510.23218738979193,None,,,,,,,,,,,,,,201,2023-03-27_12h58.36.203,Main,2022.1.1,59.87245962146879,
negative,positive,2,j,l,,,,,,,,,11,0,198,15,,,,,,,,,main,2,2,2,positive,negative,l,l,1,0.7488059001043439,510.23563509993255,511.2321674998384,511.2321674998384,None,510.23563509993255,None,510.23563509993255,None,510.23563509993255,None,511.9823437898187,None,511.9823437898187,None,511.9823437898187,None,,,,,,,,,,,,,,201,2023-03-27_12h58.36.203,Main,2022.1.1,59.87245962146879,
negative,negative,2,j,l,,,,,,,,,11,1,199,9,,,,,,,,,main,1,1,2,negative,negative,l,l,1,0.6979863999877125,511.98818139988,512.9988063999917,512.9821506999433,None,511.98818139988,None,511.98818139988,None,511.98818139988,None,513.682346389792,None,513.682346389792,None,513.682346389792,None,,,,,,,,,,,,,,201,2023-03-27_12h58.36.203,Main,2022.1.1,59.87245962146879,
neutral,positive,2,k,k,,,,,,,,,11,2,200,13,,,,,,,,,main,2,2,2,positive,neutral,k,k,1,0.6314643998630345,513.6880909998436,514.6987588999327,514.6821260999423,None,513.6880909998436,None,513.6880909998436,None,513.6880909998436,None,515.3154067899334,None,515.3154067899334,None,515.3154067899334,None,,,,,,,,,,,,,,201,2023-03-27_12h58.36.203,Main,2022.1.1,59.87245962146879,
neutral,negative,2,k,k,,,,,,,,,11,3,201,16,,,,,,,,,main,1,1,2,negative,neutral,k,k,1,0.5983617999590933,515.3185176998377,516.3155027998146,516.3155027998146,None,515.3185176998377,None,515.3185176998377,None,515.3185176998377,None,516.915370689868,None,516.915370689868,None,516.915370689868,None,,,,,,,,,,,,,,201,2023-03-27_12h58.36.203,Main,2022.1.1,59.87245962146879,
negative,neutral,2,j,l,,,,,,,,,11,4,202,12,,,,,,,,,main,2,2,2,neutral,negative,l,l,1,0.6986269000917673,516.9210793999955,517.934820199851,517.9153900998645,None,516.9210793999955,None,516.9210793999955,None,516.9210793999955,None,518.6153947898886,None,518.6153947898886,None,518.6153947898886,None,,,,,,,,,,,,,,201,2023-03-27_12h58.36.203,Main,2022.1.1,59.87245962146879,
neutral,neutral,2,k,k,,,,,,,,,11,5,203,10,,,,,,,,,main,2,2,2,neutral,neutral,k,k,1,0.6479825000278652,518.6211237998214,519.6320896998513,519.6153434999287,None,518.6211237998214,None,518.6211237998214,None,518.6211237998214,None,520.2652754899348,None,520.2652754899348,None,520.2652754899348,None,,,,,,,,,,,,,,201,2023-03-27_12h58.36.203,Main,2022.1.1,59.87245962146879,
neutral,negative,1,k,k,,,,,,,,,11,6,204,7,,,,,,,,,main,2,2,1,negative,neutral,k,k,1,0.5486049000173807,520.2689133998938,521.2652801999357,521.2652801999357,None,520.2689133998938,None,520.2689133998938,None,520.2689133998938,None,521.8152811899083,None,521.8152811899083,None,521.8152811899083,None,,,,,,,,,,,,,,201,2023-03-27_12h58.36.203,Main,2022.1.1,59.87245962146879,
neutral,neutral,1,k,k,,,,,,,,,11,7,205,1,,,,,,,,,main,1,1,1,neutral,neutral,k,k,1,0.4983294000849128,521.818713999819,522.8152657998726,522.801324899774,None,521.818713999819,None,521.818713999819,None,521.818713999819,None,523.3152570898412,None,523.3152570898412,None,523.3152570898412,None,,,,,,,,,,,,,,201,2023-03-27_12h58.36.203,Main,2022.1.1,59.87245962146879,
negative,neutral,1,j,l,,,,,,,,,11,8,206,3,,,,,,,,,main,2,2,1,neutral,negative,l,l,1,0.7816995999310166,523.3186290999874,524.3319125999697,524.2985506998375,None,523.3186290999874,None,523.3186290999874,None,523.3186290999874,None,525.0982619898161,None,525.0982619898161,None,525.0982619898161,None,,,,,,,,,,,,,,201,2023-03-27_12h58.36.203,Main,2022.1.1,59.87245962146879,
neutral,positive,1,k,k,,,,,,,,,11,9,207,4,,,,,,,,,main,2,2,1,positive,neutral,k,k,1,0.6350853000767529,525.1021406999789,526.0986144999042,526.0986144999042,None,525.1021406999789,None,525.1021406999789,None,525.1021406999789,None,526.7349150899565,None,526.7349150899565,None,526.7349150899565,None,,,,,,,,,,,,,,201,2023-03-27_12h58.36.203,Main,2022.1.1,59.87245962146879,
negative,negative,1,j,l,,,,,,,,,11,10,208,0,,,,,,,,,main,2,2,1,negative,negative,l,l,1,0.9450810998678207,526.7394146998413,527.7485141998623,527.7318575999234,None,526.7394146998413,None,526.7394146998413,None,526.7394146998413,None,528.6817903899821,None,528.6817903899821,None,528.6817903899821,None,,,,,,,,,,,,,,201,2023-03-27_12h58.36.203,Main,2022.1.1,59.87245962146879,
positive,neutral,2,l,j,,,,,,,,,11,11,209,17,,,,,,,,,main,2,2,2,neutral,positive,j,j,1,0.6973417000845075,528.6880932999775,529.6984744998626,529.6818013999145,None,528.6880932999775,None,528.6880932999775,None,528.6880932999775,None,530.3817762899446,None,530.3817762899446,None,530.3817762899446,None,,,,,,,,,,,,,,201,2023-03-27_12h58.36.203,Main,2022.1.1,59.87245962146879,
positive,negative,2,l,j,,,,,,,,,11,12,210,14,,,,,,,,,main,1,1,2,negative,positive,j,j,1,0.5818918000441045,530.387799799908,531.3984499999788,531.3817718999926,None,530.387799799908,None,530.387799799908,None,530.387799799908,None,531.9650705898414,None,531.9650705898414,None,531.9650705898414,None,,,,,,,,,,,,,,201,2023-03-27_12h58.36.203,Main,2022.1.1,59.87245962146879,
positive,positive,2,l,j,,,,,,,,,11,13,211,11,,,,,,,,,main,1,1,2,positive,positive,j,j,1,0.5149029998574406,531.9705535999965,532.9844609999564,532.9483996999916,None,531.9705535999965,None,531.9705535999965,None,531.9705535999965,None,533.4814929898596,None,533.4814929898596,None,533.4814929898596,None,,,,,,,,,,,,,,201,2023-03-27_12h58.36.203,Main,2022.1.1,59.87245962146879,
positive,positive,1,l,j,,,,,,,,,11,14,212,2,,,,,,,,,main,2,2,1,positive,positive,j,j,1,0.9478027999866754,533.5011695998255,534.5177616998553,534.4817112998571,None,533.5011695998255,None,533.5011695998255,None,533.5011695998255,None,535.4313773898641,None,535.4313773898641,None,535.4313773898641,None,,,,,,,,,,,,,,201,2023-03-27_12h58.36.203,Main,2022.1.1,59.87245962146879,
positive,neutral,1,l,j,,,,,,,,,11,15,213,8,,,,,,,,,main,2,2,1,neutral,positive,j,j,1,0.5984015001449734,535.4369629998691,536.4483402997721,536.4344883998856,None,535.4369629998691,None,535.4369629998691,None,535.4369629998691,None,537.031647089799,None,537.031647089799,None,537.031647089799,None,,,,,,,,,,,,,,201,2023-03-27_12h58.36.203,Main,2022.1.1,59.87245962146879,
negative,positive,1,j,l,,,,,,,,,11,16,214,6,,,,,,,,,main,1,1,1,positive,negative,l,l,1,0.7688341001048684,537.0346405999735,538.0483079999685,538.0150530999526,None,537.0346405999735,None,537.0346405999735,None,537.0346405999735,None,538.8018920898205,None,538.8018920898205,None,538.8018920898205,None,,,,,,,,,,,,,,201,2023-03-27_12h58.36.203,Main,2022.1.1,59.87245962146879,
positive,negative,1,l,j,,,,,,,,,11,17,215,5,,,,,,,,,main,2,2,1,negative,positive,j,j,1,0.7616016000974923,538.8060015998781,539.8149414998479,539.8010449998546,None,538.8060015998781,None,538.8060015998781,None,538.8060015998781,None,540.5658271898749,None,540.5658271898749,None,540.5658271898749,None,,,,,,,,,,,,,,201,2023-03-27_12h58.36.203,Main,2022.1.1,59.87245962146879,
negative,positive,1,j,l,,,,,,,,,12,0,216,6,,,,,,,,,main,1,1,1,positive,negative,l,l,1,0.6802461000625044,540.5725229999516,541.5844567997847,541.5648931998294,None,540.5725229999516,None,540.5725229999516,None,540.5725229999516,None,542.2481644897955,None,542.2481644897955,None,542.2481644897955,None,,,,,,,,,,,,,,201,2023-03-27_12h58.36.203,Main,2022.1.1,59.87245962146879,
neutral,positive,2,k,k,,,,,,,,,12,1,217,13,,,,,,,,,main,1,1,2,positive,neutral,k,k,1,0.6320281999651343,542.2648628999013,543.2648823999334,543.2482752997894,None,542.2648628999013,None,542.2648628999013,None,542.2648628999013,None,543.8814908898669,None,543.8814908898669,None,543.8814908898669,None,,,,,,,,,,,,,,201,2023-03-27_12h58.36.203,Main,2022.1.1,59.87245962146879,
positive,neutral,1,l,j,,,,,,,,,12,2,218,8,,,,,,,,,main,2,2,1,neutral,positive,j,j,1,0.6315227001905441,543.887083399808,544.8983226998243,544.8842741998378,None,543.887083399808,None,543.887083399808,None,543.887083399808,None,545.5147058897885,None,545.5147058897885,None,545.5147058897885,None,,,,,,,,,,,,,,201,2023-03-27_12h58.36.203,Main,2022.1.1,59.87245962146879,
neutral,neutral,2,k,k,,,,,,,,,12,3,219,10,,,,,,,,,main,1,1,2,neutral,neutral,k,k,1,0.699486400000751,545.5211283999961,546.5314714999404,546.5175716998056,None,545.5211283999961,None,545.5211283999961,None,545.5211283999961,None,547.2147366899765,None,547.2147366899765,None,547.2147366899765,None,,,,,,,,,,,,,,201,2023-03-27_12h58.36.203,Main,2022.1.1,59.87245962146879,
positive,positive,1,l,j,,,,,,,,,12,4,220,2,,,,,,,,,main,1,1,1,positive,positive,j,j,1,0.6306960000656545,547.2189854998142,548.2314109997824,548.2148651999887,None,547.2189854998142,None,547.2189854998142,None,547.2189854998142,None,548.8480708898744,None,548.8480708898744,None,548.8480708898744,None,,,,,,,,,,,,,,201,2023-03-27_12h58.36.203,Main,2022.1.1,59.87245962146879,
positive,negative,1,l,j,,,,,,,,,12,5,221,5,,,,,,,,,main,2,2,1,negative,positive,j,j,1,0.581850300077349,548.8536011998076,549.8647442997899,549.8480553999543,None,548.8536011998076,None,548.8536011998076,None,548.8536011998076,None,550.4313556898153,None,550.4313556898153,None,550.4313556898153,None,,,,,,,,,,,,,,201,2023-03-27_12h58.36.203,Main,2022.1.1,59.87245962146879,
negative,neutral,2,j,l,,,,,,,,,12,6,222,12,,,,,,,,,main,2,2,2,neutral,negative,l,l,1,0.7819194002076983,550.434885900002,551.4507266997825,551.4341911999509,None,550.434885900002,None,550.434885900002,None,550.434885900002,None,552.2146442899714,None,552.2146442899714,None,552.2146442899714,None,,,,,,,,,,,,,,201,2023-03-27_12h58.36.203,Main,2022.1.1,59.87245962146879,
negative,neutral,1,j,l,,,,,,,,,12,7,223,3,,,,,,,,,main,1,1,1,neutral,negative,l,l,1,0.6653267999645323,552.2205383998808,553.2312889997847,553.2147249998525,None,552.2205383998808,None,552.2205383998808,None,552.2205383998808,None,553.8810106899357,None,553.8810106899357,None,553.8810106899357,None,,,,,,,,,,,,,,201,2023-03-27_12h58.36.203,Main,2022.1.1,59.87245962146879,
