target,distractor,set,ans1,ans2,rep_loop2.thisRepN,rep_loop2.thisTrialN,rep_loop2.thisN,rep_loop2.thisIndex,flanker_prac_loop.thisRepN,flanker_prac_loop.thisTrialN,flanker_prac_loop.thisN,flanker_prac_loop.thisIndex,flanker_main_loop.thisRepN,flanker_main_loop.thisTrialN,flanker_main_loop.thisN,flanker_main_loop.thisIndex,fl_inst_resp.keys,fl_inst_resp.rt,sound_1.started,sound_1.stopped,image_4.started,image_4.stopped,back_2.started,back_2.stopped,main_prac,fl_cold,fl_colt,fl_set,fl_dcond,fl_tcond,fl_ans,fl_res,fl_corr,fl_rt,fix_fl.started,fix_fl.stopped,targ.started,targ.stopped,j_button.started,j_button.stopped,k_button.started,k_button.stopped,l_button.started,l_button.stopped,j_button2.started,j_button2.stopped,k_button2.started,k_button2.stopped,l_button2.started,l_button2.stopped,mainback.started,mainback.stopped,key_resp.keys,key_resp.rt,mouse_6.x,mouse_6.y,mouse_6.leftButton,mouse_6.midButton,mouse_6.rightButton,mouse_6.started,mouse_6.stopped,text_2.started,text_2.stopped,id*,date,expName,psychopyVersion,frameRate,
,,,,,0,0,0,0,,,,,,,,,space,57.95877420017496,18.727609329810367,None,76.70987299992703,None,,,,,,,,,,,,,,,,,,,,,,,,,,,,,,,,,,,,,,,,,,202,2023-03-27_15h23.20.933,Main,2022.1.1,59.002480479045545,
neutral,negative,1,k,k,,,,,0,0,0,7,,,,,,,,,,,80.5763663998805,None,prac,1,1,1,negative,neutral,k,k,1,1.5770693998783827,82.58157749986276,83.59024749998935,83.57357429992408,None,82.58157749986276,None,82.58157749986276,None,82.58157749986276,None,85.16155639989302,None,85.16155639989302,None,85.16155639989302,None,,,,,,,,,,,,,,202,2023-03-27_15h23.20.933,Main,2022.1.1,59.002480479045545,
neutral,neutral,2,k,k,,,,,0,1,1,10,,,,,,,,,,,,,prac,1,1,2,neutral,neutral,k,k,1,0.7519749999046326,86.1747881998308,87.19017579988576,87.15686389990151,None,86.1747881998308,None,86.1747881998308,None,86.1747881998308,None,87.92344942986965,None,87.92344942986965,None,87.92344942986965,None,,,,,,,,,,,,,,202,2023-03-27_15h23.20.933,Main,2022.1.1,59.002480479045545,
negative,neutral,2,j,l,,,,,0,2,2,12,,,,,,,,,,,,,prac,2,2,2,neutral,negative,j,j,1,1.2470962000079453,87.92817640001886,88.94012959999964,88.92356379982084,None,87.92817640001886,None,87.92817640001886,None,87.92817640001886,None,90.17340632989071,None,90.17340632989071,None,90.17340632989071,None,,,,,,,,,,,,,,202,2023-03-27_15h23.20.933,Main,2022.1.1,59.002480479045545,
positive,positive,1,l,j,,,,,0,3,3,2,,,,,,,,,,,,,prac,2,2,1,positive,positive,l,l,1,0.9322475998196751,90.17739789979532,91.19014129997231,91.17347039980814,None,90.17739789979532,None,90.17739789979532,None,90.17739789979532,None,92.10669442983344,None,92.10669442983344,None,92.10669442983344,None,,,,,,,,,,,,,,202,2023-03-27_15h23.20.933,Main,2022.1.1,59.002480479045545,
negative,positive,2,j,l,,,,,0,4,4,15,,,,,,,,,,,,,prac,1,1,2,positive,negative,j,j,1,1.0653442000038922,92.10995349986479,93.10954199987464,93.10954199987464,None,92.10995349986479,None,92.10995349986479,None,92.10995349986479,None,94.17334902980365,None,94.17334902980365,None,94.17334902980365,None,,,,,,,,,,,,,,202,2023-03-27_15h23.20.933,Main,2022.1.1,59.002480479045545,
neutral,neutral,1,k,k,,,,,0,5,5,1,,,,,,,,,,,,,prac,2,2,1,neutral,neutral,k,k,1,0.998836699873209,94.17733519989997,95.19006609986536,95.17334309988655,None,94.17733519989997,None,94.17733519989997,None,94.17733519989997,None,96.17330133002251,None,96.17330133002251,None,96.17330133002251,None,,,,,,,,,,,,,,202,2023-03-27_15h23.20.933,Main,2022.1.1,59.002480479045545,
negative,negative,1,j,l,,,,,0,6,6,0,,,,,,,,,,,,,prac,2,2,1,negative,negative,j,l,0,0.914738800143823,96.17727339989506,97.18998819985427,97.17344459984452,None,96.17727339989506,None,96.17727339989506,None,96.17727339989506,None,98.08996749995276,None,98.08996749995276,None,98.08996749995276,None,,,,,,,,,,,,,,202,2023-03-27_15h23.20.933,Main,2022.1.1,59.002480479045545,
positive,neutral,1,l,j,,,,,0,7,7,8,,,,,,,,,,,,,prac,1,1,1,neutral,positive,l,l,1,1.0843074000440538,99.09106040000916,100.09014539979398,100.0735343999695,None,99.09106040000916,None,99.09106040000916,None,99.09106040000916,None,101.17321292981505,None,101.17321292981505,None,101.17321292981505,None,,,,,,,,,,,,,,202,2023-03-27_15h23.20.933,Main,2022.1.1,59.002480479045545,
negative,neutral,1,j,l,,,,,0,8,8,3,,,,,,,,,,,,,prac,1,1,1,neutral,negative,j,j,1,1.014931800076738,101.17666779994033,102.19260109984316,102.17322779982351,None,101.17666779994033,None,101.17666779994033,None,101.17666779994033,None,103.18981972984038,None,103.18981972984038,None,103.18981972984038,None,,,,,,,,,,,,,,202,2023-03-27_15h23.20.933,Main,2022.1.1,59.002480479045545,
neutral,positive,1,k,k,,,,,0,9,9,4,,,,,,,,,,,,,prac,2,2,1,positive,neutral,k,k,1,0.8990372999105603,103.19314579991624,104.18986999988556,104.17590259993449,None,103.19314579991624,None,103.19314579991624,None,103.19314579991624,None,105.08986532986164,None,105.08986532986164,None,105.08986532986164,None,,,,,,,,,,,,,,202,2023-03-27_15h23.20.933,Main,2022.1.1,59.002480479045545,
negative,positive,1,j,l,,,,,0,10,10,6,,,,,,,,,,,,,prac,2,2,1,positive,negative,j,j,1,1.1318372001405805,105.0933915998321,106.10674799978733,106.0898330998607,None,105.0933915998321,None,105.0933915998321,None,105.0933915998321,None,107.22308932985179,None,107.22308932985179,None,107.22308932985179,None,,,,,,,,,,,,,,202,2023-03-27_15h23.20.933,Main,2022.1.1,59.002480479045545,
positive,negative,2,l,j,,,,,0,11,11,14,,,,,,,,,,,,,prac,1,1,2,negative,positive,l,l,1,0.8001975999213755,107.22583829984069,108.22308659995906,108.22308659995906,None,107.22583829984069,None,107.22583829984069,None,107.22583829984069,None,109.02306952998042,None,109.02306952998042,None,109.02306952998042,None,,,,,,,,,,,,,,202,2023-03-27_15h23.20.933,Main,2022.1.1,59.002480479045545,
neutral,positive,2,k,k,,,,,0,12,12,13,,,,,,,,,,,,,prac,1,1,2,positive,neutral,k,k,1,0.5473846001550555,109.02759909979068,110.03970630001277,110.02603979990818,None,109.02759909979068,None,109.02759909979068,None,109.02759909979068,None,110.57314672991633,None,110.57314672991633,None,110.57314672991633,None,,,,,,,,,,,,,,202,2023-03-27_15h23.20.933,Main,2022.1.1,59.002480479045545,
positive,negative,1,l,j,,,,,0,13,13,5,,,,,,,,,,,,,prac,2,2,1,negative,positive,l,l,1,0.7155781001783907,110.57632309990004,111.58968429989181,111.57582639995962,None,110.57632309990004,None,110.57632309990004,None,110.57632309990004,None,112.2896622300148,None,112.2896622300148,None,112.2896622300148,None,,,,,,,,,,,,,,202,2023-03-27_15h23.20.933,Main,2022.1.1,59.002480479045545,
negative,negative,2,j,l,,,,,0,14,14,9,,,,,,,,,,,,,prac,2,2,2,negative,negative,j,j,1,0.7843330998439342,112.29305029986426,113.30959209986031,113.29246479994617,None,112.29305029986426,None,112.29305029986426,None,112.29305029986426,None,114.07564372983761,None,114.07564372983761,None,114.07564372983761,None,,,,,,,,,,,,,,202,2023-03-27_15h23.20.933,Main,2022.1.1,59.002480479045545,
neutral,negative,2,k,k,,,,,0,15,15,16,,,,,,,,,,,,,prac,1,1,2,negative,neutral,k,k,1,0.8319920999929309,114.07814829982817,115.09234529989772,115.07297149999067,None,114.07814829982817,None,114.07814829982817,None,114.07814829982817,None,115.90895602987148,None,115.90895602987148,None,115.90895602987148,None,,,,,,,,,,,,,,202,2023-03-27_15h23.20.933,Main,2022.1.1,59.002480479045545,
positive,neutral,2,l,j,,,,,0,16,16,17,,,,,,,,,,,,,prac,2,2,2,neutral,positive,l,l,1,0.6325272999238223,115.91279400000349,116.92571019986644,116.90902259992436,None,115.91279400000349,None,115.91279400000349,None,115.91279400000349,None,117.54230362987145,None,117.54230362987145,None,117.54230362987145,None,,,,,,,,,,,,,,202,2023-03-27_15h23.20.933,Main,2022.1.1,59.002480479045545,
positive,positive,2,l,j,,,,,0,17,17,11,,,,,,,,,,,,,prac,2,2,2,positive,positive,l,l,1,0.6457235999405384,117.54565139999613,118.5588891999796,118.53968339995481,None,117.54565139999613,None,117.54565139999613,None,117.54565139999613,None,119.18950172998011,None,119.18950172998011,None,119.18950172998011,None,,,,,,,,,,,,,,202,2023-03-27_15h23.20.933,Main,2022.1.1,59.002480479045545,
negative,neutral,1,j,l,,,,,1,0,18,3,,,,,,,,,,,,,prac,2,2,1,neutral,negative,j,j,1,0.7652264998760074,119.19286999991164,120.2063054998871,120.1895482998807,None,119.19286999991164,None,119.19286999991164,None,119.19286999991164,None,120.95613802988082,None,120.95613802988082,None,120.95613802988082,None,,,,,,,,,,,,,,202,2023-03-27_15h23.20.933,Main,2022.1.1,59.002480479045545,
positive,negative,1,l,j,,,,,1,1,19,5,,,,,,,,,,,,,prac,1,1,1,negative,positive,l,l,1,1.248933000024408,120.96168800001033,121.97286629979499,121.93951319996268,None,120.96168800001033,None,120.96168800001033,None,120.96168800001033,None,123.20612122998573,None,123.20612122998573,None,123.20612122998573,None,,,,,,,,,,,,,,202,2023-03-27_15h23.20.933,Main,2022.1.1,59.002480479045545,
neutral,neutral,2,k,k,,,,,1,2,20,10,,,,,,,,,,,,,prac,1,1,2,neutral,neutral,k,k,1,1.331900400109589,123.20934919989668,124.22574079991318,124.18951069982722,None,123.20934919989668,None,123.20934919989668,None,123.20934919989668,None,125.53935603001155,None,125.53935603001155,None,125.53935603001155,None,,,,,,,,,,,,,,202,2023-03-27_15h23.20.933,Main,2022.1.1,59.002480479045545,
positive,negative,2,l,j,,,,,1,3,21,14,,,,,,,,,,,,,prac,2,2,2,negative,positive,l,l,1,1.1492522000335157,125.54578979988582,126.55604609986767,126.53939529997297,None,125.54578979988582,None,125.54578979988582,None,125.54578979988582,None,127.68934532995335,None,127.68934532995335,None,127.68934532995335,None,,,,,,,,,,,,,,202,2023-03-27_15h23.20.933,Main,2022.1.1,59.002480479045545,
positive,neutral,1,l,j,,,,,1,4,22,8,,,,,,,,,,,,,prac,2,2,1,neutral,positive,l,l,1,0.6980236999224871,127.70882429997437,128.72269029985182,128.68933529988863,None,127.70882429997437,None,127.70882429997437,None,127.70882429997437,None,129.38931552991272,None,129.38931552991272,None,129.38931552991272,None,,,,,,,,,,,,,,202,2023-03-27_15h23.20.933,Main,2022.1.1,59.002480479045545,
positive,positive,2,l,j,,,,,1,5,23,11,,,,,,,,,,,,,prac,1,1,2,positive,positive,l,l,1,0.715085000032559,129.4061065998394,130.4060126999393,130.38934459979646,None,129.4061065998394,None,129.4061065998394,None,129.4061065998394,None,131.1056941300165,None,131.1056941300165,None,131.1056941300165,None,,,,,,,,,,,,,,202,2023-03-27_15h23.20.933,Main,2022.1.1,59.002480479045545,
neutral,negative,2,k,k,,,,,1,6,24,16,,,,,,,,,,,,,prac,1,1,2,negative,neutral,k,k,1,0.565602800110355,131.11242409981787,132.1226941999048,132.1059589998331,None,131.11242409981787,None,131.11242409981787,None,131.11242409981787,None,132.67258043000476,None,132.67258043000476,None,132.67258043000476,None,,,,,,,,,,,,,,202,2023-03-27_15h23.20.933,Main,2022.1.1,59.002480479045545,
negative,positive,1,j,l,,,,,1,7,25,6,,,,,,,,,,,,,prac,2,2,1,positive,negative,j,j,1,0.7488849998917431,132.67576609994285,133.6725897998549,133.6725897998549,None,132.67576609994285,None,132.67576609994285,None,132.67576609994285,None,134.4225130299572,None,134.4225130299572,None,134.4225130299572,None,,,,,,,,,,,,,,202,2023-03-27_15h23.20.933,Main,2022.1.1,59.002480479045545,
positive,neutral,2,l,j,,,,,1,8,26,17,,,,,,,,,,,,,prac,2,2,2,neutral,positive,l,l,1,0.6834926998708397,134.42601089994423,135.43920489982702,135.42255289992318,None,134.42601089994423,None,134.42601089994423,None,134.42601089994423,None,136.1072138298303,None,136.1072138298303,None,136.1072138298303,None,,,,,,,,,,,,,,202,2023-03-27_15h23.20.933,Main,2022.1.1,59.002480479045545,
positive,positive,1,l,j,,,,,1,9,27,2,,,,,,,,,,,,,prac,2,2,1,positive,positive,l,l,1,0.7152021999936551,136.11316689988598,137.1253384000156,137.10586499981582,None,136.11316689988598,None,136.11316689988598,None,136.11316689988598,None,137.8224366299808,None,137.8224366299808,None,137.8224366299808,None,,,,,,,,,,,,,,202,2023-03-27_15h23.20.933,Main,2022.1.1,59.002480479045545,
negative,positive,2,j,l,,,,,1,10,28,15,,,,,,,,,,,,,prac,1,1,2,positive,negative,j,j,1,0.8477149000391364,137.826415799791,138.83915279991925,138.82530289981514,None,137.826415799791,None,137.826415799791,None,137.826415799791,None,139.67242912990042,None,139.67242912990042,None,139.67242912990042,None,,,,,,,,,,,,,,202,2023-03-27_15h23.20.933,Main,2022.1.1,59.002480479045545,
negative,neutral,2,j,l,,,,,1,11,29,12,,,,,,,,,,,,,prac,2,2,2,neutral,negative,j,j,1,1.3985936001408845,139.67793469992466,140.68924449989572,140.67243089992553,None,139.67793469992466,None,139.67793469992466,None,139.67793469992466,None,142.07237132983283,None,142.07237132983283,None,142.07237132983283,None,,,,,,,,,,,,,,202,2023-03-27_15h23.20.933,Main,2022.1.1,59.002480479045545,
negative,negative,2,j,l,,,,,1,12,30,9,,,,,,,,,,,,,prac,2,2,2,negative,negative,j,j,1,0.7821168000809848,142.07750729983672,143.08921030000784,143.07516349991783,None,142.07750729983672,None,142.07750729983672,None,142.07750729983672,None,143.85565572995694,None,143.85565572995694,None,143.85565572995694,None,,,,,,,,,,,,,,202,2023-03-27_15h23.20.933,Main,2022.1.1,59.002480479045545,
negative,negative,1,j,l,,,,,1,13,31,0,,,,,,,,,,,,,prac,1,1,1,negative,negative,j,j,1,0.7822799000423402,143.8606822998263,144.8723875998985,144.84184949984774,None,143.8606822998263,None,143.8606822998263,None,143.8606822998263,None,145.638979030028,None,145.638979030028,None,145.638979030028,None,,,,,,,,,,,,,,202,2023-03-27_15h23.20.933,Main,2022.1.1,59.002480479045545,
neutral,positive,1,k,k,,,,,1,14,32,4,,,,,,,,,,,,,prac,2,2,1,positive,neutral,k,k,1,0.6653535000514239,145.64432729990222,146.65832559997216,146.6223226999864,None,145.64432729990222,None,145.64432729990222,None,145.64432729990222,None,147.30559632992373,None,147.30559632992373,None,147.30559632992373,None,,,,,,,,,,,,,,202,2023-03-27_15h23.20.933,Main,2022.1.1,59.002480479045545,
neutral,neutral,1,k,k,,,,,1,15,33,1,,,,,,,,,,,,,prac,1,1,1,neutral,neutral,k,k,1,0.7488007999490947,147.30869550001808,148.32497179997154,148.30845050001517,None,147.30869550001808,None,147.30869550001808,None,147.30869550001808,None,149.0555775300134,None,149.0555775300134,None,149.0555775300134,None,,,,,,,,,,,,,,202,2023-03-27_15h23.20.933,Main,2022.1.1,59.002480479045545,
neutral,negative,1,k,k,,,,,1,16,34,7,,,,,,,,,,,,,prac,2,2,1,negative,neutral,k,k,1,0.4988023000769317,149.0609478999395,150.07496579992585,150.03891969984397,None,149.0609478999395,None,149.0609478999395,None,149.0609478999395,None,150.5555462298915,None,150.5555462298915,None,150.5555462298915,None,,,,,,,,,,,,,,202,2023-03-27_15h23.20.933,Main,2022.1.1,59.002480479045545,
neutral,positive,2,k,k,,,,,1,17,35,13,,,,,,,,,,,,,prac,2,2,2,positive,neutral,k,k,1,0.7519735998939723,150.5589108997956,151.57493679993786,151.55834849993698,None,150.5589108997956,None,150.5589108997956,None,150.5589108997956,None,152.30562902982348,None,152.30562902982348,None,152.30562902982348,None,,,,,,,,,,,,,,202,2023-03-27_15h23.20.933,Main,2022.1.1,59.002480479045545,
,,,,,,,,,,,,,,,,,,,,,,,,,,,,,,,,,,,,,,,,,,,,,,,,,,,152.30555119994096,None,space,4.174310900270939,,,,,,,,,,202,2023-03-27_15h23.20.933,Main,2022.1.1,59.002480479045545,
,,,,,,,,,,,,,,,,,,,,,,,,,,,,,,,,,,,,,,,,,,,,,,,,,,,,,,,0.15185185,-0.2935185,0,0,0,0.00747493002563715,None,,,202,2023-03-27_15h23.20.933,Main,2022.1.1,59.002480479045545,
positive,neutral,2,l,j,,,,,,,,,0,0,0,17,,,,,,,156.51744779990986,None,main,2,2,2,neutral,positive,l,l,1,0.7610987001098692,158.52945009991527,159.5387240999844,159.52511289995164,None,158.52945009991527,None,158.52945009991527,None,158.52945009991527,None,160.2884534298908,None,160.2884534298908,None,160.2884534298908,None,,,,,,,,,,,,,,202,2023-03-27_15h23.20.933,Main,2022.1.1,59.002480479045545,
positive,positive,2,l,j,,,,,,,,,0,1,1,11,,,,,,,,,main,2,2,2,positive,positive,l,l,1,0.6974816001020372,160.29281819984317,161.30821539997123,161.2887206999585,None,160.29281819984317,None,160.29281819984317,None,160.29281819984317,None,161.98862542998978,None,161.98862542998978,None,161.98862542998978,None,,,,,,,,,,,,,,202,2023-03-27_15h23.20.933,Main,2022.1.1,59.002480479045545,
neutral,neutral,1,k,k,,,,,,,,,0,2,2,1,,,,,,,,,main,2,2,1,neutral,neutral,k,k,1,0.6473804998677224,161.99656959995627,163.00531789986417,162.9914984998759,None,161.99656959995627,None,161.99656959995627,None,161.99656959995627,None,163.63859212999233,None,163.63859212999233,None,163.63859212999233,None,,,,,,,,,,,,,,202,2023-03-27_15h23.20.933,Main,2022.1.1,59.002480479045545,
negative,negative,1,j,l,,,,,,,,,0,3,3,0,,,,,,,,,main,1,1,1,negative,negative,j,j,1,0.7318180999718606,163.64229589980096,164.655282799853,164.63866909989156,None,163.64229589980096,None,163.64229589980096,None,163.64229589980096,None,165.3719209299423,None,165.3719209299423,None,165.3719209299423,None,,,,,,,,,,,,,,202,2023-03-27_15h23.20.933,Main,2022.1.1,59.002480479045545,
negative,negative,2,j,l,,,,,,,,,0,4,4,9,,,,,,,,,main,2,2,2,negative,negative,j,j,1,0.8483292001765221,165.3752795998007,166.37482759985141,166.37482759985141,None,165.3752795998007,None,165.3752795998007,None,165.3752795998007,None,167.22186572984793,None,167.22186572984793,None,167.22186572984793,None,,,,,,,,,,,,,,202,2023-03-27_15h23.20.933,Main,2022.1.1,59.002480479045545,
positive,negative,2,l,j,,,,,,,,,0,5,5,14,,,,,,,,,main,2,2,2,negative,positive,l,l,1,0.748987500090152,167.22692819987424,168.23855459992774,168.20531259989366,None,167.22692819987424,None,167.22692819987424,None,167.22692819987424,None,168.97232072982007,None,168.97232072982007,None,168.97232072982007,None,,,,,,,,,,,,,,202,2023-03-27_15h23.20.933,Main,2022.1.1,59.002480479045545,
neutral,negative,2,k,k,,,,,,,,,0,6,6,16,,,,,,,,,main,2,2,2,negative,neutral,k,k,1,0.5817141998559237,168.9764254000038,169.98849679995328,169.97187959984876,None,168.9764254000038,None,168.9764254000038,None,168.9764254000038,None,170.55532612996177,None,170.55532612996177,None,170.55532612996177,None,,,,,,,,,,,,,,202,2023-03-27_15h23.20.933,Main,2022.1.1,59.002480479045545,
negative,positive,1,j,l,,,,,,,,,0,7,7,6,,,,,,,,,main,1,1,1,positive,negative,j,j,1,0.7481343999970704,170.57457459997386,171.59122339985333,171.555171799846,None,170.57457459997386,None,170.57457459997386,None,170.57457459997386,None,172.30516363000498,None,172.30516363000498,None,172.30516363000498,None,,,,,,,,,,,,,,202,2023-03-27_15h23.20.933,Main,2022.1.1,59.002480479045545,
negative,neutral,1,j,l,,,,,,,,,0,8,8,3,,,,,,,,,main,2,2,1,neutral,negative,j,j,1,0.5650880001485348,172.31052970001474,173.32181159988977,173.3051368999295,None,172.31052970001474,None,172.31052970001474,None,172.31052970001474,None,173.8717503298074,None,173.8717503298074,None,173.8717503298074,None,,,,,,,,,,,,,,202,2023-03-27_15h23.20.933,Main,2022.1.1,59.002480479045545,
neutral,positive,1,k,k,,,,,,,,,0,9,9,4,,,,,,,,,main,1,1,1,positive,neutral,k,k,1,0.5654583000577986,173.8749536999967,174.87178619997576,174.8578346997965,None,173.8749536999967,None,173.8749536999967,None,173.8749536999967,None,175.43876812998207,None,175.43876812998207,None,175.43876812998207,None,,,,,,,,,,,,,,202,2023-03-27_15h23.20.933,Main,2022.1.1,59.002480479045545,
negative,positive,2,j,l,,,,,,,,,0,10,10,15,,,,,,,,,main,1,1,2,positive,negative,j,j,1,0.7647557999007404,175.45782079990022,176.47172679984942,176.43839429994114,None,175.45782079990022,None,175.45782079990022,None,175.45782079990022,None,177.20503602987156,None,177.20503602987156,None,177.20503602987156,None,,,,,,,,,,,,,,202,2023-03-27_15h23.20.933,Main,2022.1.1,59.002480479045545,
neutral,negative,1,k,k,,,,,,,,,0,11,11,7,,,,,,,,,main,2,2,1,negative,neutral,k,k,1,0.54818269982934,177.20841289986856,178.2050524998922,178.2050524998922,None,177.20841289986856,None,177.20841289986856,None,177.20841289986856,None,178.754787530005,None,178.754787530005,None,178.754787530005,None,,,,,,,,,,,,,,202,2023-03-27_15h23.20.933,Main,2022.1.1,59.002480479045545,
negative,neutral,2,j,l,,,,,,,,,0,12,12,12,,,,,,,,,main,2,2,2,neutral,negative,j,l,0,0.7155293000396341,178.76104929996654,179.77436969988048,179.74107559979893,None,178.76104929996654,None,178.76104929996654,None,178.76104929996654,None,180.4716504998505,None,180.4716504998505,None,180.4716504998505,None,,,,,,,,,,,,,,202,2023-03-27_15h23.20.933,Main,2022.1.1,59.002480479045545,
neutral,neutral,2,k,k,,,,,,,,,0,13,13,10,,,,,,,,,main,1,1,2,neutral,neutral,k,k,1,0.8340884000062943,181.4725187998265,182.47435749997385,182.45491530001163,None,181.4725187998265,None,181.4725187998265,None,181.4725187998265,None,183.30490082986654,None,183.30490082986654,None,183.30490082986654,None,,,,,,,,,,,,,,202,2023-03-27_15h23.20.933,Main,2022.1.1,59.002480479045545,
positive,positive,1,l,j,,,,,,,,,0,14,14,2,,,,,,,,,main,2,2,1,positive,positive,l,l,1,0.7976044998504221,183.3094029999338,184.32157099992037,184.30489759985358,None,183.3094029999338,None,183.3094029999338,None,183.3094029999338,None,185.1048418299295,None,185.1048418299295,None,185.1048418299295,None,,,,,,,,,,,,,,202,2023-03-27_15h23.20.933,Main,2022.1.1,59.002480479045545,
positive,negative,1,l,j,,,,,,,,,0,15,15,5,,,,,,,,,main,2,2,1,negative,positive,l,l,1,0.6983817000873387,185.10846069990657,186.1241802999284,186.10485509992577,None,185.10846069990657,None,185.10846069990657,None,185.10846069990657,None,186.80481602991932,None,186.80481602991932,None,186.80481602991932,None,,,,,,,,,,,,,,202,2023-03-27_15h23.20.933,Main,2022.1.1,59.002480479045545,
positive,neutral,1,l,j,,,,,,,,,0,16,16,8,,,,,,,,,main,1,1,1,neutral,positive,l,l,1,0.681800700025633,186.80804689996876,187.82150969980285,187.7882117999252,None,186.80804689996876,None,186.80804689996876,None,186.80804689996876,None,188.4881438298151,None,188.4881438298151,None,188.4881438298151,None,,,,,,,,,,,,,,202,2023-03-27_15h23.20.933,Main,2022.1.1,59.002480479045545,
neutral,positive,2,k,k,,,,,,,,,0,17,17,13,,,,,,,,,main,1,1,2,positive,neutral,k,k,1,0.6309584002010524,188.49256980000064,189.50755549990572,189.4882405998651,None,188.49256980000064,None,188.49256980000064,None,188.49256980000064,None,190.1213936300017,None,190.1213936300017,None,190.1213936300017,None,,,,,,,,,,,,,,202,2023-03-27_15h23.20.933,Main,2022.1.1,59.002480479045545,
negative,neutral,2,j,l,,,,,,,,,1,0,18,12,,,,,,,,,main,2,2,2,neutral,negative,j,j,1,0.7520059000235051,190.12484429986216,191.12144059990533,191.12144059990533,None,190.12484429986216,None,190.12484429986216,None,190.12484429986216,None,191.87498322986067,None,191.87498322986067,None,191.87498322986067,None,,,,,,,,,,,,,,202,2023-03-27_15h23.20.933,Main,2022.1.1,59.002480479045545,
positive,neutral,1,l,j,,,,,,,,,1,1,19,8,,,,,,,,,main,1,1,1,neutral,positive,l,l,1,0.6645059001166373,191.87860099994577,192.89075059979223,192.87140139983967,None,191.87860099994577,None,191.87860099994577,None,191.87860099994577,None,193.54080432998018,None,193.54080432998018,None,193.54080432998018,None,,,,,,,,,,,,,,202,2023-03-27_15h23.20.933,Main,2022.1.1,59.002480479045545,
negative,positive,1,j,l,,,,,,,,,1,2,20,6,,,,,,,,,main,1,1,1,positive,negative,j,j,1,0.7456461999099702,193.5440860998351,194.55469819996506,194.53804579982534,None,193.5440860998351,None,193.5440860998351,None,193.5440860998351,None,195.2879968299065,None,195.2879968299065,None,195.2879968299065,None,,,,,,,,,,,,,,202,2023-03-27_15h23.20.933,Main,2022.1.1,59.002480479045545,
neutral,neutral,1,k,k,,,,,,,,,1,3,21,1,,,,,,,,,main,1,1,1,neutral,neutral,k,k,1,0.5817758999764919,195.29143260000274,196.30734729999676,196.2907889999915,None,195.29143260000274,None,195.29143260000274,None,195.29143260000274,None,196.8714244300034,None,196.8714244300034,None,196.8714244300034,None,,,,,,,,,,,,,,202,2023-03-27_15h23.20.933,Main,2022.1.1,59.002480479045545,
negative,negative,1,j,l,,,,,,,,,1,4,22,0,,,,,,,,,main,2,2,1,negative,negative,j,j,1,0.7651250001508743,196.87497449992225,197.88793569989502,197.87128189997748,None,196.87497449992225,None,196.87497449992225,None,196.87497449992225,None,198.63790232986213,None,198.63790232986213,None,198.63790232986213,None,,,,,,,,,,,,,,202,2023-03-27_15h23.20.933,Main,2022.1.1,59.002480479045545,
neutral,negative,2,k,k,,,,,,,,,1,5,23,16,,,,,,,,,main,2,2,2,negative,neutral,k,k,1,0.5317329000681639,198.6416080999188,199.65462209982798,199.64059889991768,None,198.6416080999188,None,198.6416080999188,None,198.6416080999188,None,200.171290829964,None,200.171290829964,None,200.171290829964,None,,,,,,,,,,,,,,202,2023-03-27_15h23.20.933,Main,2022.1.1,59.002480479045545,
positive,negative,2,l,j,,,,,,,,,1,6,24,14,,,,,,,,,main,1,1,2,negative,positive,l,l,1,0.7483264999464154,200.17460159980692,201.19057419989258,201.17123139998876,None,200.17460159980692,None,200.17460159980692,None,200.17460159980692,None,201.92122242990882,None,201.92122242990882,None,201.92122242990882,None,,,,,,,,,,,,,,202,2023-03-27_15h23.20.933,Main,2022.1.1,59.002480479045545,
positive,positive,2,l,j,,,,,,,,,1,7,25,11,,,,,,,,,main,1,1,2,positive,positive,l,l,1,0.600432800129056,201.925217699958,202.937863699859,202.92402499984019,None,201.925217699958,None,201.925217699958,None,201.925217699958,None,203.5238375300076,None,203.5238375300076,None,203.5238375300076,None,,,,,,,,,,,,,,202,2023-03-27_15h23.20.933,Main,2022.1.1,59.002480479045545,
neutral,negative,1,k,k,,,,,,,,,1,8,26,7,,,,,,,,,main,1,1,1,negative,neutral,k,k,1,0.6125306999310851,203.52650189981796,204.53783269994892,204.52114899992011,None,203.52650189981796,None,203.52650189981796,None,203.52650189981796,None,205.13777142991313,None,205.13777142991313,None,205.13777142991313,None,,,,,,,,,,,,,,202,2023-03-27_15h23.20.933,Main,2022.1.1,59.002480479045545,
negative,positive,2,j,l,,,,,,,,,1,9,27,15,,,,,,,,,main,2,2,2,positive,negative,j,j,1,1.0485324999317527,205.14149830001406,206.15728499996476,206.14053360000253,None,205.14149830001406,None,205.14149830001406,None,205.14149830001406,None,207.1877662299201,None,207.1877662299201,None,207.1877662299201,None,,,,,,,,,,,,,,202,2023-03-27_15h23.20.933,Main,2022.1.1,59.002480479045545,
neutral,positive,2,k,k,,,,,,,,,1,10,28,13,,,,,,,,,main,1,1,2,positive,neutral,k,k,1,0.5142047998961061,207.19371629995294,208.20439729979262,208.1905592000112,None,207.19371629995294,None,207.19371629995294,None,207.19371629995294,None,208.70437792986633,None,208.70437792986633,None,208.70437792986633,None,,,,,,,,,,,,,,202,2023-03-27_15h23.20.933,Main,2022.1.1,59.002480479045545,
negative,neutral,1,j,l,,,,,,,,,1,11,29,3,,,,,,,,,main,1,1,1,neutral,negative,j,j,1,0.7315969001501799,208.7074971999973,209.72122709988616,209.68768259999342,None,208.7074971999973,None,208.7074971999973,None,208.7074971999973,None,210.43771432987415,None,210.43771432987415,None,210.43771432987415,None,,,,,,,,,,,,,,202,2023-03-27_15h23.20.933,Main,2022.1.1,59.002480479045545,
positive,negative,1,l,j,,,,,,,,,1,12,30,5,,,,,,,,,main,2,2,1,negative,positive,l,l,1,0.6680922999512404,210.45460879988968,211.45728329988196,211.42104349983856,None,210.45460879988968,None,210.45460879988968,None,210.45460879988968,None,212.10700762989,None,212.10700762989,None,212.10700762989,None,,,,,,,,,,,,,,202,2023-03-27_15h23.20.933,Main,2022.1.1,59.002480479045545,
neutral,neutral,2,k,k,,,,,,,,,1,13,31,10,,,,,,,,,main,1,1,2,neutral,neutral,k,k,1,0.5796211999841034,212.11004840000533,213.12365139997564,213.10433020000346,None,212.11004840000533,None,212.11004840000533,None,212.11004840000533,None,213.68761142990553,None,213.68761142990553,None,213.68761142990553,None,,,,,,,,,,,,,,202,2023-03-27_15h23.20.933,Main,2022.1.1,59.002480479045545,
positive,neutral,2,l,j,,,,,,,,,1,14,32,17,,,,,,,,,main,2,2,2,neutral,positive,l,l,1,0.6146063001360744,213.69163689995185,214.70429169991985,214.68761849985458,None,213.69163689995185,None,213.69163689995185,None,213.69163689995185,None,215.3042619300075,None,215.3042619300075,None,215.3042619300075,None,,,,,,,,,,,,,,202,2023-03-27_15h23.20.933,Main,2022.1.1,59.002480479045545,
negative,negative,2,j,l,,,,,,,,,1,15,33,9,,,,,,,,,main,2,2,2,negative,negative,j,j,1,0.7488648998551071,215.30760159995407,216.32090529985726,216.304251199821,None,215.30760159995407,None,215.30760159995407,None,215.30760159995407,None,217.05483432994225,None,217.05483432994225,None,217.05483432994225,None,,,,,,,,,,,,,,202,2023-03-27_15h23.20.933,Main,2022.1.1,59.002480479045545,
positive,positive,1,l,j,,,,,,,,,1,16,34,2,,,,,,,,,main,1,1,1,positive,positive,l,l,1,0.9342015001457185,217.06093179993331,218.07363809994422,218.05705849989317,None,217.06093179993331,None,217.06093179993331,None,217.06093179993331,None,218.99015062996187,None,218.99015062996187,None,218.99015062996187,None,,,,,,,,,,,,,,202,2023-03-27_15h23.20.933,Main,2022.1.1,59.002480479045545,
neutral,positive,1,k,k,,,,,,,,,1,17,35,4,,,,,,,,,main,2,2,1,positive,neutral,k,k,1,0.5790468999184668,218.99359089997597,220.0069858999923,219.98752589989454,None,218.99359089997597,None,218.99359089997597,None,218.99359089997597,None,220.5707810299471,None,220.5707810299471,None,220.5707810299471,None,,,,,,,,,,,,,,202,2023-03-27_15h23.20.933,Main,2022.1.1,59.002480479045545,
negative,neutral,2,j,l,,,,,,,,,2,0,36,12,,,,,,,,,main,2,2,2,neutral,negative,j,j,1,1.2991466999519616,220.57672179979272,221.58765070000663,221.5708241998218,None,220.57672179979272,None,220.57672179979272,None,220.57672179979272,None,222.8715550298337,None,222.8715550298337,None,222.8715550298337,None,,,,,,,,,,,,,,202,2023-03-27_15h23.20.933,Main,2022.1.1,59.002480479045545,
neutral,neutral,2,k,k,,,,,,,,,2,1,37,10,,,,,,,,,main,1,1,2,neutral,neutral,k,k,1,0.5308679998852313,222.87779819988646,223.89015699992888,223.8707586999517,None,222.87779819988646,None,222.87779819988646,None,222.87779819988646,None,224.40404482996092,None,224.40404482996092,None,224.40404482996092,None,,,,,,,,,,,,,,202,2023-03-27_15h23.20.933,Main,2022.1.1,59.002480479045545,
positive,positive,2,l,j,,,,,,,,,2,2,38,11,,,,,,,,,main,1,1,2,positive,positive,l,k,0,0.532007799949497,224.4077525998,225.4207373999525,225.40408889995888,None,224.4077525998,None,224.4077525998,None,224.4077525998,None,225.93751650000922,None,225.93751650000922,None,225.93751650000922,None,,,,,,,,,,,,,,202,2023-03-27_15h23.20.933,Main,2022.1.1,59.002480479045545,
neutral,positive,2,k,k,,,,,,,,,2,3,39,13,,,,,,,,,main,1,1,2,positive,neutral,k,k,1,0.7342134001664817,226.93828819994815,227.93733239988796,227.92068440001458,None,226.93828819994815,None,226.93828819994815,None,226.93828819994815,None,228.67061073002407,None,228.67061073002407,None,228.67061073002407,None,,,,,,,,,,,,,,202,2023-03-27_15h23.20.933,Main,2022.1.1,59.002480479045545,
negative,neutral,1,j,l,,,,,,,,,2,4,40,3,,,,,,,,,main,2,2,1,neutral,negative,j,j,1,0.9150141999125481,228.6743806998711,229.6872957998421,229.67063810001127,None,228.6743806998711,None,228.6743806998711,None,228.6743806998711,None,230.5872554298956,None,230.5872554298956,None,230.5872554298956,None,,,,,,,,,,,,,,202,2023-03-27_15h23.20.933,Main,2022.1.1,59.002480479045545,
negative,negative,2,j,l,,,,,,,,,2,5,41,9,,,,,,,,,main,2,2,2,negative,negative,j,j,1,1.3312103999778628,230.59110929979943,231.6039506997913,231.5873792998027,None,230.59110929979943,None,230.59110929979943,None,230.59110929979943,None,232.92054782989436,None,232.92054782989436,None,232.92054782989436,None,,,,,,,,,,,,,,202,2023-03-27_15h23.20.933,Main,2022.1.1,59.002480479045545,
neutral,positive,1,k,k,,,,,,,,,2,6,42,4,,,,,,,,,main,2,2,1,positive,neutral,k,k,1,0.5654928998555988,232.92451999988407,233.93721959996037,233.92068029986694,None,232.92451999988407,None,232.92451999988407,None,232.92451999988407,None,234.48719323002734,None,234.48719323002734,None,234.48719323002734,None,,,,,,,,,,,,,,202,2023-03-27_15h23.20.933,Main,2022.1.1,59.002480479045545,
negative,positive,2,j,l,,,,,,,,,2,7,43,15,,,,,,,,,main,2,2,2,positive,negative,j,j,1,0.8510179999284446,234.49069829983637,235.48720809980296,235.48720809980296,None,234.49069829983637,None,234.49069829983637,None,234.49069829983637,None,236.3398414300289,None,236.3398414300289,None,236.3398414300289,None,,,,,,,,,,,,,,202,2023-03-27_15h23.20.933,Main,2022.1.1,59.002480479045545,
positive,neutral,2,l,j,,,,,,,,,2,8,44,17,,,,,,,,,main,2,2,2,neutral,positive,l,l,1,0.8298997001256794,236.34251419990323,237.3538384998683,237.3371420998592,None,236.34251419990323,None,236.34251419990323,None,236.34251419990323,None,238.17109953002074,None,238.17109953002074,None,238.17109953002074,None,,,,,,,,,,,,,,202,2023-03-27_15h23.20.933,Main,2022.1.1,59.002480479045545,
neutral,negative,2,k,k,,,,,,,,,2,9,45,16,,,,,,,,,main,2,2,2,negative,neutral,k,k,1,0.5812615000177175,238.18994589988142,239.2064322999213,239.1704788999632,None,238.18994589988142,None,238.18994589988142,None,238.18994589988142,None,239.7537308299914,None,239.7537308299914,None,239.7537308299914,None,,,,,,,,,,,,,,202,2023-03-27_15h23.20.933,Main,2022.1.1,59.002480479045545,
neutral,neutral,1,k,k,,,,,,,,,2,10,46,1,,,,,,,,,main,2,2,1,neutral,neutral,k,k,1,0.5482604000717402,239.7568353000097,240.77041999995708,240.75374969979748,None,239.7568353000097,None,239.7568353000097,None,239.7568353000097,None,241.30369723001496,None,241.30369723001496,None,241.30369723001496,None,,,,,,,,,,,,,,202,2023-03-27_15h23.20.933,Main,2022.1.1,59.002480479045545,
negative,positive,1,j,l,,,,,,,,,2,11,47,6,,,,,,,,,main,2,2,1,positive,negative,j,j,1,1.1479663997888565,241.3079949999228,242.320418599993,242.3064948997926,None,241.3079949999228,None,241.3079949999228,None,241.3079949999228,None,243.45381982992404,None,243.45381982992404,None,243.45381982992404,None,,,,,,,,,,,,,,202,2023-03-27_15h23.20.933,Main,2022.1.1,59.002480479045545,
positive,positive,1,l,j,,,,,,,,,2,12,48,2,,,,,,,,,main,1,1,1,positive,positive,l,l,1,0.8148428001441061,243.4731003998313,244.48964789998718,244.45367019996047,None,243.4731003998313,None,243.4731003998313,None,243.4731003998313,None,245.27029622993433,None,245.27029622993433,None,245.27029622993433,None,,,,,,,,,,,,,,202,2023-03-27_15h23.20.933,Main,2022.1.1,59.002480479045545,
neutral,negative,1,k,k,,,,,,,,,2,13,49,7,,,,,,,,,main,2,2,1,negative,neutral,k,k,1,0.5812087999656796,245.27432789979503,246.2870050999336,246.2703479998745,None,245.27432789979503,None,245.27432789979503,None,245.27432789979503,None,246.85357902986,None,246.85357902986,None,246.85357902986,None,,,,,,,,,,,,,,202,2023-03-27_15h23.20.933,Main,2022.1.1,59.002480479045545,
positive,neutral,1,l,j,,,,,,,,,2,14,50,8,,,,,,,,,main,1,1,1,neutral,positive,l,l,1,0.8482882000971586,246.85703189997002,247.8704401999712,247.8537085999269,None,246.85703189997002,None,246.85703189997002,None,246.85703189997002,None,248.7035573299043,None,248.7035573299043,None,248.7035573299043,None,,,,,,,,,,,,,,202,2023-03-27_15h23.20.933,Main,2022.1.1,59.002480479045545,
positive,negative,2,l,j,,,,,,,,,2,15,51,14,,,,,,,,,main,1,1,2,negative,positive,l,l,1,0.7835333000402898,248.72027089982294,249.72027989989147,249.68691559997387,None,248.72027089982294,None,248.72027089982294,None,248.72027089982294,None,250.48690093001352,None,250.48690093001352,None,250.48690093001352,None,,,,,,,,,,,,,,202,2023-03-27_15h23.20.933,Main,2022.1.1,59.002480479045545,
negative,negative,1,j,l,,,,,,,,,2,16,52,0,,,,,,,,,main,1,1,1,negative,negative,j,j,1,0.7312610000371933,250.49148339987732,251.5063032999169,251.48964829999022,None,250.49148339987732,None,250.49148339987732,None,250.49148339987732,None,252.22016372992658,None,252.22016372992658,None,252.22016372992658,None,,,,,,,,,,,,,,202,2023-03-27_15h23.20.933,Main,2022.1.1,59.002480479045545,
positive,negative,1,l,j,,,,,,,,,2,17,53,5,,,,,,,,,main,1,1,1,negative,positive,l,l,1,0.7808270000386983,252.2261613998562,253.23683279985562,253.22016239981167,None,252.2261613998562,None,252.2261613998562,None,252.2261613998562,None,254.00352812996135,None,254.00352812996135,None,254.00352812996135,None,,,,,,,,,,,,,,202,2023-03-27_15h23.20.933,Main,2022.1.1,59.002480479045545,
neutral,neutral,1,k,k,,,,,,,,,3,0,54,1,,,,,,,,,main,2,2,1,neutral,neutral,k,k,1,0.5343321999534965,254.00742159993388,255.0201166998595,255.003585399827,None,254.00742159993388,None,254.00742159993388,None,254.00742159993388,None,255.53944903002122,None,255.53944903002122,None,255.53944903002122,None,,,,,,,,,,,,,,202,2023-03-27_15h23.20.933,Main,2022.1.1,59.002480479045545,
positive,positive,2,l,j,,,,,,,,,3,1,55,11,,,,,,,,,main,2,2,2,positive,positive,l,l,1,0.7793093000072986,255.54248399985954,256.5534347000066,256.53676739986986,None,255.54248399985954,None,255.54248399985954,None,255.54248399985954,None,257.32005623001606,None,257.32005623001606,None,257.32005623001606,None,,,,,,,,,,,,,,202,2023-03-27_15h23.20.933,Main,2022.1.1,59.002480479045545,
negative,negative,2,j,l,,,,,,,,,3,2,56,9,,,,,,,,,main,1,1,2,negative,negative,j,j,1,0.781466799788177,257.3233640999533,258.3370023998432,258.3200792998541,None,257.3233640999533,None,257.3233640999533,None,257.3233640999533,None,259.10333182984033,None,259.10333182984033,None,259.10333182984033,None,,,,,,,,,,,,,,202,2023-03-27_15h23.20.933,Main,2022.1.1,59.002480479045545,
positive,neutral,2,l,j,,,,,,,,,3,3,57,17,,,,,,,,,main,2,2,2,neutral,positive,l,l,1,0.7652149999048561,259.10933139990084,260.1200351999141,260.08951909979805,None,259.10933139990084,None,259.10933139990084,None,259.10933139990084,None,260.8697142300196,None,260.8697142300196,None,260.8697142300196,None,,,,,,,,,,,,,,202,2023-03-27_15h23.20.933,Main,2022.1.1,59.002480479045545,
positive,negative,1,l,j,,,,,,,,,3,4,58,5,,,,,,,,,main,1,1,1,negative,positive,l,l,1,0.782021899940446,260.8741028998047,261.88664299994707,261.8699928999413,None,260.8741028998047,None,260.8741028998047,None,260.8741028998047,None,262.6535416298546,None,262.6535416298546,None,262.6535416298546,None,,,,,,,,,,,,,,202,2023-03-27_15h23.20.933,Main,2022.1.1,59.002480479045545,
neutral,neutral,2,k,k,,,,,,,,,3,5,59,10,,,,,,,,,main,1,1,2,neutral,neutral,k,k,1,0.6472318000160158,262.657349599991,263.67262639990076,263.65602939995006,None,262.657349599991,None,262.657349599991,None,262.657349599991,None,264.3032417299226,None,264.3032417299226,None,264.3032417299226,None,,,,,,,,,,,,,,202,2023-03-27_15h23.20.933,Main,2022.1.1,59.002480479045545,
negative,neutral,2,j,l,,,,,,,,,3,6,60,12,,,,,,,,,main,2,2,2,neutral,negative,j,j,1,0.615330400178209,264.3092567999847,265.3199261999689,265.3060371999163,None,264.3092567999847,None,264.3092567999847,None,264.3092567999847,None,265.91986952996814,None,265.91986952996814,None,265.91986952996814,None,,,,,,,,,,,,,,202,2023-03-27_15h23.20.933,Main,2022.1.1,59.002480479045545,
positive,negative,2,l,j,,,,,,,,,3,7,61,14,,,,,,,,,main,2,2,2,negative,positive,l,l,1,0.8986546001397073,265.92317079985514,266.9365604999475,266.91988569987006,None,265.92317079985514,None,265.92317079985514,None,265.92317079985514,None,267.81985022984446,None,267.81985022984446,None,267.81985022984446,None,,,,,,,,,,,,,,202,2023-03-27_15h23.20.933,Main,2022.1.1,59.002480479045545,
neutral,positive,1,k,k,,,,,,,,,3,8,62,4,,,,,,,,,main,1,1,1,positive,neutral,k,k,1,0.5649582000914961,267.823403300019,268.83651870000176,268.8198419997934,None,267.823403300019,None,267.823403300019,None,267.823403300019,None,269.3864791299682,None,269.3864791299682,None,269.3864791299682,None,,,,,,,,,,,,,,202,2023-03-27_15h23.20.933,Main,2022.1.1,59.002480479045545,
neutral,positive,2,k,k,,,,,,,,,3,9,63,13,,,,,,,,,main,1,1,2,positive,neutral,k,k,1,0.5317472000606358,269.3899154998362,270.40317639987916,270.3865016999189,None,269.3899154998362,None,269.3899154998362,None,269.3899154998362,None,270.919766429998,None,270.919766429998,None,270.919766429998,None,,,,,,,,,,,,,,202,2023-03-27_15h23.20.933,Main,2022.1.1,59.002480479045545,
neutral,negative,2,k,k,,,,,,,,,3,10,64,16,,,,,,,,,main,1,1,2,negative,neutral,k,k,1,0.6985011999495327,270.9229647999164,271.92253459990025,271.92253459990025,None,270.9229647999164,None,270.9229647999164,None,270.9229647999164,None,272.61972552998924,None,272.61972552998924,None,272.61972552998924,None,,,,,,,,,,,,,,202,2023-03-27_15h23.20.933,Main,2022.1.1,59.002480479045545,
negative,positive,1,j,l,,,,,,,,,3,11,65,6,,,,,,,,,main,1,1,1,positive,negative,j,j,1,0.881751700071618,272.6251890999265,273.63639509980567,273.6199048999697,None,272.6251890999265,None,272.6251890999265,None,272.6251890999265,None,274.5030242299661,None,274.5030242299661,None,274.5030242299661,None,,,,,,,,,,,,,,202,2023-03-27_15h23.20.933,Main,2022.1.1,59.002480479045545,
positive,neutral,1,l,j,,,,,,,,,3,12,66,8,,,,,,,,,main,2,2,1,neutral,positive,l,l,1,0.79826660011895,274.5082918999251,275.5223993000109,275.50304219988175,None,274.5082918999251,None,274.5082918999251,None,274.5082918999251,None,276.3027501299046,None,276.3027501299046,None,276.3027501299046,None,,,,,,,,,,,,,,202,2023-03-27_15h23.20.933,Main,2022.1.1,59.002480479045545,
negative,negative,1,j,l,,,,,,,,,3,13,67,0,,,,,,,,,main,1,1,1,negative,negative,j,j,1,0.8484704999718815,276.3091229000129,277.3196743999142,277.3030009998474,None,276.3091229000129,None,276.3091229000129,None,276.3091229000129,None,278.15295882984066,None,278.15295882984066,None,278.15295882984066,None,,,,,,,,,,,,,,202,2023-03-27_15h23.20.933,Main,2022.1.1,59.002480479045545,
neutral,negative,1,k,k,,,,,,,,,3,14,68,7,,,,,,,,,main,1,1,1,negative,neutral,k,k,1,0.615541199920699,278.1588738998398,279.1697326998692,279.15296989982016,None,278.1588738998398,None,278.1588738998398,None,278.1588738998398,None,279.76956992987544,None,279.76956992987544,None,279.76956992987544,None,,,,,,,,,,,,,,202,2023-03-27_15h23.20.933,Main,2022.1.1,59.002480479045545,
positive,positive,1,l,j,,,,,,,,,3,15,69,2,,,,,,,,,main,1,1,1,positive,positive,l,l,1,0.7145362999290228,279.7775123999454,280.7862590998411,280.7695847998839,None,279.7775123999454,None,279.7775123999454,None,279.7775123999454,None,281.48624802981504,None,281.48624802981504,None,281.48624802981504,None,,,,,,,,,,,,,,202,2023-03-27_15h23.20.933,Main,2022.1.1,59.002480479045545,
negative,positive,2,j,l,,,,,,,,,3,16,70,15,,,,,,,,,main,1,1,2,positive,negative,j,j,1,1.1817916999571025,281.49047770001926,282.5029261999298,282.48640759987757,None,281.49047770001926,None,281.49047770001926,None,281.49047770001926,None,283.6703520298004,None,283.6703520298004,None,283.6703520298004,None,,,,,,,,,,,,,,202,2023-03-27_15h23.20.933,Main,2022.1.1,59.002480479045545,
negative,neutral,1,j,l,,,,,,,,,3,17,71,3,,,,,,,,,main,1,1,1,neutral,negative,j,j,1,0.8142657999414951,283.68884829990566,284.7028297998477,284.66950639989227,None,283.68884829990566,None,283.68884829990566,None,283.68884829990566,None,285.4861348298844,None,285.4861348298844,None,285.4861348298844,None,,,,,,,,,,,,,,202,2023-03-27_15h23.20.933,Main,2022.1.1,59.002480479045545,
positive,negative,2,l,j,,,,,,,,,4,0,72,14,,,,,,,,,main,2,2,2,negative,positive,l,l,1,0.7984942998737097,285.4920583998319,286.5028472999111,286.4861601998564,None,285.4920583998319,None,285.4920583998319,None,285.4920583998319,None,287.2861171299126,None,287.2861171299126,None,287.2861171299126,None,,,,,,,,,,,,,,202,2023-03-27_15h23.20.933,Main,2022.1.1,59.002480479045545,
positive,neutral,2,l,j,,,,,,,,,4,1,73,17,,,,,,,,,main,1,1,2,neutral,positive,l,l,1,0.698397200088948,287.2892649997957,288.30294819991104,288.269455099944,None,287.2892649997957,None,287.2892649997957,None,287.2892649997957,None,288.9860678298399,None,288.9860678298399,None,288.9860678298399,None,,,,,,,,,,,,,,202,2023-03-27_15h23.20.933,Main,2022.1.1,59.002480479045545,
neutral,neutral,1,k,k,,,,,,,,,4,2,74,1,,,,,,,,,main,2,2,1,neutral,neutral,k,k,1,1.0491491998545825,288.9891717999708,290.0027687998954,289.96966289984994,None,288.9891717999708,None,288.9891717999708,None,288.9891717999708,None,291.03602363001556,None,291.03602363001556,None,291.03602363001556,None,,,,,,,,,,,,,,202,2023-03-27_15h23.20.933,Main,2022.1.1,59.002480479045545,
neutral,positive,2,k,k,,,,,,,,,4,3,75,13,,,,,,,,,main,2,2,2,positive,neutral,k,k,1,0.5478753000497818,291.0402843998745,292.0530317998491,292.03615419985726,None,291.0402843998745,None,291.0402843998745,None,291.0402843998745,None,292.5859897299204,None,292.5859897299204,None,292.5859897299204,None,,,,,,,,,,,,,,202,2023-03-27_15h23.20.933,Main,2022.1.1,59.002480479045545,
negative,negative,1,j,l,,,,,,,,,4,4,76,0,,,,,,,,,main,2,2,1,negative,negative,j,j,1,0.8151434999890625,292.5896584999282,293.6026889998466,293.5860228999518,None,292.5896584999282,None,292.5896584999282,None,292.5896584999282,None,294.4026355298236,None,294.4026355298236,None,294.4026355298236,None,,,,,,,,,,,,,,202,2023-03-27_15h23.20.933,Main,2022.1.1,59.002480479045545,
positive,neutral,1,l,j,,,,,,,,,4,5,77,8,,,,,,,,,main,2,2,1,neutral,positive,l,l,1,0.815039899898693,294.4059506999329,295.41931469994597,295.405460299924,None,294.4059506999329,None,294.4059506999329,None,294.4059506999329,None,296.21926782997326,None,296.21926782997326,None,296.21926782997326,None,,,,,,,,,,,,,,202,2023-03-27_15h23.20.933,Main,2022.1.1,59.002480479045545,
negative,neutral,2,j,l,,,,,,,,,4,6,78,12,,,,,,,,,main,1,1,2,neutral,negative,j,j,1,0.8641931000165641,296.2233399997931,297.23594419984147,297.21953139989637,None,296.2233399997931,None,296.2233399997931,None,296.2233399997931,None,298.08567662998104,None,298.08567662998104,None,298.08567662998104,None,,,,,,,,,,,,,,202,2023-03-27_15h23.20.933,Main,2022.1.1,59.002480479045545,
positive,positive,2,l,j,,,,,,,,,4,7,79,11,,,,,,,,,main,1,1,2,positive,positive,l,l,1,0.8482697999570519,298.0896043998655,299.08587319985963,299.08587319985963,None,298.0896043998655,None,298.0896043998655,None,298.0896043998655,None,299.93583602989094,None,299.93583602989094,None,299.93583602989094,None,,,,,,,,,,,,,,202,2023-03-27_15h23.20.933,Main,2022.1.1,59.002480479045545,
negative,positive,1,j,l,,,,,,,,,4,8,80,6,,,,,,,,,main,1,1,1,positive,negative,j,j,1,0.7486814002040774,299.9400723997969,300.9525383999571,300.93587889987975,None,299.9400723997969,None,299.9400723997969,None,299.9400723997969,None,301.6857947299257,None,301.6857947299257,None,301.6857947299257,None,,,,,,,,,,,,,,202,2023-03-27_15h23.20.933,Main,2022.1.1,59.002480479045545,
negative,neutral,1,j,l,,,,,,,,,4,9,81,3,,,,,,,,,main,1,1,1,neutral,negative,j,j,1,1.3474900000728667,301.6918575000018,302.7024695998989,302.6885744999163,None,301.6918575000018,None,301.6918575000018,None,301.6918575000018,None,304.0357686299365,None,304.0357686299365,None,304.0357686299365,None,,,,,,,,,,,,,,202,2023-03-27_15h23.20.933,Main,2022.1.1,59.002480479045545,
negative,positive,2,j,l,,,,,,,,,4,10,82,15,,,,,,,,,main,2,2,2,positive,negative,j,j,1,0.9508175998926163,304.0417487998493,305.0551440999843,305.03578089992516,None,304.0417487998493,None,304.0417487998493,None,304.0417487998493,None,305.9880019300152,None,305.9880019300152,None,305.9880019300152,None,,,,,,,,,,,,,,202,2023-03-27_15h23.20.933,Main,2022.1.1,59.002480479045545,
neutral,negative,2,k,k,,,,,,,,,4,11,83,16,,,,,,,,,main,2,2,2,negative,neutral,k,k,1,0.6127436000388116,305.992999299895,307.0023931998294,306.98572180001065,None,305.992999299895,None,305.992999299895,None,305.992999299895,None,307.60237192986534,None,307.60237192986534,None,307.60237192986534,None,,,,,,,,,,,,,,202,2023-03-27_15h23.20.933,Main,2022.1.1,59.002480479045545,
neutral,neutral,2,k,k,,,,,,,,,4,12,84,10,,,,,,,,,main,1,1,2,neutral,neutral,k,k,1,0.6218514998909086,307.6062797999475,308.61902919993736,308.6023545998614,None,307.6062797999475,None,307.6062797999475,None,307.6062797999475,None,309.22196403001436,None,309.22196403001436,None,309.22196403001436,None,,,,,,,,,,,,,,202,2023-03-27_15h23.20.933,Main,2022.1.1,59.002480479045545,
negative,negative,2,j,l,,,,,,,,,4,13,85,9,,,,,,,,,main,2,2,2,negative,negative,j,j,1,0.8082922999747097,309.2286886998918,310.23839439987205,310.21901599993,None,309.2286886998918,None,309.2286886998918,None,309.2286886998918,None,311.03561692982913,None,311.03561692982913,None,311.03561692982913,None,,,,,,,,,,,,,,202,2023-03-27_15h23.20.933,Main,2022.1.1,59.002480479045545,
neutral,negative,1,k,k,,,,,,,,,4,14,86,7,,,,,,,,,main,1,1,1,negative,neutral,k,k,1,0.5987978000193834,311.0404577997979,312.0523140998557,312.0356583998073,None,311.0404577997979,None,311.0404577997979,None,311.0404577997979,None,312.63560452982784,None,312.63560452982784,None,312.63560452982784,None,,,,,,,,,,,,,,202,2023-03-27_15h23.20.933,Main,2022.1.1,59.002480479045545,
neutral,positive,1,k,k,,,,,,,,,4,15,87,4,,,,,,,,,main,1,1,1,positive,neutral,k,k,1,1.1314260000362992,312.64164259983227,313.65228559984826,313.63836460001767,None,312.64164259983227,None,312.64164259983227,None,312.64164259983227,None,314.76892882999965,None,314.76892882999965,None,314.76892882999965,None,,,,,,,,,,,,,,202,2023-03-27_15h23.20.933,Main,2022.1.1,59.002480479045545,
positive,negative,1,l,j,,,,,,,,,4,16,88,5,,,,,,,,,main,1,1,1,negative,positive,l,l,1,0.7482636000495404,314.78557239985093,315.78555999998935,315.76906039984897,None,314.78557239985093,None,314.78557239985093,None,314.78557239985093,None,316.51882992982866,None,316.51882992982866,None,316.51882992982866,None,,,,,,,,,,,,,,202,2023-03-27_15h23.20.933,Main,2022.1.1,59.002480479045545,
positive,positive,1,l,j,,,,,,,,,4,17,89,2,,,,,,,,,main,1,1,1,positive,positive,l,l,1,0.7645607001613826,316.5228141997941,317.53551519988105,317.51886149984784,None,316.5228141997941,None,316.5228141997941,None,316.5228141997941,None,318.28548292997294,None,318.28548292997294,None,318.28548292997294,None,,,,,,,,,,,,,,202,2023-03-27_15h23.20.933,Main,2022.1.1,59.002480479045545,
neutral,neutral,1,k,k,,,,,,,,,5,0,90,1,,,,,,,,,main,1,1,1,neutral,neutral,k,k,1,1.2327414001338184,318.2887359999586,319.30485239997506,319.28547589993104,None,318.2887359999586,None,318.2887359999586,None,318.2887359999586,None,320.51876222989523,None,320.51876222989523,None,320.51876222989523,None,,,,,,,,,,,,,,202,2023-03-27_15h23.20.933,Main,2022.1.1,59.002480479045545,
positive,negative,2,l,j,,,,,,,,,5,1,91,14,,,,,,,,,main,1,1,2,negative,positive,l,k,0,0.4306073999032378,320.5354586998001,321.5354779998306,321.5216548999306,None,320.5354586998001,None,320.5354586998001,None,320.5354586998001,None,321.95209279982373,None,321.95209279982373,None,321.95209279982373,None,,,,,,,,,,,,,,202,2023-03-27_15h23.20.933,Main,2022.1.1,59.002480479045545,
neutral,negative,1,k,k,,,,,,,,,5,2,92,7,,,,,,,,,main,1,1,1,negative,neutral,k,k,1,0.6511013000272214,322.9529717999976,323.95481229992583,323.9354264999274,None,322.9529717999976,None,322.9529717999976,None,322.9529717999976,None,324.60202912981623,None,324.60202912981623,None,324.60202912981623,None,,,,,,,,,,,,,,202,2023-03-27_15h23.20.933,Main,2022.1.1,59.002480479045545,
neutral,neutral,2,k,k,,,,,,,,,5,3,93,10,,,,,,,,,main,1,1,2,neutral,neutral,k,k,1,0.5477268998511136,324.6056738998741,325.602017799858,325.602017799858,None,324.6056738998741,None,324.6056738998741,None,324.6056738998741,None,326.15197752993555,None,326.15197752993555,None,326.15197752993555,None,,,,,,,,,,,,,,202,2023-03-27_15h23.20.933,Main,2022.1.1,59.002480479045545,
negative,positive,1,j,l,,,,,,,,,5,4,94,6,,,,,,,,,main,1,1,1,positive,negative,j,j,1,1.281112999888137,326.15602159989066,327.1686690999195,327.1547707999125,None,326.15602159989066,None,326.15602159989066,None,326.15602159989066,None,328.4352972299792,None,328.4352972299792,None,328.4352972299792,None,,,,,,,,,,,,,,202,2023-03-27_15h23.20.933,Main,2022.1.1,59.002480479045545,
negative,negative,2,j,l,,,,,,,,,5,5,95,9,,,,,,,,,main,2,2,2,negative,negative,j,j,1,0.6818200000561774,328.4386634998955,329.4546373998746,329.43528439989313,None,328.4386634998955,None,328.4386634998955,None,328.4386634998955,None,330.11857022992336,None,330.11857022992336,None,330.11857022992336,None,,,,,,,,,,,,,,202,2023-03-27_15h23.20.933,Main,2022.1.1,59.002480479045545,
negative,positive,2,j,l,,,,,,,,,5,6,96,15,,,,,,,,,main,2,2,2,positive,negative,j,j,1,0.6994775000493973,330.12233779998496,331.13529479992576,331.1213863999583,None,330.12233779998496,None,330.12233779998496,None,330.12233779998496,None,331.818532529939,None,331.818532529939,None,331.818532529939,None,,,,,,,,,,,,,,202,2023-03-27_15h23.20.933,Main,2022.1.1,59.002480479045545,
positive,neutral,1,l,j,,,,,,,,,5,7,97,8,,,,,,,,,main,1,1,1,neutral,positive,l,l,1,0.7644223999232054,331.8245586999692,332.8352075999137,332.818547999952,None,331.8245586999692,None,331.8245586999692,None,331.8245586999692,None,333.5851828299463,None,333.5851828299463,None,333.5851828299463,None,,,,,,,,,,,,,,202,2023-03-27_15h23.20.933,Main,2022.1.1,59.002480479045545,
neutral,positive,2,k,k,,,,,,,,,5,8,98,13,,,,,,,,,main,2,2,2,positive,neutral,k,k,1,0.6310960000846535,333.5893986998126,334.60451440000907,334.5851814998314,None,333.5893986998126,None,333.5893986998126,None,333.5893986998126,None,335.2185311298352,None,335.2185311298352,None,335.2185311298352,None,,,,,,,,,,,,,,202,2023-03-27_15h23.20.933,Main,2022.1.1,59.002480479045545,
negative,negative,1,j,l,,,,,,,,,5,9,99,0,,,,,,,,,main,2,2,1,negative,negative,j,j,1,0.6485166000202298,335.22166279982775,336.2378974999301,336.201803999953,None,335.22166279982775,None,335.22166279982775,None,335.22166279982775,None,336.86846702983604,None,336.86846702983604,None,336.86846702983604,None,,,,,,,,,,,,,,202,2023-03-27_15h23.20.933,Main,2022.1.1,59.002480479045545,
neutral,positive,1,k,k,,,,,,,,,5,10,100,4,,,,,,,,,main,1,1,1,positive,neutral,k,k,1,0.5817797998897731,336.87375919986516,337.88509100000374,337.8684433000162,None,336.87375919986516,None,336.87375919986516,None,336.87375919986516,None,338.4517658298835,None,338.4517658298835,None,338.4517658298835,None,,,,,,,,,,,,,,202,2023-03-27_15h23.20.933,Main,2022.1.1,59.002480479045545,
positive,positive,2,l,j,,,,,,,,,5,11,101,11,,,,,,,,,main,1,1,2,positive,positive,l,l,1,0.7661850999575108,338.4558270999696,339.4684247998521,339.4517750998493,None,338.4558270999696,None,338.4558270999696,None,338.4558270999696,None,340.2183629299514,None,340.2183629299514,None,340.2183629299514,None,,,,,,,,,,,,,,202,2023-03-27_15h23.20.933,Main,2022.1.1,59.002480479045545,
negative,neutral,1,j,l,,,,,,,,,5,12,102,3,,,,,,,,,main,1,1,1,neutral,negative,j,j,1,0.7476379000581801,340.2242686999962,341.23508449993096,341.2185103998054,None,340.2242686999962,None,340.2242686999962,None,340.2242686999962,None,341.9685725299176,None,341.9685725299176,None,341.9685725299176,None,,,,,,,,,,,,,,202,2023-03-27_15h23.20.933,Main,2022.1.1,59.002480479045545,
positive,positive,1,l,j,,,,,,,,,5,13,103,2,,,,,,,,,main,1,1,1,positive,positive,l,l,1,0.914807999972254,341.9740043999627,342.98500899993815,342.9712386999745,None,341.9740043999627,None,341.9740043999627,None,341.9740043999627,None,343.88495412999765,None,343.88495412999765,None,343.88495412999765,None,,,,,,,,,,,,,,202,2023-03-27_15h23.20.933,Main,2022.1.1,59.002480479045545,
negative,neutral,2,j,l,,,,,,,,,5,14,104,12,,,,,,,,,main,2,2,2,neutral,negative,j,j,1,0.765002200147137,343.8889185998123,344.9017459999304,344.88770249998197,None,343.8889185998123,None,343.8889185998123,None,343.8889185998123,None,345.65158942989075,None,345.65158942989075,None,345.65158942989075,None,,,,,,,,,,,,,,202,2023-03-27_15h23.20.933,Main,2022.1.1,59.002480479045545,
neutral,negative,2,k,k,,,,,,,,,5,15,105,16,,,,,,,,,main,1,1,2,negative,neutral,k,k,1,0.5311493000481278,345.65558029990643,346.6682850997895,346.6543192998506,None,345.65558029990643,None,345.65558029990643,None,345.65558029990643,None,347.18489322992974,None,347.18489322992974,None,347.18489322992974,None,,,,,,,,,,,,,,202,2023-03-27_15h23.20.933,Main,2022.1.1,59.002480479045545,
positive,neutral,2,l,j,,,,,,,,,5,16,106,17,,,,,,,,,main,2,2,2,neutral,positive,l,l,1,0.7319575999863446,347.18848529993556,348.201581900008,348.18506189994514,None,347.18848529993556,None,347.18848529993556,None,347.18848529993556,None,348.9181881299708,None,348.9181881299708,None,348.9181881299708,None,,,,,,,,,,,,,,202,2023-03-27_15h23.20.933,Main,2022.1.1,59.002480479045545,
positive,negative,1,l,j,,,,,,,,,5,17,107,5,,,,,,,,,main,1,1,1,negative,positive,l,l,1,1.148267999989912,348.921669999836,349.9181915000081,349.9181915000081,None,348.921669999836,None,348.921669999836,None,348.921669999836,None,351.06815102994443,None,351.06815102994443,None,351.06815102994443,None,,,,,,,,,,,,,,202,2023-03-27_15h23.20.933,Main,2022.1.1,59.002480479045545,
negative,neutral,2,j,l,,,,,,,,,6,0,108,12,,,,,,,,,main,1,1,2,neutral,negative,j,j,1,0.6985967000946403,351.07206959999166,352.08485739980824,352.0542476999108,None,351.07206959999166,None,351.07206959999166,None,351.07206959999166,None,352.76811692998746,None,352.76811692998746,None,352.76811692998746,None,,,,,,,,,,,,,,202,2023-03-27_15h23.20.933,Main,2022.1.1,59.002480479045545,
neutral,neutral,1,k,k,,,,,,,,,6,1,109,1,,,,,,,,,main,2,2,1,neutral,neutral,k,k,1,0.5324273998849094,352.77124339994043,353.78479039995,353.76811999990605,None,352.77124339994043,None,352.77124339994043,None,352.77124339994043,None,354.30114852981643,None,354.30114852981643,None,354.30114852981643,None,,,,,,,,,,,,,,202,2023-03-27_15h23.20.933,Main,2022.1.1,59.002480479045545,
negative,neutral,1,j,l,,,,,,,,,6,2,110,3,,,,,,,,,main,1,1,1,neutral,negative,j,j,1,1.347665699897334,354.30544069991447,355.3181849999819,355.3014204998035,None,354.30544069991447,None,354.30544069991447,None,354.30544069991447,None,356.6513699299656,None,356.6513699299656,None,356.6513699299656,None,,,,,,,,,,,,,,202,2023-03-27_15h23.20.933,Main,2022.1.1,59.002480479045545,
negative,positive,2,j,l,,,,,,,,,6,3,111,15,,,,,,,,,main,2,2,2,positive,negative,j,j,1,1.0826431999448687,356.65472589991987,357.6541327999439,357.6541327999439,None,356.65472589991987,None,356.65472589991987,None,356.65472589991987,None,358.7356244299561,None,358.7356244299561,None,358.7356244299561,None,,,,,,,,,,,,,,202,2023-03-27_15h23.20.933,Main,2022.1.1,59.002480479045545,
neutral,positive,1,k,k,,,,,,,,,6,4,112,4,,,,,,,,,main,2,2,1,positive,neutral,k,k,1,0.7651839000172913,358.74180749990046,359.7513225998264,359.7346624999773,None,358.74180749990046,None,358.74180749990046,None,358.74180749990046,None,360.50127802994103,None,360.50127802994103,None,360.50127802994103,None,,,,,,,,,,,,,,202,2023-03-27_15h23.20.933,Main,2022.1.1,59.002480479045545,
neutral,neutral,2,k,k,,,,,,,,,6,5,113,10,,,,,,,,,main,2,2,2,neutral,neutral,k,k,1,0.7643792000599205,360.5053532999009,361.52062929980457,361.50132919987664,None,360.5053532999009,None,360.5053532999009,None,360.5053532999009,None,362.2679178299848,None,362.2679178299848,None,362.2679178299848,None,,,,,,,,,,,,,,202,2023-03-27_15h23.20.933,Main,2022.1.1,59.002480479045545,
negative,negative,2,j,l,,,,,,,,,6,6,114,9,,,,,,,,,main,1,1,2,negative,negative,j,j,1,1.1012896001338959,362.27123589999974,363.2706812999677,363.2706812999677,None,362.27123589999974,None,362.27123589999974,None,362.27123589999974,None,364.3707299299538,None,364.3707299299538,None,364.3707299299538,None,,,,,,,,,,,,,,202,2023-03-27_15h23.20.933,Main,2022.1.1,59.002480479045545,
positive,negative,1,l,j,,,,,,,,,6,7,115,5,,,,,,,,,main,1,1,1,negative,positive,l,l,1,0.7790404001716524,364.3736719000153,365.3873752998188,365.3707606999669,None,364.3736719000153,None,364.3736719000153,None,364.3736719000153,None,366.15126502998174,None,366.15126502998174,None,366.15126502998174,None,,,,,,,,,,,,,,202,2023-03-27_15h23.20.933,Main,2022.1.1,59.002480479045545,
positive,positive,1,l,j,,,,,,,,,6,8,116,2,,,,,,,,,main,2,2,1,positive,positive,l,l,1,0.7983321999199688,366.15513519989327,367.16788690001704,367.15119899995625,None,366.15513519989327,None,366.15513519989327,None,366.15513519989327,None,367.9511346299667,None,367.9511346299667,None,367.9511346299667,None,,,,,,,,,,,,,,202,2023-03-27_15h23.20.933,Main,2022.1.1,59.002480479045545,
neutral,negative,2,k,k,,,,,,,,,6,9,117,16,,,,,,,,,main,1,1,2,negative,neutral,k,k,1,0.7322466999758035,367.95510699995793,368.96793589997105,368.95395509991795,None,367.95510699995793,None,367.95510699995793,None,367.95510699995793,None,369.6844682299532,None,369.6844682299532,None,369.6844682299532,None,,,,,,,,,,,,,,202,2023-03-27_15h23.20.933,Main,2022.1.1,59.002480479045545,
positive,positive,2,l,j,,,,,,,,,6,10,118,11,,,,,,,,,main,2,2,2,positive,positive,l,k,0,0.6313171999063343,369.68828199990094,370.70125139993615,370.6844510999508,None,369.68828199990094,None,369.68828199990094,None,369.68828199990094,None,371.3178067000117,None,371.3178067000117,None,371.3178067000117,None,,,,,,,,,,,,,,202,2023-03-27_15h23.20.933,Main,2022.1.1,59.002480479045545,
negative,positive,1,j,l,,,,,,,,,6,11,119,6,,,,,,,,,main,1,1,1,positive,negative,j,j,1,0.9008643999695778,372.31884819990955,373.33442199998535,373.3010515999049,None,372.31884819990955,None,372.31884819990955,None,372.31884819990955,None,374.21766352998094,None,374.21766352998094,None,374.21766352998094,None,,,,,,,,,,,,,,202,2023-03-27_15h23.20.933,Main,2022.1.1,59.002480479045545,
negative,negative,1,j,l,,,,,,,,,6,12,120,0,,,,,,,,,main,2,2,1,negative,negative,j,j,1,0.8313863999210298,374.22145069995895,375.2369996998459,375.2176594999619,None,374.22145069995895,None,374.22145069995895,None,374.22145069995895,None,376.0509561299812,None,376.0509561299812,None,376.0509561299812,None,,,,,,,,,,,,,,202,2023-03-27_15h23.20.933,Main,2022.1.1,59.002480479045545,
positive,neutral,1,l,j,,,,,,,,,6,13,121,8,,,,,,,,,main,1,1,1,neutral,positive,l,l,1,0.7659634000156075,376.0545467999764,377.05098079983145,377.05098079983145,None,376.0545467999764,None,376.0545467999764,None,376.0545467999764,None,377.8175976299215,None,377.8175976299215,None,377.8175976299215,None,,,,,,,,,,,,,,202,2023-03-27_15h23.20.933,Main,2022.1.1,59.002480479045545,
neutral,positive,2,k,k,,,,,,,,,6,14,122,13,,,,,,,,,main,2,2,2,positive,neutral,k,k,1,0.5842699001077563,377.8216005999129,378.8343605999835,378.81760189984925,None,377.8216005999129,None,377.8216005999129,None,377.8216005999129,None,379.40384762985633,None,379.40384762985633,None,379.40384762985633,None,,,,,,,,,,,,,,202,2023-03-27_15h23.20.933,Main,2022.1.1,59.002480479045545,
positive,negative,2,l,j,,,,,,,,,6,15,123,14,,,,,,,,,main,1,1,2,negative,positive,l,l,1,0.9452696000225842,379.4070900999941,380.4176240998786,380.40364569984376,None,379.4070900999941,None,379.4070900999941,None,379.4070900999941,None,381.35085912998767,None,381.35085912998767,None,381.35085912998767,None,,,,,,,,,,,,,,202,2023-03-27_15h23.20.933,Main,2022.1.1,59.002480479045545,
positive,neutral,2,l,j,,,,,,,,,6,16,124,17,,,,,,,,,main,1,1,2,neutral,positive,l,l,1,0.682069799862802,381.3541782000102,382.37020659982227,382.3536201999523,None,381.3541782000102,None,381.3541782000102,None,381.3541782000102,None,383.0342742299661,None,383.0342742299661,None,383.0342742299661,None,,,,,,,,,,,,,,202,2023-03-27_15h23.20.933,Main,2022.1.1,59.002480479045545,
neutral,negative,1,k,k,,,,,,,,,6,17,125,7,,,,,,,,,main,2,2,1,negative,neutral,k,k,1,0.5514877000823617,383.0380068998784,384.05082609993406,384.0341673998628,None,383.0380068998784,None,383.0380068998784,None,383.0380068998784,None,384.5871203299146,None,384.5871203299146,None,384.5871203299146,None,,,,,,,,,,,,,,202,2023-03-27_15h23.20.933,Main,2022.1.1,59.002480479045545,
positive,neutral,1,l,j,,,,,,,,,7,0,126,8,,,,,,,,,main,2,2,1,neutral,positive,l,l,1,0.6635386000853032,384.59038069983944,385.60079890000634,385.58413789980114,None,384.59038069983944,None,384.59038069983944,None,384.59038069983944,None,386.25251243002714,None,386.25251243002714,None,386.25251243002714,None,,,,,,,,,,,,,,202,2023-03-27_15h23.20.933,Main,2022.1.1,59.002480479045545,
negative,positive,2,j,l,,,,,,,,,7,1,127,15,,,,,,,,,main,2,2,2,positive,negative,j,j,1,0.9301396000664681,386.25818749982864,387.2677007999737,387.2508180998266,None,386.25818749982864,None,386.25818749982864,None,386.25818749982864,None,388.18412832980977,None,388.18412832980977,None,388.18412832980977,None,,,,,,,,,,,,,,202,2023-03-27_15h23.20.933,Main,2022.1.1,59.002480479045545,
positive,negative,1,l,j,,,,,,,,,7,2,128,5,,,,,,,,,main,2,2,1,negative,positive,l,l,1,0.7487949000205845,388.1880434998311,389.2007591999136,389.1840815998148,None,388.1880434998311,None,388.1880434998311,None,388.1880434998311,None,389.9340176300146,None,389.9340176300146,None,389.9340176300146,None,,,,,,,,,,,,,,202,2023-03-27_15h23.20.933,Main,2022.1.1,59.002480479045545,
positive,neutral,2,l,j,,,,,,,,,7,3,129,17,,,,,,,,,main,2,2,2,neutral,positive,l,l,1,0.6475467998534441,389.93807939998806,390.9506840999238,390.93402929999866,None,389.93807939998806,None,389.93807939998806,None,389.93807939998806,None,391.5839792298619,None,391.5839792298619,None,391.5839792298619,None,,,,,,,,,,,,,,202,2023-03-27_15h23.20.933,Main,2022.1.1,59.002480479045545,
neutral,negative,2,k,k,,,,,,,,,7,4,130,16,,,,,,,,,main,1,1,2,negative,neutral,k,k,1,-0.13503729994408786,391.58728379989043,None,None,None,391.58728379989043,None,391.58728379989043,None,391.58728379989043,None,392.4506906999741,None,392.4506906999741,None,392.4506906999741,None,,,,,,,,,,,,,,202,2023-03-27_15h23.20.933,Main,2022.1.1,59.002480479045545,
negative,negative,2,j,l,,,,,,,,,7,5,131,9,,,,,,,,,main,1,1,2,negative,negative,j,j,1,0.8699492001906037,395.45059519982897,396.45331759983674,396.43390819989145,None,395.45059519982897,None,395.45059519982897,None,395.45059519982897,None,397.3171953300014,None,397.3171953300014,None,397.3171953300014,None,,,,,,,,,,,,,,202,2023-03-27_15h23.20.933,Main,2022.1.1,59.002480479045545,
negative,neutral,2,j,l,,,,,,,,,7,6,132,12,,,,,,,,,main,2,2,2,neutral,negative,j,j,1,1.2818287999834865,397.32098219986074,398.3339863999281,398.3200824998785,None,397.32098219986074,None,397.32098219986074,None,397.32098219986074,None,399.60048422981055,None,399.60048422981055,None,399.60048422981055,None,,,,,,,,,,,,,,202,2023-03-27_15h23.20.933,Main,2022.1.1,59.002480479045545,
neutral,positive,2,k,k,,,,,,,,,7,7,133,13,,,,,,,,,main,2,2,2,positive,neutral,k,k,1,0.5817165998741984,399.6062934999354,400.61987349996343,400.60049609979615,None,399.6062934999354,None,399.6062934999354,None,399.6062934999354,None,401.18379282993266,None,401.18379282993266,None,401.18379282993266,None,,,,,,,,,,,,,,202,2023-03-27_15h23.20.933,Main,2022.1.1,59.002480479045545,
positive,negative,2,l,j,,,,,,,,,7,8,134,14,,,,,,,,,main,1,1,2,negative,positive,l,l,1,0.7332206999417394,401.1869749999605,402.20046489988454,402.18386469990946,None,401.1869749999605,None,401.1869749999605,None,401.1869749999605,None,402.917222529836,None,402.917222529836,None,402.917222529836,None,,,,,,,,,,,,,,202,2023-03-27_15h23.20.933,Main,2022.1.1,59.002480479045545,
neutral,positive,1,k,k,,,,,,,,,7,9,135,4,,,,,,,,,main,2,2,1,positive,neutral,k,k,1,0.5470580998808146,402.9215869999025,403.9337654998526,403.9170973999426,None,402.9215869999025,None,402.9215869999025,None,402.9215869999025,None,404.4671525298152,None,404.4671525298152,None,404.4671525298152,None,,,,,,,,,,,,,,202,2023-03-27_15h23.20.933,Main,2022.1.1,59.002480479045545,
negative,positive,1,j,l,,,,,,,,,7,10,136,6,,,,,,,,,main,2,2,1,positive,negative,j,j,1,0.7817882001399994,404.4707801998593,405.48372069979087,405.46976329991594,None,404.4707801998593,None,404.4707801998593,None,404.4707801998593,None,406.2503586299252,None,406.2503586299252,None,406.2503586299252,None,,,,,,,,,,,,,,202,2023-03-27_15h23.20.933,Main,2022.1.1,59.002480479045545,
negative,negative,1,j,l,,,,,,,,,7,11,137,0,,,,,,,,,main,2,2,1,negative,negative,j,j,1,1.3983617001213133,406.25592309981585,407.2698485997971,407.253135799896,None,406.25592309981585,None,406.25592309981585,None,406.25592309981585,None,408.65033122985625,None,408.65033122985625,None,408.65033122985625,None,,,,,,,,,,,,,,202,2023-03-27_15h23.20.933,Main,2022.1.1,59.002480479045545,
positive,positive,1,l,j,,,,,,,,,7,12,138,2,,,,,,,,,main,2,2,1,positive,positive,l,l,1,0.8154047999996692,408.6545115998015,409.66700199991465,409.6503238999285,None,408.6545115998015,None,408.6545115998015,None,408.6545115998015,None,410.46703392984347,None,410.46703392984347,None,410.46703392984347,None,,,,,,,,,,,,,,202,2023-03-27_15h23.20.933,Main,2022.1.1,59.002480479045545,
neutral,neutral,1,k,k,,,,,,,,,7,13,139,1,,,,,,,,,main,2,2,1,neutral,neutral,k,k,1,0.9648657999932766,410.47053219983354,411.4836062998511,411.46692759986036,None,410.47053219983354,None,410.47053219983354,None,410.47053219983354,None,412.4335777298082,None,412.4335777298082,None,412.4335777298082,None,,,,,,,,,,,,,,202,2023-03-27_15h23.20.933,Main,2022.1.1,59.002480479045545,
neutral,neutral,2,k,k,,,,,,,,,7,14,140,10,,,,,,,,,main,1,1,2,neutral,neutral,k,k,1,0.6993426000699401,412.43879269994795,413.4529028998222,413.4335572998971,None,412.43879269994795,None,412.43879269994795,None,412.43879269994795,None,414.1332578300033,None,414.1332578300033,None,414.1332578300033,None,,,,,,,,,,,,,,202,2023-03-27_15h23.20.933,Main,2022.1.1,59.002480479045545,
negative,neutral,1,j,l,,,,,,,,,7,15,141,3,,,,,,,,,main,2,2,1,neutral,negative,j,j,1,0.7811070999596268,414.1375539000146,415.1502238998655,415.1335771000013,None,414.1375539000146,None,414.1375539000146,None,414.1375539000146,None,415.91688632983715,None,415.91688632983715,None,415.91688632983715,None,,,,,,,,,,,,,,202,2023-03-27_15h23.20.933,Main,2022.1.1,59.002480479045545,
positive,positive,2,l,j,,,,,,,,,7,16,142,11,,,,,,,,,main,2,2,2,positive,positive,l,l,1,1.0152020000386983,415.9225069999229,416.9334870998282,416.91683180001564,None,415.9225069999229,None,415.9225069999229,None,415.9225069999229,None,417.9334341298789,None,417.9334341298789,None,417.9334341298789,None,,,,,,,,,,,,,,202,2023-03-27_15h23.20.933,Main,2022.1.1,59.002480479045545,
neutral,negative,1,k,k,,,,,,,,,7,17,143,7,,,,,,,,,main,1,1,1,negative,neutral,k,k,1,0.6496711999643594,417.93694429984316,418.93625309993513,418.93625309993513,None,417.93694429984316,None,417.93694429984316,None,417.93694429984316,None,419.58342152992265,None,419.58342152992265,None,419.58342152992265,None,,,,,,,,,,,,,,202,2023-03-27_15h23.20.933,Main,2022.1.1,59.002480479045545,
negative,neutral,1,j,l,,,,,,,,,8,0,144,3,,,,,,,,,main,1,1,1,neutral,negative,j,j,1,0.8305057999677956,419.5881730997935,420.6000936999917,420.58343489980325,None,419.5881730997935,None,419.5881730997935,None,419.5881730997935,None,421.41691822996364,None,421.41691822996364,None,421.41691822996364,None,,,,,,,,,,,,,,202,2023-03-27_15h23.20.933,Main,2022.1.1,59.002480479045545,
negative,negative,2,j,l,,,,,,,,,8,1,145,9,,,,,,,,,main,2,2,2,negative,negative,j,j,1,1.097814799984917,421.4227626998909,422.4360748999752,422.41952849994414,None,421.4227626998909,None,421.4227626998909,None,421.4227626998909,None,423.51639942983167,None,423.51639942983167,None,423.51639942983167,None,,,,,,,,,,,,,,202,2023-03-27_15h23.20.933,Main,2022.1.1,59.002480479045545,
neutral,negative,1,k,k,,,,,,,,,8,2,146,7,,,,,,,,,main,2,2,1,negative,neutral,k,k,1,0.56823750003241,423.53343939990737,424.53606259985827,424.51945319981314,None,423.53343939990737,None,423.53343939990737,None,423.53343939990737,None,425.0860518298112,None,425.0860518298112,None,425.0860518298112,None,,,,,,,,,,,,,,202,2023-03-27_15h23.20.933,Main,2022.1.1,59.002480479045545,
neutral,positive,1,k,k,,,,,,,,,8,3,147,4,,,,,,,,,main,2,2,1,positive,neutral,k,k,1,0.4962727001402527,425.08898180001415,426.10272039985284,426.0834407999646,None,425.08898180001415,None,425.08898180001415,None,425.08898180001415,None,426.5833081299905,None,426.5833081299905,None,426.5833081299905,None,,,,,,,,,,,,,,202,2023-03-27_15h23.20.933,Main,2022.1.1,59.002480479045545,
neutral,neutral,1,k,k,,,,,,,,,8,4,148,1,,,,,,,,,main,1,1,1,neutral,neutral,k,k,1,0.5815391999203712,426.5873314999044,427.5999451999087,427.5832942998968,None,426.5873314999044,None,426.5873314999044,None,426.5873314999044,None,428.1665837298613,None,428.1665837298613,None,428.1665837298613,None,,,,,,,,,,,,,,202,2023-03-27_15h23.20.933,Main,2022.1.1,59.002480479045545,
positive,positive,1,l,j,,,,,,,,,8,5,149,2,,,,,,,,,main,1,1,1,positive,positive,l,l,1,0.8481534998863935,428.1701515999157,429.1698628999293,429.1698628999293,None,428.1701515999157,None,428.1701515999157,None,428.1701515999157,None,430.0165241299663,None,430.0165241299663,None,430.0165241299663,None,,,,,,,,,,,,,,202,2023-03-27_15h23.20.933,Main,2022.1.1,59.002480479045545,
positive,neutral,2,l,j,,,,,,,,,8,6,150,17,,,,,,,,,main,2,2,2,neutral,positive,l,l,1,0.8319409000687301,430.0200123998802,431.01664529996924,431.01664529996924,None,430.0200123998802,None,430.0200123998802,None,430.0200123998802,None,431.8498153299559,None,431.8498153299559,None,431.8498153299559,None,,,,,,,,,,,,,,202,2023-03-27_15h23.20.933,Main,2022.1.1,59.002480479045545,
negative,positive,1,j,l,,,,,,,,,8,7,151,6,,,,,,,,,main,2,2,1,positive,negative,j,j,1,0.931750699877739,431.8531044998672,432.86651209997945,432.8526002999861,None,431.8531044998672,None,431.8531044998672,None,431.8531044998672,None,433.7831033300143,None,433.7831033300143,None,433.7831033300143,None,,,,,,,,,,,,,,202,2023-03-27_15h23.20.933,Main,2022.1.1,59.002480479045545,
negative,positive,2,j,l,,,,,,,,,8,8,152,15,,,,,,,,,main,1,1,2,positive,negative,j,j,1,0.8817706999834627,433.78858920000494,434.8026072999928,434.7831494999118,None,433.78858920000494,None,433.78858920000494,None,433.78858920000494,None,435.66642472981476,None,435.66642472981476,None,435.66642472981476,None,,,,,,,,,,,,,,202,2023-03-27_15h23.20.933,Main,2022.1.1,59.002480479045545,
positive,negative,2,l,j,,,,,,,,,8,9,153,14,,,,,,,,,main,1,1,2,negative,positive,l,j,0,1.651318500051275,435.6696358998306,436.6691358999815,436.6525086998008,None,435.6696358998306,None,435.6696358998306,None,435.6696358998306,None,438.31643579993397,None,438.31643579993397,None,438.31643579993397,None,,,,,,,,,,,,,,202,2023-03-27_15h23.20.933,Main,2022.1.1,59.002480479045545,
neutral,negative,2,k,k,,,,,,,,,8,10,154,16,,,,,,,,,main,2,2,2,negative,neutral,k,k,1,0.703613999998197,439.319179299986,440.31651109992526,440.30253809993155,None,439.319179299986,None,439.319179299986,None,439.319179299986,None,441.0164322298486,None,441.0164322298486,None,441.0164322298486,None,,,,,,,,,,,,,,202,2023-03-27_15h23.20.933,Main,2022.1.1,59.002480479045545,
positive,positive,2,l,j,,,,,,,,,8,11,155,11,,,,,,,,,main,2,2,2,positive,positive,l,l,1,0.8150657000951469,441.0207675998099,442.03297599987127,442.0163198998198,None,441.0207675998099,None,441.0207675998099,None,441.0207675998099,None,442.8329310297966,None,442.8329310297966,None,442.8329310297966,None,,,,,,,,,,,,,,202,2023-03-27_15h23.20.933,Main,2022.1.1,59.002480479045545,
positive,neutral,1,l,j,,,,,,,,,8,12,156,8,,,,,,,,,main,1,1,1,neutral,positive,l,l,1,0.7482217999640852,442.8363659000024,443.83297019987367,443.83297019987367,None,442.8363659000024,None,442.8363659000024,None,442.8363659000024,None,444.58265312989244,None,444.58265312989244,None,444.58265312989244,None,,,,,,,,,,,,,,202,2023-03-27_15h23.20.933,Main,2022.1.1,59.002480479045545,
negative,neutral,2,j,l,,,,,,,,,8,13,157,12,,,,,,,,,main,2,2,2,neutral,negative,j,j,1,0.9319869000464678,444.5896113999188,445.59968380001374,445.5829255999997,None,444.5896113999188,None,444.5896113999188,None,444.5896113999188,None,446.5162082300056,None,446.5162082300056,None,446.5162082300056,None,,,,,,,,,,,,,,202,2023-03-27_15h23.20.933,Main,2022.1.1,59.002480479045545,
negative,negative,1,j,l,,,,,,,,,8,14,158,0,,,,,,,,,main,2,2,1,negative,negative,j,j,1,1.2327131999190897,446.5218436999712,447.53291939990595,447.51620389986783,None,446.5218436999712,None,446.5218436999712,None,446.5218436999712,None,448.74948652992026,None,448.74948652992026,None,448.74948652992026,None,,,,,,,,,,,,,,202,2023-03-27_15h23.20.933,Main,2022.1.1,59.002480479045545,
neutral,positive,2,k,k,,,,,,,,,8,15,159,13,,,,,,,,,main,1,1,2,positive,neutral,k,k,1,1.097523800097406,448.75376869994216,449.7661429999862,449.7495316998102,None,448.75376869994216,None,448.75376869994216,None,448.75376869994216,None,450.8494564299006,None,450.8494564299006,None,450.8494564299006,None,,,,,,,,,,,,,,202,2023-03-27_15h23.20.933,Main,2022.1.1,59.002480479045545,
positive,negative,1,l,j,,,,,,,,,8,16,160,5,,,,,,,,,main,2,2,1,negative,positive,l,l,1,0.6846404001116753,450.8550973997917,451.86617109994404,451.84943269984797,None,450.8550973997917,None,450.8550973997917,None,450.8550973997917,None,452.5355197300203,None,452.5355197300203,None,452.5355197300203,None,,,,,,,,,,,,,,202,2023-03-27_15h23.20.933,Main,2022.1.1,59.002480479045545,
neutral,neutral,2,k,k,,,,,,,,,8,17,161,10,,,,,,,,,main,2,2,2,neutral,neutral,k,k,1,0.5455736999865621,452.5389866998885,453.5494401999749,453.5355905999895,None,452.5389866998885,None,452.5389866998885,None,452.5389866998885,None,454.08270022990183,None,454.08270022990183,None,454.08270022990183,None,,,,,,,,,,,,,,202,2023-03-27_15h23.20.933,Main,2022.1.1,59.002480479045545,
neutral,positive,2,k,k,,,,,,,,,9,0,162,13,,,,,,,,,main,2,2,2,positive,neutral,k,k,1,0.6984677999280393,454.0865115998313,455.0993640997913,455.08553109993227,None,454.0865115998313,None,454.0865115998313,None,454.0865115998313,None,455.782663129922,None,455.782663129922,None,455.782663129922,None,,,,,,,,,,,,,,202,2023-03-27_15h23.20.933,Main,2022.1.1,59.002480479045545,
neutral,negative,1,k,k,,,,,,,,,9,1,163,7,,,,,,,,,main,2,2,1,negative,neutral,k,k,1,0.782227799994871,455.7882600999437,456.7993683000095,456.78547929995693,None,455.7882600999437,None,455.7882600999437,None,455.7882600999437,None,457.56596422982403,None,457.56596422982403,None,457.56596422982403,None,,,,,,,,,,,,,,202,2023-03-27_15h23.20.933,Main,2022.1.1,59.002480479045545,
positive,neutral,2,l,j,,,,,,,,,9,2,164,17,,,,,,,,,main,1,1,2,neutral,positive,l,l,1,0.7812657998874784,457.5716945999302,458.58538129995577,458.5659748998005,None,457.5716945999302,None,457.5716945999302,None,457.5716945999302,None,459.3493351300247,None,459.3493351300247,None,459.3493351300247,None,,,,,,,,,,,,,,202,2023-03-27_15h23.20.933,Main,2022.1.1,59.002480479045545,
positive,positive,2,l,j,,,,,,,,,9,3,165,11,,,,,,,,,main,2,2,2,positive,positive,l,l,1,0.6680030999705195,459.3535910998471,460.368659599917,460.352113999892,None,459.3535910998471,None,459.3535910998471,None,459.3535910998471,None,461.0185864299536,None,461.0185864299536,None,461.0185864299536,None,,,,,,,,,,,,,,202,2023-03-27_15h23.20.933,Main,2022.1.1,59.002480479045545,
positive,neutral,1,l,j,,,,,,,,,9,4,166,8,,,,,,,,,main,2,2,1,neutral,positive,l,l,1,0.8457303000614047,461.02163269999437,462.0326048999559,462.0159143998753,None,461.02163269999437,None,461.02163269999437,None,461.02163269999437,None,462.86584593001754,None,462.86584593001754,None,462.86584593001754,None,,,,,,,,,,,,,,202,2023-03-27_15h23.20.933,Main,2022.1.1,59.002480479045545,
positive,negative,1,l,j,,,,,,,,,9,5,167,5,,,,,,,,,main,2,2,1,negative,positive,l,l,1,0.6986223000567406,462.8691682999488,463.8825107999146,463.8658572998829,None,462.8691682999488,None,462.8691682999488,None,462.8691682999488,None,464.5658408298157,None,464.5658408298157,None,464.5658408298157,None,,,,,,,,,,,,,,202,2023-03-27_15h23.20.933,Main,2022.1.1,59.002480479045545,
negative,negative,1,j,l,,,,,,,,,9,6,168,0,,,,,,,,,main,1,1,1,negative,negative,j,j,1,0.7809945000335574,464.5701874999795,465.5825069998391,465.56858949991874,None,464.5701874999795,None,464.5701874999795,None,464.5701874999795,None,466.3492251298856,None,466.3492251298856,None,466.3492251298856,None,,,,,,,,,,,,,,202,2023-03-27_15h23.20.933,Main,2022.1.1,59.002480479045545,
neutral,negative,2,k,k,,,,,,,,,9,7,169,16,,,,,,,,,main,2,2,2,negative,neutral,k,k,1,0.5652241001371294,466.35470759985037,467.36587459989823,467.34915259992704,None,466.35470759985037,None,466.35470759985037,None,466.35470759985037,None,467.9159748299979,None,467.9159748299979,None,467.9159748299979,None,,,,,,,,,,,,,,202,2023-03-27_15h23.20.933,Main,2022.1.1,59.002480479045545,
positive,negative,2,l,j,,,,,,,,,9,8,170,14,,,,,,,,,main,2,2,2,negative,positive,l,l,1,0.9316209999378771,467.9194304998964,468.9324382999912,468.9157483999152,None,467.9194304998964,None,467.9194304998964,None,467.9194304998964,None,469.8490468298085,None,469.8490468298085,None,469.8490468298085,None,,,,,,,,,,,,,,202,2023-03-27_15h23.20.933,Main,2022.1.1,59.002480479045545,
neutral,neutral,2,k,k,,,,,,,,,9,9,171,10,,,,,,,,,main,1,1,2,neutral,neutral,k,k,1,0.6816477000247687,469.8544423999265,470.86571719986387,470.8490420000162,None,469.8544423999265,None,469.8544423999265,None,469.8544423999265,None,471.5323695300147,None,471.5323695300147,None,471.5323695300147,None,,,,,,,,,,,,,,202,2023-03-27_15h23.20.933,Main,2022.1.1,59.002480479045545,
neutral,positive,1,k,k,,,,,,,,,9,10,172,4,,,,,,,,,main,1,1,1,positive,neutral,k,k,1,0.5677998999599367,471.535996099934,472.54902379983105,472.53236339986324,None,471.535996099934,None,471.535996099934,None,471.535996099934,None,473.10169142992237,None,473.10169142992237,None,473.10169142992237,None,,,,,,,,,,,,,,202,2023-03-27_15h23.20.933,Main,2022.1.1,59.002480479045545,
positive,positive,1,l,j,,,,,,,,,9,11,173,2,,,,,,,,,main,1,1,1,positive,positive,l,l,1,0.7958894998300821,473.10510769998655,474.1156696998514,474.09901669993997,None,473.10510769998655,None,473.10510769998655,None,473.10510769998655,None,474.89900032985025,None,474.89900032985025,None,474.89900032985025,None,,,,,,,,,,,,,,202,2023-03-27_15h23.20.933,Main,2022.1.1,59.002480479045545,
negative,negative,2,j,l,,,,,,,,,9,12,174,9,,,,,,,,,main,2,2,2,negative,negative,j,j,1,0.9150965998414904,474.90209539979696,475.8990126999561,475.8990126999561,None,474.90209539979696,None,474.90209539979696,None,474.90209539979696,None,476.81556132989937,None,476.81556132989937,None,476.81556132989937,None,,,,,,,,,,,,,,202,2023-03-27_15h23.20.933,Main,2022.1.1,59.002480479045545,
negative,neutral,1,j,l,,,,,,,,,9,13,175,3,,,,,,,,,main,2,2,1,neutral,negative,j,j,1,0.7985936000477523,476.81895119999535,477.8322353998665,477.8183184999507,None,476.81895119999535,None,476.81895119999535,None,476.81895119999535,None,478.61564643001185,None,478.61564643001185,None,478.61564643001185,None,,,,,,,,,,,,,,202,2023-03-27_15h23.20.933,Main,2022.1.1,59.002480479045545,
negative,positive,2,j,l,,,,,,,,,9,14,176,15,,,,,,,,,main,2,2,2,positive,negative,j,j,1,1.0317977000959218,478.62102869991213,479.63224959978834,479.61879889992997,None,478.62102869991213,None,478.62102869991213,None,478.62102869991213,None,480.64899952984416,None,480.64899952984416,None,480.64899952984416,None,,,,,,,,,,,,,,202,2023-03-27_15h23.20.933,Main,2022.1.1,59.002480479045545,
negative,positive,1,j,l,,,,,,,,,9,15,177,6,,,,,,,,,main,1,1,1,positive,negative,j,j,1,0.9472811000887305,480.65548869990744,481.66830109991133,481.6490868998226,None,480.65548869990744,None,480.65548869990744,None,480.65548869990744,None,482.59879923001864,None,482.59879923001864,None,482.59879923001864,None,,,,,,,,,,,,,,202,2023-03-27_15h23.20.933,Main,2022.1.1,59.002480479045545,
negative,neutral,2,j,l,,,,,,,,,9,16,178,12,,,,,,,,,main,1,1,2,neutral,negative,j,j,1,0.6317988999653608,482.60518189985305,483.6154560998548,483.5821261999663,None,482.60518189985305,None,482.60518189985305,None,482.60518189985305,None,484.23213253002615,None,484.23213253002615,None,484.23213253002615,None,,,,,,,,,,,,,,202,2023-03-27_15h23.20.933,Main,2022.1.1,59.002480479045545,
neutral,neutral,1,k,k,,,,,,,,,9,17,179,1,,,,,,,,,main,1,1,1,neutral,neutral,k,k,1,0.5646925000473857,484.2379362999927,485.2487631000113,485.23210789985023,None,484.2379362999927,None,484.2379362999927,None,484.2379362999927,None,485.79876252980904,None,485.79876252980904,None,485.79876252980904,None,,,,,,,,,,,,,,202,2023-03-27_15h23.20.933,Main,2022.1.1,59.002480479045545,
neutral,positive,1,k,k,,,,,,,,,10,0,180,4,,,,,,,,,main,2,2,1,positive,neutral,k,k,1,0.6989457998424768,485.80249249981716,486.81539749982767,486.7820766000077,None,485.80249249981716,None,485.80249249981716,None,485.80249249981716,None,487.4987844298128,None,487.4987844298128,None,487.4987844298128,None,,,,,,,,,,,,,,202,2023-03-27_15h23.20.933,Main,2022.1.1,59.002480479045545,
positive,neutral,1,l,j,,,,,,,,,10,1,181,8,,,,,,,,,main,1,1,1,neutral,positive,l,l,1,1.5982594001106918,487.50407089991495,488.5181456999853,488.50152559997514,None,487.50407089991495,None,487.50407089991495,None,487.50407089991495,None,490.098651799839,None,490.098651799839,None,490.098651799839,None,,,,,,,,,,,,,,202,2023-03-27_15h23.20.933,Main,2022.1.1,59.002480479045545,
positive,positive,1,l,j,,,,,,,,,10,2,182,2,,,,,,,,,main,2,2,1,positive,positive,l,l,1,0.9343966001179069,491.09975489997305,492.1152994998265,492.0821095998399,None,491.09975489997305,None,491.09975489997305,None,491.09975489997305,None,493.0319128299132,None,493.0319128299132,None,493.0319128299132,None,,,,,,,,,,,,,,202,2023-03-27_15h23.20.933,Main,2022.1.1,59.002480479045545,
negative,neutral,1,j,l,,,,,,,,,10,3,183,3,,,,,,,,,main,2,2,1,neutral,negative,j,j,1,0.8146812000777572,493.035780799808,494.05119499983266,494.03196449996904,None,493.035780799808,None,493.035780799808,None,493.035780799808,None,494.8485276298132,None,494.8485276298132,None,494.8485276298132,None,,,,,,,,,,,,,,202,2023-03-27_15h23.20.933,Main,2022.1.1,59.002480479045545,
negative,positive,2,j,l,,,,,,,,,10,4,184,15,,,,,,,,,main,2,2,2,positive,negative,j,j,1,0.8153180000372231,494.8538317999337,495.8652091999538,495.8513329999987,None,494.8538317999337,None,494.8538317999337,None,494.8538317999337,None,496.6652058299631,None,496.6652058299631,None,496.6652058299631,None,,,,,,,,,,,,,,202,2023-03-27_15h23.20.933,Main,2022.1.1,59.002480479045545,
negative,negative,2,j,l,,,,,,,,,10,5,185,9,,,,,,,,,main,1,1,2,negative,negative,j,j,1,0.880844600033015,496.66937269992195,497.68185910000466,497.66518129990436,None,496.66937269992195,None,496.66937269992195,None,496.66937269992195,None,498.54850172991866,None,498.54850172991866,None,498.54850172991866,None,,,,,,,,,,,,,,202,2023-03-27_15h23.20.933,Main,2022.1.1,59.002480479045545,
positive,positive,2,l,j,,,,,,,,,10,6,186,11,,,,,,,,,main,1,1,2,positive,positive,l,l,1,0.7816794998943806,498.55243069981225,499.5679810999427,499.5486862999387,None,498.55243069981225,None,498.55243069981225,None,498.55243069981225,None,500.33177732997575,None,500.33177732997575,None,500.33177732997575,None,,,,,,,,,,,,,,202,2023-03-27_15h23.20.933,Main,2022.1.1,59.002480479045545,
negative,positive,1,j,l,,,,,,,,,10,7,187,6,,,,,,,,,main,2,2,1,positive,negative,j,j,1,1.414959300076589,500.3352632999886,501.33445149986073,501.3179106998723,None,500.3352632999886,None,500.3352632999886,None,500.3352632999886,None,502.74826642982663,None,502.74826642982663,None,502.74826642982663,None,,,,,,,,,,,,,,202,2023-03-27_15h23.20.933,Main,2022.1.1,59.002480479045545,
neutral,negative,2,k,k,,,,,,,,,10,8,188,16,,,,,,,,,main,2,2,2,negative,neutral,k,k,1,0.6818355999421328,502.75482609984465,503.7651454999577,503.74843199993484,None,502.75482609984465,None,502.75482609984465,None,502.75482609984465,None,504.43167392998004,None,504.43167392998004,None,504.43167392998004,None,,,,,,,,,,,,,,202,2023-03-27_15h23.20.933,Main,2022.1.1,59.002480479045545,
positive,negative,1,l,j,,,,,,,,,10,9,189,5,,,,,,,,,main,2,2,1,negative,positive,l,l,1,0.8650817000307143,504.43514800001867,505.4511510999873,505.43170409998856,None,504.43514800001867,None,504.43514800001867,None,504.43514800001867,None,506.29830562993885,None,506.29830562993885,None,506.29830562993885,None,,,,,,,,,,,,,,202,2023-03-27_15h23.20.933,Main,2022.1.1,59.002480479045545,
neutral,positive,2,k,k,,,,,,,,,10,10,190,13,,,,,,,,,main,2,2,2,positive,neutral,k,k,1,0.7658601000439376,506.302229099907,507.2983499998227,507.2983499998227,None,506.302229099907,None,506.302229099907,None,506.302229099907,None,508.0646564298775,None,508.0646564298775,None,508.0646564298775,None,,,,,,,,,,,,,,202,2023-03-27_15h23.20.933,Main,2022.1.1,59.002480479045545,
positive,negative,2,l,j,,,,,,,,,10,11,191,14,,,,,,,,,main,1,1,2,negative,positive,l,k,0,0.6313002000097185,508.08163339993916,509.081604299834,509.0649492999073,None,508.08163339993916,None,508.08163339993916,None,508.08163339993916,None,509.69837929983623,None,509.69837929983623,None,509.69837929983623,None,,,,,,,,,,,,,,202,2023-03-27_15h23.20.933,Main,2022.1.1,59.002480479045545,
negative,neutral,2,j,l,,,,,,,,,10,12,192,12,,,,,,,,,main,1,1,2,neutral,negative,j,j,1,1.3007394999731332,510.6992701999843,511.69823409989476,511.6842575999908,None,510.6992701999843,None,510.6992701999843,None,510.6992701999843,None,512.9981607298366,None,512.9981607298366,None,512.9981607298366,None,,,,,,,,,,,,,,202,2023-03-27_15h23.20.933,Main,2022.1.1,59.002480479045545,
negative,negative,1,j,l,,,,,,,,,10,13,193,0,,,,,,,,,main,2,2,1,negative,negative,j,j,1,0.8141473999712616,513.0024507998023,514.0148137998767,514.0009665999096,None,513.0024507998023,None,513.0024507998023,None,513.0024507998023,None,514.8147617298644,None,514.8147617298644,None,514.8147617298644,None,,,,,,,,,,,,,,202,2023-03-27_15h23.20.933,Main,2022.1.1,59.002480479045545,
positive,neutral,2,l,j,,,,,,,,,10,14,194,17,,,,,,,,,main,1,1,2,neutral,positive,l,l,1,0.8153431999962777,514.8179318998009,515.8341374997981,515.7981279999949,None,514.8179318998009,None,514.8179318998009,None,514.8179318998009,None,516.6314408299047,None,516.6314408299047,None,516.6314408299047,None,,,,,,,,,,,,,,202,2023-03-27_15h23.20.933,Main,2022.1.1,59.002480479045545,
neutral,neutral,1,k,k,,,,,,,,,10,15,195,1,,,,,,,,,main,2,2,1,neutral,neutral,k,k,1,0.7317119999788702,516.6345861998852,517.6507921998855,517.6314507999923,None,516.6345861998852,None,516.6345861998852,None,516.6345861998852,None,518.3647600300144,None,518.3647600300144,None,518.3647600300144,None,,,,,,,,,,,,,,202,2023-03-27_15h23.20.933,Main,2022.1.1,59.002480479045545,
neutral,neutral,2,k,k,,,,,,,,,10,16,196,10,,,,,,,,,main,2,2,2,neutral,neutral,k,k,1,0.6150088999420404,518.3681210998911,519.3814234999008,519.3675233998802,None,518.3681210998911,None,518.3681210998911,None,518.3681210998911,None,519.9813354298938,None,519.9813354298938,None,519.9813354298938,None,,,,,,,,,,,,,,202,2023-03-27_15h23.20.933,Main,2022.1.1,59.002480479045545,
neutral,negative,1,k,k,,,,,,,,,10,17,197,7,,,,,,,,,main,1,1,1,negative,neutral,k,k,1,0.6652637000661343,519.9848348000087,520.9840947999619,520.9840947999619,None,519.9848348000087,None,519.9848348000087,None,519.9848348000087,None,521.6480242299847,None,521.6480242299847,None,521.6480242299847,None,,,,,,,,,,,,,,202,2023-03-27_15h23.20.933,Main,2022.1.1,59.002480479045545,
negative,positive,1,j,l,,,,,,,,,11,0,198,6,,,,,,,,,main,2,2,1,positive,negative,j,j,1,0.7981657001655549,521.6519642998464,522.664657499874,522.6479885999579,None,521.6519642998464,None,521.6519642998464,None,521.6519642998464,None,523.4479543298482,None,523.4479543298482,None,523.4479543298482,None,,,,,,,,,,,,,,202,2023-03-27_15h23.20.933,Main,2022.1.1,59.002480479045545,
neutral,positive,1,k,k,,,,,,,,,11,1,199,4,,,,,,,,,main,1,1,1,positive,neutral,k,k,1,0.5485590000171214,523.4511889999267,524.4480462998617,524.4340355999302,None,523.4511889999267,None,523.4511889999267,None,523.4511889999267,None,524.9979137298185,None,524.9979137298185,None,524.9979137298185,None,,,,,,,,,,,,,,202,2023-03-27_15h23.20.933,Main,2022.1.1,59.002480479045545,
positive,positive,1,l,j,,,,,,,,,11,2,200,2,,,,,,,,,main,2,2,1,positive,positive,l,l,1,0.6850573997944593,525.0017477998044,526.0172940997873,526.000657199882,None,525.0017477998044,None,525.0017477998044,None,525.0017477998044,None,526.6840753298718,None,526.6840753298718,None,526.6840753298718,None,,,,,,,,,,,,,,202,2023-03-27_15h23.20.933,Main,2022.1.1,59.002480479045545,
negative,negative,2,j,l,,,,,,,,,11,3,201,9,,,,,,,,,main,2,2,2,negative,negative,j,j,1,0.794896800071001,526.68766029994,527.697896800004,527.6812143998686,None,526.68766029994,None,526.68766029994,None,526.68766029994,None,528.4811956299934,None,528.4811956299934,None,528.4811956299934,None,,,,,,,,,,,,,,202,2023-03-27_15h23.20.933,Main,2022.1.1,59.002480479045545,
positive,negative,1,l,j,,,,,,,,,11,4,202,5,,,,,,,,,main,1,1,1,negative,positive,l,l,1,0.8151909001171589,528.4843397999648,529.4812258998863,529.4812258998863,None,528.4843397999648,None,528.4843397999648,None,528.4843397999648,None,530.297820229968,None,530.297820229968,None,530.297820229968,None,,,,,,,,,,,,,,202,2023-03-27_15h23.20.933,Main,2022.1.1,59.002480479045545,
neutral,negative,2,k,k,,,,,,,,,11,5,203,16,,,,,,,,,main,1,1,2,negative,neutral,k,k,1,0.6316694000270218,530.3031601998955,531.3173691998236,531.3010735998396,None,530.3031601998955,None,530.3031601998955,None,530.3031601998955,None,531.9311085298657,None,531.9311085298657,None,531.9311085298657,None,,,,,,,,,,,,,,202,2023-03-27_15h23.20.933,Main,2022.1.1,59.002480479045545,
neutral,neutral,2,k,k,,,,,,,,,11,6,204,10,,,,,,,,,main,2,2,2,neutral,neutral,k,k,1,1.0660930001176894,531.934270599857,532.9477997999638,532.9311220999807,None,531.934270599857,None,531.934270599857,None,531.934270599857,None,533.9975409300066,None,533.9975409300066,None,533.9975409300066,None,,,,,,,,,,,,,,202,2023-03-27_15h23.20.933,Main,2022.1.1,59.002480479045545,
negative,neutral,2,j,l,,,,,,,,,11,7,205,12,,,,,,,,,main,2,2,2,neutral,negative,j,j,1,1.297506099799648,534.0019419998862,535.0144113998394,535.0005623998586,None,534.0019419998862,None,534.0019419998862,None,534.0019419998862,None,536.2978203298524,None,536.2978203298524,None,536.2978203298524,None,,,,,,,,,,,,,,202,2023-03-27_15h23.20.933,Main,2022.1.1,59.002480479045545,
positive,neutral,2,l,j,,,,,,,,,11,8,206,17,,,,,,,,,main,2,2,2,neutral,positive,l,l,1,1.0985633002128452,536.3032235999126,537.3143646998797,537.3005533998366,None,536.3032235999126,None,536.3032235999126,None,536.3032235999126,None,538.3976545298472,None,538.3976545298472,None,538.3976545298472,None,,,,,,,,,,,,,,202,2023-03-27_15h23.20.933,Main,2022.1.1,59.002480479045545,
neutral,negative,1,k,k,,,,,,,,,11,9,207,7,,,,,,,,,main,2,2,1,negative,neutral,k,k,1,0.5482970001176,538.4010373998899,539.4145143998321,539.4005271999631,None,538.4010373998899,None,538.4010373998899,None,538.4010373998899,None,539.9476179298479,None,539.9476179298479,None,539.9476179298479,None,,,,,,,,,,,,,,202,2023-03-27_15h23.20.933,Main,2022.1.1,59.002480479045545,
negative,positive,2,j,l,,,,,,,,,11,10,208,15,,,,,,,,,main,1,1,2,positive,negative,j,j,1,1.1983433000277728,539.9510024997871,540.9477403999772,540.9477403999772,None,539.9510024997871,None,539.9510024997871,None,539.9510024997871,None,542.1475706300232,None,542.1475706300232,None,542.1475706300232,None,,,,,,,,,,,,,,202,2023-03-27_15h23.20.933,Main,2022.1.1,59.002480479045545,
negative,negative,1,j,l,,,,,,,,,11,11,209,0,,,,,,,,,main,2,2,1,negative,negative,j,j,1,1.7813581000082195,542.1535546998493,543.166958199814,543.1503747999668,None,542.1535546998493,None,542.1535546998493,None,542.1535546998493,None,544.930865299888,None,544.930865299888,None,544.930865299888,None,,,,,,,,,,,,,,202,2023-03-27_15h23.20.933,Main,2022.1.1,59.002480479045545,
positive,positive,2,l,j,,,,,,,,,11,12,210,11,,,,,,,,,main,1,1,2,positive,positive,l,l,1,0.8204666001256555,545.9308478999883,546.9308250998147,546.9141577999108,None,545.9308478999883,None,545.9308478999883,None,545.9308478999883,None,547.7475316298194,None,547.7475316298194,None,547.7475316298194,None,,,,,,,,,,,,,,202,2023-03-27_15h23.20.933,Main,2022.1.1,59.002480479045545,
negative,neutral,1,j,l,,,,,,,,,11,13,211,3,,,,,,,,,main,1,1,1,neutral,negative,j,j,1,1.0811258999165148,547.7513431999832,548.7641548998654,548.7474398999475,None,547.7513431999832,None,547.7513431999832,None,547.7513431999832,None,549.8307394298724,None,549.8307394298724,None,549.8307394298724,None,,,,,,,,,,,,,,202,2023-03-27_15h23.20.933,Main,2022.1.1,59.002480479045545,
positive,neutral,1,l,j,,,,,,,,,11,14,212,8,,,,,,,,,main,2,2,1,neutral,positive,l,l,1,1.0987065001390874,549.8346371999942,550.8474677000195,550.8167562999297,None,549.8346371999942,None,549.8346371999942,None,549.8346371999942,None,551.9308272299356,None,551.9308272299356,None,551.9308272299356,None,,,,,,,,,,,,,,202,2023-03-27_15h23.20.933,Main,2022.1.1,59.002480479045545,
positive,negative,2,l,j,,,,,,,,,11,15,213,14,,,,,,,,,main,2,2,2,negative,positive,l,l,1,0.8812651999760419,551.936542699812,552.947388399858,552.9307091999799,None,551.936542699812,None,551.936542699812,None,551.936542699812,None,553.8139780298341,None,553.8139780298341,None,553.8139780298341,None,,,,,,,,,,,,,,202,2023-03-27_15h23.20.933,Main,2022.1.1,59.002480479045545,
neutral,neutral,1,k,k,,,,,,,,,11,16,214,1,,,,,,,,,main,2,2,1,neutral,neutral,k,k,1,0.7318663999903947,553.8179343999363,554.8306570998393,554.8140478997957,None,553.8179343999363,None,553.8179343999363,None,553.8179343999363,None,555.5473839300219,None,555.5473839300219,None,555.5473839300219,None,,,,,,,,,,,,,,202,2023-03-27_15h23.20.933,Main,2022.1.1,59.002480479045545,
neutral,positive,2,k,k,,,,,,,,,11,17,215,13,,,,,,,,,main,2,2,2,positive,neutral,k,k,1,0.6679762001149356,555.5517531998921,556.564002199797,556.5473168999888,None,555.5517531998921,None,555.5517531998921,None,555.5517531998921,None,557.2167642300017,None,557.2167642300017,None,557.2167642300017,None,,,,,,,,,,,,,,202,2023-03-27_15h23.20.933,Main,2022.1.1,59.002480479045545,
neutral,negative,1,k,k,,,,,,,,,12,0,216,7,,,,,,,,,main,2,2,1,negative,neutral,k,k,1,0.6956305000931025,557.2199562999886,558.2305910999421,558.213963399874,None,557.2199562999886,None,557.2199562999886,None,557.2199562999886,None,558.9139369299635,None,558.9139369299635,None,558.9139369299635,None,,,,,,,,,,,,,,202,2023-03-27_15h23.20.933,Main,2022.1.1,59.002480479045545,
positive,neutral,1,l,j,,,,,,,,,12,1,217,8,,,,,,,,,main,1,1,1,neutral,positive,l,l,1,1.031706100096926,558.9171938998625,559.9305646999273,559.913889599964,None,558.9171938998625,None,558.9171938998625,None,558.9171938998625,None,560.9472018298227,None,560.9472018298227,None,560.9472018298227,None,,,,,,,,,,,,,,202,2023-03-27_15h23.20.933,Main,2022.1.1,59.002480479045545,
negative,positive,1,j,l,,,,,,,,,12,2,218,6,,,,,,,,,main,1,1,1,positive,negative,j,j,1,0.9484065999276936,560.9505377998576,561.9471787998918,561.9471787998918,None,560.9505377998576,None,560.9505377998576,None,560.9505377998576,None,562.897132329829,None,562.897132329829,None,562.897132329829,None,,,,,,,,,,,,,,202,2023-03-27_15h23.20.933,Main,2022.1.1,59.002480479045545,
positive,negative,2,l,j,,,,,,,,,12,3,219,14,,,,,,,,,main,1,1,2,negative,positive,l,l,1,0.9318981000687927,562.9022708998527,563.9138000998646,563.897141699912,None,562.9022708998527,None,562.9022708998527,None,562.9022708998527,None,564.8304188299924,None,564.8304188299924,None,564.8304188299924,None,,,,,,,,,,,,,,202,2023-03-27_15h23.20.933,Main,2022.1.1,59.002480479045545,
negative,neutral,2,j,l,,,,,,,,,12,4,220,12,,,,,,,,,main,2,2,2,neutral,negative,j,j,1,0.9984071999788284,564.8360747999977,565.8499069998506,565.8304549998138,None,564.8360747999977,None,564.8360747999977,None,564.8360747999977,None,566.8304048298858,None,566.8304048298858,None,566.8304048298858,None,,,,,,,,,,,,,,202,2023-03-27_15h23.20.933,Main,2022.1.1,59.002480479045545,
neutral,neutral,1,k,k,,,,,,,,,12,5,221,1,,,,,,,,,main,1,1,1,neutral,neutral,k,k,1,0.9817679000552744,566.83571379981,567.8471005999018,567.8304039000068,None,566.83571379981,None,566.83571379981,None,566.83571379981,None,568.8136696298141,None,568.8136696298141,None,568.8136696298141,None,,,,,,,,,,,,,,202,2023-03-27_15h23.20.933,Main,2022.1.1,59.002480479045545,
positive,neutral,2,l,j,,,,,,,,,12,6,222,17,,,,,,,,,main,2,2,2,neutral,positive,l,l,1,2.0986218999605626,568.8190798999276,569.8303557999898,569.8164266999811,None,568.8190798999276,None,568.8190798999276,None,568.8190798999276,None,571.9136637998745,None,571.9136637998745,None,571.9136637998745,None,,,,,,,,,,,,,,202,2023-03-27_15h23.20.933,Main,2022.1.1,59.002480479045545,
neutral,positive,1,k,k,,,,,,,,,12,7,223,4,,,,,,,,,main,1,1,1,positive,neutral,k,k,1,0.7839540999848396,572.9149664000142,573.9302862000186,573.8969556998927,None,572.9149664000142,None,572.9149664000142,None,572.9149664000142,None,574.6969064299017,None,574.6969064299017,None,574.6969064299017,None,,,,,,,,,,,,,,202,2023-03-27_15h23.20.933,Main,2022.1.1,59.002480479045545,
