target,distractor,set,ans1,ans2,rep_loop2.thisRepN,rep_loop2.thisTrialN,rep_loop2.thisN,rep_loop2.thisIndex,flanker_prac_loop.thisRepN,flanker_prac_loop.thisTrialN,flanker_prac_loop.thisN,flanker_prac_loop.thisIndex,flanker_main_loop.thisRepN,flanker_main_loop.thisTrialN,flanker_main_loop.thisN,flanker_main_loop.thisIndex,fl_inst_resp.keys,fl_inst_resp.rt,sound_1.started,sound_1.stopped,image_4.started,image_4.stopped,back_2.started,back_2.stopped,main_prac,fl_cold,fl_colt,fl_set,fl_dcond,fl_tcond,fl_ans,fl_res,fl_corr,fl_rt,fix_fl.started,fix_fl.stopped,targ.started,targ.stopped,j_button.started,j_button.stopped,k_button.started,k_button.stopped,l_button.started,l_button.stopped,j_button2.started,j_button2.stopped,k_button2.started,k_button2.stopped,l_button2.started,l_button2.stopped,mainback.started,mainback.stopped,key_resp.keys,mouse_6.x,mouse_6.y,mouse_6.leftButton,mouse_6.midButton,mouse_6.rightButton,mouse_6.started,mouse_6.stopped,text_2.started,text_2.stopped,id*,date,expName,psychopyVersion,frameRate,
,,,,,0,0,0,0,,,,,,,,,space,53.44969589984976,19.031567330053075,None,72.51078750006855,None,,,,,,,,,,,,,,,,,,,,,,,,,,,,,,,,,,,,,,,,,203,2023-03-27_17h15.43.672,Main,2022.1.1,59.99350872276989,
negative,negative,1,j,l,,,,,0,0,0,0,,,,,,,,,,,78.34698679996654,None,prac,2,2,1,negative,negative,l,l,1,2.594425299903378,80.35232340008952,81.36088300007395,81.34421330015175,None,80.35232340008952,None,80.35232340008952,None,80.35232340008952,None,83.94709299993701,None,83.94709299993701,None,83.94709299993701,None,,,,,,,,,,,,,203,2023-03-27_17h15.43.672,Main,2022.1.1,59.99350872276989,
positive,neutral,2,l,j,,,,,0,1,1,17,,,,,,,,,,,,,prac,1,1,2,neutral,positive,j,j,1,1.134873199975118,84.94532590010203,85.9608815999236,85.92746670008637,None,84.94532590010203,None,84.94532590010203,None,84.94532590010203,None,87.07747253011912,None,87.07747253011912,None,87.07747253011912,None,,,,,,,,,,,,,203,2023-03-27_17h15.43.672,Main,2022.1.1,59.99350872276989,
negative,positive,2,j,l,,,,,0,2,2,15,,,,,,,,,,,,,prac,2,2,2,positive,negative,l,l,1,0.915203700074926,87.08391460007988,88.09410089999437,88.07741859997623,None,87.08391460007988,None,87.08391460007988,None,87.08391460007988,None,88.99425272997469,None,88.99425272997469,None,88.99425272997469,None,,,,,,,,,,,,,203,2023-03-27_17h15.43.672,Main,2022.1.1,59.99350872276989,
neutral,positive,1,k,k,,,,,0,3,3,4,,,,,,,,,,,,,prac,2,2,1,positive,neutral,k,k,1,1.0312068001367152,89.00030720001087,90.01072410005145,89.99404309992678,None,89.00030720001087,None,89.00030720001087,None,89.00030720001087,None,91.02755443011411,None,91.02755443011411,None,91.02755443011411,None,,,,,,,,,,,,,203,2023-03-27_17h15.43.672,Main,2022.1.1,59.99350872276989,
positive,positive,1,l,j,,,,,0,4,4,2,,,,,,,,,,,,,prac,2,2,1,positive,positive,j,j,1,0.8984290999360383,91.03298280015588,92.04402170004323,92.02749589993618,None,91.03298280015588,None,91.03298280015588,None,91.03298280015588,None,92.9273347300943,None,92.9273347300943,None,92.9273347300943,None,,,,,,,,,,,,,203,2023-03-27_17h15.43.672,Main,2022.1.1,59.99350872276989,
negative,neutral,1,j,l,,,,,0,5,5,3,,,,,,,,,,,,,prac,1,1,1,neutral,negative,l,l,1,0.948802099796012,92.9333731001243,93.94674009992741,93.92732620006427,None,92.9333731001243,None,92.9333731001243,None,92.9333731001243,None,94.87731803003699,None,94.87731803003699,None,94.87731803003699,None,,,,,,,,,,,,,203,2023-03-27_17h15.43.672,Main,2022.1.1,59.99350872276989,
neutral,negative,1,k,k,,,,,0,6,6,7,,,,,,,,,,,,,prac,2,2,1,negative,neutral,k,k,1,0.9316100999712944,94.88252410013229,95.89394180011004,95.88012560014613,None,94.88252410013229,None,94.88252410013229,None,94.88252410013229,None,96.81039083008655,None,96.81039083008655,None,96.81039083008655,None,,,,,,,,,,,,,203,2023-03-27_17h15.43.672,Main,2022.1.1,59.99350872276989,
neutral,positive,2,k,k,,,,,0,7,7,13,,,,,,,,,,,,,prac,1,1,2,positive,neutral,k,k,1,0.782064100028947,96.81703660008498,97.82724649994634,97.79387590009719,None,96.81703660008498,None,96.81703660008498,None,96.81703660008498,None,98.59389663003385,None,98.59389663003385,None,98.59389663003385,None,,,,,,,,,,,,,203,2023-03-27_17h15.43.672,Main,2022.1.1,59.99350872276989,
positive,positive,2,l,j,,,,,0,8,8,11,,,,,,,,,,,,,prac,1,1,2,positive,positive,j,j,1,0.8157005000393838,98.59931620000862,99.61052029998973,99.57730700005777,None,98.59931620000862,None,98.59931620000862,None,98.59931620000862,None,100.41062612999231,None,100.41062612999231,None,100.41062612999231,None,,,,,,,,,,,,,203,2023-03-27_17h15.43.672,Main,2022.1.1,59.99350872276989,
neutral,neutral,1,k,k,,,,,0,9,9,1,,,,,,,,,,,,,prac,2,2,1,neutral,neutral,k,k,1,1.2160921997856349,100.41604049992748,101.42718790005893,101.41051380010322,None,100.41604049992748,None,100.41604049992748,None,100.41604049992748,None,102.62715473007411,None,102.62715473007411,None,102.62715473007411,None,,,,,,,,,,,,,203,2023-03-27_17h15.43.672,Main,2022.1.1,59.99350872276989,
positive,negative,2,l,j,,,,,0,10,10,14,,,,,,,,,,,,,prac,2,2,2,negative,positive,j,j,1,0.8811464998871088,102.63316420000046,103.64380370010622,103.62710650009103,None,102.63316420000046,None,102.63316420000046,None,102.63316420000046,None,104.51055773003027,None,104.51055773003027,None,104.51055773003027,None,,,,,,,,,,,,,203,2023-03-27_17h15.43.672,Main,2022.1.1,59.99350872276989,
negative,neutral,2,j,l,,,,,0,11,11,12,,,,,,,,,,,,,prac,1,1,2,neutral,negative,l,l,1,0.9319267000537366,104.51344459992833,105.52984400000423,105.5104008000344,None,104.51344459992833,None,104.51344459992833,None,104.51344459992833,None,106.44378602998331,None,106.44378602998331,None,106.44378602998331,None,,,,,,,,,,,,,203,2023-03-27_17h15.43.672,Main,2022.1.1,59.99350872276989,
positive,neutral,1,l,j,,,,,0,12,12,8,,,,,,,,,,,,,prac,1,1,1,neutral,positive,j,j,1,0.8653556001372635,106.44907450000755,107.4604144000914,107.4437992000021,None,106.44907450000755,None,106.44907450000755,None,106.44907450000755,None,108.31056473013014,None,108.31056473013014,None,108.31056473013014,None,,,,,,,,,,,,,203,2023-03-27_17h15.43.672,Main,2022.1.1,59.99350872276989,
neutral,negative,2,k,k,,,,,0,13,13,16,,,,,,,,,,,,,prac,1,1,2,negative,neutral,k,k,1,0.9339921998325735,108.3165333000943,109.32975929998793,109.31038219993934,None,108.3165333000943,None,108.3165333000943,None,108.3165333000943,None,110.24659893014469,None,110.24659893014469,None,110.24659893014469,None,,,,,,,,,,,,,203,2023-03-27_17h15.43.672,Main,2022.1.1,59.99350872276989,
negative,positive,1,j,l,,,,,0,14,14,6,,,,,,,,,,,,,prac,1,1,1,positive,negative,l,l,1,0.9290692000649869,110.25113980006427,111.26032380014658,111.24366419995204,None,110.25113980006427,None,110.25113980006427,None,110.25113980006427,None,112.17707192995586,None,112.17707192995586,None,112.17707192995586,None,,,,,,,,,,,,,203,2023-03-27_17h15.43.672,Main,2022.1.1,59.99350872276989,
neutral,neutral,2,k,k,,,,,0,15,15,10,,,,,,,,,,,,,prac,2,2,2,neutral,neutral,k,k,1,0.9152956001926214,112.18258309992962,113.19370940001681,113.17704059998505,None,112.18258309992962,None,112.18258309992962,None,112.18258309992962,None,114.09361793012359,None,114.09361793012359,None,114.09361793012359,None,,,,,,,,,,,,,203,2023-03-27_17h15.43.672,Main,2022.1.1,59.99350872276989,
negative,negative,2,j,l,,,,,0,16,16,9,,,,,,,,,,,,,prac,1,1,2,negative,negative,l,l,1,0.9494311998132616,114.09662270010449,115.11026760004461,115.09358999994583,None,114.09662270010449,None,114.09662270010449,None,114.09662270010449,None,116.04447802999057,None,116.04447802999057,None,116.04447802999057,None,,,,,,,,,,,,,203,2023-03-27_17h15.43.672,Main,2022.1.1,59.99350872276989,
positive,negative,1,l,j,,,,,0,17,17,5,,,,,,,,,,,,,prac,2,2,1,negative,positive,j,j,1,0.8482033000327647,116.05065510002896,117.06020419998094,117.04355770000257,None,116.05065510002896,None,116.05065510002896,None,116.05065510002896,None,117.89361493014731,None,117.89361493014731,None,117.89361493014731,None,,,,,,,,,,,,,203,2023-03-27_17h15.43.672,Main,2022.1.1,59.99350872276989,
positive,neutral,1,l,j,,,,,1,0,18,8,,,,,,,,,,,,,prac,1,1,1,neutral,positive,j,j,1,0.7482056999579072,117.89897490013391,118.91290360013954,118.87686039996333,None,117.89897490013391,None,117.89897490013391,None,117.89897490013391,None,119.64349763006904,None,119.64349763006904,None,119.64349763006904,None,,,,,,,,,,,,,203,2023-03-27_17h15.43.672,Main,2022.1.1,59.99350872276989,
negative,positive,1,j,l,,,,,1,1,19,6,,,,,,,,,,,,,prac,2,2,1,positive,negative,l,l,1,0.832222199998796,119.64628230012022,120.66015899996273,120.62680199998431,None,119.64628230012022,None,119.64628230012022,None,119.64628230012022,None,121.47680682996288,None,121.47680682996288,None,121.47680682996288,None,,,,,,,,,,,,,203,2023-03-27_17h15.43.672,Main,2022.1.1,59.99350872276989,
negative,neutral,1,j,l,,,,,1,2,20,3,,,,,,,,,,,,,prac,2,2,1,neutral,negative,l,l,1,0.7824595000129193,121.48025050014257,122.49351050006226,122.47677810001187,None,121.48025050014257,None,121.48025050014257,None,121.48025050014257,None,123.26061523011886,None,123.26061523011886,None,123.26061523011886,None,,,,,,,,,,,,,203,2023-03-27_17h15.43.672,Main,2022.1.1,59.99350872276989,
positive,neutral,2,l,j,,,,,1,3,21,17,,,,,,,,,,,,,prac,1,1,2,neutral,positive,j,j,1,0.7813174000475556,123.26730490010232,124.27674220013432,124.26016400009394,None,123.26730490010232,None,123.26730490010232,None,123.26730490010232,None,125.04363763011061,None,125.04363763011061,None,125.04363763011061,None,,,,,,,,,,,,,203,2023-03-27_17h15.43.672,Main,2022.1.1,59.99350872276989,
negative,negative,2,j,l,,,,,1,4,22,9,,,,,,,,,,,,,prac,1,1,2,negative,negative,l,l,1,0.8492904000449926,125.04885450005531,126.06005440000445,126.04340080008842,None,125.04885450005531,None,125.04885450005531,None,125.04885450005531,None,126.89417883013375,None,126.89417883013375,None,126.89417883013375,None,,,,,,,,,,,,,203,2023-03-27_17h15.43.672,Main,2022.1.1,59.99350872276989,
negative,positive,2,j,l,,,,,1,5,23,15,,,,,,,,,,,,,prac,2,2,2,positive,negative,l,l,1,0.8478568000718951,126.90095239994116,127.9100313000381,127.89335420005955,None,126.90095239994116,None,126.90095239994116,None,126.90095239994116,None,128.74331993008963,None,128.74331993008963,None,128.74331993008963,None,,,,,,,,,,,,,203,2023-03-27_17h15.43.672,Main,2022.1.1,59.99350872276989,
positive,negative,1,l,j,,,,,1,6,24,5,,,,,,,,,,,,,prac,1,1,1,negative,positive,j,j,1,0.8519452000036836,128.74677510000765,129.74328180006705,129.74328180006705,None,128.74677510000765,None,128.74677510000765,None,128.74677510000765,None,130.59607803011312,None,130.59607803011312,None,130.59607803011312,None,,,,,,,,,,,,,203,2023-03-27_17h15.43.672,Main,2022.1.1,59.99350872276989,
neutral,neutral,2,k,k,,,,,1,7,25,10,,,,,,,,,,,,,prac,1,1,2,neutral,neutral,k,k,1,0.7293615001253784,130.59959889994934,131.60991120012477,131.59324269997887,None,130.59959889994934,None,130.59959889994934,None,130.59959889994934,None,132.32661262997425,None,132.32661262997425,None,132.32661262997425,None,,,,,,,,,,,,,203,2023-03-27_17h15.43.672,Main,2022.1.1,59.99350872276989,
neutral,positive,2,k,k,,,,,1,8,26,13,,,,,,,,,,,,,prac,1,1,2,positive,neutral,k,k,1,0.6644858999643475,132.3305149001535,133.3432517000474,133.3265768000856,None,132.3305149001535,None,132.3305149001535,None,132.3305149001535,None,133.9934170300141,None,133.9934170300141,None,133.9934170300141,None,,,,,,,,,,,,,203,2023-03-27_17h15.43.672,Main,2022.1.1,59.99350872276989,
neutral,negative,2,k,k,,,,,1,9,27,16,,,,,,,,,,,,,prac,2,2,2,negative,neutral,k,k,1,0.7485788001213223,133.99616120010614,135.0127590999473,134.97655130014755,None,133.99616120010614,None,133.99616120010614,None,133.99616120010614,None,135.7432930300012,None,135.7432930300012,None,135.7432930300012,None,,,,,,,,,,,,,203,2023-03-27_17h15.43.672,Main,2022.1.1,59.99350872276989,
negative,negative,1,j,l,,,,,1,10,28,0,,,,,,,,,,,,,prac,2,2,1,negative,negative,l,l,1,0.7320806998759508,135.74712980003096,136.7598169001285,136.74315649992786,None,135.74712980003096,None,135.74712980003096,None,135.74712980003096,None,137.47661433001048,None,137.47661433001048,None,137.47661433001048,None,,,,,,,,,,,,,203,2023-03-27_17h15.43.672,Main,2022.1.1,59.99350872276989,
negative,neutral,2,j,l,,,,,1,11,29,12,,,,,,,,,,,,,prac,2,2,2,neutral,negative,l,l,1,0.7986777999904007,137.49325080006383,138.49315150012262,138.47648510010913,None,137.49325080006383,None,137.49325080006383,None,137.49325080006383,None,139.2764931300655,None,139.2764931300655,None,139.2764931300655,None,,,,,,,,,,,,,203,2023-03-27_17h15.43.672,Main,2022.1.1,59.99350872276989,
positive,positive,2,l,j,,,,,1,12,30,11,,,,,,,,,,,,,prac,1,1,2,positive,positive,j,j,1,0.7487125999759883,139.27993450011127,140.29311840003356,140.2764417999424,None,139.27993450011127,None,139.27993450011127,None,139.27993450011127,None,141.02663192995823,None,141.02663192995823,None,141.02663192995823,None,,,,,,,,,,,,,203,2023-03-27_17h15.43.672,Main,2022.1.1,59.99350872276989,
positive,negative,2,l,j,,,,,1,13,31,14,,,,,,,,,,,,,prac,2,2,2,negative,positive,j,j,1,0.6826470999512821,141.02981139998883,142.04307359992526,142.02639900008217,None,141.02981139998883,None,141.02981139998883,None,141.02981139998883,None,142.70972173013723,None,142.70972173013723,None,142.70972173013723,None,,,,,,,,,,,,,203,2023-03-27_17h15.43.672,Main,2022.1.1,59.99350872276989,
neutral,neutral,1,k,k,,,,,1,14,32,1,,,,,,,,,,,,,prac,1,1,1,neutral,neutral,k,k,1,0.6975807000417262,142.71365460008383,143.72636830015108,143.70976729993708,None,142.71365460008383,None,142.71365460008383,None,142.71365460008383,None,144.40969613012857,None,144.40969613012857,None,144.40969613012857,None,,,,,,,,,,,,,203,2023-03-27_17h15.43.672,Main,2022.1.1,59.99350872276989,
neutral,positive,1,k,k,,,,,1,15,33,4,,,,,,,,,,,,,prac,2,2,1,positive,neutral,k,k,1,0.6158790001645684,144.41362860007212,145.42640310013667,145.40966070001014,None,144.41362860007212,None,144.41362860007212,None,144.41362860007212,None,146.02636513002216,None,146.02636513002216,None,146.02636513002216,None,,,,,,,,,,,,,203,2023-03-27_17h15.43.672,Main,2022.1.1,59.99350872276989,
neutral,negative,1,k,k,,,,,1,16,34,7,,,,,,,,,,,,,prac,1,1,1,negative,neutral,k,k,1,0.6649511000141501,146.03009949997067,147.04305640002713,147.02632710011676,None,146.03009949997067,None,146.03009949997067,None,146.03009949997067,None,147.69295722995884,None,147.69295722995884,None,147.69295722995884,None,,,,,,,,,,,,,203,2023-03-27_17h15.43.672,Main,2022.1.1,59.99350872276989,
positive,positive,1,l,j,,,,,1,17,35,2,,,,,,,,,,,,,prac,1,1,1,positive,positive,j,j,1,0.7650702998507768,147.6963068000041,148.70959950005636,148.69293270003982,None,147.6963068000041,None,147.6963068000041,None,147.6963068000041,None,149.45949842995032,None,149.45949842995032,None,149.45949842995032,None,,,,,,,,,,,,,203,2023-03-27_17h15.43.672,Main,2022.1.1,59.99350872276989,
,,,,,,,,,,,,,,,,,,,,,,,,,,,,,,,,,,,,,,,,,,,,,,,,,,,149.45959670003504,None,None,,,,,,,,,,203,2023-03-27_17h15.43.672,Main,2022.1.1,59.99350872276989,
,,,,,,,,,,,,,,,,,,,,,,,,,,,,,,,,,,,,,,,,,,,,,,,,,,,,,,0.62685186,-0.05740741,1,0,0,0.011068129679188132,None,,,203,2023-03-27_17h15.43.672,Main,2022.1.1,59.99350872276989,
negative,positive,1,j,l,,,,,,,,,0,0,0,6,,,,,,,158.74271299992688,None,main,1,1,1,positive,negative,l,l,1,0.9642961001954973,160.74978730012663,161.75933340005577,161.74273749999702,None,160.74978730012663,None,160.74978730012663,None,160.74978730012663,None,162.71214452995918,None,162.71214452995918,None,162.71214452995918,None,,,,,,,,,,,,,203,2023-03-27_17h15.43.672,Main,2022.1.1,59.99350872276989,
neutral,neutral,1,k,k,,,,,,,,,0,1,1,1,,,,,,,,,main,1,1,1,neutral,neutral,k,k,1,0.7442248999141157,162.7163494999986,163.72598049999215,163.70928650000133,None,162.7163494999986,None,162.7163494999986,None,162.7163494999986,None,164.4593360301107,None,164.4593360301107,None,164.4593360301107,None,,,,,,,,,,,,,203,2023-03-27_17h15.43.672,Main,2022.1.1,59.99350872276989,
positive,negative,2,l,j,,,,,,,,,0,2,2,14,,,,,,,,,main,2,2,2,negative,positive,j,j,1,0.6984928001184016,164.4649597001262,165.4760519999545,165.45929279993288,None,164.4649597001262,None,164.4649597001262,None,164.4649597001262,None,166.15947222993708,None,166.15947222993708,None,166.15947222993708,None,,,,,,,,,,,,,203,2023-03-27_17h15.43.672,Main,2022.1.1,59.99350872276989,
negative,negative,2,j,l,,,,,,,,,0,3,3,9,,,,,,,,,main,2,2,2,negative,negative,l,l,1,0.7476778000127524,166.1759316001553,167.17592920013703,167.16206820006482,None,166.1759316001553,None,166.1759316001553,None,166.1759316001553,None,167.9092636299785,None,167.9092636299785,None,167.9092636299785,None,,,,,,,,,,,,,203,2023-03-27_17h15.43.672,Main,2022.1.1,59.99350872276989,
positive,negative,1,l,j,,,,,,,,,0,4,4,5,,,,,,,,,main,1,1,1,negative,positive,j,j,1,0.6653687998186797,167.91285130009055,168.92867469997145,168.90920580015518,None,167.91285130009055,None,167.91285130009055,None,167.91285130009055,None,169.57591503001748,None,169.57591503001748,None,169.57591503001748,None,,,,,,,,,,,,,203,2023-03-27_17h15.43.672,Main,2022.1.1,59.99350872276989,
neutral,negative,2,k,k,,,,,,,,,0,5,5,16,,,,,,,,,main,2,2,2,negative,neutral,k,k,1,0.7143594999797642,169.57984180003405,170.59253500006162,170.57588510005735,None,169.57984180003405,None,169.57984180003405,None,169.57984180003405,None,171.2925154299475,None,171.2925154299475,None,171.2925154299475,None,,,,,,,,,,,,,203,2023-03-27_17h15.43.672,Main,2022.1.1,59.99350872276989,
positive,neutral,1,l,j,,,,,,,,,0,6,6,8,,,,,,,,,main,2,2,1,neutral,positive,j,j,1,0.765326299937442,171.29803630011156,172.30918939993717,172.29250710015185,None,171.29803630011156,None,171.29803630011156,None,171.29803630011156,None,173.0594662300311,None,173.0594662300311,None,173.0594662300311,None,,,,,,,,,,,,,203,2023-03-27_17h15.43.672,Main,2022.1.1,59.99350872276989,
neutral,positive,2,k,k,,,,,,,,,0,7,7,13,,,,,,,,,main,2,2,2,positive,neutral,k,k,1,0.6648135001305491,173.0758043001406,174.07580590015277,174.05922099994496,None,173.0758043001406,None,173.0758043001406,None,173.0758043001406,None,174.72588063012807,None,174.72588063012807,None,174.72588063012807,None,,,,,,,,,,,,,203,2023-03-27_17h15.43.672,Main,2022.1.1,59.99350872276989,
positive,positive,2,l,j,,,,,,,,,0,8,8,11,,,,,,,,,main,2,2,2,positive,positive,j,j,1,0.6482915000524372,174.72931700013578,175.74241530010477,175.7257387000136,None,174.72931700013578,None,174.72931700013578,None,174.72931700013578,None,176.37579103005118,None,176.37579103005118,None,176.37579103005118,None,,,,,,,,,,,,,203,2023-03-27_17h15.43.672,Main,2022.1.1,59.99350872276989,
negative,neutral,1,j,l,,,,,,,,,0,9,9,3,,,,,,,,,main,1,1,1,neutral,negative,l,l,1,0.6816316999029368,176.37892009993084,177.39241209998727,177.37851670011878,None,176.37892009993084,None,176.37892009993084,None,176.37892009993084,None,178.05899962997063,None,178.05899962997063,None,178.05899962997063,None,,,,,,,,,,,,,203,2023-03-27_17h15.43.672,Main,2022.1.1,59.99350872276989,
negative,negative,1,j,l,,,,,,,,,0,10,10,0,,,,,,,,,main,2,2,1,negative,negative,l,l,1,0.881842799950391,178.06595110008493,179.0758162001148,179.06182490009815,None,178.06595110008493,None,178.06595110008493,None,178.06595110008493,None,179.9423850300256,None,179.9423850300256,None,179.9423850300256,None,,,,,,,,,,,,,203,2023-03-27_17h15.43.672,Main,2022.1.1,59.99350872276989,
positive,neutral,2,l,j,,,,,,,,,0,11,11,17,,,,,,,,,main,2,2,2,neutral,positive,j,j,1,0.7048382998909801,179.94586839992553,180.9423493000213,180.9423493000213,None,179.94586839992553,None,179.94586839992553,None,179.94586839992553,None,181.64877193006686,None,181.64877193006686,None,181.64877193006686,None,,,,,,,,,,,,,203,2023-03-27_17h15.43.672,Main,2022.1.1,59.99350872276989,
neutral,neutral,2,k,k,,,,,,,,,0,12,12,10,,,,,,,,,main,1,1,2,neutral,neutral,k,k,1,0.6613890998996794,181.65202770009637,182.66165279992856,182.6423122000415,None,181.65202770009637,None,181.65202770009637,None,181.65202770009637,None,183.31185223003848,None,183.31185223003848,None,183.31185223003848,None,,,,,,,,,,,,,203,2023-03-27_17h15.43.672,Main,2022.1.1,59.99350872276989,
negative,neutral,2,j,l,,,,,,,,,0,13,13,12,,,,,,,,,main,2,2,2,neutral,negative,l,l,1,0.7955976999364793,183.31567610008642,184.3256133000832,184.30893769999966,None,183.31567610008642,None,183.31567610008642,None,183.31567610008642,None,185.1089168300852,None,185.1089168300852,None,185.1089168300852,None,,,,,,,,,,,,,203,2023-03-27_17h15.43.672,Main,2022.1.1,59.99350872276989,
neutral,negative,1,k,k,,,,,,,,,0,14,14,7,,,,,,,,,main,2,2,1,negative,neutral,k,k,1,0.6650119998957962,185.1122413999401,186.10889329994097,186.10889329994097,None,185.1122413999401,None,185.1122413999401,None,185.1122413999401,None,186.77555153011343,None,186.77555153011343,None,186.77555153011343,None,,,,,,,,,,,,,203,2023-03-27_17h15.43.672,Main,2022.1.1,59.99350872276989,
positive,positive,1,l,j,,,,,,,,,0,15,15,2,,,,,,,,,main,1,1,1,positive,positive,j,j,1,0.631681099999696,186.77954230015166,187.7921861000359,187.76174989994615,None,186.77954230015166,None,186.77954230015166,None,186.77954230015166,None,188.4088637300767,None,188.4088637300767,None,188.4088637300767,None,,,,,,,,,,,,,203,2023-03-27_17h15.43.672,Main,2022.1.1,59.99350872276989,
neutral,positive,1,k,k,,,,,,,,,0,16,16,4,,,,,,,,,main,2,2,1,positive,neutral,k,k,1,1.215350499842316,188.41224170010537,189.4255125001073,189.40883280010894,None,188.41224170010537,None,188.41224170010537,None,188.41224170010537,None,190.62559133004396,None,190.62559133004396,None,190.62559133004396,None,,,,,,,,,,,,,203,2023-03-27_17h15.43.672,Main,2022.1.1,59.99350872276989,
negative,positive,2,j,l,,,,,,,,,0,17,17,15,,,,,,,,,main,1,1,2,positive,negative,l,l,1,0.9316644999198616,190.62920600012876,191.62557010003366,191.62557010003366,None,190.62920600012876,None,190.62920600012876,None,190.62920600012876,None,192.55876643005757,None,192.55876643005757,None,192.55876643005757,None,,,,,,,,,,,,,203,2023-03-27_17h15.43.672,Main,2022.1.1,59.99350872276989,
positive,negative,1,l,j,,,,,,,,,1,0,18,5,,,,,,,,,main,2,2,1,negative,positive,j,j,1,0.715009099803865,192.5624025000725,193.55894339992665,193.55894339992665,None,192.5624025000725,None,192.5624025000725,None,192.5624025000725,None,194.27546483003533,None,194.27546483003533,None,194.27546483003533,None,,,,,,,,,,,,,203,2023-03-27_17h15.43.672,Main,2022.1.1,59.99350872276989,
positive,positive,1,l,j,,,,,,,,,1,1,19,2,,,,,,,,,main,1,1,1,positive,positive,j,j,1,0.7161571998149157,194.27885979996063,195.29484620015137,195.2753936999943,None,194.27885979996063,None,194.27885979996063,None,194.27885979996063,None,195.9920411301311,None,195.9920411301311,None,195.9920411301311,None,,,,,,,,,,,,,203,2023-03-27_17h15.43.672,Main,2022.1.1,59.99350872276989,
negative,neutral,2,j,l,,,,,,,,,1,2,20,12,,,,,,,,,main,1,1,2,neutral,negative,l,l,1,0.8474450998473912,195.99643880012445,197.0114565999247,196.9920302000828,None,195.99643880012445,None,195.99643880012445,None,195.99643880012445,None,197.84213493000715,None,197.84213493000715,None,197.84213493000715,None,,,,,,,,,,,,,203,2023-03-27_17h15.43.672,Main,2022.1.1,59.99350872276989,
neutral,positive,2,k,k,,,,,,,,,1,3,21,13,,,,,,,,,main,2,2,2,positive,neutral,k,k,1,0.648219499969855,197.84589210012928,198.86133620003238,198.84198030014522,None,197.84589210012928,None,197.84589210012928,None,197.84589210012928,None,199.49197802999987,None,199.49197802999987,None,199.49197802999987,None,,,,,,,,,,,,,203,2023-03-27_17h15.43.672,Main,2022.1.1,59.99350872276989,
neutral,neutral,1,k,k,,,,,,,,,1,4,22,1,,,,,,,,,main,1,1,1,neutral,neutral,k,k,1,0.681457299971953,199.49524449999444,200.49197820015252,200.49197820015252,None,199.49524449999444,None,199.49524449999444,None,199.49524449999444,None,201.1752863300964,None,201.1752863300964,None,201.1752863300964,None,,,,,,,,,,,,,203,2023-03-27_17h15.43.672,Main,2022.1.1,59.99350872276989,
positive,positive,2,l,j,,,,,,,,,1,5,23,11,,,,,,,,,main,2,2,2,positive,positive,j,j,1,0.664791899966076,201.17971720010974,202.19193610013463,202.17810040013865,None,201.17971720010974,None,201.17971720010974,None,201.17971720010974,None,202.84193563000298,None,202.84193563000298,None,202.84193563000298,None,,,,,,,,,,,,,203,2023-03-27_17h15.43.672,Main,2022.1.1,59.99350872276989,
positive,neutral,1,l,j,,,,,,,,,1,6,24,8,,,,,,,,,main,1,1,1,neutral,positive,j,j,1,0.7314128000289202,202.84570820000954,203.85854259994812,203.8418686001096,None,202.84570820000954,None,202.84570820000954,None,202.84570820000954,None,204.57526233005336,None,204.57526233005336,None,204.57526233005336,None,,,,,,,,,,,,,203,2023-03-27_17h15.43.672,Main,2022.1.1,59.99350872276989,
negative,negative,1,j,l,,,,,,,,,1,7,25,0,,,,,,,,,main,1,1,1,negative,negative,l,l,1,0.7152825000230223,204.57842499995604,205.57521170005202,205.57521170005202,None,204.57842499995604,None,204.57842499995604,None,204.57842499995604,None,206.29195632999762,None,206.29195632999762,None,206.29195632999762,None,,,,,,,,,,,,,203,2023-03-27_17h15.43.672,Main,2022.1.1,59.99350872276989,
negative,positive,2,j,l,,,,,,,,,1,8,26,15,,,,,,,,,main,2,2,2,positive,negative,l,l,1,0.8649079001042992,206.2953703000676,207.31140260002576,207.2918273000978,None,206.2953703000676,None,206.2953703000676,None,206.2953703000676,None,208.15848733000456,None,208.15848733000456,None,208.15848733000456,None,,,,,,,,,,,,,203,2023-03-27_17h15.43.672,Main,2022.1.1,59.99350872276989,
negative,positive,1,j,l,,,,,,,,,1,9,27,6,,,,,,,,,main,2,2,1,positive,negative,l,l,1,0.7483532000333071,208.16220579994842,209.17516819993034,209.15848380001262,None,208.16220579994842,None,208.16220579994842,None,208.16220579994842,None,209.90845532999373,None,209.90845532999373,None,209.90845532999373,None,,,,,,,,,,,,,203,2023-03-27_17h15.43.672,Main,2022.1.1,59.99350872276989,
negative,neutral,1,j,l,,,,,,,,,1,10,28,3,,,,,,,,,main,2,2,1,neutral,negative,l,l,1,0.6982227999251336,209.91210429999046,210.9111033999361,210.9111033999361,None,209.91210429999046,None,209.91210429999046,None,209.91210429999046,None,211.60844182996078,None,211.60844182996078,None,211.60844182996078,None,,,,,,,,,,,,,203,2023-03-27_17h15.43.672,Main,2022.1.1,59.99350872276989,
neutral,negative,2,k,k,,,,,,,,,1,11,29,16,,,,,,,,,main,1,1,2,negative,neutral,k,k,1,0.6983634000644088,211.61187359993346,212.62507540010847,212.60842070006765,None,211.61187359993346,None,211.61187359993346,None,211.61187359993346,None,213.30845093009992,None,213.30845093009992,None,213.30845093009992,None,,,,,,,,,,,,,203,2023-03-27_17h15.43.672,Main,2022.1.1,59.99350872276989,
neutral,negative,1,k,k,,,,,,,,,1,12,30,7,,,,,,,,,main,1,1,1,negative,neutral,k,k,1,0.6316444000694901,213.31204940006137,214.32503339997493,214.31116360006854,None,213.31204940006137,None,213.31204940006137,None,213.31204940006137,None,214.9416945300065,None,214.9416945300065,None,214.9416945300065,None,,,,,,,,,,,,,203,2023-03-27_17h15.43.672,Main,2022.1.1,59.99350872276989,
positive,negative,2,l,j,,,,,,,,,1,13,31,14,,,,,,,,,main,1,1,2,negative,positive,j,j,1,0.6983344000764191,214.9448446999304,215.95831210003234,215.9444580001291,None,214.9448446999304,None,214.9448446999304,None,214.9448446999304,None,216.64165853015146,None,216.64165853015146,None,216.64165853015146,None,,,,,,,,,,,,,203,2023-03-27_17h15.43.672,Main,2022.1.1,59.99350872276989,
negative,negative,2,j,l,,,,,,,,,1,14,32,9,,,,,,,,,main,2,2,2,negative,negative,l,l,1,0.6985925000626594,216.64495260012336,217.64441130007617,217.64441130007617,None,216.64495260012336,None,216.64495260012336,None,216.64495260012336,None,218.34166173012926,None,218.34166173012926,None,218.34166173012926,None,,,,,,,,,,,,,203,2023-03-27_17h15.43.672,Main,2022.1.1,59.99350872276989,
neutral,positive,1,k,k,,,,,,,,,1,15,33,4,,,,,,,,,main,2,2,1,positive,neutral,k,k,1,0.6482601999305189,218.34552889992483,219.35828970000148,219.3416127001401,None,218.34552889992483,None,218.34552889992483,None,218.34552889992483,None,219.99158563003874,None,219.99158563003874,None,219.99158563003874,None,,,,,,,,,,,,,203,2023-03-27_17h15.43.672,Main,2022.1.1,59.99350872276989,
neutral,neutral,2,k,k,,,,,,,,,1,16,34,10,,,,,,,,,main,1,1,2,neutral,neutral,k,k,1,0.6816495999228209,219.99509400012903,220.99164999998175,220.99164999998175,None,219.99509400012903,None,219.99509400012903,None,219.99509400012903,None,221.67490843012928,None,221.67490843012928,None,221.67490843012928,None,,,,,,,,,,,,,203,2023-03-27_17h15.43.672,Main,2022.1.1,59.99350872276989,
positive,neutral,2,l,j,,,,,,,,,1,17,35,17,,,,,,,,,main,2,2,2,neutral,positive,j,j,1,0.7323199000675231,221.67833729996346,222.67487920005806,222.67487920005806,None,221.67833729996346,None,221.67833729996346,None,221.67833729996346,None,223.40882902992888,None,223.40882902992888,None,223.40882902992888,None,,,,,,,,,,,,,203,2023-03-27_17h15.43.672,Main,2022.1.1,59.99350872276989,
positive,negative,2,l,j,,,,,,,,,2,0,36,14,,,,,,,,,main,2,2,2,negative,positive,j,j,1,0.6808889999520034,223.42756989994086,224.44151060003787,224.40819340012968,None,223.42756989994086,None,223.42756989994086,None,223.42756989994086,None,225.09147913013584,None,225.09147913013584,None,225.09147913013584,None,,,,,,,,,,,,,203,2023-03-27_17h15.43.672,Main,2022.1.1,59.99350872276989,
neutral,neutral,1,k,k,,,,,,,,,2,1,37,1,,,,,,,,,main,1,1,1,neutral,neutral,k,k,1,0.6651806000154465,225.09540680004284,226.10812320001423,226.09146889997646,None,225.09540680004284,None,225.09540680004284,None,225.09540680004284,None,226.7581822299864,None,226.7581822299864,None,226.7581822299864,None,,,,,,,,,,,,,203,2023-03-27_17h15.43.672,Main,2022.1.1,59.99350872276989,
neutral,positive,1,k,k,,,,,,,,,2,2,38,4,,,,,,,,,main,1,1,1,positive,neutral,k,k,1,0.5509877000004053,226.761530400021,227.77478560013697,227.75823769997805,None,226.761530400021,None,226.761530400021,None,226.761530400021,None,228.3109953301493,None,228.3109953301493,None,228.3109953301493,None,,,,,,,,,,,,,203,2023-03-27_17h15.43.672,Main,2022.1.1,59.99350872276989,
neutral,negative,1,k,k,,,,,,,,,2,3,39,7,,,,,,,,,main,1,1,1,negative,neutral,k,k,1,0.6115409000776708,228.31472410005517,229.32472830009647,229.30820680013858,None,228.31472410005517,None,228.31472410005517,None,228.31472410005517,None,229.92472453000954,None,229.92472453000954,None,229.92472453000954,None,,,,,,,,,,,,,203,2023-03-27_17h15.43.672,Main,2022.1.1,59.99350872276989,
negative,negative,1,j,l,,,,,,,,,2,4,40,0,,,,,,,,,main,2,2,1,negative,negative,l,l,1,0.7485811000224203,229.93113419995643,230.94139029993676,230.9247195001226,None,229.93113419995643,None,229.93113419995643,None,229.93113419995643,None,231.67473282995633,None,231.67473282995633,None,231.67473282995633,None,,,,,,,,,,,,,203,2023-03-27_17h15.43.672,Main,2022.1.1,59.99350872276989,
neutral,negative,2,k,k,,,,,,,,,2,5,41,16,,,,,,,,,main,2,2,2,negative,neutral,k,k,1,0.8816313000861555,231.67826620000415,232.69135630014353,232.67475660005584,None,231.67826620000415,None,231.67826620000415,None,231.67826620000415,None,233.55798762994817,None,233.55798762994817,None,233.55798762994817,None,,,,,,,,,,,,,203,2023-03-27_17h15.43.672,Main,2022.1.1,59.99350872276989,
negative,neutral,1,j,l,,,,,,,,,2,6,42,3,,,,,,,,,main,2,2,1,neutral,negative,l,l,1,0.7151213001925498,233.56129089999013,234.57741679996252,234.55800010007806,None,233.56129089999013,None,233.56129089999013,None,233.56129089999013,None,235.27464443007483,None,235.27464443007483,None,235.27464443007483,None,,,,,,,,,,,,,203,2023-03-27_17h15.43.672,Main,2022.1.1,59.99350872276989,
negative,negative,2,j,l,,,,,,,,,2,7,43,9,,,,,,,,,main,1,1,2,negative,negative,l,l,1,0.6819573000539094,235.27781610004604,236.29129100008868,236.27460579993203,None,235.27781610004604,None,235.27781610004604,None,235.27781610004604,None,236.95808263011276,None,236.95808263011276,None,236.95808263011276,None,,,,,,,,,,,,,203,2023-03-27_17h15.43.672,Main,2022.1.1,59.99350872276989,
positive,neutral,2,l,j,,,,,,,,,2,8,44,17,,,,,,,,,main,2,2,2,neutral,positive,j,j,1,0.765822899993509,236.96280160010792,237.97459040000103,237.95802440005355,None,236.96280160010792,None,236.96280160010792,None,236.96280160010792,None,238.7246008299291,None,238.7246008299291,None,238.7246008299291,None,,,,,,,,,,,,,203,2023-03-27_17h15.43.672,Main,2022.1.1,59.99350872276989,
neutral,positive,2,k,k,,,,,,,,,2,9,45,13,,,,,,,,,main,2,2,2,positive,neutral,k,k,1,0.7974855001084507,238.72878390015103,239.7413566999603,239.72744100005366,None,238.72878390015103,None,238.72878390015103,None,238.72878390015103,None,240.52456442993133,None,240.52456442993133,None,240.52456442993133,None,,,,,,,,,,,,,203,2023-03-27_17h15.43.672,Main,2022.1.1,59.99350872276989,
positive,positive,1,l,j,,,,,,,,,2,10,46,2,,,,,,,,,main,1,1,1,positive,positive,j,j,1,0.6662159999832511,240.52818970009685,241.5411938999314,241.5245344999712,None,240.52818970009685,None,240.52818970009685,None,240.52818970009685,None,242.19116213014348,None,242.19116213014348,None,242.19116213014348,None,,,,,,,,,,,,,203,2023-03-27_17h15.43.672,Main,2022.1.1,59.99350872276989,
negative,positive,2,j,l,,,,,,,,,2,11,47,15,,,,,,,,,main,1,1,2,positive,negative,l,l,1,0.663773600012064,242.1955530999694,243.20779810007662,243.19113139994442,None,242.1955530999694,None,242.1955530999694,None,242.1955530999694,None,243.85780102997086,None,243.85780102997086,None,243.85780102997086,None,,,,,,,,,,,,,203,2023-03-27_17h15.43.672,Main,2022.1.1,59.99350872276989,
negative,positive,1,j,l,,,,,,,,,2,12,48,6,,,,,,,,,main,2,2,1,positive,negative,l,l,1,0.6987109000328928,243.86106269992888,244.87444079993293,244.85777180013247,None,243.86106269992888,None,243.86106269992888,None,243.86106269992888,None,245.55803512996061,None,245.55803512996061,None,245.55803512996061,None,,,,,,,,,,,,,203,2023-03-27_17h15.43.672,Main,2022.1.1,59.99350872276989,
positive,neutral,1,l,j,,,,,,,,,2,13,49,8,,,,,,,,,main,1,1,1,neutral,positive,j,j,1,0.6811691999901086,245.5643132000696,246.57442650012672,246.55776370014064,None,245.5643132000696,None,245.5643132000696,None,245.5643132000696,None,247.2410484301392,None,247.2410484301392,None,247.2410484301392,None,,,,,,,,,,,,,203,2023-03-27_17h15.43.672,Main,2022.1.1,59.99350872276989,
positive,negative,1,l,j,,,,,,,,,2,14,50,5,,,,,,,,,main,2,2,1,negative,positive,j,j,1,0.6652166999410838,247.2443031000439,248.2438769999426,248.2438769999426,None,247.2443031000439,None,247.2443031000439,None,247.2443031000439,None,248.90749983005225,None,248.90749983005225,None,248.90749983005225,None,,,,,,,,,,,,,203,2023-03-27_17h15.43.672,Main,2022.1.1,59.99350872276989,
neutral,neutral,2,k,k,,,,,,,,,2,15,51,10,,,,,,,,,main,1,1,2,neutral,neutral,k,k,1,0.6982487000059336,248.91147719998844,249.92436950001866,249.90769280004315,None,248.91147719998844,None,248.91147719998844,None,248.91147719998844,None,250.60769703011027,None,250.60769703011027,None,250.60769703011027,None,,,,,,,,,,,,,203,2023-03-27_17h15.43.672,Main,2022.1.1,59.99350872276989,
positive,positive,2,l,j,,,,,,,,,2,16,52,11,,,,,,,,,main,1,1,2,positive,positive,j,j,1,0.68181880004704,250.61091089993715,251.62702680006623,251.60764400009066,None,250.61091089993715,None,250.61091089993715,None,250.61091089993715,None,252.2909703299403,None,252.2909703299403,None,252.2909703299403,None,,,,,,,,,,,,,203,2023-03-27_17h15.43.672,Main,2022.1.1,59.99350872276989,
negative,neutral,2,j,l,,,,,,,,,2,17,53,12,,,,,,,,,main,2,2,2,neutral,negative,l,l,1,0.7977066000457853,252.2951651001349,253.30760079994798,253.29102610005066,None,252.2951651001349,None,252.2951651001349,None,252.2951651001349,None,254.0908970300108,None,254.0908970300108,None,254.0908970300108,None,,,,,,,,,,,,,203,2023-03-27_17h15.43.672,Main,2022.1.1,59.99350872276989,
positive,positive,2,l,j,,,,,,,,,3,0,54,11,,,,,,,,,main,1,1,2,positive,positive,j,j,1,0.7817228001076728,254.0943505000323,255.10738870012574,255.09086899994873,None,254.0943505000323,None,254.0943505000323,None,254.0943505000323,None,255.8742486299481,None,255.8742486299481,None,255.8742486299481,None,,,,,,,,,,,,,203,2023-03-27_17h15.43.672,Main,2022.1.1,59.99350872276989,
neutral,negative,1,k,k,,,,,,,,,3,1,55,7,,,,,,,,,main,2,2,1,negative,neutral,k,k,1,0.6986060999333858,255.8778142000083,256.89089410007,256.874218699988,None,255.8778142000083,None,255.8778142000083,None,255.8778142000083,None,257.5743642300833,None,257.5743642300833,None,257.5743642300833,None,,,,,,,,,,,,,203,2023-03-27_17h15.43.672,Main,2022.1.1,59.99350872276989,
neutral,positive,1,k,k,,,,,,,,,3,2,56,4,,,,,,,,,main,2,2,1,positive,neutral,k,k,1,0.6166995000094175,257.59094449994154,258.59363629994914,258.5741950001102,None,257.59094449994154,None,257.59094449994154,None,257.59094449994154,None,259.190574530093,None,259.190574530093,None,259.190574530093,None,,,,,,,,,,,,,203,2023-03-27_17h15.43.672,Main,2022.1.1,59.99350872276989,
negative,positive,2,j,l,,,,,,,,,3,3,57,15,,,,,,,,,main,1,1,2,positive,negative,l,l,1,0.7464479000773281,259.19801010005176,260.20745830005035,260.1908181000035,None,259.19801010005176,None,259.19801010005176,None,259.19801010005176,None,260.940826030029,None,260.940826030029,None,260.940826030029,None,,,,,,,,,,,,,203,2023-03-27_17h15.43.672,Main,2022.1.1,59.99350872276989,
neutral,negative,2,k,k,,,,,,,,,3,4,58,16,,,,,,,,,main,2,2,2,negative,neutral,k,k,1,0.7307039999868721,260.9453652999364,261.95746110007167,261.943584700115,None,260.9453652999364,None,260.9453652999364,None,260.9453652999364,None,262.67411393001674,None,262.67411393001674,None,262.67411393001674,None,,,,,,,,,,,,,203,2023-03-27_17h15.43.672,Main,2022.1.1,59.99350872276989,
positive,negative,1,l,j,,,,,,,,,3,5,59,5,,,,,,,,,main,1,1,1,negative,positive,j,j,1,0.6644955000374466,262.6781152000185,263.6907299000304,263.67407070007175,None,262.6781152000185,None,262.6781152000185,None,262.6781152000185,None,264.34080763002856,None,264.34080763002856,None,264.34080763002856,None,,,,,,,,,,,,,203,2023-03-27_17h15.43.672,Main,2022.1.1,59.99350872276989,
negative,negative,2,j,l,,,,,,,,,3,6,60,9,,,,,,,,,main,2,2,2,negative,negative,l,l,1,0.7148283999413252,264.34409920009784,265.36003770004027,265.3406771000009,None,264.34409920009784,None,264.34409920009784,None,264.34409920009784,None,266.0573936300818,None,266.0573936300818,None,266.0573936300818,None,,,,,,,,,,,,,203,2023-03-27_17h15.43.672,Main,2022.1.1,59.99350872276989,
neutral,positive,2,k,k,,,,,,,,,3,7,61,13,,,,,,,,,main,2,2,2,positive,neutral,k,k,1,0.698363000061363,266.06083209998906,267.0573553000577,267.0573553000577,None,266.06083209998906,None,266.06083209998906,None,266.06083209998906,None,267.75734023009426,None,267.75734023009426,None,267.75734023009426,None,,,,,,,,,,,,,203,2023-03-27_17h15.43.672,Main,2022.1.1,59.99350872276989,
negative,neutral,2,j,l,,,,,,,,,3,8,62,12,,,,,,,,,main,1,1,2,neutral,negative,l,l,1,0.781645400216803,267.76059220009483,268.7767092001159,268.757325100014,None,267.76059220009483,None,267.76059220009483,None,267.76059220009483,None,269.5406330300495,None,269.5406330300495,None,269.5406330300495,None,,,,,,,,,,,,,203,2023-03-27_17h15.43.672,Main,2022.1.1,59.99350872276989,
positive,negative,2,l,j,,,,,,,,,3,9,63,14,,,,,,,,,main,2,2,2,negative,positive,j,j,1,0.6814601998776197,269.54439319996163,270.5406297999434,270.52685849997215,None,269.54439319996163,None,269.54439319996163,None,269.54439319996163,None,271.22370923012494,None,271.22370923012494,None,271.22370923012494,None,,,,,,,,,,,,,203,2023-03-27_17h15.43.672,Main,2022.1.1,59.99350872276989,
negative,neutral,1,j,l,,,,,,,,,3,10,64,3,,,,,,,,,main,2,2,1,neutral,negative,l,l,1,0.6823148999828845,271.2296118000522,272.24060319992714,272.22389749996364,None,271.2296118000522,None,271.2296118000522,None,271.2296118000522,None,272.90725273014976,None,272.90725273014976,None,272.90725273014976,None,,,,,,,,,,,,,203,2023-03-27_17h15.43.672,Main,2022.1.1,59.99350872276989,
neutral,neutral,2,k,k,,,,,,,,,3,11,65,10,,,,,,,,,main,1,1,2,neutral,neutral,k,k,1,0.6152967000380158,272.91089479997754,273.92667890014127,273.9101704999339,None,272.91089479997754,None,272.91089479997754,None,272.91089479997754,None,274.5236310300417,None,274.5236310300417,None,274.5236310300417,None,,,,,,,,,,,,,203,2023-03-27_17h15.43.672,Main,2022.1.1,59.99350872276989,
positive,neutral,1,l,j,,,,,,,,,3,12,66,8,,,,,,,,,main,1,1,1,neutral,positive,j,j,1,0.7319761000107974,274.52784370002337,275.54324600007385,275.52386449999176,None,274.52784370002337,None,274.52784370002337,None,274.52784370002337,None,276.25691773002035,None,276.25691773002035,None,276.25691773002035,None,,,,,,,,,,,,,203,2023-03-27_17h15.43.672,Main,2022.1.1,59.99350872276989,
neutral,neutral,1,k,k,,,,,,,,,3,13,67,1,,,,,,,,,main,2,2,1,neutral,neutral,k,k,1,0.647932699881494,276.2611012000125,277.2737889001146,277.25713320006616,None,276.2611012000125,None,276.2611012000125,None,276.2611012000125,None,277.90731253013945,None,277.90731253013945,None,277.90731253013945,None,,,,,,,,,,,,,203,2023-03-27_17h15.43.672,Main,2022.1.1,59.99350872276989,
negative,negative,1,j,l,,,,,,,,,3,14,68,0,,,,,,,,,main,2,2,1,negative,negative,l,l,1,0.7308265999890864,277.91115560010076,278.92379639996216,278.9071382000111,None,277.91115560010076,None,277.91115560010076,None,277.91115560010076,None,279.6404465300031,None,279.6404465300031,None,279.6404465300031,None,,,,,,,,,,,,,203,2023-03-27_17h15.43.672,Main,2022.1.1,59.99350872276989,
positive,neutral,2,l,j,,,,,,,,,3,15,69,17,,,,,,,,,main,2,2,2,neutral,positive,j,j,1,0.8150820001028478,279.6437316001393,280.6571228001267,280.64043710008264,None,279.6437316001393,None,279.6437316001393,None,279.6437316001393,None,281.45706732994876,None,281.45706732994876,None,281.45706732994876,None,,,,,,,,,,,,,203,2023-03-27_17h15.43.672,Main,2022.1.1,59.99350872276989,
negative,positive,1,j,l,,,,,,,,,3,16,70,6,,,,,,,,,main,2,2,1,positive,negative,l,l,1,0.6999385999515653,281.46047760010697,282.45991670014337,282.45991670014337,None,281.46047760010697,None,281.46047760010697,None,281.46047760010697,None,283.1570362300146,None,283.1570362300146,None,283.1570362300146,None,,,,,,,,,,,,,203,2023-03-27_17h15.43.672,Main,2022.1.1,59.99350872276989,
positive,positive,1,l,j,,,,,,,,,3,17,71,2,,,,,,,,,main,1,1,1,positive,positive,j,j,1,0.646875400096178,283.1619162000716,284.1736860999372,284.1598076999653,None,283.1619162000716,None,283.1619162000716,None,283.1619162000716,None,284.8070287299808,None,284.8070287299808,None,284.8070287299808,None,,,,,,,,,,,,,203,2023-03-27_17h15.43.672,Main,2022.1.1,59.99350872276989,
positive,positive,2,l,j,,,,,,,,,4,0,72,11,,,,,,,,,main,2,2,2,positive,positive,j,j,1,0.6984572000801563,284.8102973001078,285.8236630000174,285.8069859999232,None,284.8102973001078,None,284.8102973001078,None,284.8102973001078,None,286.50696273013017,None,286.50696273013017,None,286.50696273013017,None,,,,,,,,,,,,,203,2023-03-27_17h15.43.672,Main,2022.1.1,59.99350872276989,
positive,negative,1,l,j,,,,,,,,,4,1,73,5,,,,,,,,,main,2,2,1,negative,positive,j,j,1,0.6150130999740213,286.51073730015196,287.5236325999722,287.5070335001219,None,286.51073730015196,None,286.51073730015196,None,286.51073730015196,None,288.123681830056,None,288.123681830056,None,288.123681830056,None,,,,,,,,,,,,,203,2023-03-27_17h15.43.672,Main,2022.1.1,59.99350872276989,
positive,negative,2,l,j,,,,,,,,,4,2,74,14,,,,,,,,,main,2,2,2,negative,positive,j,j,1,0.7313082001637667,288.12756279995665,289.14027169998735,289.1236246000044,None,288.12756279995665,None,288.12756279995665,None,288.12756279995665,None,289.8569582300726,None,289.8569582300726,None,289.8569582300726,None,,,,,,,,,,,,,203,2023-03-27_17h15.43.672,Main,2022.1.1,59.99350872276989,
neutral,positive,1,k,k,,,,,,,,,4,3,75,4,,,,,,,,,main,1,1,1,positive,neutral,k,k,1,0.7151755001395941,289.86023210012354,290.87356840004213,290.85688180010766,None,289.86023210012354,None,289.86023210012354,None,289.86023210012354,None,291.57357653002254,None,291.57357653002254,None,291.57357653002254,None,,,,,,,,,,,,,203,2023-03-27_17h15.43.672,Main,2022.1.1,59.99350872276989,
neutral,neutral,1,k,k,,,,,,,,,4,4,76,1,,,,,,,,,main,2,2,1,neutral,neutral,k,k,1,0.6483137998729944,291.5769946000073,292.59018080006354,292.57368899998255,None,291.5769946000073,None,291.5769946000073,None,291.5769946000073,None,293.2235044299625,None,293.2235044299625,None,293.2235044299625,None,,,,,,,,,,,,,203,2023-03-27_17h15.43.672,Main,2022.1.1,59.99350872276989,
negative,negative,2,j,l,,,,,,,,,4,5,77,9,,,,,,,,,main,2,2,2,negative,negative,l,l,1,0.8651318999473006,293.2265935000032,294.22636319999583,294.22636319999583,None,293.2265935000032,None,293.2265935000032,None,293.2265935000032,None,295.09015103015116,None,295.09015103015116,None,295.09015103015116,None,,,,,,,,,,,,,203,2023-03-27_17h15.43.672,Main,2022.1.1,59.99350872276989,
negative,neutral,2,j,l,,,,,,,,,4,6,78,12,,,,,,,,,main,1,1,2,neutral,negative,l,l,1,0.7317272000946105,295.0938099999912,296.0901248001028,296.0901248001028,None,295.0938099999912,None,295.0938099999912,None,295.0938099999912,None,296.8234606299549,None,296.8234606299549,None,296.8234606299549,None,,,,,,,,,,,,,203,2023-03-27_17h15.43.672,Main,2022.1.1,59.99350872276989,
negative,negative,1,j,l,,,,,,,,,4,7,79,0,,,,,,,,,main,1,1,1,negative,negative,l,l,1,0.7651165998540819,296.8269965001382,297.8428100999445,297.8234385999385,None,296.8269965001382,None,296.8269965001382,None,296.8269965001382,None,298.5901565300766,None,298.5901565300766,None,298.5901565300766,None,,,,,,,,,,,,,203,2023-03-27_17h15.43.672,Main,2022.1.1,59.99350872276989,
neutral,negative,2,k,k,,,,,,,,,4,8,80,16,,,,,,,,,main,2,2,2,negative,neutral,k,k,1,0.6482551998924464,298.5935707001481,299.6067324001342,299.59003100008704,None,298.5935707001481,None,298.5935707001481,None,298.5935707001481,None,300.2400744299404,None,300.2400744299404,None,300.2400744299404,None,,,,,,,,,,,,,203,2023-03-27_17h15.43.672,Main,2022.1.1,59.99350872276989,
positive,neutral,2,l,j,,,,,,,,,4,9,81,17,,,,,,,,,main,2,2,2,neutral,positive,j,j,1,0.6816379001829773,300.2434729000088,301.259483900154,301.24000400002114,None,300.2434729000088,None,300.2434729000088,None,300.2434729000088,None,301.9233684300445,None,301.9233684300445,None,301.9233684300445,None,,,,,,,,,,,,,203,2023-03-27_17h15.43.672,Main,2022.1.1,59.99350872276989,
neutral,positive,2,k,k,,,,,,,,,4,10,82,13,,,,,,,,,main,2,2,2,positive,neutral,k,k,1,0.664505299879238,301.92736630002037,302.940021000104,302.92334550013766,None,301.92736630002037,None,301.92736630002037,None,301.92736630002037,None,303.5900979300961,None,303.5900979300961,None,303.5900979300961,None,,,,,,,,,,,,,203,2023-03-27_17h15.43.672,Main,2022.1.1,59.99350872276989,
neutral,negative,1,k,k,,,,,,,,,4,11,83,7,,,,,,,,,main,1,1,1,negative,neutral,k,k,1,0.7316117000300437,303.59330690000206,304.59276750008576,304.59276750008576,None,303.59330690000206,None,303.59330690000206,None,303.59330690000206,None,305.3232853301335,None,305.3232853301335,None,305.3232853301335,None,,,,,,,,,,,,,203,2023-03-27_17h15.43.672,Main,2022.1.1,59.99350872276989,
neutral,neutral,2,k,k,,,,,,,,,4,12,84,10,,,,,,,,,main,1,1,2,neutral,neutral,k,k,1,0.6981871000025421,305.3266153000295,306.34003120008856,306.3262016000226,None,305.3266153000295,None,305.3266153000295,None,305.3266153000295,None,307.0232841300778,None,307.0232841300778,None,307.0232841300778,None,,,,,,,,,,,,,203,2023-03-27_17h15.43.672,Main,2022.1.1,59.99350872276989,
negative,neutral,1,j,l,,,,,,,,,4,13,85,3,,,,,,,,,main,1,1,1,neutral,negative,l,l,1,0.6984528999309987,307.02655200008303,308.02323590009473,308.02323590009473,None,307.02655200008303,None,307.02655200008303,None,307.02655200008303,None,308.7233225300908,None,308.7233225300908,None,308.7233225300908,None,,,,,,,,,,,,,203,2023-03-27_17h15.43.672,Main,2022.1.1,59.99350872276989,
negative,positive,1,j,l,,,,,,,,,4,14,86,6,,,,,,,,,main,2,2,1,positive,negative,l,l,1,0.7150650999974459,308.73988370015286,309.73987390007824,309.72600300004706,None,308.73988370015286,None,308.73988370015286,None,308.73988370015286,None,310.43984473012387,None,310.43984473012387,None,310.43984473012387,None,,,,,,,,,,,,,203,2023-03-27_17h15.43.672,Main,2022.1.1,59.99350872276989,
positive,positive,1,l,j,,,,,,,,,4,15,87,2,,,,,,,,,main,2,2,1,positive,positive,j,j,1,0.7149569001048803,310.4435016999487,311.43990270001814,311.43990270001814,None,310.4435016999487,None,310.4435016999487,None,310.4435016999487,None,312.15645873015745,None,312.15645873015745,None,312.15645873015745,None,,,,,,,,,,,,,203,2023-03-27_17h15.43.672,Main,2022.1.1,59.99350872276989,
positive,neutral,1,l,j,,,,,,,,,4,16,88,8,,,,,,,,,main,2,2,1,neutral,positive,j,j,1,0.6156725999899209,312.1599537001457,313.1731416999828,313.1564722000621,None,312.1599537001457,None,312.1599537001457,None,312.1599537001457,None,313.7731369301211,None,313.7731369301211,None,313.7731369301211,None,,,,,,,,,,,,,203,2023-03-27_17h15.43.672,Main,2022.1.1,59.99350872276989,
negative,positive,2,j,l,,,,,,,,,4,17,89,15,,,,,,,,,main,2,2,2,positive,negative,l,l,1,0.7486054999753833,313.77745050005615,314.78977830009535,314.77311239996925,None,313.77745050005615,None,313.77745050005615,None,313.77745050005615,None,315.5241174300201,None,315.5241174300201,None,315.5241174300201,None,,,,,,,,,,,,,203,2023-03-27_17h15.43.672,Main,2022.1.1,59.99350872276989,
positive,neutral,1,l,j,,,,,,,,,5,0,90,8,,,,,,,,,main,1,1,1,neutral,positive,j,j,1,0.7669851998798549,315.54243670008145,316.55924360011704,316.52303249994293,None,315.54243670008145,None,315.54243670008145,None,315.54243670008145,None,317.292479030136,None,317.292479030136,None,317.292479030136,None,,,,,,,,,,,,,203,2023-03-27_17h15.43.672,Main,2022.1.1,59.99350872276989,
neutral,positive,2,k,k,,,,,,,,,5,1,91,13,,,,,,,,,main,2,2,2,positive,neutral,k,k,1,1.1122792998794466,317.29595250007696,318.3092396000866,318.29255000012927,None,317.29595250007696,None,317.29595250007696,None,317.29595250007696,None,319.40646072993985,None,319.40646072993985,None,319.40646072993985,None,,,,,,,,,,,,,203,2023-03-27_17h15.43.672,Main,2022.1.1,59.99350872276989,
positive,negative,2,l,j,,,,,,,,,5,2,92,14,,,,,,,,,main,2,2,2,negative,positive,j,j,1,0.697558700107038,319.42313720006496,320.42566630011424,320.4062847001478,None,319.42313720006496,None,319.42313720006496,None,319.42313720006496,None,321.10641753003,None,321.10641753003,None,321.10641753003,None,,,,,,,,,,,,,203,2023-03-27_17h15.43.672,Main,2022.1.1,59.99350872276989,
positive,neutral,2,l,j,,,,,,,,,5,3,93,17,,,,,,,,,main,1,1,2,neutral,positive,j,j,1,0.5981302000582218,321.10964699997567,322.125712600071,322.1062716001179,None,321.10964699997567,None,321.10964699997567,None,321.10964699997567,None,322.7063039299566,None,322.7063039299566,None,322.7063039299566,None,,,,,,,,,,,,,203,2023-03-27_17h15.43.672,Main,2022.1.1,59.99350872276989,
negative,neutral,2,j,l,,,,,,,,,5,4,94,12,,,,,,,,,main,1,1,2,neutral,negative,l,l,1,0.7653251998126507,322.70944790006615,323.725656399969,323.6895892000757,None,322.70944790006615,None,322.70944790006615,None,322.70944790006615,None,324.47300343010573,None,324.47300343010573,None,324.47300343010573,None,,,,,,,,,,,,,203,2023-03-27_17h15.43.672,Main,2022.1.1,59.99350872276989,
positive,negative,1,l,j,,,,,,,,,5,5,95,5,,,,,,,,,main,1,1,1,negative,positive,j,j,1,0.6816002998966724,324.47618849994615,325.4895286001265,325.4728683999274,None,324.47618849994615,None,324.47618849994615,None,324.47618849994615,None,326.15608382998033,None,326.15608382998033,None,326.15608382998033,None,,,,,,,,,,,,,203,2023-03-27_17h15.43.672,Main,2022.1.1,59.99350872276989,
neutral,negative,1,k,k,,,,,,,,,5,6,96,7,,,,,,,,,main,1,1,1,negative,neutral,k,k,1,0.6347219001036137,326.1625308000948,327.17284659994766,327.15893719997257,None,326.1625308000948,None,326.1625308000948,None,326.1625308000948,None,327.792372930143,None,327.792372930143,None,327.792372930143,None,,,,,,,,,,,,,203,2023-03-27_17h15.43.672,Main,2022.1.1,59.99350872276989,
negative,positive,2,j,l,,,,,,,,,5,7,97,15,,,,,,,,,main,2,2,2,positive,negative,l,l,1,0.6291904000099748,327.7950939000584,328.8061589000281,328.78948540007696,None,327.7950939000584,None,327.7950939000584,None,327.7950939000584,None,329.42281053010373,None,329.42281053010373,None,329.42281053010373,None,,,,,,,,,,,,,203,2023-03-27_17h15.43.672,Main,2022.1.1,59.99350872276989,
neutral,negative,2,k,k,,,,,,,,,5,8,98,16,,,,,,,,,main,2,2,2,negative,neutral,k,k,1,0.6981728000100702,329.4265145000536,330.4394749000203,330.4227967001498,None,329.4265145000536,None,329.4265145000536,None,329.4265145000536,None,331.122800129978,None,331.122800129978,None,331.122800129978,None,,,,,,,,,,,,,203,2023-03-27_17h15.43.672,Main,2022.1.1,59.99350872276989,
negative,negative,1,j,l,,,,,,,,,5,9,99,0,,,,,,,,,main,1,1,1,negative,negative,l,l,1,0.6986628000158817,331.1262732001487,332.12558039999567,332.12558039999567,None,331.1262732001487,None,331.1262732001487,None,331.1262732001487,None,332.82291723000816,None,332.82291723000816,None,332.82291723000816,None,,,,,,,,,,,,,203,2023-03-27_17h15.43.672,Main,2022.1.1,59.99350872276989,
negative,positive,1,j,l,,,,,,,,,5,10,100,6,,,,,,,,,main,1,1,1,positive,negative,l,l,1,0.5818382001016289,332.82656370010227,333.83941110013984,333.8227202000562,None,332.82656370010227,None,332.82656370010227,None,332.82656370010227,None,334.4063390300609,None,334.4063390300609,None,334.4063390300609,None,,,,,,,,,,,,,203,2023-03-27_17h15.43.672,Main,2022.1.1,59.99350872276989,
neutral,positive,1,k,k,,,,,,,,,5,11,101,4,,,,,,,,,main,1,1,1,positive,neutral,k,k,1,0.6815436999313533,334.4130558001343,335.422673500143,335.4087468001526,None,334.4130558001343,None,334.4130558001343,None,334.4130558001343,None,336.08975333003326,None,336.08975333003326,None,336.08975333003326,None,,,,,,,,,,,,,203,2023-03-27_17h15.43.672,Main,2022.1.1,59.99350872276989,
neutral,neutral,1,k,k,,,,,,,,,5,12,102,1,,,,,,,,,main,1,1,1,neutral,neutral,k,k,1,0.5978645000141114,336.095962200081,337.1087891999632,337.08933190000243,None,336.095962200081,None,336.095962200081,None,336.095962200081,None,337.6892849300522,None,337.6892849300522,None,337.6892849300522,None,,,,,,,,,,,,,203,2023-03-27_17h15.43.672,Main,2022.1.1,59.99350872276989,
negative,neutral,1,j,l,,,,,,,,,5,13,103,3,,,,,,,,,main,1,1,1,neutral,negative,l,l,1,0.7831323000136763,337.69323740014806,338.70599699998274,338.689288900001,None,337.69323740014806,None,337.69323740014806,None,337.69323740014806,None,339.47262892993166,None,339.47262892993166,None,339.47262892993166,None,,,,,,,,,,,,,203,2023-03-27_17h15.43.672,Main,2022.1.1,59.99350872276989,
negative,negative,2,j,l,,,,,,,,,5,14,104,9,,,,,,,,,main,2,2,2,negative,negative,l,l,1,0.6636264000553638,339.4770009999629,340.48926950013265,340.472607600037,None,339.4770009999629,None,339.4770009999629,None,339.4770009999629,None,341.13926173006183,None,341.13926173006183,None,341.13926173006183,None,,,,,,,,,,,,,203,2023-03-27_17h15.43.672,Main,2022.1.1,59.99350872276989,
positive,positive,2,l,j,,,,,,,,,5,15,105,11,,,,,,,,,main,2,2,2,positive,positive,j,j,1,0.7503465001937002,341.14337470009923,342.15883100009523,342.12256729998626,None,341.14337470009923,None,341.14337470009923,None,341.14337470009923,None,342.88921823007985,None,342.88921823007985,None,342.88921823007985,None,,,,,,,,,,,,,203,2023-03-27_17h15.43.672,Main,2022.1.1,59.99350872276989,
positive,positive,1,l,j,,,,,,,,,5,16,106,2,,,,,,,,,main,2,2,1,positive,positive,j,j,1,0.6965699000284076,342.8952031999361,343.9058715000283,343.8892117999494,None,342.8952031999361,None,342.8952031999361,None,342.8952031999361,None,344.5892022301443,None,344.5892022301443,None,344.5892022301443,None,,,,,,,,,,,,,203,2023-03-27_17h15.43.672,Main,2022.1.1,59.99350872276989,
neutral,neutral,2,k,k,,,,,,,,,5,17,107,10,,,,,,,,,main,1,1,2,neutral,neutral,k,k,1,0.6317809999454767,344.5920373001136,345.60584350000136,345.5919916999992,None,344.5920373001136,None,344.5920373001136,None,344.5920373001136,None,346.2225003301166,None,346.2225003301166,None,346.2225003301166,None,,,,,,,,,,,,,203,2023-03-27_17h15.43.672,Main,2022.1.1,59.99350872276989,
positive,neutral,2,l,j,,,,,,,,,6,0,108,17,,,,,,,,,main,1,1,2,neutral,positive,j,j,1,0.6818526999559253,346.22571190004237,347.24190050014295,347.2252489000093,None,346.22571190004237,None,346.22571190004237,None,346.22571190004237,None,347.90592993008903,None,347.90592993008903,None,347.90592993008903,None,,,,,,,,,,,,,203,2023-03-27_17h15.43.672,Main,2022.1.1,59.99350872276989,
negative,positive,2,j,l,,,,,,,,,6,1,109,15,,,,,,,,,main,1,1,2,positive,negative,l,l,1,0.6993557999376208,347.9090559000615,348.9057784001343,348.89186160010286,None,347.9090559000615,None,347.9090559000615,None,347.9090559000615,None,349.60659953001885,None,349.60659953001885,None,349.60659953001885,None,,,,,,,,,,,,,203,2023-03-27_17h15.43.672,Main,2022.1.1,59.99350872276989,
negative,negative,2,j,l,,,,,,,,,6,2,110,9,,,,,,,,,main,2,2,2,negative,negative,l,l,1,0.6473065998870879,349.61307720001787,350.62241049995646,350.6085196000058,None,349.61307720001787,None,349.61307720001787,None,349.61307720001787,None,351.2557602299377,None,351.2557602299377,None,351.2557602299377,None,,,,,,,,,,,,,203,2023-03-27_17h15.43.672,Main,2022.1.1,59.99350872276989,
positive,negative,1,l,j,,,,,,,,,6,3,111,5,,,,,,,,,main,2,2,1,negative,positive,j,j,1,0.7179552000015974,351.25870140013285,352.2725488001015,352.25572170014493,None,351.25870140013285,None,351.25870140013285,None,351.25870140013285,None,352.97511223009786,None,352.97511223009786,None,352.97511223009786,None,,,,,,,,,,,,,203,2023-03-27_17h15.43.672,Main,2022.1.1,59.99350872276989,
positive,negative,2,l,j,,,,,,,,,6,4,112,14,,,,,,,,,main,2,2,2,negative,positive,j,j,1,0.6126482000108808,352.97758639999665,353.9890249001328,353.9723468001466,None,352.97758639999665,None,352.97758639999665,None,352.97758639999665,None,354.5889682299923,None,354.5889682299923,None,354.5889682299923,None,,,,,,,,,,,,,203,2023-03-27_17h15.43.672,Main,2022.1.1,59.99350872276989,
neutral,neutral,1,k,k,,,,,,,,,6,5,113,1,,,,,,,,,main,1,1,1,neutral,neutral,k,k,1,0.6815637000836432,354.59276359993964,355.58898050012067,355.58898050012067,None,354.59276359993964,None,354.59276359993964,None,354.59276359993964,None,356.2724087299313,None,356.2724087299313,None,356.2724087299313,None,,,,,,,,,,,,,203,2023-03-27_17h15.43.672,Main,2022.1.1,59.99350872276989,
neutral,negative,2,k,k,,,,,,,,,6,6,114,16,,,,,,,,,main,1,1,2,negative,neutral,k,k,1,0.8649220999795943,356.27573850005865,357.28894930006936,357.27228190004826,None,356.27573850005865,None,356.27573850005865,None,356.27573850005865,None,358.13902282998896,None,358.13902282998896,None,358.13902282998896,None,,,,,,,,,,,,,203,2023-03-27_17h15.43.672,Main,2022.1.1,59.99350872276989,
positive,positive,1,l,j,,,,,,,,,6,7,115,2,,,,,,,,,main,1,1,1,positive,positive,j,j,1,0.7149404999800026,358.14250449999236,359.15575110004283,359.14166600001045,None,358.14250449999236,None,358.14250449999236,None,358.14250449999236,None,359.8555546300951,None,359.8555546300951,None,359.8555546300951,None,,,,,,,,,,,,,203,2023-03-27_17h15.43.672,Main,2022.1.1,59.99350872276989,
neutral,positive,1,k,k,,,,,,,,,6,8,116,4,,,,,,,,,main,2,2,1,positive,neutral,k,k,1,0.8327593998983502,359.8589602999855,360.8555254000239,360.8555254000239,None,359.8589602999855,None,359.8589602999855,None,359.8589602999855,None,361.6888749299571,None,361.6888749299571,None,361.6888749299571,None,,,,,,,,,,,,,203,2023-03-27_17h15.43.672,Main,2022.1.1,59.99350872276989,
negative,neutral,2,j,l,,,,,,,,,6,9,117,12,,,,,,,,,main,2,2,2,neutral,negative,l,l,1,0.7489043998066336,361.6930945001077,362.705507799983,362.6888348001521,None,361.6930945001077,None,361.6930945001077,None,361.6930945001077,None,363.4404588300269,None,363.4404588300269,None,363.4404588300269,None,,,,,,,,,,,,,203,2023-03-27_17h15.43.672,Main,2022.1.1,59.99350872276989,
negative,positive,1,j,l,,,,,,,,,6,10,118,6,,,,,,,,,main,2,2,1,positive,negative,l,l,1,0.6801469000056386,363.44611670007,364.45547619997524,364.4388093999587,None,363.44611670007,None,363.44611670007,None,363.44611670007,None,365.12212112993,None,365.12212112993,None,365.12212112993,None,,,,,,,,,,,,,203,2023-03-27_17h15.43.672,Main,2022.1.1,59.99350872276989,
neutral,positive,2,k,k,,,,,,,,,6,11,119,13,,,,,,,,,main,2,2,2,positive,neutral,k,k,1,0.6818578999955207,365.12622810015455,366.1415343999397,366.1249039999675,None,365.12622810015455,None,365.12622810015455,None,365.12622810015455,None,366.8054075299762,None,366.8054075299762,None,366.8054075299762,None,,,,,,,,,,,,,203,2023-03-27_17h15.43.672,Main,2022.1.1,59.99350872276989,
negative,negative,1,j,l,,,,,,,,,6,12,120,0,,,,,,,,,main,2,2,1,negative,negative,l,l,1,0.7985350000672042,366.8088382000569,367.8247776001226,367.8054217000026,None,366.8088382000569,None,366.8088382000569,None,366.8088382000569,None,368.6053971299436,None,368.6053971299436,None,368.6053971299436,None,,,,,,,,,,,,,203,2023-03-27_17h15.43.672,Main,2022.1.1,59.99350872276989,
neutral,neutral,2,k,k,,,,,,,,,6,13,121,10,,,,,,,,,main,1,1,2,neutral,neutral,k,k,1,0.699250599835068,368.6087283999659,369.6053784999531,369.6053784999531,None,368.6087283999659,None,368.6087283999659,None,368.6087283999659,None,370.3053828301374,None,370.3053828301374,None,370.3053828301374,None,,,,,,,,,,,,,203,2023-03-27_17h15.43.672,Main,2022.1.1,59.99350872276989,
neutral,negative,1,k,k,,,,,,,,,6,14,122,7,,,,,,,,,main,2,2,1,negative,neutral,k,k,1,0.6305543000344187,370.30948389996774,371.3219995999243,371.3081795000471,None,370.30948389996774,None,370.30948389996774,None,370.30948389996774,None,371.93837623000144,None,371.93837623000144,None,371.93837623000144,None,,,,,,,,,,,,,203,2023-03-27_17h15.43.672,Main,2022.1.1,59.99350872276989,
positive,positive,2,l,j,,,,,,,,,6,15,123,11,,,,,,,,,main,1,1,2,positive,positive,j,j,1,0.6652113001327962,371.9419188001193,372.93863180000335,372.93863180000335,None,371.9419188001193,None,371.9419188001193,None,371.9419188001193,None,373.6052872301545,None,373.6052872301545,None,373.6052872301545,None,,,,,,,,,,,,,203,2023-03-27_17h15.43.672,Main,2022.1.1,59.99350872276989,
positive,neutral,1,l,j,,,,,,,,,6,16,124,8,,,,,,,,,main,1,1,1,neutral,positive,j,j,1,0.7316934000700712,373.6086848000996,374.6219476000406,374.6053830999881,None,373.6086848000996,None,373.6086848000996,None,373.6086848000996,None,375.3385943300556,None,375.3385943300556,None,375.3385943300556,None,,,,,,,,,,,,,203,2023-03-27_17h15.43.672,Main,2022.1.1,59.99350872276989,
negative,neutral,1,j,l,,,,,,,,,6,17,125,3,,,,,,,,,main,2,2,1,neutral,negative,l,l,1,0.6815651999786496,375.3421332000289,376.35799410007894,376.33855440001935,None,375.3421332000289,None,375.3421332000289,None,375.3421332000289,None,377.0219222300686,None,377.0219222300686,None,377.0219222300686,None,,,,,,,,,,,,,203,2023-03-27_17h15.43.672,Main,2022.1.1,59.99350872276989,
neutral,negative,1,k,k,,,,,,,,,7,0,126,7,,,,,,,,,main,2,2,1,negative,neutral,k,k,1,0.6811506999656558,377.0258178000804,378.0385396000929,378.0246409000829,None,377.0258178000804,None,377.0258178000804,None,377.0258178000804,None,378.7052112301346,None,378.7052112301346,None,378.7052112301346,None,,,,,,,,,,,,,203,2023-03-27_17h15.43.672,Main,2022.1.1,59.99350872276989,
negative,positive,2,j,l,,,,,,,,,7,1,127,15,,,,,,,,,main,2,2,2,positive,negative,l,l,1,0.7650756998918951,378.708409700077,379.72185590001754,379.70791799994186,None,378.708409700077,None,378.708409700077,None,378.708409700077,None,380.4719158299733,None,380.4719158299733,None,380.4719158299733,None,,,,,,,,,,,,,203,2023-03-27_17h15.43.672,Main,2022.1.1,59.99350872276989,
positive,neutral,1,l,j,,,,,,,,,7,2,128,8,,,,,,,,,main,2,2,1,neutral,positive,j,j,1,0.7306143001187593,380.47598340013064,381.4912340999581,381.4718108000234,None,380.47598340013064,None,380.47598340013064,None,380.47598340013064,None,382.2051275300793,None,382.2051275300793,None,382.2051275300793,None,,,,,,,,,,,,,203,2023-03-27_17h15.43.672,Main,2022.1.1,59.99350872276989,
neutral,negative,2,k,k,,,,,,,,,7,3,129,16,,,,,,,,,main,1,1,2,negative,neutral,k,k,1,0.6643997000064701,382.2217894999776,383.2217731999699,383.20511059998535,None,382.2217894999776,None,382.2217894999776,None,382.2217894999776,None,383.8717392299324,None,383.8717392299324,None,383.8717392299324,None,,,,,,,,,,,,,203,2023-03-27_17h15.43.672,Main,2022.1.1,59.99350872276989,
positive,negative,2,l,j,,,,,,,,,7,4,130,14,,,,,,,,,main,2,2,2,negative,positive,j,j,1,0.7649520998820662,383.8747374000959,384.88848940003663,384.87446980015375,None,383.8747374000959,None,383.8747374000959,None,383.8747374000959,None,385.6383826300036,None,385.6383826300036,None,385.6383826300036,None,,,,,,,,,,,,,203,2023-03-27_17h15.43.672,Main,2022.1.1,59.99350872276989,
negative,negative,1,j,l,,,,,,,,,7,5,131,0,,,,,,,,,main,1,1,1,negative,negative,l,l,1,0.7154232999309897,385.642306700116,386.65512010012753,386.6216982000042,None,385.642306700116,None,385.642306700116,None,385.642306700116,None,387.3550450299401,None,387.3550450299401,None,387.3550450299401,None,,,,,,,,,,,,,203,2023-03-27_17h15.43.672,Main,2022.1.1,59.99350872276989,
positive,neutral,2,l,j,,,,,,,,,7,6,132,17,,,,,,,,,main,1,1,2,neutral,positive,j,j,1,0.6982846001628786,387.35892940009944,388.3743704999797,388.3578554999549,None,387.35892940009944,None,387.35892940009944,None,387.35892940009944,None,389.05497632995247,None,389.05497632995247,None,389.05497632995247,None,,,,,,,,,,,,,203,2023-03-27_17h15.43.672,Main,2022.1.1,59.99350872276989,
neutral,neutral,1,k,k,,,,,,,,,7,7,133,1,,,,,,,,,main,2,2,1,neutral,neutral,k,k,1,0.6182140000164509,389.05802029999904,390.07162080006674,390.05495210015215,None,389.05802029999904,None,389.05802029999904,None,389.05802029999904,None,390.67174353012814,None,390.67174353012814,None,390.67174353012814,None,,,,,,,,,,,,,203,2023-03-27_17h15.43.672,Main,2022.1.1,59.99350872276989,
positive,positive,1,l,j,,,,,,,,,7,8,134,2,,,,,,,,,main,2,2,1,positive,positive,j,j,1,0.6285178000107408,390.6778704000171,391.68826880003326,391.6715905999299,None,390.6778704000171,None,390.6778704000171,None,390.6778704000171,None,392.3049504301045,None,392.3049504301045,None,392.3049504301045,None,,,,,,,,,,,,,203,2023-03-27_17h15.43.672,Main,2022.1.1,59.99350872276989,
positive,positive,2,l,j,,,,,,,,,7,9,135,11,,,,,,,,,main,1,1,2,positive,positive,j,j,1,0.7143140998668969,392.3088704999536,393.3215795001015,393.30493799992837,None,392.3088704999536,None,392.3088704999536,None,392.3088704999536,None,394.0216158300638,None,394.0216158300638,None,394.0216158300638,None,,,,,,,,,,,,,203,2023-03-27_17h15.43.672,Main,2022.1.1,59.99350872276989,
neutral,positive,2,k,k,,,,,,,,,7,10,136,13,,,,,,,,,main,1,1,2,positive,neutral,k,k,1,0.6319381999783218,394.03821330005303,395.0381851999555,395.0215342999436,None,394.03821330005303,None,394.03821330005303,None,394.03821330005303,None,395.65484632998704,None,395.65484632998704,None,395.65484632998704,None,,,,,,,,,,,,,203,2023-03-27_17h15.43.672,Main,2022.1.1,59.99350872276989,
neutral,positive,1,k,k,,,,,,,,,7,11,137,4,,,,,,,,,main,2,2,1,positive,neutral,k,k,1,0.9650252000428736,395.65876030013897,396.6715138000436,396.6548594001215,None,395.65876030013897,None,395.65876030013897,None,395.65876030013897,None,397.62150613013654,None,397.62150613013654,None,397.62150613013654,None,,,,,,,,,,,,,203,2023-03-27_17h15.43.672,Main,2022.1.1,59.99350872276989,
negative,neutral,2,j,l,,,,,,,,,7,12,138,12,,,,,,,,,main,2,2,2,neutral,negative,l,l,1,0.6485915000084788,397.6252945000306,398.63825960014947,398.6214801000897,None,397.6252945000306,None,397.6252945000306,None,397.6252945000306,None,399.2714694301132,None,399.2714694301132,None,399.2714694301132,None,,,,,,,,,,,,,203,2023-03-27_17h15.43.672,Main,2022.1.1,59.99350872276989,
negative,neutral,1,j,l,,,,,,,,,7,13,139,3,,,,,,,,,main,2,2,1,neutral,negative,l,l,1,0.7812743000686169,399.2753658001311,400.28827530005947,400.27147060004063,None,399.2753658001311,None,399.2753658001311,None,399.2753658001311,None,401.0547414301429,None,401.0547414301429,None,401.0547414301429,None,,,,,,,,,,,,,203,2023-03-27_17h15.43.672,Main,2022.1.1,59.99350872276989,
positive,negative,1,l,j,,,,,,,,,7,14,140,5,,,,,,,,,main,1,1,1,negative,positive,j,j,1,0.7484466000460088,401.05796190002,402.0713696000166,402.0380426000338,None,401.05796190002,None,401.05796190002,None,401.05796190002,None,402.80469473013653,None,402.80469473013653,None,402.80469473013653,None,,,,,,,,,,,,,203,2023-03-27_17h15.43.672,Main,2022.1.1,59.99350872276989,
negative,negative,2,j,l,,,,,,,,,7,15,141,9,,,,,,,,,main,1,1,2,negative,negative,l,l,1,0.7819606999401003,402.8079804999288,403.80479600001127,403.7908260000404,None,402.8079804999288,None,402.8079804999288,None,402.8079804999288,None,404.58812512997537,None,404.58812512997537,None,404.58812512997537,None,,,,,,,,,,,,,203,2023-03-27_17h15.43.672,Main,2022.1.1,59.99350872276989,
neutral,neutral,2,k,k,,,,,,,,,7,16,142,10,,,,,,,,,main,2,2,2,neutral,neutral,k,k,1,0.7153065998572856,404.5914301001467,405.6046683001332,405.5880154001061,None,404.5914301001467,None,404.5914301001467,None,404.5914301001467,None,406.3046803300269,None,406.3046803300269,None,406.3046803300269,None,,,,,,,,,,,,,203,2023-03-27_17h15.43.672,Main,2022.1.1,59.99350872276989,
negative,positive,1,j,l,,,,,,,,,7,17,143,6,,,,,,,,,main,2,2,1,positive,negative,l,l,1,0.7648213999345899,406.3213212999981,407.321393399965,407.3046405001078,None,406.3213212999981,None,406.3213212999981,None,406.3213212999981,None,408.071264930116,None,408.071264930116,None,408.071264930116,None,,,,,,,,,,,,,203,2023-03-27_17h15.43.672,Main,2022.1.1,59.99350872276989,
positive,neutral,2,l,j,,,,,,,,,8,0,144,17,,,,,,,,,main,2,2,2,neutral,positive,j,j,1,0.6815844001248479,408.0879470000509,409.0879145001527,409.0741231001448,None,408.0879470000509,None,408.0879470000509,None,408.0879470000509,None,409.7546613300685,None,409.7546613300685,None,409.7546613300685,None,,,,,,,,,,,,,203,2023-03-27_17h15.43.672,Main,2022.1.1,59.99350872276989,
negative,neutral,2,j,l,,,,,,,,,8,1,145,12,,,,,,,,,main,1,1,2,neutral,negative,l,l,1,0.7149227000772953,409.75807530013844,410.75733139994554,410.75733139994554,None,409.75807530013844,None,409.75807530013844,None,409.75807530013844,None,411.4712157301139,None,411.4712157301139,None,411.4712157301139,None,,,,,,,,,,,,,203,2023-03-27_17h15.43.672,Main,2022.1.1,59.99350872276989,
negative,negative,1,j,l,,,,,,,,,8,2,146,0,,,,,,,,,main,2,2,1,negative,negative,l,l,1,0.8481594999320805,411.47487500007264,412.48786280001514,412.47398160002194,None,411.47487500007264,None,411.47487500007264,None,411.47487500007264,None,413.3212659301236,None,413.3212659301236,None,413.3212659301236,None,,,,,,,,,,,,,203,2023-03-27_17h15.43.672,Main,2022.1.1,59.99350872276989,
positive,positive,1,l,j,,,,,,,,,8,3,147,2,,,,,,,,,main,1,1,1,positive,positive,j,j,1,0.6653142999857664,413.32821079995483,414.33784239995293,414.3073222001549,None,413.32821079995483,None,413.32821079995483,None,413.32821079995483,None,414.9878091300372,None,414.9878091300372,None,414.9878091300372,None,,,,,,,,,,,,,203,2023-03-27_17h15.43.672,Main,2022.1.1,59.99350872276989,
negative,neutral,1,j,l,,,,,,,,,8,4,148,3,,,,,,,,,main,2,2,1,neutral,negative,l,l,1,0.6315993999596685,414.9915211999323,416.00444460008293,415.9878432000987,None,414.9915211999323,None,414.9915211999323,None,414.9915211999323,None,416.62114203004165,None,416.62114203004165,None,416.62114203004165,None,,,,,,,,,,,,,203,2023-03-27_17h15.43.672,Main,2022.1.1,59.99350872276989,
neutral,neutral,1,k,k,,,,,,,,,8,5,149,1,,,,,,,,,main,2,2,1,neutral,neutral,k,k,1,0.6481250000651926,416.6245101999957,417.62390680005774,417.62390680005774,None,416.6245101999957,None,416.6245101999957,None,416.6245101999957,None,418.2711147300899,None,418.2711147300899,None,418.2711147300899,None,,,,,,,,,,,,,203,2023-03-27_17h15.43.672,Main,2022.1.1,59.99350872276989,
negative,negative,2,j,l,,,,,,,,,8,6,150,9,,,,,,,,,main,2,2,2,negative,negative,l,l,1,0.6819825998973101,418.28776440001093,419.28773740003817,419.2738296999596,None,418.28776440001093,None,418.28776440001093,None,418.28776440001093,None,419.9543527300004,None,419.9543527300004,None,419.9543527300004,None,,,,,,,,,,,,,203,2023-03-27_17h15.43.672,Main,2022.1.1,59.99350872276989,
positive,negative,2,l,j,,,,,,,,,8,7,151,14,,,,,,,,,main,1,1,2,negative,positive,j,j,1,0.6150236998219043,419.957392900018,420.9709981000051,420.93768310011365,None,419.957392900018,None,419.957392900018,None,419.957392900018,None,421.57105113011784,None,421.57105113011784,None,421.57105113011784,None,,,,,,,,,,,,,203,2023-03-27_17h15.43.672,Main,2022.1.1,59.99350872276989,
neutral,negative,2,k,k,,,,,,,,,8,8,152,16,,,,,,,,,main,2,2,2,negative,neutral,k,k,1,0.6315117999911308,421.5743011001032,422.57100809994154,422.5571747000795,None,421.5743011001032,None,421.5743011001032,None,421.5743011001032,None,423.20431163003667,None,423.20431163003667,None,423.20431163003667,None,,,,,,,,,,,,,203,2023-03-27_17h15.43.672,Main,2022.1.1,59.99350872276989,
positive,negative,1,l,j,,,,,,,,,8,9,153,5,,,,,,,,,main,1,1,1,negative,positive,j,j,1,0.7152786999940872,423.2209830000065,424.22097539994866,424.204436799977,None,423.2209830000065,None,423.2209830000065,None,423.2209830000065,None,424.92096763015724,None,424.92096763015724,None,424.92096763015724,None,,,,,,,,,,,,,203,2023-03-27_17h15.43.672,Main,2022.1.1,59.99350872276989,
positive,neutral,1,l,j,,,,,,,,,8,10,154,8,,,,,,,,,main,2,2,1,neutral,positive,j,j,1,0.6984463001135737,424.92491930001415,425.9375738000963,425.92368360003456,None,424.92491930001415,None,424.92491930001415,None,424.92491930001415,None,426.620913930051,None,426.620913930051,None,426.620913930051,None,,,,,,,,,,,,,203,2023-03-27_17h15.43.672,Main,2022.1.1,59.99350872276989,
neutral,negative,1,k,k,,,,,,,,,8,11,155,7,,,,,,,,,main,2,2,1,negative,neutral,k,k,1,0.7651933999732137,426.6240330999717,427.6375744000543,427.62090710015036,None,426.6240330999717,None,426.6240330999717,None,426.6240330999717,None,428.3876478299964,None,428.3876478299964,None,428.3876478299964,None,,,,,,,,,,,,,203,2023-03-27_17h15.43.672,Main,2022.1.1,59.99350872276989,
negative,positive,1,j,l,,,,,,,,,8,12,156,6,,,,,,,,,main,2,2,1,positive,negative,l,l,1,0.6150241999421269,428.3921066999901,429.40428979997523,429.387542600045,None,428.3921066999901,None,428.3921066999901,None,428.3921066999901,None,430.0041541299317,None,430.0041541299317,None,430.0041541299317,None,,,,,,,,,,,,,203,2023-03-27_17h15.43.672,Main,2022.1.1,59.99350872276989,
negative,positive,2,j,l,,,,,,,,,8,13,157,15,,,,,,,,,main,2,2,2,positive,negative,l,l,1,0.7150266000535339,430.00776219996624,431.004130900139,431.004130900139,None,430.00776219996624,None,430.00776219996624,None,430.00776219996624,None,431.7208087300416,None,431.7208087300416,None,431.7208087300416,None,,,,,,,,,,,,,203,2023-03-27_17h15.43.672,Main,2022.1.1,59.99350872276989,
positive,positive,2,l,j,,,,,,,,,8,14,158,11,,,,,,,,,main,2,2,2,positive,positive,j,j,1,0.6819640998728573,431.7245112999808,432.7374722000677,432.72080849995837,None,431.7245112999808,None,431.7245112999808,None,431.7245112999808,None,433.4041057299357,None,433.4041057299357,None,433.4041057299357,None,,,,,,,,,,,,,203,2023-03-27_17h15.43.672,Main,2022.1.1,59.99350872276989,
neutral,positive,1,k,k,,,,,,,,,8,15,159,4,,,,,,,,,main,1,1,1,positive,neutral,k,k,1,0.6645557000301778,433.4208599999547,434.420771199977,434.40685219992884,None,433.4208599999547,None,433.4208599999547,None,433.4208599999547,None,435.07074002996086,None,435.07074002996086,None,435.07074002996086,None,,,,,,,,,,,,,203,2023-03-27_17h15.43.672,Main,2022.1.1,59.99350872276989,
neutral,neutral,2,k,k,,,,,,,,,8,16,160,10,,,,,,,,,main,2,2,2,neutral,neutral,k,k,1,0.6476303997915238,435.0747372000478,436.08737880014814,436.0706993001513,None,435.0747372000478,None,435.0747372000478,None,435.0747372000478,None,436.72071933005935,None,436.72071933005935,None,436.72071933005935,None,,,,,,,,,,,,,203,2023-03-27_17h15.43.672,Main,2022.1.1,59.99350872276989,
neutral,positive,2,k,k,,,,,,,,,8,17,161,13,,,,,,,,,main,1,1,2,positive,neutral,k,k,1,0.5984668000601232,436.7240094000008,437.7400555999484,437.7235197001137,None,436.7240094000008,None,436.7240094000008,None,436.7240094000008,None,438.3207094299607,None,438.3207094299607,None,438.3207094299607,None,,,,,,,,,,,,,203,2023-03-27_17h15.43.672,Main,2022.1.1,59.99350872276989,
negative,neutral,1,j,l,,,,,,,,,9,0,162,3,,,,,,,,,main,2,2,1,neutral,negative,l,l,1,0.7319932000245899,438.3239023000933,439.32078250008635,439.32078250008635,None,438.3239023000933,None,438.3239023000933,None,438.3239023000933,None,440.054026929941,None,440.054026929941,None,440.054026929941,None,,,,,,,,,,,,,203,2023-03-27_17h15.43.672,Main,2022.1.1,59.99350872276989,
neutral,negative,2,k,k,,,,,,,,,9,1,163,16,,,,,,,,,main,2,2,2,negative,neutral,k,k,1,0.6145554000977427,440.05760039994493,441.0706047001295,441.05377719993703,None,440.05760039994493,None,440.05760039994493,None,440.05760039994493,None,441.6704188299365,None,441.6704188299365,None,441.6704188299365,None,,,,,,,,,,,,,203,2023-03-27_17h15.43.672,Main,2022.1.1,59.99350872276989,
positive,negative,2,l,j,,,,,,,,,9,2,164,14,,,,,,,,,main,1,1,2,negative,positive,j,j,1,0.6816418999806046,441.67655079998076,442.6872799999546,442.67061410006136,None,441.67655079998076,None,441.67655079998076,None,441.67655079998076,None,443.3536924301181,None,443.3536924301181,None,443.3536924301181,None,,,,,,,,,,,,,203,2023-03-27_17h15.43.672,Main,2022.1.1,59.99350872276989,
neutral,positive,1,k,k,,,,,,,,,9,3,165,4,,,,,,,,,main,2,2,1,positive,neutral,k,k,1,0.6487914000172168,443.3602797000203,444.3705553000327,444.3372371001169,None,443.3602797000203,None,443.3602797000203,None,443.3602797000203,None,445.0040941299405,None,445.0040941299405,None,445.0040941299405,None,,,,,,,,,,,,,203,2023-03-27_17h15.43.672,Main,2022.1.1,59.99350872276989,
neutral,neutral,1,k,k,,,,,,,,,9,4,166,1,,,,,,,,,main,1,1,1,neutral,neutral,k,k,1,0.614839700050652,445.01041230000556,446.02055960008875,446.00398089992814,None,445.01041230000556,None,445.01041230000556,None,445.01041230000556,None,446.6206265299581,None,446.6206265299581,None,446.6206265299581,None,,,,,,,,,,,,,203,2023-03-27_17h15.43.672,Main,2022.1.1,59.99350872276989,
negative,positive,2,j,l,,,,,,,,,9,5,167,15,,,,,,,,,main,2,2,2,positive,negative,l,l,1,0.6147598000243306,446.62378929997794,447.6205190999899,447.60668130009435,None,446.62378929997794,None,446.62378929997794,None,446.62378929997794,None,448.2368996299803,None,448.2368996299803,None,448.2368996299803,None,,,,,,,,,,,,,203,2023-03-27_17h15.43.672,Main,2022.1.1,59.99350872276989,
positive,negative,1,l,j,,,,,,,,,9,6,168,5,,,,,,,,,main,2,2,1,negative,positive,j,j,1,0.7652914000209421,448.2434592000209,449.25381070002913,449.237134099938,None,448.2434592000209,None,448.2434592000209,None,448.2434592000209,None,450.0038027300499,None,450.0038027300499,None,450.0038027300499,None,,,,,,,,,,,,,203,2023-03-27_17h15.43.672,Main,2022.1.1,59.99350872276989,
positive,neutral,1,l,j,,,,,,,,,9,7,169,8,,,,,,,,,main,2,2,1,neutral,positive,j,j,1,0.5980966000352055,450.0073404000141,451.0204436001368,451.003853400005,None,450.0073404000141,None,450.0073404000141,None,450.0073404000141,None,451.60378332999534,None,451.60378332999534,None,451.60378332999534,None,,,,,,,,,,,,,203,2023-03-27_17h15.43.672,Main,2022.1.1,59.99350872276989,
negative,positive,1,j,l,,,,,,,,,9,8,170,6,,,,,,,,,main,2,2,1,positive,negative,l,l,1,0.6978529000189155,451.6077674999833,452.62312899995595,452.603751800023,None,451.6077674999833,None,451.6077674999833,None,451.6077674999833,None,453.30376473004,None,453.30376473004,None,453.30376473004,None,,,,,,,,,,,,,203,2023-03-27_17h15.43.672,Main,2022.1.1,59.99350872276989,
positive,positive,1,l,j,,,,,,,,,9,9,171,2,,,,,,,,,main,1,1,1,positive,positive,j,j,1,0.648471700027585,453.32057849993,454.3231272001285,454.303697100142,None,453.32057849993,None,453.32057849993,None,453.32057849993,None,454.95373763008973,None,454.95373763008973,None,454.95373763008973,None,,,,,,,,,,,,,203,2023-03-27_17h15.43.672,Main,2022.1.1,59.99350872276989,
neutral,positive,2,k,k,,,,,,,,,9,10,172,13,,,,,,,,,main,1,1,2,positive,neutral,k,k,1,0.6648312001489103,454.9703530999832,455.97035320010036,455.95658789994195,None,454.9703530999832,None,454.9703530999832,None,454.9703530999832,None,456.62035372997633,None,456.62035372997633,None,456.62035372997633,None,,,,,,,,,,,,,203,2023-03-27_17h15.43.672,Main,2022.1.1,59.99350872276989,
negative,negative,2,j,l,,,,,,,,,9,11,173,9,,,,,,,,,main,1,1,2,negative,negative,l,l,1,0.7483455000910908,456.62374119996093,457.6203179000877,457.6203179000877,None,456.62374119996093,None,456.62374119996093,None,456.62374119996093,None,458.3704478301108,None,458.3704478301108,None,458.3704478301108,None,,,,,,,,,,,,,203,2023-03-27_17h15.43.672,Main,2022.1.1,59.99350872276989,
negative,neutral,2,j,l,,,,,,,,,9,12,174,12,,,,,,,,,main,1,1,2,neutral,negative,l,l,1,0.9152983999811113,458.37363149994053,459.3703414001502,459.3703414001502,None,458.37363149994053,None,458.37363149994053,None,458.37363149994053,None,460.2869314300362,None,460.2869314300362,None,460.2869314300362,None,,,,,,,,,,,,,203,2023-03-27_17h15.43.672,Main,2022.1.1,59.99350872276989,
positive,positive,2,l,j,,,,,,,,,9,13,175,11,,,,,,,,,main,2,2,2,positive,positive,j,j,1,0.681376000167802,460.2906663999893,461.30628200015053,461.28687330009416,None,460.2906663999893,None,460.2906663999893,None,460.2906663999893,None,461.9702317300718,None,461.9702317300718,None,461.9702317300718,None,,,,,,,,,,,,,203,2023-03-27_17h15.43.672,Main,2022.1.1,59.99350872276989,
neutral,negative,1,k,k,,,,,,,,,9,14,176,7,,,,,,,,,main,2,2,1,negative,neutral,k,k,1,0.6489261998794973,461.9742984001059,462.9895788000431,462.9702155000996,None,461.9742984001059,None,461.9742984001059,None,461.9742984001059,None,463.62031743004917,None,463.62031743004917,None,463.62031743004917,None,,,,,,,,,,,,,203,2023-03-27_17h15.43.672,Main,2022.1.1,59.99350872276989,
neutral,neutral,2,k,k,,,,,,,,,9,15,177,10,,,,,,,,,main,1,1,2,neutral,neutral,k,k,1,0.5641056001186371,463.62407359993085,464.63969450001605,464.6202134999912,None,463.62407359993085,None,463.62407359993085,None,463.62407359993085,None,465.1866222301498,None,465.1866222301498,None,465.1866222301498,None,,,,,,,,,,,,,203,2023-03-27_17h15.43.672,Main,2022.1.1,59.99350872276989,
positive,neutral,2,l,j,,,,,,,,,9,16,178,17,,,,,,,,,main,1,1,2,neutral,positive,j,j,1,0.6811626001726836,465.1937893999275,466.2035940999631,466.18961420003325,None,465.1937893999275,None,465.1937893999275,None,465.1937893999275,None,466.8701546299737,None,466.8701546299737,None,466.8701546299737,None,,,,,,,,,,,,,203,2023-03-27_17h15.43.672,Main,2022.1.1,59.99350872276989,
negative,negative,1,j,l,,,,,,,,,9,17,179,0,,,,,,,,,main,1,1,1,negative,negative,l,l,1,0.7317394998390228,466.8731965001207,467.8867506000679,467.87013319996186,None,466.8731965001207,None,466.8731965001207,None,466.8731965001207,None,468.6034344300162,None,468.6034344300162,None,468.6034344300162,None,,,,,,,,,,,,,203,2023-03-27_17h15.43.672,Main,2022.1.1,59.99350872276989,
negative,neutral,1,j,l,,,,,,,,,10,0,180,3,,,,,,,,,main,2,2,1,neutral,negative,l,l,1,0.7315514001529664,468.6073303001467,469.62007950013503,469.6034121999983,None,468.6073303001467,None,468.6073303001467,None,468.6073303001467,None,470.33668023003264,None,470.33668023003264,None,470.33668023003264,None,,,,,,,,,,,,,203,2023-03-27_17h15.43.672,Main,2022.1.1,59.99350872276989,
negative,negative,1,j,l,,,,,,,,,10,1,181,0,,,,,,,,,main,2,2,1,negative,negative,l,l,1,0.6318817001301795,470.3407054001,471.3533425000496,471.3394857000094,None,470.3407054001,None,470.3407054001,None,470.3407054001,None,471.97005122997797,None,471.97005122997797,None,471.97005122997797,None,,,,,,,,,,,,,203,2023-03-27_17h15.43.672,Main,2022.1.1,59.99350872276989,
negative,negative,2,j,l,,,,,,,,,10,2,182,9,,,,,,,,,main,1,1,2,negative,negative,l,l,1,0.6986794001422822,471.9731503999792,472.9866736000404,472.9728288000915,None,471.9731503999792,None,471.9731503999792,None,471.9731503999792,None,473.6700368300546,None,473.6700368300546,None,473.6700368300546,None,,,,,,,,,,,,,203,2023-03-27_17h15.43.672,Main,2022.1.1,59.99350872276989,
positive,neutral,1,l,j,,,,,,,,,10,3,183,8,,,,,,,,,main,2,2,1,neutral,positive,j,j,1,0.7648736999835819,473.68677960010245,474.68664989992976,474.669970799936,None,473.68677960010245,None,473.68677960010245,None,473.68677960010245,None,475.43664272995665,None,475.43664272995665,None,475.43664272995665,None,,,,,,,,,,,,,203,2023-03-27_17h15.43.672,Main,2022.1.1,59.99350872276989,
neutral,positive,2,k,k,,,,,,,,,10,4,184,13,,,,,,,,,main,1,1,2,positive,neutral,k,k,1,0.6649742000736296,475.44027419993654,476.453288000077,476.43658889993094,None,475.44027419993654,None,475.44027419993654,None,475.44027419993654,None,477.1032882300671,None,477.1032882300671,None,477.1032882300671,None,,,,,,,,,,,,,203,2023-03-27_17h15.43.672,Main,2022.1.1,59.99350872276989,
neutral,negative,1,k,k,,,,,,,,,10,5,185,7,,,,,,,,,main,1,1,1,negative,neutral,k,k,1,0.614755199989304,477.1071661999449,478.12004860001616,478.10602850001305,None,477.1071661999449,None,477.1071661999449,None,477.1071661999449,None,478.7198654299602,None,478.7198654299602,None,478.7198654299602,None,,,,,,,,,,,,,203,2023-03-27_17h15.43.672,Main,2022.1.1,59.99350872276989,
positive,positive,1,l,j,,,,,,,,,10,6,186,2,,,,,,,,,main,2,2,1,positive,positive,j,j,1,0.7828718000091612,478.72391690011136,479.7365560999606,479.7032167001162,None,478.72391690011136,None,478.72391690011136,None,478.72391690011136,None,480.503218430141,None,480.503218430141,None,480.503218430141,None,,,,,,,,,,,,,203,2023-03-27_17h15.43.672,Main,2022.1.1,59.99350872276989,
positive,negative,1,l,j,,,,,,,,,10,7,187,5,,,,,,,,,main,2,2,1,negative,positive,j,j,1,1.1309249999467283,480.50744860013947,481.5198562000878,481.5060016999487,None,480.50744860013947,None,480.50744860013947,None,480.50744860013947,None,482.6365014301147,None,482.6365014301147,None,482.6365014301147,None,,,,,,,,,,,,,203,2023-03-27_17h15.43.672,Main,2022.1.1,59.99350872276989,
neutral,neutral,1,k,k,,,,,,,,,10,8,188,1,,,,,,,,,main,2,2,1,neutral,neutral,k,k,1,0.71739980019629,482.640475400025,483.65314600011334,483.63926300010644,None,482.640475400025,None,482.640475400025,None,482.640475400025,None,484.35581973013467,None,484.35581973013467,None,484.35581973013467,None,,,,,,,,,,,,,203,2023-03-27_17h15.43.672,Main,2022.1.1,59.99350872276989,
positive,neutral,2,l,j,,,,,,,,,10,9,189,17,,,,,,,,,main,2,2,2,neutral,positive,j,j,1,0.7122841000091285,484.35946230008267,485.36974380002357,485.35307150008157,None,484.35946230008267,None,484.35946230008267,None,484.35946230008267,None,486.0697555300314,None,486.0697555300314,None,486.0697555300314,None,,,,,,,,,,,,,203,2023-03-27_17h15.43.672,Main,2022.1.1,59.99350872276989,
negative,neutral,2,j,l,,,,,,,,,10,10,190,12,,,,,,,,,main,2,2,2,neutral,negative,l,l,1,0.7486016999464482,486.0733922999352,487.08641400001943,487.0530739999376,None,486.0733922999352,None,486.0733922999352,None,486.0733922999352,None,487.8197322299704,None,487.8197322299704,None,487.8197322299704,None,,,,,,,,,,,,,203,2023-03-27_17h15.43.672,Main,2022.1.1,59.99350872276989,
negative,positive,2,j,l,,,,,,,,,10,11,191,15,,,,,,,,,main,2,2,2,positive,negative,l,l,1,0.7317611000034958,487.8237517999951,488.83638170012273,488.8197139999829,None,487.8237517999951,None,487.8237517999951,None,487.8237517999951,None,489.5530181299429,None,489.5530181299429,None,489.5530181299429,None,,,,,,,,,,,,,203,2023-03-27_17h15.43.672,Main,2022.1.1,59.99350872276989,
neutral,positive,1,k,k,,,,,,,,,10,12,192,4,,,,,,,,,main,2,2,1,positive,neutral,k,k,1,0.7149666000623256,489.5578437000513,490.56967180012725,490.55582519993186,None,489.5578437000513,None,489.5578437000513,None,489.5578437000513,None,491.26968333013355,None,491.26968333013355,None,491.26968333013355,None,,,,,,,,,,,,,203,2023-03-27_17h15.43.672,Main,2022.1.1,59.99350872276989,
neutral,neutral,2,k,k,,,,,,,,,10,13,193,10,,,,,,,,,main,1,1,2,neutral,neutral,k,k,1,0.6817675000056624,491.2863849999849,492.28626450011507,492.2724367999472,None,491.2863849999849,None,491.2863849999849,None,491.2863849999849,None,492.9529362300411,None,492.9529362300411,None,492.9529362300411,None,,,,,,,,,,,,,203,2023-03-27_17h15.43.672,Main,2022.1.1,59.99350872276989,
positive,positive,2,l,j,,,,,,,,,10,14,194,11,,,,,,,,,main,2,2,2,positive,positive,j,j,1,0.6485185001511127,492.95612170011736,493.972188499989,493.95300920004956,None,492.95612170011736,None,492.95612170011736,None,492.95612170011736,None,494.60291323000564,None,494.60291323000564,None,494.60291323000564,None,,,,,,,,,,,,,203,2023-03-27_17h15.43.672,Main,2022.1.1,59.99350872276989,
negative,positive,1,j,l,,,,,,,,,10,15,195,6,,,,,,,,,main,1,1,1,positive,negative,l,l,1,0.7485762999858707,494.60615300014615,495.6029046999756,495.6029046999756,None,494.60615300014615,None,494.60615300014615,None,494.60615300014615,None,496.35289352997205,None,496.35289352997205,None,496.35289352997205,None,,,,,,,,,,,,,203,2023-03-27_17h15.43.672,Main,2022.1.1,59.99350872276989,
positive,negative,2,l,j,,,,,,,,,10,16,196,14,,,,,,,,,main,1,1,2,negative,positive,j,j,1,0.7813375999685377,496.3562450001482,497.3695127000101,497.35284669999965,None,496.3562450001482,None,496.3562450001482,None,496.3562450001482,None,498.13596013006753,None,498.13596013006753,None,498.13596013006753,None,,,,,,,,,,,,,203,2023-03-27_17h15.43.672,Main,2022.1.1,59.99350872276989,
neutral,negative,2,k,k,,,,,,,,,10,17,197,16,,,,,,,,,main,1,1,2,negative,neutral,k,k,1,0.6487732999958098,498.13962110015564,499.1528239999898,499.136302200146,None,498.13962110015564,None,498.13962110015564,None,498.13962110015564,None,499.78616983005776,None,499.78616983005776,None,499.78616983005776,None,,,,,,,,,,,,,203,2023-03-27_17h15.43.672,Main,2022.1.1,59.99350872276989,
positive,neutral,1,l,j,,,,,,,,,11,0,198,8,,,,,,,,,main,2,2,1,neutral,positive,j,j,1,0.6830710999201983,499.789772399934,500.8027959000319,500.7861337000504,None,499.789772399934,None,499.789772399934,None,499.789772399934,None,501.47109503000974,None,501.47109503000974,None,501.47109503000974,None,,,,,,,,,,,,,203,2023-03-27_17h15.43.672,Main,2022.1.1,59.99350872276989,
neutral,neutral,1,k,k,,,,,,,,,11,1,199,1,,,,,,,,,main,1,1,1,neutral,neutral,k,k,1,0.6134463998023421,501.47667260002345,502.4860744001344,502.46937569999136,None,501.47667260002345,None,501.47667260002345,None,501.47667260002345,None,503.0861042300705,None,503.0861042300705,None,503.0861042300705,None,,,,,,,,,,,,,203,2023-03-27_17h15.43.672,Main,2022.1.1,59.99350872276989,
neutral,positive,2,k,k,,,,,,,,,11,2,200,13,,,,,,,,,main,1,1,2,positive,neutral,k,k,1,0.5669091998133808,503.08931319997646,504.10275360010564,504.06939650001004,None,503.08931319997646,None,503.08931319997646,None,503.08931319997646,None,504.6537935301196,None,504.6537935301196,None,504.6537935301196,None,,,,,,,,,,,,,203,2023-03-27_17h15.43.672,Main,2022.1.1,59.99350872276989,
neutral,negative,2,k,k,,,,,,,,,11,3,201,16,,,,,,,,,main,1,1,2,negative,neutral,k,k,1,0.5971727001015097,504.66010960005224,505.67212580004707,505.6555131999776,None,504.66010960005224,None,504.66010960005224,None,504.66010960005224,None,506.252961129928,None,506.252961129928,None,506.252961129928,None,,,,,,,,,,,,,203,2023-03-27_17h15.43.672,Main,2022.1.1,59.99350872276989,
positive,negative,1,l,j,,,,,,,,,11,4,202,5,,,,,,,,,main,1,1,1,negative,positive,j,j,1,0.6507033000234514,506.25762640009634,507.2694029000122,507.25267180008814,None,506.25762640009634,None,506.25762640009634,None,506.25762640009634,None,507.90553402998484,None,507.90553402998484,None,507.90553402998484,None,,,,,,,,,,,,,203,2023-03-27_17h15.43.672,Main,2022.1.1,59.99350872276989,
neutral,negative,1,k,k,,,,,,,,,11,5,203,7,,,,,,,,,main,2,2,1,negative,neutral,k,k,1,0.5786456000059843,507.9087310000323,508.91930810012855,508.90263030002825,None,507.9087310000323,None,507.9087310000323,None,507.9087310000323,None,509.4856818300206,None,509.4856818300206,None,509.4856818300206,None,,,,,,,,,,,,,203,2023-03-27_17h15.43.672,Main,2022.1.1,59.99350872276989,
positive,positive,1,l,j,,,,,,,,,11,6,204,2,,,,,,,,,main,2,2,1,positive,positive,j,j,1,0.6651892999652773,509.48951350012794,510.5052760001272,510.4886861999985,None,509.48951350012794,None,509.48951350012794,None,509.48951350012794,None,511.15261372998356,None,511.15261372998356,None,511.15261372998356,None,,,,,,,,,,,,,203,2023-03-27_17h15.43.672,Main,2022.1.1,59.99350872276989,
negative,negative,1,j,l,,,,,,,,,11,7,205,0,,,,,,,,,main,2,2,1,negative,negative,l,l,1,0.7817483998369426,511.1561900000088,512.1525427999441,512.1525427999441,None,511.1561900000088,None,511.1561900000088,None,511.1561900000088,None,512.9359041301534,None,512.9359041301534,None,512.9359041301534,None,,,,,,,,,,,,,203,2023-03-27_17h15.43.672,Main,2022.1.1,59.99350872276989,
negative,neutral,2,j,l,,,,,,,,,11,8,206,12,,,,,,,,,main,2,2,2,neutral,negative,l,l,1,0.6818506999406964,512.9395812000148,513.9386502001435,513.9386502001435,None,512.9395812000148,None,512.9395812000148,None,512.9395812000148,None,514.6194064300973,None,514.6194064300973,None,514.6194064300973,None,,,,,,,,,,,,,203,2023-03-27_17h15.43.672,Main,2022.1.1,59.99350872276989,
positive,negative,2,l,j,,,,,,,,,11,9,207,14,,,,,,,,,main,2,2,2,negative,positive,j,j,1,0.648334100143984,514.6230959000532,515.6355928999837,515.6219657999463,None,514.6230959000532,None,514.6230959000532,None,514.6230959000532,None,516.2693123301026,None,516.2693123301026,None,516.2693123301026,None,,,,,,,,,,,,,203,2023-03-27_17h15.43.672,Main,2022.1.1,59.99350872276989,
negative,negative,2,j,l,,,,,,,,,11,10,208,9,,,,,,,,,main,2,2,2,negative,negative,l,l,1,0.7812824000138789,516.2727793001104,517.2858146999497,517.2691385999788,None,516.2727793001104,None,516.2727793001104,None,516.2727793001104,None,518.0524463300128,None,518.0524463300128,None,518.0524463300128,None,,,,,,,,,,,,,203,2023-03-27_17h15.43.672,Main,2022.1.1,59.99350872276989,
negative,neutral,1,j,l,,,,,,,,,11,11,209,3,,,,,,,,,main,2,2,1,neutral,negative,l,l,1,0.832391900010407,518.055777200032,519.0552457000595,519.0552457000595,None,518.055777200032,None,518.055777200032,None,518.055777200032,None,519.8860569301062,None,519.8860569301062,None,519.8860569301062,None,,,,,,,,,,,,,203,2023-03-27_17h15.43.672,Main,2022.1.1,59.99350872276989,
positive,positive,2,l,j,,,,,,,,,11,12,210,11,,,,,,,,,main,1,1,2,positive,positive,j,j,1,0.6974786999635398,519.889718499966,520.9023980000056,520.8857378000394,None,519.889718499966,None,519.889718499966,None,519.889718499966,None,521.5854457300622,None,521.5854457300622,None,521.5854457300622,None,,,,,,,,,,,,,203,2023-03-27_17h15.43.672,Main,2022.1.1,59.99350872276989,
positive,neutral,2,l,j,,,,,,,,,11,13,211,17,,,,,,,,,main,2,2,2,neutral,positive,j,j,1,0.5829808998387307,521.5888843000866,522.6023325000424,522.5857728000265,None,521.5888843000866,None,521.5888843000866,None,521.5888843000866,None,523.1690409300384,None,523.1690409300384,None,523.1690409300384,None,,,,,,,,,,,,,203,2023-03-27_17h15.43.672,Main,2022.1.1,59.99350872276989,
neutral,neutral,2,k,k,,,,,,,,,11,14,212,10,,,,,,,,,main,2,2,2,neutral,neutral,k,k,1,0.7640589999500662,523.1733469001483,524.1857774001546,524.1717990001198,None,523.1733469001483,None,523.1733469001483,None,523.1733469001483,None,524.9356380301062,None,524.9356380301062,None,524.9356380301062,None,,,,,,,,,,,,,203,2023-03-27_17h15.43.672,Main,2022.1.1,59.99350872276989,
negative,positive,2,j,l,,,,,,,,,11,15,213,15,,,,,,,,,main,1,1,2,positive,negative,l,l,1,0.7149704000912607,524.9523106000852,525.9522991999984,525.9356242001522,None,524.9523106000852,None,524.9523106000852,None,524.9523106000852,None,526.6522777299863,None,526.6522777299863,None,526.6522777299863,None,,,,,,,,,,,,,203,2023-03-27_17h15.43.672,Main,2022.1.1,59.99350872276989,
neutral,positive,1,k,k,,,,,,,,,11,16,214,4,,,,,,,,,main,2,2,1,positive,neutral,k,k,1,0.6982303999830037,526.6558632000815,527.6688926999923,527.6523941999767,None,526.6558632000815,None,526.6558632000815,None,526.6558632000815,None,528.3522431301419,None,528.3522431301419,None,528.3522431301419,None,,,,,,,,,,,,,203,2023-03-27_17h15.43.672,Main,2022.1.1,59.99350872276989,
negative,positive,1,j,l,,,,,,,,,11,17,215,6,,,,,,,,,main,1,1,1,positive,negative,l,l,1,0.8478264000732452,528.3690005000681,529.3689073999412,529.3522316999733,None,528.3690005000681,None,528.3690005000681,None,528.3690005000681,None,530.2021952299867,None,530.2021952299867,None,530.2021952299867,None,,,,,,,,,,,,,203,2023-03-27_17h15.43.672,Main,2022.1.1,59.99350872276989,
positive,positive,1,l,j,,,,,,,,,12,0,216,2,,,,,,,,,main,2,2,1,positive,positive,j,j,1,0.6649213000200689,530.2059365001041,531.2217036001384,531.2021920001134,None,530.2059365001041,None,530.2059365001041,None,530.2059365001041,None,531.8688860300929,None,531.8688860300929,None,531.8688860300929,None,,,,,,,,,,,,,203,2023-03-27_17h15.43.672,Main,2022.1.1,59.99350872276989,
neutral,neutral,1,k,k,,,,,,,,,12,1,217,1,,,,,,,,,main,1,1,1,neutral,neutral,k,k,1,0.6317888998892158,531.8720418000594,532.8883845000528,532.8688209999818,None,531.8720418000594,None,531.8720418000594,None,531.8720418000594,None,533.5023190300446,None,533.5023190300446,None,533.5023190300446,None,,,,,,,,,,,,,203,2023-03-27_17h15.43.672,Main,2022.1.1,59.99350872276989,
neutral,negative,1,k,k,,,,,,,,,12,2,218,7,,,,,,,,,main,2,2,1,negative,neutral,k,k,1,0.648593100020662,533.505351100117,534.5021037000697,534.488149800105,None,533.505351100117,None,533.505351100117,None,533.505351100117,None,535.1523103300017,None,535.1523103300017,None,535.1523103300017,None,,,,,,,,,,,,,203,2023-03-27_17h15.43.672,Main,2022.1.1,59.99350872276989,
negative,negative,2,j,l,,,,,,,,,12,3,219,9,,,,,,,,,main,2,2,2,negative,negative,l,l,1,0.6982543000485748,535.1555967000313,536.1687237001024,536.1520744999871,None,535.1555967000313,None,535.1555967000313,None,535.1555967000313,None,536.8521133300849,None,536.8521133300849,None,536.8521133300849,None,,,,,,,,,,,,,203,2023-03-27_17h15.43.672,Main,2022.1.1,59.99350872276989,
neutral,negative,2,k,k,,,,,,,,,12,4,220,16,,,,,,,,,main,1,1,2,negative,neutral,k,k,1,0.683293400099501,536.8555745999329,537.8687428000849,537.8521889001131,None,536.8555745999329,None,536.8555745999329,None,536.8555745999329,None,538.5354156301357,None,538.5354156301357,None,538.5354156301357,None,,,,,,,,,,,,,203,2023-03-27_17h15.43.672,Main,2022.1.1,59.99350872276989,
negative,neutral,2,j,l,,,,,,,,,12,5,221,12,,,,,,,,,main,2,2,2,neutral,negative,l,l,1,0.7800996999721974,538.5402027000673,539.5520298001356,539.535368999932,None,538.5402027000673,None,538.5402027000673,None,538.5402027000673,None,540.3187013301533,None,540.3187013301533,None,540.3187013301533,None,,,,,,,,,,,,,203,2023-03-27_17h15.43.672,Main,2022.1.1,59.99350872276989,
positive,neutral,1,l,j,,,,,,,,,12,6,222,8,,,,,,,,,main,2,2,1,neutral,positive,j,j,1,0.6649284998420626,540.3222012000624,541.318667500047,541.318667500047,None,540.3222012000624,None,540.3222012000624,None,540.3222012000624,None,541.9853424299974,None,541.9853424299974,None,541.9853424299974,None,,,,,,,,,,,,,203,2023-03-27_17h15.43.672,Main,2022.1.1,59.99350872276989,
positive,positive,2,l,j,,,,,,,,,12,7,223,11,,,,,,,,,main,2,2,2,positive,positive,j,j,1,0.6646896000020206,541.9891204999294,543.0019634000491,542.9853700001258,None,541.9891204999294,None,541.9891204999294,None,541.9891204999294,None,543.6519316300285,None,543.6519316300285,None,543.6519316300285,None,,,,,,,,,,,,,203,2023-03-27_17h15.43.672,Main,2022.1.1,59.99350872276989,
neutral,positive,2,k,k,,,,,,,,,12,8,224,13,,,,,,,,,main,2,2,2,positive,neutral,k,k,1,0.6821844999212772,543.6685745001305,544.668551800074,544.6519025000744,None,543.6685745001305,None,543.6685745001305,None,543.6685745001305,None,545.3352529299912,None,545.3352529299912,None,545.3352529299912,None,,,,,,,,,,,,,203,2023-03-27_17h15.43.672,Main,2022.1.1,59.99350872276989,
