target,distractor,set,ans1,ans2,rep_loop2.thisRepN,rep_loop2.thisTrialN,rep_loop2.thisN,rep_loop2.thisIndex,flanker_prac_loop.thisRepN,flanker_prac_loop.thisTrialN,flanker_prac_loop.thisN,flanker_prac_loop.thisIndex,flanker_main_loop.thisRepN,flanker_main_loop.thisTrialN,flanker_main_loop.thisN,flanker_main_loop.thisIndex,fl_inst_resp.keys,fl_inst_resp.rt,sound_1.started,sound_1.stopped,image_4.started,image_4.stopped,back_2.started,back_2.stopped,main_prac,fl_cold,fl_colt,fl_set,fl_dcond,fl_tcond,fl_ans,fl_res,fl_corr,fl_rt,fix_fl.started,fix_fl.stopped,targ.started,targ.stopped,j_button.started,j_button.stopped,k_button.started,k_button.stopped,l_button.started,l_button.stopped,j_button2.started,j_button2.stopped,k_button2.started,k_button2.stopped,l_button2.started,l_button2.stopped,mainback.started,mainback.stopped,key_resp.keys,key_resp.rt,mouse_6.x,mouse_6.y,mouse_6.leftButton,mouse_6.midButton,mouse_6.rightButton,mouse_6.started,mouse_6.stopped,text_2.started,text_2.stopped,id*,date,expName,psychopyVersion,frameRate,
,,,,,0,0,0,0,,,,,,,,,space,54.81942389998585,59.186365870037115,None,114.03222889988683,None,,,,,,,,,,,,,,,,,,,,,,,,,,,,,,,,,,,,,,,,,,204,2023-03-28_14h44.36.071,Main,2022.1.1,58.98459200445998,
positive,negative,2,l,j,,,,,0,0,0,14,,,,,,,,,,,118.23514999984764,None,prac,1,1,2,negative,positive,l,l,1,2.4851605999283493,120.24980270001106,121.24902680004016,121.23236249992624,None,120.24980270001106,None,120.24980270001106,None,120.24980270001106,None,123.73599199997261,None,123.73599199997261,None,123.73599199997261,None,,,,,,,,,,,,,,204,2023-03-28_14h44.36.071,Main,2022.1.1,58.98459200445998,
negative,negative,1,j,l,,,,,0,1,1,0,,,,,,,,,,,,,prac,1,1,1,negative,negative,j,k,0,1.334024199983105,124.73389160004444,125.74895289982669,125.7156226998195,None,124.73389160004444,None,124.73389160004444,None,124.73389160004444,None,127.0655650999397,None,127.0655650999397,None,127.0655650999397,None,,,,,,,,,,,,,,204,2023-03-28_14h44.36.071,Main,2022.1.1,58.98459200445998,
positive,negative,1,l,j,,,,,0,2,2,5,,,,,,,,,,,,,prac,1,1,1,negative,positive,l,k,0,0.9678108999505639,128.06648659985512,129.0655306999106,129.05169769981876,None,128.06648659985512,None,128.06648659985512,None,128.06648659985512,None,130.0321753998287,None,130.0321753998287,None,130.0321753998287,None,,,,,,,,,,,,,,204,2023-03-28_14h44.36.071,Main,2022.1.1,58.98459200445998,
positive,positive,2,l,j,,,,,0,3,3,11,,,,,,,,,,,,,prac,1,1,2,positive,positive,l,l,1,0.8841119999997318,131.03313099988736,132.03214689996094,132.01830399991013,None,131.03313099988736,None,131.03313099988736,None,131.03313099988736,None,132.91543786993716,None,132.91543786993716,None,132.91543786993716,None,,,,,,,,,,,,,,204,2023-03-28_14h44.36.071,Main,2022.1.1,58.98459200445998,
neutral,negative,2,k,k,,,,,0,4,4,16,,,,,,,,,,,,,prac,2,2,2,negative,neutral,k,k,1,1.165537100052461,132.93498829985037,133.94877050002106,133.91561029991135,None,132.93498829985037,None,132.93498829985037,None,132.93498829985037,None,135.0820660700323,None,135.0820660700323,None,135.0820660700323,None,,,,,,,,,,,,,,204,2023-03-28_14h44.36.071,Main,2022.1.1,58.98459200445998,
negative,neutral,2,j,l,,,,,0,5,5,12,,,,,,,,,,,,,prac,1,1,2,neutral,negative,j,j,1,1.1144993000198156,135.10154860001057,136.11804630002007,136.08208870003,None,135.10154860001057,None,135.10154860001057,None,135.10154860001057,None,137.19867716983427,None,137.19867716983427,None,137.19867716983427,None,,,,,,,,,,,,,,204,2023-03-28_14h44.36.071,Main,2022.1.1,58.98459200445998,
negative,neutral,1,j,l,,,,,0,6,6,3,,,,,,,,,,,,,prac,2,2,1,neutral,negative,j,j,1,1.864878399996087,137.2044128999114,138.21536699985154,138.19868819997646,None,137.2044128999114,None,137.2044128999114,None,137.2044128999114,None,140.06529619987123,None,140.06529619987123,None,140.06529619987123,None,,,,,,,,,,,,,,204,2023-03-28_14h44.36.071,Main,2022.1.1,58.98459200445998,
negative,positive,1,j,l,,,,,0,7,7,6,,,,,,,,,,,,,prac,2,2,1,positive,negative,j,j,1,1.5010591000318527,141.06645629997365,142.08195189991966,142.04861629987136,None,141.06645629997365,None,141.06645629997365,None,141.06645629997365,None,143.56543279998004,None,143.56543279998004,None,143.56543279998004,None,,,,,,,,,,,,,,204,2023-03-28_14h44.36.071,Main,2022.1.1,58.98459200445998,
neutral,positive,1,k,k,,,,,0,8,8,4,,,,,,,,,,,,,prac,1,1,1,positive,neutral,k,k,1,0.7844329001381993,144.56626079999842,145.58470509992912,145.54856869997457,None,144.56626079999842,None,144.56626079999842,None,144.56626079999842,None,146.34855506985915,None,146.34855506985915,None,146.34855506985915,None,,,,,,,,,,,,,,204,2023-03-28_14h44.36.071,Main,2022.1.1,58.98459200445998,
positive,neutral,1,l,j,,,,,0,9,9,8,,,,,,,,,,,,,prac,1,1,1,neutral,positive,l,l,1,0.9486792001407593,146.35407210001722,147.36517439992167,147.34851949987933,None,146.35407210001722,None,146.35407210001722,None,146.35407210001722,None,148.29879196987022,None,148.29879196987022,None,148.29879196987022,None,,,,,,,,,,,,,,204,2023-03-28_14h44.36.071,Main,2022.1.1,58.98459200445998,
neutral,negative,1,k,k,,,,,0,10,10,7,,,,,,,,,,,,,prac,2,2,1,negative,neutral,k,k,1,1.0013276999816298,148.30413629999384,149.31789899989963,149.29848709981889,None,148.30413629999384,None,148.30413629999384,None,148.30413629999384,None,150.3013549698284,None,150.3013549698284,None,150.3013549698284,None,,,,,,,,,,,,,,204,2023-03-28_14h44.36.071,Main,2022.1.1,58.98459200445998,
positive,neutral,2,l,j,,,,,0,11,11,17,,,,,,,,,,,,,prac,1,1,2,neutral,positive,l,l,1,0.7957047999370843,150.30591330002062,151.3151020000223,151.29842510004528,None,150.30591330002062,None,150.30591330002062,None,150.30591330002062,None,152.09838686997537,None,152.09838686997537,None,152.09838686997537,None,,,,,,,,,,,,,,204,2023-03-28_14h44.36.071,Main,2022.1.1,58.98459200445998,
neutral,neutral,1,k,k,,,,,0,12,12,1,,,,,,,,,,,,,prac,1,1,1,neutral,neutral,k,k,1,0.8485173999797553,152.1032666999381,153.11781169986352,153.09839569986798,None,152.1032666999381,None,152.1032666999381,None,152.1032666999381,None,153.94840196983424,None,153.94840196983424,None,153.94840196983424,None,,,,,,,,,,,,,,204,2023-03-28_14h44.36.071,Main,2022.1.1,58.98459200445998,
neutral,neutral,2,k,k,,,,,0,13,13,10,,,,,,,,,,,,,prac,2,2,2,neutral,neutral,k,k,1,0.9154679998755455,153.9651344998274,154.96518099983223,154.9483969998546,None,153.9651344998274,None,153.9651344998274,None,153.9651344998274,None,155.864810169884,None,155.864810169884,None,155.864810169884,None,,,,,,,,,,,,,,204,2023-03-28_14h44.36.071,Main,2022.1.1,58.98459200445998,
neutral,positive,2,k,k,,,,,0,14,14,13,,,,,,,,,,,,,prac,2,2,2,positive,neutral,k,k,1,0.7820330001413822,155.871612199815,156.8816815998871,156.86502359993756,None,155.871612199815,None,155.871612199815,None,155.871612199815,None,157.64832467001398,None,157.64832467001398,None,157.64832467001398,None,,,,,,,,,,,,,,204,2023-03-28_14h44.36.071,Main,2022.1.1,58.98459200445998,
negative,negative,2,j,l,,,,,0,15,15,9,,,,,,,,,,,,,prac,2,2,2,negative,negative,j,j,1,0.7987025000620633,157.6540763999801,158.6678457998205,158.6316587999463,None,157.6540763999801,None,157.6540763999801,None,157.6540763999801,None,159.44827497003135,None,159.44827497003135,None,159.44827497003135,None,,,,,,,,,,,,,,204,2023-03-28_14h44.36.071,Main,2022.1.1,58.98459200445998,
negative,positive,2,j,l,,,,,0,16,16,15,,,,,,,,,,,,,prac,2,2,2,positive,negative,j,j,1,0.6821761999744922,159.45344569999725,160.4650536000263,160.43439959990792,None,159.45344569999725,None,159.45344569999725,None,159.45344569999725,None,161.1315629698569,None,161.1315629698569,None,161.1315629698569,None,,,,,,,,,,,,,,204,2023-03-28_14h44.36.071,Main,2022.1.1,58.98459200445998,
positive,positive,1,l,j,,,,,0,17,17,2,,,,,,,,,,,,,prac,1,1,1,positive,positive,l,l,1,0.8487551999278367,161.13754909997806,162.1482273999136,162.13155129994266,None,161.13754909997806,None,161.13754909997806,None,161.13754909997806,None,162.98155306999107,None,162.98155306999107,None,162.98155306999107,None,,,,,,,,,,,,,,204,2023-03-28_14h44.36.071,Main,2022.1.1,58.98459200445998,
negative,positive,1,j,l,,,,,1,0,18,6,,,,,,,,,,,,,prac,1,1,1,positive,negative,j,j,1,0.8816255000419915,162.98717550002038,163.99820709996857,163.98435109993443,None,162.98717550002038,None,162.98717550002038,None,162.98717550002038,None,164.86482737001498,None,164.86482737001498,None,164.86482737001498,None,,,,,,,,,,,,,,204,2023-03-28_14h44.36.071,Main,2022.1.1,58.98459200445998,
negative,negative,2,j,l,,,,,1,1,19,9,,,,,,,,,,,,,prac,2,2,2,negative,negative,j,j,1,0.697694499976933,164.8708085999824,165.88150749984197,165.86482879985124,None,164.8708085999824,None,164.8708085999824,None,164.8708085999824,None,166.5648434699746,None,166.5648434699746,None,166.5648434699746,None,,,,,,,,,,,,,,204,2023-03-28_14h44.36.071,Main,2022.1.1,58.98459200445998,
negative,neutral,2,j,l,,,,,1,2,20,12,,,,,,,,,,,,,prac,1,1,2,neutral,negative,j,j,1,0.7154596000909805,166.5707302999217,167.58148339996114,167.5648139999248,None,166.5707302999217,None,166.5707302999217,None,166.5707302999217,None,168.28146856997628,None,168.28146856997628,None,168.28146856997628,None,,,,,,,,,,,,,,204,2023-03-28_14h44.36.071,Main,2022.1.1,58.98459200445998,
positive,neutral,2,l,j,,,,,1,3,21,17,,,,,,,,,,,,,prac,1,1,2,neutral,positive,l,l,1,0.8492254999000579,168.28680719994009,169.29808069998398,169.26475699990988,None,168.28680719994009,None,168.28680719994009,None,168.28680719994009,None,170.13165656987113,None,170.13165656987113,None,170.13165656987113,None,,,,,,,,,,,,,,204,2023-03-28_14h44.36.071,Main,2022.1.1,58.98459200445998,
neutral,positive,2,k,k,,,,,1,4,22,13,,,,,,,,,,,,,prac,2,2,2,positive,neutral,k,k,1,0.7984811998903751,170.13715059985407,171.1482092998922,171.13140999991447,None,170.13715059985407,None,170.13715059985407,None,170.13715059985407,None,171.93136816981715,None,171.93136816981715,None,171.93136816981715,None,,,,,,,,,,,,,,204,2023-03-28_14h44.36.071,Main,2022.1.1,58.98459200445998,
neutral,negative,1,k,k,,,,,1,5,23,7,,,,,,,,,,,,,prac,2,2,1,negative,neutral,k,k,1,0.849307200172916,171.9371118999552,172.94804139994085,172.9315426000394,None,171.9371118999552,None,171.9371118999552,None,171.9371118999552,None,173.78134676998016,None,173.78134676998016,None,173.78134676998016,None,,,,,,,,,,,,,,204,2023-03-28_14h44.36.071,Main,2022.1.1,58.98459200445998,
positive,negative,1,l,j,,,,,1,6,24,5,,,,,,,,,,,,,prac,2,2,1,negative,positive,l,l,1,0.7645316999405622,173.78729159990326,174.79800329986028,174.78133909986354,None,173.78729159990326,None,173.78729159990326,None,173.78729159990326,None,175.54796496985946,None,175.54796496985946,None,175.54796496985946,None,,,,,,,,,,,,,,204,2023-03-28_14h44.36.071,Main,2022.1.1,58.98459200445998,
positive,neutral,1,l,j,,,,,1,7,25,8,,,,,,,,,,,,,prac,2,2,1,neutral,positive,l,l,1,0.931802700040862,175.5534063000232,176.5646279999055,176.55075009982102,None,175.5534063000232,None,175.5534063000232,None,175.5534063000232,None,177.48125996997115,None,177.48125996997115,None,177.48125996997115,None,,,,,,,,,,,,,,204,2023-03-28_14h44.36.071,Main,2022.1.1,58.98459200445998,
neutral,negative,2,k,k,,,,,1,8,26,16,,,,,,,,,,,,,prac,2,2,2,negative,neutral,k,k,1,0.8480676000472158,177.4872726998292,178.5006146999076,178.48125969991088,None,177.4872726998292,None,177.4872726998292,None,177.4872726998292,None,179.33117676989642,None,179.33117676989642,None,179.33117676989642,None,,,,,,,,,,,,,,204,2023-03-28_14h44.36.071,Main,2022.1.1,58.98459200445998,
negative,negative,1,j,l,,,,,1,9,27,0,,,,,,,,,,,,,prac,1,1,1,negative,negative,j,j,1,0.8649474999401718,179.33655099989846,180.34796239994466,180.31451539997943,None,179.33655099989846,None,179.33655099989846,None,179.33655099989846,None,181.19784976982046,None,181.19784976982046,None,181.19784976982046,None,,,,,,,,,,,,,,204,2023-03-28_14h44.36.071,Main,2022.1.1,58.98459200445998,
neutral,neutral,1,k,k,,,,,1,10,28,1,,,,,,,,,,,,,prac,1,1,1,neutral,neutral,k,k,1,0.831520700128749,181.20355279999785,182.21449279994704,182.2006879998371,None,181.20355279999785,None,181.20355279999785,None,181.20355279999785,None,183.03115316990298,None,183.03115316990298,None,183.03115316990298,None,,,,,,,,,,,,,,204,2023-03-28_14h44.36.071,Main,2022.1.1,58.98459200445998,
negative,neutral,1,j,l,,,,,1,11,29,3,,,,,,,,,,,,,prac,2,2,1,neutral,negative,j,j,1,0.8154524001292884,183.03630489995703,184.0478200998623,184.01458529988304,None,183.03630489995703,None,183.03630489995703,None,183.03630489995703,None,184.84779737002683,None,184.84779737002683,None,184.84779737002683,None,,,,,,,,,,,,,,204,2023-03-28_14h44.36.071,Main,2022.1.1,58.98459200445998,
neutral,positive,1,k,k,,,,,1,12,30,4,,,,,,,,,,,,,prac,2,2,1,positive,neutral,k,k,1,0.7818513000383973,184.85298520000651,185.86443970003165,185.83111190004274,None,184.85298520000651,None,184.85298520000651,None,184.85298520000651,None,186.63113546997775,None,186.63113546997775,None,186.63113546997775,None,,,,,,,,,,,,,,204,2023-03-28_14h44.36.071,Main,2022.1.1,58.98459200445998,
positive,negative,2,l,j,,,,,1,13,31,14,,,,,,,,,,,,,prac,1,1,2,negative,positive,l,l,1,0.766425000037998,186.63701439998113,187.65053789992817,187.63108259998262,None,186.63701439998113,None,186.63701439998113,None,186.63701439998113,None,188.39768256989774,None,188.39768256989774,None,188.39768256989774,None,,,,,,,,,,,,,,204,2023-03-28_14h44.36.071,Main,2022.1.1,58.98459200445998,
positive,positive,2,l,j,,,,,1,14,32,11,,,,,,,,,,,,,prac,2,2,2,positive,positive,l,l,1,0.7142135000322014,188.40389249986038,189.4143301998265,189.40033910004422,None,188.40389249986038,None,188.40389249986038,None,188.40389249986038,None,190.11408616995905,None,190.11408616995905,None,190.11408616995905,None,,,,,,,,,,,,,,204,2023-03-28_14h44.36.071,Main,2022.1.1,58.98459200445998,
neutral,neutral,2,k,k,,,,,1,15,33,10,,,,,,,,,,,,,prac,1,1,2,neutral,neutral,k,k,1,0.8647471000440419,190.12018439988606,191.13100979989395,191.11433879984543,None,190.12018439988606,None,190.12018439988606,None,190.12018439988606,None,191.98096266991925,None,191.98096266991925,None,191.98096266991925,None,,,,,,,,,,,,,,204,2023-03-28_14h44.36.071,Main,2022.1.1,58.98459200445998,
negative,positive,2,j,l,,,,,1,16,34,15,,,,,,,,,,,,,prac,2,2,2,positive,negative,j,j,1,0.8823512000963092,191.9861585998442,193.0002814999316,192.98092709993944,None,191.9861585998442,None,191.9861585998442,None,191.9861585998442,None,193.8642919698963,None,193.8642919698963,None,193.8642919698963,None,,,,,,,,,,,,,,204,2023-03-28_14h44.36.071,Main,2022.1.1,58.98459200445998,
positive,positive,1,l,j,,,,,1,17,35,2,,,,,,,,,,,,,prac,1,1,1,positive,positive,l,l,1,0.7818956000264734,193.86989029985853,194.88381160004064,194.86426679999568,None,193.86989029985853,None,193.86989029985853,None,193.86989029985853,None,195.6476728699403,None,195.6476728699403,None,195.6476728699403,None,,,,,,,,,,,,,,204,2023-03-28_14h44.36.071,Main,2022.1.1,58.98459200445998,
,,,,,,,,,,,,,,,,,,,,,,,,,,,,,,,,,,,,,,,,,,,,,,,,,,,195.64777389983647,None,space,7.199587299954146,,,,,,,,,,204,2023-03-28_14h44.36.071,Main,2022.1.1,58.98459200445998,
,,,,,,,,,,,,,,,,,,,,,,,,,,,,,,,,,,,,,,,,,,,,,,,,,,,,,,,0.8046296,-0.20648149,0,0,0,0.011053069960325956,None,,,204,2023-03-28_14h44.36.071,Main,2022.1.1,58.98459200445998,
negative,positive,1,j,l,,,,,,,,,0,0,0,6,,,,,,,202.8640772998333,None,main,2,2,1,positive,negative,j,j,1,0.8283361999783665,204.87056889990345,205.88070690003224,205.86418199981563,None,204.87056889990345,None,204.87056889990345,None,204.87056889990345,None,206.69731576994528,None,206.69731576994528,None,206.69731576994528,None,,,,,,,,,,,,,,204,2023-03-28_14h44.36.071,Main,2022.1.1,58.98459200445998,
positive,neutral,1,l,j,,,,,,,,,0,1,1,8,,,,,,,,,main,2,2,1,neutral,positive,l,l,1,0.6801449998747557,206.7016535999719,207.71400559996255,207.70015649986453,None,206.7016535999719,None,206.7016535999719,None,206.7016535999719,None,208.38039856983815,None,208.38039856983815,None,208.38039856983815,None,,,,,,,,,,,,,,204,2023-03-28_14h44.36.071,Main,2022.1.1,58.98459200445998,
positive,negative,1,l,j,,,,,,,,,0,2,2,5,,,,,,,,,main,1,1,1,negative,positive,l,l,1,0.7486776001751423,208.38406499987468,209.3806453999132,209.36683860002086,None,208.38406499987468,None,208.38406499987468,None,208.38406499987468,None,210.13059936997016,None,210.13059936997016,None,210.13059936997016,None,,,,,,,,,,,,,,204,2023-03-28_14h44.36.071,Main,2022.1.1,58.98459200445998,
positive,positive,1,l,j,,,,,,,,,0,3,3,2,,,,,,,,,main,1,1,1,positive,positive,l,l,1,0.7153404999990016,210.13605339988135,211.14727439987473,211.1306023998186,None,210.13605339988135,None,210.13605339988135,None,210.13605339988135,None,211.8473163698567,None,211.8473163698567,None,211.8473163698567,None,,,,,,,,,,,,,,204,2023-03-28_14h44.36.071,Main,2022.1.1,58.98459200445998,
neutral,neutral,2,k,k,,,,,,,,,0,4,4,10,,,,,,,,,main,1,1,2,neutral,neutral,k,k,1,0.7647136999294162,211.86669859988615,212.863898599986,212.85006830003113,None,211.86669859988615,None,211.86669859988615,None,211.86669859988615,None,213.61386166999583,None,213.61386166999583,None,213.61386166999583,None,,,,,,,,,,,,,,204,2023-03-28_14h44.36.071,Main,2022.1.1,58.98459200445998,
neutral,positive,1,k,k,,,,,,,,,0,5,5,4,,,,,,,,,main,2,2,1,positive,neutral,k,k,1,0.6483920000027865,213.61941549996845,214.63051869999617,214.6138467998244,None,213.61941549996845,None,213.61941549996845,None,213.61941549996845,None,215.26383126990405,None,215.26383126990405,None,215.26383126990405,None,,,,,,,,,,,,,,204,2023-03-28_14h44.36.071,Main,2022.1.1,58.98459200445998,
neutral,neutral,1,k,k,,,,,,,,,0,6,6,1,,,,,,,,,main,1,1,1,neutral,neutral,k,k,1,0.6147304000332952,215.283257199917,216.29987949994393,216.26384019991383,None,215.283257199917,None,215.283257199917,None,215.283257199917,None,216.88043827002403,None,216.88043827002403,None,216.88043827002403,None,,,,,,,,,,,,,,204,2023-03-28_14h44.36.071,Main,2022.1.1,58.98459200445998,
negative,neutral,1,j,l,,,,,,,,,0,7,7,3,,,,,,,,,main,2,2,1,neutral,negative,j,j,1,0.764608700061217,216.88642499991693,217.89714300003834,217.88048459985293,None,216.88642499991693,None,216.88642499991693,None,216.88642499991693,None,218.64711126985495,None,218.64711126985495,None,218.64711126985495,None,,,,,,,,,,,,,,204,2023-03-28_14h44.36.071,Main,2022.1.1,58.98459200445998,
neutral,negative,1,k,k,,,,,,,,,0,8,8,7,,,,,,,,,main,1,1,1,negative,neutral,k,k,1,0.716684500221163,218.6524515999481,219.66377959982492,219.64706590003334,None,218.6524515999481,None,218.6524515999481,None,218.6524515999481,None,220.36384166984354,None,220.36384166984354,None,220.36384166984354,None,,,,,,,,,,,,,,204,2023-03-28_14h44.36.071,Main,2022.1.1,58.98459200445998,
negative,positive,2,j,l,,,,,,,,,0,9,9,15,,,,,,,,,main,1,1,2,positive,negative,j,j,1,0.7966981998179108,220.37061290000565,221.38040769984946,221.36373710003681,None,220.37061290000565,None,220.37061290000565,None,220.37061290000565,None,222.16371376996395,None,222.16371376996395,None,222.16371376996395,None,,,,,,,,,,,,,,204,2023-03-28_14h44.36.071,Main,2022.1.1,58.98459200445998,
positive,negative,2,l,j,,,,,,,,,0,10,10,14,,,,,,,,,main,2,2,2,negative,positive,l,l,1,0.7484983999747783,222.16934859985486,223.18038999987766,223.16370189981535,None,222.16934859985486,None,222.16934859985486,None,222.16934859985486,None,223.91368986989838,None,223.91368986989838,None,223.91368986989838,None,,,,,,,,,,,,,,204,2023-03-28_14h44.36.071,Main,2022.1.1,58.98459200445998,
positive,neutral,2,l,j,,,,,,,,,0,11,11,17,,,,,,,,,main,2,2,2,neutral,positive,l,l,1,0.6490831000264734,223.93043689988554,224.93033699993975,224.91367979999632,None,223.93043689988554,None,223.93043689988554,None,223.93043689988554,None,225.56361126990524,None,225.56361126990524,None,225.56361126990524,None,,,,,,,,,,,,,,204,2023-03-28_14h44.36.071,Main,2022.1.1,58.98459200445998,
neutral,negative,2,k,k,,,,,,,,,0,12,12,16,,,,,,,,,main,1,1,2,negative,neutral,k,k,1,0.7500463000033051,225.56978849996813,226.58033819985576,226.56359499995597,None,225.56978849996813,None,225.56978849996813,None,225.56978849996813,None,227.31644516994712,None,227.31644516994712,None,227.31644516994712,None,,,,,,,,,,,,,,204,2023-03-28_14h44.36.071,Main,2022.1.1,58.98459200445998,
neutral,positive,2,k,k,,,,,,,,,0,13,13,13,,,,,,,,,main,2,2,2,positive,neutral,k,k,1,0.7291619998868555,227.321020900039,228.33025059988722,228.31361539987847,None,227.321020900039,None,227.321020900039,None,227.321020900039,None,229.04695176982787,None,229.04695176982787,None,229.04695176982787,None,,,,,,,,,,,,,,204,2023-03-28_14h44.36.071,Main,2022.1.1,58.98459200445998,
positive,positive,2,l,j,,,,,,,,,0,14,14,11,,,,,,,,,main,1,1,2,positive,positive,l,l,1,0.7479795999825001,229.06651809997857,230.0635557998903,230.04971639998257,None,229.06651809997857,None,229.06651809997857,None,229.06651809997857,None,230.79682916982566,None,230.79682916982566,None,230.79682916982566,None,,,,,,,,,,,,,,204,2023-03-28_14h44.36.071,Main,2022.1.1,58.98459200445998,
negative,neutral,2,j,l,,,,,,,,,0,15,15,12,,,,,,,,,main,1,1,2,neutral,negative,j,j,1,0.7819430998060852,230.80010419990867,231.8135314998217,231.79972309991717,None,230.80010419990867,None,230.80010419990867,None,230.80010419990867,None,232.58031456985046,None,232.58031456985046,None,232.58031456985046,None,,,,,,,,,,,,,,204,2023-03-28_14h44.36.071,Main,2022.1.1,58.98459200445998,
negative,negative,1,j,l,,,,,,,,,0,16,16,0,,,,,,,,,main,2,2,1,negative,negative,j,j,1,0.6146450999658555,232.58601809991524,233.59678240003996,233.58010199991986,None,232.58601809991524,None,232.58601809991524,None,232.58601809991524,None,234.1968137698481,None,234.1968137698481,None,234.1968137698481,None,,,,,,,,,,,,,,204,2023-03-28_14h44.36.071,Main,2022.1.1,58.98459200445998,
negative,negative,2,j,l,,,,,,,,,0,17,17,9,,,,,,,,,main,2,2,2,negative,negative,j,j,1,0.6482406998984516,234.20279049989767,235.21346560004167,235.1968024999369,None,234.20279049989767,None,234.20279049989767,None,234.20279049989767,None,235.84675646990073,None,235.84675646990073,None,235.84675646990073,None,,,,,,,,,,,,,,204,2023-03-28_14h44.36.071,Main,2022.1.1,58.98459200445998,
neutral,neutral,1,k,k,,,,,,,,,1,0,18,1,,,,,,,,,main,1,1,1,neutral,neutral,k,k,1,0.7319289001170546,235.85193639993668,236.86339089996181,236.83006159984507,None,235.85193639993668,None,235.85193639993668,None,235.85193639993668,None,237.58007627001498,None,237.58007627001498,None,237.58007627001498,None,,,,,,,,,,,,,,204,2023-03-28_14h44.36.071,Main,2022.1.1,58.98459200445998,
negative,neutral,1,j,l,,,,,,,,,1,1,19,3,,,,,,,,,main,1,1,1,neutral,negative,j,j,1,0.7314869000110775,237.58572049997747,238.59672939986922,238.58005649992265,None,237.58572049997747,None,237.58572049997747,None,237.58572049997747,None,239.31336566989776,None,239.31336566989776,None,239.31336566989776,None,,,,,,,,,,,,,,204,2023-03-28_14h44.36.071,Main,2022.1.1,58.98459200445998,
neutral,positive,2,k,k,,,,,,,,,1,2,20,13,,,,,,,,,main,2,2,2,positive,neutral,k,k,1,0.698892000131309,239.3300648999866,240.33003679988906,240.31338059995323,None,239.3300648999866,None,239.3300648999866,None,239.3300648999866,None,241.01335787002463,None,241.01335787002463,None,241.01335787002463,None,,,,,,,,,,,,,,204,2023-03-28_14h44.36.071,Main,2022.1.1,58.98459200445998,
neutral,positive,1,k,k,,,,,,,,,1,3,21,4,,,,,,,,,main,1,1,1,positive,neutral,k,k,1,0.7647144999355078,241.03281380003318,242.04666779981926,242.013341399841,None,241.03281380003318,None,241.03281380003318,None,241.03281380003318,None,242.77995326996316,None,242.77995326996316,None,242.77995326996316,None,,,,,,,,,,,,,,204,2023-03-28_14h44.36.071,Main,2022.1.1,58.98459200445998,
neutral,negative,2,k,k,,,,,,,,,1,4,22,16,,,,,,,,,main,1,1,2,negative,neutral,k,k,1,0.7326633001212031,242.7850532999728,243.7966970000416,243.7827643000055,None,242.7850532999728,None,242.7850532999728,None,242.7850532999728,None,244.51324626987335,None,244.51324626987335,None,244.51324626987335,None,,,,,,,,,,,,,,204,2023-03-28_14h44.36.071,Main,2022.1.1,58.98459200445998,
negative,positive,1,j,l,,,,,,,,,1,5,23,6,,,,,,,,,main,1,1,1,positive,negative,j,j,1,0.730883999960497,244.51971250004135,245.53266419982538,245.51616250001825,None,244.51971250004135,None,244.51971250004135,None,244.51971250004135,None,246.24657786984463,None,246.24657786984463,None,246.24657786984463,None,,,,,,,,,,,,,,204,2023-03-28_14h44.36.071,Main,2022.1.1,58.98459200445998,
positive,negative,1,l,j,,,,,,,,,1,6,24,5,,,,,,,,,main,1,1,1,negative,positive,l,l,1,0.7818012998905033,246.25210119993426,247.26330340001732,247.22989950003102,None,246.25210119993426,None,246.25210119993426,None,246.25210119993426,None,248.02988026987296,None,248.02988026987296,None,248.02988026987296,None,,,,,,,,,,,,,,204,2023-03-28_14h44.36.071,Main,2022.1.1,58.98459200445998,
neutral,neutral,2,k,k,,,,,,,,,1,7,25,10,,,,,,,,,main,2,2,2,neutral,neutral,k,k,1,0.6984769999980927,248.03523989999667,249.04652049997821,249.016065799864,None,248.03523989999667,None,248.03523989999667,None,248.03523989999667,None,249.72978836994153,None,249.72978836994153,None,249.72978836994153,None,,,,,,,,,,,,,,204,2023-03-28_14h44.36.071,Main,2022.1.1,58.98459200445998,
neutral,negative,1,k,k,,,,,,,,,1,8,26,7,,,,,,,,,main,2,2,1,negative,neutral,k,k,1,0.7512394997756928,249.73507829988375,250.74916549981572,250.72978799999692,None,249.73507829988375,None,249.73507829988375,None,249.73507829988375,None,251.4826359699713,None,251.4826359699713,None,251.4826359699713,None,,,,,,,,,,,,,,204,2023-03-28_14h44.36.071,Main,2022.1.1,58.98459200445998,
positive,positive,1,l,j,,,,,,,,,1,9,27,2,,,,,,,,,main,2,2,1,positive,positive,l,l,1,0.7287409000564367,251.48589969985187,252.49919679993764,252.47979089990258,None,251.48589969985187,None,251.48589969985187,None,251.48589969985187,None,253.21316417001654,None,253.21316417001654,None,253.21316417001654,None,,,,,,,,,,,,,,204,2023-03-28_14h44.36.071,Main,2022.1.1,58.98459200445998,
negative,positive,2,j,l,,,,,,,,,1,10,28,15,,,,,,,,,main,2,2,2,positive,negative,j,j,1,0.7984105001669377,253.23250739998184,254.24647589982487,254.21307179983705,None,253.23250739998184,None,253.23250739998184,None,253.23250739998184,None,255.01305276991334,None,255.01305276991334,None,255.01305276991334,None,,,,,,,,,,,,,,204,2023-03-28_14h44.36.071,Main,2022.1.1,58.98459200445998,
positive,negative,2,l,j,,,,,,,,,1,11,29,14,,,,,,,,,main,2,2,2,negative,positive,l,l,1,0.7651261000428349,255.0185363998171,256.02970339986496,256.01302259997465,None,255.0185363998171,None,255.0185363998171,None,255.0185363998171,None,256.77964277004355,None,256.77964277004355,None,256.77964277004355,None,,,,,,,,,,,,,,204,2023-03-28_14h44.36.071,Main,2022.1.1,58.98459200445998,
negative,neutral,2,j,l,,,,,,,,,1,12,30,12,,,,,,,,,main,1,1,2,neutral,negative,j,j,1,0.7152298002038151,256.7849242000375,257.79631679994054,257.77965899999253,None,256.7849242000375,None,256.7849242000375,None,256.7849242000375,None,258.49648846986236,None,258.49648846986236,None,258.49648846986236,None,,,,,,,,,,,,,,204,2023-03-28_14h44.36.071,Main,2022.1.1,58.98459200445998,
negative,negative,2,j,l,,,,,,,,,1,13,31,9,,,,,,,,,main,2,2,2,negative,negative,j,j,1,0.6824392001144588,258.5022704999428,259.51294909999706,259.4964552000165,None,258.5022704999428,None,258.5022704999428,None,258.5022704999428,None,260.1797139700269,None,260.1797139700269,None,260.1797139700269,None,,,,,,,,,,,,,,204,2023-03-28_14h44.36.071,Main,2022.1.1,58.98459200445998,
positive,neutral,2,l,j,,,,,,,,,1,14,32,17,,,,,,,,,main,1,1,2,neutral,positive,l,l,1,0.7976331999525428,260.1856855000369,261.1989198999945,261.1795605998486,None,260.1856855000369,None,260.1856855000369,None,260.1856855000369,None,261.97958357001187,None,261.97958357001187,None,261.97958357001187,None,,,,,,,,,,,,,,204,2023-03-28_14h44.36.071,Main,2022.1.1,58.98459200445998,
positive,neutral,1,l,j,,,,,,,,,1,15,33,8,,,,,,,,,main,2,2,1,neutral,positive,l,l,1,0.7483510999009013,261.98527539987117,262.99623179994524,262.9795778999105,None,261.98527539987117,None,261.98527539987117,None,261.98527539987117,None,263.72960247003937,None,263.72960247003937,None,263.72960247003937,None,,,,,,,,,,,,,,204,2023-03-28_14h44.36.071,Main,2022.1.1,58.98459200445998,
negative,negative,1,j,l,,,,,,,,,1,16,34,0,,,,,,,,,main,1,1,1,negative,negative,j,j,1,0.7983739001210779,263.7332452998962,264.72950689983554,264.72950689983554,None,263.7332452998962,None,263.7332452998962,None,263.7332452998962,None,265.52964916985945,None,265.52964916985945,None,265.52964916985945,None,,,,,,,,,,,,,,204,2023-03-28_14h44.36.071,Main,2022.1.1,58.98459200445998,
positive,positive,2,l,j,,,,,,,,,1,17,35,11,,,,,,,,,main,2,2,2,positive,positive,l,l,1,0.7647929999511689,265.53558709984645,266.5490500999149,266.5294985999353,None,265.53558709984645,None,265.53558709984645,None,265.53558709984645,None,267.29613986981565,None,267.29613986981565,None,267.29613986981565,None,,,,,,,,,,,,,,204,2023-03-28_14h44.36.071,Main,2022.1.1,58.98459200445998,
positive,neutral,1,l,j,,,,,,,,,2,0,36,8,,,,,,,,,main,2,2,1,neutral,positive,l,l,1,0.6650523999705911,267.3011508998461,268.31280700000934,268.2794516000431,None,267.3011508998461,None,267.3011508998461,None,267.3011508998461,None,268.9627579699503,None,268.9627579699503,None,268.9627579699503,None,,,,,,,,,,,,,,204,2023-03-28_14h44.36.071,Main,2022.1.1,58.98459200445998,
neutral,positive,2,k,k,,,,,,,,,2,1,37,13,,,,,,,,,main,1,1,2,positive,neutral,k,k,1,0.8150202000979334,268.9682352000382,269.9821646998171,269.9655508999713,None,268.9682352000382,None,268.9682352000382,None,268.9682352000382,None,270.77939697003455,None,270.77939697003455,None,270.77939697003455,None,,,,,,,,,,,,,,204,2023-03-28_14h44.36.071,Main,2022.1.1,58.98459200445998,
positive,negative,1,l,j,,,,,,,,,2,2,38,5,,,,,,,,,main,1,1,1,negative,positive,l,l,1,0.7358947000466287,270.78536879993044,271.7961681999732,271.7627550000325,None,270.78536879993044,None,270.78536879993044,None,270.78536879993044,None,272.51667717003727,None,272.51667717003727,None,272.51667717003727,None,,,,,,,,,,,,,,204,2023-03-28_14h44.36.071,Main,2022.1.1,58.98459200445998,
positive,neutral,2,l,j,,,,,,,,,2,3,39,17,,,,,,,,,main,1,1,2,neutral,positive,l,l,1,0.777825300116092,272.5204284999054,273.5293719000183,273.51270149997436,None,272.5204284999054,None,272.5204284999054,None,272.5204284999054,None,274.2959995700279,None,274.2959995700279,None,274.2959995700279,None,,,,,,,,,,,,,,204,2023-03-28_14h44.36.071,Main,2022.1.1,58.98459200445998,
neutral,neutral,2,k,k,,,,,,,,,2,4,40,10,,,,,,,,,main,2,2,2,neutral,neutral,k,k,1,0.7482438001316041,274.3018104999792,275.31263099983335,275.2960632999893,None,274.3018104999792,None,274.3018104999792,None,274.3018104999792,None,276.0459684699075,None,276.0459684699075,None,276.0459684699075,None,,,,,,,,,,,,,,204,2023-03-28_14h44.36.071,Main,2022.1.1,58.98459200445998,
negative,positive,2,j,l,,,,,,,,,2,5,41,15,,,,,,,,,main,2,2,2,positive,negative,j,j,1,0.7485152001027018,276.0515592000447,277.0626168998424,277.045968899969,None,276.0515592000447,None,276.0515592000447,None,276.0515592000447,None,277.7958973699482,None,277.7958973699482,None,277.7958973699482,None,,,,,,,,,,,,,,204,2023-03-28_14h44.36.071,Main,2022.1.1,58.98459200445998,
neutral,negative,2,k,k,,,,,,,,,2,6,42,16,,,,,,,,,main,1,1,2,negative,neutral,k,k,1,0.698391400044784,277.80119329993613,278.8125679998193,278.79867809987627,None,277.80119329993613,None,277.80119329993613,None,277.80119329993613,None,279.49590246982405,None,279.49590246982405,None,279.49590246982405,None,,,,,,,,,,,,,,204,2023-03-28_14h44.36.071,Main,2022.1.1,58.98459200445998,
negative,positive,1,j,l,,,,,,,,,2,7,43,6,,,,,,,,,main,2,2,1,positive,negative,j,j,1,0.7650095000863075,279.5016894999426,280.5125507998746,280.49587320000865,None,279.5016894999426,None,279.5016894999426,None,279.5016894999426,None,281.2624856699025,None,281.2624856699025,None,281.2624856699025,None,,,,,,,,,,,,,,204,2023-03-28_14h44.36.071,Main,2022.1.1,58.98459200445998,
neutral,positive,1,k,k,,,,,,,,,2,8,44,4,,,,,,,,,main,2,2,1,positive,neutral,k,k,1,0.7485215999186039,281.2680496999528,282.2820283998735,282.2625114999246,None,281.2680496999528,None,281.2680496999528,None,281.2680496999528,None,283.0125508699333,None,283.0125508699333,None,283.0125508699333,None,,,,,,,,,,,,,,204,2023-03-28_14h44.36.071,Main,2022.1.1,58.98459200445998,
negative,neutral,2,j,l,,,,,,,,,2,9,45,12,,,,,,,,,main,1,1,2,neutral,negative,j,j,1,0.8149060998111963,283.0177531000227,284.031882799929,284.0124603000004,None,283.0177531000227,None,283.0177531000227,None,283.0177531000227,None,284.82909887002313,None,284.82909887002313,None,284.82909887002313,None,,,,,,,,,,,,,,204,2023-03-28_14h44.36.071,Main,2022.1.1,58.98459200445998,
negative,negative,2,j,l,,,,,,,,,2,10,46,9,,,,,,,,,main,2,2,2,negative,negative,j,j,1,0.7485857999417931,284.8342697999906,285.84846919984557,285.81242249999195,None,284.8342697999906,None,284.8342697999906,None,284.8342697999906,None,286.5790906699607,None,286.5790906699607,None,286.5790906699607,None,,,,,,,,,,,,,,204,2023-03-28_14h44.36.071,Main,2022.1.1,58.98459200445998,
neutral,neutral,1,k,k,,,,,,,,,2,11,47,1,,,,,,,,,main,1,1,1,neutral,neutral,k,k,1,0.7815241001080722,286.5843839000445,287.5985141999554,287.5790850999765,None,286.5843839000445,None,286.5843839000445,None,286.5843839000445,None,288.36239916991906,None,288.36239916991906,None,288.36239916991906,None,,,,,,,,,,,,,,204,2023-03-28_14h44.36.071,Main,2022.1.1,58.98459200445998,
neutral,negative,1,k,k,,,,,,,,,2,12,48,7,,,,,,,,,main,2,2,1,negative,neutral,k,k,1,0.7021905998699367,288.3685689999256,289.3790515998844,289.36235199985094,None,288.3685689999256,None,288.3685689999256,None,288.3685689999256,None,290.06487346997017,None,290.06487346997017,None,290.06487346997017,None,,,,,,,,,,,,,,204,2023-03-28_14h44.36.071,Main,2022.1.1,58.98459200445998,
positive,negative,2,l,j,,,,,,,,,2,13,49,14,,,,,,,,,main,2,2,2,negative,positive,l,l,1,0.7789803000632674,290.0695781998802,291.08180729998276,291.06512149982154,None,290.0695781998802,None,290.0695781998802,None,290.0695781998802,None,291.845605469984,None,291.845605469984,None,291.845605469984,None,,,,,,,,,,,,,,204,2023-03-28_14h44.36.071,Main,2022.1.1,58.98459200445998,
positive,positive,1,l,j,,,,,,,,,2,14,50,2,,,,,,,,,main,1,1,1,positive,positive,l,l,1,0.732304000062868,291.8516144999303,292.8622675999068,292.84846260002814,None,291.8516144999303,None,291.8516144999303,None,291.8516144999303,None,293.57895046982446,None,293.57895046982446,None,293.57895046982446,None,,,,,,,,,,,,,,204,2023-03-28_14h44.36.071,Main,2022.1.1,58.98459200445998,
positive,positive,2,l,j,,,,,,,,,2,15,51,11,,,,,,,,,main,1,1,2,positive,positive,l,l,1,0.747321099974215,293.5852280999534,294.595593099948,294.5789152998477,None,293.5852280999534,None,293.5852280999534,None,293.5852280999534,None,295.3289151699049,None,295.3289151699049,None,295.3289151699049,None,,,,,,,,,,,,,,204,2023-03-28_14h44.36.071,Main,2022.1.1,58.98459200445998,
negative,negative,1,j,l,,,,,,,,,2,16,52,0,,,,,,,,,main,2,2,1,negative,negative,j,j,1,0.798483100021258,295.3345297998749,296.3455798998475,296.328913499834,None,295.3345297998749,None,295.3345297998749,None,295.3345297998749,None,297.1289032699773,None,297.1289032699773,None,297.1289032699773,None,,,,,,,,,,,,,,204,2023-03-28_14h44.36.071,Main,2022.1.1,58.98459200445998,
negative,neutral,1,j,l,,,,,,,,,2,17,53,3,,,,,,,,,main,1,1,1,neutral,negative,j,j,1,0.6146735001821071,297.13437330001034,298.1482638998423,298.1288562999107,None,297.13437330001034,None,297.13437330001034,None,297.13437330001034,None,298.74550506982484,None,298.74550506982484,None,298.74550506982484,None,,,,,,,,,,,,,,204,2023-03-28_14h44.36.071,Main,2022.1.1,58.98459200445998,
negative,neutral,2,j,l,,,,,,,,,3,0,54,12,,,,,,,,,main,1,1,2,neutral,negative,j,j,1,0.6655184000264853,298.7514692998957,299.76217699982226,299.7455100999214,None,298.7514692998957,None,298.7514692998957,None,298.7514692998957,None,300.41227107003795,None,300.41227107003795,None,300.41227107003795,None,,,,,,,,,,,,,,204,2023-03-28_14h44.36.071,Main,2022.1.1,58.98459200445998,
neutral,neutral,2,k,k,,,,,,,,,3,1,55,10,,,,,,,,,main,2,2,2,neutral,neutral,k,k,1,0.764802600024268,300.4177598999813,301.4287858000025,301.41210659989156,None,300.4177598999813,None,300.4177598999813,None,300.4177598999813,None,302.17860676997805,None,302.17860676997805,None,302.17860676997805,None,,,,,,,,,,,,,,204,2023-03-28_14h44.36.071,Main,2022.1.1,58.98459200445998,
neutral,negative,1,k,k,,,,,,,,,3,2,56,7,,,,,,,,,main,1,1,1,negative,neutral,k,k,1,0.5654142000712454,302.18471229984425,303.1954430998303,303.1620710999705,None,302.18471229984425,None,302.18471229984425,None,302.18471229984425,None,303.74545976982915,None,303.74545976982915,None,303.74545976982915,None,,,,,,,,,,,,,,204,2023-03-28_14h44.36.071,Main,2022.1.1,58.98459200445998,
positive,positive,1,l,j,,,,,,,,,3,3,57,2,,,,,,,,,main,1,1,1,positive,positive,l,l,1,0.7650909000076354,303.7511867999565,304.76480809994973,304.7454054998234,None,303.7511867999565,None,303.7511867999565,None,303.7511867999565,None,305.5120096700033,None,305.5120096700033,None,305.5120096700033,None,,,,,,,,,,,,,,204,2023-03-28_14h44.36.071,Main,2022.1.1,58.98459200445998,
positive,positive,2,l,j,,,,,,,,,3,4,58,11,,,,,,,,,main,1,1,2,positive,positive,l,l,1,0.7149383001960814,305.51764289988205,306.5287185998168,306.51206690003164,None,305.51764289988205,None,305.51764289988205,None,305.51764289988205,None,307.22866586989255,None,307.22866586989255,None,307.22866586989255,None,,,,,,,,,,,,,,204,2023-03-28_14h44.36.071,Main,2022.1.1,58.98459200445998,
negative,negative,2,j,l,,,,,,,,,3,5,59,9,,,,,,,,,main,2,2,2,negative,negative,j,j,1,0.8316994998604059,307.23403249983676,308.2453169999644,308.22865079995245,None,307.23403249983676,None,307.23403249983676,None,307.23403249983676,None,309.06195977001914,None,309.06195977001914,None,309.06195977001914,None,,,,,,,,,,,,,,204,2023-03-28_14h44.36.071,Main,2022.1.1,58.98459200445998,
neutral,positive,2,k,k,,,,,,,,,3,6,60,13,,,,,,,,,main,1,1,2,positive,neutral,k,k,1,0.8149451001081616,309.06729709985666,310.07860299991444,310.0647083998192,None,309.06729709985666,None,309.06729709985666,None,309.06729709985666,None,310.87859496984163,None,310.87859496984163,None,310.87859496984163,None,,,,,,,,,,,,,,204,2023-03-28_14h44.36.071,Main,2022.1.1,58.98459200445998,
negative,positive,1,j,l,,,,,,,,,3,7,61,6,,,,,,,,,main,2,2,1,positive,negative,j,j,1,0.8146464999299496,310.88447960000485,311.8952250999864,311.87932159984484,None,310.88447960000485,None,310.88447960000485,None,310.88447960000485,None,312.6953601699555,None,312.6953601699555,None,312.6953601699555,None,,,,,,,,,,,,,,204,2023-03-28_14h44.36.071,Main,2022.1.1,58.98459200445998,
negative,positive,2,j,l,,,,,,,,,3,8,62,15,,,,,,,,,main,1,1,2,positive,negative,j,j,1,0.9155176999047399,312.7010290999897,313.7118804999627,313.69500369997695,None,312.7010290999897,None,312.7010290999897,None,312.7010290999897,None,314.6118530698353,None,314.6118530698353,None,314.6118530698353,None,,,,,,,,,,,,,,204,2023-03-28_14h44.36.071,Main,2022.1.1,58.98459200445998,
positive,neutral,1,l,j,,,,,,,,,3,9,63,8,,,,,,,,,main,1,1,1,neutral,positive,l,l,1,0.6974949999712408,314.6179291999433,315.6286686998792,315.61184829985723,None,314.6179291999433,None,314.6179291999433,None,314.6179291999433,None,316.3117841698462,None,316.3117841698462,None,316.3117841698462,None,,,,,,,,,,,,,,204,2023-03-28_14h44.36.071,Main,2022.1.1,58.98459200445998,
negative,neutral,1,j,l,,,,,,,,,3,10,64,3,,,,,,,,,main,2,2,1,neutral,negative,j,j,1,0.8484885001089424,316.3179259998724,317.32848649984226,317.3118210998364,None,316.3179259998724,None,316.3179259998724,None,316.3179259998724,None,318.1617968699196,None,318.1617968699196,None,318.1617968699196,None,,,,,,,,,,,,,,204,2023-03-28_14h44.36.071,Main,2022.1.1,58.98459200445998,
negative,negative,1,j,l,,,,,,,,,3,11,65,0,,,,,,,,,main,2,2,1,negative,negative,j,j,1,0.7317117999773473,318.167380400002,319.1784462998621,319.16177699994296,None,318.167380400002,None,318.167380400002,None,318.167380400002,None,319.89507017002904,None,319.89507017002904,None,319.89507017002904,None,,,,,,,,,,,,,,204,2023-03-28_14h44.36.071,Main,2022.1.1,58.98459200445998,
positive,negative,2,l,j,,,,,,,,,3,12,66,14,,,,,,,,,main,1,1,2,negative,positive,l,l,1,0.7316496002022177,319.9007390998304,320.91170899989083,320.8951167999767,None,319.9007390998304,None,319.9007390998304,None,319.9007390998304,None,321.62839306981766,None,321.62839306981766,None,321.62839306981766,None,,,,,,,,,,,,,,204,2023-03-28_14h44.36.071,Main,2022.1.1,58.98459200445998,
neutral,positive,1,k,k,,,,,,,,,3,13,67,4,,,,,,,,,main,1,1,1,positive,neutral,k,k,1,0.6818891000002623,321.63394319987856,322.6450199999381,322.63118809997104,None,321.63394319987856,None,321.63394319987856,None,321.63394319987856,None,323.31184826998503,None,323.31184826998503,None,323.31184826998503,None,,,,,,,,,,,,,,204,2023-03-28_14h44.36.071,Main,2022.1.1,58.98459200445998,
positive,negative,1,l,j,,,,,,,,,3,14,68,5,,,,,,,,,main,2,2,1,negative,positive,l,l,1,0.6149222999811172,323.31773899984546,324.32832659990527,324.3116780000273,None,323.31773899984546,None,323.31773899984546,None,323.31773899984546,None,324.9282619699137,None,324.9282619699137,None,324.9282619699137,None,,,,,,,,,,,,,,204,2023-03-28_14h44.36.071,Main,2022.1.1,58.98459200445998,
positive,neutral,2,l,j,,,,,,,,,3,15,69,17,,,,,,,,,main,2,2,2,neutral,positive,l,l,1,0.6648173998109996,324.9338128999807,325.9449499999173,325.9283350999467,None,324.9338128999807,None,324.9338128999807,None,324.9338128999807,None,326.5949365698965,None,326.5949365698965,None,326.5949365698965,None,,,,,,,,,,,,,,204,2023-03-28_14h44.36.071,Main,2022.1.1,58.98459200445998,
neutral,negative,2,k,k,,,,,,,,,3,16,70,16,,,,,,,,,main,2,2,2,negative,neutral,k,k,1,0.6984349999111146,326.6003976999782,327.61437890003435,327.58097129990347,None,326.6003976999782,None,326.6003976999782,None,326.6003976999782,None,328.2948968698969,None,328.2948968698969,None,328.2948968698969,None,,,,,,,,,,,,,,204,2023-03-28_14h44.36.071,Main,2022.1.1,58.98459200445998,
neutral,neutral,1,k,k,,,,,,,,,3,17,71,1,,,,,,,,,main,1,1,1,neutral,neutral,k,k,1,0.6981673999689519,328.300440199906,329.31165000004694,329.2976722000167,None,328.300440199906,None,328.300440199906,None,328.300440199906,None,329.99483566985,None,329.99483566985,None,329.99483566985,None,,,,,,,,,,,,,,204,2023-03-28_14h44.36.071,Main,2022.1.1,58.98459200445998,
negative,negative,2,j,l,,,,,,,,,4,0,72,9,,,,,,,,,main,2,2,2,negative,negative,j,j,1,0.7820427999831736,329.99986239988357,331.01151499990374,330.97815590002574,None,329.99986239988357,None,329.99986239988357,None,329.99986239988357,None,331.7782376699382,None,331.7782376699382,None,331.7782376699382,None,,,,,,,,,,,,,,204,2023-03-28_14h44.36.071,Main,2022.1.1,58.98459200445998,
neutral,positive,1,k,k,,,,,,,,,4,1,73,4,,,,,,,,,main,1,1,1,positive,neutral,k,k,1,0.7314010998234153,331.78395850001834,332.7948306000326,332.77817279985175,None,331.78395850001834,None,331.78395850001834,None,331.78395850001834,None,333.5112122699851,None,333.5112122699851,None,333.5112122699851,None,,,,,,,,,,,,,,204,2023-03-28_14h44.36.071,Main,2022.1.1,58.98459200445998,
neutral,positive,2,k,k,,,,,,,,,4,2,74,13,,,,,,,,,main,2,2,2,positive,neutral,k,k,1,0.7987369999755174,333.5169659999665,334.52813709992915,334.51418629987165,None,333.5169659999665,None,333.5169659999665,None,333.5169659999665,None,335.31145596990825,None,335.31145596990825,None,335.31145596990825,None,,,,,,,,,,,,,,204,2023-03-28_14h44.36.071,Main,2022.1.1,58.98459200445998,
positive,neutral,1,l,j,,,,,,,,,4,3,75,8,,,,,,,,,main,2,2,1,neutral,positive,l,l,1,0.7480514999479055,335.3170351998415,336.3281032999512,336.3114259999711,None,335.3170351998415,None,335.3170351998415,None,335.3170351998415,None,337.0613538699457,None,337.0613538699457,None,337.0613538699457,None,,,,,,,,,,,,,,204,2023-03-28_14h44.36.071,Main,2022.1.1,58.98459200445998,
negative,negative,1,j,l,,,,,,,,,4,4,76,0,,,,,,,,,main,2,2,1,negative,negative,j,j,1,0.7829726999625564,337.06638049986213,338.078047899995,338.0447021999862,None,337.06638049986213,None,337.06638049986213,None,337.06638049986213,None,338.8447009699652,None,338.8447009699652,None,338.8447009699652,None,,,,,,,,,,,,,,204,2023-03-28_14h44.36.071,Main,2022.1.1,58.98459200445998,
negative,positive,2,j,l,,,,,,,,,4,5,77,15,,,,,,,,,main,2,2,2,positive,negative,j,j,1,0.6806636000983417,338.8514030999504,339.861532199895,339.8446988000069,None,338.8514030999504,None,338.8514030999504,None,338.8514030999504,None,340.52803327001163,None,340.52803327001163,None,340.52803327001163,None,,,,,,,,,,,,,,204,2023-03-28_14h44.36.071,Main,2022.1.1,58.98459200445998,
neutral,neutral,1,k,k,,,,,,,,,4,6,78,1,,,,,,,,,main,1,1,1,neutral,neutral,k,k,1,0.6317848998587579,340.53389559988864,341.54463839996606,341.51421299995854,None,340.53389559988864,None,340.53389559988864,None,340.53389559988864,None,342.1612802699441,None,342.1612802699441,None,342.1612802699441,None,,,,,,,,,,,,,,204,2023-03-28_14h44.36.071,Main,2022.1.1,58.98459200445998,
negative,neutral,2,j,l,,,,,,,,,4,7,79,12,,,,,,,,,main,1,1,2,neutral,negative,j,j,1,0.6318411999382079,342.1664152999874,343.17795359995216,343.1641822999809,None,342.1664152999874,None,342.1664152999874,None,342.1664152999874,None,343.79459656982215,None,343.79459656982215,None,343.79459656982215,None,,,,,,,,,,,,,,204,2023-03-28_14h44.36.071,Main,2022.1.1,58.98459200445998,
neutral,negative,1,k,k,,,,,,,,,4,8,80,7,,,,,,,,,main,2,2,1,negative,neutral,k,k,1,0.6651567998342216,343.80057620001025,344.8140867999755,344.77813939983025,None,343.80057620001025,None,343.80057620001025,None,343.80057620001025,None,345.4613129698904,None,345.4613129698904,None,345.4613129698904,None,,,,,,,,,,,,,,204,2023-03-28_14h44.36.071,Main,2022.1.1,58.98459200445998,
positive,negative,2,l,j,,,,,,,,,4,9,81,14,,,,,,,,,main,1,1,2,negative,positive,l,l,1,0.766190400114283,345.4671683998313,346.47788829985075,346.463894699933,None,345.4671683998313,None,345.4671683998313,None,345.4671683998313,None,347.22787906995507,None,347.22787906995507,None,347.22787906995507,None,,,,,,,,,,,,,,204,2023-03-28_14h44.36.071,Main,2022.1.1,58.98459200445998,
negative,neutral,1,j,l,,,,,,,,,4,10,82,3,,,,,,,,,main,1,1,1,neutral,negative,j,j,1,0.8138924001250416,347.23424239992164,348.2473011999391,348.2306542999577,None,347.23424239992164,None,347.23424239992164,None,347.23424239992164,None,349.0445045698201,None,349.0445045698201,None,349.0445045698201,None,,,,,,,,,,,,,,204,2023-03-28_14h44.36.071,Main,2022.1.1,58.98459200445998,
positive,positive,2,l,j,,,,,,,,,4,11,83,11,,,,,,,,,main,2,2,2,positive,positive,l,l,1,0.7819519001059234,349.04991639987566,350.0611145000439,350.04449839983135,None,349.04991639987566,None,349.04991639987566,None,349.04991639987566,None,350.8277786699822,None,350.8277786699822,None,350.8277786699822,None,,,,,,,,,,,,,,204,2023-03-28_14h44.36.071,Main,2022.1.1,58.98459200445998,
positive,neutral,2,l,j,,,,,,,,,4,12,84,17,,,,,,,,,main,2,2,2,neutral,positive,l,l,1,0.6986811999231577,350.8336763998959,351.844455299899,351.8277999998536,None,350.8336763998959,None,350.8336763998959,None,350.8336763998959,None,352.5277575698914,None,352.5277575698914,None,352.5277575698914,None,,,,,,,,,,,,,,204,2023-03-28_14h44.36.071,Main,2022.1.1,58.98459200445998,
neutral,negative,2,k,k,,,,,,,,,4,13,85,16,,,,,,,,,main,2,2,2,negative,neutral,k,k,1,0.731415499933064,352.5335605998989,353.54441390000284,353.5277189000044,None,352.5335605998989,None,352.5335605998989,None,352.5335605998989,None,354.2610507700359,None,354.2610507700359,None,354.2610507700359,None,,,,,,,,,,,,,,204,2023-03-28_14h44.36.071,Main,2022.1.1,58.98459200445998,
positive,positive,1,l,j,,,,,,,,,4,14,86,2,,,,,,,,,main,2,2,1,positive,positive,l,l,1,0.7486157000530511,354.2664981998969,355.28047879994847,355.26104080001824,None,354.2664981998969,None,354.2664981998969,None,354.2664981998969,None,356.01118056986013,None,356.01118056986013,None,356.01118056986013,None,,,,,,,,,,,,,,204,2023-03-28_14h44.36.071,Main,2022.1.1,58.98459200445998,
positive,negative,1,l,j,,,,,,,,,4,15,87,5,,,,,,,,,main,1,1,1,negative,positive,l,l,1,0.6984753001015633,356.0168404998258,357.0305830000434,357.0110198999755,None,356.0168404998258,None,356.0168404998258,None,356.0168404998258,None,357.71105056998783,None,357.71105056998783,None,357.71105056998783,None,,,,,,,,,,,,,,204,2023-03-28_14h44.36.071,Main,2022.1.1,58.98459200445998,
neutral,neutral,2,k,k,,,,,,,,,4,16,88,10,,,,,,,,,main,1,1,2,neutral,neutral,k,k,1,0.6814915998838842,357.7164439999033,358.7276425999589,358.71385920001194,None,357.7164439999033,None,357.7164439999033,None,357.7164439999033,None,359.39428006995,None,359.39428006995,None,359.39428006995,None,,,,,,,,,,,,,,204,2023-03-28_14h44.36.071,Main,2022.1.1,58.98459200445998,
negative,positive,1,j,l,,,,,,,,,4,17,89,6,,,,,,,,,main,1,1,1,positive,negative,j,j,1,0.7486155000515282,359.3995313998312,360.41095739998855,360.39428219990805,None,359.3995313998312,None,359.3995313998312,None,359.3995313998312,None,361.1442681699758,None,361.1442681699758,None,361.1442681699758,None,,,,,,,,,,,,,,204,2023-03-28_14h44.36.071,Main,2022.1.1,58.98459200445998,
negative,neutral,2,j,l,,,,,,,,,5,0,90,12,,,,,,,,,main,1,1,2,neutral,negative,j,j,1,0.8146946998313069,361.14983220002614,362.16103710001335,362.1443666999694,None,361.14983220002614,None,361.14983220002614,None,361.14983220002614,None,362.9606436700327,None,362.9606436700327,None,362.9606436700327,None,,,,,,,,,,,,,,204,2023-03-28_14h44.36.071,Main,2022.1.1,58.98459200445998,
positive,positive,2,l,j,,,,,,,,,5,1,91,11,,,,,,,,,main,1,1,2,positive,positive,l,l,1,0.7818220998160541,362.96663209982216,363.9807286998257,363.9608755998779,None,362.96663209982216,None,362.96663209982216,None,362.96663209982216,None,364.74417416981885,None,364.74417416981885,None,364.74417416981885,None,,,,,,,,,,,,,,204,2023-03-28_14h44.36.071,Main,2022.1.1,58.98459200445998,
neutral,positive,2,k,k,,,,,,,,,5,2,92,13,,,,,,,,,main,2,2,2,positive,neutral,k,k,1,0.7652791000436991,364.74947619996965,365.7608405998908,365.74428769992664,None,364.74947619996965,None,364.74947619996965,None,364.74947619996965,None,366.5108013699995,None,366.5108013699995,None,366.5108013699995,None,,,,,,,,,,,,,,204,2023-03-28_14h44.36.071,Main,2022.1.1,58.98459200445998,
positive,neutral,1,l,j,,,,,,,,,5,3,93,8,,,,,,,,,main,2,2,1,neutral,positive,l,l,1,0.7484692998696119,366.5173273999244,367.52747979993,367.5108011998236,None,366.5173273999244,None,366.5173273999244,None,366.5173273999244,None,368.26076216993386,None,368.26076216993386,None,368.26076216993386,None,,,,,,,,,,,,,,204,2023-03-28_14h44.36.071,Main,2022.1.1,58.98459200445998,
negative,positive,2,j,l,,,,,,,,,5,4,94,15,,,,,,,,,main,1,1,2,positive,negative,j,j,1,0.7975870000664145,368.2667351998389,369.2774246998597,369.26075609982945,None,368.2667351998389,None,368.2667351998389,None,368.2667351998389,None,370.0607361700153,None,370.0607361700153,None,370.0607361700153,None,,,,,,,,,,,,,,204,2023-03-28_14h44.36.071,Main,2022.1.1,58.98459200445998,
negative,positive,1,j,l,,,,,,,,,5,5,95,6,,,,,,,,,main,1,1,1,positive,negative,j,j,1,0.9318520999513566,370.0662183999084,371.07736289990135,371.0635130999144,None,370.0662183999084,None,370.0662183999084,None,370.0662183999084,None,371.99404946991706,None,371.99404946991706,None,371.99404946991706,None,,,,,,,,,,,,,,204,2023-03-28_14h44.36.071,Main,2022.1.1,58.98459200445998,
negative,negative,2,j,l,,,,,,,,,5,6,96,9,,,,,,,,,main,2,2,2,negative,negative,j,j,1,0.6480886999052018,371.9994267998263,373.01078130002134,372.9941979998257,None,371.9994267998263,None,371.9994267998263,None,371.9994267998263,None,373.6439871699316,None,373.6439871699316,None,373.6439871699316,None,,,,,,,,,,,,,,204,2023-03-28_14h44.36.071,Main,2022.1.1,58.98459200445998,
positive,negative,2,l,j,,,,,,,,,5,7,97,14,,,,,,,,,main,1,1,2,negative,positive,l,l,1,0.6820610000286251,373.6488483999856,374.6634088999126,374.6467899000272,None,373.6488483999856,None,373.6488483999856,None,373.6488483999856,None,375.3272867698455,None,375.3272867698455,None,375.3272867698455,None,,,,,,,,,,,,,,204,2023-03-28_14h44.36.071,Main,2022.1.1,58.98459200445998,
neutral,negative,2,k,k,,,,,,,,,5,8,98,16,,,,,,,,,main,1,1,2,negative,neutral,k,k,1,0.6983362999744713,375.3306346000172,376.3467055999208,376.3106114999391,None,375.3306346000172,None,375.3306346000172,None,375.3306346000172,None,377.0272644699784,None,377.0272644699784,None,377.0272644699784,None,,,,,,,,,,,,,,204,2023-03-28_14h44.36.071,Main,2022.1.1,58.98459200445998,
negative,negative,1,j,l,,,,,,,,,5,9,99,0,,,,,,,,,main,2,2,1,negative,negative,j,j,1,0.6160987999755889,377.0309576999862,378.04391089989804,378.0274139000103,None,377.0309576999862,None,377.0309576999862,None,377.0309576999862,None,378.64396877002434,None,378.64396877002434,None,378.64396877002434,None,,,,,,,,,,,,,,204,2023-03-28_14h44.36.071,Main,2022.1.1,58.98459200445998,
neutral,neutral,1,k,k,,,,,,,,,5,10,100,1,,,,,,,,,main,1,1,1,neutral,neutral,k,k,1,1.3972746001090854,378.64798150002025,379.66055789985694,379.6439101998694,None,378.64798150002025,None,378.64798150002025,None,378.64798150002025,None,381.04385356998534,None,381.04385356998534,None,381.04385356998534,None,,,,,,,,,,,,,,204,2023-03-28_14h44.36.071,Main,2022.1.1,58.98459200445998,
neutral,positive,1,k,k,,,,,,,,,5,11,101,4,,,,,,,,,main,1,1,1,positive,neutral,k,k,1,0.6316472000908107,381.0494494999293,382.0605111999903,382.04667670000345,None,381.0494494999293,None,381.0494494999293,None,381.0494494999293,None,382.6771659699501,None,382.6771659699501,None,382.6771659699501,None,,,,,,,,,,,,,,204,2023-03-28_14h44.36.071,Main,2022.1.1,58.98459200445998,
neutral,neutral,2,k,k,,,,,,,,,5,12,102,10,,,,,,,,,main,1,1,2,neutral,neutral,k,k,1,0.7150076001416892,382.6826291999314,383.69656249997206,383.67713369987905,None,382.6826291999314,None,382.6826291999314,None,382.6826291999314,None,384.3937670700019,None,384.3937670700019,None,384.3937670700019,None,,,,,,,,,,,,,,204,2023-03-28_14h44.36.071,Main,2022.1.1,58.98459200445998,
positive,neutral,2,l,j,,,,,,,,,5,13,103,17,,,,,,,,,main,2,2,2,neutral,positive,l,l,1,0.7321246999781579,384.399557699915,385.41314469999634,385.3937555998564,None,384.399557699915,None,384.399557699915,None,384.399557699915,None,386.1274610699387,None,386.1274610699387,None,386.1274610699387,None,,,,,,,,,,,,,,204,2023-03-28_14h44.36.071,Main,2022.1.1,58.98459200445998,
positive,negative,1,l,j,,,,,,,,,5,14,104,5,,,,,,,,,main,1,1,1,negative,positive,l,l,1,0.8647779999300838,386.13293519988656,387.1437544999644,387.1270733999554,None,386.13293519988656,None,386.13293519988656,None,386.13293519988656,None,387.993701369944,None,387.993701369944,None,387.993701369944,None,,,,,,,,,,,,,,204,2023-03-28_14h44.36.071,Main,2022.1.1,58.98459200445998,
neutral,negative,1,k,k,,,,,,,,,5,15,105,7,,,,,,,,,main,1,1,1,negative,neutral,k,k,1,0.7143373000435531,387.997287399834,388.9936963999644,388.9936963999644,None,387.997287399834,None,387.997287399834,None,387.997287399834,None,389.71012227002063,None,389.71012227002063,None,389.71012227002063,None,,,,,,,,,,,,,,204,2023-03-28_14h44.36.071,Main,2022.1.1,58.98459200445998,
positive,positive,1,l,j,,,,,,,,,5,16,106,2,,,,,,,,,main,2,2,1,positive,positive,l,l,1,0.7829378999304026,389.7166997999884,390.7270175998565,390.6964394999668,None,389.7166997999884,None,389.7166997999884,None,389.7166997999884,None,391.4936462698737,None,391.4936462698737,None,391.4936462698737,None,,,,,,,,,,,,,,204,2023-03-28_14h44.36.071,Main,2022.1.1,58.98459200445998,
negative,neutral,1,j,l,,,,,,,,,5,17,107,3,,,,,,,,,main,1,1,1,neutral,negative,j,j,1,0.7640497998800129,391.5103825000115,392.510288399877,392.4964605998248,None,391.5103825000115,None,391.5103825000115,None,391.5103825000115,None,393.2602621698519,None,393.2602621698519,None,393.2602621698519,None,,,,,,,,,,,,,,204,2023-03-28_14h44.36.071,Main,2022.1.1,58.98459200445998,
neutral,negative,1,k,k,,,,,,,,,6,0,108,7,,,,,,,,,main,2,2,1,negative,neutral,k,k,1,0.7651819000020623,393.26576989982277,394.2769051999785,394.26309809996746,None,393.26576989982277,None,393.26576989982277,None,393.26576989982277,None,395.0269179700175,None,395.0269179700175,None,395.0269179700175,None,,,,,,,,,,,,,,204,2023-03-28_14h44.36.071,Main,2022.1.1,58.98459200445998,
neutral,neutral,1,k,k,,,,,,,,,6,1,109,1,,,,,,,,,main,2,2,1,neutral,neutral,k,k,1,0.6147336999420077,395.03256229986437,396.043678099988,396.02689939993434,None,395.03256229986437,None,395.03256229986437,None,395.03256229986437,None,396.6435246700188,None,396.6435246700188,None,396.6435246700188,None,,,,,,,,,,,,,,204,2023-03-28_14h44.36.071,Main,2022.1.1,58.98459200445998,
negative,negative,2,j,l,,,,,,,,,6,2,110,9,,,,,,,,,main,2,2,2,negative,negative,j,j,1,0.8317772999871522,396.6496619998943,397.66019960003905,397.6296675999183,None,396.6496619998943,None,396.6496619998943,None,396.6496619998943,None,398.4767892700387,None,398.4767892700387,None,398.4767892700387,None,,,,,,,,,,,,,,204,2023-03-28_14h44.36.071,Main,2022.1.1,58.98459200445998,
positive,neutral,2,l,j,,,,,,,,,6,3,111,17,,,,,,,,,main,1,1,2,neutral,positive,l,l,1,0.7651408999226987,398.48227759986185,399.4962070998736,399.47683009994216,None,398.48227759986185,None,398.48227759986185,None,398.48227759986185,None,400.2434780699899,None,400.2434780699899,None,400.2434780699899,None,,,,,,,,,,,,,,204,2023-03-28_14h44.36.071,Main,2022.1.1,58.98459200445998,
neutral,negative,2,k,k,,,,,,,,,6,4,112,16,,,,,,,,,main,2,2,2,negative,neutral,k,k,1,0.6648862999863923,400.24709589988925,401.26009249989875,401.24346359982155,None,400.24709589988925,None,400.24709589988925,None,400.24709589988925,None,401.9100980700226,None,401.9100980700226,None,401.9100980700226,None,,,,,,,,,,,,,,204,2023-03-28_14h44.36.071,Main,2022.1.1,58.98459200445998,
positive,negative,2,l,j,,,,,,,,,6,5,113,14,,,,,,,,,main,2,2,2,negative,positive,l,l,1,0.6482075001113117,401.9135753000155,402.9098192998208,402.9098192998208,None,401.9135753000155,None,401.9135753000155,None,401.9135753000155,None,403.560084869829,None,403.560084869829,None,403.560084869829,None,,,,,,,,,,,,,,204,2023-03-28_14h44.36.071,Main,2022.1.1,58.98459200445998,
neutral,positive,1,k,k,,,,,,,,,6,6,114,4,,,,,,,,,main,2,2,1,positive,neutral,k,k,1,0.6317583001218736,403.56329419999383,404.560056499904,404.5462720999494,None,403.56329419999383,None,403.56329419999383,None,403.56329419999383,None,405.19332206991965,None,405.19332206991965,None,405.19332206991965,None,,,,,,,,,,,,,,204,2023-03-28_14h44.36.071,Main,2022.1.1,58.98459200445998,
negative,neutral,1,j,l,,,,,,,,,6,7,115,3,,,,,,,,,main,2,2,1,neutral,negative,j,j,1,0.6650334000587463,405.19895909982733,406.21270829997957,406.19611969986,None,405.19895909982733,None,405.19895909982733,None,405.19895909982733,None,406.85999156998,None,406.85999156998,None,406.85999156998,None,,,,,,,,,,,,,,204,2023-03-28_14h44.36.071,Main,2022.1.1,58.98459200445998,
negative,positive,1,j,l,,,,,,,,,6,8,116,6,,,,,,,,,main,2,2,1,positive,negative,j,j,1,0.5982866999693215,406.8656855998561,407.85988319991156,407.85988319991156,None,406.8656855998561,None,406.8656855998561,None,406.8656855998561,None,408.4599411699222,None,408.4599411699222,None,408.4599411699222,None,,,,,,,,,,,,,,204,2023-03-28_14h44.36.071,Main,2022.1.1,58.98459200445998,
positive,positive,2,l,j,,,,,,,,,6,9,117,11,,,,,,,,,main,2,2,2,positive,positive,l,l,1,0.737233699997887,408.4653602000326,409.4766169998329,409.4627237999812,None,408.4653602000326,None,408.4653602000326,None,408.4653602000326,None,410.198640069901,None,410.198640069901,None,410.198640069901,None,,,,,,,,,,,,,,204,2023-03-28_14h44.36.071,Main,2022.1.1,58.98459200445998,
negative,positive,2,j,l,,,,,,,,,6,10,118,15,,,,,,,,,main,2,2,2,positive,negative,j,j,1,0.7428739999886602,410.2028327998705,411.20991669991054,411.1932870999444,None,410.2028327998705,None,410.2028327998705,None,410.2028327998705,None,411.9432298699161,None,411.9432298699161,None,411.9432298699161,None,,,,,,,,,,,,,,204,2023-03-28_14h44.36.071,Main,2022.1.1,58.98459200445998,
negative,neutral,2,j,l,,,,,,,,,6,11,119,12,,,,,,,,,main,2,2,2,neutral,negative,j,j,1,0.6316420000512153,411.94861349998973,412.9598789999727,412.92654429981485,None,411.94861349998973,None,411.94861349998973,None,411.94861349998973,None,413.5765258699888,None,413.5765258699888,None,413.5765258699888,None,,,,,,,,,,,,,,204,2023-03-28_14h44.36.071,Main,2022.1.1,58.98459200445998,
positive,neutral,1,l,j,,,,,,,,,6,12,120,8,,,,,,,,,main,2,2,1,neutral,positive,l,l,1,0.7811567999888211,413.58296659984626,414.59319519996643,414.57929919986054,None,413.58296659984626,None,413.58296659984626,None,413.58296659984626,None,415.3598189698299,None,415.3598189698299,None,415.3598189698299,None,,,,,,,,,,,,,,204,2023-03-28_14h44.36.071,Main,2022.1.1,58.98459200445998,
positive,negative,1,l,j,,,,,,,,,6,13,121,5,,,,,,,,,main,2,2,1,negative,positive,l,l,1,0.6482580997981131,415.3655113000423,416.37916269991547,416.359799799975,None,415.3655113000423,None,415.3655113000423,None,415.3655113000423,None,417.00977306996936,None,417.00977306996936,None,417.00977306996936,None,,,,,,,,,,,,,,204,2023-03-28_14h44.36.071,Main,2022.1.1,58.98459200445998,
neutral,positive,2,k,k,,,,,,,,,6,14,122,13,,,,,,,,,main,1,1,2,positive,neutral,k,k,1,0.748432699823752,417.0170711998362,418.0291234999895,418.0126386999618,None,417.0170711998362,None,417.0170711998362,None,417.0170711998362,None,418.7597517699236,None,418.7597517699236,None,418.7597517699236,None,,,,,,,,,,,,,,204,2023-03-28_14h44.36.071,Main,2022.1.1,58.98459200445998,
positive,positive,1,l,j,,,,,,,,,6,15,123,2,,,,,,,,,main,2,2,1,positive,positive,l,l,1,0.6983795999549329,418.7654049999546,419.7791363999713,419.7597890999168,None,418.7654049999546,None,418.7654049999546,None,418.7654049999546,None,420.45971106991635,None,420.45971106991635,None,420.45971106991635,None,,,,,,,,,,,,,,204,2023-03-28_14h44.36.071,Main,2022.1.1,58.98459200445998,
negative,negative,1,j,l,,,,,,,,,6,16,124,0,,,,,,,,,main,2,2,1,negative,negative,j,j,1,0.6998075000010431,420.4652470999863,421.4763497998938,421.4596779998392,None,420.4652470999863,None,420.4652470999863,None,420.4652470999863,None,422.1597086698515,None,422.1597086698515,None,422.1597086698515,None,,,,,,,,,,,,,,204,2023-03-28_14h44.36.071,Main,2022.1.1,58.98459200445998,
neutral,neutral,2,k,k,,,,,,,,,6,17,125,10,,,,,,,,,main,2,2,2,neutral,neutral,k,k,1,0.7799566998146474,422.1661958999466,423.1764576998539,423.15968879987486,None,422.1661958999466,None,422.1661958999466,None,422.1661958999466,None,423.9426940700272,None,423.9426940700272,None,423.9426940700272,None,,,,,,,,,,,,,,204,2023-03-28_14h44.36.071,Main,2022.1.1,58.98459200445998,
negative,negative,1,j,l,,,,,,,,,7,0,126,0,,,,,,,,,main,1,1,1,negative,negative,j,j,1,0.7319330000318587,423.9493102999404,424.95966419996694,424.92632209998555,None,423.9493102999404,None,423.9493102999404,None,423.9493102999404,None,425.6762775699375,None,425.6762775699375,None,425.6762775699375,None,,,,,,,,,,,,,,204,2023-03-28_14h44.36.071,Main,2022.1.1,58.98459200445998,
positive,positive,2,l,j,,,,,,,,,7,1,127,11,,,,,,,,,main,1,1,2,positive,positive,l,l,1,0.748341599944979,425.6819042998832,426.69295899989083,426.67628589994274,None,425.6819042998832,None,425.6819042998832,None,425.6819042998832,None,427.4262309698155,None,427.4262309698155,None,427.4262309698155,None,,,,,,,,,,,,,,204,2023-03-28_14h44.36.071,Main,2022.1.1,58.98459200445998,
positive,negative,2,l,j,,,,,,,,,7,2,128,14,,,,,,,,,main,1,1,2,negative,positive,l,l,1,0.6483166001271456,427.42964159999974,428.44290429982357,428.4262248999439,None,427.42964159999974,None,427.42964159999974,None,427.42964159999974,None,429.07621186992617,None,429.07621186992617,None,429.07621186992617,None,,,,,,,,,,,,,,204,2023-03-28_14h44.36.071,Main,2022.1.1,58.98459200445998,
negative,positive,1,j,l,,,,,,,,,7,3,129,6,,,,,,,,,main,2,2,1,positive,negative,j,j,1,0.6835307001601905,429.0826622999739,430.09564139996655,430.07621890003793,None,429.0826622999739,None,429.0826622999739,None,429.0826622999739,None,430.76221137002574,None,430.76221137002574,None,430.76221137002574,None,,,,,,,,,,,,,,204,2023-03-28_14h44.36.071,Main,2022.1.1,58.98459200445998,
neutral,positive,2,k,k,,,,,,,,,7,4,130,13,,,,,,,,,main,2,2,2,positive,neutral,k,j,0,-0.7875789999961853,430.7651149998419,None,None,None,430.7651149998419,None,430.7651149998419,None,430.7651149998419,None,430.9759507998824,None,430.9759507998824,None,430.9759507998824,None,,,,,,,,,,,,,,204,2023-03-28_14h44.36.071,Main,2022.1.1,58.98459200445998,
negative,negative,2,j,l,,,,,,,,,7,5,131,9,,,,,,,,,main,1,1,2,negative,negative,j,j,1,0.6169871999882162,433.9771791000385,434.99546719994396,434.9594562998973,None,433.9771791000385,None,433.9771791000385,None,433.9771791000385,None,435.59248836988115,None,435.59248836988115,None,435.59248836988115,None,,,,,,,,,,,,,,204,2023-03-28_14h44.36.071,Main,2022.1.1,58.98459200445998,
neutral,neutral,1,k,k,,,,,,,,,7,6,132,1,,,,,,,,,main,1,1,1,neutral,neutral,k,k,1,0.7152713001705706,435.5983877000399,436.6093925999012,436.59274729993194,None,435.5983877000399,None,435.5983877000399,None,435.5983877000399,None,437.3093777699163,None,437.3093777699163,None,437.3093777699163,None,,,,,,,,,,,,,,204,2023-03-28_14h44.36.071,Main,2022.1.1,58.98459200445998,
positive,neutral,2,l,j,,,,,,,,,7,7,133,17,,,,,,,,,main,2,2,2,neutral,positive,l,l,1,0.7149263999890536,437.3149234999437,438.32605189993046,438.30937519995496,None,437.3149234999437,None,437.3149234999437,None,437.3149234999437,None,439.0257257700199,None,439.0257257700199,None,439.0257257700199,None,,,,,,,,,,,,,,204,2023-03-28_14h44.36.071,Main,2022.1.1,58.98459200445998,
neutral,negative,2,k,k,,,,,,,,,7,8,134,16,,,,,,,,,main,2,2,2,negative,neutral,k,k,1,0.7650641999207437,439.0293161999434,440.02879819995724,440.02879819995724,None,439.0293161999434,None,439.0293161999434,None,439.0293161999434,None,440.7926482700044,None,440.7926482700044,None,440.7926482700044,None,,,,,,,,,,,,,,204,2023-03-28_14h44.36.071,Main,2022.1.1,58.98459200445998,
neutral,neutral,2,k,k,,,,,,,,,7,9,135,10,,,,,,,,,main,1,1,2,neutral,neutral,k,k,1,0.6817628000862896,440.79775239992887,441.81200259993784,441.7760605998337,None,440.79775239992887,None,440.79775239992887,None,440.79775239992887,None,442.4760189698776,None,442.4760189698776,None,442.4760189698776,None,,,,,,,,,,,,,,204,2023-03-28_14h44.36.071,Main,2022.1.1,58.98459200445998,
positive,negative,1,l,j,,,,,,,,,7,10,136,5,,,,,,,,,main,1,1,1,negative,positive,l,l,1,0.7855563000775874,442.4815811999142,443.4925796999596,443.47590259998105,None,442.4815811999142,None,442.4815811999142,None,442.4815811999142,None,444.26320816993245,None,444.26320816993245,None,444.26320816993245,None,,,,,,,,,,,,,,204,2023-03-28_14h44.36.071,Main,2022.1.1,58.98459200445998,
positive,positive,1,l,j,,,,,,,,,7,11,137,2,,,,,,,,,main,1,1,1,positive,positive,l,l,1,0.627977899974212,444.2666753998492,445.2759245999623,445.2592402000446,None,444.2666753998492,None,444.2666753998492,None,444.2666753998492,None,445.8925602698931,None,445.8925602698931,None,445.8925602698931,None,,,,,,,,,,,,,,204,2023-03-28_14h44.36.071,Main,2022.1.1,58.98459200445998,
negative,positive,2,j,l,,,,,,,,,7,12,138,15,,,,,,,,,main,2,2,2,positive,negative,j,j,1,0.7148275000508875,445.8961791000329,446.90920739993453,446.895327599952,None,445.8961791000329,None,445.8961791000329,None,445.8961791000329,None,447.6091256700223,None,447.6091256700223,None,447.6091256700223,None,,,,,,,,,,,,,,204,2023-03-28_14h44.36.071,Main,2022.1.1,58.98459200445998,
neutral,positive,1,k,k,,,,,,,,,7,13,139,4,,,,,,,,,main,2,2,1,positive,neutral,k,k,1,0.6653523999266326,447.61453179991804,448.628559099976,448.592501899926,None,447.61453179991804,None,447.61453179991804,None,447.61453179991804,None,449.2758190699154,None,449.2758190699154,None,449.2758190699154,None,,,,,,,,,,,,,,204,2023-03-28_14h44.36.071,Main,2022.1.1,58.98459200445998,
positive,neutral,1,l,j,,,,,,,,,7,14,140,8,,,,,,,,,main,1,1,1,neutral,positive,l,l,1,0.6983976000919938,449.2812728998251,450.29246070003137,450.2758024998475,None,449.2812728998251,None,449.2812728998251,None,449.2812728998251,None,450.97576686993705,None,450.97576686993705,None,450.97576686993705,None,,,,,,,,,,,,,,204,2023-03-28_14h44.36.071,Main,2022.1.1,58.98459200445998,
negative,neutral,2,j,l,,,,,,,,,7,15,141,12,,,,,,,,,main,1,1,2,neutral,negative,j,j,1,0.7640986999031156,450.9925504999701,451.9950597998686,451.9757507999893,None,450.9925504999701,None,450.9925504999701,None,450.9925504999701,None,452.74241876995654,None,452.74241876995654,None,452.74241876995654,None,,,,,,,,,,,,,,204,2023-03-28_14h44.36.071,Main,2022.1.1,58.98459200445998,
negative,neutral,1,j,l,,,,,,,,,7,16,142,3,,,,,,,,,main,2,2,1,neutral,negative,j,j,1,0.7482399998698384,452.74807929992676,453.7590683000162,453.7452181999106,None,452.74807929992676,None,452.74807929992676,None,452.74807929992676,None,454.49234246995763,None,454.49234246995763,None,454.49234246995763,None,,,,,,,,,,,,,,204,2023-03-28_14h44.36.071,Main,2022.1.1,58.98459200445998,
neutral,negative,1,k,k,,,,,,,,,7,17,143,7,,,,,,,,,main,2,2,1,negative,neutral,k,k,1,0.6652199998497963,454.4976064998191,455.5089914998971,455.4923320999369,None,454.4976064998191,None,454.4976064998191,None,454.4976064998191,None,456.15898646994026,None,456.15898646994026,None,456.15898646994026,None,,,,,,,,,,,,,,204,2023-03-28_14h44.36.071,Main,2022.1.1,58.98459200445998,
positive,neutral,2,l,j,,,,,,,,,8,0,144,17,,,,,,,,,main,2,2,2,neutral,positive,l,l,1,0.7150245998054743,456.1653968000319,457.1757137000095,457.1590513000265,None,456.1653968000319,None,456.1653968000319,None,456.1653968000319,None,457.875632169866,None,457.875632169866,None,457.875632169866,None,,,,,,,,,,,,,,204,2023-03-28_14h44.36.071,Main,2022.1.1,58.98459200445998,
negative,neutral,1,j,l,,,,,,,,,8,1,145,3,,,,,,,,,main,1,1,1,neutral,negative,j,j,1,0.7481727998238057,457.88180750003085,458.8923100999091,458.87838939996436,None,457.88180750003085,None,457.88180750003085,None,457.88180750003085,None,459.6255672699539,None,459.6255672699539,None,459.6255672699539,None,,,,,,,,,,,,,,204,2023-03-28_14h44.36.071,Main,2022.1.1,58.98459200445998,
neutral,neutral,2,k,k,,,,,,,,,8,2,146,10,,,,,,,,,main,2,2,2,neutral,neutral,k,k,1,0.6480893001426011,459.6450123998802,460.6616384999361,460.62559389998205,None,459.6450123998802,None,459.6450123998802,None,459.6450123998802,None,461.2755335699534,None,461.2755335699534,None,461.2755335699534,None,,,,,,,,,,,,,,204,2023-03-28_14h44.36.071,Main,2022.1.1,58.98459200445998,
positive,positive,1,l,j,,,,,,,,,8,3,147,2,,,,,,,,,main,2,2,1,positive,positive,l,l,1,0.6316437998320907,461.28120870003477,462.2949343000073,462.275571399834,None,461.28120870003477,None,461.28120870003477,None,461.28120870003477,None,462.90886276981325,None,462.90886276981325,None,462.90886276981325,None,,,,,,,,,,,,,,204,2023-03-28_14h44.36.071,Main,2022.1.1,58.98459200445998,
positive,neutral,1,l,j,,,,,,,,,8,4,148,8,,,,,,,,,main,2,2,1,neutral,positive,l,l,1,0.5984018999151886,462.9145486999769,463.92555649997666,463.9088667000178,None,462.9145486999769,None,462.9145486999769,None,462.9145486999769,None,464.508845069888,None,464.508845069888,None,464.508845069888,None,,,,,,,,,,,,,,204,2023-03-28_14h44.36.071,Main,2022.1.1,58.98459200445998,
positive,negative,2,l,j,,,,,,,,,8,5,149,14,,,,,,,,,main,2,2,2,negative,positive,l,l,1,0.6983327001798898,464.51222439995036,465.5254951999523,465.5088124999311,None,464.51222439995036,None,464.51222439995036,None,464.51222439995036,None,466.2087847699644,None,466.2087847699644,None,466.2087847699644,None,,,,,,,,,,,,,,204,2023-03-28_14h44.36.071,Main,2022.1.1,58.98459200445998,
negative,negative,2,j,l,,,,,,,,,8,6,150,9,,,,,,,,,main,1,1,2,negative,negative,j,j,1,0.6983924000523984,466.21406130003743,467.2255609999411,467.20888409996405,None,466.21406130003743,None,466.21406130003743,None,466.21406130003743,None,467.9088818698423,None,467.9088818698423,None,467.9088818698423,None,,,,,,,,,,,,,,204,2023-03-28_14h44.36.071,Main,2022.1.1,58.98459200445998,
neutral,neutral,1,k,k,,,,,,,,,8,7,151,1,,,,,,,,,main,2,2,1,neutral,neutral,k,k,1,0.6815853998996317,467.9142259999644,468.92542149988003,468.9087499999441,None,467.9142259999644,None,467.9142259999644,None,467.9142259999644,None,469.59202996988313,None,469.59202996988313,None,469.59202996988313,None,,,,,,,,,,,,,,204,2023-03-28_14h44.36.071,Main,2022.1.1,58.98459200445998,
negative,positive,2,j,l,,,,,,,,,8,8,152,15,,,,,,,,,main,1,1,2,positive,negative,j,j,1,0.7018263000063598,469.59744289983064,470.6086999999825,470.5948345998768,None,469.59744289983064,None,469.59744289983064,None,469.59744289983064,None,471.2951250700047,None,471.2951250700047,None,471.2951250700047,None,,,,,,,,,,,,,,204,2023-03-28_14h44.36.071,Main,2022.1.1,58.98459200445998,
neutral,negative,2,k,k,,,,,,,,,8,9,153,16,,,,,,,,,main,2,2,2,negative,neutral,k,k,1,0.7118279999122024,471.29990220000036,472.31154719996266,472.2947867999319,None,471.29990220000036,None,471.29990220000036,None,471.29990220000036,None,473.0086536698276,None,473.0086536698276,None,473.0086536698276,None,,,,,,,,,,,,,,204,2023-03-28_14h44.36.071,Main,2022.1.1,58.98459200445998,
negative,positive,1,j,l,,,,,,,,,8,10,154,6,,,,,,,,,main,2,2,1,positive,negative,j,j,1,0.5983865999151021,473.0122901999857,474.01154079986736,474.01154079986736,None,473.0122901999857,None,473.0122901999857,None,473.0122901999857,None,474.60861686987334,None,474.60861686987334,None,474.60861686987334,None,,,,,,,,,,,,,,204,2023-03-28_14h44.36.071,Main,2022.1.1,58.98459200445998,
neutral,negative,1,k,k,,,,,,,,,8,11,155,7,,,,,,,,,main,2,2,1,negative,neutral,k,k,1,0.6652915999293327,474.6116643999703,475.6252708998509,475.5919329999015,None,474.6116643999703,None,474.6116643999703,None,474.6116643999703,None,476.27529637000987,None,476.27529637000987,None,476.27529637000987,None,,,,,,,,,,,,,,204,2023-03-28_14h44.36.071,Main,2022.1.1,58.98459200445998,
positive,negative,1,l,j,,,,,,,,,8,12,156,5,,,,,,,,,main,1,1,1,negative,positive,l,l,1,0.6162005001679063,476.2810090999119,477.29192589991726,477.2752645998262,None,476.2810090999119,None,476.2810090999119,None,476.2810090999119,None,477.8918801699532,None,477.8918801699532,None,477.8918801699532,None,,,,,,,,,,,,,,204,2023-03-28_14h44.36.071,Main,2022.1.1,58.98459200445998,
neutral,positive,2,k,k,,,,,,,,,8,13,157,13,,,,,,,,,main,2,2,2,positive,neutral,k,k,1,0.6805877999868244,477.8981926999986,478.9113942999393,478.8919063999783,None,477.8981926999986,None,477.8981926999986,None,477.8981926999986,None,479.57516777000853,None,479.57516777000853,None,479.57516777000853,None,,,,,,,,,,,,,,204,2023-03-28_14h44.36.071,Main,2022.1.1,58.98459200445998,
negative,neutral,2,j,l,,,,,,,,,8,14,158,12,,,,,,,,,main,2,2,2,neutral,negative,j,j,1,0.7149221000727266,479.58111259993166,480.59184979996644,480.57796259992756,None,479.58111259993166,None,479.58111259993166,None,479.58111259993166,None,481.2918361699907,None,481.2918361699907,None,481.2918361699907,None,,,,,,,,,,,,,,204,2023-03-28_14h44.36.071,Main,2022.1.1,58.98459200445998,
positive,positive,2,l,j,,,,,,,,,8,15,159,11,,,,,,,,,main,2,2,2,positive,positive,l,l,1,0.8028923999518156,481.29564749985,482.30864069983363,482.2751488999929,None,481.29564749985,None,481.29564749985,None,481.29564749985,None,483.09582236988933,None,483.09582236988933,None,483.09582236988933,None,,,,,,,,,,,,,,204,2023-03-28_14h44.36.071,Main,2022.1.1,58.98459200445998,
neutral,positive,1,k,k,,,,,,,,,8,16,160,4,,,,,,,,,main,2,2,1,positive,neutral,k,k,1,0.6437878999859095,483.09907729993574,484.10845659999177,484.09460860001855,None,483.09907729993574,None,483.09907729993574,None,483.09907729993574,None,484.7414943699026,None,484.7414943699026,None,484.7414943699026,None,,,,,,,,,,,,,,204,2023-03-28_14h44.36.071,Main,2022.1.1,58.98459200445998,
negative,negative,1,j,l,,,,,,,,,8,17,161,0,,,,,,,,,main,2,2,1,negative,negative,j,j,1,0.7991839000023901,484.74660969991237,485.75842499989085,485.74183989991434,None,484.74660969991237,None,484.74660969991237,None,484.74660969991237,None,486.5416929698316,None,486.5416929698316,None,486.5416929698316,None,,,,,,,,,,,,,,204,2023-03-28_14h44.36.071,Main,2022.1.1,58.98459200445998,
neutral,negative,1,k,k,,,,,,,,,9,0,162,7,,,,,,,,,main,2,2,1,negative,neutral,k,k,1,0.7811721998732537,486.547909299843,487.5583496999461,487.54170369985513,None,486.547909299843,None,486.547909299843,None,486.547909299843,None,488.32498717003034,None,488.32498717003034,None,488.32498717003034,None,,,,,,,,,,,,,,204,2023-03-28_14h44.36.071,Main,2022.1.1,58.98459200445998,
neutral,neutral,2,k,k,,,,,,,,,9,1,163,10,,,,,,,,,main,1,1,2,neutral,neutral,k,k,1,0.848477799911052,488.33063959982246,489.34167429991066,489.32502319989726,None,488.33063959982246,None,488.33063959982246,None,488.33063959982246,None,490.17492976991923,None,490.17492976991923,None,490.17492976991923,None,,,,,,,,,,,,,,204,2023-03-28_14h44.36.071,Main,2022.1.1,58.98459200445998,
neutral,neutral,1,k,k,,,,,,,,,9,2,164,1,,,,,,,,,main,1,1,1,neutral,neutral,k,k,1,0.664989500073716,490.17995739984326,491.1918069999665,491.1583204998169,None,490.17995739984326,None,490.17995739984326,None,490.17995739984326,None,491.84162676983976,None,491.84162676983976,None,491.84162676983976,None,,,,,,,,,,,,,,204,2023-03-28_14h44.36.071,Main,2022.1.1,58.98459200445998,
neutral,positive,2,k,k,,,,,,,,,9,3,165,13,,,,,,,,,main,2,2,2,positive,neutral,k,k,1,0.7320285001769662,491.8474031998776,492.8582582999952,492.841601499822,None,491.8474031998776,None,491.8474031998776,None,491.8474031998776,None,493.57490246996747,None,493.57490246996747,None,493.57490246996747,None,,,,,,,,,,,,,,204,2023-03-28_14h44.36.071,Main,2022.1.1,58.98459200445998,
positive,neutral,2,l,j,,,,,,,,,9,4,166,17,,,,,,,,,main,2,2,2,neutral,positive,l,l,1,0.7649980001151562,493.58061169995926,494.5915424998384,494.57490749983117,None,493.58061169995926,None,493.58061169995926,None,493.58061169995926,None,495.34152566988485,None,495.34152566988485,None,495.34152566988485,None,,,,,,,,,,,,,,204,2023-03-28_14h44.36.071,Main,2022.1.1,58.98459200445998,
neutral,positive,1,k,k,,,,,,,,,9,5,167,4,,,,,,,,,main,1,1,1,positive,neutral,k,j,0,0.5981983998790383,495.3471069999505,496.36091659986414,496.34437029995024,None,495.3471069999505,None,495.3471069999505,None,495.3471069999505,None,496.9415412999224,None,496.9415412999224,None,496.9415412999224,None,,,,,,,,,,,,,,204,2023-03-28_14h44.36.071,Main,2022.1.1,58.98459200445998,
negative,neutral,2,j,l,,,,,,,,,9,6,168,12,,,,,,,,,main,2,2,2,neutral,negative,j,j,1,0.7506698002107441,497.9425784999039,498.95815109997056,498.92479299986735,None,497.9425784999039,None,497.9425784999039,None,497.9425784999039,None,499.6914339698618,None,499.6914339698618,None,499.6914339698618,None,,,,,,,,,,,,,,204,2023-03-28_14h44.36.071,Main,2022.1.1,58.98459200445998,
negative,positive,2,j,l,,,,,,,,,9,7,169,15,,,,,,,,,main,2,2,2,positive,negative,j,j,1,0.6316012998577207,499.6971513000317,500.7080916999839,500.69142159982584,None,499.6971513000317,None,499.6971513000317,None,499.6971513000317,None,501.3247500699712,None,501.3247500699712,None,501.3247500699712,None,,,,,,,,,,,,,,204,2023-03-28_14h44.36.071,Main,2022.1.1,58.98459200445998,
positive,negative,2,l,j,,,,,,,,,9,8,170,14,,,,,,,,,main,2,2,2,negative,positive,l,l,1,0.7977244001813233,501.34146189992316,502.3414016000461,502.3247304998804,None,501.34146189992316,None,501.34146189992316,None,501.34146189992316,None,503.1247183698928,None,503.1247183698928,None,503.1247183698928,None,,,,,,,,,,,,,,204,2023-03-28_14h44.36.071,Main,2022.1.1,58.98459200445998,
negative,positive,1,j,l,,,,,,,,,9,9,171,6,,,,,,,,,main,2,2,1,positive,negative,j,j,1,0.7984019999857992,503.1303899998311,504.1441392998677,504.1247113000136,None,503.1303899998311,None,503.1303899998311,None,503.1303899998311,None,504.92466296998316,None,504.92466296998316,None,504.92466296998316,None,,,,,,,,,,,,,,204,2023-03-28_14h44.36.071,Main,2022.1.1,58.98459200445998,
negative,neutral,1,j,l,,,,,,,,,9,10,172,3,,,,,,,,,main,2,2,1,neutral,negative,j,j,1,0.6818554000928998,504.9299363999162,505.941353000002,505.92467770003714,None,504.9299363999162,None,504.9299363999162,None,504.9299363999162,None,506.60797937002496,None,506.60797937002496,None,506.60797937002496,None,,,,,,,,,,,,,,204,2023-03-28_14h44.36.071,Main,2022.1.1,58.98459200445998,
positive,positive,1,l,j,,,,,,,,,9,11,173,2,,,,,,,,,main,2,2,1,positive,positive,l,l,1,0.7983609000220895,506.6136286999099,507.6246596998535,507.607942200033,None,506.6136286999099,None,506.6136286999099,None,506.6136286999099,None,508.4079436699161,None,508.4079436699161,None,508.4079436699161,None,,,,,,,,,,,,,,204,2023-03-28_14h44.36.071,Main,2022.1.1,58.98459200445998,
negative,negative,2,j,l,,,,,,,,,9,12,174,9,,,,,,,,,main,2,2,2,negative,negative,j,j,1,0.7652301001362503,508.41389989992604,509.42737039993517,509.4079451998696,None,508.41389989992604,None,508.41389989992604,None,508.41389989992604,None,510.17473046991506,None,510.17473046991506,None,510.17473046991506,None,,,,,,,,,,,,,,204,2023-03-28_14h44.36.071,Main,2022.1.1,58.98459200445998,
positive,negative,1,l,j,,,,,,,,,9,13,175,5,,,,,,,,,main,2,2,1,negative,positive,l,l,1,0.7984398000407964,510.17994789988734,511.19126069988124,511.17456920002587,None,510.17994789988734,None,510.17994789988734,None,510.17994789988734,None,511.9745457698358,None,511.9745457698358,None,511.9745457698358,None,,,,,,,,,,,,,,204,2023-03-28_14h44.36.071,Main,2022.1.1,58.98459200445998,
neutral,negative,2,k,k,,,,,,,,,9,14,176,16,,,,,,,,,main,2,2,2,negative,neutral,k,k,1,0.7306884999852628,511.98073900002055,512.9912149000447,512.974537699949,None,511.98073900002055,None,511.98073900002055,None,511.98073900002055,None,513.7078102698782,None,513.7078102698782,None,513.7078102698782,None,,,,,,,,,,,,,,204,2023-03-28_14h44.36.071,Main,2022.1.1,58.98459200445998,
negative,negative,1,j,l,,,,,,,,,9,15,177,0,,,,,,,,,main,1,1,1,negative,negative,j,j,1,0.7312409998849034,513.7178344998974,514.7271600998938,514.7078301999718,None,513.7178344998974,None,513.7178344998974,None,513.7178344998974,None,515.4411526699317,None,515.4411526699317,None,515.4411526699317,None,,,,,,,,,,,,,,204,2023-03-28_14h44.36.071,Main,2022.1.1,58.98459200445998,
positive,neutral,1,l,j,,,,,,,,,9,16,178,8,,,,,,,,,main,1,1,1,neutral,positive,l,l,1,0.7682562000118196,515.4473200000357,516.457799699856,516.4440655999351,None,515.4473200000357,None,515.4473200000357,None,515.4473200000357,None,517.2105283699697,None,517.2105283699697,None,517.2105283699697,None,,,,,,,,,,,,,,204,2023-03-28_14h44.36.071,Main,2022.1.1,58.98459200445998,
positive,positive,2,l,j,,,,,,,,,9,17,179,11,,,,,,,,,main,1,1,2,positive,positive,l,l,1,0.6775261999573559,517.214747400023,518.2244394998997,518.2078682999127,None,517.214747400023,None,517.214747400023,None,517.214747400023,None,518.8908538699383,None,518.8908538699383,None,518.8908538699383,None,,,,,,,,,,,,,,204,2023-03-28_14h44.36.071,Main,2022.1.1,58.98459200445998,
negative,positive,1,j,l,,,,,,,,,10,0,180,6,,,,,,,,,main,1,1,1,positive,negative,j,l,0,0.5314134999644011,518.898789400002,519.9077315998729,519.8910695000086,None,518.898789400002,None,518.898789400002,None,518.898789400002,None,520.4245525000151,None,520.4245525000151,None,520.4245525000151,None,,,,,,,,,,,,,,204,2023-03-28_14h44.36.071,Main,2022.1.1,58.98459200445998,
negative,positive,2,j,l,,,,,,,,,10,1,181,15,,,,,,,,,main,2,2,2,positive,negative,j,j,1,0.8008518000133336,521.4254431999288,522.4437370998785,522.4076912999153,None,521.4254431999288,None,521.4254431999288,None,521.4254431999288,None,523.2243101699045,None,523.2243101699045,None,523.2243101699045,None,,,,,,,,,,,,,,204,2023-03-28_14h44.36.071,Main,2022.1.1,58.98459200445998,
neutral,neutral,2,k,k,,,,,,,,,10,2,182,10,,,,,,,,,main,1,1,2,neutral,neutral,k,k,1,0.6981122000142932,523.2298979999032,524.2409818999004,524.224308299832,None,523.2298979999032,None,523.2298979999032,None,523.2298979999032,None,524.9242905699415,None,524.9242905699415,None,524.9242905699415,None,,,,,,,,,,,,,,204,2023-03-28_14h44.36.071,Main,2022.1.1,58.98459200445998,
positive,neutral,2,l,j,,,,,,,,,10,3,183,17,,,,,,,,,main,1,1,2,neutral,positive,l,l,1,0.7316755999345332,524.9297831999138,525.9409380999859,525.924253199948,None,524.9297831999138,None,524.9297831999138,None,524.9297831999138,None,526.6575875698821,None,526.6575875698821,None,526.6575875698821,None,,,,,,,,,,,,,,204,2023-03-28_14h44.36.071,Main,2022.1.1,58.98459200445998,
neutral,negative,2,k,k,,,,,,,,,10,4,184,16,,,,,,,,,main,1,1,2,negative,neutral,k,k,1,0.7652316000312567,526.66072169994,527.676977599971,527.6409060000442,None,526.66072169994,None,526.66072169994,None,526.66072169994,None,528.4242901699384,None,528.4242901699384,None,528.4242901699384,None,,,,,,,,,,,,,,204,2023-03-28_14h44.36.071,Main,2022.1.1,58.98459200445998,
positive,positive,1,l,j,,,,,,,,,10,5,185,2,,,,,,,,,main,1,1,1,positive,positive,l,l,1,0.7317467001266778,528.4297990999185,529.4408755998593,529.4242050000466,None,528.4297990999185,None,528.4297990999185,None,528.4297990999185,None,530.1575307699153,None,530.1575307699153,None,530.1575307699153,None,,,,,,,,,,,,,,204,2023-03-28_14h44.36.071,Main,2022.1.1,58.98459200445998,
neutral,positive,2,k,k,,,,,,,,,10,6,186,13,,,,,,,,,main,2,2,2,positive,neutral,k,k,1,0.6980059999041259,530.1611828999594,531.1574951999355,531.1574951999355,None,530.1611828999594,None,530.1611828999594,None,530.1611828999594,None,531.857213370013,None,531.857213370013,None,531.857213370013,None,,,,,,,,,,,,,,204,2023-03-28_14h44.36.071,Main,2022.1.1,58.98459200445998,
positive,negative,1,l,j,,,,,,,,,10,7,187,5,,,,,,,,,main,2,2,1,negative,positive,l,l,1,0.70262990007177,531.8636133999098,532.8741013999097,532.8574393999297,None,531.8636133999098,None,531.8636133999098,None,531.8636133999098,None,533.5610579699045,None,533.5610579699045,None,533.5610579699045,None,,,,,,,,,,,,,,204,2023-03-28_14h44.36.071,Main,2022.1.1,58.98459200445998,
negative,negative,1,j,l,,,,,,,,,10,8,188,0,,,,,,,,,main,2,2,1,negative,negative,j,j,1,0.7777786999940872,533.5650011999533,534.5740948000457,534.5602996000089,None,533.5650011999533,None,533.5650011999533,None,533.5650011999533,None,535.3407614698866,None,535.3407614698866,None,535.3407614698866,None,,,,,,,,,,,,,,204,2023-03-28_14h44.36.071,Main,2022.1.1,58.98459200445998,
positive,negative,2,l,j,,,,,,,,,10,9,189,14,,,,,,,,,main,1,1,2,negative,positive,l,l,1,0.6982809999026358,535.3462033998221,536.3573513999581,536.340438199928,None,535.3462033998221,None,535.3462033998221,None,535.3462033998221,None,537.0407141698291,None,537.0407141698291,None,537.0407141698291,None,,,,,,,,,,,,,,204,2023-03-28_14h44.36.071,Main,2022.1.1,58.98459200445998,
negative,neutral,2,j,l,,,,,,,,,10,10,190,12,,,,,,,,,main,2,2,2,neutral,negative,j,j,1,0.7984160000924021,537.0461027999409,538.060166799929,538.0241646999493,None,537.0461027999409,None,537.0461027999409,None,537.0461027999409,None,538.840660069813,None,538.840660069813,None,538.840660069813,None,,,,,,,,,,,,,,204,2023-03-28_14h44.36.071,Main,2022.1.1,58.98459200445998,
positive,positive,2,l,j,,,,,,,,,10,11,191,11,,,,,,,,,main,1,1,2,positive,positive,l,l,1,0.7485797998961061,538.846422099974,539.8573191999458,539.8407814998645,None,538.846422099974,None,538.846422099974,None,538.846422099974,None,540.5905984700424,None,540.5905984700424,None,540.5905984700424,None,,,,,,,,,,,,,,204,2023-03-28_14h44.36.071,Main,2022.1.1,58.98459200445998,
negative,negative,2,j,l,,,,,,,,,10,12,192,9,,,,,,,,,main,1,1,2,negative,negative,j,j,1,0.7317456000018865,540.596002999926,541.6073006999213,541.5906246998347,None,540.596002999926,None,540.596002999926,None,540.596002999926,None,542.3241490698186,None,542.3241490698186,None,542.3241490698186,None,,,,,,,,,,,,,,204,2023-03-28_14h44.36.071,Main,2022.1.1,58.98459200445998,
negative,neutral,1,j,l,,,,,,,,,10,13,193,3,,,,,,,,,main,1,1,1,neutral,negative,j,j,1,0.8321263000834733,542.3297192999162,543.3406119998544,543.3267816998996,None,542.3297192999162,None,542.3297192999162,None,542.3297192999162,None,544.1572314698482,None,544.1572314698482,None,544.1572314698482,None,,,,,,,,,,,,,,204,2023-03-28_14h44.36.071,Main,2022.1.1,58.98459200445998,
neutral,neutral,1,k,k,,,,,,,,,10,14,194,1,,,,,,,,,main,2,2,1,neutral,neutral,k,k,1,0.7811254998669028,544.1634674000088,545.173895200016,545.1573631998617,None,544.1634674000088,None,544.1634674000088,None,544.1634674000088,None,545.940513469954,None,545.940513469954,None,545.940513469954,None,,,,,,,,,,,,,,204,2023-03-28_14h44.36.071,Main,2022.1.1,58.98459200445998,
positive,neutral,1,l,j,,,,,,,,,10,15,195,8,,,,,,,,,main,1,1,1,neutral,positive,l,l,1,0.7148143998347223,545.9459970998578,546.9571534998249,546.9433377999812,None,545.9459970998578,None,545.9459970998578,None,545.9459970998578,None,547.656924569956,None,547.656924569956,None,547.656924569956,None,,,,,,,,,,,,,,204,2023-03-28_14h44.36.071,Main,2022.1.1,58.98459200445998,
neutral,negative,1,k,k,,,,,,,,,10,16,196,7,,,,,,,,,main,2,2,1,negative,neutral,k,k,1,0.6997460999991745,547.6632693000138,548.673815399874,548.6404824999627,None,547.6632693000138,None,547.6632693000138,None,547.6632693000138,None,549.3572542699752,None,549.3572542699752,None,549.3572542699752,None,,,,,,,,,,,,,,204,2023-03-28_14h44.36.071,Main,2022.1.1,58.98459200445998,
neutral,positive,1,k,k,,,,,,,,,10,17,197,4,,,,,,,,,main,2,2,1,positive,neutral,k,k,1,0.6972982999868691,549.363306599902,550.3737883998547,550.3599392999895,None,549.363306599902,None,549.363306599902,None,549.363306599902,None,551.0570569699397,None,551.0570569699397,None,551.0570569699397,None,,,,,,,,,,,,,,204,2023-03-28_14h44.36.071,Main,2022.1.1,58.98459200445998,
neutral,negative,2,k,k,,,,,,,,,11,0,198,16,,,,,,,,,main,2,2,2,negative,neutral,k,k,1,0.9151639000046998,551.0630593998358,552.0737480998505,552.0570892998949,None,551.0630593998358,None,551.0630593998358,None,551.0630593998358,None,552.9736738698324,None,552.9736738698324,None,552.9736738698324,None,,,,,,,,,,,,,,204,2023-03-28_14h44.36.071,Main,2022.1.1,58.98459200445998,
negative,positive,2,j,l,,,,,,,,,11,1,199,15,,,,,,,,,main,2,2,2,positive,negative,j,j,1,0.7648923001252115,552.9794304999523,553.9903521998785,553.9737735998351,None,552.9794304999523,None,552.9794304999523,None,552.9794304999523,None,554.7403412698535,None,554.7403412698535,None,554.7403412698535,None,,,,,,,,,,,,,,204,2023-03-28_14h44.36.071,Main,2022.1.1,58.98459200445998,
neutral,positive,2,k,k,,,,,,,,,11,2,200,13,,,,,,,,,main,2,2,2,positive,neutral,k,k,1,0.6652473998256028,554.7455126999412,555.757003699895,555.7403364998754,None,554.7455126999412,None,554.7455126999412,None,554.7455126999412,None,556.4069916698849,None,556.4069916698849,None,556.4069916698849,None,,,,,,,,,,,,,,204,2023-03-28_14h44.36.071,Main,2022.1.1,58.98459200445998,
negative,neutral,1,j,l,,,,,,,,,11,3,201,3,,,,,,,,,main,1,1,1,neutral,negative,j,j,1,0.814812800148502,556.4103321998846,557.4236446998548,557.4069683998823,None,556.4103321998846,None,556.4103321998846,None,556.4103321998846,None,558.2236187699949,None,558.2236187699949,None,558.2236187699949,None,,,,,,,,,,,,,,204,2023-03-28_14h44.36.071,Main,2022.1.1,58.98459200445998,
positive,positive,1,l,j,,,,,,,,,11,4,202,2,,,,,,,,,main,1,1,1,positive,positive,l,l,1,0.7151198999490589,558.2296496999916,559.2429335999768,559.2069269998465,None,558.2296496999916,None,558.2296496999916,None,558.2296496999916,None,559.9402083698427,None,559.9402083698427,None,559.9402083698427,None,,,,,,,,,,,,,,204,2023-03-28_14h44.36.071,Main,2022.1.1,58.98459200445998,
negative,negative,2,j,l,,,,,,,,,11,5,203,9,,,,,,,,,main,1,1,2,negative,negative,j,j,1,0.7647917999420315,559.9462176999077,560.9570468999445,560.9402044999879,None,559.9462176999077,None,559.9462176999077,None,559.9462176999077,None,561.7068671700312,None,561.7068671700312,None,561.7068671700312,None,,,,,,,,,,,,,,204,2023-03-28_14h44.36.071,Main,2022.1.1,58.98459200445998,
positive,neutral,2,l,j,,,,,,,,,11,6,204,17,,,,,,,,,main,2,2,2,neutral,positive,l,l,1,0.7648668000474572,561.7129311999306,562.7235220000148,562.7100017999765,None,561.7129311999306,None,561.7129311999306,None,561.7129311999306,None,563.4735159699106,None,563.4735159699106,None,563.4735159699106,None,,,,,,,,,,,,,,204,2023-03-28_14h44.36.071,Main,2022.1.1,58.98459200445998,
positive,neutral,1,l,j,,,,,,,,,11,7,205,8,,,,,,,,,main,2,2,1,neutral,positive,l,l,1,0.7814068000297993,563.4795980998315,564.4928713999689,564.4734759998973,None,563.4795980998315,None,563.4795980998315,None,563.4795980998315,None,565.2567914698506,None,565.2567914698506,None,565.2567914698506,None,,,,,,,,,,,,,,204,2023-03-28_14h44.36.071,Main,2022.1.1,58.98459200445998,
negative,neutral,2,j,l,,,,,,,,,11,8,206,12,,,,,,,,,main,2,2,2,neutral,negative,j,j,1,0.8649319999385625,565.2602835998405,566.2567850998603,566.2567850998603,None,565.2602835998405,None,565.2602835998405,None,565.2602835998405,None,567.1233845699811,None,567.1233845699811,None,567.1233845699811,None,,,,,,,,,,,,,,204,2023-03-28_14h44.36.071,Main,2022.1.1,58.98459200445998,
neutral,negative,1,k,k,,,,,,,,,11,9,207,7,,,,,,,,,main,2,2,1,negative,neutral,k,k,1,0.8495271999854594,567.1293728000019,568.1400875998661,568.1262166998349,None,567.1293728000019,None,567.1293728000019,None,567.1293728000019,None,568.9733545698458,None,568.9733545698458,None,568.9733545698458,None,,,,,,,,,,,,,,204,2023-03-28_14h44.36.071,Main,2022.1.1,58.98459200445998,
positive,negative,1,l,j,,,,,,,,,11,10,208,5,,,,,,,,,main,2,2,1,negative,positive,l,l,1,0.8306247999425977,568.9793505000416,569.990039399825,569.9734779999126,None,568.9793505000416,None,568.9793505000416,None,568.9793505000416,None,570.8066838700091,None,570.8066838700091,None,570.8066838700091,None,,,,,,,,,,,,,,204,2023-03-28_14h44.36.071,Main,2022.1.1,58.98459200445998,
neutral,positive,1,k,k,,,,,,,,,11,11,209,4,,,,,,,,,main,1,1,1,positive,neutral,k,k,1,0.7318272998090833,570.8116134998854,571.8231869998854,571.8066578998696,None,570.8116134998854,None,570.8116134998854,None,570.8116134998854,None,572.5399314700393,None,572.5399314700393,None,572.5399314700393,None,,,,,,,,,,,,,,204,2023-03-28_14h44.36.071,Main,2022.1.1,58.98459200445998,
positive,positive,2,l,j,,,,,,,,,11,12,210,11,,,,,,,,,main,2,2,2,positive,positive,l,l,1,0.8316074998583645,572.5461554999929,573.5566540998407,573.5233040000312,None,572.5461554999929,None,572.5461554999929,None,572.5461554999929,None,574.3730294699548,None,574.3730294699548,None,574.3730294699548,None,,,,,,,,,,,,,,204,2023-03-28_14h44.36.071,Main,2022.1.1,58.98459200445998,
neutral,neutral,2,k,k,,,,,,,,,11,13,211,10,,,,,,,,,main,1,1,2,neutral,neutral,k,k,1,0.7319847999606282,574.3798837999348,575.3900678998325,575.373269499978,None,574.3798837999348,None,574.3798837999348,None,574.3798837999348,None,576.1066717698471,None,576.1066717698471,None,576.1066717698471,None,,,,,,,,,,,,,,204,2023-03-28_14h44.36.071,Main,2022.1.1,58.98459200445998,
negative,negative,1,j,l,,,,,,,,,11,14,212,0,,,,,,,,,main,2,2,1,negative,negative,j,j,1,0.748672999907285,576.1120891999453,577.1232349998318,577.1065423998516,None,576.1120891999453,None,576.1120891999453,None,576.1120891999453,None,577.8565479698358,None,577.8565479698358,None,577.8565479698358,None,,,,,,,,,,,,,,204,2023-03-28_14h44.36.071,Main,2022.1.1,58.98459200445998,
negative,positive,1,j,l,,,,,,,,,11,15,213,6,,,,,,,,,main,2,2,1,positive,negative,j,j,1,0.5982786999084055,577.8625810998492,578.8731982000172,578.8593137999997,None,577.8625810998492,None,577.8625810998492,None,577.8625810998492,None,579.4565717698773,None,579.4565717698773,None,579.4565717698773,None,,,,,,,,,,,,,,204,2023-03-28_14h44.36.071,Main,2022.1.1,58.98459200445998,
neutral,neutral,1,k,k,,,,,,,,,11,16,214,1,,,,,,,,,main,2,2,1,neutral,neutral,k,k,1,0.6316927999723703,579.4595757999923,580.456482599955,580.456482599955,None,579.4595757999923,None,579.4595757999923,None,579.4595757999923,None,581.0898228699574,None,581.0898228699574,None,581.0898228699574,None,,,,,,,,,,,,,,204,2023-03-28_14h44.36.071,Main,2022.1.1,58.98459200445998,
positive,negative,2,l,j,,,,,,,,,11,17,215,14,,,,,,,,,main,1,1,2,negative,positive,l,l,1,0.6482907000463456,581.0951441999059,582.1092312999535,582.089785899967,None,581.0951441999059,None,581.0951441999059,None,581.0951441999059,None,582.7397575699491,None,582.7397575699491,None,582.7397575699491,None,,,,,,,,,,,,,,204,2023-03-28_14h44.36.071,Main,2022.1.1,58.98459200445998,
positive,neutral,2,l,j,,,,,,,,,12,0,216,17,,,,,,,,,main,2,2,2,neutral,positive,l,l,1,0.7317680998239666,582.7455127998255,583.7564432998188,583.7425565000158,None,582.7455127998255,None,582.7455127998255,None,582.7455127998255,None,584.4730709700146,None,584.4730709700146,None,584.4730709700146,None,,,,,,,,,,,,,,204,2023-03-28_14h44.36.071,Main,2022.1.1,58.98459200445998,
neutral,neutral,2,k,k,,,,,,,,,12,1,217,10,,,,,,,,,main,1,1,2,neutral,neutral,k,k,1,0.6315349999349564,584.4785769998562,585.4925000998192,585.4758567998651,None,584.4785769998562,None,584.4785769998562,None,584.4785769998562,None,586.1063725698972,None,586.1063725698972,None,586.1063725698972,None,,,,,,,,,,,,,,204,2023-03-28_14h44.36.071,Main,2022.1.1,58.98459200445998,
negative,neutral,1,j,l,,,,,,,,,12,2,218,3,,,,,,,,,main,1,1,1,neutral,negative,j,j,1,0.6986558001954108,586.1111291998532,587.1230070998427,587.1063315998763,None,586.1111291998532,None,586.1111291998532,None,586.1111291998532,None,587.8064249700168,None,587.8064249700168,None,587.8064249700168,None,,,,,,,,,,,,,,204,2023-03-28_14h44.36.071,Main,2022.1.1,58.98459200445998,
negative,neutral,2,j,l,,,,,,,,,12,3,219,12,,,,,,,,,main,2,2,2,neutral,negative,j,j,1,0.6980195001233369,587.8121603999753,588.8231603999157,588.8063377998769,None,587.8121603999753,None,587.8121603999753,None,587.8121603999753,None,589.5060917699942,None,589.5060917699942,None,589.5060917699942,None,,,,,,,,,,,,,,204,2023-03-28_14h44.36.071,Main,2022.1.1,58.98459200445998,
neutral,positive,1,k,k,,,,,,,,,12,4,220,4,,,,,,,,,main,2,2,1,positive,neutral,k,k,1,0.7650588001124561,589.5126743998844,590.5256415000185,590.5063340000343,None,589.5126743998844,None,589.5126743998844,None,589.5126743998844,None,591.2726889699464,None,591.2726889699464,None,591.2726889699464,None,,,,,,,,,,,,,,204,2023-03-28_14h44.36.071,Main,2022.1.1,58.98459200445998,
negative,negative,1,j,l,,,,,,,,,12,5,221,0,,,,,,,,,main,2,2,1,negative,negative,j,j,1,1.0691450000740588,591.279409499839,592.2897301998455,592.2729388999287,None,591.279409499839,None,591.279409499839,None,591.279409499839,None,593.3397299698321,None,593.3397299698321,None,593.3397299698321,None,,,,,,,,,,,,,,204,2023-03-28_14h44.36.071,Main,2022.1.1,58.98459200445998,
positive,negative,1,l,j,,,,,,,,,12,6,222,5,,,,,,,,,main,1,1,1,negative,positive,l,j,0,0.7105556998867542,593.3475039999466,594.3562336999457,594.3397192999255,None,593.3475039999466,None,593.3475039999466,None,593.3475039999466,None,595.0561823998578,None,595.0561823998578,None,595.0561823998578,None,,,,,,,,,,,,,,204,2023-03-28_14h44.36.071,Main,2022.1.1,58.98459200445998,
positive,positive,2,l,j,,,,,,,,,12,7,223,11,,,,,,,,,main,2,2,2,positive,positive,l,l,1,0.7010510999243706,596.0573328000028,597.0728188999929,597.0394645999186,None,596.0573328000028,None,596.0573328000028,None,596.0573328000028,None,597.756287869974,None,597.756287869974,None,597.756287869974,None,,,,,,,,,,,,,,204,2023-03-28_14h44.36.071,Main,2022.1.1,58.98459200445998,
