target,distractor,set,ans1,ans2,rep_loop2.thisRepN,rep_loop2.thisTrialN,rep_loop2.thisN,rep_loop2.thisIndex,flanker_prac_loop.thisRepN,flanker_prac_loop.thisTrialN,flanker_prac_loop.thisN,flanker_prac_loop.thisIndex,flanker_main_loop.thisRepN,flanker_main_loop.thisTrialN,flanker_main_loop.thisN,flanker_main_loop.thisIndex,fl_inst_resp.keys,fl_inst_resp.rt,sound_1.started,sound_1.stopped,image_4.started,image_4.stopped,back_2.started,back_2.stopped,main_prac,fl_cold,fl_colt,fl_set,fl_dcond,fl_tcond,fl_ans,fl_res,fl_corr,fl_rt,fix_fl.started,fix_fl.stopped,targ.started,targ.stopped,j_button.started,j_button.stopped,k_button.started,k_button.stopped,l_button.started,l_button.stopped,j_button2.started,j_button2.stopped,k_button2.started,k_button2.stopped,l_button2.started,l_button2.stopped,mainback.started,mainback.stopped,key_resp.keys,mouse_6.x,mouse_6.y,mouse_6.leftButton,mouse_6.midButton,mouse_6.rightButton,mouse_6.started,mouse_6.stopped,text_2.started,text_2.stopped,id*,date,expName,psychopyVersion,frameRate,
,,,,,0,0,0,0,,,,,,,,,space,56.90970079996623,33.84472396012861,None,90.77696950011887,None,,,,,,,,,,,,,,,,,,,,,,,,,,,,,,,,,,,,,,,,,205,2023-03-29_10h26.30.965,Main,2022.1.1,60.0080170762405,
neutral,neutral,1,k,k,,,,,0,0,0,1,,,,,,,,,,,94.16022499999963,None,prac,2,2,1,neutral,neutral,k,k,1,2.303036600118503,96.17326690000482,97.17411949997768,97.16019700001925,None,96.17326690000482,None,96.17326690000482,None,96.17326690000482,None,99.47631709999405,None,99.47631709999405,None,99.47631709999405,None,,,,,,,,,,,,,205,2023-03-29_10h26.30.965,Main,2022.1.1,60.0080170762405,
negative,positive,2,j,l,,,,,0,1,1,15,,,,,,,,,,,,,prac,2,2,2,positive,negative,l,l,1,1.1174087000545114,100.47541890013963,101.49341950006783,101.45744749996811,None,100.47541890013963,None,100.47541890013963,None,100.47541890013963,None,102.59067486014683,None,102.59067486014683,None,102.59067486014683,None,,,,,,,,,,,,,205,2023-03-29_10h26.30.965,Main,2022.1.1,60.0080170762405,
positive,neutral,1,l,j,,,,,0,2,2,8,,,,,,,,,,,,,prac,1,1,1,neutral,positive,j,j,1,1.21707300003618,102.59517650003545,103.6073474001605,103.59336050017737,None,102.59517650003545,None,102.59517650003545,None,102.59517650003545,None,104.80997186012101,None,104.80997186012101,None,104.80997186012101,None,,,,,,,,,,,,,205,2023-03-29_10h26.30.965,Main,2022.1.1,60.0080170762405,
neutral,negative,1,k,k,,,,,0,3,3,7,,,,,,,,,,,,,prac,1,1,1,negative,neutral,k,k,1,0.8787750001065433,104.8131921000313,105.8239559000358,105.81003409996629,None,104.8131921000313,None,104.8131921000313,None,104.8131921000313,None,106.69057026014198,None,106.69057026014198,None,106.69057026014198,None,,,,,,,,,,,,,205,2023-03-29_10h26.30.965,Main,2022.1.1,60.0080170762405,
negative,negative,1,j,l,,,,,0,4,4,0,,,,,,,,,,,,,prac,1,1,1,negative,negative,l,l,1,1.001769799971953,106.69431980000809,107.69332149997354,107.67668370017782,None,106.69431980000809,None,106.69431980000809,None,106.69431980000809,None,108.69319086007309,None,108.69319086007309,None,108.69319086007309,None,,,,,,,,,,,,,205,2023-03-29_10h26.30.965,Main,2022.1.1,60.0080170762405,
negative,neutral,2,j,l,,,,,0,5,5,12,,,,,,,,,,,,,prac,2,2,2,neutral,negative,l,l,1,0.8785665999166667,108.69723030016758,109.70726729999296,109.690572099993,None,108.69723030016758,None,108.69723030016758,None,108.69723030016758,None,110.5738509599818,None,110.5738509599818,None,110.5738509599818,None,,,,,,,,,,,,,205,2023-03-29_10h26.30.965,Main,2022.1.1,60.0080170762405,
neutral,positive,1,k,k,,,,,0,6,6,4,,,,,,,,,,,,,prac,1,1,1,positive,neutral,k,k,1,0.7678668999578804,110.57732060016133,111.57663330016658,111.57663330016658,None,110.57732060016133,None,110.57732060016133,None,110.57732060016133,None,112.343213060149,None,112.343213060149,None,112.343213060149,None,,,,,,,,,,,,,205,2023-03-29_10h26.30.965,Main,2022.1.1,60.0080170762405,
positive,negative,1,l,j,,,,,0,7,7,5,,,,,,,,,,,,,prac,1,1,1,negative,positive,j,j,1,0.8165166999679059,112.34647350013256,113.35991960018873,113.34325530007482,None,112.34647350013256,None,112.34647350013256,None,112.34647350013256,None,114.15980015995447,None,114.15980015995447,None,114.15980015995447,None,,,,,,,,,,,,,205,2023-03-29_10h26.30.965,Main,2022.1.1,60.0080170762405,
positive,negative,2,l,j,,,,,0,8,8,14,,,,,,,,,,,,,prac,2,2,2,negative,positive,j,k,0,1.0306960998568684,114.16373979998752,115.17378329997882,115.15980789996684,None,114.16373979998752,None,114.16373979998752,None,114.16373979998752,None,116.19040099997073,None,116.19040099997073,None,116.19040099997073,None,,,,,,,,,,,,,205,2023-03-29_10h26.30.965,Main,2022.1.1,60.0080170762405,
positive,positive,1,l,j,,,,,0,9,9,2,,,,,,,,,,,,,prac,1,1,1,positive,positive,j,j,1,1.0701823998242617,117.19043399998918,118.1904275000561,118.17642999999225,None,117.19043399998918,None,117.19043399998918,None,117.19043399998918,None,119.25701746016276,None,119.25701746016276,None,119.25701746016276,None,,,,,,,,,,,,,205,2023-03-29_10h26.30.965,Main,2022.1.1,60.0080170762405,
negative,neutral,1,j,l,,,,,0,10,10,3,,,,,,,,,,,,,prac,2,2,1,neutral,negative,l,l,1,0.7817353999707848,119.26009880006313,120.27638790011406,120.25976929999888,None,119.26009880006313,None,119.26009880006313,None,119.26009880006313,None,121.04028916007374,None,121.04028916007374,None,121.04028916007374,None,,,,,,,,,,,,,205,2023-03-29_10h26.30.965,Main,2022.1.1,60.0080170762405,
neutral,positive,2,k,k,,,,,0,11,11,13,,,,,,,,,,,,,prac,1,1,2,positive,neutral,k,k,1,0.7693349001929164,121.04440230014734,122.0596124001313,122.02363330009393,None,121.04440230014734,None,121.04440230014734,None,121.04440230014734,None,122.80964016004,None,122.80964016004,None,122.80964016004,None,,,,,,,,,,,,,205,2023-03-29_10h26.30.965,Main,2022.1.1,60.0080170762405,
neutral,neutral,2,k,k,,,,,0,12,12,10,,,,,,,,,,,,,prac,1,1,2,neutral,neutral,k,k,1,0.7112714000977576,122.81348440004513,123.82627610000782,123.806943600066,None,122.81348440004513,None,122.81348440004513,None,122.81348440004513,None,124.5235641600797,None,124.5235641600797,None,124.5235641600797,None,,,,,,,,,,,,,205,2023-03-29_10h26.30.965,Main,2022.1.1,60.0080170762405,
positive,neutral,2,l,j,,,,,0,13,13,17,,,,,,,,,,,,,prac,2,2,2,neutral,positive,j,j,1,0.8316212999634445,124.52737570018508,125.54022770002484,125.5263839000836,None,124.52737570018508,None,124.52737570018508,None,124.52737570018508,None,126.35689256011975,None,126.35689256011975,None,126.35689256011975,None,,,,,,,,,,,,,205,2023-03-29_10h26.30.965,Main,2022.1.1,60.0080170762405,
negative,negative,2,j,l,,,,,0,14,14,9,,,,,,,,,,,,,prac,2,2,2,negative,negative,l,l,1,0.7984695001505315,126.36199690005742,127.37355800019577,127.34293909999542,None,126.36199690005742,None,126.36199690005742,None,126.36199690005742,None,128.15691516010557,None,128.15691516010557,None,128.15691516010557,None,,,,,,,,,,,,,205,2023-03-29_10h26.30.965,Main,2022.1.1,60.0080170762405,
neutral,negative,2,k,k,,,,,0,15,15,16,,,,,,,,,,,,,prac,2,2,2,negative,neutral,k,k,1,0.718028899980709,128.159720600117,129.15687520010397,129.15687520010397,None,128.159720600117,None,128.159720600117,None,128.159720600117,None,129.87611566015985,None,129.87611566015985,None,129.87611566015985,None,,,,,,,,,,,,,205,2023-03-29_10h26.30.965,Main,2022.1.1,60.0080170762405,
negative,positive,1,j,l,,,,,0,16,16,6,,,,,,,,,,,,,prac,2,2,1,positive,negative,l,l,1,1.2960262999404222,129.87923500011675,130.89284350001253,130.87623360008,None,129.87923500011675,None,129.87923500011675,None,129.87923500011675,None,132.17342736010906,None,132.17342736010906,None,132.17342736010906,None,,,,,,,,,,,,,205,2023-03-29_10h26.30.965,Main,2022.1.1,60.0080170762405,
positive,positive,2,l,j,,,,,0,17,17,11,,,,,,,,,,,,,prac,1,1,2,positive,positive,j,j,1,1.4983716998249292,132.17836010013707,133.19276030012406,133.15676210005768,None,132.17836010013707,None,132.17836010013707,None,132.17836010013707,None,134.6733793599764,None,134.6733793599764,None,134.6733793599764,None,,,,,,,,,,,,,205,2023-03-29_10h26.30.965,Main,2022.1.1,60.0080170762405,
neutral,neutral,1,k,k,,,,,1,0,18,1,,,,,,,,,,,,,prac,2,2,1,neutral,neutral,k,k,1,0.71519839996472,134.67888500005938,135.69282960006967,135.65674350014888,None,134.67888500005938,None,134.67888500005938,None,134.67888500005938,None,136.38999836004805,None,136.38999836004805,None,136.38999836004805,None,,,,,,,,,,,,,205,2023-03-29_10h26.30.965,Main,2022.1.1,60.0080170762405,
neutral,neutral,2,k,k,,,,,1,1,19,10,,,,,,,,,,,,,prac,2,2,2,neutral,neutral,k,k,1,0.6991141999606043,136.39235810004175,137.3900165001396,137.37607750017196,None,136.39235810004175,None,136.39235810004175,None,136.39235810004175,None,138.08998406000902,None,138.08998406000902,None,138.08998406000902,None,,,,,,,,,,,,,205,2023-03-29_10h26.30.965,Main,2022.1.1,60.0080170762405,
neutral,positive,1,k,k,,,,,1,2,20,4,,,,,,,,,,,,,prac,1,1,1,positive,neutral,k,k,1,0.8485543001443148,138.09482510015368,139.10927560017444,139.0899820001796,None,138.09482510015368,None,138.09482510015368,None,138.09482510015368,None,139.93991206001957,None,139.93991206001957,None,139.93991206001957,None,,,,,,,,,,,,,205,2023-03-29_10h26.30.965,Main,2022.1.1,60.0080170762405,
positive,negative,1,l,j,,,,,1,3,21,5,,,,,,,,,,,,,prac,2,2,1,negative,positive,j,j,1,0.9819452001247555,139.94324000016786,140.95660370006226,140.9399779001251,None,139.94324000016786,None,139.94324000016786,None,139.94324000016786,None,141.9230453599943,None,141.9230453599943,None,141.9230453599943,None,,,,,,,,,,,,,205,2023-03-29_10h26.30.965,Main,2022.1.1,60.0080170762405,
neutral,negative,2,k,k,,,,,1,4,22,16,,,,,,,,,,,,,prac,2,2,2,negative,neutral,k,k,1,0.699837899999693,141.92913110018708,142.94257890013978,142.90937270014547,None,141.92913110018708,None,141.92913110018708,None,141.92913110018708,None,143.6232371600112,None,143.6232371600112,None,143.6232371600112,None,,,,,,,,,,,,,205,2023-03-29_10h26.30.965,Main,2022.1.1,60.0080170762405,
positive,positive,1,l,j,,,,,1,5,23,2,,,,,,,,,,,,,prac,2,2,1,positive,positive,j,j,1,0.9304371001198888,143.62738510011695,144.63964359997772,144.62297260016203,None,143.62738510011695,None,143.62738510011695,None,143.62738510011695,None,145.55627576003317,None,145.55627576003317,None,145.55627576003317,None,,,,,,,,,,,,,205,2023-03-29_10h26.30.965,Main,2022.1.1,60.0080170762405,
positive,positive,2,l,j,,,,,1,6,24,11,,,,,,,,,,,,,prac,1,1,2,positive,positive,j,j,1,0.7528107999823987,145.55627060006373,146.5594155001454,146.5594155001454,None,145.55627060006373,None,145.55627060006373,None,145.55627060006373,None,147.30627616003622,None,147.30627616003622,None,147.30627616003622,None,,,,,,,,,,,,,205,2023-03-29_10h26.30.965,Main,2022.1.1,60.0080170762405,
negative,neutral,1,j,l,,,,,1,7,25,3,,,,,,,,,,,,,prac,2,2,1,neutral,negative,l,l,1,0.8443481998983771,147.31415450014174,148.3232017001137,148.30652410001494,None,147.31415450014174,None,147.31415450014174,None,147.31415450014174,None,149.1565111600561,None,149.1565111600561,None,149.1565111600561,None,,,,,,,,,,,,,205,2023-03-29_10h26.30.965,Main,2022.1.1,60.0080170762405,
positive,negative,2,l,j,,,,,1,8,26,14,,,,,,,,,,,,,prac,2,2,2,negative,positive,j,j,1,0.9822110999375582,149.15944770001806,150.15923630003817,150.14258420001715,None,149.15944770001806,None,149.15944770001806,None,149.15944770001806,None,151.13976165999193,None,151.13976165999193,None,151.13976165999193,None,,,,,,,,,,,,,205,2023-03-29_10h26.30.965,Main,2022.1.1,60.0080170762405,
neutral,negative,1,k,k,,,,,1,9,27,7,,,,,,,,,,,,,prac,1,1,1,negative,neutral,k,k,1,0.7819560999050736,151.1447489000857,152.159180900082,152.13976550009102,None,151.1447489000857,None,151.1447489000857,None,151.1447489000857,None,152.9230655601481,None,152.9230655601481,None,152.9230655601481,None,,,,,,,,,,,,,205,2023-03-29_10h26.30.965,Main,2022.1.1,60.0080170762405,
negative,negative,1,j,l,,,,,1,10,28,0,,,,,,,,,,,,,prac,2,2,1,negative,negative,l,l,1,1.1318801001179963,152.92600110010244,153.94234189996496,153.92307110014372,None,152.92600110010244,None,152.92600110010244,None,152.92600110010244,None,155.05610696014483,None,155.05610696014483,None,155.05610696014483,None,,,,,,,,,,,,,205,2023-03-29_10h26.30.965,Main,2022.1.1,60.0080170762405,
neutral,positive,2,k,k,,,,,1,11,29,13,,,,,,,,,,,,,prac,2,2,2,positive,neutral,k,k,1,0.8514651998411864,155.05923190014437,156.05633629998192,156.05633629998192,None,155.05923190014437,None,155.05923190014437,None,155.05923190014437,None,156.9089657601202,None,156.9089657601202,None,156.9089657601202,None,,,,,,,,,,,,,205,2023-03-29_10h26.30.965,Main,2022.1.1,60.0080170762405,
negative,positive,2,j,l,,,,,1,12,30,15,,,,,,,,,,,,,prac,1,1,2,positive,negative,l,l,1,0.8130104998126626,156.91230359999463,157.92561370017938,157.9063218999654,None,156.91230359999463,None,156.91230359999463,None,156.91230359999463,None,158.72299496012275,None,158.72299496012275,None,158.72299496012275,None,,,,,,,,,,,,,205,2023-03-29_10h26.30.965,Main,2022.1.1,60.0080170762405,
negative,neutral,2,j,l,,,,,1,13,31,12,,,,,,,,,,,,,prac,1,1,2,neutral,negative,l,l,1,0.6806760998442769,158.7271104999818,159.7396309999749,159.72571150003932,None,158.7271104999818,None,158.7271104999818,None,158.7271104999818,None,160.40622635998298,None,160.40622635998298,None,160.40622635998298,None,,,,,,,,,,,,,205,2023-03-29_10h26.30.965,Main,2022.1.1,60.0080170762405,
negative,negative,2,j,l,,,,,1,14,32,9,,,,,,,,,,,,,prac,1,1,2,negative,negative,l,l,1,0.7319936000276357,160.4087712999899,161.40624990011565,161.40624990011565,None,160.4087712999899,None,160.4087712999899,None,160.4087712999899,None,162.13955706006382,None,162.13955706006382,None,162.13955706006382,None,,,,,,,,,,,,,205,2023-03-29_10h26.30.965,Main,2022.1.1,60.0080170762405,
positive,neutral,1,l,j,,,,,1,15,33,8,,,,,,,,,,,,,prac,1,1,1,neutral,positive,j,j,1,0.8656375999562442,162.14456110005267,163.15622480004095,163.14227690012194,None,162.14456110005267,None,162.14456110005267,None,162.14456110005267,None,164.00624626011123,None,164.00624626011123,None,164.00624626011123,None,,,,,,,,,,,,,205,2023-03-29_10h26.30.965,Main,2022.1.1,60.0080170762405,
negative,positive,1,j,l,,,,,1,16,34,6,,,,,,,,,,,,,prac,1,1,1,positive,negative,l,l,1,0.7516554999165237,164.01088270009495,165.02555220015347,165.00619360012934,None,164.01088270009495,None,164.01088270009495,None,164.01088270009495,None,165.75879266017583,None,165.75879266017583,None,165.75879266017583,None,,,,,,,,,,,,,205,2023-03-29_10h26.30.965,Main,2022.1.1,60.0080170762405,
positive,neutral,2,l,j,,,,,1,17,35,17,,,,,,,,,,,,,prac,1,1,2,neutral,positive,j,j,1,0.7791762000415474,165.76218670001253,166.77549100015312,166.75615440006368,None,165.76218670001253,None,165.76218670001253,None,165.76218670001253,None,167.5394923600601,None,167.5394923600601,None,167.5394923600601,None,,,,,,,,,,,,,205,2023-03-29_10h26.30.965,Main,2022.1.1,60.0080170762405,
,,,,,,,,,,,,,,,,,,,,,,,,,,,,,,,,,,,,,,,,,,,,,,,,,,,167.5422529000789,None,None,,,,,,,,,,205,2023-03-29_10h26.30.965,Main,2022.1.1,60.0080170762405,
,,,,,,,,,,,,,,,,,,,,,,,,,,,,,,,,,,,,,,,,,,,,,,,,,,,,,,0.1675926,-0.21851853,1,0,0,0.011201259912922978,None,,,205,2023-03-29_10h26.30.965,Main,2022.1.1,60.0080170762405,
negative,negative,1,j,l,,,,,,,,,0,0,0,0,,,,,,,172.092107700184,None,main,2,2,1,negative,negative,l,l,1,0.9497849999461323,174.0964703001082,175.10600210004486,175.09214129997417,None,174.0964703001082,None,174.0964703001082,None,174.0964703001082,None,176.0419947600225,None,176.0419947600225,None,176.0419947600225,None,,,,,,,,,,,,,205,2023-03-29_10h26.30.965,Main,2022.1.1,60.0080170762405,
neutral,positive,2,k,k,,,,,,,,,0,1,1,13,,,,,,,,,main,2,2,2,positive,neutral,k,k,1,0.7586600000504404,176.04876440018415,177.05595299997367,177.04198170010932,None,176.04876440018415,None,176.04876440018415,None,176.04876440018415,None,177.8060705601005,None,177.8060705601005,None,177.8060705601005,None,,,,,,,,,,,,,205,2023-03-29_10h26.30.965,Main,2022.1.1,60.0080170762405,
negative,neutral,2,j,l,,,,,,,,,0,2,2,12,,,,,,,,,main,2,2,2,neutral,negative,l,l,1,0.7511025001294911,177.81186600006185,178.8225897999946,178.80866380012594,None,177.81186600006185,None,177.81186600006185,None,177.81186600006185,None,179.55856766013895,None,179.55856766013895,None,179.55856766013895,None,,,,,,,,,,,,,205,2023-03-29_10h26.30.965,Main,2022.1.1,60.0080170762405,
neutral,negative,1,k,k,,,,,,,,,0,3,3,7,,,,,,,,,main,1,1,1,negative,neutral,k,k,1,0.7615608000196517,179.5625281999819,180.57520080008544,180.55870980001055,None,179.5625281999819,None,179.5625281999819,None,179.5625281999819,None,181.32251376004425,None,181.32251376004425,None,181.32251376004425,None,,,,,,,,,,,,,205,2023-03-29_10h26.30.965,Main,2022.1.1,60.0080170762405,
negative,positive,2,j,l,,,,,,,,,0,4,4,15,,,,,,,,,main,1,1,2,positive,negative,l,l,1,0.8486124998889863,181.32756860018708,182.34192000003532,182.30587010015734,None,181.32756860018708,None,181.32756860018708,None,181.32756860018708,None,183.1724668601295,None,183.1724668601295,None,183.1724668601295,None,,,,,,,,,,,,,205,2023-03-29_10h26.30.965,Main,2022.1.1,60.0080170762405,
positive,neutral,2,l,j,,,,,,,,,0,5,5,17,,,,,,,,,main,1,1,2,neutral,positive,j,j,1,0.6816158001311123,183.1779789000284,184.19176760013215,184.17525980016217,None,183.1779789000284,None,183.1779789000284,None,183.1779789000284,None,184.8557870599674,None,184.8557870599674,None,184.8557870599674,None,,,,,,,,,,,,,205,2023-03-29_10h26.30.965,Main,2022.1.1,60.0080170762405,
positive,negative,2,l,j,,,,,,,,,0,6,6,14,,,,,,,,,main,2,2,2,negative,positive,j,j,1,0.8994817000348121,184.85891410009935,185.85576639999636,185.84185990015976,None,184.85891410009935,None,184.85891410009935,None,184.85891410009935,None,186.75572846012656,None,186.75572846012656,None,186.75572846012656,None,,,,,,,,,,,,,205,2023-03-29_10h26.30.965,Main,2022.1.1,60.0080170762405,
positive,positive,2,l,j,,,,,,,,,0,7,7,11,,,,,,,,,main,2,2,2,positive,positive,j,j,1,0.6001913000363857,186.76175930001773,187.7753845001571,187.758567500161,None,186.76175930001773,None,186.76175930001773,None,186.76175930001773,None,188.3584134601755,None,188.3584134601755,None,188.3584134601755,None,,,,,,,,,,,,,205,2023-03-29_10h26.30.965,Main,2022.1.1,60.0080170762405,
neutral,neutral,1,k,k,,,,,,,,,0,8,8,1,,,,,,,,,main,1,1,1,neutral,neutral,k,k,1,0.7620639998931438,188.3614446001593,189.37238810001872,189.35571280005388,None,188.3614446001593,None,188.3614446001593,None,188.3614446001593,None,190.12233756014612,None,190.12233756014612,None,190.12233756014612,None,,,,,,,,,,,,,205,2023-03-29_10h26.30.965,Main,2022.1.1,60.0080170762405,
positive,positive,1,l,j,,,,,,,,,0,9,9,2,,,,,,,,,main,2,2,1,positive,positive,j,j,1,0.7650927000213414,190.12749500013888,191.14166660001501,191.12233060016297,None,190.12749500013888,None,190.12749500013888,None,190.12749500013888,None,191.88897056013812,None,191.88897056013812,None,191.88897056013812,None,,,,,,,,,,,,,205,2023-03-29_10h26.30.965,Main,2022.1.1,60.0080170762405,
neutral,negative,2,k,k,,,,,,,,,0,10,10,16,,,,,,,,,main,1,1,2,negative,neutral,k,k,1,0.8316883000079542,191.89208120014518,192.90828860015608,192.87230519996956,None,191.89208120014518,None,191.89208120014518,None,191.89208120014518,None,193.72229016011116,None,193.72229016011116,None,193.72229016011116,None,,,,,,,,,,,,,205,2023-03-29_10h26.30.965,Main,2022.1.1,60.0080170762405,
negative,negative,2,j,l,,,,,,,,,0,11,11,9,,,,,,,,,main,1,1,2,negative,negative,l,l,1,1.2147441999986768,193.72736060013995,194.73893720004708,194.7250676001422,None,193.72736060013995,None,193.72736060013995,None,193.72736060013995,None,195.93889765997884,None,195.93889765997884,None,195.93889765997884,None,,,,,,,,,,,,,205,2023-03-29_10h26.30.965,Main,2022.1.1,60.0080170762405,
neutral,positive,1,k,k,,,,,,,,,0,12,12,4,,,,,,,,,main,1,1,1,positive,neutral,k,k,1,0.7822110999841243,195.94410079997033,196.95829219999723,196.9416464001406,None,195.94410079997033,None,195.94410079997033,None,195.94410079997033,None,197.7222183600301,None,197.7222183600301,None,197.7222183600301,None,,,,,,,,,,,,,205,2023-03-29_10h26.30.965,Main,2022.1.1,60.0080170762405,
positive,negative,1,l,j,,,,,,,,,0,13,13,5,,,,,,,,,main,2,2,1,negative,positive,j,j,1,0.7146904999390244,197.72783420002088,198.73886100016534,198.72227809997275,None,197.72783420002088,None,197.72783420002088,None,197.72783420002088,None,199.43882366011385,None,199.43882366011385,None,199.43882366011385,None,,,,,,,,,,,,,205,2023-03-29_10h26.30.965,Main,2022.1.1,60.0080170762405,
neutral,neutral,2,k,k,,,,,,,,,0,14,14,10,,,,,,,,,main,2,2,2,neutral,neutral,k,k,1,0.7316745000425726,199.44223070004955,200.4555216000881,200.43886100011878,None,199.44223070004955,None,199.44223070004955,None,199.44223070004955,None,201.172164360038,None,201.172164360038,None,201.172164360038,None,,,,,,,,,,,,,205,2023-03-29_10h26.30.965,Main,2022.1.1,60.0080170762405,
positive,neutral,1,l,j,,,,,,,,,0,15,15,8,,,,,,,,,main,2,2,1,neutral,positive,j,j,1,0.7485221000388265,201.17709080013447,202.18880420015194,202.17213870002888,None,201.17709080013447,None,201.17709080013447,None,201.17709080013447,None,202.92209906012286,None,202.92209906012286,None,202.92209906012286,None,,,,,,,,,,,,,205,2023-03-29_10h26.30.965,Main,2022.1.1,60.0080170762405,
negative,neutral,1,j,l,,,,,,,,,0,16,16,3,,,,,,,,,main,2,2,1,neutral,negative,l,l,1,0.8649980998598039,202.92529530008323,203.92211939999834,203.92211939999834,None,202.92529530008323,None,202.92529530008323,None,202.92529530008323,None,204.78877276016865,None,204.78877276016865,None,204.78877276016865,None,,,,,,,,,,,,,205,2023-03-29_10h26.30.965,Main,2022.1.1,60.0080170762405,
negative,positive,1,j,l,,,,,,,,,0,17,17,6,,,,,,,,,main,1,1,1,positive,negative,l,l,1,0.7819178001955152,204.80545460013673,205.80543239996769,205.788752600085,None,204.80545460013673,None,204.80545460013673,None,204.80545460013673,None,206.5720962600084,None,206.5720962600084,None,206.5720962600084,None,,,,,,,,,,,,,205,2023-03-29_10h26.30.965,Main,2022.1.1,60.0080170762405,
positive,positive,2,l,j,,,,,,,,,1,0,18,11,,,,,,,,,main,2,2,2,positive,positive,j,j,1,0.6814859001897275,206.57745660003275,207.58874620008282,207.57207059999928,None,206.57745660003275,None,206.57745660003275,None,206.57745660003275,None,208.25532715998125,None,208.25532715998125,None,208.25532715998125,None,,,,,,,,,,,,,205,2023-03-29_10h26.30.965,Main,2022.1.1,60.0080170762405,
negative,positive,2,j,l,,,,,,,,,1,1,19,15,,,,,,,,,main,2,2,2,positive,negative,l,l,1,0.7652986999601126,208.25938070006669,209.27209020010196,209.2581176001113,None,208.25938070006669,None,208.25938070006669,None,208.25938070006669,None,210.02197416007985,None,210.02197416007985,None,210.02197416007985,None,,,,,,,,,,,,,205,2023-03-29_10h26.30.965,Main,2022.1.1,60.0080170762405,
positive,positive,1,l,j,,,,,,,,,1,2,20,2,,,,,,,,,main,2,2,1,positive,positive,j,j,1,1.015251699835062,210.04139140015468,211.0553162000142,211.0053409000393,None,210.04139140015468,None,210.04139140015468,None,210.04139140015468,None,212.03861706003082,None,212.03861706003082,None,212.03861706003082,None,,,,,,,,,,,,,205,2023-03-29_10h26.30.965,Main,2022.1.1,60.0080170762405,
positive,negative,2,l,j,,,,,,,,,1,3,21,14,,,,,,,,,main,2,2,2,negative,positive,j,j,1,0.748351400019601,212.04377770004794,213.05533910007216,213.03863389999606,None,212.04377770004794,None,212.04377770004794,None,212.04377770004794,None,213.78858326000628,None,213.78858326000628,None,213.78858326000628,None,,,,,,,,,,,,,205,2023-03-29_10h26.30.965,Main,2022.1.1,60.0080170762405,
neutral,neutral,1,k,k,,,,,,,,,1,4,22,1,,,,,,,,,main,1,1,1,neutral,neutral,k,k,1,0.7483188998885453,213.79178560012951,214.80527650006115,214.7913226999808,None,213.79178560012951,None,213.79178560012951,None,213.79178560012951,None,215.53856106007007,None,215.53856106007007,None,215.53856106007007,None,,,,,,,,,,,,,205,2023-03-29_10h26.30.965,Main,2022.1.1,60.0080170762405,
negative,positive,1,j,l,,,,,,,,,1,5,23,6,,,,,,,,,main,2,2,1,positive,negative,l,l,1,0.7321679999586195,215.5437357001938,216.55789760011248,216.53862570016645,None,215.5437357001938,None,215.5437357001938,None,215.5437357001938,None,217.27199806014542,None,217.27199806014542,None,217.27199806014542,None,,,,,,,,,,,,,205,2023-03-29_10h26.30.965,Main,2022.1.1,60.0080170762405,
positive,neutral,1,l,j,,,,,,,,,1,6,24,8,,,,,,,,,main,1,1,1,neutral,positive,j,j,1,0.7340428999159485,217.2805908001028,218.28853180003352,218.27185400016606,None,217.2805908001028,None,217.2805908001028,None,217.2805908001028,None,219.00778306017165,None,219.00778306017165,None,219.00778306017165,None,,,,,,,,,,,,,205,2023-03-29_10h26.30.965,Main,2022.1.1,60.0080170762405,
negative,neutral,2,j,l,,,,,,,,,1,7,25,12,,,,,,,,,main,2,2,2,neutral,negative,l,l,1,0.7520322999916971,219.0108412001282,220.02454090001993,220.00519270007499,None,219.0108412001282,None,219.0108412001282,None,219.0108412001282,None,220.7601331600221,None,220.7601331600221,None,220.7601331600221,None,,,,,,,,,,,,,205,2023-03-29_10h26.30.965,Main,2022.1.1,60.0080170762405,
negative,negative,1,j,l,,,,,,,,,1,8,26,0,,,,,,,,,main,1,1,1,negative,negative,l,l,1,0.795153999933973,220.76437090011314,221.7744981001597,221.75790970004164,None,220.76437090011314,None,220.76437090011314,None,220.76437090011314,None,222.55772676013876,None,222.55772676013876,None,222.55772676013876,None,,,,,,,,,,,,,205,2023-03-29_10h26.30.965,Main,2022.1.1,60.0080170762405,
positive,negative,1,l,j,,,,,,,,,1,9,27,5,,,,,,,,,main,1,1,1,negative,positive,j,j,1,0.7787462999112904,222.56103520002216,223.57455989997834,223.55512650008313,None,222.56103520002216,None,222.56103520002216,None,222.56103520002216,None,224.33842646002304,None,224.33842646002304,None,224.33842646002304,None,,,,,,,,,,,,,205,2023-03-29_10h26.30.965,Main,2022.1.1,60.0080170762405,
neutral,negative,1,k,k,,,,,,,,,1,10,28,7,,,,,,,,,main,1,1,1,negative,neutral,k,k,1,0.5475055000279099,224.35510460007936,225.3550561000593,225.338375300169,None,224.35510460007936,None,224.35510460007936,None,224.35510460007936,None,225.88811256012414,None,225.88811256012414,None,225.88811256012414,None,,,,,,,,,,,,,205,2023-03-29_10h26.30.965,Main,2022.1.1,60.0080170762405,
neutral,neutral,2,k,k,,,,,,,,,1,11,29,10,,,,,,,,,main,1,1,2,neutral,neutral,k,k,1,0.7319267001003027,225.8932056000922,226.90777310007252,226.8716669001151,None,225.8932056000922,None,225.8932056000922,None,225.8932056000922,None,227.621652760054,None,227.621652760054,None,227.621652760054,None,,,,,,,,,,,,,205,2023-03-29_10h26.30.965,Main,2022.1.1,60.0080170762405,
neutral,positive,2,k,k,,,,,,,,,1,12,30,13,,,,,,,,,main,1,1,2,positive,neutral,k,k,1,0.6486067001242191,227.62688240013085,228.64108670013957,228.62439909996465,None,227.62688240013085,None,227.62688240013085,None,227.62688240013085,None,229.271598660131,None,229.271598660131,None,229.271598660131,None,,,,,,,,,,,,,205,2023-03-29_10h26.30.965,Main,2022.1.1,60.0080170762405,
neutral,positive,1,k,k,,,,,,,,,1,13,31,4,,,,,,,,,main,2,2,1,positive,neutral,k,k,1,0.663905099965632,229.27594650001265,230.28831460000947,230.27441030018963,None,229.27594650001265,None,229.27594650001265,None,229.27594650001265,None,230.9380044601625,None,230.9380044601625,None,230.9380044601625,None,,,,,,,,,,,,,205,2023-03-29_10h26.30.965,Main,2022.1.1,60.0080170762405,
negative,neutral,1,j,l,,,,,,,,,1,14,32,3,,,,,,,,,main,2,2,1,neutral,negative,l,l,1,0.7484530999790877,230.9431760001462,231.9576266000513,231.9409843001049,None,230.9431760001462,None,230.9431760001462,None,230.9431760001462,None,232.68821596002672,None,232.68821596002672,None,232.68821596002672,None,,,,,,,,,,,,,205,2023-03-29_10h26.30.965,Main,2022.1.1,60.0080170762405,
negative,negative,2,j,l,,,,,,,,,1,15,33,9,,,,,,,,,main,2,2,2,negative,negative,l,l,1,0.782726899953559,232.6940458000172,233.70753929996863,233.69093380006962,None,232.6940458000172,None,232.6940458000172,None,232.6940458000172,None,234.47149165996817,None,234.47149165996817,None,234.47149165996817,None,,,,,,,,,,,,,205,2023-03-29_10h26.30.965,Main,2022.1.1,60.0080170762405,
positive,neutral,2,l,j,,,,,,,,,1,16,34,17,,,,,,,,,main,2,2,2,neutral,positive,j,j,1,1.0308855997864157,234.47733040014282,235.4908737000078,235.47152290004306,None,234.47733040014282,None,234.47733040014282,None,234.47733040014282,None,236.50481096000877,None,236.50481096000877,None,236.50481096000877,None,,,,,,,,,,,,,205,2023-03-29_10h26.30.965,Main,2022.1.1,60.0080170762405,
neutral,negative,2,k,k,,,,,,,,,1,17,35,16,,,,,,,,,main,2,2,2,negative,neutral,k,k,1,0.7649254999123514,236.50777070014738,237.50485080014914,237.50485080014914,None,236.50777070014738,None,236.50777070014738,None,236.50777070014738,None,238.27125515996013,None,238.27125515996013,None,238.27125515996013,None,,,,,,,,,,,,,205,2023-03-29_10h26.30.965,Main,2022.1.1,60.0080170762405,
neutral,negative,1,k,k,,,,,,,,,2,0,36,7,,,,,,,,,main,1,1,1,negative,neutral,k,k,1,0.6987402001395822,238.27747060009278,239.2880933000706,239.27157560014166,None,238.27747060009278,None,238.27747060009278,None,238.27747060009278,None,239.97139436004218,None,239.97139436004218,None,239.97139436004218,None,,,,,,,,,,,,,205,2023-03-29_10h26.30.965,Main,2022.1.1,60.0080170762405,
negative,neutral,1,j,l,,,,,,,,,2,1,37,3,,,,,,,,,main,2,2,1,neutral,negative,l,l,1,0.7151334998197854,239.97645700001158,240.98809700016864,240.95475180004723,None,239.97645700001158,None,239.97645700001158,None,239.97645700001158,None,241.68803096001503,None,241.68803096001503,None,241.68803096001503,None,,,,,,,,,,,,,205,2023-03-29_10h26.30.965,Main,2022.1.1,60.0080170762405,
neutral,positive,1,k,k,,,,,,,,,2,2,38,4,,,,,,,,,main,1,1,1,positive,neutral,k,k,1,0.7649271001573652,241.69359240005724,242.7047346001491,242.68808550015092,None,241.69359240005724,None,241.69359240005724,None,241.69359240005724,None,243.45464625998866,None,243.45464625998866,None,243.45464625998866,None,,,,,,,,,,,,,205,2023-03-29_10h26.30.965,Main,2022.1.1,60.0080170762405,
positive,positive,2,l,j,,,,,,,,,2,3,39,11,,,,,,,,,main,1,1,2,positive,positive,j,j,1,0.6983890999108553,243.45966750010848,244.4713212000206,244.45464930008166,None,243.45966750010848,None,243.45966750010848,None,243.45966750010848,None,245.15462025997695,None,245.15462025997695,None,245.15462025997695,None,,,,,,,,,,,,,205,2023-03-29_10h26.30.965,Main,2022.1.1,60.0080170762405,
negative,negative,1,j,l,,,,,,,,,2,4,40,0,,,,,,,,,main,2,2,1,negative,negative,l,l,1,0.7984996000304818,245.15790700004436,246.15742110018618,246.15742110018618,None,245.15790700004436,None,245.15790700004436,None,245.15790700004436,None,246.95457906017546,None,246.95457906017546,None,246.95457906017546,None,,,,,,,,,,,,,205,2023-03-29_10h26.30.965,Main,2022.1.1,60.0080170762405,
neutral,neutral,1,k,k,,,,,,,,,2,5,41,1,,,,,,,,,main,1,1,1,neutral,neutral,k,k,1,0.6983272000215948,246.95966940000653,247.97131390008144,247.94071300001815,None,246.95966940000653,None,246.95966940000653,None,246.95966940000653,None,248.65456586002838,None,248.65456586002838,None,248.65456586002838,None,,,,,,,,,,,,,205,2023-03-29_10h26.30.965,Main,2022.1.1,60.0080170762405,
neutral,negative,2,k,k,,,,,,,,,2,6,42,16,,,,,,,,,main,1,1,2,negative,neutral,k,k,1,0.6647769999690354,248.65951759996824,249.67122910008766,249.65454780007713,None,248.65951759996824,None,248.65951759996824,None,248.65951759996824,None,250.3209912599763,None,250.3209912599763,None,250.3209912599763,None,,,,,,,,,,,,,205,2023-03-29_10h26.30.965,Main,2022.1.1,60.0080170762405,
negative,positive,1,j,l,,,,,,,,,2,7,43,6,,,,,,,,,main,2,2,1,positive,negative,l,l,1,0.7485752999782562,250.32731089997105,251.33787050005049,251.3045465000905,None,250.32731089997105,None,250.32731089997105,None,250.32731089997105,None,252.0711242600577,None,252.0711242600577,None,252.0711242600577,None,,,,,,,,,,,,,205,2023-03-29_10h26.30.965,Main,2022.1.1,60.0080170762405,
positive,negative,2,l,j,,,,,,,,,2,8,44,14,,,,,,,,,main,2,2,2,negative,positive,j,j,1,0.7985491000581533,252.07618630002253,253.08782160002738,253.07392080011778,None,252.07618630002253,None,252.07618630002253,None,252.07618630002253,None,253.87119856008795,None,253.87119856008795,None,253.87119856008795,None,,,,,,,,,,,,,205,2023-03-29_10h26.30.965,Main,2022.1.1,60.0080170762405,
negative,negative,2,j,l,,,,,,,,,2,9,45,9,,,,,,,,,main,2,2,2,negative,negative,l,l,1,0.8651501000858843,253.87727060006,254.89045200007968,254.8711304999888,None,253.87727060006,None,253.87727060006,None,253.87727060006,None,255.73775236003567,None,255.73775236003567,None,255.73775236003567,None,,,,,,,,,,,,,205,2023-03-29_10h26.30.965,Main,2022.1.1,60.0080170762405,
positive,negative,1,l,j,,,,,,,,,2,10,46,5,,,,,,,,,main,2,2,1,negative,positive,j,j,1,0.7313854999374598,255.74360260018148,256.757111400133,256.73773140017875,None,255.74360260018148,None,255.74360260018148,None,255.74360260018148,None,257.4710421601543,None,257.4710421601543,None,257.4710421601543,None,,,,,,,,,,,,,205,2023-03-29_10h26.30.965,Main,2022.1.1,60.0080170762405,
negative,positive,2,j,l,,,,,,,,,2,11,47,15,,,,,,,,,main,1,1,2,positive,negative,l,l,1,0.8013234999962151,257.47733160015196,258.4905791000929,258.471079000039,None,257.47733160015196,None,257.47733160015196,None,257.47733160015196,None,259.27102896010035,None,259.27102896010035,None,259.27102896010035,None,,,,,,,,,,,,,205,2023-03-29_10h26.30.965,Main,2022.1.1,60.0080170762405,
neutral,positive,2,k,k,,,,,,,,,2,12,48,13,,,,,,,,,main,1,1,2,positive,neutral,k,k,1,0.7776446000207216,259.27805249998346,260.2877123001963,260.27381510008126,None,259.27805249998346,None,259.27805249998346,None,259.27805249998346,None,261.0543162601301,None,261.0543162601301,None,261.0543162601301,None,,,,,,,,,,,,,205,2023-03-29_10h26.30.965,Main,2022.1.1,60.0080170762405,
positive,positive,1,l,j,,,,,,,,,2,13,49,2,,,,,,,,,main,2,2,1,positive,positive,j,j,1,0.7313965000212193,261.0601022001356,262.07367300009355,262.05705860001035,None,261.0601022001356,None,261.0601022001356,None,261.0601022001356,None,262.78762106013016,None,262.78762106013016,None,262.78762106013016,None,,,,,,,,,,,,,205,2023-03-29_10h26.30.965,Main,2022.1.1,60.0080170762405,
neutral,neutral,2,k,k,,,,,,,,,2,14,50,10,,,,,,,,,main,1,1,2,neutral,neutral,k,k,1,0.6815518999937922,262.79098580009304,263.8042829001788,263.7876180000603,None,262.79098580009304,None,262.79098580009304,None,262.79098580009304,None,264.47067566004114,None,264.47067566004114,None,264.47067566004114,None,,,,,,,,,,,,,205,2023-03-29_10h26.30.965,Main,2022.1.1,60.0080170762405,
positive,neutral,1,l,j,,,,,,,,,2,15,51,8,,,,,,,,,main,1,1,1,neutral,positive,j,j,1,0.7483835001476109,264.47617770009674,265.4876820000354,265.4737812001258,None,264.47617770009674,None,264.47617770009674,None,264.47617770009674,None,266.220880960091,None,266.220880960091,None,266.220880960091,None,,,,,,,,,,,,,205,2023-03-29_10h26.30.965,Main,2022.1.1,60.0080170762405,
negative,neutral,2,j,l,,,,,,,,,2,16,52,12,,,,,,,,,main,2,2,2,neutral,negative,l,l,1,0.753917200025171,266.2259895000607,267.2375889001414,267.2236562001053,None,266.2259895000607,None,266.2259895000607,None,266.2259895000607,None,267.976239660033,None,267.976239660033,None,267.976239660033,None,,,,,,,,,,,,,205,2023-03-29_10h26.30.965,Main,2022.1.1,60.0080170762405,
positive,neutral,2,l,j,,,,,,,,,2,17,53,17,,,,,,,,,main,2,2,2,neutral,positive,j,j,1,0.6437484000343829,267.9795032001566,268.9902610001154,268.9708873999771,None,267.9795032001566,None,267.9795032001566,None,267.9795032001566,None,269.6207983600674,None,269.6207983600674,None,269.6207983600674,None,,,,,,,,,,,,,205,2023-03-29_10h26.30.965,Main,2022.1.1,60.0080170762405,
neutral,neutral,2,k,k,,,,,,,,,3,0,54,10,,,,,,,,,main,2,2,2,neutral,neutral,k,k,1,0.7316582000348717,269.6375258001499,270.637503700098,270.620812300127,None,269.6375258001499,None,269.6375258001499,None,269.6375258001499,None,271.35389846002215,None,271.35389846002215,None,271.35389846002215,None,,,,,,,,,,,,,205,2023-03-29_10h26.30.965,Main,2022.1.1,60.0080170762405,
neutral,negative,1,k,k,,,,,,,,,3,1,55,7,,,,,,,,,main,2,2,1,negative,neutral,k,k,1,0.7976239998824894,271.35999300004914,272.37348740012385,272.3541304001119,None,271.35999300004914,None,271.35999300004914,None,271.35999300004914,None,273.15408286007585,None,273.15408286007585,None,273.15408286007585,None,,,,,,,,,,,,,205,2023-03-29_10h26.30.965,Main,2022.1.1,60.0080170762405,
positive,negative,2,l,j,,,,,,,,,3,2,56,14,,,,,,,,,main,1,1,2,negative,positive,j,j,1,0.71467119990848,273.15932590002194,274.1705267999787,274.1538466999773,None,273.15932590002194,None,273.15932590002194,None,273.15932590002194,None,274.87048386011736,None,274.87048386011736,None,274.87048386011736,None,,,,,,,,,,,,,205,2023-03-29_10h26.30.965,Main,2022.1.1,60.0080170762405,
negative,negative,1,j,l,,,,,,,,,3,3,57,0,,,,,,,,,main,2,2,1,negative,negative,l,l,1,0.7655875999480486,274.870499700075,275.8705458000768,275.8705458000768,None,274.870499700075,None,274.870499700075,None,274.870499700075,None,276.63762185999656,None,276.63762185999656,None,276.63762185999656,None,,,,,,,,,,,,,205,2023-03-29_10h26.30.965,Main,2022.1.1,60.0080170762405,
neutral,positive,1,k,k,,,,,,,,,3,4,58,4,,,,,,,,,main,2,2,1,positive,neutral,k,k,1,0.7487971999216825,276.64332110015675,277.6567470000591,277.620775999967,None,276.64332110015675,None,276.64332110015675,None,276.64332110015675,None,278.38760716000104,None,278.38760716000104,None,278.38760716000104,None,,,,,,,,,,,,,205,2023-03-29_10h26.30.965,Main,2022.1.1,60.0080170762405,
neutral,neutral,1,k,k,,,,,,,,,3,5,59,1,,,,,,,,,main,1,1,1,neutral,neutral,k,k,1,0.7644338998943567,278.3932940000668,279.4040598999709,279.3874068001751,None,278.3932940000668,None,278.3932940000668,None,278.3932940000668,None,280.15400545995215,None,280.15400545995215,None,280.15400545995215,None,,,,,,,,,,,,,205,2023-03-29_10h26.30.965,Main,2022.1.1,60.0080170762405,
negative,neutral,2,j,l,,,,,,,,,3,6,60,12,,,,,,,,,main,2,2,2,neutral,negative,l,l,1,0.8314308000262827,280.17355920001864,281.18733800016344,281.15403160010464,None,280.17355920001864,None,280.17355920001864,None,280.17355920001864,None,281.98731306006664,None,281.98731306006664,None,281.98731306006664,None,,,,,,,,,,,,,205,2023-03-29_10h26.30.965,Main,2022.1.1,60.0080170762405,
neutral,positive,2,k,k,,,,,,,,,3,7,61,13,,,,,,,,,main,2,2,2,positive,neutral,k,k,1,0.9984999001026154,281.9939578999765,283.00401380006224,282.9901553001255,None,281.9939578999765,None,281.9939578999765,None,281.9939578999765,None,283.98724025997797,None,283.98724025997797,None,283.98724025997797,None,,,,,,,,,,,,,205,2023-03-29_10h26.30.965,Main,2022.1.1,60.0080170762405,
negative,positive,1,j,l,,,,,,,,,3,8,62,6,,,,,,,,,main,1,1,1,positive,negative,l,l,1,0.8806650000624359,283.99334700009786,285.0066909000743,284.98725040000863,None,283.99334700009786,None,283.99334700009786,None,283.99334700009786,None,285.870557760098,None,285.870557760098,None,285.870557760098,None,,,,,,,,,,,,,205,2023-03-29_10h26.30.965,Main,2022.1.1,60.0080170762405,
positive,positive,2,l,j,,,,,,,,,3,9,63,11,,,,,,,,,main,1,1,2,positive,positive,j,j,1,0.9650818000081927,285.873797000153,286.870553500019,286.870553500019,None,285.873797000153,None,285.873797000153,None,285.873797000153,None,287.83720236013176,None,287.83720236013176,None,287.83720236013176,None,,,,,,,,,,,,,205,2023-03-29_10h26.30.965,Main,2022.1.1,60.0080170762405,
neutral,negative,2,k,k,,,,,,,,,3,10,64,16,,,,,,,,,main,1,1,2,negative,neutral,k,k,1,0.8148753999266773,287.8401608001441,288.8538339000661,288.83991169999354,None,287.8401608001441,None,287.8401608001441,None,287.8401608001441,None,289.6538135600043,None,289.6538135600043,None,289.6538135600043,None,,,,,,,,,,,,,205,2023-03-29_10h26.30.965,Main,2022.1.1,60.0080170762405,
positive,neutral,2,l,j,,,,,,,,,3,11,65,17,,,,,,,,,main,1,1,2,neutral,positive,j,j,1,0.7986335000023246,289.65959840011783,290.67051560012624,290.63996489997953,None,289.65959840011783,None,289.65959840011783,None,289.65959840011783,None,291.453843760048,None,291.453843760048,None,291.453843760048,None,,,,,,,,,,,,,205,2023-03-29_10h26.30.965,Main,2022.1.1,60.0080170762405,
negative,neutral,1,j,l,,,,,,,,,3,12,66,3,,,,,,,,,main,1,1,1,neutral,negative,l,l,1,0.898326100083068,291.4569145999849,292.4731642000843,292.45659229997545,None,291.4569145999849,None,291.4569145999849,None,291.4569145999849,None,293.3538320599822,None,293.3538320599822,None,293.3538320599822,None,,,,,,,,,,,,,205,2023-03-29_10h26.30.965,Main,2022.1.1,60.0080170762405,
negative,negative,2,j,l,,,,,,,,,3,13,67,9,,,,,,,,,main,1,1,2,negative,negative,l,l,1,1.4981521998997778,293.3595031001605,294.37042250018567,294.353747199988,None,293.3595031001605,None,293.3595031001605,None,293.3595031001605,None,295.8536799601046,None,295.8536799601046,None,295.8536799601046,None,,,,,,,,,,,,,205,2023-03-29_10h26.30.965,Main,2022.1.1,60.0080170762405,
positive,positive,1,l,j,,,,,,,,,3,14,68,2,,,,,,,,,main,1,1,1,positive,positive,j,j,1,0.7664646001067013,295.8595005001407,296.87042130017653,296.8536810001824,None,295.8595005001407,None,295.8595005001407,None,295.8595005001407,None,297.62045886015983,None,297.62045886015983,None,297.62045886015983,None,,,,,,,,,,,,,205,2023-03-29_10h26.30.965,Main,2022.1.1,60.0080170762405,
negative,positive,2,j,l,,,,,,,,,3,15,69,15,,,,,,,,,main,1,1,2,positive,negative,l,l,1,0.7638937002047896,297.6243781000376,298.63971290015616,298.62032500002533,None,297.6243781000376,None,297.6243781000376,None,297.6243781000376,None,299.38675706016363,None,299.38675706016363,None,299.38675706016363,None,,,,,,,,,,,,,205,2023-03-29_10h26.30.965,Main,2022.1.1,60.0080170762405,
positive,negative,1,l,j,,,,,,,,,3,16,70,5,,,,,,,,,main,2,2,1,negative,positive,j,j,1,0.9151557998266071,299.3928452001419,300.40636110003106,300.38967410009354,None,299.3928452001419,None,299.3928452001419,None,299.3928452001419,None,301.30359196008646,None,301.30359196008646,None,301.30359196008646,None,,,,,,,,,,,,,205,2023-03-29_10h26.30.965,Main,2022.1.1,60.0080170762405,
positive,neutral,1,l,j,,,,,,,,,3,17,71,8,,,,,,,,,main,2,2,1,neutral,positive,j,l,0,0.887125700013712,301.3203092000913,302.3202579000499,302.2869397001341,None,301.3203092000913,None,301.3203092000913,None,301.3203092000913,None,303.18989080004394,None,303.18989080004394,None,303.18989080004394,None,,,,,,,,,,,,,205,2023-03-29_10h26.30.965,Main,2022.1.1,60.0080170762405,
negative,positive,2,j,l,,,,,,,,,4,0,72,15,,,,,,,,,main,2,2,2,positive,negative,l,l,1,0.81749780010432,304.18781940010376,305.189635500079,305.17020150017925,None,304.18781940010376,None,304.18781940010376,None,304.18781940010376,None,306.0035370599711,None,306.0035370599711,None,306.0035370599711,None,,,,,,,,,,,,,205,2023-03-29_10h26.30.965,Main,2022.1.1,60.0080170762405,
negative,neutral,1,j,l,,,,,,,,,4,1,73,3,,,,,,,,,main,1,1,1,neutral,negative,l,l,1,0.7312287997920066,306.0100169000216,307.0201785999816,307.0035342001356,None,306.0100169000216,None,306.0100169000216,None,306.0100169000216,None,307.73679486007893,None,307.73679486007893,None,307.73679486007893,None,,,,,,,,,,,,,205,2023-03-29_10h26.30.965,Main,2022.1.1,60.0080170762405,
neutral,positive,2,k,k,,,,,,,,,4,2,74,13,,,,,,,,,main,1,1,2,positive,neutral,k,k,1,0.6986197999212891,307.7424780000001,308.7562457001768,308.73681580019183,None,307.7424780000001,None,307.7424780000001,None,307.7424780000001,None,309.43675585996823,None,309.43675585996823,None,309.43675585996823,None,,,,,,,,,,,,,205,2023-03-29_10h26.30.965,Main,2022.1.1,60.0080170762405,
positive,positive,1,l,j,,,,,,,,,4,3,75,2,,,,,,,,,main,2,2,1,positive,positive,j,j,1,0.8676012998912483,309.4421516000293,310.45343310013413,310.43676930014044,None,309.4421516000293,None,309.4421516000293,None,309.4421516000293,None,311.3061105601722,None,311.3061105601722,None,311.3061105601722,None,,,,,,,,,,,,,205,2023-03-29_10h26.30.965,Main,2022.1.1,60.0080170762405,
negative,negative,1,j,l,,,,,,,,,4,4,76,0,,,,,,,,,main,2,2,1,negative,negative,l,l,1,0.8289046001154929,311.30902940011583,312.3227510000579,312.30608770018443,None,311.30902940011583,None,311.30902940011583,None,311.30902940011583,None,313.13664596013257,None,313.13664596013257,None,313.13664596013257,None,,,,,,,,,,,,,205,2023-03-29_10h26.30.965,Main,2022.1.1,60.0080170762405,
neutral,negative,2,k,k,,,,,,,,,4,5,77,16,,,,,,,,,main,2,2,2,negative,neutral,k,k,1,0.7344438000582159,313.14128670003265,314.15335500007495,314.12009600014426,None,313.14128670003265,None,313.14128670003265,None,313.14128670003265,None,314.87265126009004,None,314.87265126009004,None,314.87265126009004,None,,,,,,,,,,,,,205,2023-03-29_10h26.30.965,Main,2022.1.1,60.0080170762405,
neutral,neutral,1,k,k,,,,,,,,,4,6,78,1,,,,,,,,,main,1,1,1,neutral,neutral,k,k,1,0.7486217999830842,314.87561019998975,315.88669300009497,315.87002330017276,None,314.87561019998975,None,314.87561019998975,None,314.87561019998975,None,316.62273966006467,None,316.62273966006467,None,316.62273966006467,None,,,,,,,,,,,,,205,2023-03-29_10h26.30.965,Main,2022.1.1,60.0080170762405,
neutral,positive,1,k,k,,,,,,,,,4,7,79,4,,,,,,,,,main,1,1,1,positive,neutral,k,k,1,0.6491958999540657,316.62622990016825,317.6366620999761,317.61998110008426,None,316.62622990016825,None,316.62622990016825,None,316.62622990016825,None,318.273904360109,None,318.273904360109,None,318.273904360109,None,,,,,,,,,,,,,205,2023-03-29_10h26.30.965,Main,2022.1.1,60.0080170762405,
neutral,neutral,2,k,k,,,,,,,,,4,8,80,10,,,,,,,,,main,1,1,2,neutral,neutral,k,k,1,0.7605670997872949,318.2768141999841,319.2865863000043,319.2699383001309,None,318.2768141999841,None,318.2768141999841,None,318.2768141999841,None,320.03656576012725,None,320.03656576012725,None,320.03656576012725,None,,,,,,,,,,,,,205,2023-03-29_10h26.30.965,Main,2022.1.1,60.0080170762405,
neutral,negative,1,k,k,,,,,,,,,4,9,81,7,,,,,,,,,main,2,2,1,negative,neutral,k,k,1,0.6488123999442905,320.0414946000092,321.05325800017454,321.03657340002246,None,320.0414946000092,None,320.0414946000092,None,320.0414946000092,None,321.6866512601031,None,321.6866512601031,None,321.6866512601031,None,,,,,,,,,,,,,205,2023-03-29_10h26.30.965,Main,2022.1.1,60.0080170762405,
positive,neutral,1,l,j,,,,,,,,,4,10,82,8,,,,,,,,,main,2,2,1,neutral,positive,j,j,1,0.9312561999540776,321.6922932001762,322.70322989998385,322.68656870000996,None,321.6922932001762,None,321.6922932001762,None,321.6922932001762,None,323.61985156007574,None,323.61985156007574,None,323.61985156007574,None,,,,,,,,,,,,,205,2023-03-29_10h26.30.965,Main,2022.1.1,60.0080170762405,
negative,positive,1,j,l,,,,,,,,,4,11,83,6,,,,,,,,,main,2,2,1,positive,negative,l,l,1,0.7512092001270503,323.62515850015916,324.63921360019594,324.62257460015826,None,323.62515850015916,None,323.62515850015916,None,323.62515850015916,None,325.37248076007234,None,325.37248076007234,None,325.37248076007234,None,,,,,,,,,,,,,205,2023-03-29_10h26.30.965,Main,2022.1.1,60.0080170762405,
positive,negative,2,l,j,,,,,,,,,4,12,84,14,,,,,,,,,main,1,1,2,negative,positive,j,j,1,0.7790223998017609,325.3755036999937,326.3864619000815,326.3697932001669,None,325.3755036999937,None,325.3755036999937,None,325.3755036999937,None,327.15308925996067,None,327.15308925996067,None,327.15308925996067,None,,,,,,,,,,,,,205,2023-03-29_10h26.30.965,Main,2022.1.1,60.0080170762405,
positive,negative,1,l,j,,,,,,,,,4,13,85,5,,,,,,,,,main,1,1,1,negative,positive,j,j,1,0.8147836001589894,327.1585615000222,328.1697573000565,328.1558379000053,None,327.1585615000222,None,327.1585615000222,None,327.1585615000222,None,328.96974136002825,None,328.96974136002825,None,328.96974136002825,None,,,,,,,,,,,,,205,2023-03-29_10h26.30.965,Main,2022.1.1,60.0080170762405,
negative,neutral,2,j,l,,,,,,,,,4,14,86,12,,,,,,,,,main,2,2,2,neutral,negative,l,l,1,0.7526928000152111,328.97604490001686,329.9864060000982,329.9697438001167,None,328.97604490001686,None,328.97604490001686,None,328.97604490001686,None,330.7197446601698,None,330.7197446601698,None,330.7197446601698,None,,,,,,,,,,,,,205,2023-03-29_10h26.30.965,Main,2022.1.1,60.0080170762405,
positive,neutral,2,l,j,,,,,,,,,4,15,87,17,,,,,,,,,main,2,2,2,neutral,positive,j,j,1,0.7600017001386732,330.72819450008683,331.73635819996707,331.71980730001815,None,330.72819450008683,None,330.72819450008683,None,330.72819450008683,None,332.4863296600291,None,332.4863296600291,None,332.4863296600291,None,,,,,,,,,,,,,205,2023-03-29_10h26.30.965,Main,2022.1.1,60.0080170762405,
negative,negative,2,j,l,,,,,,,,,4,16,88,9,,,,,,,,,main,2,2,2,negative,negative,l,l,1,0.7651820001192391,332.4913055000361,333.50306740007363,333.4891133001074,None,332.4913055000361,None,332.4913055000361,None,332.4913055000361,None,334.25296906006986,None,334.25296906006986,None,334.25296906006986,None,,,,,,,,,,,,,205,2023-03-29_10h26.30.965,Main,2022.1.1,60.0080170762405,
positive,positive,2,l,j,,,,,,,,,4,17,89,11,,,,,,,,,main,1,1,2,positive,positive,j,j,1,0.6343386000953615,334.2563769000117,335.252946899971,335.252946899971,None,334.2563769000117,None,334.2563769000117,None,334.2563769000117,None,335.8890234599588,None,335.8890234599588,None,335.8890234599588,None,,,,,,,,,,,,,205,2023-03-29_10h26.30.965,Main,2022.1.1,60.0080170762405,
neutral,negative,1,k,k,,,,,,,,,5,0,90,7,,,,,,,,,main,2,2,1,negative,neutral,k,k,1,0.5790329000446945,335.89317429997027,336.90293950005434,336.88897259999067,None,335.89317429997027,None,335.89317429997027,None,335.89317429997027,None,337.46953876011537,None,337.46953876011537,None,337.46953876011537,None,,,,,,,,,,,,,205,2023-03-29_10h26.30.965,Main,2022.1.1,60.0080170762405,
negative,positive,2,j,l,,,,,,,,,5,1,91,15,,,,,,,,,main,2,2,2,positive,negative,l,l,1,0.6318530000280589,337.4745201000478,338.48622229998,338.4529951000586,None,337.4745201000478,None,337.4745201000478,None,337.4745201000478,None,339.10285505999343,None,339.10285505999343,None,339.10285505999343,None,,,,,,,,,,,,,205,2023-03-29_10h26.30.965,Main,2022.1.1,60.0080170762405,
neutral,neutral,2,k,k,,,,,,,,,5,2,92,10,,,,,,,,,main,2,2,2,neutral,neutral,k,k,1,0.7345612000208348,339.108902100008,340.11954420013353,340.10293360007927,None,339.108902100008,None,339.108902100008,None,339.108902100008,None,340.83882456014396,None,340.83882456014396,None,340.83882456014396,None,,,,,,,,,,,,,205,2023-03-29_10h26.30.965,Main,2022.1.1,60.0080170762405,
positive,negative,2,l,j,,,,,,,,,5,3,93,14,,,,,,,,,main,2,2,2,negative,positive,j,l,0,0.5787333000916988,340.8427793001756,341.8528438999783,341.83619840000756,None,340.8427793001756,None,340.8427793001756,None,340.8427793001756,None,342.4194833000656,None,342.4194833000656,None,342.4194833000656,None,,,,,,,,,,,,,205,2023-03-29_10h26.30.965,Main,2022.1.1,60.0080170762405,
neutral,positive,1,k,k,,,,,,,,,5,4,94,4,,,,,,,,,main,1,1,1,positive,neutral,k,k,1,0.7843247998971492,343.4198557001073,344.4194290000014,344.40277960011736,None,343.4198557001073,None,343.4198557001073,None,343.4198557001073,None,345.20275156011337,None,345.20275156011337,None,345.20275156011337,None,,,,,,,,,,,,,205,2023-03-29_10h26.30.965,Main,2022.1.1,60.0080170762405,
positive,neutral,2,l,j,,,,,,,,,5,5,95,17,,,,,,,,,main,1,1,2,neutral,positive,j,j,1,0.7505381000228226,345.20833950000815,346.22204790008254,346.20274040009826,None,345.20833950000815,None,345.20833950000815,None,345.20833950000815,None,346.9553798599867,None,346.9553798599867,None,346.9553798599867,None,,,,,,,,,,,,,205,2023-03-29_10h26.30.965,Main,2022.1.1,60.0080170762405,
positive,positive,2,l,j,,,,,,,,,5,6,96,11,,,,,,,,,main,1,1,2,positive,positive,j,j,1,0.6460583000443876,346.9581153001636,347.9694087000098,347.9555871000048,None,346.9581153001636,None,346.9581153001636,None,346.9581153001636,None,348.60266226015517,None,348.60266226015517,None,348.60266226015517,None,,,,,,,,,,,,,205,2023-03-29_10h26.30.965,Main,2022.1.1,60.0080170762405,
positive,neutral,1,l,j,,,,,,,,,5,7,97,8,,,,,,,,,main,2,2,1,neutral,positive,j,j,1,0.8176766000688076,348.60624170000665,349.62217380013317,349.60549500002526,None,348.60624170000665,None,348.60624170000665,None,348.60624170000665,None,350.4220427600434,None,350.4220427600434,None,350.4220427600434,None,,,,,,,,,,,,,205,2023-03-29_10h26.30.965,Main,2022.1.1,60.0080170762405,
neutral,positive,2,k,k,,,,,,,,,5,8,98,13,,,,,,,,,main,1,1,2,positive,neutral,k,k,1,0.6454404001124203,350.425133400131,351.4359776000492,351.41933710011654,None,350.425133400131,None,350.425133400131,None,350.425133400131,None,352.06931426001245,None,352.06931426001245,None,352.06931426001245,None,,,,,,,,,,,,,205,2023-03-29_10h26.30.965,Main,2022.1.1,60.0080170762405,
negative,negative,1,j,l,,,,,,,,,5,9,99,0,,,,,,,,,main,2,2,1,negative,negative,l,l,1,0.698915199842304,352.074305200018,353.0859538000077,353.0692702999804,None,352.074305200018,None,352.074305200018,None,352.074305200018,None,353.76931026016825,None,353.76931026016825,None,353.76931026016825,None,,,,,,,,,,,,,205,2023-03-29_10h26.30.965,Main,2022.1.1,60.0080170762405,
neutral,negative,2,k,k,,,,,,,,,5,10,100,16,,,,,,,,,main,1,1,2,negative,neutral,k,k,1,0.6816384999547154,353.7732216999866,354.7886616999749,354.7719662999734,None,353.7732216999866,None,353.7732216999866,None,353.7732216999866,None,355.4525572601473,None,355.4525572601473,None,355.4525572601473,None,,,,,,,,,,,,,205,2023-03-29_10h26.30.965,Main,2022.1.1,60.0080170762405,
negative,negative,2,j,l,,,,,,,,,5,11,101,9,,,,,,,,,main,1,1,2,negative,negative,l,l,1,1.281028499826789,355.4583399000112,356.4692098000087,356.45258190017194,None,355.4583399000112,None,355.4583399000112,None,355.4583399000112,None,357.73586886001283,None,357.73586886001283,None,357.73586886001283,None,,,,,,,,,,,,,205,2023-03-29_10h26.30.965,Main,2022.1.1,60.0080170762405,
positive,negative,1,l,j,,,,,,,,,5,12,102,5,,,,,,,,,main,1,1,1,negative,positive,j,j,1,0.6985480000730604,357.7412268000189,358.7525190000888,358.7386342000682,None,357.7412268000189,None,357.7412268000189,None,357.7412268000189,None,359.4359259600518,None,359.4359259600518,None,359.4359259600518,None,,,,,,,,,,,,,205,2023-03-29_10h26.30.965,Main,2022.1.1,60.0080170762405,
negative,neutral,1,j,l,,,,,,,,,5,13,103,3,,,,,,,,,main,2,2,1,neutral,negative,l,l,1,0.764861200004816,359.44142120005563,360.4524255001452,360.43853710009716,None,359.44142120005563,None,359.44142120005563,None,359.44142120005563,None,361.20244265997314,None,361.20244265997314,None,361.20244265997314,None,,,,,,,,,,,,,205,2023-03-29_10h26.30.965,Main,2022.1.1,60.0080170762405,
negative,neutral,2,j,l,,,,,,,,,5,14,104,12,,,,,,,,,main,2,2,2,neutral,negative,l,l,1,0.698090200079605,361.20782490004785,362.2220079000108,362.20529579999857,None,361.20782490004785,None,361.20782490004785,None,361.20782490004785,None,362.90215176015624,None,362.90215176015624,None,362.90215176015624,None,,,,,,,,,,,,,205,2023-03-29_10h26.30.965,Main,2022.1.1,60.0080170762405,
positive,positive,1,l,j,,,,,,,,,5,15,105,2,,,,,,,,,main,2,2,1,positive,positive,j,j,1,0.7319305997807533,362.9085701000877,363.92177760018967,363.9051777999848,None,362.9085701000877,None,362.9085701000877,None,362.9085701000877,None,364.6357033601729,None,364.6357033601729,None,364.6357033601729,None,,,,,,,,,,,,,205,2023-03-29_10h26.30.965,Main,2022.1.1,60.0080170762405,
neutral,neutral,1,k,k,,,,,,,,,5,16,106,1,,,,,,,,,main,1,1,1,neutral,neutral,k,k,1,0.6814524999354035,364.6409362000413,365.6523766000755,365.61903060018085,None,364.6409362000413,None,364.6409362000413,None,364.6409362000413,None,366.3189875599695,None,366.3189875599695,None,366.3189875599695,None,,,,,,,,,,,,,205,2023-03-29_10h26.30.965,Main,2022.1.1,60.0080170762405,
negative,positive,1,j,l,,,,,,,,,5,17,107,6,,,,,,,,,main,2,2,1,positive,negative,l,l,1,0.6985545000061393,366.3248897001613,367.33841229998507,367.31906070001423,None,366.3248897001613,None,366.3248897001613,None,366.3248897001613,None,368.01896406009325,None,368.01896406009325,None,368.01896406009325,None,,,,,,,,,,,,,205,2023-03-29_10h26.30.965,Main,2022.1.1,60.0080170762405,
neutral,positive,1,k,k,,,,,,,,,6,0,108,4,,,,,,,,,main,1,1,1,positive,neutral,k,k,1,0.7829590002074838,368.02381590008736,369.0356489000842,369.0189726999961,None,368.02381590008736,None,368.02381590008736,None,368.02381590008736,None,369.8023655600613,None,369.8023655600613,None,369.8023655600613,None,,,,,,,,,,,,,205,2023-03-29_10h26.30.965,Main,2022.1.1,60.0080170762405,
negative,positive,2,j,l,,,,,,,,,6,1,109,15,,,,,,,,,main,1,1,2,positive,negative,l,l,1,0.7973002998623997,369.8066606000066,370.82162800012156,370.8022811000701,None,369.8066606000066,None,369.8066606000066,None,369.8066606000066,None,371.6022272601025,None,371.6022272601025,None,371.6022272601025,None,,,,,,,,,,,,,205,2023-03-29_10h26.30.965,Main,2022.1.1,60.0080170762405,
neutral,positive,2,k,k,,,,,,,,,6,2,110,13,,,,,,,,,main,1,1,2,positive,neutral,k,k,1,0.9158173000905663,371.6057712000329,372.6189003000036,372.6022273001727,None,371.6057712000329,None,371.6057712000329,None,371.6057712000329,None,373.5188500601565,None,373.5188500601565,None,373.5188500601565,None,,,,,,,,,,,,,205,2023-03-29_10h26.30.965,Main,2022.1.1,60.0080170762405,
positive,positive,1,l,j,,,,,,,,,6,3,111,2,,,,,,,,,main,1,1,1,positive,positive,j,j,1,0.9671100000850856,373.5228940001689,374.5355430999771,374.52167370007373,None,373.5228940001689,None,373.5228940001689,None,373.5228940001689,None,375.4881501600379,None,375.4881501600379,None,375.4881501600379,None,,,,,,,,,,,,,205,2023-03-29_10h26.30.965,Main,2022.1.1,60.0080170762405,
negative,neutral,2,j,l,,,,,,,,,6,4,112,12,,,,,,,,,main,2,2,2,neutral,negative,l,l,1,0.7949040001258254,375.49236869998276,376.5021501001902,376.48834859998897,None,375.49236869998276,None,375.49236869998276,None,375.49236869998276,None,377.2854535600403,None,377.2854535600403,None,377.2854535600403,None,,,,,,,,,,,,,205,2023-03-29_10h26.30.965,Main,2022.1.1,60.0080170762405,
neutral,negative,2,k,k,,,,,,,,,6,5,113,16,,,,,,,,,main,1,1,2,negative,neutral,k,k,1,0.8314215999562293,377.28847869997844,378.3021133001894,378.28820750000887,None,377.28847869997844,None,377.28847869997844,None,377.28847869997844,None,379.1187769600423,None,379.1187769600423,None,379.1187769600423,None,,,,,,,,,,,,,205,2023-03-29_10h26.30.965,Main,2022.1.1,60.0080170762405,
negative,negative,1,j,l,,,,,,,,,6,6,114,0,,,,,,,,,main,1,1,1,negative,negative,l,l,1,0.7484828000888228,379.1227326001972,380.1354365001898,380.1187940000091,None,379.1227326001972,None,379.1227326001972,None,379.1227326001972,None,380.8684662601212,None,380.8684662601212,None,380.8684662601212,None,,,,,,,,,,,,,205,2023-03-29_10h26.30.965,Main,2022.1.1,60.0080170762405,
positive,negative,1,l,j,,,,,,,,,6,7,115,5,,,,,,,,,main,1,1,1,negative,positive,j,j,1,1.0819291998632252,380.8716236001346,381.88539840001613,381.8715288999956,None,380.8716236001346,None,380.8716236001346,None,380.8716236001346,None,382.9521343600703,None,382.9521343600703,None,382.9521343600703,None,,,,,,,,,,,,,205,2023-03-29_10h26.30.965,Main,2022.1.1,60.0080170762405,
neutral,negative,1,k,k,,,,,,,,,6,8,116,7,,,,,,,,,main,2,2,1,negative,neutral,k,k,1,0.7158241998404264,382.95600710017607,383.96867440012284,383.9520209999755,None,382.95600710017607,None,382.95600710017607,None,382.95600710017607,None,384.6686440601246,None,384.6686440601246,None,384.6686440601246,None,,,,,,,,,,,,,205,2023-03-29_10h26.30.965,Main,2022.1.1,60.0080170762405,
negative,neutral,1,j,l,,,,,,,,,6,9,117,3,,,,,,,,,main,2,2,1,neutral,negative,l,l,1,0.7976419997867197,384.68808560003527,385.70209570019506,385.66864270018414,None,384.68808560003527,None,384.68808560003527,None,384.68808560003527,None,386.4686080601299,None,386.4686080601299,None,386.4686080601299,None,,,,,,,,,,,,,205,2023-03-29_10h26.30.965,Main,2022.1.1,60.0080170762405,
positive,neutral,2,l,j,,,,,,,,,6,10,118,17,,,,,,,,,main,2,2,2,neutral,positive,j,j,1,0.8354078000411391,386.47404260002077,387.4879205999896,387.46860989998095,None,386.47404260002077,None,386.47404260002077,None,386.47404260002077,None,388.3016340599628,None,388.3016340599628,None,388.3016340599628,None,,,,,,,,,,,,,205,2023-03-29_10h26.30.965,Main,2022.1.1,60.0080170762405,
positive,positive,2,l,j,,,,,,,,,6,11,119,11,,,,,,,,,main,1,1,2,positive,positive,j,j,1,0.6946624000556767,388.3082592000719,389.32128360006027,389.3018917001318,None,388.3082592000719,None,388.3082592000719,None,388.3082592000719,None,390.0018799600424,None,390.0018799600424,None,390.0018799600424,None,,,,,,,,,,,,,205,2023-03-29_10h26.30.965,Main,2022.1.1,60.0080170762405,
neutral,neutral,2,k,k,,,,,,,,,6,12,120,10,,,,,,,,,main,1,1,2,neutral,neutral,k,k,1,0.6978332998696715,390.01862330012955,391.01856039999984,391.0018774000928,None,390.01862330012955,None,390.01862330012955,None,390.01862330012955,None,391.70184655997434,None,391.70184655997434,None,391.70184655997434,None,,,,,,,,,,,,,205,2023-03-29_10h26.30.965,Main,2022.1.1,60.0080170762405,
positive,negative,2,l,j,,,,,,,,,6,13,121,14,,,,,,,,,main,2,2,2,negative,positive,j,j,1,0.8315823001321405,391.7049504001625,392.7018206000794,392.6880097000394,None,391.7049504001625,None,391.7049504001625,None,391.7049504001625,None,393.5351102601038,None,393.5351102601038,None,393.5351102601038,None,,,,,,,,,,,,,205,2023-03-29_10h26.30.965,Main,2022.1.1,60.0080170762405,
positive,neutral,1,l,j,,,,,,,,,6,14,122,8,,,,,,,,,main,2,2,1,neutral,positive,j,j,1,0.9991570001002401,393.53890660009347,394.5545346001163,394.5211848001927,None,393.53890660009347,None,393.53890660009347,None,393.53890660009347,None,395.5351081599714,None,395.5351081599714,None,395.5351081599714,None,,,,,,,,,,,,,205,2023-03-29_10h26.30.965,Main,2022.1.1,60.0080170762405,
negative,negative,2,j,l,,,,,,,,,6,15,123,9,,,,,,,,,main,1,1,2,negative,negative,l,l,1,1.0482439999468625,395.54124940000474,396.5518049001694,396.53509999997914,None,395.54124940000474,None,395.54124940000474,None,395.54124940000474,None,397.58505985999943,None,397.58505985999943,None,397.58505985999943,None,,,,,,,,,,,,,205,2023-03-29_10h26.30.965,Main,2022.1.1,60.0080170762405,
neutral,neutral,1,k,k,,,,,,,,,6,16,124,1,,,,,,,,,main,2,2,1,neutral,neutral,k,k,1,0.8647896000184119,397.6019525001757,398.60176440002397,398.5850643001031,None,397.6019525001757,None,397.6019525001757,None,397.6019525001757,None,399.45167705996425,None,399.45167705996425,None,399.45167705996425,None,,,,,,,,,,,,,205,2023-03-29_10h26.30.965,Main,2022.1.1,60.0080170762405,
negative,positive,1,j,l,,,,,,,,,6,17,125,6,,,,,,,,,main,1,1,1,positive,negative,l,l,1,0.8338891000021249,399.4552490999922,400.46834220015444,400.45172360003926,None,399.4552490999922,None,399.4552490999922,None,399.4552490999922,None,401.2876449599629,None,401.2876449599629,None,401.2876449599629,None,,,,,,,,,,,,,205,2023-03-29_10h26.30.965,Main,2022.1.1,60.0080170762405,
neutral,negative,1,k,k,,,,,,,,,7,0,126,7,,,,,,,,,main,1,1,1,negative,neutral,k,k,1,0.8956289999186993,401.29095170018263,402.30169060011394,402.2876910001505,None,401.29095170018263,None,401.29095170018263,None,401.29095170018263,None,403.1849200599594,None,403.1849200599594,None,403.1849200599594,None,,,,,,,,,,,,,205,2023-03-29_10h26.30.965,Main,2022.1.1,60.0080170762405,
negative,positive,2,j,l,,,,,,,,,7,1,127,15,,,,,,,,,main,2,2,2,positive,negative,l,l,1,0.8655387999024242,403.1895934001077,404.20168430008925,404.1849216001574,None,403.1895934001077,None,403.1895934001077,None,403.1895934001077,None,405.05155346004756,None,405.05155346004756,None,405.05155346004756,None,,,,,,,,,,,,,205,2023-03-29_10h26.30.965,Main,2022.1.1,60.0080170762405,
neutral,negative,2,k,k,,,,,,,,,7,2,128,16,,,,,,,,,main,1,1,2,negative,neutral,k,k,1,0.8148701000027359,405.0564787001349,406.07085960009135,406.051547100069,None,405.0564787001349,None,405.0564787001349,None,405.0564787001349,None,406.86817056008147,None,406.86817056008147,None,406.86817056008147,None,,,,,,,,,,,,,205,2023-03-29_10h26.30.965,Main,2022.1.1,60.0080170762405,
positive,negative,1,l,j,,,,,,,,,7,3,129,5,,,,,,,,,main,2,2,1,negative,positive,j,j,1,0.8321198001503944,406.8728420000989,407.8875405001454,407.85152980010025,None,406.8728420000989,None,406.8728420000989,None,406.8728420000989,None,408.7016581601696,None,408.7016581601696,None,408.7016581601696,None,,,,,,,,,,,,,205,2023-03-29_10h26.30.965,Main,2022.1.1,60.0080170762405,
negative,neutral,2,j,l,,,,,,,,,7,4,130,12,,,,,,,,,main,1,1,2,neutral,negative,l,l,1,1.0816667000763118,408.7072370001115,409.71816719998606,409.7014909000136,None,408.7072370001115,None,408.7072370001115,None,408.7072370001115,None,410.78476836017796,None,410.78476836017796,None,410.78476836017796,None,,,,,,,,,,,,,205,2023-03-29_10h26.30.965,Main,2022.1.1,60.0080170762405,
positive,neutral,1,l,j,,,,,,,,,7,5,131,8,,,,,,,,,main,1,1,1,neutral,positive,j,j,1,0.8985553998500109,410.78983230004087,411.8014542001765,411.77090580016375,None,410.78983230004087,None,410.78983230004087,None,410.78983230004087,None,412.68471426002213,None,412.68471426002213,None,412.68471426002213,None,,,,,,,,,,,,,205,2023-03-29_10h26.30.965,Main,2022.1.1,60.0080170762405,
neutral,positive,2,k,k,,,,,,,,,7,6,132,13,,,,,,,,,main,2,2,2,positive,neutral,k,k,1,0.7196029000915587,412.6904104000423,413.7014574999921,413.68476340011694,None,412.6904104000423,None,412.6904104000423,None,412.6904104000423,None,414.40401766004504,None,414.40401766004504,None,414.40401766004504,None,,,,,,,,,,,,,205,2023-03-29_10h26.30.965,Main,2022.1.1,60.0080170762405,
negative,positive,1,j,l,,,,,,,,,7,7,133,6,,,,,,,,,main,2,2,1,positive,negative,l,l,1,0.8607602999545634,414.40887240017764,415.4180314000696,415.40419839997776,None,414.40887240017764,None,414.40887240017764,None,414.40887240017764,None,416.2680332599906,None,416.2680332599906,None,416.2680332599906,None,,,,,,,,,,,,,205,2023-03-29_10h26.30.965,Main,2022.1.1,60.0080170762405,
neutral,positive,1,k,k,,,,,,,,,7,8,134,4,,,,,,,,,main,1,1,1,positive,neutral,k,k,1,0.7484659000765532,416.2733087001834,417.2846768000163,417.26803719997406,None,416.2733087001834,None,416.2733087001834,None,416.2733087001834,None,418.0180252601625,None,418.0180252601625,None,418.0180252601625,None,,,,,,,,,,,,,205,2023-03-29_10h26.30.965,Main,2022.1.1,60.0080170762405,
positive,positive,2,l,j,,,,,,,,,7,9,135,11,,,,,,,,,main,2,2,2,positive,positive,j,j,1,0.8651298000477254,418.0212944999803,419.0208267001435,419.0208267001435,None,418.0212944999803,None,418.0212944999803,None,418.0212944999803,None,419.8847183601232,None,419.8847183601232,None,419.8847183601232,None,,,,,,,,,,,,,205,2023-03-29_10h26.30.965,Main,2022.1.1,60.0080170762405,
positive,neutral,2,l,j,,,,,,,,,7,10,136,17,,,,,,,,,main,1,1,2,neutral,positive,j,j,1,0.8985164000187069,419.8878505001776,420.9039468001574,420.8679702000227,None,419.8878505001776,None,419.8878505001776,None,419.8878505001776,None,421.78456936005966,None,421.78456936005966,None,421.78456936005966,None,,,,,,,,,,,,,205,2023-03-29_10h26.30.965,Main,2022.1.1,60.0080170762405,
positive,negative,2,l,j,,,,,,,,,7,11,137,14,,,,,,,,,main,2,2,2,negative,positive,j,j,1,1.2315867999568582,421.7918746001087,422.8012734001968,422.7873776999768,None,421.7918746001087,None,421.7918746001087,None,421.7918746001087,None,424.0178902600659,None,424.0178902600659,None,424.0178902600659,None,,,,,,,,,,,,,205,2023-03-29_10h26.30.965,Main,2022.1.1,60.0080170762405,
positive,positive,1,l,j,,,,,,,,,7,12,138,2,,,,,,,,,main,1,1,1,positive,positive,j,j,1,0.8317429001908749,424.0346070001833,425.0345371000003,425.0179970001336,None,424.0346070001833,None,424.0346070001833,None,424.0346070001833,None,425.85114305999593,None,425.85114305999593,None,425.85114305999593,None,,,,,,,,,,,,,205,2023-03-29_10h26.30.965,Main,2022.1.1,60.0080170762405,
negative,negative,2,j,l,,,,,,,,,7,13,139,9,,,,,,,,,main,2,2,2,negative,negative,l,l,1,0.8645357000641525,425.8544748001732,426.85398950008675,426.85398950008675,None,425.8544748001732,None,425.8544748001732,None,425.8544748001732,None,427.71759366008916,None,427.71759366008916,None,427.71759366008916,None,,,,,,,,,,,,,205,2023-03-29_10h26.30.965,Main,2022.1.1,60.0080170762405,
negative,negative,1,j,l,,,,,,,,,7,14,140,0,,,,,,,,,main,2,2,1,negative,negative,l,l,1,1.4681810999754816,427.7242128001526,428.7371776001528,428.72054290003143,None,427.7242128001526,None,427.7242128001526,None,427.7242128001526,None,430.1870866601588,None,430.1870866601588,None,430.1870866601588,None,,,,,,,,,,,,,205,2023-03-29_10h26.30.965,Main,2022.1.1,60.0080170762405,
neutral,neutral,2,k,k,,,,,,,,,7,15,141,10,,,,,,,,,main,1,1,2,neutral,neutral,k,k,1,0.8956188000738621,430.1897988000419,431.2010839001741,431.184431000147,None,430.1897988000419,None,430.1897988000419,None,430.1897988000419,None,432.08435556010807,None,432.08435556010807,None,432.08435556010807,None,,,,,,,,,,,,,205,2023-03-29_10h26.30.965,Main,2022.1.1,60.0080170762405,
negative,neutral,1,j,l,,,,,,,,,7,16,142,3,,,,,,,,,main,2,2,1,neutral,negative,l,l,1,0.7652298999018967,432.08938310015947,433.1037532000337,433.0703971001785,None,432.08938310015947,None,432.08938310015947,None,432.08938310015947,None,433.85101465994956,None,433.85101465994956,None,433.85101465994956,None,,,,,,,,,,,,,205,2023-03-29_10h26.30.965,Main,2022.1.1,60.0080170762405,
neutral,neutral,1,k,k,,,,,,,,,7,17,143,1,,,,,,,,,main,2,2,1,neutral,neutral,k,k,1,0.7146095000207424,433.856537300162,434.8676720999647,434.85103980009444,None,433.856537300162,None,433.856537300162,None,433.856537300162,None,435.5676264599664,None,435.5676264599664,None,435.5676264599664,None,,,,,,,,,,,,,205,2023-03-29_10h26.30.965,Main,2022.1.1,60.0080170762405,
negative,negative,1,j,l,,,,,,,,,8,0,144,0,,,,,,,,,main,1,1,1,negative,negative,l,l,1,0.7653579998295754,435.5727115999907,436.5843267000746,436.55096999998204,None,435.5727115999907,None,435.5727115999907,None,435.5727115999907,None,437.3343047599541,None,437.3343047599541,None,437.3343047599541,None,,,,,,,,,,,,,205,2023-03-29_10h26.30.965,Main,2022.1.1,60.0080170762405,
negative,negative,2,j,l,,,,,,,,,8,1,145,9,,,,,,,,,main,1,1,2,negative,negative,l,l,1,0.7650307998992503,437.33745770016685,438.33702640002593,438.33702640002593,None,437.33745770016685,None,437.33745770016685,None,437.33745770016685,None,439.10090706006156,None,439.10090706006156,None,439.10090706006156,None,,,,,,,,,,,,,205,2023-03-29_10h26.30.965,Main,2022.1.1,60.0080170762405,
positive,positive,1,l,j,,,,,,,,,8,2,146,2,,,,,,,,,main,2,2,1,positive,positive,j,j,1,0.7987047000788152,439.10419700015336,440.10092490003444,440.08708219998516,None,439.10419700015336,None,439.10419700015336,None,439.10419700015336,None,440.9008793600136,None,440.9008793600136,None,440.9008793600136,None,,,,,,,,,,,,,205,2023-03-29_10h26.30.965,Main,2022.1.1,60.0080170762405,
negative,positive,2,j,l,,,,,,,,,8,3,147,15,,,,,,,,,main,2,2,2,positive,negative,l,l,1,0.7317527001723647,440.9064017999917,441.9201595999766,441.9008607000578,None,440.9064017999917,None,440.9064017999917,None,440.9064017999917,None,442.6341587600531,None,442.6341587600531,None,442.6341587600531,None,,,,,,,,,,,,,205,2023-03-29_10h26.30.965,Main,2022.1.1,60.0080170762405,
neutral,negative,2,k,k,,,,,,,,,8,4,148,16,,,,,,,,,main,2,2,2,negative,neutral,k,k,1,0.7482461999170482,442.6394615001045,443.65080630010925,443.6341548000928,None,442.6394615001045,None,442.6394615001045,None,442.6394615001045,None,444.3841025600908,None,444.3841025600908,None,444.3841025600908,None,,,,,,,,,,,,,205,2023-03-29_10h26.30.965,Main,2022.1.1,60.0080170762405,
negative,neutral,1,j,l,,,,,,,,,8,5,149,3,,,,,,,,,main,2,2,1,neutral,negative,l,l,1,0.7486026000697166,444.3873134001624,445.4034641000908,445.3674326001201,None,444.3873134001624,None,444.3873134001624,None,444.3873134001624,None,446.13408875998573,None,446.13408875998573,None,446.13408875998573,None,,,,,,,,,,,,,205,2023-03-29_10h26.30.965,Main,2022.1.1,60.0080170762405,
neutral,neutral,2,k,k,,,,,,,,,8,6,150,10,,,,,,,,,main,1,1,2,neutral,neutral,k,k,1,0.7317145999986678,446.13899680017494,447.15075789997354,447.13417039997876,None,446.13899680017494,None,446.13899680017494,None,446.13899680017494,None,447.867404360068,None,447.867404360068,None,447.867404360068,None,,,,,,,,,,,,,205,2023-03-29_10h26.30.965,Main,2022.1.1,60.0080170762405,
positive,positive,2,l,j,,,,,,,,,8,7,151,11,,,,,,,,,main,1,1,2,positive,positive,j,j,1,0.7318945999722928,447.8724021001253,448.8840425000526,448.85075670015067,None,447.8724021001253,None,447.8724021001253,None,447.8724021001253,None,449.6006785600679,None,449.6006785600679,None,449.6006785600679,None,,,,,,,,,,,,,205,2023-03-29_10h26.30.965,Main,2022.1.1,60.0080170762405,
neutral,neutral,1,k,k,,,,,,,,,8,8,152,1,,,,,,,,,main,2,2,1,neutral,neutral,k,k,1,0.7656336999498308,449.6056918001268,450.6200622001197,450.5840209000744,None,449.6056918001268,None,449.6056918001268,None,449.6056918001268,None,451.367331460095,None,451.367331460095,None,451.367331460095,None,,,,,,,,,,,,,205,2023-03-29_10h26.30.965,Main,2022.1.1,60.0080170762405,
positive,negative,2,l,j,,,,,,,,,8,9,153,14,,,,,,,,,main,2,2,2,negative,positive,j,l,0,1.0813709001522511,451.3728418999817,452.3839600000065,452.3673769000452,None,451.3728418999817,None,451.3728418999817,None,451.3728418999817,None,453.4506453999784,None,453.4506453999784,None,453.4506453999784,None,,,,,,,,,,,,,205,2023-03-29_10h26.30.965,Main,2022.1.1,60.0080170762405,
positive,negative,1,l,j,,,,,,,,,8,10,154,5,,,,,,,,,main,2,2,1,negative,positive,j,l,0,0.7675000999588519,454.4525620001368,455.4532642001286,455.4366048001684,None,454.4525620001368,None,454.4525620001368,None,454.4525620001368,None,456.22000620001927,None,456.22000620001927,None,456.22000620001927,None,,,,,,,,,,,,,205,2023-03-29_10h26.30.965,Main,2022.1.1,60.0080170762405,
neutral,positive,1,k,k,,,,,,,,,8,11,155,4,,,,,,,,,main,1,1,1,positive,neutral,k,k,1,0.7508730001281947,457.2182428999804,458.21721330005676,458.2006145999767,None,457.2182428999804,None,457.2182428999804,None,457.2182428999804,None,458.9671752601629,None,458.9671752601629,None,458.9671752601629,None,,,,,,,,,,,,,205,2023-03-29_10h26.30.965,Main,2022.1.1,60.0080170762405,
neutral,negative,1,k,k,,,,,,,,,8,12,156,7,,,,,,,,,main,1,1,1,negative,neutral,k,k,1,0.7491752000059932,458.97271950007416,459.98656550003216,459.96718410006724,None,458.97271950007416,None,458.97271950007416,None,458.97271950007416,None,460.7181878599571,None,460.7181878599571,None,460.7181878599571,None,,,,,,,,,,,,,205,2023-03-29_10h26.30.965,Main,2022.1.1,60.0080170762405,
neutral,positive,2,k,k,,,,,,,,,8,13,157,13,,,,,,,,,main,2,2,2,positive,neutral,k,k,1,0.7307144000660628,460.72419039998204,461.736511999974,461.7199244000949,None,460.72419039998204,None,460.72419039998204,None,460.72419039998204,None,462.4504307601368,None,462.4504307601368,None,462.4504307601368,None,,,,,,,,,,,,,205,2023-03-29_10h26.30.965,Main,2022.1.1,60.0080170762405,
positive,neutral,2,l,j,,,,,,,,,8,14,158,17,,,,,,,,,main,2,2,2,neutral,positive,j,j,1,0.7650909998919815,462.4538738001138,463.46987200016156,463.4531726001296,None,462.4538738001138,None,462.4538738001138,None,462.4538738001138,None,464.2170667601516,None,464.2170667601516,None,464.2170667601516,None,,,,,,,,,,,,,205,2023-03-29_10h26.30.965,Main,2022.1.1,60.0080170762405,
positive,neutral,1,l,j,,,,,,,,,8,15,159,8,,,,,,,,,main,2,2,1,neutral,positive,j,j,1,1.2149624000303447,464.2226482999977,465.23376059997827,465.2172269001603,None,464.2226482999977,None,464.2226482999977,None,464.2226482999977,None,466.4336743601365,None,466.4336743601365,None,466.4336743601365,None,,,,,,,,,,,,,205,2023-03-29_10h26.30.965,Main,2022.1.1,60.0080170762405,
negative,neutral,2,j,l,,,,,,,,,8,16,160,12,,,,,,,,,main,1,1,2,neutral,negative,l,l,1,0.7817644001916051,466.43695250013843,467.45035270019434,467.4337343000807,None,466.43695250013843,None,466.43695250013843,None,466.43695250013843,None,468.2169968599686,None,468.2169968599686,None,468.2169968599686,None,,,,,,,,,,,,,205,2023-03-29_10h26.30.965,Main,2022.1.1,60.0080170762405,
negative,positive,1,j,l,,,,,,,,,8,17,161,6,,,,,,,,,main,2,2,1,positive,negative,l,l,1,0.7678685998544097,468.2206951000262,469.23365950002335,469.21700870012864,None,468.2206951000262,None,468.2206951000262,None,468.2206951000262,None,469.9862900599604,None,469.9862900599604,None,469.9862900599604,None,,,,,,,,,,,,,205,2023-03-29_10h26.30.965,Main,2022.1.1,60.0080170762405,
positive,positive,1,l,j,,,,,,,,,9,0,162,2,,,,,,,,,main,2,2,1,positive,positive,j,j,1,0.9817125999834388,469.98923479998484,471.0003049999941,470.98362560011446,None,469.98923479998484,None,469.98923479998484,None,469.98923479998484,None,471.9695609600516,None,471.9695609600516,None,471.9695609600516,None,,,,,,,,,,,,,205,2023-03-29_10h26.30.965,Main,2022.1.1,60.0080170762405,
negative,positive,1,j,l,,,,,,,,,9,1,163,6,,,,,,,,,main,2,2,1,positive,negative,l,l,1,0.7625011000782251,471.9760373001918,472.98637050017715,472.96693440014496,None,471.9760373001918,None,471.9760373001918,None,471.9760373001918,None,473.73354386000426,None,473.73354386000426,None,473.73354386000426,None,,,,,,,,,,,,,205,2023-03-29_10h26.30.965,Main,2022.1.1,60.0080170762405,
neutral,neutral,2,k,k,,,,,,,,,9,2,164,10,,,,,,,,,main,2,2,2,neutral,neutral,k,k,1,0.7815651001874357,473.73693500016816,474.75021620001644,474.7335873001721,None,473.73693500016816,None,473.73693500016816,None,473.73693500016816,None,475.51685106006914,None,475.51685106006914,None,475.51685106006914,None,,,,,,,,,,,,,205,2023-03-29_10h26.30.965,Main,2022.1.1,60.0080170762405,
negative,neutral,2,j,l,,,,,,,,,9,3,165,12,,,,,,,,,main,2,2,2,neutral,negative,l,l,1,1.4318909998983145,475.5214844001457,476.5335123001132,476.5168504000176,None,475.5214844001457,None,475.5214844001457,None,475.5214844001457,None,477.95012296012135,None,477.95012296012135,None,477.95012296012135,None,,,,,,,,,,,,,205,2023-03-29_10h26.30.965,Main,2022.1.1,60.0080170762405,
positive,positive,2,l,j,,,,,,,,,9,4,166,11,,,,,,,,,main,1,1,2,positive,positive,j,j,1,0.8315971000120044,477.9551796000451,478.96680170018226,478.9529095001053,None,477.9551796000451,None,477.9551796000451,None,477.9551796000451,None,479.7834293599939,None,479.7834293599939,None,479.7834293599939,None,,,,,,,,,,,,,205,2023-03-29_10h26.30.965,Main,2022.1.1,60.0080170762405,
positive,neutral,1,l,j,,,,,,,,,9,5,167,8,,,,,,,,,main,2,2,1,neutral,positive,j,j,1,0.9172798998188227,479.7892450001091,480.8029047001619,480.78627789998427,None,479.7892450001091,None,479.7892450001091,None,479.7892450001091,None,481.70275656015144,None,481.70275656015144,None,481.70275656015144,None,,,,,,,,,,,,,205,2023-03-29_10h26.30.965,Main,2022.1.1,60.0080170762405,
positive,negative,2,l,j,,,,,,,,,9,6,168,14,,,,,,,,,main,1,1,2,negative,positive,j,j,1,0.9793136001098901,481.706061600009,482.7168120001443,482.7000627000816,None,481.706061600009,None,481.706061600009,None,481.706061600009,None,483.6834916600259,None,483.6834916600259,None,483.6834916600259,None,,,,,,,,,,,,,205,2023-03-29_10h26.30.965,Main,2022.1.1,60.0080170762405,
negative,negative,2,j,l,,,,,,,,,9,7,169,9,,,,,,,,,main,2,2,2,negative,negative,l,l,1,0.7149643001612276,483.6863234001212,484.702690300066,484.6665421000216,None,483.6863234001212,None,483.6863234001212,None,483.6863234001212,None,485.40003846001343,None,485.40003846001343,None,485.40003846001343,None,,,,,,,,,,,,,205,2023-03-29_10h26.30.965,Main,2022.1.1,60.0080170762405,
negative,neutral,1,j,l,,,,,,,,,9,8,170,3,,,,,,,,,main,2,2,1,neutral,negative,l,l,1,0.8323208999354392,485.40563699998893,486.4166610001121,486.4027696000412,None,485.40563699998893,None,485.40563699998893,None,485.40563699998893,None,487.2332915600622,None,487.2332915600622,None,487.2332915600622,None,,,,,,,,,,,,,205,2023-03-29_10h26.30.965,Main,2022.1.1,60.0080170762405,
neutral,neutral,1,k,k,,,,,,,,,9,9,171,1,,,,,,,,,main,1,1,1,neutral,neutral,k,k,1,0.7473714000079781,487.23936180002056,488.24997870018706,488.23610240011476,None,487.23936180002056,None,487.23936180002056,None,487.23936180002056,None,488.9833013601368,None,488.9833013601368,None,488.9833013601368,None,,,,,,,,,,,,,205,2023-03-29_10h26.30.965,Main,2022.1.1,60.0080170762405,
neutral,negative,1,k,k,,,,,,,,,9,10,172,7,,,,,,,,,main,1,1,1,negative,neutral,k,k,1,1.0818002000451088,488.98932330007665,489.9999173001852,489.98598960018717,None,488.98932330007665,None,488.98932330007665,None,488.98932330007665,None,491.0666570600355,None,491.0666570600355,None,491.0666570600355,None,,,,,,,,,,,,,205,2023-03-29_10h26.30.965,Main,2022.1.1,60.0080170762405,
neutral,negative,2,k,k,,,,,,,,,9,11,173,16,,,,,,,,,main,2,2,2,negative,neutral,k,k,1,0.7343175001442432,491.0720071999822,492.0832206001505,492.0665566001553,None,491.0720071999822,None,491.0720071999822,None,491.0720071999822,None,492.8025003601564,None,492.8025003601564,None,492.8025003601564,None,,,,,,,,,,,,,205,2023-03-29_10h26.30.965,Main,2022.1.1,60.0080170762405,
positive,neutral,2,l,j,,,,,,,,,9,12,174,17,,,,,,,,,main,2,2,2,neutral,positive,j,j,1,0.9955943000968546,492.80586740002036,493.81651689996943,493.79990590014495,None,492.80586740002036,None,492.80586740002036,None,492.80586740002036,None,494.79981326006816,None,494.79981326006816,None,494.79981326006816,None,,,,,,,,,,,,,205,2023-03-29_10h26.30.965,Main,2022.1.1,60.0080170762405,
neutral,positive,2,k,k,,,,,,,,,9,13,175,13,,,,,,,,,main,2,2,2,positive,neutral,k,k,1,0.8494619999546558,494.8030026999768,495.8024730000179,495.785893100081,None,494.8030026999768,None,494.8030026999768,None,494.8030026999768,None,496.6497637601336,None,496.6497637601336,None,496.6497637601336,None,,,,,,,,,,,,,205,2023-03-29_10h26.30.965,Main,2022.1.1,60.0080170762405,
neutral,positive,1,k,k,,,,,,,,,9,14,176,4,,,,,,,,,main,2,2,1,positive,neutral,k,k,1,0.7476090001873672,496.6558229001239,497.66641810000874,497.6497604001779,None,496.6558229001239,None,496.6558229001239,None,496.6558229001239,None,498.3997580599738,None,498.3997580599738,None,498.3997580599738,None,,,,,,,,,,,,,205,2023-03-29_10h26.30.965,Main,2022.1.1,60.0080170762405,
negative,negative,1,j,l,,,,,,,,,9,15,177,0,,,,,,,,,main,2,2,1,negative,negative,l,l,1,0.8315499001182616,498.4051960001234,499.41640180000104,499.3997488000896,None,498.4051960001234,None,498.4051960001234,None,498.4051960001234,None,500.2330366601003,None,500.2330366601003,None,500.2330366601003,None,,,,,,,,,,,,,205,2023-03-29_10h26.30.965,Main,2022.1.1,60.0080170762405,
positive,negative,1,l,j,,,,,,,,,9,16,178,5,,,,,,,,,main,1,1,1,negative,positive,j,j,1,1.0150184000376612,500.2361296999734,501.2524412001949,501.2163874001708,None,500.2361296999734,None,500.2361296999734,None,500.2361296999734,None,502.24945606009567,None,502.24945606009567,None,502.24945606009567,None,,,,,,,,,,,,,205,2023-03-29_10h26.30.965,Main,2022.1.1,60.0080170762405,
negative,positive,2,j,l,,,,,,,,,9,17,179,15,,,,,,,,,main,1,1,2,positive,negative,l,l,1,0.7150691000279039,502.25603180006146,503.2663406000938,503.2525694000069,None,502.25603180006146,None,502.25603180006146,None,502.25603180006146,None,503.96629956013055,None,503.96629956013055,None,503.96629956013055,None,,,,,,,,,,,,,205,2023-03-29_10h26.30.965,Main,2022.1.1,60.0080170762405,
positive,neutral,2,l,j,,,,,,,,,10,0,180,17,,,,,,,,,main,2,2,2,neutral,positive,j,j,1,0.7652356000617146,503.9714449001476,504.98302170005627,504.9691066001542,None,503.9714449001476,None,503.9714449001476,None,503.9714449001476,None,505.732889960031,None,505.732889960031,None,505.732889960031,None,,,,,,,,,,,,,205,2023-03-29_10h26.30.965,Main,2022.1.1,60.0080170762405,
neutral,neutral,1,k,k,,,,,,,,,10,1,181,1,,,,,,,,,main,1,1,1,neutral,neutral,k,k,1,0.816031499998644,505.73766770004295,506.75221540010534,506.7356316000223,None,505.73766770004295,None,505.73766770004295,None,505.73766770004295,None,507.5495492601534,None,507.5495492601534,None,507.5495492601534,None,,,,,,,,,,,,,205,2023-03-29_10h26.30.965,Main,2022.1.1,60.0080170762405,
positive,neutral,1,l,j,,,,,,,,,10,2,182,8,,,,,,,,,main,1,1,1,neutral,positive,j,j,1,0.9140983000397682,507.56902910000645,508.56621930003166,508.55234980001114,None,507.56902910000645,None,507.56902910000645,None,507.56902910000645,None,509.466178360139,None,509.466178360139,None,509.466178360139,None,,,,,,,,,,,,,205,2023-03-29_10h26.30.965,Main,2022.1.1,60.0080170762405,
positive,positive,2,l,j,,,,,,,,,10,3,183,11,,,,,,,,,main,1,1,2,positive,positive,j,j,1,0.7344510001130402,509.4691716001835,510.48553319997154,510.4495286999736,None,509.4691716001835,None,509.4691716001835,None,509.4691716001835,None,511.20219525995196,None,511.20219525995196,None,511.20219525995196,None,,,,,,,,,,,,,205,2023-03-29_10h26.30.965,Main,2022.1.1,60.0080170762405,
negative,neutral,2,j,l,,,,,,,,,10,4,184,12,,,,,,,,,main,2,2,2,neutral,negative,l,l,1,0.7958130000624806,511.2056360000279,512.2162075000815,512.2022582001518,None,511.2056360000279,None,511.2056360000279,None,511.2056360000279,None,512.99945006005,None,512.99945006005,None,512.99945006005,None,,,,,,,,,,,,,205,2023-03-29_10h26.30.965,Main,2022.1.1,60.0080170762405,
neutral,positive,2,k,k,,,,,,,,,10,5,185,13,,,,,,,,,main,1,1,2,positive,neutral,k,k,1,0.8817350999452174,513.0047204000875,514.016109400196,514.002255000174,None,513.0047204000875,None,513.0047204000875,None,513.0047204000875,None,514.8827576599782,None,514.8827576599782,None,514.8827576599782,None,,,,,,,,,,,,,205,2023-03-29_10h26.30.965,Main,2022.1.1,60.0080170762405,
negative,positive,2,j,l,,,,,,,,,10,6,186,15,,,,,,,,,main,2,2,2,positive,negative,l,l,1,0.7675693000201136,514.8857269000728,515.9020744999871,515.8854979001917,None,514.8857269000728,None,514.8857269000728,None,514.8857269000728,None,516.6519743599696,None,516.6519743599696,None,516.6519743599696,None,,,,,,,,,,,,,205,2023-03-29_10h26.30.965,Main,2022.1.1,60.0080170762405,
neutral,negative,2,k,k,,,,,,,,,10,7,187,16,,,,,,,,,main,1,1,2,negative,neutral,k,k,1,0.7292535998858511,516.6554493000731,517.6661808001809,517.6521318000741,None,516.6554493000731,None,516.6554493000731,None,516.6554493000731,None,518.3826988599961,None,518.3826988599961,None,518.3826988599961,None,,,,,,,,,,,,,205,2023-03-29_10h26.30.965,Main,2022.1.1,60.0080170762405,
negative,negative,1,j,l,,,,,,,,,10,8,188,0,,,,,,,,,main,1,1,1,negative,negative,l,l,1,0.7150156998541206,518.388492200058,519.3993577000219,519.3827395001426,None,518.388492200058,None,518.388492200058,None,518.388492200058,None,520.0993042599642,None,520.0993042599642,None,520.0993042599642,None,,,,,,,,,,,,,205,2023-03-29_10h26.30.965,Main,2022.1.1,60.0080170762405,
neutral,neutral,2,k,k,,,,,,,,,10,9,189,10,,,,,,,,,main,2,2,2,neutral,neutral,k,k,1,0.6651058001443744,520.1037210000213,521.1159958001226,521.0993227001745,None,520.1037210000213,None,520.1037210000213,None,520.1037210000213,None,521.7659385599894,None,521.7659385599894,None,521.7659385599894,None,,,,,,,,,,,,,205,2023-03-29_10h26.30.965,Main,2022.1.1,60.0080170762405,
neutral,negative,1,k,k,,,,,,,,,10,10,190,7,,,,,,,,,main,1,1,1,negative,neutral,k,k,1,0.8649001000449061,521.7710997001268,522.782685500104,522.765958199976,None,521.7710997001268,None,521.7710997001268,None,521.7710997001268,None,523.6325668601552,None,523.6325668601552,None,523.6325668601552,None,,,,,,,,,,,,,205,2023-03-29_10h26.30.965,Main,2022.1.1,60.0080170762405,
positive,negative,2,l,j,,,,,,,,,10,11,191,14,,,,,,,,,main,2,2,2,negative,positive,j,j,1,0.781954700127244,523.6373352000955,524.6520094000734,524.6159057000186,None,523.6373352000955,None,523.6373352000955,None,523.6373352000955,None,525.4158573599765,None,525.4158573599765,None,525.4158573599765,None,,,,,,,,,,,,,205,2023-03-29_10h26.30.965,Main,2022.1.1,60.0080170762405,
negative,positive,1,j,l,,,,,,,,,10,12,192,6,,,,,,,,,main,2,2,1,positive,negative,l,l,1,0.7652610000222921,525.4210539001506,526.4326017000712,526.4158685000148,None,525.4210539001506,None,525.4210539001506,None,525.4210539001506,None,527.1824919599807,None,527.1824919599807,None,527.1824919599807,None,,,,,,,,,,,,,205,2023-03-29_10h26.30.965,Main,2022.1.1,60.0080170762405,
positive,positive,1,l,j,,,,,,,,,10,13,193,2,,,,,,,,,main,2,2,1,positive,positive,j,j,1,1.3480561000760645,527.1882186001167,528.2018200000748,528.18519320013,None,527.1882186001167,None,527.1882186001167,None,527.1882186001167,None,529.5324387601344,None,529.5324387601344,None,529.5324387601344,None,,,,,,,,,,,,,205,2023-03-29_10h26.30.965,Main,2022.1.1,60.0080170762405,
negative,neutral,1,j,l,,,,,,,,,10,14,194,3,,,,,,,,,main,2,2,1,neutral,negative,l,l,1,0.7661709999665618,529.5381334000267,530.5491649000905,530.5325329999905,None,529.5381334000267,None,529.5381334000267,None,529.5381334000267,None,531.2988722601207,None,531.2988722601207,None,531.2988722601207,None,,,,,,,,,,,,,205,2023-03-29_10h26.30.965,Main,2022.1.1,60.0080170762405,
positive,negative,1,l,j,,,,,,,,,10,15,195,5,,,,,,,,,main,1,1,1,negative,positive,j,j,1,0.8334995999466628,531.3058870001696,532.3184766999912,532.3018907001242,None,531.3058870001696,None,531.3058870001696,None,531.3058870001696,None,533.1351540600648,None,533.1351540600648,None,533.1351540600648,None,,,,,,,,,,,,,205,2023-03-29_10h26.30.965,Main,2022.1.1,60.0080170762405,
negative,negative,2,j,l,,,,,,,,,10,16,196,9,,,,,,,,,main,2,2,2,negative,negative,l,l,1,0.745855700224638,533.1383790001273,534.1490737001877,534.1323777001817,None,533.1383790001273,None,533.1383790001273,None,533.1383790001273,None,534.8823538601631,None,534.8823538601631,None,534.8823538601631,None,,,,,,,,,,,,,205,2023-03-29_10h26.30.965,Main,2022.1.1,60.0080170762405,
neutral,positive,1,k,k,,,,,,,,,10,17,197,4,,,,,,,,,main,1,1,1,positive,neutral,k,k,1,0.6985321999527514,534.887416700134,535.8990474999882,535.8823367001023,None,534.887416700134,None,534.887416700134,None,534.887416700134,None,536.5823172600707,None,536.5823172600707,None,536.5823172600707,None,,,,,,,,,,,,,205,2023-03-29_10h26.30.965,Main,2022.1.1,60.0080170762405,
negative,negative,1,j,l,,,,,,,,,11,0,198,0,,,,,,,,,main,2,2,1,negative,negative,l,l,1,0.6817201999947429,536.5879168000538,537.5989798000082,537.5851249000989,None,536.5879168000538,None,536.5879168000538,None,536.5879168000538,None,538.2656139600789,None,538.2656139600789,None,538.2656139600789,None,,,,,,,,,,,,,205,2023-03-29_10h26.30.965,Main,2022.1.1,60.0080170762405,
neutral,negative,1,k,k,,,,,,,,,11,1,199,7,,,,,,,,,main,1,1,1,negative,neutral,k,k,1,0.7484985000919551,538.2690091000404,539.2849123000633,539.2656190001871,None,538.2690091000404,None,538.2690091000404,None,538.2690091000404,None,540.0157707601087,None,540.0157707601087,None,540.0157707601087,None,,,,,,,,,,,,,205,2023-03-29_10h26.30.965,Main,2022.1.1,60.0080170762405,
positive,negative,1,l,j,,,,,,,,,11,2,200,5,,,,,,,,,main,2,2,1,negative,positive,j,j,1,0.7148637000937015,540.0208935001865,541.0322355001699,541.0183197001461,None,540.0208935001865,None,540.0208935001865,None,540.0208935001865,None,541.7322021601489,None,541.7322021601489,None,541.7322021601489,None,,,,,,,,,,,,,205,2023-03-29_10h26.30.965,Main,2022.1.1,60.0080170762405,
neutral,neutral,2,k,k,,,,,,,,,11,3,201,10,,,,,,,,,main,2,2,2,neutral,neutral,k,k,1,0.8652947000227869,541.7372969000135,542.751565300161,542.7183209001087,None,541.7372969000135,None,541.7372969000135,None,541.7372969000135,None,543.5988883601734,None,543.5988883601734,None,543.5988883601734,None,,,,,,,,,,,,,205,2023-03-29_10h26.30.965,Main,2022.1.1,60.0080170762405,
neutral,positive,1,k,k,,,,,,,,,11,4,202,4,,,,,,,,,main,1,1,1,positive,neutral,k,k,1,0.7816962001379579,543.6037175999954,544.6181151000783,544.5848934000824,None,543.6037175999954,None,543.6037175999954,None,543.6037175999954,None,545.3821673600236,None,545.3821673600236,None,545.3821673600236,None,,,,,,,,,,,,,205,2023-03-29_10h26.30.965,Main,2022.1.1,60.0080170762405,
positive,positive,2,l,j,,,,,,,,,11,5,203,11,,,,,,,,,main,1,1,2,positive,positive,j,j,1,0.8484098999761045,545.3880573001225,546.3987989001907,546.3821660999674,None,545.3880573001225,None,545.3880573001225,None,545.3880573001225,None,547.2320837601786,None,547.2320837601786,None,547.2320837601786,None,,,,,,,,,,,,,205,2023-03-29_10h26.30.965,Main,2022.1.1,60.0080170762405,
negative,positive,2,j,l,,,,,,,,,11,6,204,15,,,,,,,,,main,2,2,2,positive,negative,l,l,1,0.8817011001519859,547.2374572001863,548.248833599966,548.2321099000983,None,547.2374572001863,None,547.2374572001863,None,547.2374572001863,None,549.1154038600856,None,549.1154038600856,None,549.1154038600856,None,,,,,,,,,,,,,205,2023-03-29_10h26.30.965,Main,2022.1.1,60.0080170762405,
negative,neutral,1,j,l,,,,,,,,,11,7,205,3,,,,,,,,,main,2,2,1,neutral,negative,l,l,1,0.9145392999053001,549.1213324000128,550.132059100084,550.1154048000462,None,549.1213324000128,None,549.1213324000128,None,549.1213324000128,None,551.0320732600288,None,551.0320732600288,None,551.0320732600288,None,,,,,,,,,,,,,205,2023-03-29_10h26.30.965,Main,2022.1.1,60.0080170762405,
neutral,neutral,1,k,k,,,,,,,,,11,8,206,1,,,,,,,,,main,2,2,1,neutral,neutral,k,k,1,0.7649782998487353,551.0347027999815,552.0513371000998,552.0320158000104,None,551.0347027999815,None,551.0347027999815,None,551.0347027999815,None,552.7986477601575,None,552.7986477601575,None,552.7986477601575,None,,,,,,,,,,,,,205,2023-03-29_10h26.30.965,Main,2022.1.1,60.0080170762405,
negative,negative,2,j,l,,,,,,,,,11,9,207,9,,,,,,,,,main,2,2,2,negative,negative,l,l,1,1.2676943000406027,552.8154209000058,553.8181374999695,553.79865290015,None,552.8154209000058,None,552.8154209000058,None,552.8154209000058,None,555.0679277600487,None,555.0679277600487,None,555.0679277600487,None,,,,,,,,,,,,,205,2023-03-29_10h26.30.965,Main,2022.1.1,60.0080170762405,
neutral,positive,2,k,k,,,,,,,,,11,10,208,13,,,,,,,,,main,1,1,2,positive,neutral,k,k,1,0.7780573999043554,555.0723071000539,556.0819385000505,556.0652719000354,None,555.0723071000539,None,555.0723071000539,None,555.0723071000539,None,556.8486961601069,None,556.8486961601069,None,556.8486961601069,None,,,,,,,,,,,,,205,2023-03-29_10h26.30.965,Main,2022.1.1,60.0080170762405,
neutral,negative,2,k,k,,,,,,,,,11,11,209,16,,,,,,,,,main,1,1,2,negative,neutral,k,k,1,0.7315235999412835,556.8536199000664,557.8652298001107,557.8485525001306,None,556.8536199000664,None,556.8536199000664,None,556.8536199000664,None,558.5818479601061,None,558.5818479601061,None,558.5818479601061,None,,,,,,,,,,,,,205,2023-03-29_10h26.30.965,Main,2022.1.1,60.0080170762405,
negative,positive,1,j,l,,,,,,,,,11,12,210,6,,,,,,,,,main,1,1,1,positive,negative,l,l,1,0.8324800999835134,558.5846452000551,559.5818770001642,559.5818770001642,None,558.5846452000551,None,558.5846452000551,None,558.5846452000551,None,560.4151924601523,None,560.4151924601523,None,560.4151924601523,None,,,,,,,,,,,,,205,2023-03-29_10h26.30.965,Main,2022.1.1,60.0080170762405,
positive,negative,2,l,j,,,,,,,,,11,13,211,14,,,,,,,,,main,1,1,2,negative,positive,j,j,1,0.6811355000827461,560.4206244000234,561.4318586001173,561.4152494000737,None,560.4206244000234,None,560.4206244000234,None,560.4206244000234,None,562.0984631599625,None,562.0984631599625,None,562.0984631599625,None,,,,,,,,,,,,,205,2023-03-29_10h26.30.965,Main,2022.1.1,60.0080170762405,
negative,neutral,2,j,l,,,,,,,,,11,14,212,12,,,,,,,,,main,2,2,2,neutral,negative,l,l,1,0.6814334997907281,562.1039613999892,563.1151286000386,563.0984720999841,None,562.1039613999892,None,562.1039613999892,None,562.1039613999892,None,563.7817730600713,None,563.7817730600713,None,563.7817730600713,None,,,,,,,,,,,,,205,2023-03-29_10h26.30.965,Main,2022.1.1,60.0080170762405,
positive,neutral,2,l,j,,,,,,,,,11,15,213,17,,,,,,,,,main,1,1,2,neutral,positive,j,j,1,0.8151058000512421,563.7850373000838,564.7817820000928,564.7817820000928,None,563.7850373000838,None,563.7850373000838,None,563.7850373000838,None,565.5985460600117,None,565.5985460600117,None,565.5985460600117,None,,,,,,,,,,,,,205,2023-03-29_10h26.30.965,Main,2022.1.1,60.0080170762405,
positive,positive,1,l,j,,,,,,,,,11,16,214,2,,,,,,,,,main,1,1,1,positive,positive,j,j,1,0.8147083001676947,565.6036977001932,566.6150652000215,566.5984178001527,None,565.6036977001932,None,565.6036977001932,None,565.6036977001932,None,567.4150290600722,None,567.4150290600722,None,567.4150290600722,None,,,,,,,,,,,,,205,2023-03-29_10h26.30.965,Main,2022.1.1,60.0080170762405,
positive,neutral,1,l,j,,,,,,,,,11,17,215,8,,,,,,,,,main,1,1,1,neutral,positive,j,j,1,0.6317890998907387,567.4211683000904,568.4317280000541,568.4178113001399,None,567.4211683000904,None,567.4211683000904,None,567.4211683000904,None,569.048346759961,None,569.048346759961,None,569.048346759961,None,,,,,,,,,,,,,205,2023-03-29_10h26.30.965,Main,2022.1.1,60.0080170762405,
positive,positive,1,l,j,,,,,,,,,12,0,216,2,,,,,,,,,main,2,2,1,positive,positive,j,j,1,0.9648073001299053,569.0540728000924,570.0676812999882,570.0483173001558,None,569.0540728000924,None,569.0540728000924,None,569.0540728000924,None,571.0150430600391,None,571.0150430600391,None,571.0150430600391,None,,,,,,,,,,,,,205,2023-03-29_10h26.30.965,Main,2022.1.1,60.0080170762405,
positive,neutral,2,l,j,,,,,,,,,12,1,217,17,,,,,,,,,main,1,1,2,neutral,positive,j,j,1,0.7147335999179631,571.0203019999899,572.0316415000707,572.0176585000008,None,571.0203019999899,None,571.0203019999899,None,571.0203019999899,None,572.7315850599902,None,572.7315850599902,None,572.7315850599902,None,,,,,,,,,,,,,205,2023-03-29_10h26.30.965,Main,2022.1.1,60.0080170762405,
neutral,negative,1,k,k,,,,,,,,,12,2,218,7,,,,,,,,,main,1,1,1,negative,neutral,k,k,1,0.6987594999372959,572.7344474000856,573.7482904000208,573.7344080000184,None,572.7344474000856,None,572.7344474000856,None,572.7344474000856,None,574.4315865600714,None,574.4315865600714,None,574.4315865600714,None,,,,,,,,,,,,,205,2023-03-29_10h26.30.965,Main,2022.1.1,60.0080170762405,
positive,neutral,1,l,j,,,,,,,,,12,3,219,8,,,,,,,,,main,2,2,1,neutral,positive,j,j,1,0.815037399996072,574.4347981000319,575.4509193000849,575.4343885001726,None,574.4347981000319,None,574.4347981000319,None,574.4347981000319,None,576.2482661599992,None,576.2482661599992,None,576.2482661599992,None,,,,,,,,,,,,,205,2023-03-29_10h26.30.965,Main,2022.1.1,60.0080170762405,
neutral,neutral,1,k,k,,,,,,,,,12,4,220,1,,,,,,,,,main,1,1,1,neutral,neutral,k,k,1,0.7684818000998348,576.2530488001648,577.2675867001526,577.2509320001118,None,576.2530488001648,None,576.2530488001648,None,576.2530488001648,None,578.017603659979,None,578.017603659979,None,578.017603659979,None,,,,,,,,,,,,,205,2023-03-29_10h26.30.965,Main,2022.1.1,60.0080170762405,
neutral,negative,2,k,k,,,,,,,,,12,5,221,16,,,,,,,,,main,1,1,2,negative,neutral,k,k,1,1.0117128998972476,578.0208711000159,579.0341495000757,579.014842600096,None,578.0208711000159,None,578.0208711000159,None,578.0208711000159,None,580.0314573601121,None,580.0314573601121,None,580.0314573601121,None,,,,,,,,,,,,,205,2023-03-29_10h26.30.965,Main,2022.1.1,60.0080170762405,
negative,neutral,2,j,l,,,,,,,,,12,6,222,12,,,,,,,,,main,2,2,2,neutral,negative,l,l,1,0.7661597998812795,580.035363700008,581.0481482001487,581.0314959001262,None,580.035363700008,None,580.035363700008,None,580.035363700008,None,581.7981058601057,None,581.7981058601057,None,581.7981058601057,None,,,,,,,,,,,,,205,2023-03-29_10h26.30.965,Main,2022.1.1,60.0080170762405,
neutral,positive,2,k,k,,,,,,,,,12,7,223,13,,,,,,,,,main,1,1,2,positive,neutral,k,k,1,0.7833574002142996,581.8022719,582.8147587000858,582.8008151999675,None,581.8022719,None,581.8022719,None,581.8022719,None,583.5841465601465,None,583.5841465601465,None,583.5841465601465,None,,,,,,,,,,,,,205,2023-03-29_10h26.30.965,Main,2022.1.1,60.0080170762405,
negative,negative,2,j,l,,,,,,,,,12,8,224,9,,,,,,,,,main,1,1,2,negative,negative,l,l,1,0.8458362000528723,583.5874548000284,584.598059900105,584.5813939999789,None,583.5874548000284,None,583.5874548000284,None,583.5874548000284,None,585.4314509599702,None,585.4314509599702,None,585.4314509599702,None,,,,,,,,,,,,,205,2023-03-29_10h26.30.965,Main,2022.1.1,60.0080170762405,
negative,negative,1,j,l,,,,,,,,,12,9,225,0,,,,,,,,,main,1,1,1,negative,negative,l,l,1,0.79846700001508,585.4480763000902,586.4480530000292,586.4174049000721,None,585.4480763000902,None,585.4480763000902,None,585.4480763000902,None,587.2313129601301,None,587.2313129601301,None,587.2313129601301,None,,,,,,,,,,,,,205,2023-03-29_10h26.30.965,Main,2022.1.1,60.0080170762405,
