target,distractor,set,ans1,ans2,rep_loop2.thisRepN,rep_loop2.thisTrialN,rep_loop2.thisN,rep_loop2.thisIndex,flanker_prac_loop.thisRepN,flanker_prac_loop.thisTrialN,flanker_prac_loop.thisN,flanker_prac_loop.thisIndex,flanker_main_loop.thisRepN,flanker_main_loop.thisTrialN,flanker_main_loop.thisN,flanker_main_loop.thisIndex,fl_inst_resp.keys,fl_inst_resp.rt,sound_1.started,sound_1.stopped,image_4.started,image_4.stopped,back_2.started,back_2.stopped,main_prac,fl_cold,fl_colt,fl_set,fl_dcond,fl_tcond,fl_ans,fl_res,fl_corr,fl_rt,fix_fl.started,fix_fl.stopped,targ.started,targ.stopped,j_button.started,j_button.stopped,k_button.started,k_button.stopped,l_button.started,l_button.stopped,j_button2.started,j_button2.stopped,k_button2.started,k_button2.stopped,l_button2.started,l_button2.stopped,mainback.started,mainback.stopped,key_resp.keys,key_resp.rt,mouse_6.x,mouse_6.y,mouse_6.leftButton,mouse_6.midButton,mouse_6.rightButton,mouse_6.started,mouse_6.stopped,text_2.started,text_2.stopped,id*,date,expName,psychopyVersion,frameRate,
,,,,,0,0,0,0,,,,,,,,,space,54.18240979989059,29.230763679998926,None,83.44342000014149,None,,,,,,,,,,,,,,,,,,,,,,,,,,,,,,,,,,,,,,,,,,206,2023-03-29_14h56.42.487,Main,2022.1.1,59.983900310294544,
negative,negative,1,j,l,,,,,0,0,0,0,,,,,,,,,,,87.51291869999841,None,prac,2,2,1,negative,negative,j,j,1,1.6703308001160622,89.5258500999771,90.52680590003729,90.51013620011508,None,89.5258500999771,None,89.5258500999771,None,89.5258500999771,None,92.19606340001337,None,92.19606340001337,None,92.19606340001337,None,,,,,,,,,,,,,,206,2023-03-29_14h56.42.487,Main,2022.1.1,59.983900310294544,
neutral,positive,1,k,k,,,,,0,1,1,4,,,,,,,,,,,,,prac,2,2,1,positive,neutral,k,k,1,1.2175330000463873,93.19497700012289,94.1933784999419,94.17950710002333,None,93.19497700012289,None,93.19497700012289,None,93.19497700012289,None,95.41003298007418,None,95.41003298007418,None,95.41003298007418,None,,,,,,,,,,,,,,206,2023-03-29_14h56.42.487,Main,2022.1.1,59.983900310294544,
neutral,negative,1,k,k,,,,,0,2,2,7,,,,,,,,,,,,,prac,1,1,1,negative,neutral,k,k,1,0.7315454001072794,95.41396110015921,96.42666410002857,96.41000439994968,None,95.41396110015921,None,95.41396110015921,None,95.41396110015921,None,97.14331658014562,None,97.14331658014562,None,97.14331658014562,None,,,,,,,,,,,,,,206,2023-03-29_14h56.42.487,Main,2022.1.1,59.983900310294544,
neutral,neutral,1,k,k,,,,,0,3,3,1,,,,,,,,,,,,,prac,1,1,1,neutral,neutral,k,k,1,0.6012444999068975,97.14849669998512,98.15993440011516,98.14325660001487,None,97.14849669998512,None,97.14849669998512,None,97.14849669998512,None,98.74592367995065,None,98.74592367995065,None,98.74592367995065,None,,,,,,,,,,,,,,206,2023-03-29_14h56.42.487,Main,2022.1.1,59.983900310294544,
neutral,negative,2,k,k,,,,,0,4,4,16,,,,,,,,,,,,,prac,1,1,2,negative,neutral,k,k,1,0.8961914998944849,98.74926620000042,99.75998520012945,99.74325480009429,None,98.74926620000042,None,98.74926620000042,None,98.74926620000042,None,100.64332257995848,None,100.64332257995848,None,100.64332257995848,None,,,,,,,,,,,,,,206,2023-03-29_14h56.42.487,Main,2022.1.1,59.983900310294544,
neutral,positive,2,k,k,,,,,0,5,5,13,,,,,,,,,,,,,prac,2,2,2,positive,neutral,k,k,1,0.6651804000139236,100.64881390007213,101.65987440012395,101.64594910014421,None,100.64881390007213,None,100.64881390007213,None,100.64881390007213,None,102.30984498017934,None,102.30984498017934,None,102.30984498017934,None,,,,,,,,,,,,,,206,2023-03-29_14h56.42.487,Main,2022.1.1,59.983900310294544,
positive,positive,1,l,j,,,,,0,6,6,2,,,,,,,,,,,,,prac,2,2,1,positive,positive,l,l,1,1.3148024999536574,102.31576950009912,103.32652810006402,103.3126242000144,None,102.31576950009912,None,102.31576950009912,None,102.31576950009912,None,104.62644437996205,None,104.62644437996205,None,104.62644437996205,None,,,,,,,,,,,,,,206,2023-03-29_14h56.42.487,Main,2022.1.1,59.983900310294544,
positive,positive,2,l,j,,,,,0,7,7,11,,,,,,,,,,,,,prac,1,1,2,positive,positive,l,l,1,0.9656791999004781,104.62978580011986,105.6459606999997,105.6291743000038,None,104.62978580011986,None,104.62978580011986,None,104.62978580011986,None,106.59311098016333,None,106.59311098016333,None,106.59311098016333,None,,,,,,,,,,,,,,206,2023-03-29_14h56.42.487,Main,2022.1.1,59.983900310294544,
negative,positive,2,j,l,,,,,0,8,8,15,,,,,,,,,,,,,prac,2,2,2,positive,negative,j,j,1,0.831751799909398,106.59908620011993,107.60974410013296,107.59310379996896,None,106.59908620011993,None,106.59908620011993,None,106.59908620011993,None,108.4263854801422,None,108.4263854801422,None,108.4263854801422,None,,,,,,,,,,,,,,206,2023-03-29_14h56.42.487,Main,2022.1.1,59.983900310294544,
negative,positive,1,j,l,,,,,0,9,9,6,,,,,,,,,,,,,prac,1,1,1,positive,negative,j,j,1,0.79852330009453,108.43211299995892,109.44307100004517,109.42645390005782,None,108.43211299995892,None,108.43211299995892,None,108.43211299995892,None,110.22648778015282,None,110.22648778015282,None,110.22648778015282,None,,,,,,,,,,,,,,206,2023-03-29_14h56.42.487,Main,2022.1.1,59.983900310294544,
positive,negative,1,l,j,,,,,0,10,10,5,,,,,,,,,,,,,prac,1,1,1,negative,positive,l,l,1,1.181990300072357,110.23013070016168,111.24571319995448,111.20969479996711,None,110.23013070016168,None,110.23013070016168,None,110.23013070016168,None,112.40966647996102,None,112.40966647996102,None,112.40966647996102,None,,,,,,,,,,,,,,206,2023-03-29_14h56.42.487,Main,2022.1.1,59.983900310294544,
positive,neutral,1,l,j,,,,,0,11,11,8,,,,,,,,,,,,,prac,1,1,1,neutral,positive,l,l,1,1.2829455002211034,112.41303139994852,113.4291803999804,113.39300040015951,None,112.41303139994852,None,112.41303139994852,None,112.41303139994852,None,114.69293138005305,None,114.69293138005305,None,114.69293138005305,None,,,,,,,,,,,,,,206,2023-03-29_14h56.42.487,Main,2022.1.1,59.983900310294544,
neutral,neutral,2,k,k,,,,,0,12,12,10,,,,,,,,,,,,,prac,2,2,2,neutral,neutral,k,k,1,0.8314026000443846,114.69856050005183,115.709642900154,115.69567809998989,None,114.69856050005183,None,114.69856050005183,None,114.69856050005183,None,116.52625098002609,None,116.52625098002609,None,116.52625098002609,None,,,,,,,,,,,,,,206,2023-03-29_14h56.42.487,Main,2022.1.1,59.983900310294544,
positive,neutral,2,l,j,,,,,0,13,13,17,,,,,,,,,,,,,prac,2,2,2,neutral,positive,l,l,1,0.8825290000531822,116.5317434000317,117.54582939995453,117.52910290006548,None,116.5317434000317,None,116.5317434000317,None,116.5317434000317,None,118.40953168009874,None,118.40953168009874,None,118.40953168009874,None,,,,,,,,,,,,,,206,2023-03-29_14h56.42.487,Main,2022.1.1,59.983900310294544,
positive,negative,2,l,j,,,,,0,14,14,14,,,,,,,,,,,,,prac,1,1,2,negative,positive,l,l,1,0.6979869999922812,118.41524070012383,119.42621479998343,119.41232599993236,None,118.41524070012383,None,118.41524070012383,None,118.41524070012383,None,120.1095385799883,None,120.1095385799883,None,120.1095385799883,None,,,,,,,,,,,,,,206,2023-03-29_14h56.42.487,Main,2022.1.1,59.983900310294544,
negative,neutral,1,j,l,,,,,0,15,15,3,,,,,,,,,,,,,prac,1,1,1,neutral,negative,j,j,1,0.818226900184527,120.115232600132,121.12617870001122,121.10949780000374,None,120.115232600132,None,120.115232600132,None,120.115232600132,None,121.92886938008014,None,121.92886938008014,None,121.92886938008014,None,,,,,,,,,,,,,,206,2023-03-29_14h56.42.487,Main,2022.1.1,59.983900310294544,
negative,neutral,2,j,l,,,,,0,16,16,12,,,,,,,,,,,,,prac,1,1,2,neutral,negative,j,j,1,0.8956230999901891,121.93213280010968,122.94280360010453,122.92611430003308,None,121.93213280010968,None,121.93213280010968,None,121.93213280010968,None,123.82609148013871,None,123.82609148013871,None,123.82609148013871,None,,,,,,,,,,,,,,206,2023-03-29_14h56.42.487,Main,2022.1.1,59.983900310294544,
negative,negative,2,j,l,,,,,0,17,17,9,,,,,,,,,,,,,prac,2,2,2,negative,negative,j,j,1,0.584902600152418,123.8318543001078,124.84275800012983,124.8121907999739,None,123.8318543001078,None,123.8318543001078,None,123.8318543001078,None,125.4120398801053,None,125.4120398801053,None,125.4120398801053,None,,,,,,,,,,,,,,206,2023-03-29_14h56.42.487,Main,2022.1.1,59.983900310294544,
neutral,negative,1,k,k,,,,,1,0,18,7,,,,,,,,,,,,,prac,1,1,1,negative,neutral,k,k,1,0.8626152998767793,125.41537469998002,126.426039500162,126.40936450008303,None,125.41537469998002,None,125.41537469998002,None,125.41537469998002,None,127.27599118014332,None,127.27599118014332,None,127.27599118014332,None,,,,,,,,,,,,,,206,2023-03-29_14h56.42.487,Main,2022.1.1,59.983900310294544,
positive,neutral,2,l,j,,,,,1,1,19,17,,,,,,,,,,,,,prac,1,1,2,neutral,positive,l,l,1,0.6657183999195695,127.28141970001161,128.29540039994754,128.2620115999598,None,127.28141970001161,None,127.28141970001161,None,127.28141970001161,None,128.94264897999818,None,128.94264897999818,None,128.94264897999818,None,,,,,,,,,,,,,,206,2023-03-29_14h56.42.487,Main,2022.1.1,59.983900310294544,
neutral,positive,2,k,k,,,,,1,2,20,13,,,,,,,,,,,,,prac,2,2,2,positive,neutral,k,k,1,0.8151283001061529,128.94771420001052,129.9593052000273,129.92868759995326,None,128.94771420001052,None,128.94771420001052,None,128.94771420001052,None,130.75924888013395,None,130.75924888013395,None,130.75924888013395,None,,,,,,,,,,,,,,206,2023-03-29_14h56.42.487,Main,2022.1.1,59.983900310294544,
neutral,positive,1,k,k,,,,,1,3,21,4,,,,,,,,,,,,,prac,2,2,1,positive,neutral,k,k,1,0.7349046999588609,130.76519920001738,131.77864850009792,131.7592660000082,None,130.76519920001738,None,130.76519920001738,None,130.76519920001738,None,132.49519427998456,None,132.49519427998456,None,132.49519427998456,None,,,,,,,,,,,,,,206,2023-03-29_14h56.42.487,Main,2022.1.1,59.983900310294544,
negative,neutral,1,j,l,,,,,1,4,22,3,,,,,,,,,,,,,prac,2,2,1,neutral,negative,j,j,1,0.7636890998110175,132.4991685000714,133.51197089999914,133.4925840999931,None,132.4991685000714,None,132.4991685000714,None,132.4991685000714,None,134.2591739801457,None,134.2591739801457,None,134.2591739801457,None,,,,,,,,,,,,,,206,2023-03-29_14h56.42.487,Main,2022.1.1,59.983900310294544,
neutral,neutral,1,k,k,,,,,1,5,23,1,,,,,,,,,,,,,prac,2,2,1,neutral,neutral,k,k,1,0.7480655999388546,134.26477549993433,135.27589070005342,135.2620894999709,None,134.26477549993433,None,134.26477549993433,None,134.26477549993433,None,136.00929358012507,None,136.00929358012507,None,136.00929358012507,None,,,,,,,,,,,,,,206,2023-03-29_14h56.42.487,Main,2022.1.1,59.983900310294544,
negative,negative,2,j,l,,,,,1,6,24,9,,,,,,,,,,,,,prac,1,1,2,negative,negative,j,j,1,0.8511271001771092,136.01213030004874,137.00919120013714,137.00919120013714,None,136.01213030004874,None,136.01213030004874,None,136.01213030004874,None,137.86186518000903,None,137.86186518000903,None,137.86186518000903,None,,,,,,,,,,,,,,206,2023-03-29_14h56.42.487,Main,2022.1.1,59.983900310294544,
negative,positive,2,j,l,,,,,1,7,25,15,,,,,,,,,,,,,prac,2,2,2,positive,negative,j,j,1,0.6462079000193626,137.86426659999415,138.87579450011253,138.85913270013407,None,137.86426659999415,None,137.86426659999415,None,137.86426659999415,None,139.5091325800633,None,139.5091325800633,None,139.5091325800633,None,,,,,,,,,,,,,,206,2023-03-29_14h56.42.487,Main,2022.1.1,59.983900310294544,
positive,negative,1,l,j,,,,,1,8,26,5,,,,,,,,,,,,,prac,1,1,1,negative,positive,l,l,1,0.9327451998833567,139.51408670004457,140.5285859000869,140.5091015000362,None,139.51408670004457,None,139.51408670004457,None,139.51408670004457,None,141.4424026801018,None,141.4424026801018,None,141.4424026801018,None,,,,,,,,,,,,,,206,2023-03-29_14h56.42.487,Main,2022.1.1,59.983900310294544,
positive,neutral,1,l,j,,,,,1,9,27,8,,,,,,,,,,,,,prac,1,1,1,neutral,positive,l,l,1,0.7145221999380738,141.4483254000079,142.45907850004733,142.44240810000338,None,141.4483254000079,None,141.4483254000079,None,141.4483254000079,None,143.15904928015078,None,143.15904928015078,None,143.15904928015078,None,,,,,,,,,,,,,,206,2023-03-29_14h56.42.487,Main,2022.1.1,59.983900310294544,
neutral,negative,2,k,k,,,,,1,10,28,16,,,,,,,,,,,,,prac,1,1,2,negative,neutral,k,k,1,1.28130459995009,143.16279119998217,144.1619524001144,144.1619524001144,None,143.16279119998217,None,143.16279119998217,None,143.16279119998217,None,145.44232538009527,None,145.44232538009527,None,145.44232538009527,None,,,,,,,,,,,,,,206,2023-03-29_14h56.42.487,Main,2022.1.1,59.983900310294544,
positive,positive,1,l,j,,,,,1,11,29,2,,,,,,,,,,,,,prac,2,2,1,positive,positive,l,l,1,0.8655173999723047,145.4476080001332,146.45895659993403,146.4422981000971,None,145.4476080001332,None,145.4476080001332,None,145.4476080001332,None,147.3089448799612,None,147.3089448799612,None,147.3089448799612,None,,,,,,,,,,,,,,206,2023-03-29_14h56.42.487,Main,2022.1.1,59.983900310294544,
neutral,neutral,2,k,k,,,,,1,12,30,10,,,,,,,,,,,,,prac,1,1,2,neutral,neutral,k,k,1,0.6481040001381189,147.31473710015416,148.32557770004496,148.30892190011218,None,147.31473710015416,None,147.31473710015416,None,147.31473710015416,None,148.9590358800953,None,148.9590358800953,None,148.9590358800953,None,,,,,,,,,,,,,,206,2023-03-29_14h56.42.487,Main,2022.1.1,59.983900310294544,
negative,neutral,2,j,l,,,,,1,13,31,12,,,,,,,,,,,,,prac,1,1,2,neutral,negative,j,j,1,0.7484794999472797,148.96346130012535,149.97557920007966,149.95890150009654,None,148.96346130012535,None,148.96346130012535,None,148.96346130012535,None,150.70891708012203,None,150.70891708012203,None,150.70891708012203,None,,,,,,,,,,,,,,206,2023-03-29_14h56.42.487,Main,2022.1.1,59.983900310294544,
positive,positive,2,l,j,,,,,1,14,32,11,,,,,,,,,,,,,prac,2,2,2,positive,positive,l,l,1,0.8490505998488516,150.71354999998584,151.72826140001416,151.69217930012383,None,150.71354999998584,None,150.71354999998584,None,150.71354999998584,None,152.55894228017422,None,152.55894228017422,None,152.55894228017422,None,,,,,,,,,,,,,,206,2023-03-29_14h56.42.487,Main,2022.1.1,59.983900310294544,
negative,positive,1,j,l,,,,,1,15,33,6,,,,,,,,,,,,,prac,1,1,1,positive,negative,j,j,1,0.7819713000208139,152.56389910005964,153.57549279998057,153.55882000015117,None,152.56389910005964,None,152.56389910005964,None,152.56389910005964,None,154.34210717997047,None,154.34210717997047,None,154.34210717997047,None,,,,,,,,,,,,,,206,2023-03-29_14h56.42.487,Main,2022.1.1,59.983900310294544,
negative,negative,1,j,l,,,,,1,16,34,0,,,,,,,,,,,,,prac,2,2,1,negative,negative,j,j,1,0.5985569001641124,154.3470415000338,155.35881240013987,155.34487450006418,None,154.3470415000338,None,154.3470415000338,None,154.3470415000338,None,155.94214438011403,None,155.94214438011403,None,155.94214438011403,None,,,,,,,,,,,,,,206,2023-03-29_14h56.42.487,Main,2022.1.1,59.983900310294544,
positive,negative,2,l,j,,,,,1,17,35,14,,,,,,,,,,,,,prac,2,2,2,negative,positive,l,l,1,0.8155398999806494,155.94773719995283,156.95876980014145,156.94483960000798,None,155.94773719995283,None,155.94773719995283,None,155.94773719995283,None,157.75870738008524,None,157.75870738008524,None,157.75870738008524,None,,,,,,,,,,,,,,206,2023-03-29_14h56.42.487,Main,2022.1.1,59.983900310294544,
,,,,,,,,,,,,,,,,,,,,,,,,,,,,,,,,,,,,,,,,,,,,,,,,,,,157.7587389999535,None,space,3.1915011999662966,,,,,,,,,,206,2023-03-29_14h56.42.487,Main,2022.1.1,59.983900310294544,
,,,,,,,,,,,,,,,,,,,,,,,,,,,,,,,,,,,,,,,,,,,,,,,,,,,,,,,0.08796296,-0.06574074,0,0,0,0.011317480122670531,None,,,206,2023-03-29_14h56.42.487,Main,2022.1.1,59.983900310294544,
positive,negative,1,l,j,,,,,,,,,0,0,0,5,,,,,,,160.97800110001117,None,main,2,2,1,negative,positive,l,l,1,0.8618475999683142,162.9813266999554,163.99194860015996,163.97526510013267,None,162.9813266999554,None,162.9813266999554,None,162.9813266999554,None,164.84189428009557,None,164.84189428009557,None,164.84189428009557,None,,,,,,,,,,,,,,206,2023-03-29_14h56.42.487,Main,2022.1.1,59.983900310294544,
positive,positive,2,l,j,,,,,,,,,0,1,1,11,,,,,,,,,main,2,2,2,positive,positive,l,l,1,0.7462577000260353,164.8468537000008,165.85866959998384,165.84195300005376,None,164.8468537000008,None,164.8468537000008,None,164.8468537000008,None,166.5919037800515,None,166.5919037800515,None,166.5919037800515,None,,,,,,,,,,,,,,206,2023-03-29_14h56.42.487,Main,2022.1.1,59.983900310294544,
neutral,neutral,2,k,k,,,,,,,,,0,2,2,10,,,,,,,,,main,2,2,2,neutral,neutral,k,k,1,0.7006667000241578,166.5959528000094,167.60856089997105,167.59190490003675,None,166.5959528000094,None,166.5959528000094,None,166.5959528000094,None,168.29187188011127,None,168.29187188011127,None,168.29187188011127,None,,,,,,,,,,,,,,206,2023-03-29_14h56.42.487,Main,2022.1.1,59.983900310294544,
negative,negative,1,j,l,,,,,,,,,0,3,3,0,,,,,,,,,main,2,2,1,negative,negative,j,j,1,0.7460565001238137,168.2990381999407,169.3085692001041,169.2919433999341,None,168.2990381999407,None,168.2990381999407,None,168.2990381999407,None,170.04180438017937,None,170.04180438017937,None,170.04180438017937,None,,,,,,,,,,,,,,206,2023-03-29_14h56.42.487,Main,2022.1.1,59.983900310294544,
negative,positive,2,j,l,,,,,,,,,0,4,4,15,,,,,,,,,main,2,2,2,positive,negative,j,j,1,0.6322602001018822,170.04749480006285,171.05848630005494,171.04459129995666,None,170.04749480006285,None,170.04749480006285,None,170.04749480006285,None,171.67509348008315,None,171.67509348008315,None,171.67509348008315,None,,,,,,,,,,,,,,206,2023-03-29_14h56.42.487,Main,2022.1.1,59.983900310294544,
neutral,positive,2,k,k,,,,,,,,,0,5,5,13,,,,,,,,,main,2,2,2,positive,neutral,k,k,1,0.7982632999774069,171.67870209994726,172.677863500081,172.677863500081,None,171.67870209994726,None,171.67870209994726,None,171.67870209994726,None,173.47516707999165,None,173.47516707999165,None,173.47516707999165,None,,,,,,,,,,,,,,206,2023-03-29_14h56.42.487,Main,2022.1.1,59.983900310294544,
negative,neutral,1,j,l,,,,,,,,,0,6,6,3,,,,,,,,,main,2,2,1,neutral,negative,j,j,1,0.617882400052622,173.47820869996212,174.49442870006897,174.47780170012265,None,173.47820869996212,None,173.47820869996212,None,173.47820869996212,None,175.0944201801205,None,175.0944201801205,None,175.0944201801205,None,,,,,,,,,,,,,,206,2023-03-29_14h56.42.487,Main,2022.1.1,59.983900310294544,
positive,neutral,2,l,j,,,,,,,,,0,7,7,17,,,,,,,,,main,2,2,2,neutral,positive,l,l,1,0.779098599916324,175.09771090000868,176.10836219997145,176.0916862001177,None,175.09771090000868,None,175.09771090000868,None,175.09771090000868,None,176.87507028009276,None,176.87507028009276,None,176.87507028009276,None,,,,,,,,,,,,,,206,2023-03-29_14h56.42.487,Main,2022.1.1,59.983900310294544,
negative,positive,1,j,l,,,,,,,,,0,8,8,6,,,,,,,,,main,2,2,1,positive,negative,j,j,1,0.6845794999971986,176.88044900004752,177.89435970014893,177.87497500004247,None,176.88044900004752,None,176.88044900004752,None,176.88044900004752,None,178.5610428801039,None,178.5610428801039,None,178.5610428801039,None,,,,,,,,,,,,,,206,2023-03-29_14h56.42.487,Main,2022.1.1,59.983900310294544,
neutral,neutral,1,k,k,,,,,,,,,0,9,9,1,,,,,,,,,main,2,2,1,neutral,neutral,k,k,1,0.7288585000205785,178.56446649995632,179.5776976000052,179.55832670000382,None,178.56446649995632,None,178.56446649995632,None,178.56446649995632,None,180.29163208014796,None,180.29163208014796,None,180.29163208014796,None,,,,,,,,,,,,,,206,2023-03-29_14h56.42.487,Main,2022.1.1,59.983900310294544,
positive,neutral,1,l,j,,,,,,,,,0,10,10,8,,,,,,,,,main,2,2,1,neutral,positive,l,l,1,0.6650813999585807,180.30267160013318,181.30828090012074,181.29160799994133,None,180.30267160013318,None,180.30267160013318,None,180.30267160013318,None,181.95824468012432,None,181.95824468012432,None,181.95824468012432,None,,,,,,,,,,,,,,206,2023-03-29_14h56.42.487,Main,2022.1.1,59.983900310294544,
negative,negative,2,j,l,,,,,,,,,0,11,11,9,,,,,,,,,main,2,2,2,negative,negative,j,j,1,0.7650067000649869,181.96335240011103,182.97490840009414,182.95824810001068,None,181.96335240011103,None,181.96335240011103,None,181.96335240011103,None,183.7248479800066,None,183.7248479800066,None,183.7248479800066,None,,,,,,,,,,,,,,206,2023-03-29_14h56.42.487,Main,2022.1.1,59.983900310294544,
positive,negative,2,l,j,,,,,,,,,0,12,12,14,,,,,,,,,main,1,1,2,negative,positive,l,l,1,0.6829145001247525,183.73004000005312,184.74153250013478,184.7248539000284,None,183.73004000005312,None,183.73004000005312,None,183.73004000005312,None,185.40815257995854,None,185.40815257995854,None,185.40815257995854,None,,,,,,,,,,,,,,206,2023-03-29_14h56.42.487,Main,2022.1.1,59.983900310294544,
positive,positive,1,l,j,,,,,,,,,0,13,13,2,,,,,,,,,main,2,2,1,positive,positive,l,l,1,0.8643352000508457,185.41421890002675,186.42482300009578,186.40816210000776,None,185.41421890002675,None,185.41421890002675,None,185.41421890002675,None,187.27480657997074,None,187.27480657997074,None,187.27480657997074,None,,,,,,,,,,,,,,206,2023-03-29_14h56.42.487,Main,2022.1.1,59.983900310294544,
neutral,negative,2,k,k,,,,,,,,,0,14,14,16,,,,,,,,,main,1,1,2,negative,neutral,k,k,1,0.6314972001127899,187.2803983001504,188.29147369996645,188.27478040009737,None,187.2803983001504,None,187.2803983001504,None,187.2803983001504,None,188.90820858015212,None,188.90820858015212,None,188.90820858015212,None,,,,,,,,,,,,,,206,2023-03-29_14h56.42.487,Main,2022.1.1,59.983900310294544,
neutral,negative,1,k,k,,,,,,,,,0,15,15,7,,,,,,,,,main,1,1,1,negative,neutral,k,k,1,0.598907700041309,188.91310609993525,189.92474830010906,189.90808730013669,None,188.91310609993525,None,188.91310609993525,None,188.91310609993525,None,190.5080559800146,None,190.5080559800146,None,190.5080559800146,None,,,,,,,,,,,,,,206,2023-03-29_14h56.42.487,Main,2022.1.1,59.983900310294544,
negative,neutral,2,j,l,,,,,,,,,0,16,16,12,,,,,,,,,main,2,2,2,neutral,negative,j,j,1,0.731385099934414,190.5136198999826,191.52473070006818,191.50819159997627,None,190.5136198999826,None,190.5136198999826,None,190.5136198999826,None,192.2413668801775,None,192.2413668801775,None,192.2413668801775,None,,,,,,,,,,,,,,206,2023-03-29_14h56.42.487,Main,2022.1.1,59.983900310294544,
neutral,positive,1,k,k,,,,,,,,,0,17,17,4,,,,,,,,,main,2,2,1,positive,neutral,k,k,1,0.7150049000047147,192.2474128000904,193.25803170003928,193.2413705000654,None,192.2474128000904,None,192.2474128000904,None,192.2474128000904,None,193.95797498004976,None,193.95797498004976,None,193.95797498004976,None,,,,,,,,,,,,,,206,2023-03-29_14h56.42.487,Main,2022.1.1,59.983900310294544,
negative,positive,2,j,l,,,,,,,,,1,0,18,15,,,,,,,,,main,2,2,2,positive,negative,j,j,1,0.7815920999273658,193.9613691000268,194.9746195001062,194.95797300012782,None,193.9613691000268,None,193.9613691000268,None,193.9613691000268,None,195.74127927997614,None,195.74127927997614,None,195.74127927997614,None,,,,,,,,,,,,,,206,2023-03-29_14h56.42.487,Main,2022.1.1,59.983900310294544,
positive,negative,2,l,j,,,,,,,,,1,1,19,14,,,,,,,,,main,2,2,2,negative,positive,l,l,1,0.6817669000010937,195.74416809994727,196.74134910013527,196.74134910013527,None,195.74416809994727,None,195.74416809994727,None,195.74416809994727,None,197.42455838008317,None,197.42455838008317,None,197.42455838008317,None,,,,,,,,,,,,,,206,2023-03-29_14h56.42.487,Main,2022.1.1,59.983900310294544,
neutral,neutral,2,k,k,,,,,,,,,1,2,20,10,,,,,,,,,main,1,1,2,neutral,neutral,k,k,1,0.7816618999931961,197.4295169999823,198.44127269997261,198.42745660012588,None,197.4295169999823,None,197.4295169999823,None,197.4295169999823,None,199.20786428002174,None,199.20786428002174,None,199.20786428002174,None,,,,,,,,,,,,,,206,2023-03-29_14h56.42.487,Main,2022.1.1,59.983900310294544,
negative,positive,1,j,l,,,,,,,,,1,3,21,6,,,,,,,,,main,1,1,1,positive,negative,j,j,1,0.685146400006488,199.21146210003644,200.27699819998816,200.20800480013713,None,199.21146210003644,None,199.21146210003644,None,199.21146210003644,None,200.89387098017613,None,200.89387098017613,None,200.89387098017613,None,,,,,,,,,,,,,,206,2023-03-29_14h56.42.487,Main,2022.1.1,59.983900310294544,
neutral,positive,2,k,k,,,,,,,,,1,4,22,13,,,,,,,,,main,2,2,2,positive,neutral,k,k,1,1.2954804999753833,200.8973861001432,201.90782340010628,201.89117450010963,None,200.8973861001432,None,200.8973861001432,None,200.8973861001432,None,203.19114817997905,None,203.19114817997905,None,203.19114817997905,None,,,,,,,,,,,,,,206,2023-03-29_14h56.42.487,Main,2022.1.1,59.983900310294544,
positive,positive,2,l,j,,,,,,,,,1,5,23,11,,,,,,,,,main,2,2,2,positive,positive,l,l,1,0.7157773999497294,203.19698649994098,204.20779670006596,204.19389380002394,None,203.19698649994098,None,203.19698649994098,None,203.19698649994098,None,204.90771298010367,None,204.90771298010367,None,204.90771298010367,None,,,,,,,,,,,,,,206,2023-03-29_14h56.42.487,Main,2022.1.1,59.983900310294544,
negative,negative,1,j,l,,,,,,,,,1,6,24,0,,,,,,,,,main,1,1,1,negative,negative,j,j,1,0.7807529999408871,204.91347920009866,205.92457840009592,205.9077509001363,None,204.91347920009866,None,204.91347920009866,None,204.91347920009866,None,206.6910466800211,None,206.6910466800211,None,206.6910466800211,None,,,,,,,,,,,,,,206,2023-03-29_14h56.42.487,Main,2022.1.1,59.983900310294544,
neutral,positive,1,k,k,,,,,,,,,1,7,25,4,,,,,,,,,main,2,2,1,positive,neutral,k,k,1,0.6144781999755651,206.69697290007025,207.70769380009733,207.69103360013105,None,206.69697290007025,None,206.69697290007025,None,206.69697290007025,None,208.30768738004843,None,208.30768738004843,None,208.30768738004843,None,,,,,,,,,,,,,,206,2023-03-29_14h56.42.487,Main,2022.1.1,59.983900310294544,
positive,neutral,1,l,j,,,,,,,,,1,8,26,8,,,,,,,,,main,2,2,1,neutral,positive,l,l,1,0.6983982000965625,208.31080790003762,209.32701599993743,209.29192010010593,None,208.31080790003762,None,208.31080790003762,None,208.31080790003762,None,210.00741408013272,None,210.00741408013272,None,210.00741408013272,None,,,,,,,,,,,,,,206,2023-03-29_14h56.42.487,Main,2022.1.1,59.983900310294544,
neutral,neutral,1,k,k,,,,,,,,,1,9,27,1,,,,,,,,,main,1,1,1,neutral,neutral,k,k,1,0.6161925999913365,210.01254720008,211.0271006000694,210.9910059000831,None,210.01254720008,None,210.01254720008,None,210.01254720008,None,211.62426638014148,None,211.62426638014148,None,211.62426638014148,None,,,,,,,,,,,,,,206,2023-03-29_14h56.42.487,Main,2022.1.1,59.983900310294544,
positive,positive,1,l,j,,,,,,,,,1,10,28,2,,,,,,,,,main,1,1,1,positive,positive,l,l,1,0.7140872001182288,211.63030180009082,212.6409285000991,212.62432470009662,None,211.63030180009082,None,211.63030180009082,None,211.63030180009082,None,213.34092078001703,None,213.34092078001703,None,213.34092078001703,None,,,,,,,,,,,,,,206,2023-03-29_14h56.42.487,Main,2022.1.1,59.983900310294544,
negative,neutral,1,j,l,,,,,,,,,1,11,29,3,,,,,,,,,main,1,1,1,neutral,negative,j,j,1,1.3143692000303417,213.34491190011613,214.35757030011155,214.34365980001166,None,213.34491190011613,None,213.34491190011613,None,213.34491190011613,None,215.65752308017107,None,215.65752308017107,None,215.65752308017107,None,,,,,,,,,,,,,,206,2023-03-29_14h56.42.487,Main,2022.1.1,59.983900310294544,
negative,neutral,2,j,l,,,,,,,,,1,12,30,12,,,,,,,,,main,1,1,2,neutral,negative,j,j,1,0.9520847999956459,215.66084020002745,216.66023349994794,216.66023349994794,None,215.66084020002745,None,215.66084020002745,None,215.66084020002745,None,217.60726948005612,None,217.60726948005612,None,217.60726948005612,None,,,,,,,,,,,,,,206,2023-03-29_14h56.42.487,Main,2022.1.1,59.983900310294544,
neutral,negative,1,k,k,,,,,,,,,1,13,31,7,,,,,,,,,main,1,1,1,negative,neutral,k,k,1,0.6977926001418382,217.61453150003217,218.624121400062,218.61019919998944,None,217.61453150003217,None,217.61453150003217,None,217.61453150003217,None,219.30722398001234,None,219.30722398001234,None,219.30722398001234,None,,,,,,,,,,,,,,206,2023-03-29_14h56.42.487,Main,2022.1.1,59.983900310294544,
neutral,negative,2,k,k,,,,,,,,,1,14,32,16,,,,,,,,,main,1,1,2,negative,neutral,k,k,1,0.6793449998367578,219.31451639998704,220.32412760006264,220.31025029998273,None,219.31451639998704,None,219.31451639998704,None,219.31451639998704,None,220.9907233800506,None,220.9907233800506,None,220.9907233800506,None,,,,,,,,,,,,,,206,2023-03-29_14h56.42.487,Main,2022.1.1,59.983900310294544,
negative,negative,2,j,l,,,,,,,,,1,15,33,9,,,,,,,,,main,1,1,2,negative,negative,j,j,1,0.6806560000404716,220.99649900011718,222.0074076000601,221.9935075000394,None,220.99649900011718,None,220.99649900011718,None,220.99649900011718,None,222.67406818007584,None,222.67406818007584,None,222.67406818007584,None,,,,,,,,,,,,,,206,2023-03-29_14h56.42.487,Main,2022.1.1,59.983900310294544,
positive,negative,1,l,j,,,,,,,,,1,16,34,5,,,,,,,,,main,1,1,1,negative,positive,l,k,0,0.6154779999051243,222.67949669994414,223.69077280000784,223.65736060007475,None,222.67949669994414,None,222.67949669994414,None,222.67949669994414,None,224.29341810010374,None,224.29341810010374,None,224.29341810010374,None,,,,,,,,,,,,,,206,2023-03-29_14h56.42.487,Main,2022.1.1,59.983900310294544,
positive,neutral,2,l,j,,,,,,,,,1,17,35,17,,,,,,,,,main,2,2,2,neutral,positive,l,l,1,0.7342572000343353,225.29179779998958,226.3100028000772,226.27407389995642,None,225.29179779998958,None,225.29179779998958,None,225.29179779998958,None,227.02401408010627,None,227.02401408010627,None,227.02401408010627,None,,,,,,,,,,,,,,206,2023-03-29_14h56.42.487,Main,2022.1.1,59.983900310294544,
positive,negative,2,l,j,,,,,,,,,2,0,36,14,,,,,,,,,main,1,1,2,negative,positive,l,l,1,0.6647403999231756,227.02770099998452,228.04332719999366,228.0267157999333,None,227.02770099998452,None,227.02770099998452,None,227.02770099998452,None,228.6905698801158,None,228.6905698801158,None,228.6905698801158,None,,,,,,,,,,,,,,206,2023-03-29_14h56.42.487,Main,2022.1.1,59.983900310294544,
neutral,negative,2,k,k,,,,,,,,,2,1,37,16,,,,,,,,,main,1,1,2,negative,neutral,k,k,1,0.6974989001173526,228.69465490011498,229.70725630014203,229.69332710001618,None,228.69465490011498,None,228.69465490011498,None,228.69465490011498,None,230.3905370800523,None,230.3905370800523,None,230.3905370800523,None,,,,,,,,,,,,,,206,2023-03-29_14h56.42.487,Main,2022.1.1,59.983900310294544,
neutral,neutral,1,k,k,,,,,,,,,2,2,38,1,,,,,,,,,main,2,2,1,neutral,neutral,k,k,1,0.732039799913764,230.39559430000372,231.40717869997025,231.39058470004238,None,230.39559430000372,None,230.39559430000372,None,230.39559430000372,None,232.1238745799521,None,232.1238745799521,None,232.1238745799521,None,,,,,,,,,,,,,,206,2023-03-29_14h56.42.487,Main,2022.1.1,59.983900310294544,
positive,neutral,1,l,j,,,,,,,,,2,3,39,8,,,,,,,,,main,2,2,1,neutral,positive,l,l,1,0.7845751000568271,232.12934700003825,233.14052130002528,233.12661819998175,None,232.12934700003825,None,232.12934700003825,None,232.12934700003825,None,233.9099407800706,None,233.9099407800706,None,233.9099407800706,None,,,,,,,,,,,,,,206,2023-03-29_14h56.42.487,Main,2022.1.1,59.983900310294544,
negative,neutral,2,j,l,,,,,,,,,2,4,40,12,,,,,,,,,main,1,1,2,neutral,negative,j,j,1,1.2621200999710709,233.91315499995835,234.92385730007663,234.9071303999517,None,233.91315499995835,None,233.91315499995835,None,233.91315499995835,None,236.17366898006293,None,236.17366898006293,None,236.17366898006293,None,,,,,,,,,,,,,,206,2023-03-29_14h56.42.487,Main,2022.1.1,59.983900310294544,
positive,positive,1,l,j,,,,,,,,,2,5,41,2,,,,,,,,,main,2,2,1,positive,positive,l,l,1,0.7816479001194239,236.17998120002449,237.19310860009864,237.17374100000598,None,236.17998120002449,None,236.17998120002449,None,236.17998120002449,None,237.95704437994863,None,237.95704437994863,None,237.95704437994863,None,,,,,,,,,,,,,,206,2023-03-29_14h56.42.487,Main,2022.1.1,59.983900310294544,
neutral,positive,1,k,k,,,,,,,,,2,6,42,4,,,,,,,,,main,1,1,1,positive,neutral,k,k,1,0.7827441999688745,237.96090389997698,238.97371920011938,238.9598258000333,None,237.96090389997698,None,237.96090389997698,None,237.96090389997698,None,239.7401436801767,None,239.7401436801767,None,239.7401436801767,None,,,,,,,,,,,,,,206,2023-03-29_14h56.42.487,Main,2022.1.1,59.983900310294544,
positive,neutral,2,l,j,,,,,,,,,2,7,43,17,,,,,,,,,main,2,2,2,neutral,positive,l,l,1,0.7006010999903083,239.74730290006846,240.757011000067,240.7404821999371,None,239.74730290006846,None,239.74730290006846,None,239.74730290006846,None,241.44321147997397,None,241.44321147997397,None,241.44321147997397,None,,,,,,,,,,,,,,206,2023-03-29_14h56.42.487,Main,2022.1.1,59.983900310294544,
neutral,positive,2,k,k,,,,,,,,,2,8,44,13,,,,,,,,,main,1,1,2,positive,neutral,k,k,1,0.7319549999665469,241.4469465999864,242.45984100014903,242.4403129001148,None,241.4469465999864,None,241.4469465999864,None,241.4469465999864,None,243.17595328011083,None,243.17595328011083,None,243.17595328011083,None,,,,,,,,,,,,,,206,2023-03-29_14h56.42.487,Main,2022.1.1,59.983900310294544,
negative,neutral,1,j,l,,,,,,,,,2,9,45,3,,,,,,,,,main,1,1,1,neutral,negative,j,j,1,0.7103209998458624,243.18133149994537,244.19293719995767,244.17638420010917,None,243.18133149994537,None,243.18133149994537,None,243.18133149994537,None,244.8902255801251,None,244.8902255801251,None,244.8902255801251,None,,,,,,,,,,,,,,206,2023-03-29_14h56.42.487,Main,2022.1.1,59.983900310294544,
neutral,negative,1,k,k,,,,,,,,,2,10,46,7,,,,,,,,,main,2,2,1,negative,neutral,k,k,1,0.8182689000386745,244.89598640007898,245.90689949993975,245.89024189999327,None,244.89598640007898,None,244.89598640007898,None,244.89598640007898,None,246.70958457996602,None,246.70958457996602,None,246.70958457996602,None,,,,,,,,,,,,,,206,2023-03-29_14h56.42.487,Main,2022.1.1,59.983900310294544,
negative,negative,2,j,l,,,,,,,,,2,11,47,9,,,,,,,,,main,1,1,2,negative,negative,j,j,1,0.8289085000287741,246.71289550000802,247.72638779995032,247.70968420011923,None,246.71289550000802,None,246.71289550000802,None,246.71289550000802,None,248.5401553799631,None,248.5401553799631,None,248.5401553799631,None,,,,,,,,,,,,,,206,2023-03-29_14h56.42.487,Main,2022.1.1,59.983900310294544,
negative,negative,1,j,l,,,,,,,,,2,12,48,0,,,,,,,,,main,2,2,1,negative,negative,j,j,1,0.7652347998227924,248.54352349997498,249.55684179998934,249.52350180014037,None,248.54352349997498,None,248.54352349997498,None,248.54352349997498,None,250.30679628013166,None,250.30679628013166,None,250.30679628013166,None,,,,,,,,,,,,,,206,2023-03-29_14h56.42.487,Main,2022.1.1,59.983900310294544,
negative,positive,2,j,l,,,,,,,,,2,13,49,15,,,,,,,,,main,1,1,2,positive,negative,j,j,1,0.8317944000009447,250.30984050012194,251.30679160007276,251.29281760007143,None,250.30984050012194,None,250.30984050012194,None,250.30984050012194,None,252.14010147999505,None,252.14010147999505,None,252.14010147999505,None,,,,,,,,,,,,,,206,2023-03-29_14h56.42.487,Main,2022.1.1,59.983900310294544,
positive,negative,1,l,j,,,,,,,,,2,14,50,5,,,,,,,,,main,1,1,1,negative,positive,l,l,1,0.7330058999359608,252.14550879993476,253.1568390999455,253.12345420010388,None,252.14550879993476,None,252.14550879993476,None,252.14550879993476,None,253.87446828016544,None,253.87446828016544,None,253.87446828016544,None,,,,,,,,,,,,,,206,2023-03-29_14h56.42.487,Main,2022.1.1,59.983900310294544,
positive,positive,2,l,j,,,,,,,,,2,15,51,11,,,,,,,,,main,1,1,2,positive,positive,l,l,1,0.867516600061208,253.88039850001223,254.89004850015044,254.87610849994235,None,253.88039850001223,None,253.88039850001223,None,253.88039850001223,None,255.74356978007125,None,255.74356978007125,None,255.74356978007125,None,,,,,,,,,,,,,,206,2023-03-29_14h56.42.487,Main,2022.1.1,59.983900310294544,
neutral,neutral,2,k,k,,,,,,,,,2,16,52,10,,,,,,,,,main,1,1,2,neutral,neutral,k,k,1,0.6781689999625087,255.74713189993054,256.75668230000883,256.74001229996793,None,255.74713189993054,None,255.74713189993054,None,255.74713189993054,None,257.4233952799579,None,257.4233952799579,None,257.4233952799579,None,,,,,,,,,,,,,,206,2023-03-29_14h56.42.487,Main,2022.1.1,59.983900310294544,
negative,positive,1,j,l,,,,,,,,,2,17,53,6,,,,,,,,,main,1,1,1,positive,negative,j,j,1,0.8012341000139713,257.4285850999877,258.4400641999673,258.42336879996583,None,257.4285850999877,None,257.4285850999877,None,257.4285850999877,None,259.2260652800789,None,259.2260652800789,None,259.2260652800789,None,,,,,,,,,,,,,,206,2023-03-29_14h56.42.487,Main,2022.1.1,59.983900310294544,
neutral,negative,2,k,k,,,,,,,,,3,0,54,16,,,,,,,,,main,1,1,2,negative,neutral,k,k,1,0.6649893999565393,259.23422740004025,260.2399468999356,260.2232538999524,None,259.23422740004025,None,259.23422740004025,None,259.23422740004025,None,260.8926097801188,None,260.8926097801188,None,260.8926097801188,None,,,,,,,,,,,,,,206,2023-03-29_14h56.42.487,Main,2022.1.1,59.983900310294544,
neutral,positive,1,k,k,,,,,,,,,3,1,55,4,,,,,,,,,main,1,1,1,positive,neutral,k,k,1,0.9955983001273125,260.89561030012555,261.90925569995306,261.8898934000172,None,260.89561030012555,None,260.89561030012555,None,260.89561030012555,None,262.8898734801216,None,262.8898734801216,None,262.8898734801216,None,,,,,,,,,,,,,,206,2023-03-29_14h56.42.487,Main,2022.1.1,59.983900310294544,
positive,negative,1,l,j,,,,,,,,,3,2,56,5,,,,,,,,,main,1,1,1,negative,positive,l,l,1,0.7649893998168409,262.89686740003526,263.9092324001249,263.88986240001395,None,262.89686740003526,None,262.89686740003526,None,262.89686740003526,None,264.6564872799674,None,264.6564872799674,None,264.6564872799674,None,,,,,,,,,,,,,,206,2023-03-29_14h56.42.487,Main,2022.1.1,59.983900310294544,
positive,neutral,1,l,j,,,,,,,,,3,3,57,8,,,,,,,,,main,1,1,1,neutral,positive,l,l,1,0.6344590000808239,264.6613100999966,265.67319800006226,265.65651679993607,None,264.6613100999966,None,264.6613100999966,None,264.6613100999966,None,266.2924575800309,None,266.2924575800309,None,266.2924575800309,None,,,,,,,,,,,,,,206,2023-03-29_14h56.42.487,Main,2022.1.1,59.983900310294544,
neutral,neutral,1,k,k,,,,,,,,,3,4,58,1,,,,,,,,,main,2,2,1,neutral,neutral,k,k,1,0.7124055998865515,266.29498200002126,267.30649120011367,267.289846500149,None,266.29498200002126,None,266.29498200002126,None,266.29498200002126,None,268.0064221801469,None,268.0064221801469,None,268.0064221801469,None,,,,,,,,,,,,,,206,2023-03-29_14h56.42.487,Main,2022.1.1,59.983900310294544,
neutral,positive,2,k,k,,,,,,,,,3,5,59,13,,,,,,,,,main,1,1,2,positive,neutral,k,k,1,0.5818809000775218,268.0125371001195,269.0258816999849,269.009216299979,None,268.0125371001195,None,268.0125371001195,None,268.0125371001195,None,269.5897286801366,None,269.5897286801366,None,269.5897286801366,None,,,,,,,,,,,,,,206,2023-03-29_14h56.42.487,Main,2022.1.1,59.983900310294544,
neutral,neutral,2,k,k,,,,,,,,,3,6,60,10,,,,,,,,,main,2,2,2,neutral,neutral,k,k,1,0.6150280998554081,269.5976338000037,270.6064889000263,270.59253429993987,None,269.5976338000037,None,269.5976338000037,None,269.5976338000037,None,271.2063806801336,None,271.2063806801336,None,271.2063806801336,None,,,,,,,,,,,,,,206,2023-03-29_14h56.42.487,Main,2022.1.1,59.983900310294544,
negative,negative,1,j,l,,,,,,,,,3,7,61,0,,,,,,,,,main,2,2,1,negative,negative,j,j,1,0.7316321998368949,271.2097243000753,272.22301830002107,272.2064160001464,None,271.2097243000753,None,271.2097243000753,None,271.2097243000753,None,272.9396484800847,None,272.9396484800847,None,272.9396484800847,None,,,,,,,,,,,,,,206,2023-03-29_14h56.42.487,Main,2022.1.1,59.983900310294544,
negative,positive,1,j,l,,,,,,,,,3,8,62,6,,,,,,,,,main,1,1,1,positive,negative,j,j,1,0.6844188999384642,272.942678200081,273.9590587001294,273.9424155000597,None,272.942678200081,None,272.942678200081,None,272.942678200081,None,274.6256811799714,None,274.6256811799714,None,274.6256811799714,None,,,,,,,,,,,,,,206,2023-03-29_14h56.42.487,Main,2022.1.1,59.983900310294544,
positive,negative,2,l,j,,,,,,,,,3,9,63,14,,,,,,,,,main,2,2,2,negative,positive,l,l,1,0.7463683998212218,274.6296560000628,275.6424509999342,275.62301540002227,None,274.6296560000628,None,274.6296560000628,None,274.6296560000628,None,276.37295288003514,None,276.37295288003514,None,276.37295288003514,None,,,,,,,,,,,,,,206,2023-03-29_14h56.42.487,Main,2022.1.1,59.983900310294544,
positive,positive,1,l,j,,,,,,,,,3,10,64,2,,,,,,,,,main,2,2,1,positive,positive,l,l,1,0.6306674999650568,276.3770113000646,277.38960009999573,277.3756885000039,None,276.3770113000646,None,276.3770113000646,None,276.3770113000646,None,278.006072580046,None,278.006072580046,None,278.006072580046,None,,,,,,,,,,,,,,206,2023-03-29_14h56.42.487,Main,2022.1.1,59.983900310294544,
positive,neutral,2,l,j,,,,,,,,,3,11,65,17,,,,,,,,,main,2,2,2,neutral,positive,l,l,1,0.651524200104177,278.0122152999975,279.0229106999468,279.0089910000097,None,278.0122152999975,None,278.0122152999975,None,278.0122152999975,None,279.6588597799884,None,279.6588597799884,None,279.6588597799884,None,,,,,,,,,,,,,,206,2023-03-29_14h56.42.487,Main,2022.1.1,59.983900310294544,
negative,negative,2,j,l,,,,,,,,,3,12,66,9,,,,,,,,,main,2,2,2,negative,negative,j,j,1,0.8617734001018107,279.6618199001532,280.6728556000162,280.65620590001345,None,279.6618199001532,None,279.6618199001532,None,279.6618199001532,None,281.5228484800784,None,281.5228484800784,None,281.5228484800784,None,,,,,,,,,,,,,,206,2023-03-29_14h56.42.487,Main,2022.1.1,59.983900310294544,
positive,positive,2,l,j,,,,,,,,,3,13,67,11,,,,,,,,,main,2,2,2,positive,positive,l,l,1,0.7487924001179636,281.5285450001247,282.5395406000316,282.5089025001507,None,281.5285450001247,None,281.5285450001247,None,281.5285450001247,None,283.2728310801787,None,283.2728310801787,None,283.2728310801787,None,,,,,,,,,,,,,,206,2023-03-29_14h56.42.487,Main,2022.1.1,59.983900310294544,
neutral,negative,1,k,k,,,,,,,,,3,14,68,7,,,,,,,,,main,1,1,1,negative,neutral,k,k,1,0.6984112998470664,283.2767930999398,284.2921370000113,284.2728109001182,None,283.2767930999398,None,283.2767930999398,None,283.2767930999398,None,284.97274358004796,None,284.97274358004796,None,284.97274358004796,None,,,,,,,,,,,,,,206,2023-03-29_14h56.42.487,Main,2022.1.1,59.983900310294544,
negative,neutral,2,j,l,,,,,,,,,3,15,69,12,,,,,,,,,main,2,2,2,neutral,negative,j,j,1,0.831858100136742,284.9775491000619,285.98946269997396,285.9755838001147,None,284.9775491000619,None,284.9775491000619,None,284.9775491000619,None,286.8060395800741,None,286.8060395800741,None,286.8060395800741,None,,,,,,,,,,,,,,206,2023-03-29_14h56.42.487,Main,2022.1.1,59.983900310294544,
negative,positive,2,j,l,,,,,,,,,3,16,70,15,,,,,,,,,main,1,1,2,positive,negative,j,j,1,1.5984079001937062,286.81105100014247,287.8253546000924,287.8060437999666,None,286.81105100014247,None,286.81105100014247,None,286.81105100014247,None,289.40602330002,None,289.40602330002,None,289.40602330002,None,,,,,,,,,,,,,,206,2023-03-29_14h56.42.487,Main,2022.1.1,59.983900310294544,
negative,neutral,1,j,l,,,,,,,,,3,17,71,3,,,,,,,,,main,1,1,1,neutral,negative,j,j,1,0.920097499853,290.40599530003965,291.4059934001416,291.3893133001402,None,290.40599530003965,None,290.40599530003965,None,290.40599530003965,None,292.32260057998354,None,292.32260057998354,None,292.32260057998354,None,,,,,,,,,,,,,,206,2023-03-29_14h56.42.487,Main,2022.1.1,59.983900310294544,
neutral,neutral,2,k,k,,,,,,,,,4,0,72,10,,,,,,,,,main,2,2,2,neutral,neutral,k,k,1,0.8315236000344157,292.32626390014775,293.3253518000711,293.3253518000711,None,292.32626390014775,None,292.32626390014775,None,292.32626390014775,None,294.1559059800813,None,294.1559059800813,None,294.1559059800813,None,,,,,,,,,,,,,,206,2023-03-29_14h56.42.487,Main,2022.1.1,59.983900310294544,
negative,negative,1,j,l,,,,,,,,,4,1,73,0,,,,,,,,,main,1,1,1,negative,negative,j,j,1,0.6984331998974085,294.1596880001016,295.17261540004984,295.1392952001188,None,294.1596880001016,None,294.1596880001016,None,294.1596880001016,None,295.85586497995536,None,295.85586497995536,None,295.85586497995536,None,,,,,,,,,,,,,,206,2023-03-29_14h56.42.487,Main,2022.1.1,59.983900310294544,
neutral,positive,1,k,k,,,,,,,,,4,2,74,4,,,,,,,,,main,2,2,1,positive,neutral,k,k,1,0.8314404000993818,295.86133680003695,296.87520890007727,296.85860359994695,None,295.86133680003695,None,295.86133680003695,None,295.86133680003695,None,297.68918857995885,None,297.68918857995885,None,297.68918857995885,None,,,,,,,,,,,,,,206,2023-03-29_14h56.42.487,Main,2022.1.1,59.983900310294544,
negative,negative,2,j,l,,,,,,,,,4,3,75,9,,,,,,,,,main,1,1,2,negative,negative,j,j,1,0.7674618999008089,297.6946575001348,298.7058489001356,298.6919365001377,None,297.6946575001348,None,297.6946575001348,None,297.6946575001348,None,299.4584455801407,None,299.4584455801407,None,299.4584455801407,None,,,,,,,,,,,,,,206,2023-03-29_14h56.42.487,Main,2022.1.1,59.983900310294544,
neutral,negative,2,k,k,,,,,,,,,4,4,76,16,,,,,,,,,main,2,2,2,negative,neutral,k,k,1,0.7629084999207407,299.46085899998434,300.4725341000594,300.4557978999801,None,299.46085899998434,None,299.46085899998434,None,299.46085899998434,None,301.2224265799625,None,301.2224265799625,None,301.2224265799625,None,,,,,,,,,,,,,,206,2023-03-29_14h56.42.487,Main,2022.1.1,59.983900310294544,
positive,negative,2,l,j,,,,,,,,,4,5,77,14,,,,,,,,,main,2,2,2,negative,positive,l,l,1,0.7483025998808444,301.2279286000412,302.2391232000664,302.2251828000881,None,301.2279286000412,None,301.2279286000412,None,301.2279286000412,None,302.972348180064,None,302.972348180064,None,302.972348180064,None,,,,,,,,,,,,,,206,2023-03-29_14h56.42.487,Main,2022.1.1,59.983900310294544,
neutral,negative,1,k,k,,,,,,,,,4,6,78,7,,,,,,,,,main,1,1,1,negative,neutral,k,k,1,0.6821793001145124,302.9774247999303,303.9917361999396,303.9584731000941,None,302.9774247999303,None,302.9774247999303,None,302.9774247999303,None,304.65567837997804,None,304.65567837997804,None,304.65567837997804,None,,,,,,,,,,,,,,206,2023-03-29_14h56.42.487,Main,2022.1.1,59.983900310294544,
positive,neutral,2,l,j,,,,,,,,,4,7,79,17,,,,,,,,,main,2,2,2,neutral,positive,l,l,1,0.7314138000365347,304.66149530000985,305.67501610005274,305.655700400006,None,304.66149530000985,None,304.66149530000985,None,304.66149530000985,None,306.3889702799963,None,306.3889702799963,None,306.3889702799963,None,,,,,,,,,,,,,,206,2023-03-29_14h56.42.487,Main,2022.1.1,59.983900310294544,
neutral,neutral,1,k,k,,,,,,,,,4,8,80,1,,,,,,,,,main,2,2,1,neutral,neutral,k,k,1,0.6315842000767589,306.39424389996566,307.4083791000303,307.388980000047,None,306.39424389996566,None,306.39424389996566,None,306.39424389996566,None,308.022264780174,None,308.022264780174,None,308.022264780174,None,,,,,,,,,,,,,,206,2023-03-29_14h56.42.487,Main,2022.1.1,59.983900310294544,
negative,positive,2,j,l,,,,,,,,,4,9,81,15,,,,,,,,,main,2,2,2,positive,negative,j,j,1,0.9152829998638481,308.0281464001164,309.04160050000064,309.02507620002143,None,308.0281464001164,None,308.0281464001164,None,308.0281464001164,None,309.93889078001956,None,309.93889078001956,None,309.93889078001956,None,,,,,,,,,,,,,,206,2023-03-29_14h56.42.487,Main,2022.1.1,59.983900310294544,
negative,neutral,2,j,l,,,,,,,,,4,10,82,12,,,,,,,,,main,1,1,2,neutral,negative,j,j,1,0.6484342999756336,309.9418937000446,310.93890710012056,310.93890710012056,None,309.9418937000446,None,309.9418937000446,None,309.9418937000446,None,311.5888892800314,None,311.5888892800314,None,311.5888892800314,None,,,,,,,,,,,,,,206,2023-03-29_14h56.42.487,Main,2022.1.1,59.983900310294544,
positive,negative,1,l,j,,,,,,,,,4,11,83,5,,,,,,,,,main,2,2,1,negative,positive,l,l,1,0.7154165001120418,311.59205209999345,312.591696199961,312.591696199961,None,311.59205209999345,None,311.59205209999345,None,311.59205209999345,None,313.3055099799996,None,313.3055099799996,None,313.3055099799996,None,,,,,,,,,,,,,,206,2023-03-29_14h56.42.487,Main,2022.1.1,59.983900310294544,
positive,positive,1,l,j,,,,,,,,,4,12,84,2,,,,,,,,,main,2,2,1,positive,positive,l,l,1,0.6481375999283046,313.30906040011905,314.3221627001185,314.30822909995914,None,313.30906040011905,None,313.30906040011905,None,313.30906040011905,None,314.95547778012696,None,314.95547778012696,None,314.95547778012696,None,,,,,,,,,,,,,,206,2023-03-29_14h56.42.487,Main,2022.1.1,59.983900310294544,
negative,positive,1,j,l,,,,,,,,,4,13,85,6,,,,,,,,,main,2,2,1,positive,negative,j,j,1,0.7319709998555481,314.9721578999888,315.9748671001289,315.9582118000835,None,314.9721578999888,None,314.9721578999888,None,314.9721578999888,None,316.68881458013783,None,316.68881458013783,None,316.68881458013783,None,,,,,,,,,,,,,,206,2023-03-29_14h56.42.487,Main,2022.1.1,59.983900310294544,
neutral,positive,2,k,k,,,,,,,,,4,14,86,13,,,,,,,,,main,2,2,2,positive,neutral,k,k,1,0.8147652999032289,316.69542030012235,317.7054099000525,317.68875210010447,None,316.69542030012235,None,316.69542030012235,None,316.69542030012235,None,318.5054302801611,None,318.5054302801611,None,318.5054302801611,None,,,,,,,,,,,,,,206,2023-03-29_14h56.42.487,Main,2022.1.1,59.983900310294544,
positive,neutral,1,l,j,,,,,,,,,4,15,87,8,,,,,,,,,main,2,2,1,neutral,positive,l,l,1,0.7147971000522375,318.50907890009694,319.5221206001006,319.5054429001175,None,318.50907890009694,None,318.50907890009694,None,318.50907890009694,None,320.22202178013976,None,320.22202178013976,None,320.22202178013976,None,,,,,,,,,,,,,,206,2023-03-29_14h56.42.487,Main,2022.1.1,59.983900310294544,
positive,positive,2,l,j,,,,,,,,,4,16,88,11,,,,,,,,,main,2,2,2,positive,positive,l,l,1,0.7151248999871314,320.22782030003145,321.2386717000045,321.2220073000062,None,320.22782030003145,None,320.22782030003145,None,320.22782030003145,None,321.93870197997893,None,321.93870197997893,None,321.93870197997893,None,,,,,,,,,,,,,,206,2023-03-29_14h56.42.487,Main,2022.1.1,59.983900310294544,
negative,neutral,1,j,l,,,,,,,,,4,17,89,3,,,,,,,,,main,1,1,1,neutral,negative,j,j,1,0.7316852000076324,321.94189100014046,322.9414367999416,322.9414367999416,None,321.94189100014046,None,321.94189100014046,None,321.94189100014046,None,323.6720242799958,None,323.6720242799958,None,323.6720242799958,None,,,,,,,,,,,,,,206,2023-03-29_14h56.42.487,Main,2022.1.1,59.983900310294544,
positive,neutral,2,l,j,,,,,,,,,5,0,90,17,,,,,,,,,main,1,1,2,neutral,positive,l,l,1,0.751090400153771,323.6753851000685,324.67194600007497,324.67194600007497,None,323.6753851000685,None,323.6753851000685,None,323.6753851000685,None,325.4246373799862,None,325.4246373799862,None,325.4246373799862,None,,,,,,,,,,,,,,206,2023-03-29_14h56.42.487,Main,2022.1.1,59.983900310294544,
positive,negative,2,l,j,,,,,,,,,5,1,91,14,,,,,,,,,main,2,2,2,negative,positive,l,l,1,0.5790497998241335,325.4275442000944,326.4412088000681,326.42199980001897,None,325.4275442000944,None,325.4275442000944,None,325.4275442000944,None,327.0052453800337,None,327.0052453800337,None,327.0052453800337,None,,,,,,,,,,,,,,206,2023-03-29_14h56.42.487,Main,2022.1.1,59.983900310294544,
negative,neutral,2,j,l,,,,,,,,,5,2,92,12,,,,,,,,,main,1,1,2,neutral,negative,j,j,1,0.7815550998784602,327.0084772000555,328.02196860010736,328.0080711999908,None,327.0084772000555,None,327.0084772000555,None,327.0084772000555,None,328.7885720801307,None,328.7885720801307,None,328.7885720801307,None,,,,,,,,,,,,,,206,2023-03-29_14h56.42.487,Main,2022.1.1,59.983900310294544,
neutral,negative,2,k,k,,,,,,,,,5,3,93,16,,,,,,,,,main,2,2,2,negative,neutral,k,k,1,0.7344468000810593,328.7931727000978,329.805170299951,329.77460710005835,None,328.7931727000978,None,328.7931727000978,None,328.7931727000978,None,330.52447718002367,None,330.52447718002367,None,330.52447718002367,None,,,,,,,,,,,,,,206,2023-03-29_14h56.42.487,Main,2022.1.1,59.983900310294544,
neutral,negative,1,k,k,,,,,,,,,5,4,94,7,,,,,,,,,main,2,2,1,negative,neutral,k,k,1,0.7293474001344293,330.52743989997543,331.5411605001427,331.52181880013086,None,330.52743989997543,None,330.52743989997543,None,330.52743989997543,None,332.2551230801502,None,332.2551230801502,None,332.2551230801502,None,,,,,,,,,,,,,,206,2023-03-29_14h56.42.487,Main,2022.1.1,59.983900310294544,
negative,neutral,1,j,l,,,,,,,,,5,5,95,3,,,,,,,,,main,2,2,1,neutral,negative,j,j,1,0.6846827999688685,332.2589867999777,333.27178830001503,333.23853600001894,None,332.2589867999777,None,332.2589867999777,None,332.2589867999777,None,333.9411232801387,None,333.9411232801387,None,333.9411232801387,None,,,,,,,,,,,,,,206,2023-03-29_14h56.42.487,Main,2022.1.1,59.983900310294544,
positive,positive,2,l,j,,,,,,,,,5,6,96,11,,,,,,,,,main,1,1,2,positive,positive,l,l,1,0.7318401001393795,333.943904499989,334.95774880005047,334.9411611999385,None,333.943904499989,None,333.943904499989,None,333.943904499989,None,335.6744307800429,None,335.6744307800429,None,335.6744307800429,None,,,,,,,,,,,,,,206,2023-03-29_14h56.42.487,Main,2022.1.1,59.983900310294544,
positive,positive,1,l,j,,,,,,,,,5,7,97,2,,,,,,,,,main,2,2,1,positive,positive,l,l,1,0.7622887999750674,335.6777838000562,336.6883692999836,336.6744500999339,None,335.6777838000562,None,335.6777838000562,None,335.6777838000562,None,337.4383378801169,None,337.4383378801169,None,337.4383378801169,None,,,,,,,,,,,,,,206,2023-03-29_14h56.42.487,Main,2022.1.1,59.983900310294544,
negative,positive,2,j,l,,,,,,,,,5,8,98,15,,,,,,,,,main,2,2,2,positive,negative,j,j,1,0.6986207999289036,337.44244490005076,338.4551272999961,338.44116370007396,None,337.44244490005076,None,337.44244490005076,None,337.44244490005076,None,339.13831758003215,None,339.13831758003215,None,339.13831758003215,None,,,,,,,,,,,,,,206,2023-03-29_14h56.42.487,Main,2022.1.1,59.983900310294544,
neutral,neutral,1,k,k,,,,,,,,,5,9,99,1,,,,,,,,,main,1,1,1,neutral,neutral,k,k,1,0.8676706999540329,339.1431154999882,340.15495080011897,340.1216323999688,None,339.1431154999882,None,339.1431154999882,None,339.1431154999882,None,341.0076133801369,None,341.0076133801369,None,341.0076133801369,None,,,,,,,,,,,,,,206,2023-03-29_14h56.42.487,Main,2022.1.1,59.983900310294544,
positive,negative,1,l,j,,,,,,,,,5,10,100,5,,,,,,,,,main,2,2,1,negative,positive,l,l,1,0.6625460998620838,341.0109796000179,342.0216769000981,342.0049233001191,None,341.0109796000179,None,341.0109796000179,None,341.0109796000179,None,342.67154198016505,None,342.67154198016505,None,342.67154198016505,None,,,,,,,,,,,,,,206,2023-03-29_14h56.42.487,Main,2022.1.1,59.983900310294544,
neutral,positive,1,k,k,,,,,,,,,5,11,101,4,,,,,,,,,main,1,1,1,positive,neutral,k,k,1,0.6983528998680413,342.67684630001895,343.6882043001242,343.6742928000167,None,342.67684630001895,None,342.67684630001895,None,342.67684630001895,None,344.37161257995757,None,344.37161257995757,None,344.37161257995757,None,,,,,,,,,,,,,,206,2023-03-29_14h56.42.487,Main,2022.1.1,59.983900310294544,
positive,neutral,1,l,j,,,,,,,,,5,12,102,8,,,,,,,,,main,1,1,1,neutral,positive,l,l,1,0.7337751998566091,344.37548519996926,345.3882073999848,345.3742776000872,None,344.37548519996926,None,344.37548519996926,None,344.37548519996926,None,346.10756327996495,None,346.10756327996495,None,346.10756327996495,None,,,,,,,,,,,,,,206,2023-03-29_14h56.42.487,Main,2022.1.1,59.983900310294544,
neutral,neutral,2,k,k,,,,,,,,,5,13,103,10,,,,,,,,,main,1,1,2,neutral,neutral,k,k,1,1.2448916998691857,346.11108590010554,347.12146440008655,347.10757079999894,None,346.11108590010554,None,346.11108590010554,None,346.11108590010554,None,348.35479808009694,None,348.35479808009694,None,348.35479808009694,None,,,,,,,,,,,,,,206,2023-03-29_14h56.42.487,Main,2022.1.1,59.983900310294544,
neutral,positive,2,k,k,,,,,,,,,5,14,104,13,,,,,,,,,main,2,2,2,positive,neutral,k,k,1,0.651007300009951,348.3581112001557,349.3575751001481,349.3575751001481,None,348.3581112001557,None,348.3581112001557,None,348.3581112001557,None,350.0073861800367,None,350.0073861800367,None,350.0073861800367,None,,,,,,,,,,,,,,206,2023-03-29_14h56.42.487,Main,2022.1.1,59.983900310294544,
negative,negative,1,j,l,,,,,,,,,5,15,105,0,,,,,,,,,main,2,2,1,negative,negative,j,j,1,0.695161199895665,350.01096590003,351.02410929999314,351.0047798999585,None,350.01096590003,None,350.01096590003,None,350.01096590003,None,351.7047175801592,None,351.7047175801592,None,351.7047175801592,None,,,,,,,,,,,,,,206,2023-03-29_14h56.42.487,Main,2022.1.1,59.983900310294544,
negative,negative,2,j,l,,,,,,,,,5,16,106,9,,,,,,,,,main,1,1,2,negative,negative,j,j,1,0.8484940999187529,351.710489399964,352.7240965999663,352.69082450005226,None,351.710489399964,None,351.710489399964,None,351.710489399964,None,353.5546983801061,None,353.5546983801061,None,353.5546983801061,None,,,,,,,,,,,,,,206,2023-03-29_14h56.42.487,Main,2022.1.1,59.983900310294544,
negative,positive,1,j,l,,,,,,,,,5,17,107,6,,,,,,,,,main,1,1,1,positive,negative,j,j,1,0.5678057998884469,353.55990540003404,354.57130950014107,354.554681800073,None,353.55990540003404,None,353.55990540003404,None,353.55990540003404,None,355.1239949801704,None,355.1239949801704,None,355.1239949801704,None,,,,,,,,,,,,,,206,2023-03-29_14h56.42.487,Main,2022.1.1,59.983900310294544,
neutral,negative,1,k,k,,,,,,,,,6,0,108,7,,,,,,,,,main,2,2,1,negative,neutral,k,k,1,0.69602179992944,355.12677760003135,356.1380271001253,356.12130240001716,None,355.12677760003135,None,355.12677760003135,None,355.12677760003135,None,356.8213005800964,None,356.8213005800964,None,356.8213005800964,None,,,,,,,,,,,,,,206,2023-03-29_14h56.42.487,Main,2022.1.1,59.983900310294544,
negative,neutral,1,j,l,,,,,,,,,6,1,109,3,,,,,,,,,main,1,1,1,neutral,negative,j,j,1,0.7314226001035422,356.82674250006676,357.8379373999778,357.82399219996296,None,356.82674250006676,None,356.82674250006676,None,356.82674250006676,None,358.5545548800612,None,358.5545548800612,None,358.5545548800612,None,,,,,,,,,,,,,,206,2023-03-29_14h56.42.487,Main,2022.1.1,59.983900310294544,
neutral,negative,2,k,k,,,,,,,,,6,2,110,16,,,,,,,,,main,1,1,2,negative,neutral,k,k,1,0.6153568001464009,358.557523699943,359.5740125000011,359.55456730001606,None,358.557523699943,None,358.557523699943,None,358.557523699943,None,360.17121308010536,None,360.17121308010536,None,360.17121308010536,None,,,,,,,,,,,,,,206,2023-03-29_14h56.42.487,Main,2022.1.1,59.983900310294544,
negative,positive,1,j,l,,,,,,,,,6,3,111,6,,,,,,,,,main,2,2,1,positive,negative,j,j,1,0.716117300093174,360.17461890005507,361.1878547000233,361.17124429997057,None,360.17461890005507,None,360.17461890005507,None,360.17461890005507,None,361.88791888013947,None,361.88791888013947,None,361.88791888013947,None,,,,,,,,,,,,,,206,2023-03-29_14h56.42.487,Main,2022.1.1,59.983900310294544,
neutral,neutral,2,k,k,,,,,,,,,6,4,112,10,,,,,,,,,main,2,2,2,neutral,neutral,k,k,1,0.5974221997894347,361.89189890003763,362.9045067001134,362.8905172999948,None,361.89189890003763,None,361.89189890003763,None,361.89189890003763,None,363.48778628015424,None,363.48778628015424,None,363.48778628015424,None,,,,,,,,,,,,,,206,2023-03-29_14h56.42.487,Main,2022.1.1,59.983900310294544,
positive,neutral,2,l,j,,,,,,,,,6,5,113,17,,,,,,,,,main,2,2,2,neutral,positive,l,l,1,0.7982831001281738,363.4965460000094,364.507239199942,364.4905832000077,None,363.4965460000094,None,363.4965460000094,None,363.4965460000094,None,365.28774028008337,None,365.28774028008337,None,365.28774028008337,None,,,,,,,,,,,,,,206,2023-03-29_14h56.42.487,Main,2022.1.1,59.983900310294544,
negative,positive,2,j,l,,,,,,,,,6,6,114,15,,,,,,,,,main,1,1,2,positive,negative,j,j,1,0.8147566001862288,365.2925867000595,366.30715210014023,366.2877692000475,None,365.2925867000595,None,365.2925867000595,None,365.2925867000595,None,367.1041370799532,None,367.1041370799532,None,367.1041370799532,None,,,,,,,,,,,,,,206,2023-03-29_14h56.42.487,Main,2022.1.1,59.983900310294544,
positive,neutral,1,l,j,,,,,,,,,6,7,115,8,,,,,,,,,main,2,2,1,neutral,positive,l,l,1,0.7988205999135971,367.1091344000306,368.1210620000493,368.10438739997335,None,367.1091344000306,None,367.1091344000306,None,367.1091344000306,None,368.9043307799613,None,368.9043307799613,None,368.9043307799613,None,,,,,,,,,,,,,,206,2023-03-29_14h56.42.487,Main,2022.1.1,59.983900310294544,
neutral,positive,1,k,k,,,,,,,,,6,8,116,4,,,,,,,,,main,2,2,1,positive,neutral,k,k,1,0.665225800126791,368.9096469001379,369.9210103000514,369.9072080999613,None,368.9096469001379,None,368.9096469001379,None,368.9096469001379,None,370.5709893800551,None,370.5709893800551,None,370.5709893800551,None,,,,,,,,,,,,,,206,2023-03-29_14h56.42.487,Main,2022.1.1,59.983900310294544,
positive,negative,2,l,j,,,,,,,,,6,9,117,14,,,,,,,,,main,1,1,2,negative,positive,l,l,1,0.831468400079757,370.5764504999388,371.59034610004164,371.57098089996725,None,370.5764504999388,None,370.5764504999388,None,370.5764504999388,None,372.40429288002196,None,372.40429288002196,None,372.40429288002196,None,,,,,,,,,,,,,,206,2023-03-29_14h56.42.487,Main,2022.1.1,59.983900310294544,
neutral,neutral,1,k,k,,,,,,,,,6,10,118,1,,,,,,,,,main,2,2,1,neutral,neutral,k,k,1,0.66545239998959,372.40760460007004,373.4236600000877,373.40704290010035,None,372.40760460007004,None,372.40760460007004,None,372.40760460007004,None,374.0712959800614,None,374.0712959800614,None,374.0712959800614,None,,,,,,,,,,,,,,206,2023-03-29_14h56.42.487,Main,2022.1.1,59.983900310294544,
positive,negative,1,l,j,,,,,,,,,6,11,119,5,,,,,,,,,main,1,1,1,negative,positive,l,l,1,0.6984969999175519,374.0774497000966,375.08766390010715,375.0736469000112,None,374.0774497000966,None,374.0774497000966,None,374.0774497000966,None,375.7708911799593,None,375.7708911799593,None,375.7708911799593,None,,,,,,,,,,,,,,206,2023-03-29_14h56.42.487,Main,2022.1.1,59.983900310294544,
negative,negative,2,j,l,,,,,,,,,6,12,120,9,,,,,,,,,main,2,2,2,negative,negative,j,j,1,0.798022799892351,375.77456520008855,376.7875497001223,376.77095600008033,None,375.77456520008855,None,375.77456520008855,None,375.77456520008855,None,377.5708599800011,None,377.5708599800011,None,377.5708599800011,None,,,,,,,,,,,,,,206,2023-03-29_14h56.42.487,Main,2022.1.1,59.983900310294544,
neutral,positive,2,k,k,,,,,,,,,6,13,121,13,,,,,,,,,main,1,1,2,positive,neutral,k,k,1,0.7650017000269145,377.57613250007853,378.587538999971,378.5708506000228,None,377.57613250007853,None,377.57613250007853,None,377.57613250007853,None,379.3374802800128,None,379.3374802800128,None,379.3374802800128,None,,,,,,,,,,,,,,206,2023-03-29_14h56.42.487,Main,2022.1.1,59.983900310294544,
positive,positive,1,l,j,,,,,,,,,6,14,122,2,,,,,,,,,main,2,2,1,positive,positive,l,l,1,0.7319259000942111,379.342744700145,380.35415400005877,380.33745590015315,None,379.342744700145,None,379.342744700145,None,379.342744700145,None,381.07079158017876,None,381.07079158017876,None,381.07079158017876,None,,,,,,,,,,,,,,206,2023-03-29_14h56.42.487,Main,2022.1.1,59.983900310294544,
negative,neutral,2,j,l,,,,,,,,,6,15,123,12,,,,,,,,,main,2,2,2,neutral,negative,j,j,1,0.7148502001073211,381.07633009995334,382.0874509999994,382.0707964999601,None,381.07633009995334,None,381.07633009995334,None,381.07633009995334,None,382.7874072801089,None,382.7874072801089,None,382.7874072801089,None,,,,,,,,,,,,,,206,2023-03-29_14h56.42.487,Main,2022.1.1,59.983900310294544,
negative,negative,1,j,l,,,,,,,,,6,16,124,0,,,,,,,,,main,2,2,1,negative,negative,j,j,1,0.701282300055027,382.7924609000329,383.80675200000405,383.77349460008554,None,382.7924609000329,None,382.7924609000329,None,382.7924609000329,None,384.48997428005094,None,384.48997428005094,None,384.48997428005094,None,,,,,,,,,,,,,,206,2023-03-29_14h56.42.487,Main,2022.1.1,59.983900310294544,
positive,positive,2,l,j,,,,,,,,,6,17,125,11,,,,,,,,,main,1,1,2,positive,positive,l,l,1,0.7457601998466998,384.4929357999936,385.50406370009296,385.48738770000637,None,384.4929357999936,None,384.4929357999936,None,384.4929357999936,None,386.2373446800513,None,386.2373446800513,None,386.2373446800513,None,,,,,,,,,,,,,,206,2023-03-29_14h56.42.487,Main,2022.1.1,59.983900310294544,
negative,negative,2,j,l,,,,,,,,,7,0,126,9,,,,,,,,,main,1,1,2,negative,negative,j,j,1,0.7148796000983566,386.24271879997104,387.2539911000058,387.2401390001178,None,386.24271879997104,None,386.24271879997104,None,386.24271879997104,None,387.95395697995554,None,387.95395697995554,None,387.95395697995554,None,,,,,,,,,,,,,,206,2023-03-29_14h56.42.487,Main,2022.1.1,59.983900310294544,
positive,positive,2,l,j,,,,,,,,,7,1,127,11,,,,,,,,,main,2,2,2,positive,positive,l,l,1,0.7846927000209689,387.9592716000043,388.97064299997874,388.9540238000918,None,387.9592716000043,None,387.9592716000043,None,387.9592716000043,None,389.7399940799689,None,389.7399940799689,None,389.7399940799689,None,,,,,,,,,,,,,,206,2023-03-29_14h56.42.487,Main,2022.1.1,59.983900310294544,
negative,positive,1,j,l,,,,,,,,,7,2,128,6,,,,,,,,,main,1,1,1,positive,negative,j,j,1,0.7483288999646902,389.74358070013113,390.753958000103,390.7373095001094,None,389.74358070013113,None,389.74358070013113,None,389.74358070013113,None,391.49006897995713,None,391.49006897995713,None,391.49006897995713,None,,,,,,,,,,,,,,206,2023-03-29_14h56.42.487,Main,2022.1.1,59.983900310294544,
neutral,negative,1,k,k,,,,,,,,,7,3,129,7,,,,,,,,,main,2,2,1,negative,neutral,k,k,1,0.6622651999350637,391.4931594999507,392.5039008001331,392.4900386000518,None,391.4931594999507,None,391.4931594999507,None,391.4931594999507,None,393.1538896799786,None,393.1538896799786,None,393.1538896799786,None,,,,,,,,,,,,,,206,2023-03-29_14h56.42.487,Main,2022.1.1,59.983900310294544,
neutral,positive,2,k,k,,,,,,,,,7,4,130,13,,,,,,,,,main,1,1,2,positive,neutral,k,k,1,0.8149433999788016,393.1594205000438,394.17319550015964,394.15388739993796,None,393.1594205000438,None,393.1594205000438,None,393.1594205000438,None,394.97049788006115,None,394.97049788006115,None,394.97049788006115,None,,,,,,,,,,,,,,206,2023-03-29_14h56.42.487,Main,2022.1.1,59.983900310294544,
neutral,neutral,1,k,k,,,,,,,,,7,5,131,1,,,,,,,,,main,2,2,1,neutral,neutral,k,k,1,0.6676570000126958,394.97346780006774,395.9871465000324,395.970464900136,None,394.97346780006774,None,394.97346780006774,None,394.97346780006774,None,396.6397008799715,None,396.6397008799715,None,396.6397008799715,None,,,,,,,,,,,,,,206,2023-03-29_14h56.42.487,Main,2022.1.1,59.983900310294544,
positive,positive,1,l,j,,,,,,,,,7,6,132,2,,,,,,,,,main,2,2,1,positive,positive,l,l,1,0.7791155001614243,396.64425010001287,397.65386159997433,397.63989059999585,None,396.64425010001287,None,396.64425010001287,None,396.64425010001287,None,398.42041597997303,None,398.42041597997303,None,398.42041597997303,None,,,,,,,,,,,,,,206,2023-03-29_14h56.42.487,Main,2022.1.1,59.983900310294544,
positive,neutral,2,l,j,,,,,,,,,7,7,133,17,,,,,,,,,main,1,1,2,neutral,positive,l,l,1,0.7482992999721318,398.4237756000366,399.4371174001135,399.42319570016116,None,398.4237756000366,None,398.4237756000366,None,398.4237756000366,None,400.17036418004426,None,400.17036418004426,None,400.17036418004426,None,,,,,,,,,,,,,,206,2023-03-29_14h56.42.487,Main,2022.1.1,59.983900310294544,
neutral,negative,2,k,k,,,,,,,,,7,8,134,16,,,,,,,,,main,1,1,2,negative,neutral,k,k,1,0.6818423999939114,400.1731953001581,401.18973660003394,401.17314189998433,None,400.1731953001581,None,400.1731953001581,None,400.1731953001581,None,401.85373078000265,None,401.85373078000265,None,401.85373078000265,None,,,,,,,,,,,,,,206,2023-03-29_14h56.42.487,Main,2022.1.1,59.983900310294544,
positive,negative,2,l,j,,,,,,,,,7,9,135,14,,,,,,,,,main,2,2,2,negative,positive,l,l,1,2.1149227002169937,401.8588354999665,402.87036249996163,402.8565971001517,None,401.8588354999665,None,401.8588354999665,None,401.8588354999665,None,404.9702850000467,None,404.9702850000467,None,404.9702850000467,None,,,,,,,,,,,,,,206,2023-03-29_14h56.42.487,Main,2022.1.1,59.983900310294544,
positive,negative,1,l,j,,,,,,,,,7,10,136,5,,,,,,,,,main,2,2,1,negative,positive,l,l,1,0.8177658999338746,405.9713119000662,406.98690450005233,406.9535928000696,None,405.9713119000662,None,405.9713119000662,None,405.9713119000662,None,407.78689588017295,None,407.78689588017295,None,407.78689588017295,None,,,,,,,,,,,,,,206,2023-03-29_14h56.42.487,Main,2022.1.1,59.983900310294544,
neutral,positive,1,k,k,,,,,,,,,7,11,137,4,,,,,,,,,main,1,1,1,positive,neutral,k,k,1,0.7306562999729067,407.79133020015433,408.8035470000468,408.78969320002943,None,407.79133020015433,None,407.79133020015433,None,407.79133020015433,None,409.52018448004964,None,409.52018448004964,None,409.52018448004964,None,,,,,,,,,,,,,,206,2023-03-29_14h56.42.487,Main,2022.1.1,59.983900310294544,
negative,neutral,2,j,l,,,,,,,,,7,12,138,12,,,,,,,,,main,2,2,2,neutral,negative,j,j,1,0.8150671001058072,409.525703900028,410.5395200001076,410.52018210012466,None,409.525703900028,None,409.525703900028,None,409.525703900028,None,411.33692938012535,None,411.33692938012535,None,411.33692938012535,None,,,,,,,,,,,,,,206,2023-03-29_14h56.42.487,Main,2022.1.1,59.983900310294544,
neutral,neutral,2,k,k,,,,,,,,,7,13,139,10,,,,,,,,,main,1,1,2,neutral,neutral,k,k,1,1.097844700096175,411.34169850009494,412.3563681000378,412.33681190013885,None,411.34169850009494,None,411.34169850009494,None,411.34169850009494,None,413.436551280017,None,413.436551280017,None,413.436551280017,None,,,,,,,,,,,,,,206,2023-03-29_14h56.42.487,Main,2022.1.1,59.983900310294544,
negative,negative,1,j,l,,,,,,,,,7,14,140,0,,,,,,,,,main,2,2,1,negative,negative,j,j,1,0.7986091999337077,413.43986340006813,414.4534289999865,414.43677909998223,None,413.43986340006813,None,413.43986340006813,None,413.43986340006813,None,415.2367312800372,None,415.2367312800372,None,415.2367312800372,None,,,,,,,,,,,,,,206,2023-03-29_14h56.42.487,Main,2022.1.1,59.983900310294544,
positive,neutral,1,l,j,,,,,,,,,7,15,141,8,,,,,,,,,main,2,2,1,neutral,positive,l,l,1,0.8154653999954462,415.24016669997945,416.2533631999977,416.2367086999584,None,415.24016669997945,None,415.24016669997945,None,415.24016669997945,None,417.05337388014885,None,417.05337388014885,None,417.05337388014885,None,,,,,,,,,,,,,,206,2023-03-29_14h56.42.487,Main,2022.1.1,59.983900310294544,
negative,neutral,1,j,l,,,,,,,,,7,16,142,3,,,,,,,,,main,2,2,1,neutral,negative,j,j,1,0.7504823000635952,417.05786660010926,418.07002370012924,418.05342090013437,None,417.05786660010926,None,417.05786660010926,None,417.05786660010926,None,418.8061335800914,None,418.8061335800914,None,418.8061335800914,None,,,,,,,,,,,,,,206,2023-03-29_14h56.42.487,Main,2022.1.1,59.983900310294544,
negative,positive,2,j,l,,,,,,,,,7,17,143,15,,,,,,,,,main,2,2,2,positive,negative,j,j,1,0.7655738000757992,418.81096330005676,419.8227024001535,419.80341159994714,None,418.81096330005676,None,418.81096330005676,None,418.81096330005676,None,420.57427328003104,None,420.57427328003104,None,420.57427328003104,None,,,,,,,,,,,,,,206,2023-03-29_14h56.42.487,Main,2022.1.1,59.983900310294544,
neutral,positive,2,k,k,,,,,,,,,8,0,144,13,,,,,,,,,main,2,2,2,positive,neutral,k,k,1,0.696819799952209,420.5774538000114,421.5866175999399,421.5699477000162,None,420.5774538000114,None,420.5774538000114,None,420.5774538000114,None,422.2726158801699,None,422.2726158801699,None,422.2726158801699,None,,,,,,,,,,,,,,206,2023-03-29_14h56.42.487,Main,2022.1.1,59.983900310294544,
neutral,positive,1,k,k,,,,,,,,,8,1,145,4,,,,,,,,,main,1,1,1,positive,neutral,k,k,1,0.6780956999864429,422.2767722001299,423.2865868001245,423.2699178000912,None,422.2767722001299,None,422.2767722001299,None,422.2767722001299,None,423.95320668017956,None,423.95320668017956,None,423.95320668017956,None,,,,,,,,,,,,,,206,2023-03-29_14h56.42.487,Main,2022.1.1,59.983900310294544,
negative,positive,2,j,l,,,,,,,,,8,2,146,15,,,,,,,,,main,1,1,2,positive,negative,j,j,1,0.7508786001708359,423.9581704000011,424.96989220008254,424.95321179996245,None,423.9581704000011,None,423.9581704000011,None,423.9581704000011,None,425.7058910801308,None,425.7058910801308,None,425.7058910801308,None,,,,,,,,,,,,,,206,2023-03-29_14h56.42.487,Main,2022.1.1,59.983900310294544,
neutral,negative,1,k,k,,,,,,,,,8,3,147,7,,,,,,,,,main,2,2,1,negative,neutral,k,k,1,0.662280400050804,425.7096921999473,426.7198814000003,426.70320510002784,None,425.7096921999473,None,425.7096921999473,None,425.7096921999473,None,427.3696105800802,None,427.3696105800802,None,427.3696105800802,None,,,,,,,,,,,,,,206,2023-03-29_14h56.42.487,Main,2022.1.1,59.983900310294544,
negative,neutral,2,j,l,,,,,,,,,8,4,148,12,,,,,,,,,main,1,1,2,neutral,negative,j,j,1,0.6817179000936449,427.37275149999186,428.3891793000512,428.3698279999662,None,427.37275149999186,None,427.37275149999186,None,427.37275149999186,None,429.0531020801747,None,429.0531020801747,None,429.0531020801747,None,,,,,,,,,,,,,,206,2023-03-29_14h56.42.487,Main,2022.1.1,59.983900310294544,
negative,negative,1,j,l,,,,,,,,,8,5,149,0,,,,,,,,,main,1,1,1,negative,negative,j,j,1,0.6817819999996573,429.0563006999437,430.0697717999574,430.0364475999959,None,429.0563006999437,None,429.0563006999437,None,429.0563006999437,None,430.7364195801085,None,430.7364195801085,None,430.7364195801085,None,,,,,,,,,,,,,,206,2023-03-29_14h56.42.487,Main,2022.1.1,59.983900310294544,
positive,positive,2,l,j,,,,,,,,,8,6,150,11,,,,,,,,,main,1,1,2,positive,positive,l,l,1,0.7649460998363793,430.7416960000992,431.7530801000539,431.73639890016057,None,430.7416960000992,None,430.7416960000992,None,430.7416960000992,None,432.50302498012314,None,432.50302498012314,None,432.50302498012314,None,,,,,,,,,,,,,,206,2023-03-29_14h56.42.487,Main,2022.1.1,59.983900310294544,
neutral,negative,2,k,k,,,,,,,,,8,7,151,16,,,,,,,,,main,2,2,2,negative,neutral,k,k,1,0.848148399963975,432.50833040010184,433.5197479000781,433.50583130004816,None,432.50833040010184,None,432.50833040010184,None,432.50833040010184,None,434.3529819801217,None,434.3529819801217,None,434.3529819801217,None,,,,,,,,,,,,,,206,2023-03-29_14h56.42.487,Main,2022.1.1,59.983900310294544,
positive,negative,2,l,j,,,,,,,,,8,8,152,14,,,,,,,,,main,2,2,2,negative,positive,l,l,1,0.7830449000466615,434.3582493001595,435.3724624000024,435.3557164000813,None,434.3582493001595,None,434.3582493001595,None,434.3582493001595,None,436.13629328010137,None,436.13629328010137,None,436.13629328010137,None,,,,,,,,,,,,,,206,2023-03-29_14h56.42.487,Main,2022.1.1,59.983900310294544,
positive,negative,1,l,j,,,,,,,,,8,9,153,5,,,,,,,,,main,1,1,1,negative,positive,l,l,1,1.2476317000109702,436.1402551000938,437.15562120010145,437.13628340000287,None,436.1402551000938,None,436.1402551000938,None,436.1402551000938,None,438.3861836799653,None,438.3861836799653,None,438.3861836799653,None,,,,,,,,,,,,,,206,2023-03-29_14h56.42.487,Main,2022.1.1,59.983900310294544,
neutral,neutral,1,k,k,,,,,,,,,8,10,154,1,,,,,,,,,main,2,2,1,neutral,neutral,k,k,1,0.6815730000380427,438.39263240015134,439.40294310008176,439.3862674999982,None,438.39263240015134,None,438.39263240015134,None,438.39263240015134,None,440.0695327801397,None,440.0695327801397,None,440.0695327801397,None,,,,,,,,,,,,,,206,2023-03-29_14h56.42.487,Main,2022.1.1,59.983900310294544,
positive,positive,1,l,j,,,,,,,,,8,11,155,2,,,,,,,,,main,2,2,1,positive,positive,l,l,1,0.6147794998250902,440.07356479996815,441.08884470001794,441.06953960005194,None,440.07356479996815,None,440.07356479996815,None,440.07356479996815,None,441.686235680175,None,441.686235680175,None,441.686235680175,None,,,,,,,,,,,,,,206,2023-03-29_14h56.42.487,Main,2022.1.1,59.983900310294544,
positive,neutral,1,l,j,,,,,,,,,8,12,156,8,,,,,,,,,main,2,2,1,neutral,positive,l,l,1,0.6316862001549453,441.6893577000592,442.7055594001431,442.6889429001603,None,441.6893577000592,None,441.6893577000592,None,441.6893577000592,None,443.3193545801798,None,443.3193545801798,None,443.3193545801798,None,,,,,,,,,,,,,,206,2023-03-29_14h56.42.487,Main,2022.1.1,59.983900310294544,
neutral,neutral,2,k,k,,,,,,,,,8,13,157,10,,,,,,,,,main,2,2,2,neutral,neutral,k,k,1,0.5986294001340866,443.32579479995184,444.3388356999494,444.3194842999801,None,443.32579479995184,None,443.32579479995184,None,443.32579479995184,None,444.91948818012605,None,444.91948818012605,None,444.91948818012605,None,,,,,,,,,,,,,,206,2023-03-29_14h56.42.487,Main,2022.1.1,59.983900310294544,
positive,neutral,2,l,j,,,,,,,,,8,14,158,17,,,,,,,,,main,2,2,2,neutral,positive,l,l,1,0.7151104998774827,444.9249671001453,445.938778599957,445.91949120000936,None,444.9249671001453,None,444.9249671001453,None,444.9249671001453,None,446.63619857996235,None,446.63619857996235,None,446.63619857996235,None,,,,,,,,,,,,,,206,2023-03-29_14h56.42.487,Main,2022.1.1,59.983900310294544,
negative,negative,2,j,l,,,,,,,,,8,15,159,9,,,,,,,,,main,2,2,2,negative,negative,j,j,1,0.981441400013864,446.6414302000776,447.6553861000575,447.6387742999941,None,446.6414302000776,None,446.6414302000776,None,446.6414302000776,None,448.6193771801656,None,448.6193771801656,None,448.6193771801656,None,,,,,,,,,,,,,,206,2023-03-29_14h56.42.487,Main,2022.1.1,59.983900310294544,
negative,neutral,1,j,l,,,,,,,,,8,16,160,3,,,,,,,,,main,2,2,1,neutral,negative,j,j,1,0.648536599939689,448.6244920999743,449.6360852001235,449.60546630015597,None,448.6244920999743,None,448.6244920999743,None,448.6244920999743,None,450.2693392801331,None,450.2693392801331,None,450.2693392801331,None,,,,,,,,,,,,,,206,2023-03-29_14h56.42.487,Main,2022.1.1,59.983900310294544,
negative,positive,1,j,l,,,,,,,,,8,17,161,6,,,,,,,,,main,2,2,1,positive,negative,j,j,1,0.6691408001352102,450.2747025999706,451.2886147000827,451.26931590004824,None,450.2747025999706,None,450.2747025999706,None,450.2747025999706,None,451.9359585800441,None,451.9359585800441,None,451.9359585800441,None,,,,,,,,,,,,,,206,2023-03-29_14h56.42.487,Main,2022.1.1,59.983900310294544,
neutral,negative,2,k,k,,,,,,,,,9,0,162,16,,,,,,,,,main,1,1,2,negative,neutral,k,k,1,0.6933049000799656,451.9441245000344,452.955357800005,452.93871360016055,None,451.9441245000344,None,451.9441245000344,None,451.9441245000344,None,453.63593398004303,None,453.63593398004303,None,453.63593398004303,None,,,,,,,,,,,,,,206,2023-03-29_14h56.42.487,Main,2022.1.1,59.983900310294544,
negative,positive,2,j,l,,,,,,,,,9,1,163,15,,,,,,,,,main,1,1,2,positive,negative,j,j,1,0.8503172001801431,453.64161349995993,454.6526073999703,454.63600270007737,None,453.64161349995993,None,453.64161349995993,None,453.64161349995993,None,455.48589438006746,None,455.48589438006746,None,455.48589438006746,None,,,,,,,,,,,,,,206,2023-03-29_14h56.42.487,Main,2022.1.1,59.983900310294544,
negative,neutral,1,j,l,,,,,,,,,9,2,164,3,,,,,,,,,main,2,2,1,neutral,negative,j,j,1,0.8161329999566078,455.4919606000185,456.5025822999887,456.4859510001261,None,455.4919606000185,None,455.4919606000185,None,455.4919606000185,None,457.30519658017437,None,457.30519658017437,None,457.30519658017437,None,,,,,,,,,,,,,,206,2023-03-29_14h56.42.487,Main,2022.1.1,59.983900310294544,
positive,positive,2,l,j,,,,,,,,,9,3,165,11,,,,,,,,,main,2,2,2,positive,positive,l,l,1,0.7457972001284361,457.30822290014476,458.31915260013193,458.30258710007183,None,457.30822290014476,None,457.30822290014476,None,457.30822290014476,None,459.0524676800007,None,459.0524676800007,None,459.0524676800007,None,,,,,,,,,,,,,,206,2023-03-29_14h56.42.487,Main,2022.1.1,59.983900310294544,
neutral,neutral,1,k,k,,,,,,,,,9,4,166,1,,,,,,,,,main,2,2,1,neutral,neutral,k,k,1,0.6308255000039935,459.05821659998037,460.0691448999569,460.05248149996623,None,459.05821659998037,None,459.05821659998037,None,459.05821659998037,None,460.6856870799558,None,460.6856870799558,None,460.6856870799558,None,,,,,,,,,,,,,,206,2023-03-29_14h56.42.487,Main,2022.1.1,59.983900310294544,
negative,negative,2,j,l,,,,,,,,,9,5,167,9,,,,,,,,,main,2,2,2,negative,negative,j,j,1,0.6492029000073671,460.6962762000039,461.7024717000313,461.6857922000345,None,460.6962762000039,None,460.6962762000039,None,460.6962762000039,None,462.33576798012945,None,462.33576798012945,None,462.33576798012945,None,,,,,,,,,,,,,,206,2023-03-29_14h56.42.487,Main,2022.1.1,59.983900310294544,
negative,neutral,2,j,l,,,,,,,,,9,6,168,12,,,,,,,,,main,2,2,2,neutral,negative,j,j,1,0.6141156000085175,462.3417648000177,463.3524160000961,463.33580980007537,None,462.3417648000177,None,462.3417648000177,None,462.3417648000177,None,463.9524393800413,None,463.9524393800413,None,463.9524393800413,None,,,,,,,,,,,,,,206,2023-03-29_14h56.42.487,Main,2022.1.1,59.983900310294544,
neutral,positive,1,k,k,,,,,,,,,9,7,169,4,,,,,,,,,main,2,2,1,positive,neutral,k,k,1,0.6818377000745386,463.9557038999628,464.95511350012384,464.9384771999903,None,463.9557038999628,None,463.9557038999628,None,463.9557038999628,None,465.6356639800826,None,465.6356639800826,None,465.6356639800826,None,,,,,,,,,,,,,,206,2023-03-29_14h56.42.487,Main,2022.1.1,59.983900310294544,
positive,positive,1,l,j,,,,,,,,,9,8,170,2,,,,,,,,,main,1,1,1,positive,positive,l,l,1,0.7317550999578089,465.64087170013227,466.6550301001407,466.6356957999524,None,465.64087170013227,None,465.64087170013227,None,465.64087170013227,None,467.3689771801466,None,467.3689771801466,None,467.3689771801466,None,,,,,,,,,,,,,,206,2023-03-29_14h56.42.487,Main,2022.1.1,59.983900310294544,
positive,negative,1,l,j,,,,,,,,,9,9,171,5,,,,,,,,,main,2,2,1,negative,positive,l,l,1,0.5817823000252247,467.37431710003875,468.3856540999841,468.3690313999541,None,467.37431710003875,None,467.37431710003875,None,467.37431710003875,None,468.95231117999646,None,468.95231117999646,None,468.95231117999646,None,,,,,,,,,,,,,,206,2023-03-29_14h56.42.487,Main,2022.1.1,59.983900310294544,
neutral,negative,1,k,k,,,,,,,,,9,10,172,7,,,,,,,,,main,1,1,1,negative,neutral,k,k,1,0.681687599979341,468.9583298000507,469.97167870006524,469.95230580004863,None,468.9583298000507,None,468.9583298000507,None,468.9583298000507,None,470.6355702799512,None,470.6355702799512,None,470.6355702799512,None,,,,,,,,,,,,,,206,2023-03-29_14h56.42.487,Main,2022.1.1,59.983900310294544,
positive,neutral,1,l,j,,,,,,,,,9,11,173,8,,,,,,,,,main,2,2,1,neutral,positive,l,l,1,0.7317197998054326,470.6410972001031,471.6522490000352,471.6355626999866,None,470.6410972001031,None,470.6410972001031,None,470.6410972001031,None,472.3688865801552,None,472.3688865801552,None,472.3688865801552,None,,,,,,,,,,,,,,206,2023-03-29_14h56.42.487,Main,2022.1.1,59.983900310294544,
negative,positive,1,j,l,,,,,,,,,9,12,174,6,,,,,,,,,main,1,1,1,positive,negative,j,j,1,0.8150762999430299,472.37433829996735,473.38556580012664,473.3688996001147,None,472.37433829996735,None,472.37433829996735,None,472.37433829996735,None,474.18552758002187,None,474.18552758002187,None,474.18552758002187,None,,,,,,,,,,,,,,206,2023-03-29_14h56.42.487,Main,2022.1.1,59.983900310294544,
positive,neutral,2,l,j,,,,,,,,,9,13,175,17,,,,,,,,,main,1,1,2,neutral,positive,l,l,1,0.6980353000108153,474.1910953000188,475.202170799952,475.18559390003793,None,474.1910953000188,None,474.1910953000188,None,474.1910953000188,None,475.8854833801044,None,475.8854833801044,None,475.8854833801044,None,,,,,,,,,,,,,,206,2023-03-29_14h56.42.487,Main,2022.1.1,59.983900310294544,
negative,negative,1,j,l,,,,,,,,,9,14,176,0,,,,,,,,,main,1,1,1,negative,negative,j,j,1,1.1305102000478655,475.891500600148,476.9021795000881,476.8855302000884,None,475.891500600148,None,475.891500600148,None,475.891500600148,None,478.0187993800966,None,478.0187993800966,None,478.0187993800966,None,,,,,,,,,,,,,,206,2023-03-29_14h56.42.487,Main,2022.1.1,59.983900310294544,
neutral,neutral,2,k,k,,,,,,,,,9,15,177,10,,,,,,,,,main,2,2,2,neutral,neutral,k,k,1,0.7845596999395639,478.02386900014244,479.03807789995335,479.0187947000377,None,478.02386900014244,None,478.02386900014244,None,478.02386900014244,None,479.8047591801034,None,479.8047591801034,None,479.8047591801034,None,,,,,,,,,,,,,,206,2023-03-29_14h56.42.487,Main,2022.1.1,59.983900310294544,
neutral,positive,2,k,k,,,,,,,,,9,16,178,13,,,,,,,,,main,2,2,2,positive,neutral,k,k,1,0.5958150001242757,479.8072995999828,480.8187339999713,480.8020733001176,None,479.8072995999828,None,479.8072995999828,None,479.8072995999828,None,481.40203268004115,None,481.40203268004115,None,481.40203268004115,None,,,,,,,,,,,,,,206,2023-03-29_14h56.42.487,Main,2022.1.1,59.983900310294544,
positive,negative,2,l,j,,,,,,,,,9,17,179,14,,,,,,,,,main,2,2,2,negative,positive,l,l,1,0.681596300099045,481.4131555000786,482.418720100075,482.4020341001451,None,481.4131555000786,None,481.4131555000786,None,481.4131555000786,None,483.08535057997796,None,483.08535057997796,None,483.08535057997796,None,,,,,,,,,,,,,,206,2023-03-29_14h56.42.487,Main,2022.1.1,59.983900310294544,
neutral,negative,1,k,k,,,,,,,,,10,0,180,7,,,,,,,,,main,2,2,1,negative,neutral,k,k,1,0.7012505000457168,483.0945077999495,484.10198780009523,484.08813729998656,None,483.0945077999495,None,483.0945077999495,None,483.0945077999495,None,484.788243180071,None,484.788243180071,None,484.788243180071,None,,,,,,,,,,,,,,206,2023-03-29_14h56.42.487,Main,2022.1.1,59.983900310294544,
neutral,positive,1,k,k,,,,,,,,,10,1,181,4,,,,,,,,,main,2,2,1,positive,neutral,k,k,1,0.6616509999148548,484.7923910000827,485.80198940006085,485.78532889997587,None,484.7923910000827,None,484.7923910000827,None,484.7923910000827,None,486.4519328800263,None,486.4519328800263,None,486.4519328800263,None,,,,,,,,,,,,,,206,2023-03-29_14h56.42.487,Main,2022.1.1,59.983900310294544,
positive,negative,1,l,j,,,,,,,,,10,2,182,5,,,,,,,,,main,2,2,1,negative,positive,l,l,1,0.864736600080505,486.4575249000918,487.4686328000389,487.45473340013996,None,486.4575249000918,None,486.4575249000918,None,486.4575249000918,None,488.3185493801022,None,488.3185493801022,None,488.3185493801022,None,,,,,,,,,,,,,,206,2023-03-29_14h56.42.487,Main,2022.1.1,59.983900310294544,
negative,negative,1,j,l,,,,,,,,,10,3,183,0,,,,,,,,,main,2,2,1,negative,negative,j,j,1,1.2649777999613434,488.32216039998457,489.3212844999507,489.3212844999507,None,488.32216039998457,None,488.32216039998457,None,488.32216039998457,None,490.58519508007447,None,490.58519508007447,None,490.58519508007447,None,,,,,,,,,,,,,,206,2023-03-29_14h56.42.487,Main,2022.1.1,59.983900310294544,
positive,neutral,1,l,j,,,,,,,,,10,4,184,8,,,,,,,,,main,2,2,1,neutral,positive,l,l,1,0.7651088000275195,490.5921606000047,491.6018624000717,491.5851847999729,None,490.5921606000047,None,490.5921606000047,None,490.5921606000047,None,492.3518132799538,None,492.3518132799538,None,492.3518132799538,None,,,,,,,,,,,,,,206,2023-03-29_14h56.42.487,Main,2022.1.1,59.983900310294544,
positive,positive,2,l,j,,,,,,,,,10,5,185,11,,,,,,,,,main,2,2,2,positive,positive,l,l,1,0.6481236000545323,492.3550170001108,493.3711375000421,493.35181230003946,None,492.3550170001108,None,492.3550170001108,None,492.3550170001108,None,494.0015626800479,None,494.0015626800479,None,494.0015626800479,None,,,,,,,,,,,,,,206,2023-03-29_14h56.42.487,Main,2022.1.1,59.983900310294544,
negative,neutral,1,j,l,,,,,,,,,10,6,186,3,,,,,,,,,main,1,1,1,neutral,negative,j,j,1,0.7820063999388367,494.00789100001566,495.0211414000951,495.0017937000375,None,494.00789100001566,None,494.00789100001566,None,494.00789100001566,None,495.78509407995733,None,495.78509407995733,None,495.78509407995733,None,,,,,,,,,,,,,,206,2023-03-29_14h56.42.487,Main,2022.1.1,59.983900310294544,
neutral,positive,2,k,k,,,,,,,,,10,7,187,13,,,,,,,,,main,2,2,2,positive,neutral,k,k,1,0.6314838000107557,495.78877540002577,496.7850689999759,496.7850689999759,None,495.78877540002577,None,495.78877540002577,None,495.78877540002577,None,497.4183915801579,None,497.4183915801579,None,497.4183915801579,None,,,,,,,,,,,,,,206,2023-03-29_14h56.42.487,Main,2022.1.1,59.983900310294544,
positive,negative,2,l,j,,,,,,,,,10,8,188,14,,,,,,,,,main,1,1,2,negative,positive,l,l,1,0.6492627002298832,497.421704800101,498.4211731001269,498.40440600016154,None,497.421704800101,None,497.421704800101,None,497.421704800101,None,499.0684261800954,None,499.0684261800954,None,499.0684261800954,None,,,,,,,,,,,,,,206,2023-03-29_14h56.42.487,Main,2022.1.1,59.983900310294544,
negative,negative,2,j,l,,,,,,,,,10,9,189,9,,,,,,,,,main,1,1,2,negative,negative,j,j,1,0.7503317000810057,499.07426859997213,500.08774440013804,500.0684166001156,None,499.07426859997213,None,499.07426859997213,None,499.07426859997213,None,500.8211647799937,None,500.8211647799937,None,500.8211647799937,None,,,,,,,,,,,,,,206,2023-03-29_14h56.42.487,Main,2022.1.1,59.983900310294544,
neutral,neutral,1,k,k,,,,,,,,,10,10,190,1,,,,,,,,,main,2,2,1,neutral,neutral,k,k,1,0.6956434000749141,500.82436510012485,501.834963100031,501.818299600156,None,500.82436510012485,None,500.82436510012485,None,500.82436510012485,None,502.51827508017885,None,502.51827508017885,None,502.51827508017885,None,,,,,,,,,,,,,,206,2023-03-29_14h56.42.487,Main,2022.1.1,59.983900310294544,
negative,positive,2,j,l,,,,,,,,,10,11,191,15,,,,,,,,,main,2,2,2,positive,negative,j,j,1,0.847845199983567,502.522631800035,503.53492800006643,503.51828230009414,None,502.522631800035,None,502.522631800035,None,502.522631800035,None,504.36805438010487,None,504.36805438010487,None,504.36805438010487,None,,,,,,,,,,,,,,206,2023-03-29_14h56.42.487,Main,2022.1.1,59.983900310294544,
positive,neutral,2,l,j,,,,,,,,,10,12,192,17,,,,,,,,,main,1,1,2,neutral,positive,l,l,1,0.7845767000690103,504.3743429000024,505.38490010006353,505.3544422001578,None,504.3743429000024,None,504.3743429000024,None,504.3743429000024,None,506.1542511800537,None,506.1542511800537,None,506.1542511800537,None,,,,,,,,,,,,,,206,2023-03-29_14h56.42.487,Main,2022.1.1,59.983900310294544,
positive,positive,1,l,j,,,,,,,,,10,13,193,2,,,,,,,,,main,2,2,1,positive,positive,l,l,1,0.7457564000505954,506.15747470012866,507.1682001000736,507.1515280001331,None,506.15747470012866,None,506.15747470012866,None,506.15747470012866,None,507.9014808800304,None,507.9014808800304,None,507.9014808800304,None,,,,,,,,,,,,,,206,2023-03-29_14h56.42.487,Main,2022.1.1,59.983900310294544,
neutral,neutral,2,k,k,,,,,,,,,10,14,194,10,,,,,,,,,main,2,2,2,neutral,neutral,k,k,1,0.7816779999993742,507.90683210012503,508.91821649996564,508.9042796001304,None,507.90683210012503,None,507.90683210012503,None,507.90683210012503,None,509.6848178800894,None,509.6848178800894,None,509.6848178800894,None,,,,,,,,,,,,,,206,2023-03-29_14h56.42.487,Main,2022.1.1,59.983900310294544,
negative,positive,1,j,l,,,,,,,,,10,15,195,6,,,,,,,,,main,1,1,1,positive,negative,j,j,1,0.780947299906984,509.70419880002737,510.7181121001486,510.6847856999375,None,509.70419880002737,None,509.70419880002737,None,509.70419880002737,None,511.46810047996695,None,511.46810047996695,None,511.46810047996695,None,,,,,,,,,,,,,,206,2023-03-29_14h56.42.487,Main,2022.1.1,59.983900310294544,
negative,neutral,2,j,l,,,,,,,,,10,16,196,12,,,,,,,,,main,2,2,2,neutral,negative,j,l,0,0.664985700044781,511.4712922000326,512.4708008000161,512.4708008000161,None,511.4712922000326,None,511.4712922000326,None,511.4712922000326,None,513.1347537999973,None,513.1347537999973,None,513.1347537999973,None,,,,,,,,,,,,,,206,2023-03-29_14h56.42.487,Main,2022.1.1,59.983900310294544,
neutral,negative,2,k,k,,,,,,,,,10,17,197,16,,,,,,,,,main,1,1,2,negative,neutral,k,k,1,0.7172017998527735,514.1354276000056,515.1348006001208,515.1208075000905,None,514.1354276000056,None,514.1354276000056,None,514.1354276000056,None,515.8513162801275,None,515.8513162801275,None,515.8513162801275,None,,,,,,,,,,,,,,206,2023-03-29_14h56.42.487,Main,2022.1.1,59.983900310294544,
positive,negative,2,l,j,,,,,,,,,11,0,198,14,,,,,,,,,main,2,2,2,negative,positive,l,l,1,0.814300199970603,515.8574692001566,516.8707403000444,516.854055600008,None,515.8574692001566,None,515.8574692001566,None,515.8574692001566,None,517.668020580127,None,517.668020580127,None,517.668020580127,None,,,,,,,,,,,,,,206,2023-03-29_14h56.42.487,Main,2022.1.1,59.983900310294544,
positive,neutral,1,l,j,,,,,,,,,11,1,199,8,,,,,,,,,main,2,2,1,neutral,positive,l,l,1,1.1316218001302332,517.6711917000357,518.6679881000891,518.6679881000891,None,517.6711917000357,None,517.6711917000357,None,517.6711917000357,None,519.8012343800394,None,519.8012343800394,None,519.8012343800394,None,,,,,,,,,,,,,,206,2023-03-29_14h56.42.487,Main,2022.1.1,59.983900310294544,
neutral,neutral,1,k,k,,,,,,,,,11,2,200,1,,,,,,,,,main,2,2,1,neutral,neutral,k,k,1,0.7810635999776423,519.8052457000595,520.8179216000717,520.8012354001403,None,519.8052457000595,None,519.8052457000595,None,519.8052457000595,None,521.5845255799825,None,521.5845255799825,None,521.5845255799825,None,,,,,,,,,,,,,,206,2023-03-29_14h56.42.487,Main,2022.1.1,59.983900310294544,
negative,positive,1,j,l,,,,,,,,,11,3,201,6,,,,,,,,,main,1,1,1,positive,negative,j,j,1,0.7982521997764707,521.5911549001466,522.6012673999649,522.5845441999845,None,521.5911549001466,None,521.5911549001466,None,521.5911549001466,None,523.3846041801619,None,523.3846041801619,None,523.3846041801619,None,,,,,,,,,,,,,,206,2023-03-29_14h56.42.487,Main,2022.1.1,59.983900310294544,
positive,positive,1,l,j,,,,,,,,,11,4,202,2,,,,,,,,,main,1,1,1,positive,positive,l,l,1,0.898604900110513,523.3895890000276,524.4039501999505,524.3871981000993,None,523.3895890000276,None,523.3895890000276,None,523.3895890000276,None,525.2843989801361,None,525.2843989801361,None,525.2843989801361,None,,,,,,,,,,,,,,206,2023-03-29_14h56.42.487,Main,2022.1.1,59.983900310294544,
neutral,negative,2,k,k,,,,,,,,,11,5,203,16,,,,,,,,,main,2,2,2,negative,neutral,k,k,1,0.6981936998199672,525.2909153001383,526.3011817000806,526.2844283999875,None,525.2909153001383,None,525.2909153001383,None,525.2909153001383,None,526.9844730800717,None,526.9844730800717,None,526.9844730800717,None,,,,,,,,,,,,,,206,2023-03-29_14h56.42.487,Main,2022.1.1,59.983900310294544,
negative,neutral,1,j,l,,,,,,,,,11,6,204,3,,,,,,,,,main,1,1,1,neutral,negative,j,j,1,0.8870240000542253,526.9888788999524,528.0037040000316,527.9844217000064,None,526.9888788999524,None,526.9888788999524,None,526.9888788999524,None,528.8703950801166,None,528.8703950801166,None,528.8703950801166,None,,,,,,,,,,,,,,206,2023-03-29_14h56.42.487,Main,2022.1.1,59.983900310294544,
negative,positive,2,j,l,,,,,,,,,11,7,205,15,,,,,,,,,main,2,2,2,positive,negative,j,j,1,0.7312870000023395,528.8770453000907,529.8843630000483,529.8676970000379,None,528.8770453000907,None,528.8770453000907,None,528.8770453000907,None,530.6049088800094,None,530.6049088800094,None,530.6049088800094,None,,,,,,,,,,,,,,206,2023-03-29_14h56.42.487,Main,2022.1.1,59.983900310294544,
positive,positive,2,l,j,,,,,,,,,11,8,206,11,,,,,,,,,main,1,1,2,positive,positive,l,l,1,0.7093143998645246,530.6099171999376,531.6177022000775,531.6010489000473,None,530.6099171999376,None,530.6099171999376,None,530.6099171999376,None,532.3176276799525,None,532.3176276799525,None,532.3176276799525,None,,,,,,,,,,,,,,206,2023-03-29_14h56.42.487,Main,2022.1.1,59.983900310294544,
positive,negative,1,l,j,,,,,,,,,11,9,207,5,,,,,,,,,main,1,1,1,negative,positive,l,l,1,0.7181969000957906,532.3212199001573,533.3369539999403,533.320466300007,None,532.3212199001573,None,532.3212199001573,None,532.3212199001573,None,534.0370188801783,None,534.0370188801783,None,534.0370188801783,None,,,,,,,,,,,,,,206,2023-03-29_14h56.42.487,Main,2022.1.1,59.983900310294544,
neutral,positive,1,k,k,,,,,,,,,11,10,208,4,,,,,,,,,main,1,1,1,positive,neutral,k,k,1,0.6952259000390768,534.0404529999942,535.0509683000855,535.0343009999488,None,534.0404529999942,None,534.0404529999942,None,534.0404529999942,None,535.7343164800434,None,535.7343164800434,None,535.7343164800434,None,,,,,,,,,,,,,,206,2023-03-29_14h56.42.487,Main,2022.1.1,59.983900310294544,
neutral,negative,1,k,k,,,,,,,,,11,11,209,7,,,,,,,,,main,1,1,1,negative,neutral,k,k,1,0.6150452999863774,535.7372890000697,536.7342694001272,536.7204110999592,None,535.7372890000697,None,535.7372890000697,None,535.7372890000697,None,537.3509020800004,None,537.3509020800004,None,537.3509020800004,None,,,,,,,,,,,,,,206,2023-03-29_14h56.42.487,Main,2022.1.1,59.983900310294544,
negative,negative,2,j,l,,,,,,,,,11,12,210,9,,,,,,,,,main,2,2,2,negative,negative,j,j,1,0.7984219999052584,537.367718799971,538.3702487000264,538.3342216000892,None,537.367718799971,None,537.367718799971,None,537.367718799971,None,539.1509528799681,None,539.1509528799681,None,539.1509528799681,None,,,,,,,,,,,,,,206,2023-03-29_14h56.42.487,Main,2022.1.1,59.983900310294544,
neutral,positive,2,k,k,,,,,,,,,11,13,211,13,,,,,,,,,main,1,1,2,positive,neutral,k,k,1,0.765055799856782,539.1569785000756,540.1674985999707,540.1508408000227,None,539.1569785000756,None,539.1569785000756,None,539.1569785000756,None,540.9175024800236,None,540.9175024800236,None,540.9175024800236,None,,,,,,,,,,,,,,206,2023-03-29_14h56.42.487,Main,2022.1.1,59.983900310294544,
negative,negative,1,j,l,,,,,,,,,11,14,212,0,,,,,,,,,main,1,1,1,negative,negative,j,j,1,0.8483947000931948,540.9207924001385,541.9174745001364,541.9036075000186,None,540.9207924001385,None,540.9207924001385,None,540.9207924001385,None,542.7674445800251,None,542.7674445800251,None,542.7674445800251,None,,,,,,,,,,,,,,206,2023-03-29_14h56.42.487,Main,2022.1.1,59.983900310294544,
neutral,neutral,2,k,k,,,,,,,,,11,15,213,10,,,,,,,,,main,1,1,2,neutral,neutral,k,k,1,0.565124399960041,542.7702725001145,543.7674728999846,543.7536657999735,None,542.7702725001145,None,542.7702725001145,None,542.7702725001145,None,544.3339338800172,None,544.3339338800172,None,544.3339338800172,None,,,,,,,,,,,,,,206,2023-03-29_14h56.42.487,Main,2022.1.1,59.983900310294544,
negative,neutral,2,j,l,,,,,,,,,11,16,214,12,,,,,,,,,main,2,2,2,neutral,negative,j,j,1,0.59845310007222,544.3403525000904,545.3507521001156,545.3367930001114,None,544.3403525000904,None,544.3403525000904,None,544.3403525000904,None,545.9341009801021,None,545.9341009801021,None,545.9341009801021,None,,,,,,,,,,,,,,206,2023-03-29_14h56.42.487,Main,2022.1.1,59.983900310294544,
positive,neutral,2,l,j,,,,,,,,,11,17,215,17,,,,,,,,,main,2,2,2,neutral,positive,l,l,1,0.8495500998105854,545.9391821001191,546.950731900055,546.9340423000976,None,545.9391821001191,None,545.9391821001191,None,545.9391821001191,None,547.7840306800092,None,547.7840306800092,None,547.7840306800092,None,,,,,,,,,,,,,,206,2023-03-29_14h56.42.487,Main,2022.1.1,59.983900310294544,
negative,positive,2,j,l,,,,,,,,,12,0,216,15,,,,,,,,,main,1,1,2,positive,negative,j,j,1,0.8640230000019073,547.7901244000532,548.8033617001493,548.786751500098,None,547.7901244000532,None,547.7901244000532,None,547.7901244000532,None,549.6506250800333,None,549.6506250800333,None,549.6506250800333,None,,,,,,,,,,,,,,206,2023-03-29_14h56.42.487,Main,2022.1.1,59.983900310294544,
negative,negative,1,j,l,,,,,,,,,12,1,217,0,,,,,,,,,main,1,1,1,negative,negative,j,j,1,0.7815918999258429,549.6538714999333,550.6506573001388,550.6506573001388,None,549.6538714999333,None,549.6538714999333,None,549.6538714999333,None,551.4339228800266,None,551.4339228800266,None,551.4339228800266,None,,,,,,,,,,,,,,206,2023-03-29_14h56.42.487,Main,2022.1.1,59.983900310294544,
positive,negative,2,l,j,,,,,,,,,12,2,218,14,,,,,,,,,main,2,2,2,negative,positive,l,l,1,1.3179351000580937,551.4366804999299,552.4505896000192,552.4339322000742,None,551.4366804999299,None,551.4366804999299,None,551.4366804999299,None,553.7532756800531,None,553.7532756800531,None,553.7532756800531,None,,,,,,,,,,,,,,206,2023-03-29_14h56.42.487,Main,2022.1.1,59.983900310294544,
negative,neutral,2,j,l,,,,,,,,,12,3,219,12,,,,,,,,,main,1,1,2,neutral,negative,j,j,1,1.0647654999047518,553.7561562000774,554.7698991000652,554.7534401000012,None,553.7561562000774,None,553.7561562000774,None,553.7561562000774,None,555.8197719800985,None,555.8197719800985,None,555.8197719800985,None,,,,,,,,,,,,,,206,2023-03-29_14h56.42.487,Main,2022.1.1,59.983900310294544,
neutral,negative,1,k,k,,,,,,,,,12,4,220,7,,,,,,,,,main,2,2,1,negative,neutral,k,k,1,0.6626003000419587,555.8226433000527,556.8338599000126,556.8199498001486,None,555.8226433000527,None,555.8226433000527,None,555.8226433000527,None,557.483792680013,None,557.483792680013,None,557.483792680013,None,,,,,,,,,,,,,,206,2023-03-29_14h56.42.487,Main,2022.1.1,59.983900310294544,
positive,neutral,2,l,j,,,,,,,,,12,5,221,17,,,,,,,,,main,1,1,2,neutral,positive,l,l,1,1.2150468998588622,557.4869469001424,558.5004813999403,558.4672175000887,None,557.4869469001424,None,557.4869469001424,None,557.4869469001424,None,559.7004013801227,None,559.7004013801227,None,559.7004013801227,None,,,,,,,,,,,,,,206,2023-03-29_14h56.42.487,Main,2022.1.1,59.983900310294544,
negative,neutral,1,j,l,,,,,,,,,12,6,222,3,,,,,,,,,main,1,1,1,neutral,negative,j,j,1,0.7316122998017818,559.7035022999626,560.7032570999581,560.7032570999581,None,559.7035022999626,None,559.7035022999626,None,559.7035022999626,None,561.4336938801455,None,561.4336938801455,None,561.4336938801455,None,,,,,,,,,,,,,,206,2023-03-29_14h56.42.487,Main,2022.1.1,59.983900310294544,
