target,distractor,set,ans1,ans2,rep_loop2.thisRepN,rep_loop2.thisTrialN,rep_loop2.thisN,rep_loop2.thisIndex,flanker_prac_loop.thisRepN,flanker_prac_loop.thisTrialN,flanker_prac_loop.thisN,flanker_prac_loop.thisIndex,flanker_main_loop.thisRepN,flanker_main_loop.thisTrialN,flanker_main_loop.thisN,flanker_main_loop.thisIndex,fl_inst_resp.keys,fl_inst_resp.rt,sound_1.started,sound_1.stopped,image_4.started,image_4.stopped,back_2.started,back_2.stopped,main_prac,fl_cold,fl_colt,fl_set,fl_dcond,fl_tcond,fl_ans,fl_res,fl_corr,fl_rt,fix_fl.started,fix_fl.stopped,targ.started,targ.stopped,j_button.started,j_button.stopped,k_button.started,k_button.stopped,l_button.started,l_button.stopped,j_button2.started,j_button2.stopped,k_button2.started,k_button2.stopped,l_button2.started,l_button2.stopped,mainback.started,mainback.stopped,key_resp.keys,key_resp.rt,mouse_6.x,mouse_6.y,mouse_6.leftButton,mouse_6.midButton,mouse_6.rightButton,mouse_6.started,mouse_6.stopped,text_2.started,text_2.stopped,id*,date,expName,psychopyVersion,frameRate,
,,,,,0,0,0,0,,,,,,,,,space,54.03741139988415,17.097850220184775,None,71.16344180004671,None,,,,,,,,,,,,,,,,,,,,,,,,,,,,,,,,,,,,,,,,,,207,2023-03-29_17h28.11.530,Main,2022.1.1,60.80986578619578,
positive,neutral,2,l,j,,,,,0,0,0,17,,,,,,,,,,,75.69667830015533,None,prac,1,1,2,neutral,positive,j,j,1,1.9435803000815213,77.70262710005045,78.71056030015461,78.6966370001901,None,77.70262710005045,None,77.70262710005045,None,77.70262710005045,None,80.64626890001819,None,80.64626890001819,None,80.64626890001819,None,,,,,,,,,,,,,,207,2023-03-29_17h28.11.530,Main,2022.1.1,60.80986578619578,
negative,positive,2,j,l,,,,,0,1,1,15,,,,,,,,,,,,,prac,1,1,2,positive,negative,l,l,1,1.067894799867645,81.64611180010252,82.64380900003016,82.62984310020693,None,81.64611180010252,None,81.64611180010252,None,81.64611180010252,None,83.71047552013769,None,83.71047552013769,None,83.71047552013769,None,,,,,,,,,,,,,,207,2023-03-29_17h28.11.530,Main,2022.1.1,60.80986578619578,
positive,neutral,1,l,j,,,,,0,2,2,8,,,,,,,,,,,,,prac,1,1,1,neutral,positive,j,j,1,1.6326762000098825,83.71870960015804,84.72710690018721,84.71321140020154,None,83.71870960015804,None,83.71870960015804,None,83.71870960015804,None,86.3464128000196,None,86.3464128000196,None,86.3464128000196,None,,,,,,,,,,,,,,207,2023-03-29_17h28.11.530,Main,2022.1.1,60.80986578619578,
negative,neutral,2,j,l,,,,,0,3,3,12,,,,,,,,,,,,,prac,2,2,2,neutral,negative,l,l,1,1.0375143000856042,87.34483309998177,88.34370870003477,88.32985000009649,None,87.34483309998177,None,87.34483309998177,None,87.34483309998177,None,89.37991662011481,None,89.37991662011481,None,89.37991662011481,None,,,,,,,,,,,,,,207,2023-03-29_17h28.11.530,Main,2022.1.1,60.80986578619578,
neutral,neutral,2,k,k,,,,,0,4,4,10,,,,,,,,,,,,,prac,2,2,2,neutral,neutral,k,k,1,0.931451499927789,89.38375700009055,90.39647580008022,90.37700830004178,None,89.38375700009055,None,89.38375700009055,None,89.38375700009055,None,91.3134467200376,None,91.3134467200376,None,91.3134467200376,None,,,,,,,,,,,,,,207,2023-03-29_17h28.11.530,Main,2022.1.1,60.80986578619578,
neutral,positive,2,k,k,,,,,0,5,5,13,,,,,,,,,,,,,prac,2,2,2,positive,neutral,k,k,1,0.8121338000055403,91.3174875001423,92.32692850008607,92.31026559998281,None,91.3174875001423,None,91.3174875001423,None,91.3174875001423,None,93.12688631997443,None,93.12688631997443,None,93.12688631997443,None,,,,,,,,,,,,,,207,2023-03-29_17h28.11.530,Main,2022.1.1,60.80986578619578,
neutral,negative,1,k,k,,,,,0,6,6,7,,,,,,,,,,,,,prac,2,2,1,negative,neutral,k,k,1,1.2322446000762284,93.13184070005082,94.1461664000526,94.1102146001067,None,93.13184070005082,None,93.13184070005082,None,93.13184070005082,None,95.3602102200035,None,95.3602102200035,None,95.3602102200035,None,,,,,,,,,,,,,,207,2023-03-29_17h28.11.530,Main,2022.1.1,60.80986578619578,
positive,positive,2,l,j,,,,,0,7,7,11,,,,,,,,,,,,,prac,1,1,2,positive,positive,j,j,1,0.9681359999813139,95.36360360006802,96.37946600001305,96.34349500015378,None,95.36360360006802,None,95.36360360006802,None,95.36360360006802,None,97.32969832015223,None,97.32969832015223,None,97.32969832015223,None,,,,,,,,,,,,,,207,2023-03-29_17h28.11.530,Main,2022.1.1,60.80986578619578,
negative,neutral,1,j,l,,,,,0,8,8,3,,,,,,,,,,,,,prac,2,2,1,neutral,negative,l,l,1,0.9627398999873549,97.33252530009486,98.346419100184,98.32683580019511,None,97.33252530009486,None,97.33252530009486,None,97.33252530009486,None,99.29326982018537,None,99.29326982018537,None,99.29326982018537,None,,,,,,,,,,,,,,207,2023-03-29_17h28.11.530,Main,2022.1.1,60.80986578619578,
positive,positive,1,l,j,,,,,0,9,9,2,,,,,,,,,,,,,prac,1,1,1,positive,positive,j,j,1,1.3835490997880697,99.30173490010202,100.31008650013246,100.29614510014653,None,99.30173490010202,None,99.30173490010202,None,99.30173490010202,None,101.67943432009778,None,101.67943432009778,None,101.67943432009778,None,,,,,,,,,,,,,,207,2023-03-29_17h28.11.530,Main,2022.1.1,60.80986578619578,
neutral,neutral,1,k,k,,,,,0,10,10,1,,,,,,,,,,,,,prac,2,2,1,neutral,neutral,k,k,1,0.8626410998404026,101.68217410007492,102.69604480010457,102.67945040017366,None,101.68217410007492,None,101.68217410007492,None,101.68217410007492,None,103.54350732001475,None,103.54350732001475,None,103.54350732001475,None,,,,,,,,,,,,,,207,2023-03-29_17h28.11.530,Main,2022.1.1,60.80986578619578,
neutral,positive,1,k,k,,,,,0,11,11,4,,,,,,,,,,,,,prac,2,2,1,positive,neutral,k,k,1,0.6496592999901623,103.54988370020874,104.56002950016409,104.54346620012075,None,103.54988370020874,None,103.54988370020874,None,103.54988370020874,None,105.19334222017787,None,105.19334222017787,None,105.19334222017787,None,,,,,,,,,,,,,,207,2023-03-29_17h28.11.530,Main,2022.1.1,60.80986578619578,
positive,negative,1,l,j,,,,,0,12,12,5,,,,,,,,,,,,,prac,1,1,1,negative,positive,j,j,1,0.7642732001841068,105.19928540010005,106.21276989998296,106.19621139997616,None,105.19928540010005,None,105.19928540010005,None,105.19928540010005,None,106.95993962013162,None,106.95993962013162,None,106.95993962013162,None,,,,,,,,,,,,,,207,2023-03-29_17h28.11.530,Main,2022.1.1,60.80986578619578,
neutral,negative,2,k,k,,,,,0,13,13,16,,,,,,,,,,,,,prac,2,2,2,negative,neutral,k,k,1,0.71535629988648,106.96327080018818,107.97656940016896,107.94332630001009,None,106.96327080018818,None,106.96327080018818,None,106.96327080018818,None,108.67682082010433,None,108.67682082010433,None,108.67682082010433,None,,,,,,,,,,,,,,207,2023-03-29_17h28.11.530,Main,2022.1.1,60.80986578619578,
positive,negative,2,l,j,,,,,0,14,14,14,,,,,,,,,,,,,prac,2,2,2,negative,positive,j,j,1,0.981766999932006,108.6820582000073,109.69325590017252,109.67660630005412,None,108.6820582000073,None,108.6820582000073,None,108.6820582000073,None,110.65967672006227,None,110.65967672006227,None,110.65967672006227,None,,,,,,,,,,,,,,207,2023-03-29_17h28.11.530,Main,2022.1.1,60.80986578619578,
negative,negative,1,j,l,,,,,0,15,15,0,,,,,,,,,,,,,prac,1,1,1,negative,negative,l,l,1,0.83479980006814,110.66315260017291,111.67654930008575,111.6432074001059,None,110.66315260017291,None,110.66315260017291,None,110.66315260017291,None,112.49597622002474,None,112.49597622002474,None,112.49597622002474,None,,,,,,,,,,,,,,207,2023-03-29_17h28.11.530,Main,2022.1.1,60.80986578619578,
negative,negative,2,j,l,,,,,0,16,16,9,,,,,,,,,,,,,prac,1,1,2,negative,negative,l,l,1,0.8128543999046087,112.49870260013267,113.51257030013949,113.49351390008815,None,112.49870260013267,None,112.49870260013267,None,112.49870260013267,None,114.3100473199971,None,114.3100473199971,None,114.3100473199971,None,,,,,,,,,,,,,,207,2023-03-29_17h28.11.530,Main,2022.1.1,60.80986578619578,
negative,positive,1,j,l,,,,,0,17,17,6,,,,,,,,,,,,,prac,1,1,1,positive,negative,l,l,1,0.782765100011602,114.31389850005507,115.32646980020218,115.31298870011233,None,114.31389850005507,None,114.31389850005507,None,114.31389850005507,None,116.09309792020358,None,116.09309792020358,None,116.09309792020358,None,,,,,,,,,,,,,,207,2023-03-29_17h28.11.530,Main,2022.1.1,60.80986578619578,
neutral,positive,2,k,k,,,,,1,0,18,13,,,,,,,,,,,,,prac,2,2,2,positive,neutral,k,k,1,0.814041200093925,116.09745530015789,117.11249119997956,117.0958527000621,None,116.09745530015789,None,116.09745530015789,None,116.09745530015789,None,117.90971201998181,None,117.90971201998181,None,117.90971201998181,None,,,,,,,,,,,,,,207,2023-03-29_17h28.11.530,Main,2022.1.1,60.80986578619578,
positive,positive,2,l,j,,,,,1,1,19,11,,,,,,,,,,,,,prac,2,2,2,positive,positive,j,j,1,0.7492468999698758,117.91266070003621,118.92904300009832,118.91243170015514,None,117.91266070003621,None,117.91266070003621,None,117.91266070003621,None,119.65968092009425,None,119.65968092009425,None,119.65968092009425,None,,,,,,,,,,,,,,207,2023-03-29_17h28.11.530,Main,2022.1.1,60.80986578619578,
positive,neutral,2,l,j,,,,,1,2,20,17,,,,,,,,,,,,,prac,2,2,2,neutral,positive,j,j,1,0.6167603000067174,119.66921359999105,120.6763414000161,120.65967700001784,None,119.66921359999105,None,119.66921359999105,None,119.66921359999105,None,121.27678402015007,None,121.27678402015007,None,121.27678402015007,None,,,,,,,,,,,,,,207,2023-03-29_17h28.11.530,Main,2022.1.1,60.80986578619578,
negative,positive,2,j,l,,,,,1,3,21,15,,,,,,,,,,,,,prac,1,1,2,positive,negative,l,l,1,0.7784426999278367,121.28340040007606,122.29580170009285,122.279232500121,None,121.28340040007606,None,121.28340040007606,None,121.28340040007606,None,123.05964562008157,None,123.05964562008157,None,123.05964562008157,None,,,,,,,,,,,,,,207,2023-03-29_17h28.11.530,Main,2022.1.1,60.80986578619578,
positive,negative,1,l,j,,,,,1,4,22,5,,,,,,,,,,,,,prac,1,1,1,negative,positive,j,j,1,1.0320996998343617,123.06233029998839,124.05963510018773,124.04571190010756,None,123.06233029998839,None,123.06233029998839,None,123.06233029998839,None,125.09291811999864,None,125.09291811999864,None,125.09291811999864,None,,,,,,,,,,,,,,207,2023-03-29_17h28.11.530,Main,2022.1.1,60.80986578619578,
negative,neutral,2,j,l,,,,,1,5,23,12,,,,,,,,,,,,,prac,1,1,2,neutral,negative,l,l,1,0.9486532998271286,125.09795590001158,126.10958750010468,126.09291150001809,None,125.09795590001158,None,125.09795590001158,None,125.09795590001158,None,127.04292222009971,None,127.04292222009971,None,127.04292222009971,None,,,,,,,,,,,,,,207,2023-03-29_17h28.11.530,Main,2022.1.1,60.80986578619578,
negative,negative,2,j,l,,,,,1,6,24,9,,,,,,,,,,,,,prac,2,2,2,negative,negative,l,l,1,0.8322350000962615,127.04750810004771,128.05953720002435,128.02618040004745,None,127.04750810004771,None,127.04750810004771,None,127.04750810004771,None,128.87620462002232,None,128.87620462002232,None,128.87620462002232,None,,,,,,,,,,,,,,207,2023-03-29_17h28.11.530,Main,2022.1.1,60.80986578619578,
positive,positive,1,l,j,,,,,1,7,25,2,,,,,,,,,,,,,prac,1,1,1,positive,positive,j,j,1,0.848537800135091,128.87918870011345,129.8955769999884,129.87886090017855,None,128.87918870011345,None,128.87918870011345,None,128.87918870011345,None,130.72608582014217,None,130.72608582014217,None,130.72608582014217,None,,,,,,,,,,,,,,207,2023-03-29_17h28.11.530,Main,2022.1.1,60.80986578619578,
neutral,neutral,1,k,k,,,,,1,8,26,1,,,,,,,,,,,,,prac,2,2,1,neutral,neutral,k,k,1,0.7316435999237001,130.732694900129,131.74279470019974,131.7261354001239,None,130.732694900129,None,130.732694900129,None,130.732694900129,None,132.45924072004854,None,132.45924072004854,None,132.45924072004854,None,,,,,,,,,,,,,,207,2023-03-29_17h28.11.530,Main,2022.1.1,60.80986578619578,
negative,negative,1,j,l,,,,,1,9,27,0,,,,,,,,,,,,,prac,1,1,1,negative,negative,l,l,1,0.8154785998631269,132.46537540014833,133.47611320018768,133.46217590011656,None,132.46537540014833,None,132.46537540014833,None,132.46537540014833,None,134.27609272012486,None,134.27609272012486,None,134.27609272012486,None,,,,,,,,,,,,,,207,2023-03-29_17h28.11.530,Main,2022.1.1,60.80986578619578,
neutral,negative,2,k,k,,,,,1,10,28,16,,,,,,,,,,,,,prac,1,1,2,negative,neutral,k,k,1,0.7485546001698822,134.27936170017347,135.27609649999067,135.26217780006118,None,134.27936170017347,None,134.27936170017347,None,134.27936170017347,None,136.02602772009558,None,136.02602772009558,None,136.02602772009558,None,,,,,,,,,,,,,,207,2023-03-29_17h28.11.530,Main,2022.1.1,60.80986578619578,
neutral,positive,1,k,k,,,,,1,11,29,4,,,,,,,,,,,,,prac,1,1,1,positive,neutral,k,k,1,0.8988040999975055,136.03095190017484,137.04540260019712,137.00935510010459,None,136.03095190017484,None,136.03095190017484,None,136.03095190017484,None,137.9260294201318,None,137.9260294201318,None,137.9260294201318,None,,,,,,,,,,,,,,207,2023-03-29_17h28.11.530,Main,2022.1.1,60.80986578619578,
positive,negative,2,l,j,,,,,1,12,30,14,,,,,,,,,,,,,prac,1,1,2,negative,positive,j,j,1,0.86485580005683,137.93127390020527,138.94267880008556,138.92883800016716,None,137.93127390020527,None,137.93127390020527,None,137.93127390020527,None,139.7924195201136,None,139.7924195201136,None,139.7924195201136,None,,,,,,,,,,,,,,207,2023-03-29_17h28.11.530,Main,2022.1.1,60.80986578619578,
negative,neutral,1,j,l,,,,,1,13,31,3,,,,,,,,,,,,,prac,1,1,1,neutral,negative,l,l,1,1.0157196000218391,139.79765660013072,140.8092910000123,140.7760342999827,None,139.79765660013072,None,139.79765660013072,None,139.79765660013072,None,141.80927562005817,None,141.80927562005817,None,141.80927562005817,None,,,,,,,,,,,,,,207,2023-03-29_17h28.11.530,Main,2022.1.1,60.80986578619578,
positive,neutral,1,l,j,,,,,1,14,32,8,,,,,,,,,,,,,prac,2,2,1,neutral,positive,j,j,1,0.9319883000571281,141.8152443000581,142.82594970008358,142.80967560014687,None,141.8152443000581,None,141.8152443000581,None,141.8152443000581,None,143.74256562013178,None,143.74256562013178,None,143.74256562013178,None,,,,,,,,,,,,,,207,2023-03-29_17h28.11.530,Main,2022.1.1,60.80986578619578,
neutral,neutral,2,k,k,,,,,1,15,33,10,,,,,,,,,,,,,prac,2,2,2,neutral,neutral,k,k,1,0.7989573997911066,143.7475533001125,144.76192910014652,144.7258963000495,None,143.7475533001125,None,143.7475533001125,None,143.7475533001125,None,145.54256692007183,None,145.54256692007183,None,145.54256692007183,None,,,,,,,,,,,,,,207,2023-03-29_17h28.11.530,Main,2022.1.1,60.80986578619578,
neutral,negative,1,k,k,,,,,1,16,34,7,,,,,,,,,,,,,prac,1,1,1,negative,neutral,k,k,1,0.7346018999814987,145.54661780013703,146.55940910009667,146.5453617000021,None,145.54661780013703,None,145.54661780013703,None,145.54661780013703,None,147.27865322018042,None,147.27865322018042,None,147.27865322018042,None,,,,,,,,,,,,,,207,2023-03-29_17h28.11.530,Main,2022.1.1,60.80986578619578,
negative,positive,1,j,l,,,,,1,17,35,6,,,,,,,,,,,,,prac,1,1,1,positive,negative,l,l,1,1.0990631999447942,147.28299350012094,148.29539189999923,148.27584050013684,None,147.28299350012094,None,147.28299350012094,None,147.28299350012094,None,149.37918452001176,None,149.37918452001176,None,149.37918452001176,None,,,,,,,,,,,,,,207,2023-03-29_17h28.11.530,Main,2022.1.1,60.80986578619578,
,,,,,,,,,,,,,,,,,,,,,,,,,,,,,,,,,,,,,,,,,,,,,,,,,,,149.3757829000242,None,space,8.521451500011608,,,,,,,,,,207,2023-03-29_17h28.11.530,Main,2022.1.1,60.80986578619578,
,,,,,,,,,,,,,,,,,,,,,,,,,,,,,,,,,,,,,,,,,,,,,,,,,,,,,,,0.8046296,-0.19444445,0,0,0,0.011041020043194294,None,,,207,2023-03-29_17h28.11.530,Main,2022.1.1,60.80986578619578,
negative,negative,2,j,l,,,,,,,,,0,0,0,9,,,,,,,157.92834149999544,None,main,1,1,2,negative,negative,l,l,1,1.3472816001158208,159.93205890012905,160.9422474000603,160.92835470009595,None,159.93205890012905,None,159.93205890012905,None,159.93205890012905,None,162.27814192012883,None,162.27814192012883,None,162.27814192012883,None,,,,,,,,,,,,,,207,2023-03-29_17h28.11.530,Main,2022.1.1,60.80986578619578,
positive,negative,2,l,j,,,,,,,,,0,1,1,14,,,,,,,,,main,2,2,2,negative,positive,j,j,1,0.7279482998419553,162.28298290004022,163.29498110013083,163.27827110001817,None,162.28298290004022,None,162.28298290004022,None,162.28298290004022,None,164.00880072000436,None,164.00880072000436,None,164.00880072000436,None,,,,,,,,,,,,,,207,2023-03-29_17h28.11.530,Main,2022.1.1,60.80986578619578,
negative,positive,2,j,l,,,,,,,,,0,2,2,15,,,,,,,,,main,2,2,2,positive,negative,l,l,1,1.1485351999290287,164.01504850015044,165.0281929001212,165.00881320005283,None,164.01504850015044,None,164.01504850015044,None,164.01504850015044,None,166.15876572011038,None,166.15876572011038,None,166.15876572011038,None,,,,,,,,,,,,,,207,2023-03-29_17h28.11.530,Main,2022.1.1,60.80986578619578,
neutral,neutral,1,k,k,,,,,,,,,0,3,3,1,,,,,,,,,main,1,1,1,neutral,neutral,k,k,1,0.7647669999860227,166.16437910008244,167.17542670015246,167.15878030005842,None,166.16437910008244,None,166.16437910008244,None,166.16437910008244,None,167.9254072200507,None,167.9254072200507,None,167.9254072200507,None,,,,,,,,,,,,,,207,2023-03-29_17h28.11.530,Main,2022.1.1,60.80986578619578,
negative,positive,1,j,l,,,,,,,,,0,4,4,6,,,,,,,,,main,2,2,1,positive,negative,l,l,1,0.815029899822548,167.9313910000492,168.944887700025,168.9254152001813,None,167.9313910000492,None,167.9313910000492,None,167.9313910000492,None,169.7420991201885,None,169.7420991201885,None,169.7420991201885,None,,,,,,,,,,,,,,207,2023-03-29_17h28.11.530,Main,2022.1.1,60.80986578619578,
neutral,positive,2,k,k,,,,,,,,,0,5,5,13,,,,,,,,,main,1,1,2,positive,neutral,k,k,1,0.7665963999461383,169.748416100163,170.76146130007692,170.74200960015878,None,169.748416100163,None,169.748416100163,None,169.748416100163,None,171.5112624200061,None,171.5112624200061,None,171.5112624200061,None,,,,,,,,,,,,,,207,2023-03-29_17h28.11.530,Main,2022.1.1,60.80986578619578,
negative,negative,1,j,l,,,,,,,,,0,6,6,0,,,,,,,,,main,2,2,1,negative,negative,l,l,1,0.7793573997914791,171.51584060001187,172.5253428001888,172.5114945000969,None,171.51584060001187,None,171.51584060001187,None,171.51584060001187,None,173.29201912009157,None,173.29201912009157,None,173.29201912009157,None,,,,,,,,,,,,,,207,2023-03-29_17h28.11.530,Main,2022.1.1,60.80986578619578,
negative,neutral,2,j,l,,,,,,,,,0,7,7,12,,,,,,,,,main,2,2,2,neutral,negative,l,l,1,0.7508858998771757,173.29793180013075,174.31136540020816,174.2920927000232,None,173.29793180013075,None,173.29793180013075,None,173.29793180013075,None,175.04456192012876,None,175.04456192012876,None,175.04456192012876,None,,,,,,,,,,,,,,207,2023-03-29_17h28.11.530,Main,2022.1.1,60.80986578619578,
negative,neutral,1,j,l,,,,,,,,,0,8,8,3,,,,,,,,,main,1,1,1,neutral,negative,l,l,1,0.7624415999744087,175.04766200017184,176.0585778001696,176.04189600003883,None,175.04766200017184,None,175.04766200017184,None,175.04766200017184,None,176.80856152009218,None,176.80856152009218,None,176.80856152009218,None,,,,,,,,,,,,,,207,2023-03-29_17h28.11.530,Main,2022.1.1,60.80986578619578,
positive,neutral,2,l,j,,,,,,,,,0,9,9,17,,,,,,,,,main,1,1,2,neutral,positive,j,j,1,0.814720599912107,176.81418530014344,177.8252245001495,177.80904170009308,None,176.81418530014344,None,176.81418530014344,None,176.81418530014344,None,178.62519612014293,None,178.62519612014293,None,178.62519612014293,None,,,,,,,,,,,,,,207,2023-03-29_17h28.11.530,Main,2022.1.1,60.80986578619578,
neutral,neutral,2,k,k,,,,,,,,,0,10,10,10,,,,,,,,,main,1,1,2,neutral,neutral,k,k,1,0.7482177000492811,178.63095560017973,179.64184510009363,179.62516809999943,None,178.63095560017973,None,178.63095560017973,None,178.63095560017973,None,180.37513622003607,None,180.37513622003607,None,180.37513622003607,None,,,,,,,,,,,,,,207,2023-03-29_17h28.11.530,Main,2022.1.1,60.80986578619578,
positive,positive,1,l,j,,,,,,,,,0,11,11,2,,,,,,,,,main,1,1,1,positive,positive,j,j,1,0.7685215999372303,180.3918501001317,181.39178370009176,181.375129400054,None,180.3918501001317,None,180.3918501001317,None,180.3918501001317,None,182.14192892019636,None,182.14192892019636,None,182.14192892019636,None,,,,,,,,,,,,,,207,2023-03-29_17h28.11.530,Main,2022.1.1,60.80986578619578,
positive,neutral,1,l,j,,,,,,,,,0,12,12,8,,,,,,,,,main,2,2,1,neutral,positive,j,j,1,0.6771684000268579,182.14953290019184,183.15843280008994,183.1445497001987,None,182.14953290019184,None,182.14953290019184,None,182.14953290019184,None,183.82538522002287,None,183.82538522002287,None,183.82538522002287,None,,,,,,,,,,,,,,207,2023-03-29_17h28.11.530,Main,2022.1.1,60.80986578619578,
neutral,negative,1,k,k,,,,,,,,,0,13,13,7,,,,,,,,,main,2,2,1,negative,neutral,k,k,1,0.698047999991104,183.83143300004303,184.8445604001172,184.82509410008788,None,183.83143300004303,None,183.83143300004303,None,183.83143300004303,None,185.5250132201705,None,185.5250132201705,None,185.5250132201705,None,,,,,,,,,,,,,,207,2023-03-29_17h28.11.530,Main,2022.1.1,60.80986578619578,
neutral,negative,2,k,k,,,,,,,,,0,14,14,16,,,,,,,,,main,1,1,2,negative,neutral,k,k,1,0.6983681998681277,185.5341097000055,186.54168410017155,186.52503790007904,None,185.5341097000055,None,185.5341097000055,None,185.5341097000055,None,187.22501632003113,None,187.22501632003113,None,187.22501632003113,None,,,,,,,,,,,,,,207,2023-03-29_17h28.11.530,Main,2022.1.1,60.80986578619578,
neutral,positive,1,k,k,,,,,,,,,0,15,15,4,,,,,,,,,main,1,1,1,positive,neutral,k,k,1,0.8482687999494374,187.23012520000339,188.2442928000819,188.2276849001646,None,187.23012520000339,None,187.23012520000339,None,187.23012520000339,None,189.07496092016808,None,189.07496092016808,None,189.07496092016808,None,,,,,,,,,,,,,,207,2023-03-29_17h28.11.530,Main,2022.1.1,60.80986578619578,
positive,negative,1,l,j,,,,,,,,,0,16,16,5,,,,,,,,,main,2,2,1,negative,positive,j,j,1,0.734989499906078,189.0801009000279,190.09161150013097,190.061029399978,None,189.0801009000279,None,189.0801009000279,None,189.0801009000279,None,190.81093712002038,None,190.81093712002038,None,190.81093712002038,None,,,,,,,,,,,,,,207,2023-03-29_17h28.11.530,Main,2022.1.1,60.80986578619578,
positive,positive,2,l,j,,,,,,,,,0,17,17,11,,,,,,,,,main,2,2,2,positive,positive,j,j,1,0.7286265001166612,190.81479710014537,191.82757640001364,191.8110245000571,None,190.81479710014537,None,190.81479710014537,None,190.81479710014537,None,192.5415758200921,None,192.5415758200921,None,192.5415758200921,None,,,,,,,,,,,,,,207,2023-03-29_17h28.11.530,Main,2022.1.1,60.80986578619578,
negative,positive,1,j,l,,,,,,,,,1,0,18,6,,,,,,,,,main,2,2,1,positive,negative,l,l,1,0.8652699000667781,192.54688220005482,193.55822240002453,193.54163950006478,None,192.54688220005482,None,192.54688220005482,None,192.54688220005482,None,194.4079455201514,None,194.4079455201514,None,194.4079455201514,None,,,,,,,,,,,,,,207,2023-03-29_17h28.11.530,Main,2022.1.1,60.80986578619578,
positive,neutral,1,l,j,,,,,,,,,1,1,19,8,,,,,,,,,main,2,2,1,neutral,positive,j,j,1,0.9011039999313653,194.41312430007383,195.4248997999821,195.40818270016462,None,194.41312430007383,None,194.41312430007383,None,194.41312430007383,None,196.31081932005472,None,196.31081932005472,None,196.31081932005472,None,,,,,,,,,,,,,,207,2023-03-29_17h28.11.530,Main,2022.1.1,60.80986578619578,
neutral,neutral,2,k,k,,,,,,,,,1,2,20,10,,,,,,,,,main,2,2,2,neutral,neutral,k,k,1,0.6622615000233054,196.31413509999402,197.32484210003167,197.30816210014746,None,196.31413509999402,None,196.31413509999402,None,196.31413509999402,None,197.97476562010124,None,197.97476562010124,None,197.97476562010124,None,,,,,,,,,,,,,,207,2023-03-29_17h28.11.530,Main,2022.1.1,60.80986578619578,
positive,positive,1,l,j,,,,,,,,,1,3,21,2,,,,,,,,,main,1,1,1,positive,positive,j,j,1,0.7988093001767993,197.97963960003108,198.9914375001099,198.95813240017742,None,197.97963960003108,None,197.97963960003108,None,197.97963960003108,None,199.77483092006295,None,199.77483092006295,None,199.77483092006295,None,,,,,,,,,,,,,,207,2023-03-29_17h28.11.530,Main,2022.1.1,60.80986578619578,
negative,positive,2,j,l,,,,,,,,,1,4,22,15,,,,,,,,,main,2,2,2,positive,negative,l,l,1,0.8341061000246555,199.78019130020402,200.79423790005967,200.77476699999534,None,199.78019130020402,None,199.78019130020402,None,199.78019130020402,None,201.61080122007988,None,201.61080122007988,None,201.61080122007988,None,,,,,,,,,,,,,,207,2023-03-29_17h28.11.530,Main,2022.1.1,60.80986578619578,
positive,neutral,2,l,j,,,,,,,,,1,5,23,17,,,,,,,,,main,2,2,2,neutral,positive,j,j,1,0.8985876999795437,201.61491690017283,202.6247209000867,202.60806540003978,None,201.61491690017283,None,201.61491690017283,None,201.61491690017283,None,203.51091722017154,None,203.51091722017154,None,203.51091722017154,None,,,,,,,,,,,,,,207,2023-03-29_17h28.11.530,Main,2022.1.1,60.80986578619578,
negative,neutral,2,j,l,,,,,,,,,1,6,24,12,,,,,,,,,main,2,2,2,neutral,negative,l,l,1,0.8625801999587566,203.51405290002003,204.52469970006496,204.50828890013508,None,203.51405290002003,None,203.51405290002003,None,203.51405290002003,None,205.37468122006393,None,205.37468122006393,None,205.37468122006393,None,,,,,,,,,,,,,,207,2023-03-29_17h28.11.530,Main,2022.1.1,60.80986578619578,
negative,negative,2,j,l,,,,,,,,,1,7,25,9,,,,,,,,,main,2,2,2,negative,negative,l,l,1,0.8138238000683486,205.38218710012734,206.3939843000844,206.3746140000876,None,205.38218710012734,None,205.38218710012734,None,205.38218710012734,None,207.1912738200277,None,207.1912738200277,None,207.1912738200277,None,,,,,,,,,,,,,,207,2023-03-29_17h28.11.530,Main,2022.1.1,60.80986578619578,
neutral,positive,1,k,k,,,,,,,,,1,8,26,4,,,,,,,,,main,2,2,1,positive,neutral,k,k,1,0.6484197999816388,207.1966514000669,208.21059540007263,208.19395400001667,None,207.1966514000669,None,207.1966514000669,None,207.1966514000669,None,208.8412316200789,None,208.8412316200789,None,208.8412316200789,None,,,,,,,,,,,,,,207,2023-03-29_17h28.11.530,Main,2022.1.1,60.80986578619578,
positive,negative,2,l,j,,,,,,,,,1,9,27,14,,,,,,,,,main,1,1,2,negative,positive,j,j,1,0.7983623000327498,208.84625830012374,209.8606224001851,209.82457920000888,None,208.84625830012374,None,208.84625830012374,None,208.84625830012374,None,210.64119442007504,None,210.64119442007504,None,210.64119442007504,None,,,,,,,,,,,,,,207,2023-03-29_17h28.11.530,Main,2022.1.1,60.80986578619578,
positive,negative,1,l,j,,,,,,,,,1,10,28,5,,,,,,,,,main,2,2,1,negative,positive,j,j,1,0.8819625999312848,210.6464003000874,211.65787100000307,211.64393200003542,None,210.6464003000874,None,210.6464003000874,None,210.6464003000874,None,212.52456192011013,None,212.52456192011013,None,212.52456192011013,None,,,,,,,,,,,,,,207,2023-03-29_17h28.11.530,Main,2022.1.1,60.80986578619578,
negative,negative,1,j,l,,,,,,,,,1,11,29,0,,,,,,,,,main,1,1,1,negative,negative,l,l,1,0.8478274999652058,212.5305538000539,213.54396560019813,213.524515400175,None,212.5305538000539,None,212.5305538000539,None,212.5305538000539,None,214.37450862014666,None,214.37450862014666,None,214.37450862014666,None,,,,,,,,,,,,,,207,2023-03-29_17h28.11.530,Main,2022.1.1,60.80986578619578,
neutral,negative,1,k,k,,,,,,,,,1,12,30,7,,,,,,,,,main,2,2,1,negative,neutral,k,k,1,0.649724000133574,214.38009820017032,215.39392370008864,215.37715880014002,None,214.38009820017032,None,214.38009820017032,None,214.38009820017032,None,216.02578922002576,None,216.02578922002576,None,216.02578922002576,None,,,,,,,,,,,,,,207,2023-03-29_17h28.11.530,Main,2022.1.1,60.80986578619578,
positive,positive,2,l,j,,,,,,,,,1,13,31,11,,,,,,,,,main,2,2,2,positive,positive,j,j,1,0.747042000060901,216.03147709998302,217.0412173999939,217.02440420002677,None,216.03147709998302,None,216.03147709998302,None,216.03147709998302,None,217.77442262009717,None,217.77442262009717,None,217.77442262009717,None,,,,,,,,,,,,,,207,2023-03-29_17h28.11.530,Main,2022.1.1,60.80986578619578,
neutral,neutral,1,k,k,,,,,,,,,1,14,32,1,,,,,,,,,main,2,2,1,neutral,neutral,k,k,1,0.7022398000117391,217.77998300013132,218.7938602999784,218.77719410019927,None,217.77998300013132,None,217.77998300013132,None,217.77998300013132,None,219.47720792018808,None,219.47720792018808,None,219.47720792018808,None,,,,,,,,,,,,,,207,2023-03-29_17h28.11.530,Main,2022.1.1,60.80986578619578,
neutral,positive,2,k,k,,,,,,,,,1,15,33,13,,,,,,,,,main,2,2,2,positive,neutral,k,k,1,0.6279056998901069,219.48174030007794,220.49374569999054,220.47711169999093,None,219.48174030007794,None,219.48174030007794,None,219.48174030007794,None,221.10765622011385,None,221.10765622011385,None,221.10765622011385,None,,,,,,,,,,,,,,207,2023-03-29_17h28.11.530,Main,2022.1.1,60.80986578619578,
negative,neutral,1,j,l,,,,,,,,,1,16,34,3,,,,,,,,,main,1,1,1,neutral,negative,l,l,1,0.8472686000168324,221.11702310014516,222.12700350000523,222.10764140007086,None,221.11702310014516,None,221.11702310014516,None,221.11702310014516,None,222.95769862006418,None,222.95769862006418,None,222.95769862006418,None,,,,,,,,,,,,,,207,2023-03-29_17h28.11.530,Main,2022.1.1,60.80986578619578,
neutral,negative,2,k,k,,,,,,,,,1,17,35,16,,,,,,,,,main,2,2,2,negative,neutral,k,k,1,0.8151185000315309,222.96101600001566,223.95762470015325,223.95762470015325,None,222.96101600001566,None,222.96101600001566,None,222.96101600001566,None,224.77427292000502,None,224.77427292000502,None,224.77427292000502,None,,,,,,,,,,,,,,207,2023-03-29_17h28.11.530,Main,2022.1.1,60.80986578619578,
neutral,negative,1,k,k,,,,,,,,,2,0,36,7,,,,,,,,,main,2,2,1,negative,neutral,k,k,1,0.7316755000501871,224.77989550004713,225.7937204001937,225.77425890020095,None,224.77989550004713,None,224.77989550004713,None,224.77989550004713,None,226.50754692000336,None,226.50754692000336,None,226.50754692000336,None,,,,,,,,,,,,,,207,2023-03-29_17h28.11.530,Main,2022.1.1,60.80986578619578,
negative,neutral,2,j,l,,,,,,,,,2,1,37,12,,,,,,,,,main,2,2,2,neutral,negative,l,l,1,0.9318011000286788,226.5129532001447,227.52421930013224,227.51039130007848,None,226.5129532001447,None,226.5129532001447,None,226.5129532001447,None,228.44082282008603,None,228.44082282008603,None,228.44082282008603,None,,,,,,,,,,,,,,207,2023-03-29_17h28.11.530,Main,2022.1.1,60.80986578619578,
neutral,neutral,2,k,k,,,,,,,,,2,2,38,10,,,,,,,,,main,1,1,2,neutral,neutral,k,k,1,0.8012382001616061,228.44615139998496,229.4601575001143,229.44372360012494,None,228.44615139998496,None,228.44615139998496,None,228.44615139998496,None,230.243619120121,None,230.243619120121,None,230.243619120121,None,,,,,,,,,,,,,,207,2023-03-29_17h28.11.530,Main,2022.1.1,60.80986578619578,
positive,neutral,1,l,j,,,,,,,,,2,3,39,8,,,,,,,,,main,1,1,1,neutral,positive,j,j,1,0.7789058999624103,230.24681370006874,231.25745200016536,231.2435575001873,None,230.24681370006874,None,230.24681370006874,None,230.24681370006874,None,232.02409352003596,None,232.02409352003596,None,232.02409352003596,None,,,,,,,,,,,,,,207,2023-03-29_17h28.11.530,Main,2022.1.1,60.80986578619578,
neutral,positive,2,k,k,,,,,,,,,2,4,40,13,,,,,,,,,main,2,2,2,positive,neutral,k,k,1,0.7648644000291824,232.0338642001152,233.04073400003836,233.02407070016488,None,232.0338642001152,None,232.0338642001152,None,232.0338642001152,None,233.79071182003244,None,233.79071182003244,None,233.79071182003244,None,,,,,,,,,,,,,,207,2023-03-29_17h28.11.530,Main,2022.1.1,60.80986578619578,
positive,neutral,2,l,j,,,,,,,,,2,5,41,17,,,,,,,,,main,2,2,2,neutral,positive,j,j,1,0.765045200008899,233.79661130020395,234.80740090017207,234.7907217000611,None,233.79661130020395,None,233.79661130020395,None,233.79661130020395,None,235.55733602019026,None,235.55733602019026,None,235.55733602019026,None,,,,,,,,,,,,,,207,2023-03-29_17h28.11.530,Main,2022.1.1,60.80986578619578,
negative,negative,1,j,l,,,,,,,,,2,6,42,0,,,,,,,,,main,1,1,1,negative,negative,l,l,1,0.8639412000775337,235.56341920001432,236.5740077001974,236.55734160006978,None,235.56341920001432,None,235.56341920001432,None,235.56341920001432,None,237.42397092017345,None,237.42397092017345,None,237.42397092017345,None,,,,,,,,,,,,,,207,2023-03-29_17h28.11.530,Main,2022.1.1,60.80986578619578,
negative,positive,1,j,l,,,,,,,,,2,7,43,6,,,,,,,,,main,1,1,1,positive,negative,l,l,1,0.7153382999822497,237.43334680004045,238.44103950005956,238.4239835999906,None,237.43334680004045,None,237.43334680004045,None,237.43334680004045,None,239.14063602001406,None,239.14063602001406,None,239.14063602001406,None,,,,,,,,,,,,,,207,2023-03-29_17h28.11.530,Main,2022.1.1,60.80986578619578,
negative,negative,2,j,l,,,,,,,,,2,8,44,9,,,,,,,,,main,2,2,2,negative,negative,l,l,1,1.2649530998896807,239.14626429998316,240.15726740006357,240.14061450003646,None,239.14626429998316,None,239.14626429998316,None,239.14626429998316,None,241.40724682006984,None,241.40724682006984,None,241.40724682006984,None,,,,,,,,,,,,,,207,2023-03-29_17h28.11.530,Main,2022.1.1,60.80986578619578,
neutral,neutral,1,k,k,,,,,,,,,2,9,45,1,,,,,,,,,main,2,2,1,neutral,neutral,k,k,1,0.681568400003016,241.41275550005957,242.42667450010777,242.40994370006956,None,241.41275550005957,None,241.41275550005957,None,241.41275550005957,None,243.09051142018288,None,243.09051142018288,None,243.09051142018288,None,,,,,,,,,,,,,,207,2023-03-29_17h28.11.530,Main,2022.1.1,60.80986578619578,
negative,neutral,1,j,l,,,,,,,,,2,10,46,3,,,,,,,,,main,2,2,1,neutral,negative,l,l,1,0.7821096999105066,243.09573840000667,244.10717079997994,244.0905147001613,None,243.09573840000667,None,243.09573840000667,None,243.09573840000667,None,244.87397692017257,None,244.87397692017257,None,244.87397692017257,None,,,,,,,,,,,,,,207,2023-03-29_17h28.11.530,Main,2022.1.1,60.80986578619578,
neutral,negative,2,k,k,,,,,,,,,2,11,47,16,,,,,,,,,main,1,1,2,negative,neutral,k,k,1,0.6647007002029568,244.87945670005865,245.89051580009982,245.8738578001503,None,244.87945670005865,None,244.87945670005865,None,244.87945670005865,None,246.54050332019105,None,246.54050332019105,None,246.54050332019105,None,,,,,,,,,,,,,,207,2023-03-29_17h28.11.530,Main,2022.1.1,60.80986578619578,
positive,positive,1,l,j,,,,,,,,,2,12,48,2,,,,,,,,,main,2,2,1,positive,positive,j,j,1,0.7653887001797557,246.54615890001878,247.55717040016316,247.5433320000302,None,246.54615890001878,None,246.54615890001878,None,246.54615890001878,None,248.3071059201844,None,248.3071059201844,None,248.3071059201844,None,,,,,,,,,,,,,,207,2023-03-29_17h28.11.530,Main,2022.1.1,60.80986578619578,
positive,negative,1,l,j,,,,,,,,,2,13,49,5,,,,,,,,,main,2,2,1,negative,positive,j,j,1,0.6638859000522643,248.31340129999444,249.32375070010312,249.309889000142,None,248.31340129999444,None,248.31340129999444,None,248.31340129999444,None,249.9737678201869,None,249.9737678201869,None,249.9737678201869,None,,,,,,,,,,,,,,207,2023-03-29_17h28.11.530,Main,2022.1.1,60.80986578619578,
neutral,positive,1,k,k,,,,,,,,,2,14,50,4,,,,,,,,,main,1,1,1,positive,neutral,k,k,1,0.7149586998857558,249.97742830007337,250.99039900000207,250.97653470002115,None,249.97742830007337,None,249.97742830007337,None,249.97742830007337,None,251.69040202014148,None,251.69040202014148,None,251.69040202014148,None,,,,,,,,,,,,,,207,2023-03-29_17h28.11.530,Main,2022.1.1,60.80986578619578,
negative,positive,2,j,l,,,,,,,,,2,15,51,15,,,,,,,,,main,2,2,2,positive,negative,l,l,1,0.8817409998737276,251.69619980012067,252.7070401001256,252.6907468000427,None,251.69619980012067,None,251.69619980012067,None,251.69619980012067,None,253.57368491999804,None,253.57368491999804,None,253.57368491999804,None,,,,,,,,,,,,,,207,2023-03-29_17h28.11.530,Main,2022.1.1,60.80986578619578,
positive,positive,2,l,j,,,,,,,,,2,16,52,11,,,,,,,,,main,1,1,2,positive,positive,j,j,1,0.9316016999073327,253.5771892000921,254.57652290002443,254.57652290002443,None,253.5771892000921,None,253.5771892000921,None,253.5771892000921,None,255.50695682005025,None,255.50695682005025,None,255.50695682005025,None,,,,,,,,,,,,,,207,2023-03-29_17h28.11.530,Main,2022.1.1,60.80986578619578,
positive,negative,2,l,j,,,,,,,,,2,17,53,14,,,,,,,,,main,2,2,2,negative,positive,j,j,1,0.6483514998108149,255.5124717000872,256.526445500087,256.50970500009134,None,255.5124717000872,None,255.5124717000872,None,255.5124717000872,None,257.1569192201365,None,257.1569192201365,None,257.1569192201365,None,,,,,,,,,,,,,,207,2023-03-29_17h28.11.530,Main,2022.1.1,60.80986578619578,
positive,negative,2,l,j,,,,,,,,,3,0,54,14,,,,,,,,,main,2,2,2,negative,positive,j,j,1,0.6221700999885798,257.16252250014804,258.1735596000217,258.15966280014254,None,257.16252250014804,None,257.16252250014804,None,257.16252250014804,None,258.7764892200008,None,258.7764892200008,None,258.7764892200008,None,,,,,,,,,,,,,,207,2023-03-29_17h28.11.530,Main,2022.1.1,60.80986578619578,
negative,negative,2,j,l,,,,,,,,,3,1,55,9,,,,,,,,,main,2,2,2,negative,negative,l,l,1,1.123774299863726,258.784886599984,259.79299760004506,259.77354610012844,None,258.784886599984,None,258.784886599984,None,258.784886599984,None,260.9071649200283,None,260.9071649200283,None,260.9071649200283,None,,,,,,,,,,,,,,207,2023-03-29_17h28.11.530,Main,2022.1.1,60.80986578619578,
neutral,negative,1,k,k,,,,,,,,,3,2,56,7,,,,,,,,,main,2,2,1,negative,neutral,k,k,1,0.7815888000186533,260.9125564000569,261.92631800007075,261.9096111000981,None,260.9125564000569,None,260.9125564000569,None,260.9125564000569,None,262.690278520016,None,262.690278520016,None,262.690278520016,None,,,,,,,,,,,,,,207,2023-03-29_17h28.11.530,Main,2022.1.1,60.80986578619578,
neutral,negative,2,k,k,,,,,,,,,3,3,57,16,,,,,,,,,main,1,1,2,negative,neutral,k,k,1,0.7154143999796361,262.69291059998795,263.69302030000836,263.69302030000836,None,262.69291059998795,None,262.69291059998795,None,262.69291059998795,None,264.4067611199804,None,264.4067611199804,None,264.4067611199804,None,,,,,,,,,,,,,,207,2023-03-29_17h28.11.530,Main,2022.1.1,60.80986578619578,
positive,neutral,2,l,j,,,,,,,,,3,4,58,17,,,,,,,,,main,2,2,2,neutral,positive,j,j,1,0.8479655000846833,264.4103858000599,265.4096417000983,265.4096417000983,None,264.4103858000599,None,264.4103858000599,None,264.4103858000599,None,266.25670461999255,None,266.25670461999255,None,266.25670461999255,None,,,,,,,,,,,,,,207,2023-03-29_17h28.11.530,Main,2022.1.1,60.80986578619578,
neutral,neutral,2,k,k,,,,,,,,,3,5,59,10,,,,,,,,,main,1,1,2,neutral,neutral,k,k,1,0.7985433998983353,266.26161850010976,267.27342420001514,267.2401465000585,None,266.26161850010976,None,266.26161850010976,None,266.26161850010976,None,268.056697720103,None,268.056697720103,None,268.056697720103,None,,,,,,,,,,,,,,207,2023-03-29_17h28.11.530,Main,2022.1.1,60.80986578619578,
neutral,positive,2,k,k,,,,,,,,,3,6,60,13,,,,,,,,,main,1,1,2,positive,neutral,k,k,1,0.6151792998425663,268.05982880014926,269.07332810014486,269.05671200016513,None,268.05982880014926,None,268.05982880014926,None,268.05982880014926,None,269.67332462002526,None,269.67332462002526,None,269.67332462002526,None,,,,,,,,,,,,,,207,2023-03-29_17h28.11.530,Main,2022.1.1,60.80986578619578,
negative,negative,1,j,l,,,,,,,,,3,7,61,0,,,,,,,,,main,2,2,1,negative,negative,l,l,1,0.7320862000342458,269.67837840016,270.6899665000383,270.67329820012674,None,269.67837840016,None,269.67837840016,None,269.67837840016,None,271.4066304200329,None,271.4066304200329,None,271.4066304200329,None,,,,,,,,,,,,,,207,2023-03-29_17h28.11.530,Main,2022.1.1,60.80986578619578,
negative,positive,2,j,l,,,,,,,,,3,8,62,15,,,,,,,,,main,2,2,2,positive,negative,l,l,1,0.7982852999120951,271.41235870006494,272.4232600000687,272.40933210006915,None,271.41235870006494,None,271.41235870006494,None,271.41235870006494,None,273.20659682005646,None,273.20659682005646,None,273.20659682005646,None,,,,,,,,,,,,,,207,2023-03-29_17h28.11.530,Main,2022.1.1,60.80986578619578,
neutral,neutral,1,k,k,,,,,,,,,3,9,63,1,,,,,,,,,main,2,2,1,neutral,neutral,k,k,1,0.7483313998673111,273.2121737000998,274.2260003001429,274.20944720017724,None,273.2121737000998,None,273.2121737000998,None,273.2121737000998,None,274.95658162017355,None,274.95658162017355,None,274.95658162017355,None,,,,,,,,,,,,,,207,2023-03-29_17h28.11.530,Main,2022.1.1,60.80986578619578,
negative,positive,1,j,l,,,,,,,,,3,10,64,6,,,,,,,,,main,1,1,1,positive,negative,l,l,1,0.9017507000826299,274.96226240019314,275.9732192000374,275.9566271000076,None,274.96226240019314,None,274.96226240019314,None,274.96226240019314,None,276.8593819200993,None,276.8593819200993,None,276.8593819200993,None,,,,,,,,,,,,,,207,2023-03-29_17h28.11.530,Main,2022.1.1,60.80986578619578,
negative,neutral,2,j,l,,,,,,,,,3,11,65,12,,,,,,,,,main,1,1,2,neutral,negative,l,l,1,0.744783400092274,276.86311989999376,277.8758337001782,277.8565652000252,None,276.86311989999376,None,276.86311989999376,None,276.86311989999376,None,278.60647502020004,None,278.60647502020004,None,278.60647502020004,None,,,,,,,,,,,,,,207,2023-03-29_17h28.11.530,Main,2022.1.1,60.80986578619578,
positive,positive,2,l,j,,,,,,,,,3,12,66,11,,,,,,,,,main,2,2,2,positive,positive,j,j,1,0.7483296000864357,278.6099789000582,279.62310419999994,279.6091165000107,None,278.6099789000582,None,278.6099789000582,None,278.6099789000582,None,280.3564158199821,None,280.3564158199821,None,280.3564158199821,None,,,,,,,,,,,,,,207,2023-03-29_17h28.11.530,Main,2022.1.1,60.80986578619578,
positive,neutral,1,l,j,,,,,,,,,3,13,67,8,,,,,,,,,main,1,1,1,neutral,positive,j,j,1,0.7983626998029649,280.3615390001796,281.373136700131,281.356428100029,None,280.3615390001796,None,280.3615390001796,None,280.3615390001796,None,282.1564027200453,None,282.1564027200453,None,282.1564027200453,None,,,,,,,,,,,,,,207,2023-03-29_17h28.11.530,Main,2022.1.1,60.80986578619578,
negative,neutral,1,j,l,,,,,,,,,3,14,68,3,,,,,,,,,main,1,1,1,neutral,negative,l,l,1,1.081719300011173,282.1615581000224,283.1730422000401,283.1424324000254,None,282.1615581000224,None,282.1615581000224,None,282.1615581000224,None,284.2397057201248,None,284.2397057201248,None,284.2397057201248,None,,,,,,,,,,,,,,207,2023-03-29_17h28.11.530,Main,2022.1.1,60.80986578619578,
neutral,positive,1,k,k,,,,,,,,,3,15,69,4,,,,,,,,,main,1,1,1,positive,neutral,k,k,1,0.5820577999111265,284.2456821000669,285.25636040000245,285.23970370017923,None,284.2456821000669,None,284.2456821000669,None,284.2456821000669,None,285.8230073201936,None,285.8230073201936,None,285.8230073201936,None,,,,,,,,,,,,,,207,2023-03-29_17h28.11.530,Main,2022.1.1,60.80986578619578,
positive,positive,1,l,j,,,,,,,,,3,16,70,2,,,,,,,,,main,2,2,1,positive,positive,j,j,1,0.8149864000733942,285.82901019998826,286.83965430012904,286.82300780015066,None,285.82901019998826,None,285.82901019998826,None,285.82901019998826,None,287.6396275201347,None,287.6396275201347,None,287.6396275201347,None,,,,,,,,,,,,,,207,2023-03-29_17h28.11.530,Main,2022.1.1,60.80986578619578,
positive,negative,1,l,j,,,,,,,,,3,17,71,5,,,,,,,,,main,1,1,1,negative,positive,j,j,1,0.648100099992007,287.6451695000287,288.6562709000427,288.6396000001114,None,287.6451695000287,None,287.6451695000287,None,287.6451695000287,None,289.28958152015696,None,289.28958152015696,None,289.28958152015696,None,,,,,,,,,,,,,,207,2023-03-29_17h28.11.530,Main,2022.1.1,60.80986578619578,
neutral,negative,1,k,k,,,,,,,,,4,0,72,7,,,,,,,,,main,1,1,1,negative,neutral,k,k,1,0.6663775001652539,289.2945478002075,290.3062396000605,290.2757280000951,None,289.2945478002075,None,289.2945478002075,None,289.2945478002075,None,290.95627402015964,None,290.95627402015964,None,290.95627402015964,None,,,,,,,,,,,,,,207,2023-03-29_17h28.11.530,Main,2022.1.1,60.80986578619578,
neutral,positive,2,k,k,,,,,,,,,4,1,73,13,,,,,,,,,main,2,2,2,positive,neutral,k,k,1,0.630863199941814,290.9622087001335,291.9728845001664,291.95627470011823,None,290.9622087001335,None,290.9622087001335,None,290.9622087001335,None,292.5895314201713,None,292.5895314201713,None,292.5895314201713,None,,,,,,,,,,,,,,207,2023-03-29_17h28.11.530,Main,2022.1.1,60.80986578619578,
neutral,neutral,2,k,k,,,,,,,,,4,2,74,10,,,,,,,,,main,1,1,2,neutral,neutral,k,k,1,0.5979349999688566,292.594930900028,293.6061713001691,293.58950030012056,None,292.594930900028,None,292.594930900028,None,292.594930900028,None,294.18947791997346,None,294.18947791997346,None,294.18947791997346,None,,,,,,,,,,,,,,207,2023-03-29_17h28.11.530,Main,2022.1.1,60.80986578619578,
positive,neutral,1,l,j,,,,,,,,,4,3,75,8,,,,,,,,,main,1,1,1,neutral,positive,j,j,1,0.7653564000502229,294.1922526000999,295.2087867001537,295.192161800107,None,294.1922526000999,None,294.1922526000999,None,294.1922526000999,None,295.9561313201208,None,295.9561313201208,None,295.9561313201208,None,,,,,,,,,,,,,,207,2023-03-29_17h28.11.530,Main,2022.1.1,60.80986578619578,
negative,negative,1,j,l,,,,,,,,,4,4,76,0,,,,,,,,,main,2,2,1,negative,negative,l,l,1,1.1151312999427319,295.96177619998343,296.97285570017993,296.95656420011073,None,295.96177619998343,None,295.96177619998343,None,295.96177619998343,None,298.0727403200232,None,298.0727403200232,None,298.0727403200232,None,,,,,,,,,,,,,,207,2023-03-29_17h28.11.530,Main,2022.1.1,60.80986578619578,
positive,positive,1,l,j,,,,,,,,,4,5,77,2,,,,,,,,,main,2,2,1,positive,positive,j,j,1,0.9649649001657963,298.0786771001294,299.08940180018544,299.0754738000687,None,298.0786771001294,None,298.0786771001294,None,298.0786771001294,None,300.03921152013356,None,300.03921152013356,None,300.03921152013356,None,,,,,,,,,,,,,,207,2023-03-29_17h28.11.530,Main,2022.1.1,60.80986578619578,
negative,negative,2,j,l,,,,,,,,,4,6,78,9,,,,,,,,,main,1,1,2,negative,negative,l,l,1,0.9347556000575423,300.04549659998156,301.055999299977,301.02269950020127,None,300.04549659998156,None,300.04549659998156,None,300.04549659998156,None,301.9753880201839,None,301.9753880201839,None,301.9753880201839,None,,,,,,,,,,,,,,207,2023-03-29_17h28.11.530,Main,2022.1.1,60.80986578619578,
positive,negative,1,l,j,,,,,,,,,4,7,79,5,,,,,,,,,main,2,2,1,negative,positive,j,j,1,0.8958499999716878,301.97880270006135,302.9895540000871,302.97267090016976,None,301.97880270006135,None,301.97880270006135,None,301.97880270006135,None,303.8728868201375,None,303.8728868201375,None,303.8728868201375,None,,,,,,,,,,,,,,207,2023-03-29_17h28.11.530,Main,2022.1.1,60.80986578619578,
positive,positive,2,l,j,,,,,,,,,4,8,80,11,,,,,,,,,main,2,2,2,positive,positive,j,j,1,0.8710868998896331,303.8766950001009,304.8922467001248,304.8726340001449,None,303.8766950001009,None,303.8766950001009,None,303.8766950001009,None,305.7419998200145,None,305.7419998200145,None,305.7419998200145,None,,,,,,,,,,,,,,207,2023-03-29_17h28.11.530,Main,2022.1.1,60.80986578619578,
negative,positive,1,j,l,,,,,,,,,4,9,81,6,,,,,,,,,main,1,1,1,positive,negative,l,l,1,0.9107419000938535,305.75107200001366,306.7559329001233,306.7420533001423,None,305.75107200001366,None,305.75107200001366,None,305.75107200001366,None,307.6590832200833,None,307.6590832200833,None,307.6590832200833,None,,,,,,,,,,,,,,207,2023-03-29_17h28.11.530,Main,2022.1.1,60.80986578619578,
negative,neutral,2,j,l,,,,,,,,,4,10,82,12,,,,,,,,,main,1,1,2,neutral,negative,l,l,1,1.7283674001228064,307.6621909001842,308.6725561001804,308.6591015001759,None,307.6621909001842,None,307.6621909001842,None,307.6621909001842,None,310.3893673000857,None,310.3893673000857,None,310.3893673000857,None,,,,,,,,,,,,,,207,2023-03-29_17h28.11.530,Main,2022.1.1,60.80986578619578,
negative,positive,2,j,l,,,,,,,,,4,11,83,15,,,,,,,,,main,2,2,2,positive,negative,l,l,1,0.7868872000835836,311.39013160020113,312.3891716999933,312.3751871001441,None,311.39013160020113,None,311.39013160020113,None,311.39013160020113,None,313.17505682017656,None,313.17505682017656,None,313.17505682017656,None,,,,,,,,,,,,,,207,2023-03-29_17h28.11.530,Main,2022.1.1,60.80986578619578,
neutral,neutral,1,k,k,,,,,,,,,4,12,84,1,,,,,,,,,main,1,1,1,neutral,neutral,k,k,1,0.6981836000923067,313.1780439000577,314.18912800005637,314.17246969998814,None,313.1780439000577,None,313.1780439000577,None,313.1780439000577,None,314.87519412012773,None,314.87519412012773,None,314.87519412012773,None,,,,,,,,,,,,,,207,2023-03-29_17h28.11.530,Main,2022.1.1,60.80986578619578,
neutral,positive,1,k,k,,,,,,,,,4,13,85,4,,,,,,,,,main,2,2,1,positive,neutral,k,k,1,0.6956935999915004,314.87839930015616,315.8890425001737,315.87238260009326,None,314.87839930015616,None,314.87839930015616,None,314.87839930015616,None,316.57242522006857,None,316.57242522006857,None,316.57242522006857,None,,,,,,,,,,,,,,207,2023-03-29_17h28.11.530,Main,2022.1.1,60.80986578619578,
neutral,negative,2,k,k,,,,,,,,,4,14,86,16,,,,,,,,,main,1,1,2,negative,neutral,k,k,1,0.6648897000122815,316.5779617000371,317.59170960006304,317.57236980018206,None,316.5779617000371,None,316.5779617000371,None,316.5779617000371,None,318.2390567200724,None,318.2390567200724,None,318.2390567200724,None,,,,,,,,,,,,,,207,2023-03-29_17h28.11.530,Main,2022.1.1,60.80986578619578,
positive,negative,2,l,j,,,,,,,,,4,15,87,14,,,,,,,,,main,2,2,2,negative,positive,j,j,1,0.8481053998693824,318.24444809998386,319.25837770011276,319.24167750007473,None,318.24444809998386,None,318.24444809998386,None,318.24444809998386,None,320.0889533200767,None,320.0889533200767,None,320.0889533200767,None,,,,,,,,,,,,,,207,2023-03-29_17h28.11.530,Main,2022.1.1,60.80986578619578,
negative,neutral,1,j,l,,,,,,,,,4,16,88,3,,,,,,,,,main,2,2,1,neutral,negative,l,l,1,0.7157244998961687,320.0944988001138,321.1055912000593,321.0891990000382,None,320.0944988001138,None,320.0944988001138,None,320.0944988001138,None,321.80591771998445,None,321.80591771998445,None,321.80591771998445,None,,,,,,,,,,,,,,207,2023-03-29_17h28.11.530,Main,2022.1.1,60.80986578619578,
positive,neutral,2,l,j,,,,,,,,,4,17,89,17,,,,,,,,,main,1,1,2,neutral,positive,j,j,1,0.964507499942556,321.8222729000263,322.8222418001387,322.808297800133,None,321.8222729000263,None,321.8222729000263,None,321.8222729000263,None,323.7722356199753,None,323.7722356199753,None,323.7722356199753,None,,,,,,,,,,,,,,207,2023-03-29_17h28.11.530,Main,2022.1.1,60.80986578619578,
negative,positive,1,j,l,,,,,,,,,5,0,90,6,,,,,,,,,main,1,1,1,positive,negative,l,l,1,0.8817694000899792,323.7773702000268,324.7888390000444,324.75820210017264,None,323.7773702000268,None,323.7773702000268,None,323.7773702000268,None,325.6554759199731,None,325.6554759199731,None,325.6554759199731,None,,,,,,,,,,,,,,207,2023-03-29_17h28.11.530,Main,2022.1.1,60.80986578619578,
positive,positive,2,l,j,,,,,,,,,5,1,91,11,,,,,,,,,main,1,1,2,positive,positive,j,j,1,0.9513393000233918,325.6608714000322,326.6721723000519,326.6555057000369,None,325.6608714000322,None,325.6608714000322,None,325.6608714000322,None,327.6083625200205,None,327.6083625200205,None,327.6083625200205,None,,,,,,,,,,,,,,207,2023-03-29_17h28.11.530,Main,2022.1.1,60.80986578619578,
neutral,positive,2,k,k,,,,,,,,,5,2,92,13,,,,,,,,,main,1,1,2,positive,neutral,k,k,1,0.7984458999708295,327.61155440006405,328.624810700072,328.60817959997803,None,327.61155440006405,None,327.61155440006405,None,327.61155440006405,None,329.40826051998886,None,329.40826051998886,None,329.40826051998886,None,,,,,,,,,,,,,,207,2023-03-29_17h28.11.530,Main,2022.1.1,60.80986578619578,
neutral,neutral,2,k,k,,,,,,,,,5,3,93,10,,,,,,,,,main,2,2,2,neutral,neutral,k,k,1,0.5785461999475956,329.41146380011924,330.42211470007896,330.408350400161,None,329.41146380011924,None,329.41146380011924,None,329.41146380011924,None,330.988696620008,None,330.988696620008,None,330.988696620008,None,,,,,,,,,,,,,,207,2023-03-29_17h28.11.530,Main,2022.1.1,60.80986578619578,
positive,positive,1,l,j,,,,,,,,,5,4,94,2,,,,,,,,,main,2,2,1,positive,positive,j,j,1,0.7516145000699908,330.99460520013236,332.0053917001933,331.99153820006177,None,330.99460520013236,None,330.99460520013236,None,330.99460520013236,None,332.74132852014156,None,332.74132852014156,None,332.74132852014156,None,,,,,,,,,,,,,,207,2023-03-29_17h28.11.530,Main,2022.1.1,60.80986578619578,
negative,negative,2,j,l,,,,,,,,,5,5,95,9,,,,,,,,,main,2,2,2,negative,negative,l,l,1,0.6781024001538754,332.7450182000175,333.75797070004046,333.74139390001073,None,332.7450182000175,None,332.7450182000175,None,332.7450182000175,None,334.422013120167,None,334.422013120167,None,334.422013120167,None,,,,,,,,,,,,,,207,2023-03-29_17h28.11.530,Main,2022.1.1,60.80986578619578,
positive,negative,1,l,j,,,,,,,,,5,6,96,5,,,,,,,,,main,2,2,1,negative,positive,j,j,1,0.9151999999303371,334.42798879998736,335.43862350005656,335.42466890020296,None,334.42798879998736,None,334.42798879998736,None,334.42798879998736,None,336.33858272004875,None,336.33858272004875,None,336.33858272004875,None,,,,,,,,,,,,,,207,2023-03-29_17h28.11.530,Main,2022.1.1,60.80986578619578,
negative,neutral,2,j,l,,,,,,,,,5,7,97,12,,,,,,,,,main,2,2,2,neutral,negative,l,l,1,0.8149060001596808,336.3441417000722,337.3552840000484,337.3386258999817,None,336.3441417000722,None,336.3441417000722,None,336.3441417000722,None,338.1552882200573,None,338.1552882200573,None,338.1552882200573,None,,,,,,,,,,,,,,207,2023-03-29_17h28.11.530,Main,2022.1.1,60.80986578619578,
negative,positive,2,j,l,,,,,,,,,5,8,98,15,,,,,,,,,main,2,2,2,positive,negative,l,l,1,0.6819023999851197,338.16126940003596,339.17186020012014,339.15797890000977,None,338.16126940003596,None,338.16126940003596,None,338.16126940003596,None,339.8385497200303,None,339.8385497200303,None,339.8385497200303,None,,,,,,,,,,,,,,207,2023-03-29_17h28.11.530,Main,2022.1.1,60.80986578619578,
positive,neutral,1,l,j,,,,,,,,,5,9,99,8,,,,,,,,,main,2,2,1,neutral,positive,j,j,1,0.7482555999886245,339.84186300006695,340.8552129000891,340.8385517001152,None,339.84186300006695,None,339.84186300006695,None,339.84186300006695,None,341.5885306200013,None,341.5885306200013,None,341.5885306200013,None,,,,,,,,,,,,,,207,2023-03-29_17h28.11.530,Main,2022.1.1,60.80986578619578,
neutral,negative,2,k,k,,,,,,,,,5,10,100,16,,,,,,,,,main,1,1,2,negative,neutral,k,k,1,0.5818745999131352,341.594321800163,342.6051645001862,342.57467950019054,None,341.594321800163,None,341.594321800163,None,341.594321800163,None,343.17195342006164,None,343.17195342006164,None,343.17195342006164,None,,,,,,,,,,,,,,207,2023-03-29_17h28.11.530,Main,2022.1.1,60.80986578619578,
neutral,neutral,1,k,k,,,,,,,,,5,11,101,1,,,,,,,,,main,1,1,1,neutral,neutral,k,k,1,0.6317759000230581,343.1773639000021,344.191220600158,344.1718292001169,None,343.1773639000021,None,343.1773639000021,None,343.1773639000021,None,344.805414920114,None,344.805414920114,None,344.805414920114,None,,,,,,,,,,,,,,207,2023-03-29_17h28.11.530,Main,2022.1.1,60.80986578619578,
negative,neutral,1,j,l,,,,,,,,,5,12,102,3,,,,,,,,,main,1,1,1,neutral,negative,l,l,1,0.7661494999192655,344.8113288001623,345.82177500007674,345.80549639998935,None,344.8113288001623,None,344.8113288001623,None,344.8113288001623,None,346.57205712017605,None,346.57205712017605,None,346.57205712017605,None,,,,,,,,,,,,,,207,2023-03-29_17h28.11.530,Main,2022.1.1,60.80986578619578,
positive,neutral,2,l,j,,,,,,,,,5,13,103,17,,,,,,,,,main,2,2,2,neutral,positive,j,j,1,0.8303600999061018,346.5783970002085,347.5884096000809,347.57452080002986,None,346.5783970002085,None,346.5783970002085,None,346.5783970002085,None,348.40503062019127,None,348.40503062019127,None,348.40503062019127,None,,,,,,,,,,,,,,207,2023-03-29_17h28.11.530,Main,2022.1.1,60.80986578619578,
negative,negative,1,j,l,,,,,,,,,5,14,104,0,,,,,,,,,main,2,2,1,negative,negative,l,l,1,1.0650075001176447,348.41073100012727,349.4219560001511,349.40790450014174,None,348.41073100012727,None,348.41073100012727,None,348.41073100012727,None,350.4716440200806,None,350.4716440200806,None,350.4716440200806,None,,,,,,,,,,,,,,207,2023-03-29_17h28.11.530,Main,2022.1.1,60.80986578619578,
neutral,negative,1,k,k,,,,,,,,,5,15,105,7,,,,,,,,,main,2,2,1,negative,neutral,k,k,1,0.6482320001814514,350.4749845000915,351.4716586000286,351.4578621000983,None,350.4749845000915,None,350.4749845000915,None,350.4749845000915,None,352.12161852014253,None,352.12161852014253,None,352.12161852014253,None,,,,,,,,,,,,,,207,2023-03-29_17h28.11.530,Main,2022.1.1,60.80986578619578,
neutral,positive,1,k,k,,,,,,,,,5,16,106,4,,,,,,,,,main,2,2,1,positive,neutral,k,k,1,0.6317181000486016,352.1268190999981,353.13825489999726,353.1215957000386,None,352.1268190999981,None,352.1268190999981,None,352.1268190999981,None,353.7549115201924,None,353.7549115201924,None,353.7549115201924,None,,,,,,,,,,,,,,207,2023-03-29_17h28.11.530,Main,2022.1.1,60.80986578619578,
positive,negative,2,l,j,,,,,,,,,5,17,107,14,,,,,,,,,main,1,1,2,negative,positive,j,j,1,0.8008739000651985,353.76006300002337,354.7715502001811,354.75759640010074,None,353.76006300002337,None,353.76006300002337,None,353.76006300002337,None,355.5572728201747,None,355.5572728201747,None,355.5572728201747,None,,,,,,,,,,,,,,207,2023-03-29_17h28.11.530,Main,2022.1.1,60.80986578619578,
negative,positive,1,j,l,,,,,,,,,6,0,108,6,,,,,,,,,main,1,1,1,positive,negative,l,l,1,0.7629442999605089,355.561973300064,356.57421350013465,356.55758560006507,None,355.561973300064,None,355.561973300064,None,355.561973300064,None,357.3214971201029,None,357.3214971201029,None,357.3214971201029,None,,,,,,,,,,,,,,207,2023-03-29_17h28.11.530,Main,2022.1.1,60.80986578619578,
positive,negative,1,l,j,,,,,,,,,6,1,109,5,,,,,,,,,main,1,1,1,negative,positive,j,j,1,0.8479536999948323,357.3269709001761,358.3410763000138,358.32149300002493,None,357.3269709001761,None,357.3269709001761,None,357.3269709001761,None,359.1714757200331,None,359.1714757200331,None,359.1714757200331,None,,,,,,,,,,,,,,207,2023-03-29_17h28.11.530,Main,2022.1.1,60.80986578619578,
negative,neutral,2,j,l,,,,,,,,,6,2,110,12,,,,,,,,,main,2,2,2,neutral,negative,l,l,1,0.8837745001073927,359.17761650006287,360.18816950009204,360.1741583000403,None,359.17761650006287,None,359.17761650006287,None,359.17761650006287,None,361.0575079199858,None,361.0575079199858,None,361.0575079199858,None,,,,,,,,,,,,,,207,2023-03-29_17h28.11.530,Main,2022.1.1,60.80986578619578,
negative,neutral,1,j,l,,,,,,,,,6,3,111,3,,,,,,,,,main,1,1,1,neutral,negative,l,l,1,1.0123926000669599,361.0607684000861,362.07147870003246,362.0547388000414,None,361.0607684000861,None,361.0607684000861,None,361.0607684000861,None,363.07138851997445,None,363.07138851997445,None,363.07138851997445,None,,,,,,,,,,,,,,207,2023-03-29_17h28.11.530,Main,2022.1.1,60.80986578619578,
negative,negative,1,j,l,,,,,,,,,6,4,112,0,,,,,,,,,main,1,1,1,negative,negative,l,l,1,1.1999554999638349,363.07630560011603,364.08808640018106,364.0574447000399,None,363.07630560011603,None,363.07630560011603,None,363.07630560011603,None,365.27147952015514,None,365.27147952015514,None,365.27147952015514,None,,,,,,,,,,,,,,207,2023-03-29_17h28.11.530,Main,2022.1.1,60.80986578619578,
neutral,positive,1,k,k,,,,,,,,,6,5,113,4,,,,,,,,,main,1,1,1,positive,neutral,k,k,1,0.7806226001121104,365.2758510001004,366.2880075001158,366.2713436000049,None,365.2758510001004,None,365.2758510001004,None,365.2758510001004,None,367.0547262201086,None,367.0547262201086,None,367.0547262201086,None,,,,,,,,,,,,,,207,2023-03-29_17h28.11.530,Main,2022.1.1,60.80986578619578,
negative,negative,2,j,l,,,,,,,,,6,6,114,9,,,,,,,,,main,1,1,2,negative,negative,l,l,1,0.9981340998783708,367.06012140004896,368.0740152001381,368.0546665000729,None,367.06012140004896,None,367.06012140004896,None,367.06012140004896,None,369.0546040201094,None,369.0546040201094,None,369.0546040201094,None,,,,,,,,,,,,,,207,2023-03-29_17h28.11.530,Main,2022.1.1,60.80986578619578,
positive,neutral,1,l,j,,,,,,,,,6,7,115,8,,,,,,,,,main,1,1,1,neutral,positive,j,j,1,0.8628416999708861,369.0630227001384,370.0739502001088,370.0578145000618,None,369.0630227001384,None,369.0630227001384,None,369.0630227001384,None,370.9214053201955,None,370.9214053201955,None,370.9214053201955,None,,,,,,,,,,,,,,207,2023-03-29_17h28.11.530,Main,2022.1.1,60.80986578619578,
positive,positive,1,l,j,,,,,,,,,6,8,116,2,,,,,,,,,main,2,2,1,positive,positive,j,j,1,0.8345806000288576,370.927126100054,371.937914500013,371.9212976000272,None,370.927126100054,None,370.927126100054,None,370.927126100054,None,372.7573664201424,None,372.7573664201424,None,372.7573664201424,None,,,,,,,,,,,,,,207,2023-03-29_17h28.11.530,Main,2022.1.1,60.80986578619578,
positive,negative,2,l,j,,,,,,,,,6,9,117,14,,,,,,,,,main,2,2,2,negative,positive,j,j,1,0.6787882000207901,372.76020690007135,373.77405370003544,373.75740030012093,None,372.76020690007135,None,372.76020690007135,None,372.76020690007135,None,374.43785092015753,None,374.43785092015753,None,374.43785092015753,None,,,,,,,,,,,,,,207,2023-03-29_17h28.11.530,Main,2022.1.1,60.80986578619578,
neutral,negative,1,k,k,,,,,,,,,6,10,118,7,,,,,,,,,main,2,2,1,negative,neutral,k,k,1,0.6484864999074489,374.4413784001954,375.45720890001394,375.4378341999836,None,374.4413784001954,None,374.4413784001954,None,374.4413784001954,None,376.08782342020424,None,376.08782342020424,None,376.08782342020424,None,,,,,,,,,,,,,,207,2023-03-29_17h28.11.530,Main,2022.1.1,60.80986578619578,
neutral,negative,2,k,k,,,,,,,,,6,11,119,16,,,,,,,,,main,2,2,2,negative,neutral,k,k,1,0.7510145001579076,376.09132590005174,377.1071813001763,377.08781040017493,None,376.09132590005174,None,376.09132590005174,None,376.09132590005174,None,377.8405823201407,None,377.8405823201407,None,377.8405823201407,None,,,,,,,,,,,,,,207,2023-03-29_17h28.11.530,Main,2022.1.1,60.80986578619578,
positive,positive,2,l,j,,,,,,,,,6,12,120,11,,,,,,,,,main,1,1,2,positive,positive,j,j,1,0.8288680000696331,377.84384510014206,378.8544264000375,378.8377450001426,None,377.84384510014206,None,377.84384510014206,None,377.84384510014206,None,379.6710853200872,None,379.6710853200872,None,379.6710853200872,None,,,,,,,,,,,,,,207,2023-03-29_17h28.11.530,Main,2022.1.1,60.80986578619578,
neutral,neutral,1,k,k,,,,,,,,,6,13,121,1,,,,,,,,,main,2,2,1,neutral,neutral,k,k,1,0.7483147999737412,379.6758972001262,380.68773090001196,380.6544004001189,None,379.6758972001262,None,379.6758972001262,None,379.6758972001262,None,381.4210219200701,None,381.4210219200701,None,381.4210219200701,None,,,,,,,,,,,,,,207,2023-03-29_17h28.11.530,Main,2022.1.1,60.80986578619578,
positive,neutral,2,l,j,,,,,,,,,6,14,122,17,,,,,,,,,main,2,2,2,neutral,positive,j,j,1,1.2318267000373453,381.42673870013095,382.44029569998384,382.4209990000818,None,381.42673870013095,None,381.42673870013095,None,381.42673870013095,None,383.6543070200365,None,383.6543070200365,None,383.6543070200365,None,,,,,,,,,,,,,,207,2023-03-29_17h28.11.530,Main,2022.1.1,60.80986578619578,
negative,positive,2,j,l,,,,,,,,,6,15,123,15,,,,,,,,,main,2,2,2,positive,negative,l,l,1,1.21518180007115,383.65830910019577,384.6709561999887,384.6376420999877,None,383.65830910019577,None,383.65830910019577,None,383.65830910019577,None,385.8709702199791,None,385.8709702199791,None,385.8709702199791,None,,,,,,,,,,,,,,207,2023-03-29_17h28.11.530,Main,2022.1.1,60.80986578619578,
neutral,positive,2,k,k,,,,,,,,,6,16,124,13,,,,,,,,,main,2,2,2,positive,neutral,k,k,1,0.7318158999551088,385.8740446001757,386.8736120001413,386.8736120001413,None,385.8740446001757,None,385.8740446001757,None,385.8740446001757,None,387.60420802016745,None,387.60420802016745,None,387.60420802016745,None,,,,,,,,,,,,,,207,2023-03-29_17h28.11.530,Main,2022.1.1,60.80986578619578,
neutral,neutral,2,k,k,,,,,,,,,6,17,125,10,,,,,,,,,main,2,2,2,neutral,neutral,k,k,1,0.6343352999538183,387.6209253000561,388.62348820012994,388.60418980009854,None,387.6209253000561,None,387.6209253000561,None,387.6209253000561,None,389.2401629201137,None,389.2401629201137,None,389.2401629201137,None,,,,,,,,,,,,,,207,2023-03-29_17h28.11.530,Main,2022.1.1,60.80986578619578,
neutral,negative,1,k,k,,,,,,,,,7,0,126,7,,,,,,,,,main,2,2,1,negative,neutral,k,k,1,0.7460427000187337,389.24297680007294,390.25415280018933,390.2374968000222,None,389.24297680007294,None,389.24297680007294,None,389.24297680007294,None,390.9874612201471,None,390.9874612201471,None,390.9874612201471,None,,,,,,,,,,,,,,207,2023-03-29_17h28.11.530,Main,2022.1.1,60.80986578619578,
neutral,positive,1,k,k,,,,,,,,,7,1,127,4,,,,,,,,,main,2,2,1,positive,neutral,k,k,1,0.6346195999067277,390.99311699997634,392.0050727999769,391.9901777000632,None,390.99311699997634,None,390.99311699997634,None,390.99311699997634,None,392.6236001200974,None,392.6236001200974,None,392.6236001200974,None,,,,,,,,,,,,,,207,2023-03-29_17h28.11.530,Main,2022.1.1,60.80986578619578,
positive,neutral,2,l,j,,,,,,,,,7,2,128,17,,,,,,,,,main,2,2,2,neutral,positive,j,j,1,0.8621332000475377,392.6268329001032,393.63747620000504,393.6208425001241,None,392.6268329001032,None,392.6268329001032,None,392.6268329001032,None,394.48742072018797,None,394.48742072018797,None,394.48742072018797,None,,,,,,,,,,,,,,207,2023-03-29_17h28.11.530,Main,2022.1.1,60.80986578619578,
neutral,negative,2,k,k,,,,,,,,,7,3,129,16,,,,,,,,,main,1,1,2,negative,neutral,k,k,1,0.8314506001770496,394.4926685001701,395.50403730012476,395.48737840005197,None,394.4926685001701,None,394.4926685001701,None,394.4926685001701,None,396.32070942004214,None,396.32070942004214,None,396.32070942004214,None,,,,,,,,,,,,,,207,2023-03-29_17h28.11.530,Main,2022.1.1,60.80986578619578,
positive,negative,1,l,j,,,,,,,,,7,4,130,5,,,,,,,,,main,2,2,1,negative,positive,j,j,1,0.8508168000262231,396.3259165000636,397.33733710017987,397.32077660015784,None,396.3259165000636,None,396.3259165000636,None,396.3259165000636,None,398.17291102013553,None,398.17291102013553,None,398.17291102013553,None,,,,,,,,,,,,,,207,2023-03-29_17h28.11.530,Main,2022.1.1,60.80986578619578,
positive,positive,2,l,j,,,,,,,,,7,5,131,11,,,,,,,,,main,1,1,2,positive,positive,j,j,1,0.8993118999060243,398.1778198000975,399.18730790005066,399.1735136001371,None,398.1778198000975,None,398.1778198000975,None,398.1778198000975,None,400.0733203200158,None,400.0733203200158,None,400.0733203200158,None,,,,,,,,,,,,,,207,2023-03-29_17h28.11.530,Main,2022.1.1,60.80986578619578,
neutral,neutral,2,k,k,,,,,,,,,7,6,132,10,,,,,,,,,main,2,2,2,neutral,neutral,k,k,1,0.7612317998427898,400.08158590015955,401.08728600014,401.07341610011645,None,400.08158590015955,None,400.08158590015955,None,400.08158590015955,None,401.8373387201224,None,401.8373387201224,None,401.8373387201224,None,,,,,,,,,,,,,,207,2023-03-29_17h28.11.530,Main,2022.1.1,60.80986578619578,
positive,positive,1,l,j,,,,,,,,,7,7,133,2,,,,,,,,,main,1,1,1,positive,positive,j,j,1,0.7816153999883682,401.84276340017095,402.85681590018794,402.8372744000517,None,401.84276340017095,None,401.84276340017095,None,401.84276340017095,None,403.62058811997997,None,403.62058811997997,None,403.62058811997997,None,,,,,,,,,,,,,,207,2023-03-29_17h28.11.530,Main,2022.1.1,60.80986578619578,
neutral,neutral,1,k,k,,,,,,,,,7,8,134,1,,,,,,,,,main,1,1,1,neutral,neutral,k,k,1,0.6982281999662519,403.62591090006754,404.637258999981,404.62331579998136,None,403.62591090006754,None,403.62591090006754,None,403.62591090006754,None,405.32059042006733,None,405.32059042006733,None,405.32059042006733,None,,,,,,,,,,,,,,207,2023-03-29_17h28.11.530,Main,2022.1.1,60.80986578619578,
neutral,positive,2,k,k,,,,,,,,,7,9,135,13,,,,,,,,,main,2,2,2,positive,neutral,k,k,1,0.6819913999643177,405.3238293000031,406.33715680008754,406.3205757001415,None,405.3238293000031,None,405.3238293000031,None,405.3238293000031,None,407.00378082008103,None,407.00378082008103,None,407.00378082008103,None,,,,,,,,,,,,,,207,2023-03-29_17h28.11.530,Main,2022.1.1,60.80986578619578,
positive,neutral,1,l,j,,,,,,,,,7,10,136,8,,,,,,,,,main,1,1,1,neutral,positive,j,j,1,0.781718899961561,407.00716120004654,408.0231449001003,407.9872125000693,None,407.00716120004654,None,407.00716120004654,None,407.00716120004654,None,408.78714562011885,None,408.78714562011885,None,408.78714562011885,None,,,,,,,,,,,,,,207,2023-03-29_17h28.11.530,Main,2022.1.1,60.80986578619578,
negative,negative,1,j,l,,,,,,,,,7,11,137,0,,,,,,,,,main,1,1,1,negative,negative,l,l,1,0.7154895002022386,408.7926235999912,409.8065009000711,409.7704736001324,None,408.7926235999912,None,408.7926235999912,None,408.7926235999912,None,410.50375902014787,None,410.50375902014787,None,410.50375902014787,None,,,,,,,,,,,,,,207,2023-03-29_17h28.11.530,Main,2022.1.1,60.80986578619578,
negative,positive,1,j,l,,,,,,,,,7,12,138,6,,,,,,,,,main,2,2,1,positive,negative,l,l,1,0.6490873999428004,410.50780390016735,411.5204342000652,411.50657080020756,None,410.50780390016735,None,410.50780390016735,None,410.50780390016735,None,412.15370262009094,None,412.15370262009094,None,412.15370262009094,None,,,,,,,,,,,,,,207,2023-03-29_17h28.11.530,Main,2022.1.1,60.80986578619578,
negative,neutral,2,j,l,,,,,,,,,7,13,139,12,,,,,,,,,main,2,2,2,neutral,negative,l,l,1,0.8805468999780715,412.15824360004626,413.17037220019847,413.15369569999166,None,412.15824360004626,None,412.15824360004626,None,412.15824360004626,None,414.0370083201211,None,414.0370083201211,None,414.0370083201211,None,,,,,,,,,,,,,,207,2023-03-29_17h28.11.530,Main,2022.1.1,60.80986578619578,
positive,negative,2,l,j,,,,,,,,,7,14,140,14,,,,,,,,,main,2,2,2,negative,positive,j,j,1,0.8149908999912441,414.04252850008197,415.0536558001768,415.03702520020306,None,414.04252850008197,None,414.04252850008197,None,414.04252850008197,None,415.8536696200259,None,415.8536696200259,None,415.8536696200259,None,,,,,,,,,,,,,,207,2023-03-29_17h28.11.530,Main,2022.1.1,60.80986578619578,
negative,negative,2,j,l,,,,,,,,,7,15,141,9,,,,,,,,,main,2,2,2,negative,negative,l,l,1,0.8309238001238555,415.8608492000494,416.87300610006787,416.85651130019687,None,415.8608492000494,None,415.8608492000494,None,415.8608492000494,None,417.6869822201785,None,417.6869822201785,None,417.6869822201785,None,,,,,,,,,,,,,,207,2023-03-29_17h28.11.530,Main,2022.1.1,60.80986578619578,
negative,positive,2,j,l,,,,,,,,,7,16,142,15,,,,,,,,,main,2,2,2,positive,negative,l,l,1,0.7510015999432653,417.6906001002062,418.6898415000178,418.6898415000178,None,417.6906001002062,None,417.6906001002062,None,417.6906001002062,None,419.4395428201184,None,419.4395428201184,None,419.4395428201184,None,,,,,,,,,,,,,,207,2023-03-29_17h28.11.530,Main,2022.1.1,60.80986578619578,
negative,neutral,1,j,l,,,,,,,,,7,17,143,3,,,,,,,,,main,1,1,1,neutral,negative,l,l,1,1.4623215000610799,419.4429149001371,420.45355980005115,420.4369020999875,None,419.4429149001371,None,419.4429149001371,None,419.4429149001371,None,421.9035164200701,None,421.9035164200701,None,421.9035164200701,None,,,,,,,,,,,,,,207,2023-03-29_17h28.11.530,Main,2022.1.1,60.80986578619578,
positive,negative,2,l,j,,,,,,,,,8,0,144,14,,,,,,,,,main,1,1,2,negative,positive,j,j,1,1.0650073001161218,421.90918150008656,422.92025239998475,422.903576400131,None,421.90918150008656,None,421.90918150008656,None,421.90918150008656,None,423.9702238199767,None,423.9702238199767,None,423.9702238199767,None,,,,,,,,,,,,,,207,2023-03-29_17h28.11.530,Main,2022.1.1,60.80986578619578,
positive,neutral,2,l,j,,,,,,,,,8,1,145,17,,,,,,,,,main,2,2,2,neutral,positive,j,j,1,0.9310035998933017,423.9745388000738,424.98946630000137,424.97013170016,None,423.9745388000738,None,423.9745388000738,None,423.9745388000738,None,425.90343042011375,None,425.90343042011375,None,425.90343042011375,None,,,,,,,,,,,,,,207,2023-03-29_17h28.11.530,Main,2022.1.1,60.80986578619578,
neutral,negative,1,k,k,,,,,,,,,8,2,146,7,,,,,,,,,main,1,1,1,negative,neutral,k,k,1,0.8181702999863774,425.90643620002083,426.9200901000295,426.90342149999924,None,425.90643620002083,None,425.90643620002083,None,425.90643620002083,None,427.72006822018886,None,427.72006822018886,None,427.72006822018886,None,,,,,,,,,,,,,,207,2023-03-29_17h28.11.530,Main,2022.1.1,60.80986578619578,
negative,neutral,2,j,l,,,,,,,,,8,3,147,12,,,,,,,,,main,1,1,2,neutral,negative,l,l,1,0.9120638000313193,427.7262006001547,428.7393674000632,428.7228118001949,None,427.7262006001547,None,427.7262006001547,None,427.7262006001547,None,429.6367098201532,None,429.6367098201532,None,429.6367098201532,None,,,,,,,,,,,,,,207,2023-03-29_17h28.11.530,Main,2022.1.1,60.80986578619578,
neutral,positive,2,k,k,,,,,,,,,8,4,148,13,,,,,,,,,main,2,2,2,positive,neutral,k,k,1,0.8846910998690873,429.64445920009166,430.653336300049,430.6366928999778,None,429.64445920009166,None,429.64445920009166,None,429.64445920009166,None,431.5226992200129,None,431.5226992200129,None,431.5226992200129,None,,,,,,,,,,,,,,207,2023-03-29_17h28.11.530,Main,2022.1.1,60.80986578619578,
negative,positive,1,j,l,,,,,,,,,8,5,149,6,,,,,,,,,main,2,2,1,positive,negative,l,l,1,0.9122180000413209,431.52647930011153,432.5366331001278,432.5199649001006,None,431.52647930011153,None,431.52647930011153,None,431.52647930011153,None,433.43659682003783,None,433.43659682003783,None,433.43659682003783,None,,,,,,,,,,,,,,207,2023-03-29_17h28.11.530,Main,2022.1.1,60.80986578619578,
negative,negative,1,j,l,,,,,,,,,8,6,150,0,,,,,,,,,main,1,1,1,negative,negative,l,l,1,0.8151300000026822,433.44198340014555,434.4532761001028,434.43927760003135,None,433.44198340014555,None,433.44198340014555,None,433.44198340014555,None,435.2533185201697,None,435.2533185201697,None,435.2533185201697,None,,,,,,,,,,,,,,207,2023-03-29_17h28.11.530,Main,2022.1.1,60.80986578619578,
negative,neutral,1,j,l,,,,,,,,,8,7,151,3,,,,,,,,,main,1,1,1,neutral,negative,l,l,1,1.20089039998129,435.2565477001481,436.2532389999833,436.2532389999833,None,435.2565477001481,None,435.2565477001481,None,435.2565477001481,None,437.4558461200446,None,437.4558461200446,None,437.4558461200446,None,,,,,,,,,,,,,,207,2023-03-29_17h28.11.530,Main,2022.1.1,60.80986578619578,
positive,positive,1,l,j,,,,,,,,,8,8,152,2,,,,,,,,,main,1,1,1,positive,positive,j,j,1,0.9460585999768227,437.45848620007746,438.47246760013513,438.4532031000126,None,437.45848620007746,None,437.45848620007746,None,437.45848620007746,None,439.4031705201138,None,439.4031705201138,None,439.4031705201138,None,,,,,,,,,,,,,,207,2023-03-29_17h28.11.530,Main,2022.1.1,60.80986578619578,
positive,positive,2,l,j,,,,,,,,,8,9,153,11,,,,,,,,,main,1,1,2,positive,positive,j,j,1,0.7177381000947207,439.40880280011334,440.4225112001877,440.40319199999794,None,439.40880280011334,None,439.40880280011334,None,439.40880280011334,None,441.1225106200669,None,441.1225106200669,None,441.1225106200669,None,,,,,,,,,,,,,,207,2023-03-29_17h28.11.530,Main,2022.1.1,60.80986578619578,
neutral,neutral,2,k,k,,,,,,,,,8,10,154,10,,,,,,,,,main,1,1,2,neutral,neutral,k,k,1,0.7956723999232054,441.1253847000189,442.13647540006787,442.1198129002005,None,441.1253847000189,None,441.1253847000189,None,441.1253847000189,None,442.919786420092,None,442.919786420092,None,442.919786420092,None,,,,,,,,,,,,,,207,2023-03-29_17h28.11.530,Main,2022.1.1,60.80986578619578,
neutral,positive,1,k,k,,,,,,,,,8,11,155,4,,,,,,,,,main,2,2,1,positive,neutral,k,k,1,0.6704224001150578,442.9254307001829,443.93909600004554,443.9197754000779,None,442.9254307001829,None,442.9254307001829,None,442.9254307001829,None,444.58913152003663,None,444.58913152003663,None,444.58913152003663,None,,,,,,,,,,,,,,207,2023-03-29_17h28.11.530,Main,2022.1.1,60.80986578619578,
negative,positive,2,j,l,,,,,,,,,8,12,156,15,,,,,,,,,main,2,2,2,positive,negative,l,l,1,0.8099072000477463,444.5947754001245,445.6030238000676,445.58918000012636,None,444.5947754001245,None,444.5947754001245,None,444.5947754001245,None,446.4030165201053,None,446.4030165201053,None,446.4030165201053,None,,,,,,,,,,,,,,207,2023-03-29_17h28.11.530,Main,2022.1.1,60.80986578619578,
neutral,negative,2,k,k,,,,,,,,,8,13,157,16,,,,,,,,,main,2,2,2,negative,neutral,k,k,1,0.8314008000306785,446.406459600199,447.41968350019306,447.4029893002007,None,446.406459600199,None,446.406459600199,None,446.406459600199,None,448.23628992019223,None,448.23628992019223,None,448.23628992019223,None,,,,,,,,,,,,,,207,2023-03-29_17h28.11.530,Main,2022.1.1,60.80986578619578,
neutral,neutral,1,k,k,,,,,,,,,8,14,158,1,,,,,,,,,main,2,2,1,neutral,neutral,k,k,1,0.7662967001087964,448.2418375001289,449.25562559999526,449.2362867000047,None,448.2418375001289,None,448.2418375001289,None,448.2418375001289,None,450.00293312002907,None,450.00293312002907,None,450.00293312002907,None,,,,,,,,,,,,,,207,2023-03-29_17h28.11.530,Main,2022.1.1,60.80986578619578,
negative,negative,2,j,l,,,,,,,,,8,15,159,9,,,,,,,,,main,2,2,2,negative,negative,l,l,1,0.8476118000689894,450.00868070009165,451.01959270006046,451.00291440007277,None,450.00868070009165,None,450.00868070009165,None,450.00868070009165,None,451.85289212004284,None,451.85289212004284,None,451.85289212004284,None,,,,,,,,,,,,,,207,2023-03-29_17h28.11.530,Main,2022.1.1,60.80986578619578,
positive,negative,1,l,j,,,,,,,,,8,16,160,5,,,,,,,,,main,1,1,1,negative,positive,j,j,1,0.9818226001225412,451.8562612000387,452.8695464001503,452.8528875000775,None,451.8562612000387,None,451.8562612000387,None,451.8562612000387,None,453.83633282002995,None,453.83633282002995,None,453.83633282002995,None,,,,,,,,,,,,,,207,2023-03-29_17h28.11.530,Main,2022.1.1,60.80986578619578,
positive,neutral,1,l,j,,,,,,,,,8,17,161,8,,,,,,,,,main,2,2,1,neutral,positive,j,j,1,0.6817348999902606,453.8413095001597,454.85285480017774,454.83890550001524,None,453.8413095001597,None,453.8413095001597,None,453.8413095001597,None,455.5194944200572,None,455.5194944200572,None,455.5194944200572,None,,,,,,,,,,,,,,207,2023-03-29_17h28.11.530,Main,2022.1.1,60.80986578619578,
neutral,positive,1,k,k,,,,,,,,,9,0,162,4,,,,,,,,,main,2,2,1,positive,neutral,k,k,1,0.6984869998414069,455.5243454000447,456.53874280001037,456.519492899999,None,455.5243454000447,None,455.5243454000447,None,455.5243454000447,None,457.2194464201108,None,457.2194464201108,None,457.2194464201108,None,,,,,,,,,,,,,,207,2023-03-29_17h28.11.530,Main,2022.1.1,60.80986578619578,
negative,negative,1,j,l,,,,,,,,,9,1,163,0,,,,,,,,,main,2,2,1,negative,negative,l,l,1,0.8817110999953002,457.2249303001445,458.2360963001847,458.2194344000891,None,457.2249303001445,None,457.2249303001445,None,457.2249303001445,None,459.1027522200253,None,459.1027522200253,None,459.1027522200253,None,,,,,,,,,,,,,,207,2023-03-29_17h28.11.530,Main,2022.1.1,60.80986578619578,
neutral,neutral,1,k,k,,,,,,,,,9,2,164,1,,,,,,,,,main,2,2,1,neutral,neutral,k,k,1,0.6650123000144958,459.10791900008917,460.1194586001802,460.0888877999969,None,459.10791900008917,None,459.10791900008917,None,459.10791900008917,None,460.7694022200536,None,460.7694022200536,None,460.7694022200536,None,,,,,,,,,,,,,,207,2023-03-29_17h28.11.530,Main,2022.1.1,60.80986578619578,
positive,positive,2,l,j,,,,,,,,,9,3,165,11,,,,,,,,,main,2,2,2,positive,positive,j,j,1,1.731554500060156,460.7751345001161,461.78606660012156,461.7694064001553,None,460.7751345001161,None,460.7751345001161,None,460.7751345001161,None,463.5026856001932,None,463.5026856001932,None,463.5026856001932,None,,,,,,,,,,,,,,207,2023-03-29_17h28.11.530,Main,2022.1.1,60.80986578619578,
neutral,negative,2,k,k,,,,,,,,,9,4,166,16,,,,,,,,,main,1,1,2,negative,neutral,k,k,1,0.6676813000813127,464.5043655000627,465.50265050004236,465.4887569001876,None,464.5043655000627,None,464.5043655000627,None,464.5043655000627,None,466.16928201997655,None,466.16928201997655,None,466.16928201997655,None,,,,,,,,,,,,,,207,2023-03-29_17h28.11.530,Main,2022.1.1,60.80986578619578,
positive,negative,2,l,j,,,,,,,,,9,5,167,14,,,,,,,,,main,2,2,2,negative,positive,j,j,1,0.8142910997848958,466.17510270001367,467.1859492000658,467.16933419997804,None,466.17510270001367,None,466.17510270001367,None,466.17510270001367,None,467.9859818200581,None,467.9859818200581,None,467.9859818200581,None,,,,,,,,,,,,,,207,2023-03-29_17h28.11.530,Main,2022.1.1,60.80986578619578,
negative,positive,2,j,l,,,,,,,,,9,6,168,15,,,,,,,,,main,2,2,2,positive,negative,l,l,1,0.7819052999839187,467.99184130015783,469.0025925000664,468.9887785001192,None,467.99184130015783,None,467.99184130015783,None,467.99184130015783,None,469.76920881997796,None,469.76920881997796,None,469.76920881997796,None,,,,,,,,,,,,,,207,2023-03-29_17h28.11.530,Main,2022.1.1,60.80986578619578,
neutral,neutral,2,k,k,,,,,,,,,9,7,169,10,,,,,,,,,main,2,2,2,neutral,neutral,k,k,1,0.7326539000496268,469.77464279998094,470.7886324999854,470.77193960011937,None,469.77464279998094,None,469.77464279998094,None,469.77464279998094,None,471.50344282006847,None,471.50344282006847,None,471.50344282006847,None,,,,,,,,,,,,,,207,2023-03-29_17h28.11.530,Main,2022.1.1,60.80986578619578,
negative,positive,1,j,l,,,,,,,,,9,8,170,6,,,,,,,,,main,2,2,1,positive,negative,l,l,1,0.8308618001174182,471.5092291000765,472.5217876001261,472.50245620007627,None,471.5092291000765,None,471.5092291000765,None,471.5092291000765,None,473.33579162009994,None,473.33579162009994,None,473.33579162009994,None,,,,,,,,,,,,,,207,2023-03-29_17h28.11.530,Main,2022.1.1,60.80986578619578,
positive,neutral,1,l,j,,,,,,,,,9,9,171,8,,,,,,,,,main,2,2,1,neutral,positive,j,j,1,0.9347367000300437,473.3389285001904,474.35243580001406,474.3384438001085,None,473.3389285001904,None,473.3389285001904,None,473.3389285001904,None,475.27187252012084,None,475.27187252012084,None,475.27187252012084,None,,,,,,,,,,,,,,207,2023-03-29_17h28.11.530,Main,2022.1.1,60.80986578619578,
negative,neutral,2,j,l,,,,,,,,,9,10,172,12,,,,,,,,,main,2,2,2,neutral,negative,l,l,1,1.0456517999991775,475.27512460015714,476.2885500001721,476.2690862000454,None,475.27512460015714,None,475.27512460015714,None,475.27512460015714,None,477.3189926200081,None,477.3189926200081,None,477.3189926200081,None,,,,,,,,,,,,,,207,2023-03-29_17h28.11.530,Main,2022.1.1,60.80986578619578,
negative,negative,2,j,l,,,,,,,,,9,11,173,9,,,,,,,,,main,2,2,2,negative,negative,l,l,1,1.01510399999097,477.3241950001102,478.3384071001783,478.3217826001346,None,477.3241950001102,None,477.3241950001102,None,477.3241950001102,None,479.3357715200633,None,479.3357715200633,None,479.3357715200633,None,,,,,,,,,,,,,,207,2023-03-29_17h28.11.530,Main,2022.1.1,60.80986578619578,
negative,neutral,1,j,l,,,,,,,,,9,12,174,3,,,,,,,,,main,2,2,1,neutral,negative,l,l,1,1.0684760001022369,479.340851200046,480.35228690016083,480.33834830019623,None,479.340851200046,None,479.340851200046,None,479.340851200046,None,481.40493772006596,None,481.40493772006596,None,481.40493772006596,None,,,,,,,,,,,,,,207,2023-03-29_17h28.11.530,Main,2022.1.1,60.80986578619578,
positive,positive,1,l,j,,,,,,,,,9,13,175,2,,,,,,,,,main,2,2,1,positive,positive,j,j,1,0.8282921998761594,481.4088521001395,482.4188981000334,482.40497490018606,None,481.4088521001395,None,481.4088521001395,None,481.4088521001395,None,483.2355353200343,None,483.2355353200343,None,483.2355353200343,None,,,,,,,,,,,,,,207,2023-03-29_17h28.11.530,Main,2022.1.1,60.80986578619578,
positive,neutral,2,l,j,,,,,,,,,9,14,176,17,,,,,,,,,main,1,1,2,neutral,positive,j,j,1,1.5847690999507904,483.24055850016885,484.2522093001753,484.22159920004196,None,483.24055850016885,None,483.24055850016885,None,483.24055850016885,None,485.8188846001867,None,485.8188846001867,None,485.8188846001867,None,,,,,,,,,,,,,,207,2023-03-29_17h28.11.530,Main,2022.1.1,60.80986578619578,
positive,negative,1,l,j,,,,,,,,,9,15,177,5,,,,,,,,,main,1,1,1,negative,positive,j,j,1,0.8196299998089671,486.8188482001424,487.821540400153,487.80499730003066,None,486.8188482001424,None,486.8188482001424,None,486.8188482001424,None,488.635468520131,None,488.635468520131,None,488.635468520131,None,,,,,,,,,,,,,,207,2023-03-29_17h28.11.530,Main,2022.1.1,60.80986578619578,
neutral,negative,1,k,k,,,,,,,,,9,16,178,7,,,,,,,,,main,2,2,1,negative,neutral,k,k,1,0.866624099900946,488.6388106001541,489.6547246000264,489.6355318001006,None,488.6388106001541,None,488.6388106001541,None,488.6388106001541,None,490.50207051998007,None,490.50207051998007,None,490.50207051998007,None,,,,,,,,,,,,,,207,2023-03-29_17h28.11.530,Main,2022.1.1,60.80986578619578,
neutral,positive,2,k,k,,,,,,,,,9,17,179,13,,,,,,,,,main,2,2,2,positive,neutral,k,k,1,0.6178599998820573,490.50816710013896,491.521571099991,491.5048392000608,None,490.50816710013896,None,490.50816710013896,None,490.50816710013896,None,492.1228478200734,None,492.1228478200734,None,492.1228478200734,None,,,,,,,,,,,,,,207,2023-03-29_17h28.11.530,Main,2022.1.1,60.80986578619578,
positive,neutral,2,l,j,,,,,,,,,10,0,180,17,,,,,,,,,main,1,1,2,neutral,positive,j,j,1,1.3272947000805289,492.12575410003774,493.1358911001589,493.1184794001747,None,492.12575410003774,None,492.12575410003774,None,492.12575410003774,None,494.45182732017713,None,494.45182732017713,None,494.45182732017713,None,,,,,,,,,,,,,,207,2023-03-29_17h28.11.530,Main,2022.1.1,60.80986578619578,
negative,negative,2,j,l,,,,,,,,,10,1,181,9,,,,,,,,,main,1,1,2,negative,negative,l,l,1,0.7517051000613719,494.4548808000982,495.4549190001562,495.4383308000397,None,494.4548808000982,None,494.4548808000982,None,494.4548808000982,None,496.2048519201577,None,496.2048519201577,None,496.2048519201577,None,,,,,,,,,,,,,,207,2023-03-29_17h28.11.530,Main,2022.1.1,60.80986578619578,
neutral,neutral,2,k,k,,,,,,,,,10,2,182,10,,,,,,,,,main,1,1,2,neutral,neutral,k,k,1,0.6954820998944342,496.207832199987,497.21866400004365,497.20473470003344,None,496.207832199987,None,496.207832199987,None,496.207832199987,None,497.9019829201512,None,497.9019829201512,None,497.9019829201512,None,,,,,,,,,,,,,,207,2023-03-29_17h28.11.530,Main,2022.1.1,60.80986578619578,
neutral,neutral,1,k,k,,,,,,,,,10,3,183,1,,,,,,,,,main,1,1,1,neutral,neutral,k,k,1,0.7149632999207824,497.9054268000182,498.9021999000106,498.9021999000106,None,497.9054268000182,None,497.9054268000182,None,497.9054268000182,None,499.61863792003135,None,499.61863792003135,None,499.61863792003135,None,,,,,,,,,,,,,,207,2023-03-29_17h28.11.530,Main,2022.1.1,60.80986578619578,
negative,negative,1,j,l,,,,,,,,,10,4,184,0,,,,,,,,,main,2,2,1,negative,negative,l,l,1,0.7317778998985887,499.62437890004367,500.63817630009726,500.62138710008,None,499.62437890004367,None,499.62437890004367,None,499.62437890004367,None,501.35188202015127,None,501.35188202015127,None,501.35188202015127,None,,,,,,,,,,,,,,207,2023-03-29_17h28.11.530,Main,2022.1.1,60.80986578619578,
neutral,positive,2,k,k,,,,,,,,,10,5,185,13,,,,,,,,,main,2,2,2,positive,neutral,k,k,1,0.7679370001424104,501.3585034001153,502.37178980000317,502.3551787000615,None,501.3585034001153,None,501.3585034001153,None,501.3585034001153,None,503.1212585201953,None,503.1212585201953,None,503.1212585201953,None,,,,,,,,,,,,,,207,2023-03-29_17h28.11.530,Main,2022.1.1,60.80986578619578,
negative,neutral,1,j,l,,,,,,,,,10,6,186,3,,,,,,,,,main,1,1,1,neutral,negative,l,l,1,0.6800528999883682,503.1244104001671,504.1383650000207,504.11852110014297,None,503.1244104001671,None,503.1244104001671,None,503.1244104001671,None,504.8019094200805,None,504.8019094200805,None,504.8019094200805,None,,,,,,,,,,,,,,207,2023-03-29_17h28.11.530,Main,2022.1.1,60.80986578619578,
positive,negative,2,l,j,,,,,,,,,10,7,187,14,,,,,,,,,main,2,2,2,negative,positive,j,j,1,0.9302610999438912,504.80643690004945,505.8184878001921,505.8020125001203,None,504.80643690004945,None,504.80643690004945,None,504.80643690004945,None,506.7351363200229,None,506.7351363200229,None,506.7351363200229,None,,,,,,,,,,,,,,207,2023-03-29_17h28.11.530,Main,2022.1.1,60.80986578619578,
negative,neutral,2,j,l,,,,,,,,,10,8,188,12,,,,,,,,,main,1,1,2,neutral,negative,l,l,1,0.7181235000025481,506.741105500143,507.7517951000482,507.7184668001719,None,506.741105500143,None,506.741105500143,None,506.741105500143,None,508.4547365199775,None,508.4547365199775,None,508.4547365199775,None,,,,,,,,,,,,,,207,2023-03-29_17h28.11.530,Main,2022.1.1,60.80986578619578,
positive,positive,1,l,j,,,,,,,,,10,9,189,2,,,,,,,,,main,1,1,1,positive,positive,j,j,1,1.261877000099048,508.4575402000919,509.4683907001745,509.4544939000625,None,508.4575402000919,None,508.4575402000919,None,508.4575402000919,None,510.71838352005,None,510.71838352005,None,510.71838352005,None,,,,,,,,,,,,,,207,2023-03-29_17h28.11.530,Main,2022.1.1,60.80986578619578,
positive,negative,1,l,j,,,,,,,,,10,10,190,5,,,,,,,,,main,2,2,1,negative,positive,j,j,1,0.6653205000329763,510.723624400096,511.7361812000163,511.72155060013756,None,510.723624400096,None,510.723624400096,None,510.723624400096,None,512.3850005200599,None,512.3850005200599,None,512.3850005200599,None,,,,,,,,,,,,,,207,2023-03-29_17h28.11.530,Main,2022.1.1,60.80986578619578,
neutral,negative,2,k,k,,,,,,,,,10,11,191,16,,,,,,,,,main,1,1,2,negative,neutral,k,k,1,0.7663859000895172,512.3909799000248,513.4016427001916,513.3849930001888,None,512.3909799000248,None,512.3909799000248,None,512.3909799000248,None,514.1519539201632,None,514.1519539201632,None,514.1519539201632,None,,,,,,,,,,,,,,207,2023-03-29_17h28.11.530,Main,2022.1.1,60.80986578619578,
negative,positive,1,j,l,,,,,,,,,10,12,192,6,,,,,,,,,main,2,2,1,positive,negative,l,l,1,0.7313385000452399,514.1576861001085,515.1682583000511,515.1544566000812,None,514.1576861001085,None,514.1576861001085,None,514.1576861001085,None,515.8847148200963,None,515.8847148200963,None,515.8847148200963,None,,,,,,,,,,,,,,207,2023-03-29_17h28.11.530,Main,2022.1.1,60.80986578619578,
positive,neutral,1,l,j,,,,,,,,,10,13,193,8,,,,,,,,,main,2,2,1,neutral,positive,j,j,1,0.7806651999708265,515.8910297001712,516.904388200026,516.8877656999975,None,515.8910297001712,None,515.8910297001712,None,515.8910297001712,None,517.6682211201638,None,517.6682211201638,None,517.6682211201638,None,,,,,,,,,,,,,,207,2023-03-29_17h28.11.530,Main,2022.1.1,60.80986578619578,
negative,positive,2,j,l,,,,,,,,,10,14,194,15,,,,,,,,,main,2,2,2,positive,negative,l,l,1,0.8344177000690252,517.6737462000456,518.6882143002003,518.6515607000329,None,517.6737462000456,None,517.6737462000456,None,517.6737462000456,None,519.5042212201748,None,519.5042212201748,None,519.5042212201748,None,,,,,,,,,,,,,,207,2023-03-29_17h28.11.530,Main,2022.1.1,60.80986578619578,
neutral,negative,1,k,k,,,,,,,,,10,15,195,7,,,,,,,,,main,1,1,1,negative,neutral,k,k,1,0.7124814998824149,519.5073248001281,520.5181798001286,520.5015304000117,None,519.5073248001281,None,519.5073248001281,None,519.5073248001281,None,521.2181235201657,None,521.2181235201657,None,521.2181235201657,None,,,,,,,,,,,,,,207,2023-03-29_17h28.11.530,Main,2022.1.1,60.80986578619578,
neutral,positive,1,k,k,,,,,,,,,10,16,196,4,,,,,,,,,main,1,1,1,positive,neutral,k,k,1,0.6650717000011355,521.2236727001145,522.2347809001803,522.2181314001791,None,521.2236727001145,None,521.2236727001145,None,521.2236727001145,None,522.8847791200038,None,522.8847791200038,None,522.8847791200038,None,,,,,,,,,,,,,,207,2023-03-29_17h28.11.530,Main,2022.1.1,60.80986578619578,
positive,positive,2,l,j,,,,,,,,,10,17,197,11,,,,,,,,,main,2,2,2,positive,positive,j,j,1,0.8149474000092596,522.8885473001283,523.9042389001697,523.8876297001261,None,522.8885473001283,None,522.8885473001283,None,522.8885473001283,None,524.7014250200242,None,524.7014250200242,None,524.7014250200242,None,,,,,,,,,,,,,,207,2023-03-29_17h28.11.530,Main,2022.1.1,60.80986578619578,
neutral,neutral,1,k,k,,,,,,,,,11,0,198,1,,,,,,,,,main,1,1,1,neutral,neutral,k,k,1,0.7648310998920351,524.7048226001207,525.7180799001362,525.701388000045,None,524.7048226001207,None,524.7048226001207,None,524.7048226001207,None,526.4680832199753,None,526.4680832199753,None,526.4680832199753,None,,,,,,,,,,,,,,207,2023-03-29_17h28.11.530,Main,2022.1.1,60.80986578619578,
negative,negative,1,j,l,,,,,,,,,11,1,199,0,,,,,,,,,main,1,1,1,negative,negative,l,l,1,0.918058899929747,526.4730456001125,527.4846767000854,527.4541392000392,None,526.4730456001125,None,526.4730456001125,None,526.4730456001125,None,528.387474620156,None,528.387474620156,None,528.387474620156,None,,,,,,,,,,,,,,207,2023-03-29_17h28.11.530,Main,2022.1.1,60.80986578619578,
positive,neutral,2,l,j,,,,,,,,,11,2,200,17,,,,,,,,,main,2,2,2,neutral,positive,j,j,1,0.7798907998949289,528.3907574000768,529.4013263001107,529.3873990001157,None,528.3907574000768,None,528.3907574000768,None,528.3907574000768,None,530.1690652201884,None,530.1690652201884,None,530.1690652201884,None,,,,,,,,,,,,,,207,2023-03-29_17h28.11.530,Main,2022.1.1,60.80986578619578,
negative,positive,2,j,l,,,,,,,,,11,3,201,15,,,,,,,,,main,1,1,2,positive,negative,l,l,1,0.7002735000569373,530.1748782000504,531.1845776999835,531.167910200078,None,530.1748782000504,None,530.1748782000504,None,530.1748782000504,None,531.8709222200793,None,531.8709222200793,None,531.8709222200793,None,,,,,,,,,,,,,,207,2023-03-29_17h28.11.530,Main,2022.1.1,60.80986578619578,
positive,neutral,1,l,j,,,,,,,,,11,4,202,8,,,,,,,,,main,1,1,1,neutral,positive,j,j,1,0.8119459000881761,531.8740374001209,532.8873648000881,532.8679257000331,None,531.8740374001209,None,531.8740374001209,None,531.8740374001209,None,533.684532820154,None,533.684532820154,None,533.684532820154,None,,,,,,,,,,,,,,207,2023-03-29_17h28.11.530,Main,2022.1.1,60.80986578619578,
negative,positive,1,j,l,,,,,,,,,11,5,203,6,,,,,,,,,main,2,2,1,positive,negative,l,l,1,0.8819981999695301,533.6898680999875,534.7011698000133,534.6845247000456,None,533.6898680999875,None,533.6898680999875,None,533.6898680999875,None,535.5679082201328,None,535.5679082201328,None,535.5679082201328,None,,,,,,,,,,,,,,207,2023-03-29_17h28.11.530,Main,2022.1.1,60.80986578619578,
neutral,positive,2,k,k,,,,,,,,,11,6,204,13,,,,,,,,,main,1,1,2,positive,neutral,k,k,1,0.6816130001097918,535.5715235001408,536.5705201001838,536.5705201001838,None,535.5715235001408,None,535.5715235001408,None,535.5715235001408,None,537.2511036201846,None,537.2511036201846,None,537.2511036201846,None,,,,,,,,,,,,,,207,2023-03-29_17h28.11.530,Main,2022.1.1,60.80986578619578,
positive,positive,2,l,j,,,,,,,,,11,7,205,11,,,,,,,,,main,1,1,2,positive,positive,j,j,1,0.9650781000964344,537.254247300094,538.2511008000001,538.2371529000811,None,537.254247300094,None,537.254247300094,None,537.254247300094,None,539.2177405200433,None,539.2177405200433,None,539.2177405200433,None,,,,,,,,,,,,,,207,2023-03-29_17h28.11.530,Main,2022.1.1,60.80986578619578,
positive,negative,1,l,j,,,,,,,,,11,8,206,5,,,,,,,,,main,2,2,1,negative,positive,j,j,1,0.7320092001464218,539.2237333999947,540.2372411000542,540.2177475001663,None,539.2237333999947,None,539.2237333999947,None,539.2237333999947,None,540.951088720141,None,540.951088720141,None,540.951088720141,None,,,,,,,,,,,,,,207,2023-03-29_17h28.11.530,Main,2022.1.1,60.80986578619578,
neutral,negative,2,k,k,,,,,,,,,11,9,207,16,,,,,,,,,main,2,2,2,negative,neutral,k,k,1,0.814833499956876,540.9547469001263,541.9677314001601,541.9539829001296,None,540.9547469001263,None,540.9547469001263,None,540.9547469001263,None,542.7677019200288,None,542.7677019200288,None,542.7677019200288,None,,,,,,,,,,,,,,207,2023-03-29_17h28.11.530,Main,2022.1.1,60.80986578619578,
neutral,negative,1,k,k,,,,,,,,,11,10,208,7,,,,,,,,,main,2,2,1,negative,neutral,k,k,1,0.7344098000321537,542.7736940002069,543.7870299001224,543.7676654001698,None,542.7736940002069,None,542.7736940002069,None,542.7736940002069,None,544.5036763201002,None,544.5036763201002,None,544.5036763201002,None,,,,,,,,,,,,,,207,2023-03-29_17h28.11.530,Main,2022.1.1,60.80986578619578,
negative,negative,2,j,l,,,,,,,,,11,11,209,9,,,,,,,,,main,2,2,2,negative,negative,l,l,1,0.6124361001420766,544.5073625000659,545.5203313999809,545.5009926001076,None,544.5073625000659,None,544.5073625000659,None,544.5073625000659,None,546.1176440200303,None,546.1176440200303,None,546.1176440200303,None,,,,,,,,,,,,,,207,2023-03-29_17h28.11.530,Main,2022.1.1,60.80986578619578,
negative,neutral,1,j,l,,,,,,,,,11,12,210,3,,,,,,,,,main,1,1,1,neutral,negative,l,l,1,0.965004799887538,546.1231291000731,547.1371166000608,547.1176354000345,None,546.1231291000731,None,546.1231291000731,None,546.1231291000731,None,548.0842652201187,None,548.0842652201187,None,548.0842652201187,None,,,,,,,,,,,,,,207,2023-03-29_17h28.11.530,Main,2022.1.1,60.80986578619578,
neutral,neutral,2,k,k,,,,,,,,,11,13,211,10,,,,,,,,,main,2,2,2,neutral,neutral,k,k,1,0.7815051001962274,548.087904300075,549.0870943001937,549.0870943001937,None,548.087904300075,None,548.087904300075,None,548.087904300075,None,549.8673121201806,None,549.8673121201806,None,549.8673121201806,None,,,,,,,,,,,,,,207,2023-03-29_17h28.11.530,Main,2022.1.1,60.80986578619578,
negative,neutral,2,j,l,,,,,,,,,11,14,212,12,,,,,,,,,main,2,2,2,neutral,negative,l,l,1,0.7817391001153737,549.8728607001249,550.8870040001348,550.8510772001464,None,549.8728607001249,None,549.8728607001249,None,549.8728607001249,None,551.6508190200199,None,551.6508190200199,None,551.6508190200199,None,,,,,,,,,,,,,,207,2023-03-29_17h28.11.530,Main,2022.1.1,60.80986578619578,
neutral,positive,1,k,k,,,,,,,,,11,15,213,4,,,,,,,,,main,2,2,1,positive,neutral,k,k,1,0.7652141998987645,551.6539742001332,552.6535921001341,552.6535921001341,None,551.6539742001332,None,551.6539742001332,None,551.6539742001332,None,553.4174583201763,None,553.4174583201763,None,553.4174583201763,None,,,,,,,,,,,,,,207,2023-03-29_17h28.11.530,Main,2022.1.1,60.80986578619578,
positive,negative,2,l,j,,,,,,,,,11,16,214,14,,,,,,,,,main,1,1,2,negative,positive,j,j,1,1.546680400148034,553.4234836001415,554.4341150000691,554.4174527002033,None,553.4234836001415,None,553.4234836001415,None,553.4234836001415,None,555.9674476000946,None,555.9674476000946,None,555.9674476000946,None,,,,,,,,,,,,,,207,2023-03-29_17h28.11.530,Main,2022.1.1,60.80986578619578,
positive,positive,1,l,j,,,,,,,,,11,17,215,2,,,,,,,,,main,1,1,1,positive,positive,j,j,1,0.750731399981305,556.9684992001858,557.9840486000758,557.9505917001516,None,556.9684992001858,None,556.9684992001858,None,556.9684992001858,None,558.7173524199985,None,558.7173524199985,None,558.7173524199985,None,,,,,,,,,,,,,,207,2023-03-29_17h28.11.530,Main,2022.1.1,60.80986578619578,
positive,positive,1,l,j,,,,,,,,,12,0,216,2,,,,,,,,,main,1,1,1,positive,positive,j,j,1,0.5671502999030054,558.7211031001061,559.7339977000374,559.7200860001612,None,558.7211031001061,None,558.7211031001061,None,558.7211031001061,None,560.2866741201375,None,560.2866741201375,None,560.2866741201375,None,,,,,,,,,,,,,,207,2023-03-29_17h28.11.530,Main,2022.1.1,60.80986578619578,
neutral,negative,1,k,k,,,,,,,,,12,1,217,7,,,,,,,,,main,2,2,1,negative,neutral,k,k,1,0.678145500132814,560.2906740000471,561.3006278001703,561.2839685000945,None,560.2906740000471,None,560.2906740000471,None,560.2906740000471,None,561.9673082201276,None,561.9673082201276,None,561.9673082201276,None,,,,,,,,,,,,,,207,2023-03-29_17h28.11.530,Main,2022.1.1,60.80986578619578,
positive,negative,2,l,j,,,,,,,,,12,2,218,14,,,,,,,,,main,2,2,2,negative,positive,j,j,1,0.6649770000949502,561.9754681000486,562.9866691001225,562.9672915001865,None,561.9754681000486,None,561.9754681000486,None,561.9754681000486,None,563.6336852201727,None,563.6336852201727,None,563.6336852201727,None,,,,,,,,,,,,,,207,2023-03-29_17h28.11.530,Main,2022.1.1,60.80986578619578,
neutral,positive,1,k,k,,,,,,,,,12,3,219,4,,,,,,,,,main,1,1,1,positive,neutral,k,k,1,0.6152048001531512,563.639982300112,564.6505433002021,564.6366239001509,None,563.639982300112,None,563.639982300112,None,563.639982300112,None,565.2505275201053,None,565.2505275201053,None,565.2505275201053,None,,,,,,,,,,,,,,207,2023-03-29_17h28.11.530,Main,2022.1.1,60.80986578619578,
negative,positive,1,j,l,,,,,,,,,12,4,220,6,,,,,,,,,main,2,2,1,positive,negative,l,l,1,0.9319043001160026,565.2556958000641,566.2699363001157,566.2533840001561,None,565.2556958000641,None,565.2556958000641,None,565.2556958000641,None,567.1838275200222,None,567.1838275200222,None,567.1838275200222,None,,,,,,,,,,,,,,207,2023-03-29_17h28.11.530,Main,2022.1.1,60.80986578619578,
neutral,negative,2,k,k,,,,,,,,,12,5,221,16,,,,,,,,,main,2,2,2,negative,neutral,k,k,1,0.6485181001480669,567.1897285000887,568.2031497000717,568.1671402000356,None,567.1897285000887,None,567.1897285000887,None,567.1897285000887,None,568.8338221201208,None,568.8338221201208,None,568.8338221201208,None,,,,,,,,,,,,,,207,2023-03-29_17h28.11.530,Main,2022.1.1,60.80986578619578,
negative,negative,2,j,l,,,,,,,,,12,6,222,9,,,,,,,,,main,1,1,2,negative,negative,l,l,1,1.3181373998522758,568.8392084999941,569.8504455001093,569.8337817001157,None,568.8392084999941,None,568.8392084999941,None,568.8392084999941,None,571.1533737200313,None,571.1533737200313,None,571.1533737200313,None,,,,,,,,,,,,,,207,2023-03-29_17h28.11.530,Main,2022.1.1,60.80986578619578,
positive,positive,2,l,j,,,,,,,,,12,7,223,11,,,,,,,,,main,1,1,2,positive,positive,j,j,1,0.8621209999546409,571.1565887001343,572.1671017999761,572.1532735000364,None,571.1565887001343,None,571.1565887001343,None,571.1565887001343,None,573.0172915201634,None,573.0172915201634,None,573.0172915201634,None,,,,,,,,,,,,,,207,2023-03-29_17h28.11.530,Main,2022.1.1,60.80986578619578,
