target,distractor,set,ans1,ans2,rep_loop2.thisRepN,rep_loop2.thisTrialN,rep_loop2.thisN,rep_loop2.thisIndex,flanker_prac_loop.thisRepN,flanker_prac_loop.thisTrialN,flanker_prac_loop.thisN,flanker_prac_loop.thisIndex,flanker_main_loop.thisRepN,flanker_main_loop.thisTrialN,flanker_main_loop.thisN,flanker_main_loop.thisIndex,fl_inst_resp.keys,fl_inst_resp.rt,sound_1.started,sound_1.stopped,image_4.started,image_4.stopped,back_2.started,back_2.stopped,main_prac,fl_cold,fl_colt,fl_set,fl_dcond,fl_tcond,fl_ans,fl_res,fl_corr,fl_rt,fix_fl.started,fix_fl.stopped,targ.started,targ.stopped,j_button.started,j_button.stopped,k_button.started,k_button.stopped,l_button.started,l_button.stopped,j_button2.started,j_button2.stopped,k_button2.started,k_button2.stopped,l_button2.started,l_button2.stopped,mainback.started,mainback.stopped,key_resp.keys,key_resp.rt,mouse_6.x,mouse_6.y,mouse_6.leftButton,mouse_6.midButton,mouse_6.rightButton,mouse_6.started,mouse_6.stopped,text_2.started,text_2.stopped,id*,date,expName,psychopyVersion,frameRate,
,,,,,0,0,0,0,,,,,,,,,space,51.46224880000227,30.7985572700185,None,82.28064300000551,None,,,,,,,,,,,,,,,,,,,,,,,,,,,,,,,,,,,,,,,,,,208,2023-03-31_13h26.32.898,Main,2022.1.1,60.02970269943861,
negative,neutral,2,j,l,,,,,0,0,0,12,,,,,,,,,,,85.91168290001224,None,prac,2,2,2,neutral,negative,j,j,1,1.5322943000064697,87.93235869999626,88.94735140001285,88.93071270000655,None,87.93235869999626,None,87.93235869999626,None,87.93235869999626,None,90.46606659999816,None,90.46606659999816,None,90.46606659999816,None,,,,,,,,,,,,,,208,2023-03-31_13h26.32.898,Main,2022.1.1,60.02970269943861,
neutral,neutral,2,k,k,,,,,0,1,1,10,,,,,,,,,,,,,prac,1,1,2,neutral,neutral,k,k,1,0.8186823000141885,91.47956410000916,92.48060209999676,92.46400720000383,None,91.47956410000916,None,91.47956410000916,None,91.47956410000916,None,93.2949172700086,None,93.2949172700086,None,93.2949172700086,None,,,,,,,,,,,,,,208,2023-03-31_13h26.32.898,Main,2022.1.1,60.02970269943861,
neutral,negative,1,k,k,,,,,0,2,2,7,,,,,,,,,,,,,prac,1,1,1,negative,neutral,k,k,1,0.7808874000038486,93.30181350000203,94.3138634999923,94.29729660000885,None,93.30181350000203,None,93.30181350000203,None,93.30181350000203,None,95.07834066999786,None,95.07834066999786,None,95.07834066999786,None,,,,,,,,,,,,,,208,2023-03-31_13h26.32.898,Main,2022.1.1,60.02970269943861,
positive,positive,2,l,j,,,,,0,3,3,11,,,,,,,,,,,,,prac,2,2,2,positive,positive,l,l,1,1.0483703999780118,95.08486500001163,96.10776970000006,96.0852678999945,None,95.08486500001163,None,95.08486500001163,None,95.08486500001163,None,97.1280017699959,None,97.1280017699959,None,97.1280017699959,None,,,,,,,,,,,,,,208,2023-03-31_13h26.32.898,Main,2022.1.1,60.02970269943861,
positive,neutral,1,l,j,,,,,0,4,4,8,,,,,,,,,,,,,prac,2,2,1,neutral,positive,l,l,1,1.7358878999948502,97.1282082000107,98.12813290001941,98.12813290001941,None,97.1282082000107,None,97.1282082000107,None,97.1282082000107,None,99.86134900001343,None,99.86134900001343,None,99.86134900001343,None,,,,,,,,,,,,,,208,2023-03-31_13h26.32.898,Main,2022.1.1,60.02970269943861,
positive,negative,2,l,j,,,,,0,5,5,14,,,,,,,,,,,,,prac,2,2,2,negative,positive,l,l,1,0.9182208999991417,100.8632571999915,101.86376900001778,101.84713290000218,None,100.8632571999915,None,100.8632571999915,None,100.8632571999915,None,102.77827657001617,None,102.77827657001617,None,102.77827657001617,None,,,,,,,,,,,,,,208,2023-03-31_13h26.32.898,Main,2022.1.1,60.02970269943861,
negative,positive,1,j,l,,,,,0,6,6,6,,,,,,,,,,,,,prac,1,1,1,positive,negative,j,j,1,1.0148241999850143,102.7842062000127,103.79702980001457,103.78042490000371,None,102.7842062000127,None,102.7842062000127,None,102.7842062000127,None,104.79489487001266,None,104.79489487001266,None,104.79489487001266,None,,,,,,,,,,,,,,208,2023-03-31_13h26.32.898,Main,2022.1.1,60.02970269943861,
neutral,negative,2,k,k,,,,,0,7,7,16,,,,,,,,,,,,,prac,1,1,2,negative,neutral,k,k,1,0.7984370999911334,104.80064070000662,105.81367120001232,105.79706280000391,None,104.80064070000662,None,104.80064070000662,None,104.80064070000662,None,106.59453007001721,None,106.59453007001721,None,106.59453007001721,None,,,,,,,,,,,,,,208,2023-03-31_13h26.32.898,Main,2022.1.1,60.02970269943861,
negative,negative,2,j,l,,,,,0,8,8,9,,,,,,,,,,,,,prac,2,2,2,negative,negative,j,j,1,1.0976757000025827,106.60125730000436,107.61355720000574,107.59693850000622,None,106.60125730000436,None,106.60125730000436,None,106.60125730000436,None,108.69443297001126,None,108.69443297001126,None,108.69443297001126,None,,,,,,,,,,,,,,208,2023-03-31_13h26.32.898,Main,2022.1.1,60.02970269943861,
negative,positive,2,j,l,,,,,0,9,9,15,,,,,,,,,,,,,prac,2,2,2,positive,negative,j,j,1,0.8319645999872591,108.69438570001512,109.69441820000065,109.69441820000065,None,108.69438570001512,None,108.69438570001512,None,108.69438570001512,None,110.52776247000148,None,110.52776247000148,None,110.52776247000148,None,,,,,,,,,,,,,,208,2023-03-31_13h26.32.898,Main,2022.1.1,60.02970269943861,
neutral,neutral,1,k,k,,,,,0,10,10,1,,,,,,,,,,,,,prac,2,2,1,neutral,neutral,k,k,1,0.7826759000017773,110.52849349999451,111.52777939999942,111.52777939999942,None,110.52849349999451,None,110.52849349999451,None,110.52849349999451,None,112.31107267000189,None,112.31107267000189,None,112.31107267000189,None,,,,,,,,,,,,,,208,2023-03-31_13h26.32.898,Main,2022.1.1,60.02970269943861,
negative,negative,1,j,l,,,,,0,11,11,0,,,,,,,,,,,,,prac,1,1,1,negative,negative,j,j,1,0.9147723999922164,112.31495830000495,113.33079599999473,113.31359599999269,None,112.31495830000495,None,112.31495830000495,None,112.31495830000495,None,114.22769617000304,None,114.22769617000304,None,114.22769617000304,None,,,,,,,,,,,,,,208,2023-03-31_13h26.32.898,Main,2022.1.1,60.02970269943861,
positive,neutral,2,l,j,,,,,0,12,12,17,,,,,,,,,,,,,prac,1,1,2,neutral,positive,l,l,1,0.815735299984226,114.23422680000658,115.24686780001502,115.23024510001414,None,114.23422680000658,None,114.23422680000658,None,114.23422680000658,None,116.04463586999046,None,116.04463586999046,None,116.04463586999046,None,,,,,,,,,,,,,,208,2023-03-31_13h26.32.898,Main,2022.1.1,60.02970269943861,
negative,neutral,1,j,l,,,,,0,13,13,3,,,,,,,,,,,,,prac,2,2,1,neutral,negative,j,j,1,0.8486113000253681,116.05023160000565,117.06346289999783,117.04683400000795,None,116.05023160000565,None,116.05023160000565,None,116.05023160000565,None,117.89465446999239,None,117.89465446999239,None,117.89465446999239,None,,,,,,,,,,,,,,208,2023-03-31_13h26.32.898,Main,2022.1.1,60.02970269943861,
neutral,positive,2,k,k,,,,,0,14,14,13,,,,,,,,,,,,,prac,2,2,2,positive,neutral,k,k,1,0.7344368000049144,117.90002850000747,118.91335990000516,118.88009240000974,None,117.90002850000747,None,117.90002850000747,None,117.90002850000747,None,119.62998307000672,None,119.62998307000672,None,119.62998307000672,None,,,,,,,,,,,,,,208,2023-03-31_13h26.32.898,Main,2022.1.1,60.02970269943861,
neutral,positive,1,k,k,,,,,0,15,15,4,,,,,,,,,,,,,prac,2,2,1,positive,neutral,k,k,1,0.6127606999943964,119.63400260001072,120.64419220000855,120.62753110000631,None,119.63400260001072,None,119.63400260001072,None,119.63400260001072,None,121.24415346999595,None,121.24415346999595,None,121.24415346999595,None,,,,,,,,,,,,,,208,2023-03-31_13h26.32.898,Main,2022.1.1,60.02970269943861,
positive,positive,1,l,j,,,,,0,16,16,2,,,,,,,,,,,,,prac,2,2,1,positive,positive,l,l,1,0.7988601000106428,121.24419900000794,122.24418989999685,122.24418989999685,None,121.24419900000794,None,121.24419900000794,None,121.24419900000794,None,123.04413677000267,None,123.04413677000267,None,123.04413677000267,None,,,,,,,,,,,,,,208,2023-03-31_13h26.32.898,Main,2022.1.1,60.02970269943861,
positive,negative,1,l,j,,,,,0,17,17,5,,,,,,,,,,,,,prac,1,1,1,negative,positive,l,l,1,0.7318759000045247,123.04589100001613,124.0608307000075,124.04415550001431,None,123.04589100001613,None,123.04589100001613,None,123.04589100001613,None,124.77746807000077,None,124.77746807000077,None,124.77746807000077,None,,,,,,,,,,,,,,208,2023-03-31_13h26.32.898,Main,2022.1.1,60.02970269943861,
neutral,positive,2,k,k,,,,,1,0,18,13,,,,,,,,,,,,,prac,2,2,2,positive,neutral,k,k,1,0.7155205000017304,124.78284540001187,125.79660729999887,125.76334490001318,None,124.78284540001187,None,124.78284540001187,None,124.78284540001187,None,126.49414487001778,None,126.49414487001778,None,126.49414487001778,None,,,,,,,,,,,,,,208,2023-03-31_13h26.32.898,Main,2022.1.1,60.02970269943861,
neutral,neutral,1,k,k,,,,,1,1,19,1,,,,,,,,,,,,,prac,2,2,1,neutral,neutral,k,k,1,0.6494341999932658,126.50044410000555,127.51325049999286,127.49663929999224,None,126.50044410000555,None,126.50044410000555,None,126.50044410000555,None,128.145133370001,None,128.145133370001,None,128.145133370001,None,,,,,,,,,,,,,,208,2023-03-31_13h26.32.898,Main,2022.1.1,60.02970269943861,
negative,positive,2,j,l,,,,,1,2,20,15,,,,,,,,,,,,,prac,2,2,2,positive,negative,j,k,0,0.6985075999982655,128.15104280001833,129.1632012000191,129.1465889000101,None,128.15104280001833,None,128.15104280001833,None,128.15104280001833,None,129.8465274000191,None,129.8465274000191,None,129.8465274000191,None,,,,,,,,,,,,,,208,2023-03-31_13h26.32.898,Main,2022.1.1,60.02970269943861,
negative,neutral,2,j,l,,,,,1,3,21,12,,,,,,,,,,,,,prac,1,1,2,neutral,negative,j,j,1,0.9343534000217915,130.84441940000397,131.8464382000093,131.82988030000706,None,130.84441940000397,None,130.84441940000397,None,130.84441940000397,None,132.77725437000336,None,132.77725437000336,None,132.77725437000336,None,,,,,,,,,,,,,,208,2023-03-31_13h26.32.898,Main,2022.1.1,60.02970269943861,
positive,positive,1,l,j,,,,,1,4,22,2,,,,,,,,,,,,,prac,2,2,1,positive,positive,l,l,1,0.7321529999899212,132.7939568000147,133.79393879999407,133.7772632999986,None,132.7939568000147,None,132.7939568000147,None,132.7939568000147,None,134.51058757001593,None,134.51058757001593,None,134.51058757001593,None,,,,,,,,,,,,,,208,2023-03-31_13h26.32.898,Main,2022.1.1,60.02970269943861,
positive,positive,2,l,j,,,,,1,5,23,11,,,,,,,,,,,,,prac,1,1,2,positive,positive,l,l,1,0.6486408999771811,134.51355790000525,135.5272862999991,135.51062859999365,None,134.51355790000525,None,134.51355790000525,None,134.51355790000525,None,136.16057086999936,None,136.16057086999936,None,136.16057086999936,None,,,,,,,,,,,,,,208,2023-03-31_13h26.32.898,Main,2022.1.1,60.02970269943861,
positive,neutral,2,l,j,,,,,1,6,24,17,,,,,,,,,,,,,prac,1,1,2,neutral,positive,l,l,1,1.2510172000038438,136.1657785999996,137.17974849999882,137.1464709000138,None,136.1657785999996,None,136.1657785999996,None,136.1657785999996,None,138.4129577700136,None,138.4129577700136,None,138.4129577700136,None,,,,,,,,,,,,,,208,2023-03-31_13h26.32.898,Main,2022.1.1,60.02970269943861,
neutral,positive,1,k,k,,,,,1,7,25,4,,,,,,,,,,,,,prac,2,2,1,positive,neutral,k,k,1,0.7643364999967162,138.41680380000616,139.4296554000175,139.41307060001418,None,138.41680380000616,None,138.41680380000616,None,138.41680380000616,None,140.17747966999596,None,140.17747966999596,None,140.17747966999596,None,,,,,,,,,,,,,,208,2023-03-31_13h26.32.898,Main,2022.1.1,60.02970269943861,
neutral,negative,1,k,k,,,,,1,8,26,7,,,,,,,,,,,,,prac,1,1,1,negative,neutral,k,k,1,0.6493423999927472,140.19003339999472,141.19629069999792,141.17969350001658,None,140.19003339999472,None,140.19003339999472,None,140.19003339999472,None,141.82952106999292,None,141.82952106999292,None,141.82952106999292,None,,,,,,,,,,,,,,208,2023-03-31_13h26.32.898,Main,2022.1.1,60.02970269943861,
neutral,negative,2,k,k,,,,,1,9,27,16,,,,,,,,,,,,,prac,1,1,2,negative,neutral,k,k,1,0.6820024999906309,141.83354049999616,142.84621059999336,142.829645299993,None,141.83354049999616,None,141.83354049999616,None,141.83354049999616,None,143.5128659700189,None,143.5128659700189,None,143.5128659700189,None,,,,,,,,,,,,,,208,2023-03-31_13h26.32.898,Main,2022.1.1,60.02970269943861,
negative,negative,1,j,l,,,,,1,10,28,0,,,,,,,,,,,,,prac,1,1,1,negative,negative,j,k,0,0.5292816000001039,143.5168995000131,144.5260319999943,144.50986250001006,None,143.5168995000131,None,143.5168995000131,None,143.5168995000131,None,145.043662400014,None,145.043662400014,None,145.043662400014,None,,,,,,,,,,,,,,208,2023-03-31_13h26.32.898,Main,2022.1.1,60.02970269943861,
negative,positive,1,j,l,,,,,1,11,29,6,,,,,,,,,,,,,prac,2,2,1,positive,negative,j,j,1,0.7199401000107173,146.0437012000184,147.04371910000918,147.02705070000957,None,146.0437012000184,None,146.0437012000184,None,146.0437012000184,None,147.76031736999576,None,147.76031736999576,None,147.76031736999576,None,,,,,,,,,,,,,,208,2023-03-31_13h26.32.898,Main,2022.1.1,60.02970269943861,
positive,neutral,1,l,j,,,,,1,12,30,8,,,,,,,,,,,,,prac,2,2,1,neutral,positive,l,l,1,0.8144115000031888,147.76282460000948,148.77703190001193,148.76038150000386,None,147.76282460000948,None,147.76282460000948,None,147.76282460000948,None,149.576968269996,None,149.576968269996,None,149.576968269996,None,,,,,,,,,,,,,,208,2023-03-31_13h26.32.898,Main,2022.1.1,60.02970269943861,
negative,negative,2,j,l,,,,,1,13,31,9,,,,,,,,,,,,,prac,1,1,2,negative,negative,j,j,1,0.884435999993002,149.58245570000145,150.59615339999436,150.56281830000808,None,149.58245570000145,None,149.58245570000145,None,149.58245570000145,None,151.46275466999796,None,151.46275466999796,None,151.46275466999796,None,,,,,,,,,,,,,,208,2023-03-31_13h26.32.898,Main,2022.1.1,60.02970269943861,
positive,negative,2,l,j,,,,,1,14,32,14,,,,,,,,,,,,,prac,1,1,2,negative,positive,l,l,1,0.7358731999993324,151.4666908000072,152.47937499999534,152.46277720000944,None,151.4666908000072,None,151.4666908000072,None,151.4666908000072,None,153.19608566999378,None,153.19608566999378,None,153.19608566999378,None,,,,,,,,,,,,,,208,2023-03-31_13h26.32.898,Main,2022.1.1,60.02970269943861,
positive,negative,1,l,j,,,,,1,15,33,5,,,,,,,,,,,,,prac,2,2,1,negative,positive,l,l,1,0.777113600022858,153.2039112999919,154.21267830001307,154.1960367000138,None,153.2039112999919,None,153.2039112999919,None,153.2039112999919,None,154.9772018699936,None,154.9772018699936,None,154.9772018699936,None,,,,,,,,,,,,,,208,2023-03-31_13h26.32.898,Main,2022.1.1,60.02970269943861,
neutral,neutral,2,k,k,,,,,1,16,34,10,,,,,,,,,,,,,prac,2,2,2,neutral,neutral,k,k,1,0.7971514000091702,154.98358010000084,155.99594049999723,155.9793084000121,None,154.98358010000084,None,154.98358010000084,None,154.98358010000084,None,156.77669327000913,None,156.77669327000913,None,156.77669327000913,None,,,,,,,,,,,,,,208,2023-03-31_13h26.32.898,Main,2022.1.1,60.02970269943861,
negative,neutral,1,j,l,,,,,1,17,35,3,,,,,,,,,,,,,prac,1,1,1,neutral,negative,j,j,1,0.780971900006989,156.77674010000192,157.77676850001444,157.77676850001444,None,156.77674010000192,None,156.77674010000192,None,156.77674010000192,None,158.55892097000324,None,158.55892097000324,None,158.55892097000324,None,,,,,,,,,,,,,,208,2023-03-31_13h26.32.898,Main,2022.1.1,60.02970269943861,
,,,,,,,,,,,,,,,,,,,,,,,,,,,,,,,,,,,,,,,,,,,,,,,,,,,158.55064860000857,None,space,3.9671566000033636,,,,,,,,,,208,2023-03-31_13h26.32.898,Main,2022.1.1,60.02970269943861,
,,,,,,,,,,,,,,,,,,,,,,,,,,,,,,,,,,,,,,,,,,,,,,,,,,,,,,,0.6296296,-0.37685186,0,0,0,0.011270069982856512,None,,,208,2023-03-31_13h26.32.898,Main,2022.1.1,60.02970269943861,
positive,negative,2,l,j,,,,,,,,,0,0,0,14,,,,,,,162.54589199999464,None,main,2,2,2,negative,positive,l,l,1,1.0139032000151929,164.55058549999376,165.56245480000507,165.54584540001815,None,164.55058549999376,None,164.55058549999376,None,164.55058549999376,None,166.56243956999097,None,166.56243956999097,None,166.56243956999097,None,,,,,,,,,,,,,,208,2023-03-31_13h26.32.898,Main,2022.1.1,60.02970269943861,
positive,positive,1,l,j,,,,,,,,,0,1,1,2,,,,,,,,,main,1,1,1,positive,positive,l,l,1,0.878341299976455,166.56679620000068,167.57907020000857,167.56247989999247,None,166.56679620000068,None,166.56679620000068,None,166.56679620000068,None,168.44322547001357,None,168.44322547001357,None,168.44322547001357,None,,,,,,,,,,,,,,208,2023-03-31_13h26.32.898,Main,2022.1.1,60.02970269943861,
positive,positive,2,l,j,,,,,,,,,0,2,2,11,,,,,,,,,main,2,2,2,positive,positive,l,l,1,0.5647322000004351,168.45017789999838,169.4598335000046,169.44316890000482,None,168.45017789999838,None,168.45017789999838,None,168.45017789999838,None,170.00979297001905,None,170.00979297001905,None,170.00979297001905,None,,,,,,,,,,,,,,208,2023-03-31_13h26.32.898,Main,2022.1.1,60.02970269943861,
negative,neutral,2,j,l,,,,,,,,,0,3,3,12,,,,,,,,,main,1,1,2,neutral,negative,j,j,1,0.7314721000147983,170.00983840000117,171.00983120000456,171.00983120000456,None,170.00983840000117,None,170.00983840000117,None,170.00983840000117,None,171.74313797000505,None,171.74313797000505,None,171.74313797000505,None,,,,,,,,,,,,,,208,2023-03-31_13h26.32.898,Main,2022.1.1,60.02970269943861,
negative,negative,1,j,l,,,,,,,,,0,4,4,0,,,,,,,,,main,1,1,1,negative,negative,j,j,1,0.7318082999845501,171.74328540000715,172.74316220000037,172.74316220000037,None,171.74328540000715,None,171.74328540000715,None,171.74328540000715,None,173.47648396999867,None,173.47648396999867,None,173.47648396999867,None,,,,,,,,,,,,,,208,2023-03-31_13h26.32.898,Main,2022.1.1,60.02970269943861,
neutral,negative,1,k,k,,,,,,,,,0,5,5,7,,,,,,,,,main,1,1,1,negative,neutral,k,k,1,0.5159487000200897,173.48285610001767,174.49571690001176,174.46238850001828,None,173.48285610001767,None,173.48285610001767,None,173.48285610001767,None,174.99312546999718,None,174.99312546999718,None,174.99312546999718,None,,,,,,,,,,,,,,208,2023-03-31_13h26.32.898,Main,2022.1.1,60.02970269943861,
negative,neutral,1,j,l,,,,,,,,,0,6,6,3,,,,,,,,,main,1,1,1,neutral,negative,j,l,0,0.7168772000004537,175.00026369999978,176.01225620001787,175.9956189999939,None,175.00026369999978,None,175.00026369999978,None,175.00026369999978,None,176.7122575000103,None,176.7122575000103,None,176.7122575000103,None,,,,,,,,,,,,,,208,2023-03-31_13h26.32.898,Main,2022.1.1,60.02970269943861,
neutral,neutral,2,k,k,,,,,,,,,0,7,7,10,,,,,,,,,main,2,2,2,neutral,neutral,k,k,1,1.0738850000198,177.7109683000017,178.71214700001292,178.69549460001872,None,177.7109683000017,None,177.7109683000017,None,177.7109683000017,None,179.7789755700127,None,179.7789755700127,None,179.7789755700127,None,,,,,,,,,,,,,,208,2023-03-31_13h26.32.898,Main,2022.1.1,60.02970269943861,
neutral,neutral,1,k,k,,,,,,,,,0,8,8,1,,,,,,,,,main,1,1,1,neutral,neutral,k,k,1,0.7750690999964718,179.7861640000192,180.78417990001617,180.77583309999318,None,179.7861640000192,None,179.7861640000192,None,179.7861640000192,None,181.55958027001762,None,181.55958027001762,None,181.55958027001762,None,,,,,,,,,,,,,,208,2023-03-31_13h26.32.898,Main,2022.1.1,60.02970269943861,
neutral,negative,2,k,k,,,,,,,,,0,9,9,16,,,,,,,,,main,1,1,2,negative,neutral,k,k,1,0.6152622000081465,181.55957969999872,182.55958760000067,182.55958760000067,None,181.55957969999872,None,181.55957969999872,None,181.55957969999872,None,183.17623346999463,None,183.17623346999463,None,183.17623346999463,None,,,,,,,,,,,,,,208,2023-03-31_13h26.32.898,Main,2022.1.1,60.02970269943861,
negative,negative,2,j,l,,,,,,,,,0,10,10,9,,,,,,,,,main,2,2,2,negative,negative,j,j,1,0.9844579000200611,183.17661860000226,184.17624780000187,184.17624780000187,None,183.17661860000226,None,183.17661860000226,None,183.17661860000226,None,185.1621606699977,None,185.1621606699977,None,185.1621606699977,None,,,,,,,,,,,,,,208,2023-03-31_13h26.32.898,Main,2022.1.1,60.02970269943861,
negative,positive,2,j,l,,,,,,,,,0,11,11,15,,,,,,,,,main,2,2,2,positive,negative,j,j,1,0.747928700002376,185.16612140001962,186.1786945000058,186.16205340001034,None,185.16612140001962,None,185.16612140001962,None,185.16612140001962,None,186.91190366999072,None,186.91190366999072,None,186.91190366999072,None,,,,,,,,,,,,,,208,2023-03-31_13h26.32.898,Main,2022.1.1,60.02970269943861,
positive,neutral,2,l,j,,,,,,,,,0,12,12,17,,,,,,,,,main,1,1,2,neutral,positive,l,l,1,0.7149334999849088,186.91517110000132,187.92864030000055,187.91204310001922,None,186.91517110000132,None,186.91517110000132,None,186.91517110000132,None,188.6285088700155,None,188.6285088700155,None,188.6285088700155,None,,,,,,,,,,,,,,208,2023-03-31_13h26.32.898,Main,2022.1.1,60.02970269943861,
positive,neutral,1,l,j,,,,,,,,,0,13,13,8,,,,,,,,,main,1,1,1,neutral,positive,l,l,1,0.7985230000049341,188.6326104000036,189.6453041000059,189.62870269999257,None,188.6326104000036,None,188.6326104000036,None,188.6326104000036,None,190.428461170019,None,190.428461170019,None,190.428461170019,None,,,,,,,,,,,,,,208,2023-03-31_13h26.32.898,Main,2022.1.1,60.02970269943861,
negative,positive,1,j,l,,,,,,,,,0,14,14,6,,,,,,,,,main,2,2,1,positive,negative,j,j,1,0.9628149000054691,190.4325184999907,191.4452328000043,191.42864759999793,None,190.4325184999907,None,190.4325184999907,None,190.4325184999907,None,192.39275866999233,None,192.39275866999233,None,192.39275866999233,None,,,,,,,,,,,,,,208,2023-03-31_13h26.32.898,Main,2022.1.1,60.02970269943861,
neutral,positive,1,k,k,,,,,,,,,0,15,15,4,,,,,,,,,main,1,1,1,positive,neutral,k,k,1,0.714818499982357,192.3992755000072,193.40937660000054,193.39270689999103,None,192.3992755000072,None,192.3992755000072,None,192.3992755000072,None,194.10931237000332,None,194.10931237000332,None,194.10931237000332,None,,,,,,,,,,,,,,208,2023-03-31_13h26.32.898,Main,2022.1.1,60.02970269943861,
neutral,positive,2,k,k,,,,,,,,,0,16,16,13,,,,,,,,,main,2,2,2,positive,neutral,k,k,1,0.6314081000164151,194.1096513000084,195.10934970001108,195.10934970001108,None,194.1096513000084,None,194.1096513000084,None,194.1096513000084,None,195.74265156999755,None,195.74265156999755,None,195.74265156999755,None,,,,,,,,,,,,,,208,2023-03-31_13h26.32.898,Main,2022.1.1,60.02970269943861,
positive,negative,1,l,j,,,,,,,,,0,17,17,5,,,,,,,,,main,2,2,1,negative,positive,l,k,0,0.5324726999970153,195.7446593999921,196.7593501000083,196.7427016000147,None,195.7446593999921,None,195.7446593999921,None,195.7446593999921,None,197.27847960000508,None,197.27847960000508,None,197.27847960000508,None,,,,,,,,,,,,,,208,2023-03-31_13h26.32.898,Main,2022.1.1,60.02970269943861,
positive,positive,2,l,j,,,,,,,,,1,0,18,11,,,,,,,,,main,2,2,2,positive,positive,l,l,1,0.7535596000088844,198.27727550000418,199.2784091999929,199.2617842000036,None,198.27727550000418,None,198.27727550000418,None,198.27727550000418,None,200.02836017001246,None,200.02836017001246,None,200.02836017001246,None,,,,,,,,,,,,,,208,2023-03-31_13h26.32.898,Main,2022.1.1,60.02970269943861,
negative,negative,1,j,l,,,,,,,,,1,1,19,0,,,,,,,,,main,2,2,1,negative,negative,j,j,1,0.8478857000009157,200.0321444000001,201.04517910000868,201.0259137999965,None,200.0321444000001,None,200.0321444000001,None,200.0321444000001,None,201.87840157001338,None,201.87840157001338,None,201.87840157001338,None,,,,,,,,,,,,,,208,2023-03-31_13h26.32.898,Main,2022.1.1,60.02970269943861,
positive,neutral,1,l,j,,,,,,,,,1,2,20,8,,,,,,,,,main,2,2,1,neutral,positive,l,l,1,1.379517699999269,201.88726809999207,202.8949768000166,202.87840040001902,None,201.88726809999207,None,201.88726809999207,None,201.88726809999207,None,204.25949176999566,None,204.25949176999566,None,204.25949176999566,None,,,,,,,,,,,,,,208,2023-03-31_13h26.32.898,Main,2022.1.1,60.02970269943861,
neutral,neutral,2,k,k,,,,,,,,,1,3,21,10,,,,,,,,,main,2,2,2,neutral,neutral,k,k,1,0.7477441000228282,204.26554359999136,205.2757508000068,205.25907930001267,None,204.26554359999136,None,204.26554359999136,None,204.26554359999136,None,206.00904597000627,None,206.00904597000627,None,206.00904597000627,None,,,,,,,,,,,,,,208,2023-03-31_13h26.32.898,Main,2022.1.1,60.02970269943861,
neutral,negative,1,k,k,,,,,,,,,1,4,22,7,,,,,,,,,main,1,1,1,negative,neutral,k,k,1,0.7319539000163786,206.00905029999558,207.0090821000049,207.0090821000049,None,206.00905029999558,None,206.00905029999558,None,206.00905029999558,None,207.74240547001537,None,207.74240547001537,None,207.74240547001537,None,,,,,,,,,,,,,,208,2023-03-31_13h26.32.898,Main,2022.1.1,60.02970269943861,
positive,positive,1,l,j,,,,,,,,,1,5,23,2,,,,,,,,,main,2,2,1,positive,positive,l,l,1,0.6681004999845754,207.743068700016,208.7424460000184,208.7424460000184,None,207.743068700016,None,207.743068700016,None,207.743068700016,None,209.41190416999453,None,209.41190416999453,None,209.41190416999453,None,,,,,,,,,,,,,,208,2023-03-31_13h26.32.898,Main,2022.1.1,60.02970269943861,
negative,negative,2,j,l,,,,,,,,,1,6,24,9,,,,,,,,,main,1,1,2,negative,negative,j,j,1,0.8145217999990564,209.4155102999939,210.42816860001767,210.41157680001925,None,209.4155102999939,None,209.4155102999939,None,209.4155102999939,None,211.22826567000303,None,211.22826567000303,None,211.22826567000303,None,,,,,,,,,,,,,,208,2023-03-31_13h26.32.898,Main,2022.1.1,60.02970269943861,
negative,positive,1,j,l,,,,,,,,,1,7,25,6,,,,,,,,,main,1,1,1,positive,negative,j,j,1,0.7816374999820255,211.2322945999913,212.24479040000006,212.22820040001534,None,211.2322945999913,None,211.2322945999913,None,211.2322945999913,None,213.01152826999024,None,213.01152826999024,None,213.01152826999024,None,,,,,,,,,,,,,,208,2023-03-31_13h26.32.898,Main,2022.1.1,60.02970269943861,
neutral,positive,2,k,k,,,,,,,,,1,8,26,13,,,,,,,,,main,1,1,2,positive,neutral,k,k,1,1.2674433999927714,213.01553400000557,214.0280880999926,214.01149679999799,None,213.01553400000557,None,213.01553400000557,None,213.01553400000557,None,215.27596926999686,None,215.27596926999686,None,215.27596926999686,None,,,,,,,,,,,,,,208,2023-03-31_13h26.32.898,Main,2022.1.1,60.02970269943861,
positive,negative,1,l,j,,,,,,,,,1,9,27,5,,,,,,,,,main,2,2,1,negative,positive,l,l,1,0.8926287000067532,215.28480029999628,216.29469090001658,216.27810690001934,None,215.28480029999628,None,215.28480029999628,None,215.28480029999628,None,217.17541886999098,None,217.17541886999098,None,217.17541886999098,None,,,,,,,,,,,,,,208,2023-03-31_13h26.32.898,Main,2022.1.1,60.02970269943861,
neutral,negative,2,k,k,,,,,,,,,1,10,28,16,,,,,,,,,main,1,1,2,negative,neutral,k,k,1,1.248501900001429,217.17718699999386,218.19219160001376,218.1755238000187,None,217.17718699999386,None,217.17718699999386,None,217.17718699999386,None,219.4254956699937,None,219.4254956699937,None,219.4254956699937,None,,,,,,,,,,,,,,208,2023-03-31_13h26.32.898,Main,2022.1.1,60.02970269943861,
negative,positive,2,j,l,,,,,,,,,1,11,29,15,,,,,,,,,main,2,2,2,positive,negative,j,j,1,0.7984694000042509,219.42768620001152,220.4421902000031,220.4255026000028,None,219.42768620001152,None,219.42768620001152,None,219.42768620001152,None,221.2254652700125,None,221.2254652700125,None,221.2254652700125,None,,,,,,,,,,,,,,208,2023-03-31_13h26.32.898,Main,2022.1.1,60.02970269943861,
neutral,positive,1,k,k,,,,,,,,,1,12,30,4,,,,,,,,,main,2,2,1,positive,neutral,k,k,1,0.7173447000095621,221.22934620000888,222.24458990001585,222.22798280001734,None,221.22934620000888,None,221.22934620000888,None,221.22934620000888,None,222.94451607000374,None,222.94451607000374,None,222.94451607000374,None,,,,,,,,,,,,,,208,2023-03-31_13h26.32.898,Main,2022.1.1,60.02970269943861,
negative,neutral,2,j,l,,,,,,,,,1,13,31,12,,,,,,,,,main,2,2,2,neutral,negative,j,j,1,0.7128335000015795,222.94753820000915,223.961209400004,223.9446317999973,None,222.94753820000915,None,222.94753820000915,None,222.94753820000915,None,224.6590566699946,None,224.6590566699946,None,224.6590566699946,None,,,,,,,,,,,,,,208,2023-03-31_13h26.32.898,Main,2022.1.1,60.02970269943861,
neutral,neutral,1,k,k,,,,,,,,,1,14,32,1,,,,,,,,,main,2,2,1,neutral,neutral,k,k,1,0.8506487999984529,224.66477160001523,225.67783639999107,225.6612380000006,None,224.66477160001523,None,224.66477160001523,None,224.66477160001523,None,226.51122967001575,None,226.51122967001575,None,226.51122967001575,None,,,,,,,,,,,,,,208,2023-03-31_13h26.32.898,Main,2022.1.1,60.02970269943861,
negative,neutral,1,j,l,,,,,,,,,1,15,33,3,,,,,,,,,main,2,2,1,neutral,negative,j,j,1,0.9150093000207562,226.51503290000255,227.52780889999121,227.51120330000413,None,226.51503290000255,None,226.51503290000255,None,226.51503290000255,None,228.42783526999702,None,228.42783526999702,None,228.42783526999702,None,,,,,,,,,,,,,,208,2023-03-31_13h26.32.898,Main,2022.1.1,60.02970269943861,
positive,negative,2,l,j,,,,,,,,,1,16,34,14,,,,,,,,,main,1,1,2,negative,positive,l,l,1,0.7788625999819487,228.43174709999585,229.44193960001576,229.42528290001792,None,228.43174709999585,None,228.43174709999585,None,228.43174709999585,None,230.20855187000998,None,230.20855187000998,None,230.20855187000998,None,,,,,,,,,,,,,,208,2023-03-31_13h26.32.898,Main,2022.1.1,60.02970269943861,
positive,neutral,2,l,j,,,,,,,,,1,17,35,17,,,,,,,,,main,2,2,2,neutral,positive,l,l,1,0.6986872000270523,230.20856960001402,231.2085854000179,231.2085854000179,None,230.20856960001402,None,230.20856960001402,None,230.20856960001402,None,231.90853067000572,None,231.90853067000572,None,231.90853067000572,None,,,,,,,,,,,,,,208,2023-03-31_13h26.32.898,Main,2022.1.1,60.02970269943861,
negative,positive,2,j,l,,,,,,,,,2,0,36,15,,,,,,,,,main,2,2,2,positive,negative,j,j,1,0.901112399995327,231.9099715000193,232.92524410001351,232.90857850000612,None,231.9099715000193,None,231.9099715000193,None,231.9099715000193,None,233.81108157001145,None,233.81108157001145,None,233.81108157001145,None,,,,,,,,,,,,,,208,2023-03-31_13h26.32.898,Main,2022.1.1,60.02970269943861,
neutral,neutral,1,k,k,,,,,,,,,2,1,37,1,,,,,,,,,main,1,1,1,neutral,neutral,k,k,1,0.615018999989843,233.81500669999514,234.82766000000993,234.8110478000017,None,233.81500669999514,None,233.81500669999514,None,233.81500669999514,None,235.42773327000614,None,235.42773327000614,None,235.42773327000614,None,,,,,,,,,,,,,,208,2023-03-31_13h26.32.898,Main,2022.1.1,60.02970269943861,
neutral,negative,1,k,k,,,,,,,,,2,2,38,7,,,,,,,,,main,2,2,1,negative,neutral,k,k,1,1.011865399981616,235.43227340001613,236.44427300000098,236.42769440001575,None,235.43227340001613,None,235.43227340001613,None,235.43227340001613,None,237.44178517001856,None,237.44178517001856,None,237.44178517001856,None,,,,,,,,,,,,,,208,2023-03-31_13h26.32.898,Main,2022.1.1,60.02970269943861,
positive,neutral,2,l,j,,,,,,,,,2,3,39,17,,,,,,,,,main,1,1,2,neutral,positive,l,l,1,0.9680454999906942,237.44829080000636,238.46090679999907,238.44431700001587,None,237.44829080000636,None,237.44829080000636,None,237.44829080000636,None,239.41079307000328,None,239.41079307000328,None,239.41079307000328,None,,,,,,,,,,,,,,208,2023-03-31_13h26.32.898,Main,2022.1.1,60.02970269943861,
negative,negative,2,j,l,,,,,,,,,2,4,40,9,,,,,,,,,main,1,1,2,negative,negative,j,j,1,0.720951099996455,239.41493709999486,240.42751510001835,240.41088650000165,None,239.41493709999486,None,239.41493709999486,None,239.41493709999486,None,241.1343330700096,None,241.1343330700096,None,241.1343330700096,None,,,,,,,,,,,,,,208,2023-03-31_13h26.32.898,Main,2022.1.1,60.02970269943861,
positive,negative,1,l,j,,,,,,,,,2,5,41,5,,,,,,,,,main,1,1,1,negative,positive,l,j,0,-0.6577960999857169,241.13535440000123,None,None,None,241.13535440000123,None,241.13535440000123,None,241.13535440000123,None,241.47498520000954,None,241.47498520000954,None,241.47498520000954,None,,,,,,,,,,,,,,208,2023-03-31_13h26.32.898,Main,2022.1.1,60.02970269943861,
neutral,negative,2,k,k,,,,,,,,,2,6,42,16,,,,,,,,,main,2,2,2,negative,neutral,k,k,1,0.7901413000072353,244.4749948999961,245.47751550000976,245.4583341999969,None,244.4749948999961,None,244.4749948999961,None,244.4749948999961,None,246.26070917001053,None,246.26070917001053,None,246.26070917001053,None,,,,,,,,,,,,,,208,2023-03-31_13h26.32.898,Main,2022.1.1,60.02970269943861,
positive,positive,1,l,j,,,,,,,,,2,7,43,2,,,,,,,,,main,2,2,1,positive,positive,l,l,1,0.7784990000072867,246.26559399999678,247.2773802000156,247.26078219999908,None,246.26559399999678,None,246.26559399999678,None,246.26559399999678,None,248.0418823700078,None,248.0418823700078,None,248.0418823700078,None,,,,,,,,,,,,,,208,2023-03-31_13h26.32.898,Main,2022.1.1,60.02970269943861,
neutral,neutral,2,k,k,,,,,,,,,2,8,44,10,,,,,,,,,main,2,2,2,neutral,neutral,k,k,1,0.8484057000023313,248.04774790001102,249.06066940000164,249.04408500000136,None,248.04774790001102,None,248.04774790001102,None,248.04774790001102,None,249.8918068699917,None,249.8918068699917,None,249.8918068699917,None,,,,,,,,,,,,,,208,2023-03-31_13h26.32.898,Main,2022.1.1,60.02970269943861,
negative,neutral,2,j,l,,,,,,,,,2,9,45,12,,,,,,,,,main,2,2,2,neutral,negative,j,j,1,0.783654300001217,249.8973581000173,250.9105555000133,250.8939445000142,None,249.8973581000173,None,249.8973581000173,None,249.8973581000173,None,251.67730147000694,None,251.67730147000694,None,251.67730147000694,None,,,,,,,,,,,,,,208,2023-03-31_13h26.32.898,Main,2022.1.1,60.02970269943861,
neutral,positive,1,k,k,,,,,,,,,2,10,46,4,,,,,,,,,main,2,2,1,positive,neutral,k,k,1,0.7124519000062719,251.68129820001195,252.69391440000618,252.6773235000146,None,251.68129820001195,None,251.68129820001195,None,251.68129820001195,None,253.3913437700161,None,253.3913437700161,None,253.3913437700161,None,,,,,,,,,,,,,,208,2023-03-31_13h26.32.898,Main,2022.1.1,60.02970269943861,
negative,positive,1,j,l,,,,,,,,,2,11,47,6,,,,,,,,,main,1,1,1,positive,negative,j,j,1,0.9152059000043664,253.39180179999676,254.39142120000906,254.39142120000906,None,253.39180179999676,None,253.39180179999676,None,253.39180179999676,None,255.30803296999366,None,255.30803296999366,None,255.30803296999366,None,,,,,,,,,,,,,,208,2023-03-31_13h26.32.898,Main,2022.1.1,60.02970269943861,
neutral,positive,2,k,k,,,,,,,,,2,12,48,13,,,,,,,,,main,1,1,2,positive,neutral,k,k,1,0.6319721999752801,255.3100618000026,256.3247416999948,256.30806810001377,None,255.3100618000026,None,255.3100618000026,None,255.3100618000026,None,256.94135816999767,None,256.94135816999767,None,256.94135816999767,None,,,,,,,,,,,,,,208,2023-03-31_13h26.32.898,Main,2022.1.1,60.02970269943861,
negative,neutral,1,j,l,,,,,,,,,2,13,49,3,,,,,,,,,main,2,2,1,neutral,negative,j,j,1,0.8029206000210252,256.94744089999585,257.96044399999664,257.92717410001205,None,256.94744089999585,None,256.94744089999585,None,256.94744089999585,None,258.74558747000117,None,258.74558747000117,None,258.74558747000117,None,,,,,,,,,,,,,,208,2023-03-31_13h26.32.898,Main,2022.1.1,60.02970269943861,
negative,negative,1,j,l,,,,,,,,,2,14,50,0,,,,,,,,,main,2,2,1,negative,negative,j,j,1,0.7979762000031769,258.7492975000059,259.76041750001605,259.74385250001797,None,258.7492975000059,None,258.7492975000059,None,258.7492975000059,None,260.5452641700016,None,260.5452641700016,None,260.5452641700016,None,,,,,,,,,,,,,,208,2023-03-31_13h26.32.898,Main,2022.1.1,60.02970269943861,
positive,neutral,1,l,j,,,,,,,,,2,15,51,8,,,,,,,,,main,2,2,1,neutral,positive,l,l,1,0.6448225999774877,260.54854750001687,261.56042960000923,261.543822800013,None,260.54854750001687,None,260.54854750001687,None,260.54854750001687,None,262.1915857700136,None,262.1915857700136,None,262.1915857700136,None,,,,,,,,,,,,,,208,2023-03-31_13h26.32.898,Main,2022.1.1,60.02970269943861,
positive,positive,2,l,j,,,,,,,,,2,16,52,11,,,,,,,,,main,1,1,2,positive,positive,l,l,1,-0.6831078000250272,262.1974307000055,None,None,None,262.1974307000055,None,262.1974307000055,None,262.1974307000055,None,262.51064389999374,None,262.51064389999374,None,262.51064389999374,None,,,,,,,,,,,,,,208,2023-03-31_13h26.32.898,Main,2022.1.1,60.02970269943861,
positive,negative,2,l,j,,,,,,,,,2,17,53,14,,,,,,,,,main,1,1,2,negative,positive,l,l,1,1.0089070000103675,265.5245004000026,266.5245452999952,266.50792800000636,None,265.5245004000026,None,265.5245004000026,None,265.5245004000026,None,267.5306396699947,None,267.5306396699947,None,267.5306396699947,None,,,,,,,,,,,,,,208,2023-03-31_13h26.32.898,Main,2022.1.1,60.02970269943861,
negative,negative,1,j,l,,,,,,,,,3,0,54,0,,,,,,,,,main,2,2,1,negative,negative,j,j,1,0.858820099994773,267.5344715999963,268.5435543000058,268.526978400012,None,267.5344715999963,None,267.5344715999963,None,267.5344715999963,None,269.391434570009,None,269.391434570009,None,269.391434570009,None,,,,,,,,,,,,,,208,2023-03-31_13h26.32.898,Main,2022.1.1,60.02970269943861,
neutral,negative,2,k,k,,,,,,,,,3,1,55,16,,,,,,,,,main,1,1,2,negative,neutral,k,k,1,0.7173371000098996,269.3973504000169,270.4102245999966,270.3936415000062,None,269.3973504000169,None,269.3973504000169,None,269.3973504000169,None,271.1103374700091,None,271.1103374700091,None,271.1103374700091,None,,,,,,,,,,,,,,208,2023-03-31_13h26.32.898,Main,2022.1.1,60.02970269943861,
positive,negative,2,l,j,,,,,,,,,3,2,56,14,,,,,,,,,main,2,2,2,negative,positive,l,l,1,0.761858600017149,271.11423350000405,272.1268931000086,272.1102925000014,None,271.11423350000405,None,271.11423350000405,None,271.11423350000405,None,272.87467256999514,None,272.87467256999514,None,272.87467256999514,None,,,,,,,,,,,,,,208,2023-03-31_13h26.32.898,Main,2022.1.1,60.02970269943861,
neutral,positive,1,k,k,,,,,,,,,3,3,57,4,,,,,,,,,main,2,2,1,positive,neutral,k,k,1,1.1647995999956038,272.87984239999787,273.8934136000171,273.8768601999909,None,272.87984239999787,None,272.87984239999787,None,272.87984239999787,None,275.04088817000445,None,275.04088817000445,None,275.04088817000445,None,,,,,,,,,,,,,,208,2023-03-31_13h26.32.898,Main,2022.1.1,60.02970269943861,
positive,neutral,2,l,j,,,,,,,,,3,4,58,17,,,,,,,,,main,2,2,2,neutral,positive,l,k,0,-0.05129890001262538,275.04091949999565,None,None,None,275.04091949999565,None,275.04091949999565,None,275.04091949999565,None,275.99094290001085,None,275.99094290001085,None,275.99094290001085,None,,,,,,,,,,,,,,208,2023-03-31_13h26.32.898,Main,2022.1.1,60.02970269943861,
negative,positive,1,j,l,,,,,,,,,3,5,59,6,,,,,,,,,main,2,2,1,positive,negative,j,j,1,0.9369613000017125,278.9921503000078,279.99334730001283,279.9767118000018,None,278.9921503000078,None,278.9921503000078,None,278.9921503000078,None,280.92659706999837,None,280.92659706999837,None,280.92659706999837,None,,,,,,,,,,,,,,208,2023-03-31_13h26.32.898,Main,2022.1.1,60.02970269943861,
negative,negative,2,j,l,,,,,,,,,3,6,60,9,,,,,,,,,main,1,1,2,negative,negative,j,j,1,1.0313407000212464,280.93064589999267,281.94329660001677,281.9267033000069,None,280.93064589999267,None,280.93064589999267,None,280.93064589999267,None,282.9600225700036,None,282.9600225700036,None,282.9600225700036,None,,,,,,,,,,,,,,208,2023-03-31_13h26.32.898,Main,2022.1.1,60.02970269943861,
positive,positive,1,l,j,,,,,,,,,3,7,61,2,,,,,,,,,main,2,2,1,positive,positive,l,l,1,0.7795265000022482,282.9640330999973,283.9765158999944,283.9599725000153,None,282.9640330999973,None,282.9640330999973,None,282.9640330999973,None,284.74108466999894,None,284.74108466999894,None,284.74108466999894,None,,,,,,,,,,,,,,208,2023-03-31_13h26.32.898,Main,2022.1.1,60.02970269943861,
negative,neutral,1,j,l,,,,,,,,,3,8,62,3,,,,,,,,,main,1,1,1,neutral,negative,j,j,1,0.8143730000010692,284.7469342999975,285.7574239000096,285.740752600017,None,284.7469342999975,None,284.7469342999975,None,284.7469342999975,None,286.5573730700038,None,286.5573730700038,None,286.5573730700038,None,,,,,,,,,,,,,,208,2023-03-31_13h26.32.898,Main,2022.1.1,60.02970269943861,
neutral,neutral,2,k,k,,,,,,,,,3,9,63,10,,,,,,,,,main,1,1,2,neutral,neutral,k,k,1,0.8337192000180949,286.55898590001743,287.5740928000014,287.5574368000089,None,286.55898590001743,None,286.55898590001743,None,286.55898590001743,None,288.3932830699981,None,288.3932830699981,None,288.3932830699981,None,,,,,,,,,,,,,,208,2023-03-31_13h26.32.898,Main,2022.1.1,60.02970269943861,
negative,positive,2,j,l,,,,,,,,,3,10,64,15,,,,,,,,,main,2,2,2,positive,negative,j,j,1,0.7793892000045162,288.39795360001153,289.4098509000032,289.39319790000445,None,288.39795360001153,None,288.39795360001153,None,288.39795360001153,None,290.174279869991,None,290.174279869991,None,290.174279869991,None,,,,,,,,,,,,,,208,2023-03-31_13h26.32.898,Main,2022.1.1,60.02970269943861,
positive,neutral,1,l,j,,,,,,,,,3,11,65,8,,,,,,,,,main,1,1,1,neutral,positive,l,l,1,0.8838999999861699,290.18001700000605,291.1931086000113,291.1765018000151,None,290.18001700000605,None,290.18001700000605,None,290.18001700000605,None,292.05992657000604,None,292.05992657000604,None,292.05992657000604,None,,,,,,,,,,,,,,208,2023-03-31_13h26.32.898,Main,2022.1.1,60.02970269943861,
neutral,positive,2,k,k,,,,,,,,,3,12,66,13,,,,,,,,,main,1,1,2,positive,neutral,k,k,1,0.796014199993806,292.0637091000099,293.0763872000098,293.0598294000083,None,292.0637091000099,None,292.0637091000099,None,292.0637091000099,None,293.85759217000157,None,293.85759217000157,None,293.85759217000157,None,,,,,,,,,,,,,,208,2023-03-31_13h26.32.898,Main,2022.1.1,60.02970269943861,
neutral,neutral,1,k,k,,,,,,,,,3,13,67,1,,,,,,,,,main,1,1,1,neutral,neutral,k,k,1,0.9647169999952894,293.86299809999764,294.87632120001945,294.85977509999066,None,293.86299809999764,None,293.86299809999764,None,293.86299809999764,None,295.8238301699952,None,295.8238301699952,None,295.8238301699952,None,,,,,,,,,,,,,,208,2023-03-31_13h26.32.898,Main,2022.1.1,60.02970269943861,
negative,neutral,2,j,l,,,,,,,,,3,14,68,12,,,,,,,,,main,1,1,2,neutral,negative,j,j,1,0.8484273999929428,295.82381990001886,296.8238510999945,296.8238510999945,None,295.82381990001886,None,295.82381990001886,None,295.82381990001886,None,297.6738004700077,None,297.6738004700077,None,297.6738004700077,None,,,,,,,,,,,,,,208,2023-03-31_13h26.32.898,Main,2022.1.1,60.02970269943861,
positive,positive,2,l,j,,,,,,,,,3,15,69,11,,,,,,,,,main,2,2,2,positive,positive,l,l,1,0.7829257000121288,297.6738622999983,298.67382820000057,298.67382820000057,None,297.6738622999983,None,297.6738622999983,None,297.6738622999983,None,299.4571649700141,None,299.4571649700141,None,299.4571649700141,None,,,,,,,,,,,,,,208,2023-03-31_13h26.32.898,Main,2022.1.1,60.02970269943861,
positive,negative,1,l,j,,,,,,,,,3,16,70,5,,,,,,,,,main,2,2,1,negative,positive,l,l,1,0.9824159999843687,299.4636363000027,300.4762144999986,300.45968950001406,None,299.4636363000027,None,299.4636363000027,None,299.4636363000027,None,301.44077377000065,None,301.44077377000065,None,301.44077377000065,None,,,,,,,,,,,,,,208,2023-03-31_13h26.32.898,Main,2022.1.1,60.02970269943861,
neutral,negative,1,k,k,,,,,,,,,3,17,71,7,,,,,,,,,main,2,2,1,negative,neutral,k,k,1,0.8823742999811657,301.4469218000013,302.45955970001523,302.4429647999932,None,301.4469218000013,None,301.4469218000013,None,301.4469218000013,None,303.32609306999655,None,303.32609306999655,None,303.32609306999655,None,,,,,,,,,,,,,,208,2023-03-31_13h26.32.898,Main,2022.1.1,60.02970269943861,
neutral,neutral,1,k,k,,,,,,,,,4,0,72,1,,,,,,,,,main,2,2,1,neutral,neutral,k,k,1,0.7317452999996021,303.3308690999984,304.3427950000041,304.3262141000014,None,303.3308690999984,None,303.3308690999984,None,303.3308690999984,None,305.0594886700186,None,305.0594886700186,None,305.0594886700186,None,,,,,,,,,,,,,,208,2023-03-31_13h26.32.898,Main,2022.1.1,60.02970269943861,
neutral,positive,2,k,k,,,,,,,,,4,1,73,13,,,,,,,,,main,1,1,2,positive,neutral,k,l,0,0.7317547000129707,305.0635317999986,306.0761172999919,306.059536100016,None,305.0635317999986,None,305.0635317999986,None,305.0635317999986,None,306.79288330001873,None,306.79288330001873,None,306.79288330001873,None,,,,,,,,,,,,,,208,2023-03-31_13h26.32.898,Main,2022.1.1,60.02970269943861,
negative,neutral,1,j,l,,,,,,,,,4,2,74,3,,,,,,,,,main,2,2,1,neutral,negative,j,j,1,0.8529407999885734,307.8069267999963,308.8069273000001,308.7902646000148,None,307.8069267999963,None,307.8069267999963,None,307.8069267999963,None,309.65687856999864,None,309.65687856999864,None,309.65687856999864,None,,,,,,,,,,,,,,208,2023-03-31_13h26.32.898,Main,2022.1.1,60.02970269943861,
negative,positive,2,j,l,,,,,,,,,4,3,75,15,,,,,,,,,main,2,2,2,positive,negative,j,j,1,1.064990199985914,309.65750880000996,310.65690990001895,310.65690990001895,None,309.65750880000996,None,309.65750880000996,None,309.65750880000996,None,311.72351977001233,None,311.72351977001233,None,311.72351977001233,None,,,,,,,,,,,,,,208,2023-03-31_13h26.32.898,Main,2022.1.1,60.02970269943861,
positive,neutral,2,l,j,,,,,,,,,4,4,76,17,,,,,,,,,main,2,2,2,neutral,positive,l,l,1,0.8505398999841418,311.72747830001754,312.7427062999923,312.7261133000138,None,311.72747830001754,None,311.72747830001754,None,311.72747830001754,None,313.57606946999147,None,313.57606946999147,None,313.57606946999147,None,,,,,,,,,,,,,,208,2023-03-31_13h26.32.898,Main,2022.1.1,60.02970269943861,
negative,negative,2,j,l,,,,,,,,,4,5,77,9,,,,,,,,,main,2,2,2,negative,negative,j,l,0,0.7818726999976207,313.58013410001877,314.5926199000096,314.57600150001235,None,313.58013410001877,None,313.58013410001877,None,313.58013410001877,None,315.3571729999967,None,315.3571729999967,None,315.3571729999967,None,,,,,,,,,,,,,,208,2023-03-31_13h26.32.898,Main,2022.1.1,60.02970269943861,
positive,positive,1,l,j,,,,,,,,,4,6,78,2,,,,,,,,,main,1,1,1,positive,positive,l,l,1,1.1850141000177246,316.35743060000823,317.3592223000014,317.34262000001036,None,316.35743060000823,None,316.35743060000823,None,316.35743060000823,None,318.5403931700188,None,318.5403931700188,None,318.5403931700188,None,,,,,,,,,,,,,,208,2023-03-31_13h26.32.898,Main,2022.1.1,60.02970269943861,
negative,neutral,2,j,l,,,,,,,,,4,7,79,12,,,,,,,,,main,2,2,2,neutral,negative,j,j,1,0.8307224000163842,318.54539499999373,319.55620320001617,319.53894309999305,None,318.54539499999373,None,318.54539499999373,None,318.54539499999373,None,320.37330987000894,None,320.37330987000894,None,320.37330987000894,None,,,,,,,,,,,,,,208,2023-03-31_13h26.32.898,Main,2022.1.1,60.02970269943861,
positive,positive,2,l,j,,,,,,,,,4,8,80,11,,,,,,,,,main,2,2,2,positive,positive,l,l,1,0.7816337999829557,320.37381459999597,321.3733351000119,321.3733351000119,None,320.37381459999597,None,320.37381459999597,None,320.37381459999597,None,322.15663587001325,None,322.15663587001325,None,322.15663587001325,None,,,,,,,,,,,,,,208,2023-03-31_13h26.32.898,Main,2022.1.1,60.02970269943861,
neutral,negative,2,k,k,,,,,,,,,4,9,81,16,,,,,,,,,main,2,2,2,negative,neutral,k,k,1,0.7320100000069942,322.1582372999983,323.1733147999912,323.1566492000129,None,322.1582372999983,None,322.1582372999983,None,322.1582372999983,None,323.8899685699929,None,323.8899685699929,None,323.8899685699929,None,,,,,,,,,,,,,,208,2023-03-31_13h26.32.898,Main,2022.1.1,60.02970269943861,
positive,neutral,1,l,j,,,,,,,,,4,10,82,8,,,,,,,,,main,1,1,1,neutral,positive,l,l,1,0.9152478000032715,323.89564669999527,324.90909510001075,324.892496400018,None,323.89564669999527,None,323.89564669999527,None,323.89564669999527,None,325.806937370004,None,325.806937370004,None,325.806937370004,None,,,,,,,,,,,,,,208,2023-03-31_13h26.32.898,Main,2022.1.1,60.02970269943861,
neutral,positive,1,k,k,,,,,,,,,4,11,83,4,,,,,,,,,main,2,2,1,positive,neutral,k,j,0,0.8151019999932032,325.81276020000223,326.82569490000606,326.8090649000078,None,325.81276020000223,None,325.81276020000223,None,325.81276020000223,None,327.62359289999586,None,327.62359289999586,None,327.62359289999586,None,,,,,,,,,,,,,,208,2023-03-31_13h26.32.898,Main,2022.1.1,60.02970269943861,
negative,negative,1,j,l,,,,,,,,,4,12,84,0,,,,,,,,,main,2,2,1,negative,negative,j,j,1,0.903502600005595,328.62393259999226,329.6256243000098,329.6090371000173,None,328.62393259999226,None,328.62393259999226,None,328.62393259999226,None,330.52569346999223,None,330.52569346999223,None,330.52569346999223,None,,,,,,,,,,,,,,208,2023-03-31_13h26.32.898,Main,2022.1.1,60.02970269943861,
negative,positive,1,j,l,,,,,,,,,4,13,85,6,,,,,,,,,main,2,2,1,positive,negative,j,j,1,1.0622104000067338,330.529280799994,331.53974080001353,331.5230717000086,None,330.529280799994,None,330.529280799994,None,330.529280799994,None,332.5896864700102,None,332.5896864700102,None,332.5896864700102,None,,,,,,,,,,,,,,208,2023-03-31_13h26.32.898,Main,2022.1.1,60.02970269943861,
neutral,negative,1,k,k,,,,,,,,,4,14,86,7,,,,,,,,,main,2,2,1,negative,neutral,k,k,1,0.7153275999880861,332.58973110001534,333.5922082000179,333.5922082000179,None,332.58973110001534,None,332.58973110001534,None,332.58973110001534,None,334.3064173700026,None,334.3064173700026,None,334.3064173700026,None,,,,,,,,,,,,,,208,2023-03-31_13h26.32.898,Main,2022.1.1,60.02970269943861,
positive,negative,1,l,j,,,,,,,,,4,15,87,5,,,,,,,,,main,2,2,1,negative,positive,l,l,1,1.034073199989507,334.3133271000115,335.32307220000075,335.3089536000043,None,334.3133271000115,None,334.3133271000115,None,334.3133271000115,None,336.3422174700157,None,336.3422174700157,None,336.3422174700157,None,,,,,,,,,,,,,,208,2023-03-31_13h26.32.898,Main,2022.1.1,60.02970269943861,
neutral,neutral,2,k,k,,,,,,,,,4,16,88,10,,,,,,,,,main,1,1,2,neutral,neutral,k,k,1,1.4480743999883998,336.34608570000273,337.3587966999912,337.34214389999397,None,336.34608570000273,None,336.34608570000273,None,336.34608570000273,None,338.79207576999613,None,338.79207576999613,None,338.79207576999613,None,,,,,,,,,,,,,,208,2023-03-31_13h26.32.898,Main,2022.1.1,60.02970269943861,
positive,negative,2,l,j,,,,,,,,,4,17,89,14,,,,,,,,,main,1,1,2,negative,positive,l,l,1,1.0960513000027277,338.7960582000087,339.80876179999905,339.7921489000146,None,338.7960582000087,None,338.7960582000087,None,338.7960582000087,None,340.8899118699977,None,340.8899118699977,None,340.8899118699977,None,,,,,,,,,,,,,,208,2023-03-31_13h26.32.898,Main,2022.1.1,60.02970269943861,
negative,neutral,2,j,l,,,,,,,,,5,0,90,12,,,,,,,,,main,2,2,2,neutral,negative,j,j,1,0.8972829999984242,340.8961799000099,341.90618620000896,341.8895128000004,None,340.8961799000099,None,340.8961799000099,None,340.8961799000099,None,342.7895175700163,None,342.7895175700163,None,342.7895175700163,None,,,,,,,,,,,,,,208,2023-03-31_13h26.32.898,Main,2022.1.1,60.02970269943861,
neutral,neutral,1,k,k,,,,,,,,,5,1,91,1,,,,,,,,,main,1,1,1,neutral,neutral,k,k,1,1.4509649999963585,342.7895048999926,343.7895509999944,343.7895509999944,None,342.7895048999926,None,342.7895048999926,None,342.7895048999926,None,345.241938070007,None,345.241938070007,None,345.241938070007,None,,,,,,,,,,,,,,208,2023-03-31_13h26.32.898,Main,2022.1.1,60.02970269943861,
neutral,neutral,2,k,k,,,,,,,,,5,2,92,10,,,,,,,,,main,1,1,2,neutral,neutral,k,k,1,0.7793005999992602,345.2449486000114,346.2586045000062,346.24200990001555,None,345.2449486000114,None,345.2449486000114,None,345.2449486000114,None,347.02291886999444,None,347.02291886999444,None,347.02291886999444,None,,,,,,,,,,,,,,208,2023-03-31_13h26.32.898,Main,2022.1.1,60.02970269943861,
negative,neutral,1,j,l,,,,,,,,,5,3,93,3,,,,,,,,,main,2,2,1,neutral,negative,j,j,1,0.9482084999908693,347.0289635999943,348.0419205999933,348.02526300001773,None,347.0289635999943,None,347.0289635999943,None,347.0289635999943,None,348.97275237001884,None,348.97275237001884,None,348.97275237001884,None,,,,,,,,,,,,,,208,2023-03-31_13h26.32.898,Main,2022.1.1,60.02970269943861,
positive,negative,1,l,j,,,,,,,,,5,4,94,5,,,,,,,,,main,1,1,1,negative,positive,l,l,1,0.885599800007185,348.97982850001426,349.991823999997,349.97523979999823,None,348.97982850001426,None,348.97982850001426,None,348.97982850001426,None,350.85840486999075,None,350.85840486999075,None,350.85840486999075,None,,,,,,,,,,,,,,208,2023-03-31_13h26.32.898,Main,2022.1.1,60.02970269943861,
neutral,positive,1,k,k,,,,,,,,,5,5,95,4,,,,,,,,,main,1,1,1,positive,neutral,k,k,1,2.0445572000171524,350.863233400014,351.8726832999964,351.85602490001475,None,350.863233400014,None,350.863233400014,None,350.863233400014,None,353.9060349999927,None,353.9060349999927,None,353.9060349999927,None,,,,,,,,,,,,,,208,2023-03-31_13h26.32.898,Main,2022.1.1,60.02970269943861,
negative,negative,2,j,l,,,,,,,,,5,6,96,9,,,,,,,,,main,2,2,2,negative,negative,j,j,1,0.8533350999932736,354.9067835000169,355.9083812000172,355.8918077000126,None,354.9067835000169,None,354.9067835000169,None,354.9067835000169,None,356.7584629699908,None,356.7584629699908,None,356.7584629699908,None,,,,,,,,,,,,,,208,2023-03-31_13h26.32.898,Main,2022.1.1,60.02970269943861,
positive,neutral,1,l,j,,,,,,,,,5,7,97,8,,,,,,,,,main,2,2,1,neutral,positive,l,l,1,0.6957363000256009,356.762604699994,357.774957799993,357.7584290000086,None,356.762604699994,None,356.762604699994,None,356.762604699994,None,358.4560327700077,None,358.4560327700077,None,358.4560327700077,None,,,,,,,,,,,,,,208,2023-03-31_13h26.32.898,Main,2022.1.1,60.02970269943861,
neutral,negative,2,k,k,,,,,,,,,5,8,98,16,,,,,,,,,main,1,1,2,negative,neutral,k,k,1,0.6981996000104118,358.4619294000149,359.47499839999364,359.45840060000774,None,358.4619294000149,None,358.4619294000149,None,358.4619294000149,None,360.1558558700111,None,360.1558558700111,None,360.1558558700111,None,,,,,,,,,,,,,,208,2023-03-31_13h26.32.898,Main,2022.1.1,60.02970269943861,
negative,negative,1,j,l,,,,,,,,,5,9,99,0,,,,,,,,,main,2,2,1,negative,negative,j,j,1,0.6981799000059254,360.16168130000005,361.17485000001034,361.1584082999907,None,360.16168130000005,None,360.16168130000005,None,360.16168130000005,None,361.8554653700179,None,361.8554653700179,None,361.8554653700179,None,,,,,,,,,,,,,,208,2023-03-31_13h26.32.898,Main,2022.1.1,60.02970269943861,
neutral,negative,1,k,k,,,,,,,,,5,10,100,7,,,,,,,,,main,1,1,1,negative,neutral,k,k,1,0.7823210000060499,361.8588651000173,362.8581567000074,362.8581567000074,None,361.8588651000173,None,361.8588651000173,None,361.8588651000173,None,363.63936377001517,None,363.63936377001517,None,363.63936377001517,None,,,,,,,,,,,,,,208,2023-03-31_13h26.32.898,Main,2022.1.1,60.02970269943861,
positive,positive,2,l,j,,,,,,,,,5,11,101,11,,,,,,,,,main,1,1,2,positive,positive,l,l,1,1.2172629999986384,363.64257130000624,364.6580758999917,364.64138109999476,None,363.64257130000624,None,363.64257130000624,None,363.64257130000624,None,365.85810676999097,None,365.85810676999097,None,365.85810676999097,None,,,,,,,,,,,,,,208,2023-03-31_13h26.32.898,Main,2022.1.1,60.02970269943861,
negative,positive,1,j,l,,,,,,,,,5,12,102,6,,,,,,,,,main,2,2,1,positive,negative,j,j,1,0.864911899989238,365.8619128999999,366.87468420001096,366.8580620000139,None,365.8619128999999,None,365.8619128999999,None,365.8619128999999,None,367.72465737000164,None,367.72465737000164,None,367.72465737000164,None,,,,,,,,,,,,,,208,2023-03-31_13h26.32.898,Main,2022.1.1,60.02970269943861,
neutral,positive,2,k,k,,,,,,,,,5,13,103,13,,,,,,,,,main,2,2,2,positive,neutral,k,k,1,0.5462541000160854,367.72858920000726,368.74133930000244,368.72472410000046,None,367.72858920000726,None,367.72858920000726,None,367.72858920000726,None,369.27254527000184,None,369.27254527000184,None,369.27254527000184,None,,,,,,,,,,,,,,208,2023-03-31_13h26.32.898,Main,2022.1.1,60.02970269943861,
negative,positive,2,j,l,,,,,,,,,5,14,104,15,,,,,,,,,main,1,1,2,positive,negative,j,j,1,0.9315286000201013,369.2759075000067,370.2913039000123,370.27472010001657,None,369.2759075000067,None,369.2759075000067,None,369.2759075000067,None,371.20586057000617,None,371.20586057000617,None,371.20586057000617,None,,,,,,,,,,,,,,208,2023-03-31_13h26.32.898,Main,2022.1.1,60.02970269943861,
positive,neutral,2,l,j,,,,,,,,,5,15,105,17,,,,,,,,,main,2,2,2,neutral,positive,l,l,1,0.7841368000081275,371.21117570000933,372.22462399999495,372.20803259999957,None,371.21117570000933,None,371.21117570000933,None,371.21117570000933,None,372.99127116999296,None,372.99127116999296,None,372.99127116999296,None,,,,,,,,,,,,,,208,2023-03-31_13h26.32.898,Main,2022.1.1,60.02970269943861,
positive,positive,1,l,j,,,,,,,,,5,16,106,2,,,,,,,,,main,2,2,1,positive,positive,l,l,1,0.9131090999871958,372.99466520000715,374.007912400004,373.99131929999567,None,372.99466520000715,None,372.99466520000715,None,372.99466520000715,None,374.9058950700186,None,374.9058950700186,None,374.9058950700186,None,,,,,,,,,,,,,,208,2023-03-31_13h26.32.898,Main,2022.1.1,60.02970269943861,
positive,negative,2,l,j,,,,,,,,,5,17,107,14,,,,,,,,,main,2,2,2,negative,positive,l,l,1,0.8717253000068013,374.91181769999093,375.92455450000125,375.90795590000926,None,374.91181769999093,None,374.91181769999093,None,374.91181769999093,None,376.77969857001733,None,376.77969857001733,None,376.77969857001733,None,,,,,,,,,,,,,,208,2023-03-31_13h26.32.898,Main,2022.1.1,60.02970269943861,
positive,negative,1,l,j,,,,,,,,,6,0,108,5,,,,,,,,,main,1,1,1,negative,positive,l,l,1,0.8744030999951065,376.78032730001723,377.78880549999303,377.7721276000084,None,376.78032730001723,None,376.78032730001723,None,376.78032730001723,None,378.6554378700006,None,378.6554378700006,None,378.6554378700006,None,,,,,,,,,,,,,,208,2023-03-31_13h26.32.898,Main,2022.1.1,60.02970269943861,
neutral,neutral,1,k,k,,,,,,,,,6,1,109,1,,,,,,,,,main,1,1,1,neutral,neutral,k,k,1,0.931878700008383,378.65880090001156,379.6579633000074,379.6579633000074,None,378.65880090001156,None,378.65880090001156,None,378.65880090001156,None,380.5890806699957,None,380.5890806699957,None,380.5890806699957,None,,,,,,,,,,,,,,208,2023-03-31_13h26.32.898,Main,2022.1.1,60.02970269943861,
positive,positive,2,l,j,,,,,,,,,6,2,110,11,,,,,,,,,main,2,2,2,positive,positive,l,l,1,0.9153779000043869,380.59481400001096,381.6078480000142,381.5912448000163,None,380.59481400001096,None,380.59481400001096,None,380.59481400001096,None,382.5057157699979,None,382.5057157699979,None,382.5057157699979,None,,,,,,,,,,,,,,208,2023-03-31_13h26.32.898,Main,2022.1.1,60.02970269943861,
neutral,negative,2,k,k,,,,,,,,,6,3,111,16,,,,,,,,,main,1,1,2,negative,neutral,k,k,1,0.8328366999921855,382.51177450001705,383.52448029999505,383.5078337000159,None,382.51177450001705,None,382.51177450001705,None,382.51177450001705,None,384.3410910699953,None,384.3410910699953,None,384.3410910699953,None,,,,,,,,,,,,,,208,2023-03-31_13h26.32.898,Main,2022.1.1,60.02970269943861,
negative,positive,2,j,l,,,,,,,,,6,4,112,15,,,,,,,,,main,1,1,2,positive,negative,j,j,1,0.6652214000059757,384.3450855000119,385.35777329999837,385.34119490001467,None,384.3450855000119,None,384.3450855000119,None,384.3450855000119,None,386.0077208700153,None,386.0077208700153,None,386.0077208700153,None,,,,,,,,,,,,,,208,2023-03-31_13h26.32.898,Main,2022.1.1,60.02970269943861,
negative,neutral,2,j,l,,,,,,,,,6,5,113,12,,,,,,,,,main,1,1,2,neutral,negative,j,j,1,0.6791094999935012,386.010632599995,387.0219286000065,387.0052653000166,None,386.010632599995,None,386.010632599995,None,386.010632599995,None,387.68855877001477,None,387.68855877001477,None,387.68855877001477,None,,,,,,,,,,,,,,208,2023-03-31_13h26.32.898,Main,2022.1.1,60.02970269943861,
positive,positive,1,l,j,,,,,,,,,6,6,114,2,,,,,,,,,main,2,2,1,positive,positive,l,k,0,1.3489142000034917,387.6885891999991,388.68859249999514,388.68859249999514,None,387.6885891999991,None,387.6885891999991,None,387.6885891999991,None,390.04102639999473,None,390.04102639999473,None,390.04102639999473,None,,,,,,,,,,,,,,208,2023-03-31_13h26.32.898,Main,2022.1.1,60.02970269943861,
negative,negative,1,j,l,,,,,,,,,6,7,115,0,,,,,,,,,main,2,2,1,negative,negative,j,j,1,0.8855200000107288,391.03940360000706,392.04099579999456,392.0243762000173,None,391.03940360000706,None,391.03940360000706,None,391.03940360000706,None,392.9219391700084,None,392.9219391700084,None,392.9219391700084,None,,,,,,,,,,,,,,208,2023-03-31_13h26.32.898,Main,2022.1.1,60.02970269943861,
neutral,positive,2,k,k,,,,,,,,,6,8,116,13,,,,,,,,,main,2,2,2,positive,neutral,k,k,1,0.7662729999865405,392.92890090000583,393.9409167999984,393.9243820999982,None,392.92890090000583,None,392.92890090000583,None,392.92890090000583,None,394.6910175699944,None,394.6910175699944,None,394.6910175699944,None,,,,,,,,,,,,,,208,2023-03-31_13h26.32.898,Main,2022.1.1,60.02970269943861,
positive,neutral,2,l,j,,,,,,,,,6,9,117,17,,,,,,,,,main,2,2,2,neutral,positive,l,k,0,0.412633600004483,394.694882300013,395.7075340000156,395.69089669999084,None,394.694882300013,None,394.694882300013,None,394.694882300013,None,396.1054603999946,None,396.1054603999946,None,396.1054603999946,None,,,,,,,,,,,,,,208,2023-03-31_13h26.32.898,Main,2022.1.1,60.02970269943861,
negative,neutral,1,j,l,,,,,,,,,6,10,118,3,,,,,,,,,main,1,1,1,neutral,negative,j,j,1,0.870140100014396,397.1050288999977,398.10502930000075,398.0883598999935,None,397.1050288999977,None,397.1050288999977,None,397.1050288999977,None,398.9716704700171,None,398.9716704700171,None,398.9716704700171,None,,,,,,,,,,,,,,208,2023-03-31_13h26.32.898,Main,2022.1.1,60.02970269943861,
negative,negative,2,j,l,,,,,,,,,6,11,119,9,,,,,,,,,main,2,2,2,negative,negative,j,j,1,0.9172707000107039,398.9776254000026,399.9908007000049,399.97422400000505,None,398.9776254000026,None,398.9776254000026,None,398.9776254000026,None,400.8907866699941,None,400.8907866699941,None,400.8907866699941,None,,,,,,,,,,,,,,208,2023-03-31_13h26.32.898,Main,2022.1.1,60.02970269943861,
neutral,negative,1,k,k,,,,,,,,,6,12,120,7,,,,,,,,,main,2,2,1,negative,neutral,k,k,1,1.4345637000224087,400.89392520001275,401.90737639999134,401.89078859999427,None,400.89392520001275,None,400.89392520001275,None,400.89392520001275,None,403.3268434700061,None,403.3268434700061,None,403.3268434700061,None,,,,,,,,,,,,,,208,2023-03-31_13h26.32.898,Main,2022.1.1,60.02970269943861,
neutral,neutral,2,k,k,,,,,,,,,6,13,121,10,,,,,,,,,main,2,2,2,neutral,neutral,k,k,1,0.7948995999759063,403.3310235000099,404.3406995999976,404.32405200001085,None,403.3310235000099,None,403.3310235000099,None,403.3310235000099,None,405.1240698700043,None,405.1240698700043,None,405.1240698700043,None,,,,,,,,,,,,,,208,2023-03-31_13h26.32.898,Main,2022.1.1,60.02970269943861,
positive,neutral,1,l,j,,,,,,,,,6,14,122,8,,,,,,,,,main,2,2,1,neutral,positive,l,l,1,1.0408563000091817,405.1273876000196,406.14063000000897,406.1241027000069,None,405.1273876000196,None,405.1273876000196,None,405.1273876000196,None,407.1664249700174,None,407.1664249700174,None,407.1664249700174,None,,,,,,,,,,,,,,208,2023-03-31_13h26.32.898,Main,2022.1.1,60.02970269943861,
positive,negative,2,l,j,,,,,,,,,6,15,123,14,,,,,,,,,main,1,1,2,negative,positive,l,l,1,0.7868488999956753,407.16668510000454,408.17145310001797,408.1548115000187,None,407.16668510000454,None,407.16668510000454,None,407.16668510000454,None,408.95489556999235,None,408.95489556999235,None,408.95489556999235,None,,,,,,,,,,,,,,208,2023-03-31_13h26.32.898,Main,2022.1.1,60.02970269943861,
negative,positive,1,j,l,,,,,,,,,6,16,124,6,,,,,,,,,main,2,2,1,positive,negative,j,j,1,0.7685559999954421,408.95666110000457,409.97158090001903,409.95480870001484,None,408.95666110000457,None,408.95666110000457,None,408.95666110000457,None,410.7253172699915,None,410.7253172699915,None,410.7253172699915,None,,,,,,,,,,,,,,208,2023-03-31_13h26.32.898,Main,2022.1.1,60.02970269943861,
neutral,positive,1,k,k,,,,,,,,,6,17,125,4,,,,,,,,,main,2,2,1,positive,neutral,k,k,1,0.6640922000224236,410.7291464000009,411.74057630001334,411.72398290000274,None,410.7291464000009,None,410.7291464000009,None,410.7291464000009,None,412.39056277000634,None,412.39056277000634,None,412.39056277000634,None,,,,,,,,,,,,,,208,2023-03-31_13h26.32.898,Main,2022.1.1,60.02970269943861,
neutral,negative,2,k,k,,,,,,,,,7,0,126,16,,,,,,,,,main,2,2,2,negative,neutral,k,k,1,1.029150499991374,412.3938674000092,413.40718650000053,413.3905828999996,None,412.3938674000092,None,412.3938674000092,None,412.3938674000092,None,414.4216803700168,None,414.4216803700168,None,414.4216803700168,None,,,,,,,,,,,,,,208,2023-03-31_13h26.32.898,Main,2022.1.1,60.02970269943861,
negative,neutral,2,j,l,,,,,,,,,7,1,127,12,,,,,,,,,main,2,2,2,neutral,negative,j,j,1,0.7316079000011086,414.43841830000747,415.44045789999655,415.423873199994,None,414.43841830000747,None,414.43841830000747,None,414.43841830000747,None,416.15497197000366,None,416.15497197000366,None,416.15497197000366,None,,,,,,,,,,,,,,208,2023-03-31_13h26.32.898,Main,2022.1.1,60.02970269943861,
negative,positive,2,j,l,,,,,,,,,7,2,128,15,,,,,,,,,main,1,1,2,positive,negative,j,j,1,0.6674116000067443,416.1613175999955,417.17367280001054,417.1571744999965,None,416.1613175999955,None,416.1613175999955,None,416.1613175999955,None,417.82382196999095,None,417.82382196999095,None,417.82382196999095,None,,,,,,,,,,,,,,208,2023-03-31_13h26.32.898,Main,2022.1.1,60.02970269943861,
positive,positive,2,l,j,,,,,,,,,7,3,129,11,,,,,,,,,main,2,2,2,positive,positive,l,l,1,0.8121468999888748,417.8277806999977,418.83787710001343,418.8212215999956,None,417.8277806999977,None,417.8277806999977,None,417.8277806999977,None,419.6378317699913,None,419.6378317699913,None,419.6378317699913,None,,,,,,,,,,,,,,208,2023-03-31_13h26.32.898,Main,2022.1.1,60.02970269943861,
neutral,positive,2,k,k,,,,,,,,,7,4,130,13,,,,,,,,,main,1,1,2,positive,neutral,k,k,1,0.7860995999944862,419.6386862999934,420.6379136000178,420.6379136000178,None,419.6386862999934,None,419.6386862999934,None,419.6386862999934,None,421.4251225700049,None,421.4251225700049,None,421.4251225700049,None,,,,,,,,,,,,,,208,2023-03-31_13h26.32.898,Main,2022.1.1,60.02970269943861,
neutral,negative,1,k,k,,,,,,,,,7,5,131,7,,,,,,,,,main,1,1,1,negative,neutral,k,k,1,0.8467942999850493,421.42870630000834,422.4402728000132,422.42372630001046,None,421.42870630000834,None,421.42870630000834,None,421.42870630000834,None,423.27381167001147,None,423.27381167001147,None,423.27381167001147,None,,,,,,,,,,,,,,208,2023-03-31_13h26.32.898,Main,2022.1.1,60.02970269943861,
neutral,positive,1,k,k,,,,,,,,,7,6,132,4,,,,,,,,,main,1,1,1,positive,neutral,k,k,1,0.6984737000020687,423.2776079000032,424.29027480000514,424.27366249999614,None,423.2776079000032,None,423.2776079000032,None,423.2776079000032,None,424.97386017001406,None,424.97386017001406,None,424.97386017001406,None,,,,,,,,,,,,,,208,2023-03-31_13h26.32.898,Main,2022.1.1,60.02970269943861,
positive,neutral,2,l,j,,,,,,,,,7,7,133,17,,,,,,,,,main,2,2,2,neutral,positive,l,l,1,0.7128971999918576,424.9775865999982,425.99027490001754,425.9736269999994,None,424.9775865999982,None,424.9775865999982,None,424.9775865999982,None,426.68807677001166,None,426.68807677001166,None,426.68807677001166,None,,,,,,,,,,,,,,208,2023-03-31_13h26.32.898,Main,2022.1.1,60.02970269943861,
positive,positive,1,l,j,,,,,,,,,7,8,134,2,,,,,,,,,main,1,1,1,positive,positive,l,l,1,0.9012091000040527,426.6939973999979,427.70685570000205,427.69022869999753,None,426.6939973999979,None,426.6939973999979,None,426.6939973999979,None,428.59015657001,None,428.59015657001,None,428.59015657001,None,,,,,,,,,,,,,,208,2023-03-31_13h26.32.898,Main,2022.1.1,60.02970269943861,
negative,positive,1,j,l,,,,,,,,,7,9,135,6,,,,,,,,,main,2,2,1,positive,negative,j,j,1,1.3618564000062179,428.594751800003,429.6043096999929,429.5876527999935,None,428.594751800003,None,428.594751800003,None,428.594751800003,None,430.9543652699998,None,430.9543652699998,None,430.9543652699998,None,,,,,,,,,,,,,,208,2023-03-31_13h26.32.898,Main,2022.1.1,60.02970269943861,
neutral,neutral,2,k,k,,,,,,,,,7,10,136,10,,,,,,,,,main,1,1,2,neutral,neutral,k,k,1,0.7818300999933854,430.96019770001294,431.97348430001875,431.95677499999874,None,430.96019770001294,None,430.96019770001294,None,430.96019770001294,None,432.73796747001177,None,432.73796747001177,None,432.73796747001177,None,,,,,,,,,,,,,,208,2023-03-31_13h26.32.898,Main,2022.1.1,60.02970269943861,
negative,negative,1,j,l,,,,,,,,,7,11,137,0,,,,,,,,,main,2,2,1,negative,negative,j,j,1,1.2149929000006523,432.74356249999255,433.7567673000158,433.74014080001507,None,432.74356249999255,None,432.74356249999255,None,432.74356249999255,None,434.9545924700127,None,434.9545924700127,None,434.9545924700127,None,,,,,,,,,,,,,,208,2023-03-31_13h26.32.898,Main,2022.1.1,60.02970269943861,
positive,negative,2,l,j,,,,,,,,,7,12,138,14,,,,,,,,,main,2,2,2,negative,positive,l,l,1,0.9004627999966033,434.9602715999936,435.97336760000326,435.95675010001287,None,434.9602715999936,None,434.9602715999936,None,434.9602715999936,None,436.8566423700162,None,436.8566423700162,None,436.8566423700162,None,,,,,,,,,,,,,,208,2023-03-31_13h26.32.898,Main,2022.1.1,60.02970269943861,
negative,neutral,1,j,l,,,,,,,,,7,13,139,3,,,,,,,,,main,1,1,1,neutral,negative,j,j,1,1.2868406999914441,436.86056170001393,437.87331560000894,437.8566767000011,None,436.86056170001393,None,436.86056170001393,None,436.86056170001393,None,439.1450863699923,None,439.1450863699923,None,439.1450863699923,None,,,,,,,,,,,,,,208,2023-03-31_13h26.32.898,Main,2022.1.1,60.02970269943861,
positive,neutral,1,l,j,,,,,,,,,7,14,140,8,,,,,,,,,main,1,1,1,neutral,positive,l,l,1,1.073945999989519,439.1450008999964,440.1540820999944,440.1374169999908,None,439.1450008999964,None,439.1450008999964,None,439.1450008999964,None,441.2207514700043,None,441.2207514700043,None,441.2207514700043,None,,,,,,,,,,,,,,208,2023-03-31_13h26.32.898,Main,2022.1.1,60.02970269943861,
neutral,neutral,1,k,k,,,,,,,,,7,15,141,1,,,,,,,,,main,1,1,1,neutral,neutral,k,k,1,0.948709799995413,441.22558019999997,442.2398408000008,442.20661610001116,None,441.22558019999997,None,441.22558019999997,None,441.22558019999997,None,443.17107227001395,None,443.17107227001395,None,443.17107227001395,None,,,,,,,,,,,,,,208,2023-03-31_13h26.32.898,Main,2022.1.1,60.02970269943861,
negative,negative,2,j,l,,,,,,,,,7,16,142,9,,,,,,,,,main,1,1,2,negative,negative,j,j,1,0.8841055999801029,443.1764433000062,444.1898471000022,444.17327460000524,None,443.1764433000062,None,443.1764433000062,None,443.1764433000062,None,445.05656156999464,None,445.05656156999464,None,445.05656156999464,None,,,,,,,,,,,,,,208,2023-03-31_13h26.32.898,Main,2022.1.1,60.02970269943861,
positive,negative,1,l,j,,,,,,,,,7,17,143,5,,,,,,,,,main,2,2,1,negative,positive,l,l,1,1.3648466000158805,445.06045330001507,446.0731764000084,446.05653080000775,None,445.06045330001507,None,445.06045330001507,None,445.06045330001507,None,447.4230920699978,None,447.4230920699978,None,447.4230920699978,None,,,,,,,,,,,,,,208,2023-03-31_13h26.32.898,Main,2022.1.1,60.02970269943861,
positive,positive,1,l,j,,,,,,,,,8,0,144,2,,,,,,,,,main,1,1,1,positive,positive,l,l,1,0.828096999990521,447.42713890000596,448.439747299999,448.4231533000129,None,447.42713890000596,None,447.42713890000596,None,447.42713890000596,None,449.2525543699943,None,449.2525543699943,None,449.2525543699943,None,,,,,,,,,,,,,,208,2023-03-31_13h26.32.898,Main,2022.1.1,60.02970269943861,
positive,positive,2,l,j,,,,,,,,,8,1,145,11,,,,,,,,,main,1,1,2,positive,positive,l,l,1,1.066266200010432,449.2685435000167,450.2705527000071,450.25388050000765,None,449.2685435000167,None,449.2685435000167,None,449.2685435000167,None,451.3205321699992,None,451.3205321699992,None,451.3205321699992,None,,,,,,,,,,,,,,208,2023-03-31_13h26.32.898,Main,2022.1.1,60.02970269943861,
negative,negative,2,j,l,,,,,,,,,8,2,146,9,,,,,,,,,main,2,2,2,negative,negative,j,j,1,0.9315019999921788,451.322574299993,452.3372185000044,452.3205453999981,None,451.322574299993,None,451.322574299993,None,451.322574299993,None,453.2538800700189,None,453.2538800700189,None,453.2538800700189,None,,,,,,,,,,,,,,208,2023-03-31_13h26.32.898,Main,2022.1.1,60.02970269943861,
neutral,negative,1,k,k,,,,,,,,,8,3,147,7,,,,,,,,,main,1,1,1,negative,neutral,k,k,1,1.3674706000019796,453.25710730001447,454.25637519999873,454.25637519999873,None,453.25710730001447,None,453.25710730001447,None,453.25710730001447,None,455.6228519700147,None,455.6228519700147,None,455.6228519700147,None,,,,,,,,,,,,,,208,2023-03-31_13h26.32.898,Main,2022.1.1,60.02970269943861,
positive,neutral,1,l,j,,,,,,,,,8,4,148,8,,,,,,,,,main,2,2,1,neutral,positive,l,l,1,0.7149919999937993,455.62587980000535,456.6395893000008,456.62294870000915,None,455.62587980000535,None,455.62587980000535,None,455.62587980000535,None,457.3395451700111,None,457.3395451700111,None,457.3395451700111,None,,,,,,,,,,,,,,208,2023-03-31_13h26.32.898,Main,2022.1.1,60.02970269943861,
neutral,positive,1,k,k,,,,,,,,,8,5,149,4,,,,,,,,,main,2,2,1,positive,neutral,k,k,1,0.8815947000111919,457.34241559999646,458.3562480999972,458.3396187000035,None,457.34241559999646,None,457.34241559999646,None,457.34241559999646,None,459.22279446999016,None,459.22279446999016,None,459.22279446999016,None,,,,,,,,,,,,,,208,2023-03-31_13h26.32.898,Main,2022.1.1,60.02970269943861,
neutral,neutral,1,k,k,,,,,,,,,8,6,150,1,,,,,,,,,main,1,1,1,neutral,neutral,k,k,1,0.6797800000058487,459.2268957000051,460.2395172000106,460.2229134000081,None,459.2268957000051,None,459.2268957000051,None,459.2268957000051,None,460.9042918700055,None,460.9042918700055,None,460.9042918700055,None,,,,,,,,,,,,,,208,2023-03-31_13h26.32.898,Main,2022.1.1,60.02970269943861,
negative,neutral,1,j,l,,,,,,,,,8,7,151,3,,,,,,,,,main,1,1,1,neutral,negative,j,j,1,0.7812698999769054,460.9104471000028,461.92028190000565,461.9036027000111,None,460.9104471000028,None,460.9104471000028,None,460.9104471000028,None,462.68688717000475,None,462.68688717000475,None,462.68688717000475,None,,,,,,,,,,,,,,208,2023-03-31_13h26.32.898,Main,2022.1.1,60.02970269943861,
positive,negative,1,l,j,,,,,,,,,8,8,152,5,,,,,,,,,main,2,2,1,negative,positive,l,l,1,0.6984171000076458,462.6870147000009,463.6869868999929,463.6869868999929,None,462.6870147000009,None,462.6870147000009,None,462.6870147000009,None,464.38692296999795,None,464.38692296999795,None,464.38692296999795,None,,,,,,,,,,,,,,208,2023-03-31_13h26.32.898,Main,2022.1.1,60.02970269943861,
positive,negative,2,l,j,,,,,,,,,8,9,153,14,,,,,,,,,main,1,1,2,negative,positive,l,l,1,0.8154089000017848,464.3886514000187,465.40360960000544,465.386942800018,None,464.3886514000187,None,464.3886514000187,None,464.3886514000187,None,466.2039313700137,None,466.2039313700137,None,466.2039313700137,None,,,,,,,,,,,,,,208,2023-03-31_13h26.32.898,Main,2022.1.1,60.02970269943861,
negative,neutral,2,j,l,,,,,,,,,8,10,154,12,,,,,,,,,main,1,1,2,neutral,negative,j,j,1,0.9835929999826476,466.20960990001913,467.2226995000092,467.2060887000116,None,466.20960990001913,None,466.20960990001913,None,466.20960990001913,None,468.18922506999513,None,468.18922506999513,None,468.18922506999513,None,,,,,,,,,,,,,,208,2023-03-31_13h26.32.898,Main,2022.1.1,60.02970269943861,
negative,negative,1,j,l,,,,,,,,,8,11,155,0,,,,,,,,,main,2,2,1,negative,negative,j,j,1,1.0651117000088561,468.1932913000055,469.205967899994,469.18938910000725,None,468.1932913000055,None,468.1932913000055,None,468.1932913000055,None,470.2558376699948,None,470.2558376699948,None,470.2558376699948,None,,,,,,,,,,,,,,208,2023-03-31_13h26.32.898,Main,2022.1.1,60.02970269943861,
neutral,neutral,2,k,k,,,,,,,,,8,12,156,10,,,,,,,,,main,2,2,2,neutral,neutral,k,k,1,0.7308747000060976,470.26013810001314,471.27261380001437,471.255971400009,None,470.26013810001314,None,470.26013810001314,None,470.26013810001314,None,471.9892028700182,None,471.9892028700182,None,471.9892028700182,None,,,,,,,,,,,,,,208,2023-03-31_13h26.32.898,Main,2022.1.1,60.02970269943861,
neutral,positive,2,k,k,,,,,,,,,8,13,157,13,,,,,,,,,main,1,1,2,positive,neutral,k,l,0,0.9956948000181001,471.9937742000038,473.0058970999962,472.9892908000038,None,471.9937742000038,None,471.9937742000038,None,471.9937742000038,None,473.98667050001677,None,473.98667050001677,None,473.98667050001677,None,,,,,,,,,,,,,,208,2023-03-31_13h26.32.898,Main,2022.1.1,60.02970269943861,
negative,positive,2,j,l,,,,,,,,,8,14,158,15,,,,,,,,,main,1,1,2,positive,negative,j,j,1,1.3369275000004563,474.9867030000023,475.9867230000091,475.97005800000625,None,474.9867030000023,None,474.9867030000023,None,474.9867030000023,None,477.31999567001765,None,477.31999567001765,None,477.31999567001765,None,,,,,,,,,,,,,,208,2023-03-31_13h26.32.898,Main,2022.1.1,60.02970269943861,
positive,neutral,2,l,j,,,,,,,,,8,15,159,17,,,,,,,,,main,1,1,2,neutral,positive,l,l,1,0.9984743000240996,477.32598470000084,478.33909130000393,478.32249079999747,None,477.32598470000084,None,477.32598470000084,None,477.32598470000084,None,479.3203277700144,None,479.3203277700144,None,479.3203277700144,None,,,,,,,,,,,,,,208,2023-03-31_13h26.32.898,Main,2022.1.1,60.02970269943861,
neutral,negative,2,k,k,,,,,,,,,8,16,160,16,,,,,,,,,main,2,2,2,negative,neutral,k,k,1,0.8007634000096004,479.3263367000036,480.3390433000168,480.3225179000001,None,479.3263367000036,None,479.3263367000036,None,479.3263367000036,None,481.1228180700185,None,481.1228180700185,None,481.1228180700185,None,,,,,,,,,,,,,,208,2023-03-31_13h26.32.898,Main,2022.1.1,60.02970269943861,
negative,positive,1,j,l,,,,,,,,,8,17,161,6,,,,,,,,,main,1,1,1,positive,negative,j,j,1,1.1813376999925822,481.12718300000415,482.13905260001775,482.12244179999107,None,481.12718300000415,None,481.12718300000415,None,481.12718300000415,None,483.30564647001154,None,483.30564647001154,None,483.30564647001154,None,,,,,,,,,,,,,,208,2023-03-31_13h26.32.898,Main,2022.1.1,60.02970269943861,
negative,neutral,2,j,l,,,,,,,,,9,0,162,12,,,,,,,,,main,2,2,2,neutral,negative,j,j,1,0.781713000003947,483.30970050001633,484.3223982999916,484.30573180000647,None,483.30970050001633,None,483.30970050001633,None,483.30970050001633,None,485.08902627001805,None,485.08902627001805,None,485.08902627001805,None,,,,,,,,,,,,,,208,2023-03-31_13h26.32.898,Main,2022.1.1,60.02970269943861,
negative,neutral,1,j,l,,,,,,,,,9,1,163,3,,,,,,,,,main,2,2,1,neutral,negative,j,j,1,0.7290749000094365,485.09301199999754,486.103099400003,486.0864345000009,None,485.09301199999754,None,485.09301199999754,None,485.09301199999754,None,486.8197238700144,None,486.8197238700144,None,486.8197238700144,None,,,,,,,,,,,,,,208,2023-03-31_13h26.32.898,Main,2022.1.1,60.02970269943861,
positive,neutral,2,l,j,,,,,,,,,9,2,164,17,,,,,,,,,main,2,2,2,neutral,positive,l,l,1,1.0146821000089403,486.81995900001493,487.8197777000023,487.8197777000023,None,486.81995900001493,None,486.81995900001493,None,486.81995900001493,None,488.8364011699945,None,488.8364011699945,None,488.8364011699945,None,,,,,,,,,,,,,,208,2023-03-31_13h26.32.898,Main,2022.1.1,60.02970269943861,
neutral,neutral,1,k,k,,,,,,,,,9,3,165,1,,,,,,,,,main,2,2,1,neutral,neutral,k,k,1,1.7675397999992128,488.8395201000094,489.85308990001795,489.8364157000033,None,488.8395201000094,None,488.8395201000094,None,488.8395201000094,None,491.60558709999896,None,491.60558709999896,None,491.60558709999896,None,,,,,,,,,,,,,,208,2023-03-31_13h26.32.898,Main,2022.1.1,60.02970269943861,
positive,positive,2,l,j,,,,,,,,,9,4,166,11,,,,,,,,,main,1,1,2,positive,positive,l,l,1,1.0009362999990117,492.60452950000763,493.605429200019,493.58884620000026,None,492.60452950000763,None,492.60452950000763,None,492.60452950000763,None,494.6029505699902,None,494.6029505699902,None,494.6029505699902,None,,,,,,,,,,,,,,208,2023-03-31_13h26.32.898,Main,2022.1.1,60.02970269943861,
neutral,positive,2,k,k,,,,,,,,,9,5,167,13,,,,,,,,,main,1,1,2,positive,neutral,k,k,1,0.8674583999963943,494.60652940001455,495.6220723000006,495.60548699999345,None,494.60652940001455,None,494.60652940001455,None,494.60652940001455,None,496.47218366999584,None,496.47218366999584,None,496.47218366999584,None,,,,,,,,,,,,,,208,2023-03-31_13h26.32.898,Main,2022.1.1,60.02970269943861,
neutral,negative,2,k,k,,,,,,,,,9,6,168,16,,,,,,,,,main,1,1,2,negative,neutral,k,k,1,0.679011400003219,496.47488580000936,497.4918166999996,497.46963989999495,None,496.47488580000936,None,496.47488580000936,None,496.47488580000936,None,498.15276407001363,None,498.15276407001363,None,498.15276407001363,None,,,,,,,,,,,,,,208,2023-03-31_13h26.32.898,Main,2022.1.1,60.02970269943861,
negative,positive,1,j,l,,,,,,,,,9,7,169,6,,,,,,,,,main,1,1,1,positive,negative,j,j,1,0.7986181000014767,498.1528290999995,499.1528653000132,499.1528653000132,None,498.1528290999995,None,498.1528290999995,None,498.1528290999995,None,499.9528082700184,None,499.9528082700184,None,499.9528082700184,None,,,,,,,,,,,,,,208,2023-03-31_13h26.32.898,Main,2022.1.1,60.02970269943861,
negative,positive,2,j,l,,,,,,,,,9,8,170,15,,,,,,,,,main,2,2,2,positive,negative,j,k,0,0.9983083000115585,499.9532978000061,500.9528626000101,500.9528626000101,None,499.9532978000061,None,499.9532978000061,None,499.9532978000061,None,501.95283560000826,None,501.95283560000826,None,501.95283560000826,None,,,,,,,,,,,,,,208,2023-03-31_13h26.32.898,Main,2022.1.1,60.02970269943861,
positive,positive,1,l,j,,,,,,,,,9,9,171,2,,,,,,,,,main,2,2,1,positive,positive,l,l,1,0.8681596000096761,502.954433100007,503.95523399999365,503.9386879999947,None,502.954433100007,None,502.954433100007,None,502.954433100007,None,504.81973077000873,None,504.81973077000873,None,504.81973077000873,None,,,,,,,,,,,,,,208,2023-03-31_13h26.32.898,Main,2022.1.1,60.02970269943861,
negative,negative,1,j,l,,,,,,,,,9,10,172,0,,,,,,,,,main,1,1,1,negative,negative,j,j,1,0.8980347999895457,504.82594490001793,505.8384722000046,505.82189990000916,None,504.82594490001793,None,504.82594490001793,None,504.82594490001793,None,506.71984347001705,None,506.71984347001705,None,506.71984347001705,None,,,,,,,,,,,,,,208,2023-03-31_13h26.32.898,Main,2022.1.1,60.02970269943861,
negative,negative,2,j,l,,,,,,,,,9,11,173,9,,,,,,,,,main,1,1,2,negative,negative,j,j,1,1.2185875999857672,506.7253047999984,507.73849640000844,507.7218651000003,None,506.7253047999984,None,506.7253047999984,None,506.7253047999984,None,508.93898547000424,None,508.93898547000424,None,508.93898547000424,None,,,,,,,,,,,,,,208,2023-03-31_13h26.32.898,Main,2022.1.1,60.02970269943861,
neutral,neutral,2,k,k,,,,,,,,,9,12,174,10,,,,,,,,,main,2,2,2,neutral,neutral,k,k,1,0.844301600009203,508.94312219999847,509.95259760000044,509.9359300000069,None,508.94312219999847,None,508.94312219999847,None,508.94312219999847,None,510.7859038700029,None,510.7859038700029,None,510.7859038700029,None,,,,,,,,,,,,,,208,2023-03-31_13h26.32.898,Main,2022.1.1,60.02970269943861,
neutral,positive,1,k,k,,,,,,,,,9,13,175,4,,,,,,,,,main,2,2,1,positive,neutral,k,k,1,1.0652753000031225,510.78710099999444,511.78843000001507,511.78843000001507,None,510.78710099999444,None,510.78710099999444,None,510.78710099999444,None,512.8527262699994,None,512.8527262699994,None,512.8527262699994,None,,,,,,,,,,,,,,208,2023-03-31_13h26.32.898,Main,2022.1.1,60.02970269943861,
positive,neutral,1,l,j,,,,,,,,,9,14,176,8,,,,,,,,,main,2,2,1,neutral,positive,l,l,1,0.7721998000051826,512.8595008999982,513.8716983000049,513.8550872000051,None,512.8595008999982,None,512.8595008999982,None,512.8595008999982,None,514.6253292700188,None,514.6253292700188,None,514.6253292700188,None,,,,,,,,,,,,,,208,2023-03-31_13h26.32.898,Main,2022.1.1,60.02970269943861,
positive,negative,1,l,j,,,,,,,,,9,15,177,5,,,,,,,,,main,1,1,1,negative,positive,l,l,1,0.8602723999938462,514.6297784000053,515.6383020000067,515.6217615999922,None,514.6297784000053,None,514.6297784000053,None,514.6297784000053,None,516.488264970007,None,516.488264970007,None,516.488264970007,None,,,,,,,,,,,,,,208,2023-03-31_13h26.32.898,Main,2022.1.1,60.02970269943861,
neutral,negative,1,k,k,,,,,,,,,9,16,178,7,,,,,,,,,main,2,2,1,negative,neutral,k,l,0,2.1623369000153616,516.4915787999926,517.5048405000125,517.4883608999953,None,516.4915787999926,None,516.4915787999926,None,516.4915787999926,None,519.6523672000039,None,519.6523672000039,None,519.6523672000039,None,,,,,,,,,,,,,,208,2023-03-31_13h26.32.898,Main,2022.1.1,60.02970269943861,
positive,negative,2,l,j,,,,,,,,,9,17,179,14,,,,,,,,,main,2,2,2,negative,positive,l,l,1,-0.7964279000007082,520.652407799993,None,None,None,520.652407799993,None,520.652407799993,None,520.652407799993,None,520.85238940001,None,520.85238940001,None,520.85238940001,None,,,,,,,,,,,,,,208,2023-03-31_13h26.32.898,Main,2022.1.1,60.02970269943861,
neutral,neutral,2,k,k,,,,,,,,,10,0,180,10,,,,,,,,,main,1,1,2,neutral,neutral,k,k,1,1.0201540999987628,523.8530001000036,524.8547995999979,524.8381991999922,None,523.8530001000036,None,523.8530001000036,None,523.8530001000036,None,525.8713941700029,None,525.8713941700029,None,525.8713941700029,None,,,,,,,,,,,,,,208,2023-03-31_13h26.32.898,Main,2022.1.1,60.02970269943861,
negative,neutral,2,j,l,,,,,,,,,10,1,181,12,,,,,,,,,main,1,1,2,neutral,negative,j,j,1,0.8959980999934487,525.8746147000056,526.8880738000153,526.8714860000182,None,525.8746147000056,None,525.8746147000056,None,525.8746147000056,None,527.7692637700151,None,527.7692637700151,None,527.7692637700151,None,,,,,,,,,,,,,,208,2023-03-31_13h26.32.898,Main,2022.1.1,60.02970269943861,
positive,neutral,2,l,j,,,,,,,,,10,2,182,17,,,,,,,,,main,2,2,2,neutral,positive,l,l,1,0.8544448000029661,527.7748175000015,528.7879929000046,528.7714291000157,None,527.7748175000015,None,527.7748175000015,None,527.7748175000015,None,529.6248009700124,None,529.6248009700124,None,529.6248009700124,None,,,,,,,,,,,,,,208,2023-03-31_13h26.32.898,Main,2022.1.1,60.02970269943861,
neutral,negative,1,k,k,,,,,,,,,10,3,183,7,,,,,,,,,main,1,1,1,negative,neutral,k,k,1,1.1776678999885917,529.6352515000035,530.6358024000074,530.6191167999932,None,529.6352515000035,None,529.6352515000035,None,529.6352515000035,None,531.8044479699951,None,531.8044479699951,None,531.8044479699951,None,,,,,,,,,,,,,,208,2023-03-31_13h26.32.898,Main,2022.1.1,60.02970269943861,
negative,neutral,1,j,l,,,,,,,,,10,4,184,3,,,,,,,,,main,1,1,1,neutral,negative,j,l,0,1.2633111999894027,531.8083858000173,532.8211981999921,532.8046018000168,None,531.8083858000173,None,531.8083858000173,None,531.8083858000173,None,534.0711564999947,None,534.0711564999947,None,534.0711564999947,None,,,,,,,,,,,,,,208,2023-03-31_13h26.32.898,Main,2022.1.1,60.02970269943861,
neutral,positive,2,k,k,,,,,,,,,10,5,185,13,,,,,,,,,main,2,2,2,positive,neutral,k,k,1,0.7513870999973733,535.0690285000019,536.0710373000184,536.0523640000029,None,535.0690285000019,None,535.0690285000019,None,535.0690285000019,None,536.818964269993,None,536.818964269993,None,536.818964269993,None,,,,,,,,,,,,,,208,2023-03-31_13h26.32.898,Main,2022.1.1,60.02970269943861,
neutral,positive,1,k,k,,,,,,,,,10,6,186,4,,,,,,,,,main,1,1,1,positive,neutral,k,k,1,0.9333494000020437,536.8250124000187,537.8356554000056,537.8189859999984,None,536.8250124000187,None,536.8250124000187,None,536.8250124000187,None,538.7543775699945,None,538.7543775699945,None,538.7543775699945,None,,,,,,,,,,,,,,208,2023-03-31_13h26.32.898,Main,2022.1.1,60.02970269943861,
negative,negative,2,j,l,,,,,,,,,10,7,187,9,,,,,,,,,main,2,2,2,negative,negative,j,j,1,1.3131213000160642,538.7572365000087,539.7689640000171,539.754454400012,None,538.7572365000087,None,538.7572365000087,None,538.7572365000087,None,541.0690362700174,None,541.0690362700174,None,541.0690362700174,None,,,,,,,,,,,,,,208,2023-03-31_13h26.32.898,Main,2022.1.1,60.02970269943861,
positive,negative,2,l,j,,,,,,,,,10,8,188,14,,,,,,,,,main,2,2,2,negative,positive,l,l,1,0.7977166000055149,541.0856127000006,542.0852329999907,542.0685719000176,None,541.0856127000006,None,541.0856127000006,None,541.0856127000006,None,542.8685388700018,None,542.8685388700018,None,542.8685388700018,None,,,,,,,,,,,,,,208,2023-03-31_13h26.32.898,Main,2022.1.1,60.02970269943861,
positive,negative,1,l,j,,,,,,,,,10,9,189,5,,,,,,,,,main,1,1,1,negative,positive,l,l,1,0.9514032999868505,542.8685722000082,543.8686022000038,543.8686022000038,None,542.8685722000082,None,542.8685722000082,None,542.8685722000082,None,544.8209846700105,None,544.8209846700105,None,544.8209846700105,None,,,,,,,,,,,,,,208,2023-03-31_13h26.32.898,Main,2022.1.1,60.02970269943861,
positive,positive,1,l,j,,,,,,,,,10,10,190,2,,,,,,,,,main,2,2,1,positive,positive,l,l,1,0.7463939000153914,544.8250110000081,545.8376719999942,545.8210400000098,None,544.8250110000081,None,544.8250110000081,None,544.8250110000081,None,546.5688651699951,None,546.5688651699951,None,546.5688651699951,None,,,,,,,,,,,,,,208,2023-03-31_13h26.32.898,Main,2022.1.1,60.02970269943861,
negative,positive,1,j,l,,,,,,,,,10,11,191,6,,,,,,,,,main,2,2,1,positive,negative,j,l,0,0.3813476999930572,546.5748628000147,547.587652200018,547.5709647000185,None,546.5748628000147,None,546.5748628000147,None,546.5748628000147,None,547.9543683000084,None,547.9543683000084,None,547.9543683000084,None,,,,,,,,,,,,,,208,2023-03-31_13h26.32.898,Main,2022.1.1,60.02970269943861,
negative,positive,2,j,l,,,,,,,,,10,12,192,15,,,,,,,,,main,2,2,2,positive,negative,j,j,1,1.502815499989083,548.9525578000175,549.954236599995,549.9376439000189,None,548.9525578000175,None,548.9525578000175,None,548.9525578000175,None,551.4516717999941,None,551.4516717999941,None,551.4516717999941,None,,,,,,,,,,,,,,208,2023-03-31_13h26.32.898,Main,2022.1.1,60.02970269943861,
neutral,negative,2,k,k,,,,,,,,,10,13,193,16,,,,,,,,,main,2,2,2,negative,neutral,k,k,1,0.6896356000215746,552.4517209000187,553.4517356000142,553.4350791000179,None,552.4517209000187,None,552.4517209000187,None,552.4517209000187,None,554.1377328699949,None,554.1377328699949,None,554.1377328699949,None,,,,,,,,,,,,,,208,2023-03-31_13h26.32.898,Main,2022.1.1,60.02970269943861,
neutral,neutral,1,k,k,,,,,,,,,10,14,194,1,,,,,,,,,main,2,2,1,neutral,neutral,k,k,1,0.7123290000017732,554.1416600999946,555.1541068000079,555.137536299997,None,554.1416600999946,None,554.1416600999946,None,554.1416600999946,None,555.851949269991,None,555.851949269991,None,555.851949269991,None,,,,,,,,,,,,,,208,2023-03-31_13h26.32.898,Main,2022.1.1,60.02970269943861,
positive,positive,2,l,j,,,,,,,,,10,15,195,11,,,,,,,,,main,1,1,2,positive,positive,l,l,1,0.7984174000157509,555.8576766000187,556.8707585000084,556.8541558000143,None,555.8576766000187,None,555.8576766000187,None,555.8576766000187,None,557.6519417700096,None,557.6519417700096,None,557.6519417700096,None,,,,,,,,,,,,,,208,2023-03-31_13h26.32.898,Main,2022.1.1,60.02970269943861,
positive,neutral,1,l,j,,,,,,,,,10,16,196,8,,,,,,,,,main,1,1,1,neutral,positive,l,j,0,0.6816460999834817,557.657660900004,558.6707826000056,558.6540930999909,None,557.657660900004,None,557.657660900004,None,557.657660900004,None,559.335289700015,None,559.335289700015,None,559.335289700015,None,,,,,,,,,,,,,,208,2023-03-31_13h26.32.898,Main,2022.1.1,60.02970269943861,
negative,negative,1,j,l,,,,,,,,,10,17,197,0,,,,,,,,,main,2,2,1,negative,negative,j,j,1,0.8511246999842115,560.3355380000139,561.3348591999966,561.3181965000113,None,560.3355380000139,None,560.3355380000139,None,560.3355380000139,None,562.1848443699913,None,562.1848443699913,None,562.1848443699913,None,,,,,,,,,,,,,,208,2023-03-31_13h26.32.898,Main,2022.1.1,60.02970269943861,
positive,negative,2,l,j,,,,,,,,,11,0,198,14,,,,,,,,,main,2,2,2,negative,positive,l,l,1,0.7481275000027381,562.1869676999922,563.2015207000077,563.184874300001,None,562.1869676999922,None,562.1869676999922,None,562.1869676999922,None,563.934794370018,None,563.934794370018,None,563.934794370018,None,,,,,,,,,,,,,,208,2023-03-31_13h26.32.898,Main,2022.1.1,60.02970269943861,
neutral,positive,1,k,k,,,,,,,,,11,1,199,4,,,,,,,,,main,2,2,1,positive,neutral,k,k,1,0.8338130000047386,563.9377128999913,564.9514946000127,564.9348118999915,None,563.9377128999913,None,563.9377128999913,None,563.9377128999913,None,565.7706512700155,None,565.7706512700155,None,565.7706512700155,None,,,,,,,,,,,,,,208,2023-03-31_13h26.32.898,Main,2022.1.1,60.02970269943861,
negative,positive,1,j,l,,,,,,,,,11,2,200,6,,,,,,,,,main,2,2,1,positive,negative,j,j,1,0.9126677000022028,565.7746008000104,566.7872168000031,566.7705612000136,None,565.7746008000104,None,565.7746008000104,None,565.7746008000104,None,567.6847232700005,None,567.6847232700005,None,567.6847232700005,None,,,,,,,,,,,,,,208,2023-03-31_13h26.32.898,Main,2022.1.1,60.02970269943861,
neutral,neutral,1,k,k,,,,,,,,,11,3,201,1,,,,,,,,,main,2,2,1,neutral,neutral,k,k,1,0.6672547000052873,567.691358400014,568.7038098000048,568.6872505999927,None,567.691358400014,None,567.691358400014,None,567.691358400014,None,569.3539398700144,None,569.3539398700144,None,569.3539398700144,None,,,,,,,,,,,,,,208,2023-03-31_13h26.32.898,Main,2022.1.1,60.02970269943861,
negative,negative,2,j,l,,,,,,,,,11,4,202,9,,,,,,,,,main,1,1,2,negative,negative,j,j,1,1.1127363000123296,569.3578520000156,570.3704795000085,570.3538300000073,None,569.3578520000156,None,569.3578520000156,None,569.3578520000156,None,571.4682947700115,None,571.4682947700115,None,571.4682947700115,None,,,,,,,,,,,,,,208,2023-03-31_13h26.32.898,Main,2022.1.1,60.02970269943861,
neutral,negative,2,k,k,,,,,,,,,11,5,203,16,,,,,,,,,main,1,1,2,negative,neutral,k,k,1,1.0146389000001363,571.4739607000083,572.4871839999978,572.4705060000124,None,571.4739607000083,None,571.4739607000083,None,571.4739607000083,None,573.4845510700164,None,573.4845510700164,None,573.4845510700164,None,,,,,,,,,,,,,,208,2023-03-31_13h26.32.898,Main,2022.1.1,60.02970269943861,
neutral,positive,2,k,k,,,,,,,,,11,6,204,13,,,,,,,,,main,2,2,2,positive,neutral,k,k,1,0.8483150000101887,573.4846667000093,574.4845639000123,574.4845639000123,None,573.4846667000093,None,573.4846667000093,None,573.4846667000093,None,575.3345360699954,None,575.3345360699954,None,575.3345360699954,None,,,,,,,,,,,,,,208,2023-03-31_13h26.32.898,Main,2022.1.1,60.02970269943861,
negative,neutral,1,j,l,,,,,,,,,11,7,205,3,,,,,,,,,main,2,2,1,neutral,negative,j,j,1,1.2680773999891244,575.3390354000148,576.3512067999982,576.3345522000163,None,575.3390354000148,None,575.3390354000148,None,575.3390354000148,None,577.6037673700106,None,577.6037673700106,None,577.6037673700106,None,,,,,,,,,,,,,,208,2023-03-31_13h26.32.898,Main,2022.1.1,60.02970269943861,
positive,positive,1,l,j,,,,,,,,,11,8,206,2,,,,,,,,,main,1,1,1,positive,positive,l,l,1,1.199596599995857,577.608090099995,578.6202233000076,578.603663499991,None,577.608090099995,None,577.608090099995,None,577.608090099995,None,579.8060368700156,None,579.8060368700156,None,579.8060368700156,None,,,,,,,,,,,,,,208,2023-03-31_13h26.32.898,Main,2022.1.1,60.02970269943861,
neutral,neutral,2,k,k,,,,,,,,,11,9,207,10,,,,,,,,,main,1,1,2,neutral,neutral,k,k,1,0.7662284000252839,579.8096643000026,580.8202757000108,580.8036772000196,None,579.8096643000026,None,579.8096643000026,None,579.8096643000026,None,581.5725908700173,None,581.5725908700173,None,581.5725908700173,None,,,,,,,,,,,,,,208,2023-03-31_13h26.32.898,Main,2022.1.1,60.02970269943861,
positive,positive,2,l,j,,,,,,,,,11,10,208,11,,,,,,,,,main,2,2,2,positive,positive,l,l,1,0.8596090000064578,581.5770172000048,582.5868726999906,582.5702849999943,None,581.5770172000048,None,581.5770172000048,None,581.5770172000048,None,583.4347153699986,None,583.4347153699986,None,583.4347153699986,None,,,,,,,,,,,,,,208,2023-03-31_13h26.32.898,Main,2022.1.1,60.02970269943861,
positive,negative,1,l,j,,,,,,,,,11,11,209,5,,,,,,,,,main,1,1,1,negative,positive,l,l,1,1.8978993000055198,583.4404268999933,584.4535109999997,584.4369008000067,None,583.4404268999933,None,583.4404268999933,None,583.4404268999933,None,586.3342817999946,None,586.3342817999946,None,586.3342817999946,None,,,,,,,,,,,,,,208,2023-03-31_13h26.32.898,Main,2022.1.1,60.02970269943861,
positive,neutral,2,l,j,,,,,,,,,11,12,210,17,,,,,,,,,main,2,2,2,neutral,positive,l,l,1,0.8036319999955595,587.3343490000116,588.3342686000105,588.3176409000007,None,587.3343490000116,None,587.3343490000116,None,587.3343490000116,None,589.1342697699932,None,589.1342697699932,None,589.1342697699932,None,,,,,,,,,,,,,,208,2023-03-31_13h26.32.898,Main,2022.1.1,60.02970269943861,
negative,negative,1,j,l,,,,,,,,,11,13,211,0,,,,,,,,,main,2,2,1,negative,negative,j,j,1,0.8674526000104379,589.1399920000113,590.1534167999926,590.1368098999956,None,589.1399920000113,None,589.1399920000113,None,589.1399920000113,None,591.0035570700041,None,591.0035570700041,None,591.0035570700041,None,,,,,,,,,,,,,,208,2023-03-31_13h26.32.898,Main,2022.1.1,60.02970269943861,
positive,neutral,1,l,j,,,,,,,,,11,14,212,8,,,,,,,,,main,2,2,1,neutral,positive,l,l,1,0.778533900011098,591.0076313000172,592.0200278999982,592.0034214000043,None,591.0076313000172,None,591.0076313000172,None,591.0076313000172,None,592.7845378699916,None,592.7845378699916,None,592.7845378699916,None,,,,,,,,,,,,,,208,2023-03-31_13h26.32.898,Main,2022.1.1,60.02970269943861,
negative,positive,2,j,l,,,,,,,,,11,15,213,15,,,,,,,,,main,2,2,2,positive,negative,j,j,1,0.931776199984597,592.7903928000014,593.8033135000151,593.7867110999941,None,592.7903928000014,None,592.7903928000014,None,592.7903928000014,None,594.7178279700078,None,594.7178279700078,None,594.7178279700078,None,,,,,,,,,,,,,,208,2023-03-31_13h26.32.898,Main,2022.1.1,60.02970269943861,
neutral,negative,1,k,k,,,,,,,,,11,16,214,7,,,,,,,,,main,1,1,1,negative,neutral,k,k,1,1.1141250999935437,594.7255842000013,595.7366114000033,595.7199936000106,None,594.7255842000013,None,594.7255842000013,None,594.7255842000013,None,596.8343961700069,None,596.8343961700069,None,596.8343961700069,None,,,,,,,,,,,,,,208,2023-03-31_13h26.32.898,Main,2022.1.1,60.02970269943861,
negative,neutral,2,j,l,,,,,,,,,11,17,215,12,,,,,,,,,main,1,1,2,neutral,negative,j,j,1,1.668433000013465,596.8405883999949,597.850723200012,597.8340462000051,None,596.8405883999949,None,596.8405883999949,None,596.8405883999949,None,599.5007340000011,None,599.5007340000011,None,599.5007340000011,None,,,,,,,,,,,,,,208,2023-03-31_13h26.32.898,Main,2022.1.1,60.02970269943861,
positive,neutral,2,l,j,,,,,,,,,12,0,216,17,,,,,,,,,main,2,2,2,neutral,positive,l,l,1,0.7727294000214897,600.5007198000094,601.5006955999997,601.4840521000151,None,600.5007198000094,None,600.5007198000094,None,600.5007198000094,None,602.2698474700068,None,602.2698474700068,None,602.2698474700068,None,,,,,,,,,,,,,,208,2023-03-31_13h26.32.898,Main,2022.1.1,60.02970269943861,
negative,positive,2,j,l,,,,,,,,,12,1,217,15,,,,,,,,,main,2,2,2,positive,negative,j,l,0,0.7147519999998622,602.2744676000148,603.2864444000006,603.2698540000129,None,602.2744676000148,None,602.2744676000148,None,602.2744676000148,None,603.9864688999951,None,603.9864688999951,None,603.9864688999951,None,,,,,,,,,,,,,,208,2023-03-31_13h26.32.898,Main,2022.1.1,60.02970269943861,
positive,negative,2,l,j,,,,,,,,,12,2,218,14,,,,,,,,,main,1,1,2,negative,positive,l,l,1,0.8844353999884333,604.9846384999983,605.9864732999995,605.9680683000188,None,604.9846384999983,None,604.9846384999983,None,604.9846384999983,None,606.8675741699902,None,606.8675741699902,None,606.8675741699902,None,,,,,,,,,,,,,,208,2023-03-31_13h26.32.898,Main,2022.1.1,60.02970269943861,
neutral,positive,2,k,k,,,,,,,,,12,3,219,13,,,,,,,,,main,2,2,2,positive,neutral,k,k,1,1.0011438999790698,606.8736948000151,607.8863381000119,607.8697460000112,None,606.8736948000151,None,606.8736948000151,None,606.8736948000151,None,608.8696511700022,None,608.8696511700022,None,608.8696511700022,None,,,,,,,,,,,,,,208,2023-03-31_13h26.32.898,Main,2022.1.1,60.02970269943861,
negative,negative,2,j,l,,,,,,,,,12,4,220,9,,,,,,,,,main,2,2,2,negative,negative,j,j,1,0.8782438000198454,608.8738546000095,609.8837954000046,609.8671251999913,None,608.8738546000095,None,608.8738546000095,None,608.8738546000095,None,610.7504130700166,None,610.7504130700166,None,610.7504130700166,None,,,,,,,,,,,,,,208,2023-03-31_13h26.32.898,Main,2022.1.1,60.02970269943861,
neutral,neutral,2,k,k,,,,,,,,,12,5,221,10,,,,,,,,,main,2,2,2,neutral,neutral,k,k,1,0.8985020999971312,610.750399600016,611.7504774999979,611.7504774999979,None,610.750399600016,None,610.750399600016,None,610.750399600016,None,612.6504115699994,None,612.6504115699994,None,612.6504115699994,None,,,,,,,,,,,,,,208,2023-03-31_13h26.32.898,Main,2022.1.1,60.02970269943861,
neutral,neutral,1,k,k,,,,,,,,,12,6,222,1,,,,,,,,,main,1,1,1,neutral,neutral,k,k,1,0.9484065000142436,612.6527803000063,613.6671354999999,613.6504616000166,None,612.6527803000063,None,612.6527803000063,None,612.6527803000063,None,614.6003765700065,None,614.6003765700065,None,614.6003765700065,None,,,,,,,,,,,,,,208,2023-03-31_13h26.32.898,Main,2022.1.1,60.02970269943861,
positive,negative,1,l,j,,,,,,,,,12,7,223,5,,,,,,,,,main,1,1,1,negative,positive,l,k,0,2.5708923999918625,614.606812700018,615.6194838999945,615.6029016000102,None,614.606812700018,None,614.606812700018,None,614.606812700018,None,618.1688102000044,None,618.1688102000044,None,618.1688102000044,None,,,,,,,,,,,,,,208,2023-03-31_13h26.32.898,Main,2022.1.1,60.02970269943861,
