target,distractor,set,ans1,ans2,rep_loop2.thisRepN,rep_loop2.thisTrialN,rep_loop2.thisN,rep_loop2.thisIndex,flanker_prac_loop.thisRepN,flanker_prac_loop.thisTrialN,flanker_prac_loop.thisN,flanker_prac_loop.thisIndex,flanker_main_loop.thisRepN,flanker_main_loop.thisTrialN,flanker_main_loop.thisN,flanker_main_loop.thisIndex,fl_inst_resp.keys,fl_inst_resp.rt,sound_1.started,sound_1.stopped,image_4.started,image_4.stopped,back_2.started,back_2.stopped,main_prac,fl_cold,fl_colt,fl_set,fl_dcond,fl_tcond,fl_ans,fl_res,fl_corr,fl_rt,fix_fl.started,fix_fl.stopped,targ.started,targ.stopped,j_button.started,j_button.stopped,k_button.started,k_button.stopped,l_button.started,l_button.stopped,j_button2.started,j_button2.stopped,k_button2.started,k_button2.stopped,l_button2.started,l_button2.stopped,mainback.started,mainback.stopped,key_resp.keys,key_resp.rt,mouse_6.x,mouse_6.y,mouse_6.leftButton,mouse_6.midButton,mouse_6.rightButton,mouse_6.started,mouse_6.stopped,text_2.started,text_2.stopped,id*,date,expName,psychopyVersion,frameRate,
,,,,,0,0,0,0,,,,,,,,,space,54.61946839996381,54.23827127998811,None,108.88694799999939,None,,,,,,,,,,,,,,,,,,,,,,,,,,,,,,,,,,,,,,,,,,209,2023-04-04_13h32.44.137,Main,2022.1.1,59.77447092270902,
positive,neutral,1,l,j,,,,,0,0,0,8,,,,,,,,,,,112.92029300000286,None,prac,2,2,1,neutral,positive,j,j,1,1.2693159999907948,114.94812970003113,115.9510107000242,115.934330100019,None,114.94812970003113,None,114.94812970003113,None,114.94812970003113,None,117.21772578000673,None,117.21772578000673,None,117.21772578000673,None,,,,,,,,,,,,,,209,2023-04-04_13h32.44.137,Main,2022.1.1,59.77447092270902,
neutral,negative,1,k,k,,,,,0,1,1,7,,,,,,,,,,,,,prac,2,2,1,negative,neutral,k,k,1,0.9700255999923684,117.22174050001195,118.23670760000823,118.22009359998628,None,117.22174050001195,None,117.22174050001195,None,117.22174050001195,None,119.18693207998876,None,119.18693207998876,None,119.18693207998876,None,,,,,,,,,,,,,,209,2023-04-04_13h32.44.137,Main,2022.1.1,59.77447092270902,
positive,positive,2,l,j,,,,,0,2,2,11,,,,,,,,,,,,,prac,1,1,2,positive,positive,j,j,1,0.828133600007277,119.19828609999968,120.20350860001054,120.18682330002775,None,119.19828609999968,None,119.19828609999968,None,119.19828609999968,None,121.02002898001228,None,121.02002898001228,None,121.02002898001228,None,,,,,,,,,,,,,,209,2023-04-04_13h32.44.137,Main,2022.1.1,59.77447092270902,
neutral,neutral,1,k,k,,,,,0,3,3,1,,,,,,,,,,,,,prac,1,1,1,neutral,neutral,k,k,1,0.9834324999828823,121.02320589998271,122.03666680003516,122.02007979998598,None,121.02320589998271,None,121.02320589998271,None,121.02320589998271,None,123.0047878800251,None,123.0047878800251,None,123.0047878800251,None,,,,,,,,,,,,,,209,2023-04-04_13h32.44.137,Main,2022.1.1,59.77447092270902,
neutral,positive,1,k,k,,,,,0,4,4,4,,,,,,,,,,,,,prac,1,1,1,positive,neutral,k,k,1,0.7290195999667048,123.00817799998913,124.02005580003606,124.00337410002248,None,123.00817799998913,None,123.00817799998913,None,123.00817799998913,None,124.73500368001987,None,124.73500368001987,None,124.73500368001987,None,,,,,,,,,,,,,,209,2023-04-04_13h32.44.137,Main,2022.1.1,59.77447092270902,
positive,neutral,2,l,j,,,,,0,5,5,17,,,,,,,,,,,,,prac,1,1,2,neutral,positive,j,j,1,0.7823784000356682,124.74129690002883,125.75076000002446,125.73408329999074,None,124.74129690002883,None,124.74129690002883,None,124.74129690002883,None,126.51744008003152,None,126.51744008003152,None,126.51744008003152,None,,,,,,,,,,,,,,209,2023-04-04_13h32.44.137,Main,2022.1.1,59.77447092270902,
negative,positive,2,j,l,,,,,0,6,6,15,,,,,,,,,,,,,prac,1,1,2,positive,negative,l,l,1,0.6160954000079073,126.51969630003441,127.52006609999808,127.52006609999808,None,126.51969630003441,None,126.51969630003441,None,126.51969630003441,None,128.13655727999867,None,128.13655727999867,None,128.13655727999867,None,,,,,,,,,,,,,,209,2023-04-04_13h32.44.137,Main,2022.1.1,59.77447092270902,
neutral,positive,2,k,k,,,,,0,7,7,13,,,,,,,,,,,,,prac,1,1,2,positive,neutral,k,k,1,0.7989250000100583,128.13945489999605,129.15319640003145,129.13668430002872,None,128.13945489999605,None,128.13945489999605,None,128.13945489999605,None,129.93661488001817,None,129.93661488001817,None,129.93661488001817,None,,,,,,,,,,,,,,209,2023-04-04_13h32.44.137,Main,2022.1.1,59.77447092270902,
positive,negative,2,l,j,,,,,0,8,8,14,,,,,,,,,,,,,prac,2,2,2,negative,positive,j,j,1,0.6626915999804623,129.94154110003728,130.95326179999392,130.93655430001672,None,129.94154110003728,None,129.94154110003728,None,129.94154110003728,None,131.60071858004085,None,131.60071858004085,None,131.60071858004085,None,,,,,,,,,,,,,,209,2023-04-04_13h32.44.137,Main,2022.1.1,59.77447092270902,
negative,positive,1,j,l,,,,,0,9,9,6,,,,,,,,,,,,,prac,1,1,1,positive,negative,l,l,1,0.865664699987974,131.60781560000032,132.61988120002206,132.60320250003133,None,131.60781560000032,None,131.60781560000032,None,131.60781560000032,None,133.46769367999514,None,133.46769367999514,None,133.46769367999514,None,,,,,,,,,,,,,,209,2023-04-04_13h32.44.137,Main,2022.1.1,59.77447092270902,
negative,neutral,1,j,l,,,,,0,10,10,3,,,,,,,,,,,,,prac,2,2,1,neutral,negative,l,l,1,0.6921647999552079,133.4732630000217,134.48638329998357,134.4697440000018,None,133.4732630000217,None,133.4732630000217,None,133.4732630000217,None,135.16086158002145,None,135.16086158002145,None,135.16086158002145,None,,,,,,,,,,,,,,209,2023-04-04_13h32.44.137,Main,2022.1.1,59.77447092270902,
negative,negative,2,j,l,,,,,0,11,11,9,,,,,,,,,,,,,prac,1,1,2,negative,negative,l,l,1,0.8716411999776028,135.1776094000088,136.18620729999384,136.15090589999454,None,135.1776094000088,None,135.1776094000088,None,135.1776094000088,None,137.0341077799967,None,137.0341077799967,None,137.0341077799967,None,,,,,,,,,,,,,,209,2023-04-04_13h32.44.137,Main,2022.1.1,59.77447092270902,
positive,positive,1,l,j,,,,,0,12,12,2,,,,,,,,,,,,,prac,2,2,1,positive,positive,j,j,1,1.2319582999916747,137.03761970001506,138.0528857000172,138.03416799998377,None,137.03761970001506,None,137.03761970001506,None,137.03761970001506,None,139.2672685800062,None,139.2672685800062,None,139.2672685800062,None,,,,,,,,,,,,,,209,2023-04-04_13h32.44.137,Main,2022.1.1,59.77447092270902,
neutral,neutral,2,k,k,,,,,0,13,13,10,,,,,,,,,,,,,prac,1,1,2,neutral,neutral,k,k,1,0.6656974999932572,139.27236400003312,140.28405399998883,140.26950809999835,None,139.27236400003312,None,139.27236400003312,None,139.27236400003312,None,140.93409587998758,None,140.93409587998758,None,140.93409587998758,None,,,,,,,,,,,,,,209,2023-04-04_13h32.44.137,Main,2022.1.1,59.77447092270902,
neutral,negative,2,k,k,,,,,0,14,14,16,,,,,,,,,,,,,prac,1,1,2,negative,neutral,k,k,1,0.6651830000337213,140.93917770002736,141.95278829999734,141.93618680001236,None,140.93917770002736,None,140.93917770002736,None,140.93917770002736,None,142.60072158000548,None,142.60072158000548,None,142.60072158000548,None,,,,,,,,,,,,,,209,2023-04-04_13h32.44.137,Main,2022.1.1,59.77447092270902,
negative,neutral,2,j,l,,,,,0,15,15,12,,,,,,,,,,,,,prac,2,2,2,neutral,negative,l,l,1,0.7824689999688417,142.60661850002361,143.61736410000594,143.60071460000472,None,142.60661850002361,None,142.60661850002361,None,142.60661850002361,None,144.3842105799995,None,144.3842105799995,None,144.3842105799995,None,,,,,,,,,,,,,,209,2023-04-04_13h32.44.137,Main,2022.1.1,59.77447092270902,
negative,negative,1,j,l,,,,,0,16,16,0,,,,,,,,,,,,,prac,2,2,1,negative,negative,l,l,1,0.8485517000081018,144.38971960003255,145.40274930000305,145.38615020003635,None,144.38971960003255,None,144.38971960003255,None,144.38971960003255,None,146.23399658003473,None,146.23399658003473,None,146.23399658003473,None,,,,,,,,,,,,,,209,2023-04-04_13h32.44.137,Main,2022.1.1,59.77447092270902,
positive,negative,1,l,j,,,,,0,17,17,5,,,,,,,,,,,,,prac,2,2,1,negative,positive,j,j,1,1.015409100044053,146.2392714000307,147.2506480999873,147.23395660001552,None,146.2392714000307,None,146.2392714000307,None,146.2392714000307,None,148.25062748001073,None,148.25062748001073,None,148.25062748001073,None,,,,,,,,,,,,,,209,2023-04-04_13h32.44.137,Main,2022.1.1,59.77447092270902,
positive,positive,2,l,j,,,,,1,0,18,11,,,,,,,,,,,,,prac,2,2,2,positive,positive,j,j,1,0.7097709999652579,148.25620200001867,149.26728800003184,149.2528209000011,None,148.25620200001867,None,148.25620200001867,None,148.25620200001867,None,149.96166008003638,None,149.96166008003638,None,149.96166008003638,None,,,,,,,,,,,,,,209,2023-04-04_13h32.44.137,Main,2022.1.1,59.77447092270902,
neutral,neutral,2,k,k,,,,,1,1,19,10,,,,,,,,,,,,,prac,2,2,2,neutral,neutral,k,k,1,0.6705010000150651,149.97717010002816,150.98358290002216,150.95025580003858,None,149.97717010002816,None,149.97717010002816,None,149.97717010002816,None,151.63356697998825,None,151.63356697998825,None,151.63356697998825,None,,,,,,,,,,,,,,209,2023-04-04_13h32.44.137,Main,2022.1.1,59.77447092270902,
negative,positive,1,j,l,,,,,1,2,20,6,,,,,,,,,,,,,prac,2,2,1,positive,negative,l,l,1,0.6494357000337914,151.63351310003782,152.63603490003152,152.61940060002962,None,151.63351310003782,None,151.63351310003782,None,151.63351310003782,None,153.28395948003163,None,153.28395948003163,None,153.28395948003163,None,,,,,,,,,,,,,,209,2023-04-04_13h32.44.137,Main,2022.1.1,59.77447092270902,
neutral,negative,2,k,k,,,,,1,3,21,16,,,,,,,,,,,,,prac,2,2,2,negative,neutral,k,k,1,0.6809795000008307,153.2883649999858,154.30282069998793,154.28607020003255,None,153.2883649999858,None,153.2883649999858,None,153.2883649999858,None,154.96726708000642,None,154.96726708000642,None,154.96726708000642,None,,,,,,,,,,,,,,209,2023-04-04_13h32.44.137,Main,2022.1.1,59.77447092270902,
positive,neutral,2,l,j,,,,,1,4,22,17,,,,,,,,,,,,,prac,1,1,2,neutral,positive,j,j,1,1.2672698999522254,154.97285319998628,155.98592260002624,155.9694400000153,None,154.97285319998628,None,154.97285319998628,None,154.97285319998628,None,157.2359608800325,None,157.2359608800325,None,157.2359608800325,None,,,,,,,,,,,,,,209,2023-04-04_13h32.44.137,Main,2022.1.1,59.77447092270902,
neutral,positive,2,k,k,,,,,1,5,23,13,,,,,,,,,,,,,prac,2,2,2,positive,neutral,k,k,1,0.6032728000427596,157.239800499985,158.2525632000179,158.23378750000848,None,157.239800499985,None,157.239800499985,None,157.239800499985,None,158.83606258002692,None,158.83606258002692,None,158.83606258002692,None,,,,,,,,,,,,,,209,2023-04-04_13h32.44.137,Main,2022.1.1,59.77447092270902,
positive,positive,1,l,j,,,,,1,6,24,2,,,,,,,,,,,,,prac,2,2,1,positive,positive,j,j,1,0.7079931000480428,158.8436840000213,159.85260739998193,159.83600469998783,None,158.8436840000213,None,158.8436840000213,None,158.8436840000213,None,160.5494212800113,None,160.5494212800113,None,160.5494212800113,None,,,,,,,,,,,,,,209,2023-04-04_13h32.44.137,Main,2022.1.1,59.77447092270902,
negative,neutral,1,j,l,,,,,1,7,25,3,,,,,,,,,,,,,prac,1,1,1,neutral,negative,l,l,1,0.5851302000228316,160.5648622000008,161.5669377000304,161.53577560000122,None,160.5648622000008,None,160.5648622000008,None,160.5648622000008,None,162.13580228001229,None,162.13580228001229,None,162.13580228001229,None,,,,,,,,,,,,,,209,2023-04-04_13h32.44.137,Main,2022.1.1,59.77447092270902,
neutral,positive,1,k,k,,,,,1,8,26,4,,,,,,,,,,,,,prac,2,2,1,positive,neutral,k,k,1,0.6633096999721602,162.13969520002138,163.1502613000339,163.13570879999315,None,162.13969520002138,None,162.13969520002138,None,162.13969520002138,None,163.80030158002046,None,163.80030158002046,None,163.80030158002046,None,,,,,,,,,,,,,,209,2023-04-04_13h32.44.137,Main,2022.1.1,59.77447092270902,
neutral,neutral,1,k,k,,,,,1,9,27,1,,,,,,,,,,,,,prac,1,1,1,neutral,neutral,k,k,1,0.7318774000159465,163.80536060000304,164.81896629999392,164.802379700006,None,163.80536060000304,None,163.80536060000304,None,163.80536060000304,None,165.5336146800255,None,165.5336146800255,None,165.5336146800255,None,,,,,,,,,,,,,,209,2023-04-04_13h32.44.137,Main,2022.1.1,59.77447092270902,
negative,neutral,2,j,l,,,,,1,10,28,12,,,,,,,,,,,,,prac,2,2,2,neutral,negative,l,l,1,0.7320612000185065,165.53907739999704,166.55221910000546,166.5335144000128,None,165.53907739999704,None,165.53907739999704,None,165.53907739999704,None,167.26683308000793,None,167.26683308000793,None,167.26683308000793,None,,,,,,,,,,,,,,209,2023-04-04_13h32.44.137,Main,2022.1.1,59.77447092270902,
positive,negative,1,l,j,,,,,1,11,29,5,,,,,,,,,,,,,prac,2,2,1,negative,positive,j,j,1,0.715480100014247,167.27031480002915,168.2856944000232,168.26905930001521,None,167.27031480002915,None,167.27031480002915,None,167.27031480002915,None,168.98351598004228,None,168.98351598004228,None,168.98351598004228,None,,,,,,,,,,,,,,209,2023-04-04_13h32.44.137,Main,2022.1.1,59.77447092270902,
positive,negative,2,l,j,,,,,1,12,30,14,,,,,,,,,,,,,prac,1,1,2,negative,positive,j,j,1,0.6657941000303254,168.98666200001026,170.00223779998487,169.9856354999938,None,168.98666200001026,None,168.98666200001026,None,168.98666200001026,None,170.65071377999266,None,170.65071377999266,None,170.65071377999266,None,,,,,,,,,,,,,,209,2023-04-04_13h32.44.137,Main,2022.1.1,59.77447092270902,
negative,positive,2,j,l,,,,,1,13,31,15,,,,,,,,,,,,,prac,2,2,2,positive,negative,l,l,1,0.6982625999953598,170.65645850001602,171.6666102000163,171.6501089000376,None,170.65645850001602,None,170.65645850001602,None,170.65645850001602,None,172.35011677999864,None,172.35011677999864,None,172.35011677999864,None,,,,,,,,,,,,,,209,2023-04-04_13h32.44.137,Main,2022.1.1,59.77447092270902,
neutral,negative,1,k,k,,,,,1,14,32,7,,,,,,,,,,,,,prac,2,2,1,negative,neutral,k,k,1,0.6643038000329398,172.35420810000505,173.36602690001018,173.34480660001282,None,172.35420810000505,None,172.35420810000505,None,172.35420810000505,None,174.01645188001567,None,174.01645188001567,None,174.01645188001567,None,,,,,,,,,,,,,,209,2023-04-04_13h32.44.137,Main,2022.1.1,59.77447092270902,
positive,neutral,1,l,j,,,,,1,15,33,8,,,,,,,,,,,,,prac,2,2,1,neutral,positive,j,j,1,0.6485808999859728,174.01637289999053,175.01642619998893,175.01642619998893,None,174.01637289999053,None,174.01637289999053,None,174.01637289999053,None,175.66644338003243,None,175.66644338003243,None,175.66644338003243,None,,,,,,,,,,,,,,209,2023-04-04_13h32.44.137,Main,2022.1.1,59.77447092270902,
negative,negative,2,j,l,,,,,1,16,34,9,,,,,,,,,,,,,prac,2,2,2,negative,negative,l,l,1,0.7157589999842457,175.6696748000104,176.66885270003695,176.66885270003695,None,175.6696748000104,None,175.6696748000104,None,175.6696748000104,None,177.3833960800257,None,177.3833960800257,None,177.3833960800257,None,,,,,,,,,,,,,,209,2023-04-04_13h32.44.137,Main,2022.1.1,59.77447092270902,
negative,negative,1,j,l,,,,,1,17,35,0,,,,,,,,,,,,,prac,2,2,1,negative,negative,l,j,0,0.59952049999265,177.38902669999516,178.4022095000255,178.38562860002276,None,177.38902669999516,None,177.38902669999516,None,177.38902669999516,None,178.98570210003527,None,178.98570210003527,None,178.98570210003527,None,,,,,,,,,,,,,,209,2023-04-04_13h32.44.137,Main,2022.1.1,59.77447092270902,
,,,,,,,,,,,,,,,,,,,,,,,,,,,,,,,,,,,,,,,,,,,,,,,,,,,179.9854750999948,None,space,18.22533059999114,,,,,,,,,,209,2023-04-04_13h32.44.137,Main,2022.1.1,59.77447092270902,
,,,,,,,,,,,,,,,,,,,,,,,,,,,,,,,,,,,,,,,,,,,,,,,,,,,,,,,-0.098148145,-0.07777778,0,0,0,0.01609558006748557,None,,,209,2023-04-04_13h32.44.137,Main,2022.1.1,59.77447092270902,
negative,negative,2,j,l,,,,,,,,,0,0,0,9,,,,,,,198.23510320001515,None,main,2,2,2,negative,negative,l,l,1,0.7624914000043646,200.23908959998516,201.2515722999815,201.23499170003925,None,200.23908959998516,None,200.23908959998516,None,200.23908959998516,None,201.99957057999563,None,201.99957057999563,None,201.99957057999563,None,,,,,,,,,,,,,,209,2023-04-04_13h32.44.137,Main,2022.1.1,59.77447092270902,
positive,neutral,2,l,j,,,,,,,,,0,1,1,17,,,,,,,,,main,1,1,2,neutral,positive,j,j,1,0.6321789000066929,202.00489889999153,203.0182855000021,203.00168650003616,None,202.00489889999153,None,202.00489889999153,None,202.00489889999153,None,203.63492528002826,None,203.63492528002826,None,203.63492528002826,None,,,,,,,,,,,,,,209,2023-04-04_13h32.44.137,Main,2022.1.1,59.77447092270902,
positive,neutral,1,l,j,,,,,,,,,0,2,2,8,,,,,,,,,main,2,2,1,neutral,positive,j,j,1,0.6783543000346981,203.63932040001964,204.64910640002927,204.63244349998422,None,203.63932040001964,None,203.63932040001964,None,203.63932040001964,None,205.31575608000276,None,205.31575608000276,None,205.31575608000276,None,,,,,,,,,,,,,,209,2023-04-04_13h32.44.137,Main,2022.1.1,59.77447092270902,
neutral,negative,1,k,k,,,,,,,,,0,3,3,7,,,,,,,,,main,2,2,1,negative,neutral,k,k,1,0.582119100028649,205.3157054000185,206.31578000000445,206.31578000000445,None,205.3157054000185,None,205.3157054000185,None,205.3157054000185,None,206.89909908003756,None,206.89909908003756,None,206.89909908003756,None,,,,,,,,,,,,,,209,2023-04-04_13h32.44.137,Main,2022.1.1,59.77447092270902,
negative,neutral,2,j,l,,,,,,,,,0,4,4,12,,,,,,,,,main,2,2,2,neutral,negative,l,l,1,0.7484293999732472,206.90509310003836,207.9182404000312,207.90164400002686,None,206.90509310003836,None,206.90509310003836,None,206.90509310003836,None,208.64908408003976,None,208.64908408003976,None,208.64908408003976,None,,,,,,,,,,,,,,209,2023-04-04_13h32.44.137,Main,2022.1.1,59.77447092270902,
negative,positive,2,j,l,,,,,,,,,0,5,5,15,,,,,,,,,main,2,2,2,positive,negative,l,l,1,0.7510439999750815,208.65527650003787,209.66819260001648,209.65165800001705,None,208.65527650003787,None,208.65527650003787,None,208.65527650003787,None,210.4016137800354,None,210.4016137800354,None,210.4016137800354,None,,,,,,,,,,,,,,209,2023-04-04_13h32.44.137,Main,2022.1.1,59.77447092270902,
positive,negative,2,l,j,,,,,,,,,0,6,6,14,,,,,,,,,main,2,2,2,negative,positive,j,j,1,0.6475525999558158,210.4056683999952,211.4180919000064,211.40152040001703,None,210.4056683999952,None,210.4056683999952,None,210.4056683999952,None,212.0492970799969,None,212.0492970799969,None,212.0492970799969,None,,,,,,,,,,,,,,209,2023-04-04_13h32.44.137,Main,2022.1.1,59.77447092270902,
neutral,neutral,1,k,k,,,,,,,,,0,7,7,1,,,,,,,,,main,1,1,1,neutral,neutral,k,k,1,0.6135191000066698,212.0560840999824,213.06808960001217,213.0514250000124,None,212.0560840999824,None,212.0560840999824,None,212.0560840999824,None,213.6659451800224,None,213.6659451800224,None,213.6659451800224,None,,,,,,,,,,,,,,209,2023-04-04_13h32.44.137,Main,2022.1.1,59.77447092270902,
positive,negative,1,l,j,,,,,,,,,0,8,8,5,,,,,,,,,main,1,1,1,negative,positive,j,j,1,0.6673152999719605,213.66992170002777,214.6847538999864,214.66592539998237,None,213.66992170002777,None,213.66992170002777,None,213.66992170002777,None,215.33471977998852,None,215.33471977998852,None,215.33471977998852,None,,,,,,,,,,,,,,209,2023-04-04_13h32.44.137,Main,2022.1.1,59.77447092270902,
negative,positive,1,j,l,,,,,,,,,0,9,9,6,,,,,,,,,main,1,1,1,positive,negative,l,l,1,0.8124149999930523,215.33826470002532,216.34880199999316,216.33214449998923,None,215.33826470002532,None,215.33826470002532,None,215.33826470002532,None,217.1488130800135,None,217.1488130800135,None,217.1488130800135,None,,,,,,,,,,,,,,209,2023-04-04_13h32.44.137,Main,2022.1.1,59.77447092270902,
positive,positive,2,l,j,,,,,,,,,0,10,10,11,,,,,,,,,main,1,1,2,positive,positive,j,j,1,0.665396900032647,217.16556739999214,218.16808040003525,218.15147230000002,None,217.16556739999214,None,217.16556739999214,None,217.16556739999214,None,218.81587568004034,None,218.81587568004034,None,218.81587568004034,None,,,,,,,,,,,,,,209,2023-04-04_13h32.44.137,Main,2022.1.1,59.77447092270902,
positive,positive,1,l,j,,,,,,,,,0,11,11,2,,,,,,,,,main,2,2,1,positive,positive,j,j,1,0.6685614999732934,218.82176489999983,219.8346215999918,219.81812790001277,None,218.82176489999983,None,218.82176489999983,None,218.82176489999983,None,220.48246038003708,None,220.48246038003708,None,220.48246038003708,None,,,,,,,,,,,,,,209,2023-04-04_13h32.44.137,Main,2022.1.1,59.77447092270902,
negative,neutral,1,j,l,,,,,,,,,0,12,12,3,,,,,,,,,main,1,1,1,neutral,negative,l,l,1,0.663972600013949,220.48928189999424,221.501210300019,221.48461939999834,None,220.48928189999424,None,220.48928189999424,None,220.48928189999424,None,222.1513105799968,None,222.1513105799968,None,222.1513105799968,None,,,,,,,,,,,,,,209,2023-04-04_13h32.44.137,Main,2022.1.1,59.77447092270902,
neutral,negative,2,k,k,,,,,,,,,0,13,13,16,,,,,,,,,main,2,2,2,negative,neutral,k,k,1,0.7484830999746919,222.15590489999158,223.16793470003176,223.15134320000652,None,222.15590489999158,None,222.15590489999158,None,222.15590489999158,None,223.90115858000354,None,223.90115858000354,None,223.90115858000354,None,,,,,,,,,,,,,,209,2023-04-04_13h32.44.137,Main,2022.1.1,59.77447092270902,
negative,negative,1,j,l,,,,,,,,,0,14,14,0,,,,,,,,,main,1,1,1,negative,negative,l,l,1,0.8543987000011839,223.9056592999841,224.91777559998445,224.9011223000125,None,223.9056592999841,None,223.9056592999841,None,223.9056592999841,None,225.7583691799955,None,225.7583691799955,None,225.7583691799955,None,,,,,,,,,,,,,,209,2023-04-04_13h32.44.137,Main,2022.1.1,59.77447092270902,
neutral,positive,1,k,k,,,,,,,,,0,15,15,4,,,,,,,,,main,1,1,1,positive,neutral,k,k,1,0.6554027000092901,225.77409090002766,226.7819918000023,226.7486455999897,None,225.77409090002766,None,225.77409090002766,None,225.77409090002766,None,227.41529568002443,None,227.41529568002443,None,227.41529568002443,None,,,,,,,,,,,,,,209,2023-04-04_13h32.44.137,Main,2022.1.1,59.77447092270902,
neutral,neutral,2,k,k,,,,,,,,,0,16,16,10,,,,,,,,,main,2,2,2,neutral,neutral,k,k,1,0.7009963000309654,227.4152555000037,228.4153259000159,228.4153259000159,None,227.4152555000037,None,227.4152555000037,None,227.4152555000037,None,229.11776468003518,None,229.11776468003518,None,229.11776468003518,None,,,,,,,,,,,,,,209,2023-04-04_13h32.44.137,Main,2022.1.1,59.77447092270902,
neutral,positive,2,k,k,,,,,,,,,0,17,17,13,,,,,,,,,main,2,2,2,positive,neutral,k,k,1,0.6144105999846943,229.12247599998955,230.13440839998657,230.11787300003925,None,229.12247599998955,None,229.12247599998955,None,229.12247599998955,None,230.73465108001255,None,230.73465108001255,None,230.73465108001255,None,,,,,,,,,,,,,,209,2023-04-04_13h32.44.137,Main,2022.1.1,59.77447092270902,
positive,negative,2,l,j,,,,,,,,,1,0,18,14,,,,,,,,,main,2,2,2,negative,positive,j,j,1,1.0454161999514326,230.73858880001353,231.75092319998657,231.73222260002512,None,230.73858880001353,None,230.73858880001353,None,230.73858880001353,None,232.78187998002977,None,232.78187998002977,None,232.78187998002977,None,,,,,,,,,,,,,,209,2023-04-04_13h32.44.137,Main,2022.1.1,59.77447092270902,
neutral,positive,1,k,k,,,,,,,,,1,1,19,4,,,,,,,,,main,1,1,1,positive,neutral,k,k,1,0.5333897999953479,232.7852920999867,233.78434090001974,233.78434090001974,None,232.7852920999867,None,232.7852920999867,None,232.7852920999867,None,234.31551888000104,None,234.31551888000104,None,234.31551888000104,None,,,,,,,,,,,,,,209,2023-04-04_13h32.44.137,Main,2022.1.1,59.77447092270902,
negative,negative,1,j,l,,,,,,,,,1,2,20,0,,,,,,,,,main,1,1,1,negative,negative,l,l,1,0.7134910000022501,234.32199750002474,235.33423229999607,235.3176624000189,None,234.32199750002474,None,234.32199750002474,None,234.32199750002474,None,236.03139458000078,None,236.03139458000078,None,236.03139458000078,None,,,,,,,,,,,,,,209,2023-04-04_13h32.44.137,Main,2022.1.1,59.77447092270902,
neutral,positive,2,k,k,,,,,,,,,1,3,21,13,,,,,,,,,main,2,2,2,positive,neutral,k,k,1,0.4695128999883309,236.04795320000267,237.04865930002416,237.03421459998935,None,236.04795320000267,None,236.04795320000267,None,236.04795320000267,None,237.4988710800244,None,237.4988710800244,None,237.4988710800244,None,,,,,,,,,,,,,,209,2023-04-04_13h32.44.137,Main,2022.1.1,59.77447092270902,
neutral,neutral,2,k,k,,,,,,,,,1,4,22,10,,,,,,,,,main,2,2,2,neutral,neutral,k,k,1,0.5822995999478735,237.5071794000105,238.5153173999861,238.49864569999045,None,237.5071794000105,None,237.5071794000105,None,237.5071794000105,None,239.08649307998712,None,239.08649307998712,None,239.08649307998712,None,,,,,,,,,,,,,,209,2023-04-04_13h32.44.137,Main,2022.1.1,59.77447092270902,
neutral,negative,2,k,k,,,,,,,,,1,5,23,16,,,,,,,,,main,1,1,2,negative,neutral,k,k,1,0.5603931000223383,239.08984860003693,240.1006725000334,240.08194529998582,None,239.08984860003693,None,239.08984860003693,None,239.08984860003693,None,240.6486166800314,None,240.6486166800314,None,240.6486166800314,None,,,,,,,,,,,,,,209,2023-04-04_13h32.44.137,Main,2022.1.1,59.77447092270902,
positive,neutral,1,l,j,,,,,,,,,1,6,24,8,,,,,,,,,main,2,2,1,neutral,positive,j,j,1,0.6647340999916196,240.66744059999473,241.66528610000387,241.65087300003506,None,240.66744059999473,None,240.66744059999473,None,240.66744059999473,None,242.31535408002674,None,242.31535408002674,None,242.31535408002674,None,,,,,,,,,,,,,,209,2023-04-04_13h32.44.137,Main,2022.1.1,59.77447092270902,
negative,neutral,2,j,l,,,,,,,,,1,7,25,12,,,,,,,,,main,1,1,2,neutral,negative,l,l,1,0.7648849000106566,242.32102339999983,243.33192070003133,243.3174051999813,None,242.32102339999983,None,242.32102339999983,None,242.32102339999983,None,244.08195518000866,None,244.08195518000866,None,244.08195518000866,None,,,,,,,,,,,,,,209,2023-04-04_13h32.44.137,Main,2022.1.1,59.77447092270902,
positive,positive,2,l,j,,,,,,,,,1,8,26,11,,,,,,,,,main,1,1,2,positive,positive,j,j,1,0.765088599990122,244.08744099998148,245.09856399998534,245.08189470000798,None,244.08744099998148,None,244.08744099998148,None,244.08744099998148,None,245.84854548002477,None,245.84854548002477,None,245.84854548002477,None,,,,,,,,,,,,,,209,2023-04-04_13h32.44.137,Main,2022.1.1,59.77447092270902,
positive,neutral,2,l,j,,,,,,,,,1,9,27,17,,,,,,,,,main,2,2,2,neutral,positive,j,j,1,0.6496325999614783,245.85465180000756,246.86730400001397,246.85065390000818,None,245.85465180000756,None,245.85465180000756,None,245.85465180000756,None,247.50067318000947,None,247.50067318000947,None,247.50067318000947,None,,,,,,,,,,,,,,209,2023-04-04_13h32.44.137,Main,2022.1.1,59.77447092270902,
neutral,neutral,1,k,k,,,,,,,,,1,10,28,1,,,,,,,,,main,2,2,1,neutral,neutral,k,k,1,0.5462970000226051,247.5039201999898,248.51727379998192,248.500666500011,None,247.5039201999898,None,247.5039201999898,None,247.5039201999898,None,249.0481317800295,None,249.0481317800295,None,249.0481317800295,None,,,,,,,,,,,,,,209,2023-04-04_13h32.44.137,Main,2022.1.1,59.77447092270902,
positive,negative,1,l,j,,,,,,,,,1,11,29,5,,,,,,,,,main,1,1,1,negative,positive,j,k,0,0.5647302000434138,249.04847330000484,250.04816830001073,250.04816830001073,None,249.04847330000484,None,249.04847330000484,None,249.04847330000484,None,250.61476810002932,None,250.61476810002932,None,250.61476810002932,None,,,,,,,,,,,,,,209,2023-04-04_13h32.44.137,Main,2022.1.1,59.77447092270902,
negative,negative,2,j,l,,,,,,,,,1,12,30,9,,,,,,,,,main,1,1,2,negative,negative,l,l,1,0.9561838999507017,251.61485399998492,252.61731290002353,252.60070670000277,None,251.61485399998492,None,251.61485399998492,None,251.61485399998492,None,253.56722227999126,None,253.56722227999126,None,253.56722227999126,None,,,,,,,,,,,,,,209,2023-04-04_13h32.44.137,Main,2022.1.1,59.77447092270902,
neutral,negative,1,k,k,,,,,,,,,1,13,31,7,,,,,,,,,main,1,1,1,negative,neutral,k,k,1,0.780672200024128,253.57198400003836,254.5839549000375,254.5672698999988,None,253.57198400003836,None,253.57198400003836,None,253.57198400003836,None,255.34851958000218,None,255.34851958000218,None,255.34851958000218,None,,,,,,,,,,,,,,209,2023-04-04_13h32.44.137,Main,2022.1.1,59.77447092270902,
negative,positive,2,j,l,,,,,,,,,1,14,32,15,,,,,,,,,main,1,1,2,positive,negative,l,,0,0.951496500056237,255.35328099998878,256.367114600027,256.34837050002534,None,255.35328099998878,None,255.35328099998878,None,255.35328099998878,None,257.3019918000209,None,257.3019918000209,None,257.3019918000209,None,,,,,,,,,,,,,,209,2023-04-04_13h32.44.137,Main,2022.1.1,59.77447092270902,
negative,neutral,1,j,l,,,,,,,,,1,15,33,3,,,,,,,,,main,1,1,1,neutral,negative,l,l,1,0.7010669999872334,258.3157787999953,259.3312273999909,259.2979046999826,None,258.3157787999953,None,258.3157787999953,None,258.3157787999953,None,260.01456638003583,None,260.01456638003583,None,260.01456638003583,None,,,,,,,,,,,,,,209,2023-04-04_13h32.44.137,Main,2022.1.1,59.77447092270902,
negative,positive,1,j,l,,,,,,,,,1,16,34,6,,,,,,,,,main,1,1,1,positive,negative,l,l,1,0.5982005000114441,260.0162985000061,261.0313312000362,261.0146606999915,None,260.0162985000061,None,260.0162985000061,None,260.0162985000061,None,261.6146332799981,None,261.6146332799981,None,261.6146332799981,None,,,,,,,,,,,,,,209,2023-04-04_13h32.44.137,Main,2022.1.1,59.77447092270902,
positive,positive,1,l,j,,,,,,,,,1,17,35,2,,,,,,,,,main,2,2,1,positive,positive,j,j,1,0.8487088999827392,261.6205408999813,262.6337633000221,262.6170912000234,None,261.6205408999813,None,261.6205408999813,None,261.6205408999813,None,263.4648853800318,None,263.4648853800318,None,263.4648853800318,None,,,,,,,,,,,,,,209,2023-04-04_13h32.44.137,Main,2022.1.1,59.77447092270902,
positive,neutral,2,l,j,,,,,,,,,2,0,36,17,,,,,,,,,main,2,2,2,neutral,positive,j,j,1,0.6673607000266202,263.4711921000271,264.4837129000225,264.46714550000615,None,263.4711921000271,None,263.4711921000271,None,263.4711921000271,None,265.13376338002854,None,265.13376338002854,None,265.13376338002854,None,,,,,,,,,,,,,,209,2023-04-04_13h32.44.137,Main,2022.1.1,59.77447092270902,
negative,positive,1,j,l,,,,,,,,,2,1,37,6,,,,,,,,,main,2,2,1,positive,negative,l,l,1,1.2151336999959312,265.1383198000258,266.1502873999998,266.1336635000189,None,265.1383198000258,None,265.1383198000258,None,265.1383198000258,None,267.350286580011,None,267.350286580011,None,267.350286580011,None,,,,,,,,,,,,,,209,2023-04-04_13h32.44.137,Main,2022.1.1,59.77447092270902,
positive,neutral,1,l,j,,,,,,,,,2,2,38,8,,,,,,,,,main,1,1,1,neutral,positive,j,j,1,0.8108087999862619,267.35379100003047,268.36693200003356,268.3501838000375,None,267.35379100003047,None,267.35379100003047,None,267.35379100003047,None,269.1629304800008,None,269.1629304800008,None,269.1629304800008,None,,,,,,,,,,,,,,209,2023-04-04_13h32.44.137,Main,2022.1.1,59.77447092270902,
neutral,negative,1,k,k,,,,,,,,,2,3,39,7,,,,,,,,,main,2,2,1,negative,neutral,k,k,1,0.4997655000188388,269.17877609998686,270.18105910002487,270.1643761000014,None,269.17877609998686,None,269.17877609998686,None,269.17877609998686,None,270.66434458000003,None,270.66434458000003,None,270.66434458000003,None,,,,,,,,,,,,,,209,2023-04-04_13h32.44.137,Main,2022.1.1,59.77447092270902,
negative,neutral,1,j,l,,,,,,,,,2,4,40,3,,,,,,,,,main,1,1,1,neutral,negative,l,l,1,0.6822692999849096,270.66558010003064,271.6810737000196,271.66440260002855,None,270.66558010003064,None,270.66558010003064,None,270.66558010003064,None,272.34806037999806,None,272.34806037999806,None,272.34806037999806,None,,,,,,,,,,,,,,209,2023-04-04_13h32.44.137,Main,2022.1.1,59.77447092270902,
neutral,positive,1,k,k,,,,,,,,,2,5,41,4,,,,,,,,,main,2,2,1,positive,neutral,k,k,1,0.6672188000520691,272.35406560002593,273.3667111999821,273.35019550001016,None,272.35406560002593,None,272.35406560002593,None,272.35406560002593,None,274.0167585800227,None,274.0167585800227,None,274.0167585800227,None,,,,,,,,,,,,,,209,2023-04-04_13h32.44.137,Main,2022.1.1,59.77447092270902,
positive,negative,1,l,j,,,,,,,,,2,6,42,5,,,,,,,,,main,2,2,1,negative,positive,j,j,1,0.6986562999663875,274.02076420001686,275.0335020000348,275.01681190001545,None,274.02076420001686,None,274.02076420001686,None,274.02076420001686,None,275.71703058001003,None,275.71703058001003,None,275.71703058001003,None,,,,,,,,,,,,,,209,2023-04-04_13h32.44.137,Main,2022.1.1,59.77447092270902,
negative,negative,2,j,l,,,,,,,,,2,7,43,9,,,,,,,,,main,2,2,2,negative,negative,l,l,1,0.7322285000118427,275.72168489999603,276.733444100013,276.71675720001804,None,275.72168489999603,None,275.72168489999603,None,275.72168489999603,None,277.450167980016,None,277.450167980016,None,277.450167980016,None,,,,,,,,,,,,,,209,2023-04-04_13h32.44.137,Main,2022.1.1,59.77447092270902,
positive,positive,2,l,j,,,,,,,,,2,8,44,11,,,,,,,,,main,1,1,2,positive,positive,j,j,1,0.8455488000181504,277.45401069999207,278.4666729000164,278.4500802999828,None,277.45401069999207,None,277.45401069999207,None,277.45401069999207,None,279.29788048003684,None,279.29788048003684,None,279.29788048003684,None,,,,,,,,,,,,,,209,2023-04-04_13h32.44.137,Main,2022.1.1,59.77447092270902,
neutral,negative,2,k,k,,,,,,,,,2,9,45,16,,,,,,,,,main,2,2,2,negative,neutral,k,k,1,0.5315228999825194,279.3042277999921,280.314097399998,280.29743730003247,None,279.3042277999921,None,279.3042277999921,None,279.3042277999921,None,280.8307944800181,None,280.8307944800181,None,280.8307944800181,None,,,,,,,,,,,,,,209,2023-04-04_13h32.44.137,Main,2022.1.1,59.77447092270902,
negative,negative,1,j,l,,,,,,,,,2,10,46,0,,,,,,,,,main,1,1,1,negative,negative,l,l,1,0.6318545999820344,280.8308822999825,281.8308181000175,281.8308181000175,None,280.8308822999825,None,280.8308822999825,None,280.8308822999825,None,282.4641779800004,None,282.4641779800004,None,282.4641779800004,None,,,,,,,,,,,,,,209,2023-04-04_13h32.44.137,Main,2022.1.1,59.77447092270902,
positive,negative,2,l,j,,,,,,,,,2,11,47,14,,,,,,,,,main,1,1,2,negative,positive,j,j,1,0.6819146000198089,282.4677776999888,283.4833008000278,283.4666127000237,None,282.4677776999888,None,282.4677776999888,None,282.4677776999888,None,284.1478159799881,None,284.1478159799881,None,284.1478159799881,None,,,,,,,,,,,,,,209,2023-04-04_13h32.44.137,Main,2022.1.1,59.77447092270902,
positive,positive,1,l,j,,,,,,,,,2,12,48,2,,,,,,,,,main,2,2,1,positive,positive,j,j,1,0.6823168999981135,284.1539038000046,285.1665636000107,285.14999780000653,None,284.1539038000046,None,284.1539038000046,None,284.1539038000046,None,285.83191537999664,None,285.83191537999664,None,285.83191537999664,None,,,,,,,,,,,,,,209,2023-04-04_13h32.44.137,Main,2022.1.1,59.77447092270902,
neutral,positive,2,k,k,,,,,,,,,2,13,49,13,,,,,,,,,main,1,1,2,positive,neutral,k,k,1,0.6641520999837667,285.83774220000487,286.84983230003854,286.83322199998656,None,285.83774220000487,None,285.83774220000487,None,285.83774220000487,None,287.4974002800009,None,287.4974002800009,None,287.4974002800009,None,,,,,,,,,,,,,,209,2023-04-04_13h32.44.137,Main,2022.1.1,59.77447092270902,
negative,positive,2,j,l,,,,,,,,,2,14,50,15,,,,,,,,,main,1,1,2,positive,negative,l,l,1,0.6487399999750778,287.5039057999966,288.51643289998174,288.49986999999965,None,287.5039057999966,None,287.5039057999966,None,287.5039057999966,None,289.1476893800136,None,289.1476893800136,None,289.1476893800136,None,,,,,,,,,,,,,,209,2023-04-04_13h32.44.137,Main,2022.1.1,59.77447092270902,
neutral,neutral,1,k,k,,,,,,,,,2,15,51,1,,,,,,,,,main,1,1,1,neutral,neutral,k,k,1,0.7974465999868698,289.15360469999723,290.16429650003556,290.1498656999902,None,289.15360469999723,None,289.15360469999723,None,289.15360469999723,None,290.9472385800036,None,290.9472385800036,None,290.9472385800036,None,,,,,,,,,,,,,,209,2023-04-04_13h32.44.137,Main,2022.1.1,59.77447092270902,
negative,neutral,2,j,l,,,,,,,,,2,16,52,12,,,,,,,,,main,2,2,2,neutral,negative,l,,0,0.8013458999921568,290.9473715000204,291.94725830003154,291.94725830003154,None,290.9473715000204,None,290.9473715000204,None,290.9473715000204,None,292.74761520000175,None,292.74761520000175,None,292.74761520000175,None,,,,,,,,,,,,,,209,2023-04-04_13h32.44.137,Main,2022.1.1,59.77447092270902,
neutral,neutral,2,k,k,,,,,,,,,2,17,53,10,,,,,,,,,main,1,1,2,neutral,neutral,k,k,1,1.3513881000108086,293.74788009998156,294.7496916000382,294.7330945000285,None,293.74788009998156,None,293.74788009998156,None,293.74788009998156,None,296.0975526800321,None,296.0975526800321,None,296.0975526800321,None,,,,,,,,,,,,,,209,2023-04-04_13h32.44.137,Main,2022.1.1,59.77447092270902,
negative,positive,1,j,l,,,,,,,,,3,0,54,6,,,,,,,,,main,2,2,1,positive,negative,l,l,1,0.730900400027167,296.10294369998155,297.1141997000086,297.09973780001746,None,296.10294369998155,None,296.10294369998155,None,296.10294369998155,None,297.8306942800118,None,297.8306942800118,None,297.8306942800118,None,,,,,,,,,,,,,,209,2023-04-04_13h32.44.137,Main,2022.1.1,59.77447092270902,
neutral,negative,1,k,k,,,,,,,,,3,1,55,7,,,,,,,,,main,1,1,1,negative,neutral,k,k,1,0.6150422000209801,297.83763329999056,298.84956940001575,298.8330713000032,None,297.83763329999056,None,297.83763329999056,None,297.83763329999056,None,299.4474628800235,None,299.4474628800235,None,299.4474628800235,None,,,,,,,,,,,,,,209,2023-04-04_13h32.44.137,Main,2022.1.1,59.77447092270902,
neutral,negative,2,k,k,,,,,,,,,3,2,56,16,,,,,,,,,main,2,2,2,negative,neutral,k,k,1,0.6145803999970667,299.4510830999934,300.4662235000287,300.44962100003613,None,299.4510830999934,None,299.4510830999934,None,299.4510830999934,None,301.0637094800186,None,301.0637094800186,None,301.0637094800186,None,,,,,,,,,,,,,,209,2023-04-04_13h32.44.137,Main,2022.1.1,59.77447092270902,
neutral,positive,2,k,k,,,,,,,,,3,3,57,13,,,,,,,,,main,2,2,2,positive,neutral,k,k,1,0.6154156999546103,301.0661098000128,302.08036289998563,302.06373009999515,None,301.0661098000128,None,301.0661098000128,None,301.0661098000128,None,302.680357180041,None,302.680357180041,None,302.680357180041,None,,,,,,,,,,,,,,209,2023-04-04_13h32.44.137,Main,2022.1.1,59.77447092270902,
negative,neutral,1,j,l,,,,,,,,,3,4,58,3,,,,,,,,,main,1,1,1,neutral,negative,l,l,1,0.731776499946136,302.6812644000165,303.68039190000854,303.68039190000854,None,302.6812644000165,None,302.6812644000165,None,302.6812644000165,None,304.41368687999784,None,304.41368687999784,None,304.41368687999784,None,,,,,,,,,,,,,,209,2023-04-04_13h32.44.137,Main,2022.1.1,59.77447092270902,
positive,neutral,1,l,j,,,,,,,,,3,5,59,8,,,,,,,,,main,2,2,1,neutral,positive,j,j,1,0.7821364999981597,304.41728900000453,305.43280970002525,305.41620159999,None,304.41728900000453,None,304.41728900000453,None,304.41728900000453,None,306.197346180008,None,306.197346180008,None,306.197346180008,None,,,,,,,,,,,,,,209,2023-04-04_13h32.44.137,Main,2022.1.1,59.77447092270902,
negative,negative,1,j,l,,,,,,,,,3,6,60,0,,,,,,,,,main,1,1,1,negative,negative,l,l,1,0.8349124999949709,306.203327300027,307.216096499993,307.19947059999686,None,306.203327300027,None,306.203327300027,None,306.203327300027,None,308.0327039800177,None,308.0327039800177,None,308.0327039800177,None,,,,,,,,,,,,,,209,2023-04-04_13h32.44.137,Main,2022.1.1,59.77447092270902,
positive,negative,1,l,j,,,,,,,,,3,7,61,5,,,,,,,,,main,1,1,1,negative,positive,j,j,1,0.9961411000113003,308.0370743999956,309.0494297000114,309.03275750001194,None,308.0370743999956,None,308.0370743999956,None,308.0370743999956,None,310.03027078000014,None,310.03027078000014,None,310.03027078000014,None,,,,,,,,,,,,,,209,2023-04-04_13h32.44.137,Main,2022.1.1,59.77447092270902,
neutral,neutral,1,k,k,,,,,,,,,3,8,62,1,,,,,,,,,main,2,2,1,neutral,neutral,k,k,1,0.6822429000167176,310.0396178000374,311.04940369998803,311.0327534999815,None,310.0396178000374,None,310.0396178000374,None,310.0396178000374,None,311.7153331800073,None,311.7153331800073,None,311.7153331800073,None,,,,,,,,,,,,,,209,2023-04-04_13h32.44.137,Main,2022.1.1,59.77447092270902,
negative,negative,2,j,l,,,,,,,,,3,9,63,9,,,,,,,,,main,2,2,2,negative,negative,l,l,1,0.729854199977126,311.72057340003084,312.73014390002936,312.7134917000076,None,311.72057340003084,None,311.72057340003084,None,311.72057340003084,None,313.4467839800345,None,313.4467839800345,None,313.4467839800345,None,,,,,,,,,,,,,,209,2023-04-04_13h32.44.137,Main,2022.1.1,59.77447092270902,
neutral,positive,1,k,k,,,,,,,,,3,10,64,4,,,,,,,,,main,2,2,1,positive,neutral,k,k,1,0.7488067999947816,313.4486879000324,314.4634771000128,314.44681140000466,None,313.4486879000324,None,313.4486879000324,None,313.4486879000324,None,315.1971281800361,None,315.1971281800361,None,315.1971281800361,None,,,,,,,,,,,,,,209,2023-04-04_13h32.44.137,Main,2022.1.1,59.77447092270902,
positive,neutral,2,l,j,,,,,,,,,3,11,65,17,,,,,,,,,main,2,2,2,neutral,positive,j,j,1,1.3138267999747768,315.2035711000208,316.2158583999844,316.1992747000186,None,315.2035711000208,None,315.2035711000208,None,315.2035711000208,None,317.5135133799922,None,317.5135133799922,None,317.5135133799922,None,,,,,,,,,,,,,,209,2023-04-04_13h32.44.137,Main,2022.1.1,59.77447092270902,
negative,neutral,2,j,l,,,,,,,,,3,12,66,12,,,,,,,,,main,1,1,2,neutral,negative,l,l,1,0.815263899974525,317.5170187000185,318.5325677000219,318.5159539000015,None,317.5170187000185,None,317.5170187000185,None,317.5170187000185,None,319.33032497999375,None,319.33032497999375,None,319.33032497999375,None,,,,,,,,,,,,,,209,2023-04-04_13h32.44.137,Main,2022.1.1,59.77447092270902,
positive,negative,2,l,j,,,,,,,,,3,13,67,14,,,,,,,,,main,2,2,2,negative,positive,j,j,1,0.6647689999663271,319.33409910002956,320.3469937000191,320.33259700000053,None,319.33409910002956,None,319.33409910002956,None,319.33409910002956,None,320.99701767999795,None,320.99701767999795,None,320.99701767999795,None,,,,,,,,,,,,,,209,2023-04-04_13h32.44.137,Main,2022.1.1,59.77447092270902,
positive,positive,1,l,j,,,,,,,,,3,14,68,2,,,,,,,,,main,2,2,1,positive,positive,j,j,1,0.7982467000256293,321.0004998000222,322.01572760002455,321.9991625000257,None,321.0004998000222,None,321.0004998000222,None,321.0004998000222,None,322.7965281800425,None,322.7965281800425,None,322.7965281800425,None,,,,,,,,,,,,,,209,2023-04-04_13h32.44.137,Main,2022.1.1,59.77447092270902,
neutral,neutral,2,k,k,,,,,,,,,3,15,69,10,,,,,,,,,main,2,2,2,neutral,neutral,k,k,1,0.681981600006111,322.796565000026,323.79657950002,323.79657950002,None,322.796565000026,None,322.796565000026,None,322.796565000026,None,324.47995188002824,None,324.47995188002824,None,324.47995188002824,None,,,,,,,,,,,,,,209,2023-04-04_13h32.44.137,Main,2022.1.1,59.77447092270902,
negative,positive,2,j,l,,,,,,,,,3,16,70,15,,,,,,,,,main,2,2,2,positive,negative,l,l,1,0.7654772999812849,324.4858788999845,325.499014800007,325.48244039999554,None,324.4858788999845,None,324.4858788999845,None,324.4858788999845,None,326.2468951799965,None,326.2468951799965,None,326.2468951799965,None,,,,,,,,,,,,,,209,2023-04-04_13h32.44.137,Main,2022.1.1,59.77447092270902,
positive,positive,2,l,j,,,,,,,,,3,17,71,11,,,,,,,,,main,2,2,2,positive,positive,j,j,1,0.7483514999621548,326.25299820001237,327.26563859998714,327.24915669998154,None,326.25299820001237,None,326.25299820001237,None,326.25299820001237,None,327.9968775800371,None,327.9968775800371,None,327.9968775800371,None,,,,,,,,,,,,,,209,2023-04-04_13h32.44.137,Main,2022.1.1,59.77447092270902,
positive,neutral,2,l,j,,,,,,,,,4,0,72,17,,,,,,,,,main,2,2,2,neutral,positive,j,j,1,0.6983487000106834,328.00297239999054,329.0156863000011,328.99895700003253,None,328.00297239999054,None,328.00297239999054,None,328.00297239999054,None,329.6967979800247,None,329.6967979800247,None,329.6967979800247,None,,,,,,,,,,,,,,209,2023-04-04_13h32.44.137,Main,2022.1.1,59.77447092270902,
negative,negative,2,j,l,,,,,,,,,4,1,73,9,,,,,,,,,main,2,2,2,negative,negative,l,l,1,0.7317726000328548,329.70290060003754,330.7155380999902,330.69890379998833,None,329.70290060003754,None,329.70290060003754,None,329.70290060003754,None,331.4300757799938,None,331.4300757799938,None,331.4300757799938,None,,,,,,,,,,,,,,209,2023-04-04_13h32.44.137,Main,2022.1.1,59.77447092270902,
neutral,negative,2,k,k,,,,,,,,,4,2,74,16,,,,,,,,,main,1,1,2,negative,neutral,k,k,1,0.7479598000063561,331.43571799999336,332.44893740001135,332.4323003999889,None,331.43571799999336,None,331.43571799999336,None,331.43571799999336,None,333.17964248001226,None,333.17964248001226,None,333.17964248001226,None,,,,,,,,,,,,,,209,2023-04-04_13h32.44.137,Main,2022.1.1,59.77447092270902,
neutral,neutral,2,k,k,,,,,,,,,4,3,75,10,,,,,,,,,main,2,2,2,neutral,neutral,k,k,1,0.6320048999623396,333.179660600028,334.17965350003215,334.17965350003215,None,333.179660600028,None,333.179660600028,None,333.179660600028,None,334.8130348800041,None,334.8130348800041,None,334.8130348800041,None,,,,,,,,,,,,,,209,2023-04-04_13h32.44.137,Main,2022.1.1,59.77447092270902,
positive,negative,2,l,j,,,,,,,,,4,4,76,14,,,,,,,,,main,2,2,2,negative,positive,j,j,1,0.7184067000052892,334.8169059000211,335.8322181000258,335.8155088000349,None,334.8169059000211,None,334.8169059000211,None,334.8169059000211,None,336.5321474800294,None,336.5321474800294,None,336.5321474800294,None,,,,,,,,,,,,,,209,2023-04-04_13h32.44.137,Main,2022.1.1,59.77447092270902,
negative,negative,1,j,l,,,,,,,,,4,5,77,0,,,,,,,,,main,2,2,1,negative,negative,l,l,1,0.6949165999540128,336.53654260002077,337.5487510000239,337.5322306000162,None,336.53654260002077,None,336.53654260002077,None,336.53654260002077,None,338.2296306800272,None,338.2296306800272,None,338.2296306800272,None,,,,,,,,,,,,,,209,2023-04-04_13h32.44.137,Main,2022.1.1,59.77447092270902,
positive,negative,1,l,j,,,,,,,,,4,6,78,5,,,,,,,,,main,1,1,1,negative,positive,j,j,1,0.7685874999733642,338.237026399991,339.24877320003,339.23214149998967,None,338.237026399991,None,338.237026399991,None,338.237026399991,None,339.99874628000543,None,339.99874628000543,None,339.99874628000543,None,,,,,,,,,,,,,,209,2023-04-04_13h32.44.137,Main,2022.1.1,59.77447092270902,
neutral,positive,1,k,k,,,,,,,,,4,7,79,4,,,,,,,,,main,2,2,1,positive,neutral,k,k,1,0.6951285000541247,340.0039642000338,341.0132161999936,340.99872560001677,None,340.0039642000338,None,340.0039642000338,None,340.0039642000338,None,341.696569080028,None,341.696569080028,None,341.696569080028,None,,,,,,,,,,,,,,209,2023-04-04_13h32.44.137,Main,2022.1.1,59.77447092270902,
positive,positive,2,l,j,,,,,,,,,4,8,80,11,,,,,,,,,main,1,1,2,positive,positive,j,j,1,0.7656858999980614,341.70107220002683,342.71532379998825,342.69650690001436,None,341.70107220002683,None,341.70107220002683,None,341.70107220002683,None,343.4627344800101,None,343.4627344800101,None,343.4627344800101,None,,,,,,,,,,,,,,209,2023-04-04_13h32.44.137,Main,2022.1.1,59.77447092270902,
negative,neutral,2,j,l,,,,,,,,,4,9,81,12,,,,,,,,,main,1,1,2,neutral,negative,l,l,1,0.7973653000080958,343.46445919998223,344.4794423999847,344.46280510001816,None,343.46445919998223,None,343.46445919998223,None,343.46445919998223,None,345.26280177998706,None,345.26280177998706,None,345.26280177998706,None,,,,,,,,,,,,,,209,2023-04-04_13h32.44.137,Main,2022.1.1,59.77447092270902,
positive,positive,1,l,j,,,,,,,,,4,10,82,2,,,,,,,,,main,2,2,1,positive,positive,j,j,1,0.734452800010331,345.26306430000113,346.26280010002665,346.26280010002665,None,345.26306430000113,None,345.26306430000113,None,345.26306430000113,None,346.99859097998706,None,346.99859097998706,None,346.99859097998706,None,,,,,,,,,,,,,,209,2023-04-04_13h32.44.137,Main,2022.1.1,59.77447092270902,
neutral,negative,1,k,k,,,,,,,,,4,11,83,7,,,,,,,,,main,2,2,1,negative,neutral,k,k,1,0.5482579999952577,347.0019588000141,348.0152099999832,347.9986248000059,None,347.0019588000141,None,347.0019588000141,None,347.0019588000141,None,348.5485227800382,None,348.5485227800382,None,348.5485227800382,None,,,,,,,,,,,,,,209,2023-04-04_13h32.44.137,Main,2022.1.1,59.77447092270902,
negative,positive,1,j,l,,,,,,,,,4,12,84,6,,,,,,,,,main,2,2,1,positive,negative,l,l,1,0.8631354999961331,348.55260980001185,349.56516240001656,349.54858890001196,None,348.55260980001185,None,348.55260980001185,None,348.55260980001185,None,350.41305688003195,None,350.41305688003195,None,350.41305688003195,None,,,,,,,,,,,,,,209,2023-04-04_13h32.44.137,Main,2022.1.1,59.77447092270902,
neutral,positive,2,k,k,,,,,,,,,4,13,85,13,,,,,,,,,main,1,1,2,positive,neutral,k,k,1,0.6840111999772489,350.4196411999874,351.4318544000271,351.41510530002415,None,350.4196411999874,None,350.4196411999874,None,350.4196411999874,None,352.09866898003384,None,352.09866898003384,None,352.09866898003384,None,,,,,,,,,,,,,,209,2023-04-04_13h32.44.137,Main,2022.1.1,59.77447092270902,
neutral,neutral,1,k,k,,,,,,,,,4,14,86,1,,,,,,,,,main,2,2,1,neutral,neutral,k,k,1,0.628620499977842,352.10317220003344,353.1150825000368,353.0985123999999,None,352.10317220003344,None,352.10317220003344,None,352.10317220003344,None,353.7296813800058,None,353.7296813800058,None,353.7296813800058,None,,,,,,,,,,,,,,209,2023-04-04_13h32.44.137,Main,2022.1.1,59.77447092270902,
positive,neutral,1,l,j,,,,,,,,,4,15,87,8,,,,,,,,,main,1,1,1,neutral,positive,j,j,1,0.8145583999576047,353.7484615999856,354.76257010002155,354.7292325000162,None,353.7484615999856,None,353.7484615999856,None,353.7484615999856,None,355.54586958003347,None,355.54586958003347,None,355.54586958003347,None,,,,,,,,,,,,,,209,2023-04-04_13h32.44.137,Main,2022.1.1,59.77447092270902,
negative,positive,2,j,l,,,,,,,,,4,16,88,15,,,,,,,,,main,2,2,2,positive,negative,l,l,1,0.7511795999598689,355.54789089999394,356.5625701000099,356.54591859999346,None,355.54789089999394,None,355.54789089999394,None,355.54789089999394,None,357.2984833800292,None,357.2984833800292,None,357.2984833800292,None,,,,,,,,,,,,,,209,2023-04-04_13h32.44.137,Main,2022.1.1,59.77447092270902,
negative,neutral,1,j,l,,,,,,,,,4,17,89,3,,,,,,,,,main,2,2,1,neutral,negative,l,l,1,0.8638258000137284,357.30324370000744,358.3149066999904,358.2983446000144,None,357.30324370000744,None,357.30324370000744,None,357.30324370000744,None,359.1649687800382,None,359.1649687800382,None,359.1649687800382,None,,,,,,,,,,,,,,209,2023-04-04_13h32.44.137,Main,2022.1.1,59.77447092270902,
neutral,neutral,2,k,k,,,,,,,,,5,0,90,10,,,,,,,,,main,2,2,2,neutral,neutral,k,k,1,0.5295896999887191,359.1685064000194,360.18160220002756,360.1649877000018,None,359.1685064000194,None,359.1685064000194,None,359.1685064000194,None,360.69615127998986,None,360.69615127998986,None,360.69615127998986,None,,,,,,,,,,,,,,209,2023-04-04_13h32.44.137,Main,2022.1.1,59.77447092270902,
neutral,negative,1,k,k,,,,,,,,,5,1,91,7,,,,,,,,,main,1,1,1,negative,neutral,k,k,1,0.5818234999896958,360.69949440000346,361.7149586000014,361.6983137000352,None,360.69949440000346,None,360.69949440000346,None,360.69949440000346,None,362.2794126800436,None,362.2794126800436,None,362.2794126800436,None,,,,,,,,,,,,,,209,2023-04-04_13h32.44.137,Main,2022.1.1,59.77447092270902,
negative,positive,1,j,l,,,,,,,,,5,2,92,6,,,,,,,,,main,2,2,1,positive,negative,l,,0,0.8847958999685943,362.2832259000279,363.2982740000007,363.2815619999892,None,362.2832259000279,None,362.2832259000279,None,362.2832259000279,None,364.1627288000309,None,364.1627288000309,None,364.1627288000309,None,,,,,,,,,,,,,,209,2023-04-04_13h32.44.137,Main,2022.1.1,59.77447092270902,
negative,negative,1,j,l,,,,,,,,,5,3,93,0,,,,,,,,,main,1,1,1,negative,negative,l,k,0,-0.7951746000326239,365.1623357000062,None,None,None,365.1623357000062,None,365.1623357000062,None,365.1623357000062,None,365.36230680003064,None,365.36230680003064,None,365.36230680003064,None,,,,,,,,,,,,,,209,2023-04-04_13h32.44.137,Main,2022.1.1,59.77447092270902,
positive,positive,2,l,j,,,,,,,,,5,4,94,11,,,,,,,,,main,1,1,2,positive,positive,j,j,1,0.767854499979876,368.3634472999838,369.364798900031,369.3481491000275,None,368.3634472999838,None,368.3634472999838,None,368.3634472999838,None,370.1289395800268,None,370.1289395800268,None,370.1289395800268,None,,,,,,,,,,,,,,209,2023-04-04_13h32.44.137,Main,2022.1.1,59.77447092270902,
negative,positive,2,j,l,,,,,,,,,5,5,95,15,,,,,,,,,main,1,1,2,positive,negative,l,l,1,1.131446200015489,370.13281109998934,371.1480261000106,371.13142789999256,None,370.13281109998934,None,370.13281109998934,None,370.13281109998934,None,372.2624709800293,None,372.2624709800293,None,372.2624709800293,None,,,,,,,,,,,,,,209,2023-04-04_13h32.44.137,Main,2022.1.1,59.77447092270902,
negative,negative,2,j,l,,,,,,,,,5,6,96,9,,,,,,,,,main,1,1,2,negative,negative,l,l,1,0.6174935000017285,372.26914430002216,373.27920570003334,373.2647822999861,None,372.26914430002216,None,372.26914430002216,None,372.26914430002216,None,373.8812742799928,None,373.8812742799928,None,373.8812742799928,None,,,,,,,,,,,,,,209,2023-04-04_13h32.44.137,Main,2022.1.1,59.77447092270902,
negative,neutral,2,j,l,,,,,,,,,5,7,97,12,,,,,,,,,main,1,1,2,neutral,negative,l,l,1,0.6303267999901436,373.88444029999664,374.89497379999375,374.8777206999948,None,373.88444029999664,None,373.88444029999664,None,373.88444029999664,None,375.5120671800396,None,375.5120671800396,None,375.5120671800396,None,,,,,,,,,,,,,,209,2023-04-04_13h32.44.137,Main,2022.1.1,59.77447092270902,
neutral,neutral,1,k,k,,,,,,,,,5,8,98,1,,,,,,,,,main,2,2,1,neutral,neutral,k,k,1,0.5974556999863125,375.5138716000365,376.5287613000255,376.51209590001963,None,375.5138716000365,None,375.5138716000365,None,375.5138716000365,None,377.1121282800159,None,377.1121282800159,None,377.1121282800159,None,,,,,,,,,,,,,,209,2023-04-04_13h32.44.137,Main,2022.1.1,59.77447092270902,
positive,negative,1,l,j,,,,,,,,,5,9,99,5,,,,,,,,,main,2,2,1,negative,positive,j,j,1,0.6691116999718361,377.1181979000103,378.1312284999876,378.11455300002126,None,377.1181979000103,None,377.1181979000103,None,377.1181979000103,None,378.7829561800172,None,378.7829561800172,None,378.7829561800172,None,,,,,,,,,,,,,,209,2023-04-04_13h32.44.137,Main,2022.1.1,59.77447092270902,
neutral,negative,2,k,k,,,,,,,,,5,10,100,16,,,,,,,,,main,1,1,2,negative,neutral,k,k,1,0.6466728000086732,378.78637320001144,379.79834109998774,379.7812611000263,None,378.78637320001144,None,378.78637320001144,None,378.78637320001144,None,380.43116538002505,None,380.43116538002505,None,380.43116538002505,None,,,,,,,,,,,,,,209,2023-04-04_13h32.44.137,Main,2022.1.1,59.77447092270902,
positive,positive,1,l,j,,,,,,,,,5,11,101,2,,,,,,,,,main,1,1,1,positive,positive,j,j,1,0.6501208000117913,380.43554929998936,381.4456549999886,381.4311905000359,None,380.43554929998936,None,380.43554929998936,None,380.43554929998936,None,382.08110558000044,None,382.08110558000044,None,382.08110558000044,None,,,,,,,,,,,,,,209,2023-04-04_13h32.44.137,Main,2022.1.1,59.77447092270902,
positive,neutral,1,l,j,,,,,,,,,5,12,102,8,,,,,,,,,main,2,2,1,neutral,positive,j,j,1,1.2270072000101209,382.0869822999812,383.09777390002273,383.081141200033,None,382.0869822999812,None,382.0869822999812,None,382.0869822999812,None,384.3123047800327,None,384.3123047800327,None,384.3123047800327,None,,,,,,,,,,,,,,209,2023-04-04_13h32.44.137,Main,2022.1.1,59.77447092270902,
negative,neutral,1,j,l,,,,,,,,,5,13,103,3,,,,,,,,,main,2,2,1,neutral,negative,l,l,1,0.7816455999854952,384.3187370999949,385.3310125999851,385.31439220003085,None,384.3187370999949,None,384.3187370999949,None,384.3187370999949,None,386.0952313799935,None,386.0952313799935,None,386.0952313799935,None,,,,,,,,,,,,,,209,2023-04-04_13h32.44.137,Main,2022.1.1,59.77447092270902,
neutral,positive,1,k,k,,,,,,,,,5,14,104,4,,,,,,,,,main,2,2,1,positive,neutral,k,k,1,0.648471399967093,386.0951846999815,387.0951863999944,387.0951863999944,None,386.0951846999815,None,386.0951846999815,None,386.0951846999815,None,387.745205979998,None,387.745205979998,None,387.745205979998,None,,,,,,,,,,,,,,209,2023-04-04_13h32.44.137,Main,2022.1.1,59.77447092270902,
positive,neutral,2,l,j,,,,,,,,,5,15,105,17,,,,,,,,,main,1,1,2,neutral,positive,j,j,1,0.6486548000248149,387.75093520001974,388.7643260000041,388.74774870002875,None,387.75093520001974,None,387.75093520001974,None,387.75093520001974,None,389.3955437800323,None,389.3955437800323,None,389.3955437800323,None,,,,,,,,,,,,,,209,2023-04-04_13h32.44.137,Main,2022.1.1,59.77447092270902,
neutral,positive,2,k,k,,,,,,,,,5,16,106,13,,,,,,,,,main,1,1,2,positive,neutral,k,k,1,0.667682999977842,389.40144660003716,390.4142508000368,390.39766560000135,None,389.40144660003716,None,389.40144660003716,None,389.40144660003716,None,391.0646287800337,None,391.0646287800337,None,391.0646287800337,None,,,,,,,,,,,,,,209,2023-04-04_13h32.44.137,Main,2022.1.1,59.77447092270902,
positive,negative,2,l,j,,,,,,,,,5,17,107,14,,,,,,,,,main,1,1,2,negative,positive,j,j,1,0.7460060000303201,391.06958150002174,392.08090410003206,392.06430840003304,None,391.06958150002174,None,391.06958150002174,None,391.06958150002174,None,392.8120854799927,None,392.8120854799927,None,392.8120854799927,None,,,,,,,,,,,,,,209,2023-04-04_13h32.44.137,Main,2022.1.1,59.77447092270902,
neutral,negative,2,k,k,,,,,,,,,6,0,108,16,,,,,,,,,main,2,2,2,negative,neutral,k,k,1,0.7828936000005342,392.81684280000627,393.83085209998535,393.8142971000052,None,392.81684280000627,None,392.81684280000627,None,392.81684280000627,None,394.59753138004453,None,394.59753138004453,None,394.59753138004453,None,,,,,,,,,,,,,,209,2023-04-04_13h32.44.137,Main,2022.1.1,59.77447092270902,
positive,negative,2,l,j,,,,,,,,,6,1,109,14,,,,,,,,,main,1,1,2,negative,positive,j,l,0,0.5290355000179261,394.60072590003256,395.6141425999813,395.5975775999832,None,394.60072590003256,None,394.60072590003256,None,394.60072590003256,None,396.1283027000027,None,396.1283027000027,None,396.1283027000027,None,,,,,,,,,,,,,,209,2023-04-04_13h32.44.137,Main,2022.1.1,59.77447092270902,
negative,positive,1,j,l,,,,,,,,,6,2,110,6,,,,,,,,,main,2,2,1,positive,negative,l,l,1,0.7232657999848016,397.12831669999287,398.12832580000395,398.11166120000416,None,397.12831669999287,None,397.12831669999287,None,397.12831669999287,None,398.8476419800136,None,398.8476419800136,None,398.8476419800136,None,,,,,,,,,,,,,,209,2023-04-04_13h32.44.137,Main,2022.1.1,59.77447092270902,
negative,negative,1,j,l,,,,,,,,,6,3,111,0,,,,,,,,,main,2,2,1,negative,negative,l,l,1,0.5788974000024609,398.8515658000251,399.8640666999854,399.84747580002295,None,398.8515658000251,None,398.8515658000251,None,398.8515658000251,None,400.4286032800155,None,400.4286032800155,None,400.4286032800155,None,,,,,,,,,,,,,,209,2023-04-04_13h32.44.137,Main,2022.1.1,59.77447092270902,
positive,negative,1,l,j,,,,,,,,,6,4,112,5,,,,,,,,,main,2,2,1,negative,positive,j,j,1,0.6504501000163145,400.43527230003383,401.44523680000566,401.4308772000368,None,400.43527230003383,None,400.43527230003383,None,400.43527230003383,None,402.0806743800349,None,402.0806743800349,None,402.0806743800349,None,,,,,,,,,,,,,,209,2023-04-04_13h32.44.137,Main,2022.1.1,59.77447092270902,
neutral,positive,2,k,k,,,,,,,,,6,5,113,13,,,,,,,,,main,1,1,2,positive,neutral,k,k,1,0.6129629999632016,402.0839657000033,403.097411499999,403.0808152999962,None,402.0839657000033,None,402.0839657000033,None,402.0839657000033,None,403.6952093800355,None,403.6952093800355,None,403.6952093800355,None,,,,,,,,,,,,,,209,2023-04-04_13h32.44.137,Main,2022.1.1,59.77447092270902,
negative,neutral,2,j,l,,,,,,,,,6,6,114,12,,,,,,,,,main,2,2,2,neutral,negative,l,l,1,0.6483636000193655,403.7010550000123,404.7139739000122,404.69744920002995,None,403.7010550000123,None,403.7010550000123,None,403.7010550000123,None,405.34501598004135,None,405.34501598004135,None,405.34501598004135,None,,,,,,,,,,,,,,209,2023-04-04_13h32.44.137,Main,2022.1.1,59.77447092270902,
neutral,negative,1,k,k,,,,,,,,,6,7,115,7,,,,,,,,,main,2,2,1,negative,neutral,k,k,1,0.6314807000453584,405.3516530999914,406.3618487000349,406.3473102999851,None,405.3516530999914,None,405.3516530999914,None,405.3516530999914,None,406.97804868003004,None,406.97804868003004,None,406.97804868003004,None,,,,,,,,,,,,,,209,2023-04-04_13h32.44.137,Main,2022.1.1,59.77447092270902,
neutral,neutral,2,k,k,,,,,,,,,6,8,116,10,,,,,,,,,main,1,1,2,neutral,neutral,k,k,1,0.7317178000230342,406.9780663999845,407.97808080003597,407.97808080003597,None,406.9780663999845,None,406.9780663999845,None,406.9780663999845,None,408.7113798799983,None,408.7113798799983,None,408.7113798799983,None,,,,,,,,,,,,,,209,2023-04-04_13h32.44.137,Main,2022.1.1,59.77447092270902,
negative,positive,2,j,l,,,,,,,,,6,9,117,15,,,,,,,,,main,2,2,2,positive,negative,l,l,1,0.7823104999843054,408.7170597999939,409.73054359998787,409.7139715999947,None,408.7170597999939,None,408.7170597999939,None,408.7170597999939,None,410.49509067999315,None,410.49509067999315,None,410.49509067999315,None,,,,,,,,,,,,,,209,2023-04-04_13h32.44.137,Main,2022.1.1,59.77447092270902,
negative,negative,2,j,l,,,,,,,,,6,10,118,9,,,,,,,,,main,2,2,2,negative,negative,l,l,1,0.7482397999847308,410.50112020003144,411.5138289000024,411.4972203000216,None,410.50112020003144,None,410.50112020003144,None,410.50112020003144,None,412.24504978003097,None,412.24504978003097,None,412.24504978003097,None,,,,,,,,,,,,,,209,2023-04-04_13h32.44.137,Main,2022.1.1,59.77447092270902,
positive,neutral,1,l,j,,,,,,,,,6,11,119,8,,,,,,,,,main,1,1,1,neutral,positive,j,j,1,0.8150862999609672,412.25064149999525,413.26368859998183,413.24721669999417,None,412.25064149999525,None,412.25064149999525,None,412.25064149999525,None,414.061621580011,None,414.061621580011,None,414.061621580011,None,,,,,,,,,,,,,,209,2023-04-04_13h32.44.137,Main,2022.1.1,59.77447092270902,
neutral,positive,1,k,k,,,,,,,,,6,12,120,4,,,,,,,,,main,2,2,1,positive,neutral,k,k,1,0.7670050000306219,414.0676833000034,415.08043070003623,415.0638084000093,None,414.0676833000034,None,414.0676833000034,None,414.0676833000034,None,415.83019068001886,None,415.83019068001886,None,415.83019068001886,None,,,,,,,,,,,,,,209,2023-04-04_13h32.44.137,Main,2022.1.1,59.77447092270902,
positive,positive,2,l,j,,,,,,,,,6,13,121,11,,,,,,,,,main,2,2,2,positive,positive,j,j,1,2.4466812000027858,415.83497470000293,416.84454650001135,416.827877200034,None,415.83497470000293,None,415.83497470000293,None,415.83497470000293,None,419.2782540000044,None,419.2782540000044,None,419.2782540000044,None,,,,,,,,,,,,,,209,2023-04-04_13h32.44.137,Main,2022.1.1,59.77447092270902,
positive,positive,1,l,j,,,,,,,,,6,14,122,2,,,,,,,,,main,1,1,1,positive,positive,j,j,1,0.9036059000063688,420.2789582000114,421.2803615999874,421.2636749999947,None,420.2789582000114,None,420.2789582000114,None,420.2789582000114,None,422.18025598002714,None,422.18025598002714,None,422.18025598002714,None,,,,,,,,,,,,,,209,2023-04-04_13h32.44.137,Main,2022.1.1,59.77447092270902,
neutral,neutral,1,k,k,,,,,,,,,6,15,123,1,,,,,,,,,main,1,1,1,neutral,neutral,k,k,1,0.9153441000380553,422.1841215000022,423.1969068000326,423.1803703000187,None,422.1841215000022,None,422.1841215000022,None,422.1841215000022,None,424.0974776800431,None,424.0974776800431,None,424.0974776800431,None,,,,,,,,,,,,,,209,2023-04-04_13h32.44.137,Main,2022.1.1,59.77447092270902,
negative,neutral,1,j,l,,,,,,,,,6,16,124,3,,,,,,,,,main,1,1,1,neutral,negative,l,l,1,0.748031200026162,424.10174220002955,425.1134703999851,425.0969216999947,None,424.10174220002955,None,424.10174220002955,None,424.10174220002955,None,425.84692097999505,None,425.84692097999505,None,425.84692097999505,None,,,,,,,,,,,,,,209,2023-04-04_13h32.44.137,Main,2022.1.1,59.77447092270902,
positive,neutral,2,l,j,,,,,,,,,6,17,125,17,,,,,,,,,main,1,1,2,neutral,positive,j,j,1,0.8122616000473499,425.85077299998375,426.84425780002493,426.833973300003,None,425.85077299998375,None,425.85077299998375,None,425.85077299998375,None,427.66097337999963,None,427.66097337999963,None,427.66097337999963,None,,,,,,,,,,,,,,209,2023-04-04_13h32.44.137,Main,2022.1.1,59.77447092270902,
neutral,positive,2,k,k,,,,,,,,,7,0,126,13,,,,,,,,,main,2,2,2,positive,neutral,k,k,1,0.7160574999870732,427.66092450002907,428.6610145000159,428.6610145000159,None,427.66092450002907,None,427.66092450002907,None,427.66092450002907,None,429.37804807999055,None,429.37804807999055,None,429.37804807999055,None,,,,,,,,,,,,,,209,2023-04-04_13h32.44.137,Main,2022.1.1,59.77447092270902,
neutral,neutral,2,k,k,,,,,,,,,7,1,127,10,,,,,,,,,main,2,2,2,neutral,neutral,k,k,1,0.6310039000236429,429.38686299999245,430.3968492000131,430.3801940000267,None,429.38686299999245,None,429.38686299999245,None,429.38686299999245,None,431.0109628800128,None,431.0109628800128,None,431.0109628800128,None,,,,,,,,,,,,,,209,2023-04-04_13h32.44.137,Main,2022.1.1,59.77447092270902,
negative,neutral,2,j,l,,,,,,,,,7,2,128,12,,,,,,,,,main,2,2,2,neutral,negative,l,l,1,0.7186263999901712,431.01756429998204,432.03003389999503,432.0134781000088,None,431.01756429998204,None,431.01756429998204,None,431.01756429998204,None,432.73001398003544,None,432.73001398003544,None,432.73001398003544,None,,,,,,,,,,,,,,209,2023-04-04_13h32.44.137,Main,2022.1.1,59.77447092270902,
positive,positive,1,l,j,,,,,,,,,7,3,129,2,,,,,,,,,main,2,2,1,positive,positive,j,j,1,0.6805854999693111,432.7347740000114,433.74665610003285,433.7300249999971,None,432.7347740000114,None,432.7347740000114,None,432.7347740000114,None,434.4134636800445,None,434.4134636800445,None,434.4134636800445,None,,,,,,,,,,,,,,209,2023-04-04_13h32.44.137,Main,2022.1.1,59.77447092270902,
positive,neutral,2,l,j,,,,,,,,,7,4,130,17,,,,,,,,,main,1,1,2,neutral,positive,j,j,1,0.6971182000124827,434.4175480999984,435.4299592000316,435.41338500002166,None,434.4175480999984,None,434.4175480999984,None,434.4175480999984,None,436.11114348002593,None,436.11114348002593,None,436.11114348002593,None,,,,,,,,,,,,,,209,2023-04-04_13h32.44.137,Main,2022.1.1,59.77447092270902,
negative,positive,1,j,l,,,,,,,,,7,5,131,6,,,,,,,,,main,2,2,1,positive,negative,l,l,1,0.613876799994614,436.1157564999885,437.12739620002685,437.0940419000108,None,436.1157564999885,None,436.1157564999885,None,436.1157564999885,None,437.7273928800423,None,437.7273928800423,None,437.7273928800423,None,,,,,,,,,,,,,,209,2023-04-04_13h32.44.137,Main,2022.1.1,59.77447092270902,
neutral,positive,1,k,k,,,,,,,,,7,6,132,4,,,,,,,,,main,1,1,1,positive,neutral,k,k,1,0.7647793999640271,437.7276668000268,438.7273984000203,438.7273984000203,None,437.7276668000268,None,437.7276668000268,None,437.7276668000268,None,439.4941314800235,None,439.4941314800235,None,439.4941314800235,None,,,,,,,,,,,,,,209,2023-04-04_13h32.44.137,Main,2022.1.1,59.77447092270902,
positive,positive,2,l,j,,,,,,,,,7,7,133,11,,,,,,,,,main,1,1,2,positive,positive,j,j,1,0.7509718999499455,439.4973678000388,440.49662059999537,440.49662059999537,None,439.4973678000388,None,439.4973678000388,None,439.4973678000388,None,441.2465088800236,None,441.2465088800236,None,441.2465088800236,None,,,,,,,,,,,,,,209,2023-04-04_13h32.44.137,Main,2022.1.1,59.77447092270902,
positive,negative,1,l,j,,,,,,,,,7,8,134,5,,,,,,,,,main,1,1,1,negative,positive,j,j,1,0.7297650000546128,441.2506646999973,442.26327490003314,442.2466437999974,None,441.2506646999973,None,441.2506646999973,None,441.2506646999973,None,442.97771098001976,None,442.97771098001976,None,442.97771098001976,None,,,,,,,,,,,,,,209,2023-04-04_13h32.44.137,Main,2022.1.1,59.77447092270902,
positive,neutral,1,l,j,,,,,,,,,7,9,135,8,,,,,,,,,main,2,2,1,neutral,positive,j,j,1,0.6649273000075482,442.98433940001996,443.99645869998494,443.9798820000142,None,442.98433940001996,None,442.98433940001996,None,442.98433940001996,None,444.64433488002396,None,444.64433488002396,None,444.64433488002396,None,,,,,,,,,,,,,,209,2023-04-04_13h32.44.137,Main,2022.1.1,59.77447092270902,
positive,negative,2,l,j,,,,,,,,,7,10,136,14,,,,,,,,,main,2,2,2,negative,positive,j,j,1,0.6839754999964498,444.64775980002014,445.6631308000069,445.6464380000252,None,444.64775980002014,None,444.64775980002014,None,444.64775980002014,None,446.3298078800144,None,446.3298078800144,None,446.3298078800144,None,,,,,,,,,,,,,,209,2023-04-04_13h32.44.137,Main,2022.1.1,59.77447092270902,
negative,negative,2,j,l,,,,,,,,,7,11,137,9,,,,,,,,,main,1,1,2,negative,negative,l,l,1,0.512429800000973,446.3328755000257,447.34343840001384,447.3260583000374,None,446.3328755000257,None,446.3328755000257,None,446.3328755000257,None,447.84380698003224,None,447.84380698003224,None,447.84380698003224,None,,,,,,,,,,,,,,209,2023-04-04_13h32.44.137,Main,2022.1.1,59.77447092270902,
negative,positive,2,j,l,,,,,,,,,7,12,138,15,,,,,,,,,main,2,2,2,positive,negative,l,l,1,0.7988960999646224,447.8438244999852,448.8438568999991,448.8438568999991,None,447.8438244999852,None,447.8438244999852,None,447.8438244999852,None,449.6438785800419,None,449.6438785800419,None,449.6438785800419,None,,,,,,,,,,,,,,209,2023-04-04_13h32.44.137,Main,2022.1.1,59.77447092270902,
neutral,neutral,1,k,k,,,,,,,,,7,13,139,1,,,,,,,,,main,1,1,1,neutral,neutral,k,k,1,0.6174114999594167,449.6483001000015,450.6630488000228,450.6463715999853,None,449.6483001000015,None,449.6483001000015,None,449.6483001000015,None,451.26315318004345,None,451.26315318004345,None,451.26315318004345,None,,,,,,,,,,,,,,209,2023-04-04_13h32.44.137,Main,2022.1.1,59.77447092270902,
neutral,negative,2,k,k,,,,,,,,,7,14,140,16,,,,,,,,,main,1,1,2,negative,neutral,k,k,1,0.8484479000326246,451.26705229998333,452.279696099984,452.2630059000221,None,451.26705229998333,None,451.26705229998333,None,451.26705229998333,None,453.1130699800269,None,453.1130699800269,None,453.1130699800269,None,,,,,,,,,,,,,,209,2023-04-04_13h32.44.137,Main,2022.1.1,59.77447092270902,
neutral,negative,1,k,k,,,,,,,,,7,15,141,7,,,,,,,,,main,1,1,1,negative,neutral,k,k,1,0.7662045999895781,453.1175115000224,454.12964120000834,454.1130298000062,None,453.1175115000224,None,453.1175115000224,None,453.1175115000224,None,454.879528880032,None,454.879528880032,None,454.879528880032,None,,,,,,,,,,,,,,209,2023-04-04_13h32.44.137,Main,2022.1.1,59.77447092270902,
negative,negative,1,j,l,,,,,,,,,7,16,142,0,,,,,,,,,main,2,2,1,negative,negative,l,l,1,0.9794717999757268,454.884110199986,455.8961224000086,455.87959070003126,None,454.884110199986,None,454.884110199986,None,454.884110199986,None,456.8606876799895,None,456.8606876799895,None,456.8606876799895,None,,,,,,,,,,,,,,209,2023-04-04_13h32.44.137,Main,2022.1.1,59.77447092270902,
negative,neutral,1,j,l,,,,,,,,,7,17,143,3,,,,,,,,,main,1,1,1,neutral,negative,l,l,1,0.7136533000157215,456.8669762000209,457.8795095999958,457.8606797000393,None,456.8669762000209,None,456.8669762000209,None,456.8669762000209,None,458.5769569800177,None,458.5769569800177,None,458.5769569800177,None,,,,,,,,,,,,,,209,2023-04-04_13h32.44.137,Main,2022.1.1,59.77447092270902,
positive,neutral,2,l,j,,,,,,,,,8,0,144,17,,,,,,,,,main,2,2,2,neutral,positive,j,j,1,0.6984521000413224,458.59365980001166,459.593639800034,459.5769571000128,None,458.59365980001166,None,458.59365980001166,None,458.59365980001166,None,460.2769878800318,None,460.2769878800318,None,460.2769878800318,None,,,,,,,,,,,,,,209,2023-04-04_13h32.44.137,Main,2022.1.1,59.77447092270902,
positive,positive,1,l,j,,,,,,,,,8,1,145,2,,,,,,,,,main,1,1,1,positive,positive,j,j,1,0.715429799980484,460.2827522000298,461.2939609999885,461.2794663000386,None,460.2827522000298,None,460.2827522000298,None,460.2827522000298,None,461.99395468001603,None,461.99395468001603,None,461.99395468001603,None,,,,,,,,,,,,,,209,2023-04-04_13h32.44.137,Main,2022.1.1,59.77447092270902,
positive,negative,1,l,j,,,,,,,,,8,2,146,5,,,,,,,,,main,1,1,1,negative,positive,j,j,1,0.6982306000427343,461.999735600024,463.0105714999954,462.996117600007,None,461.999735600024,None,461.999735600024,None,461.999735600024,None,463.6936389800103,None,463.6936389800103,None,463.6936389800103,None,,,,,,,,,,,,,,209,2023-04-04_13h32.44.137,Main,2022.1.1,59.77447092270902,
negative,neutral,2,j,l,,,,,,,,,8,3,147,12,,,,,,,,,main,2,2,2,neutral,negative,l,l,1,0.6989858000306413,463.69994359998964,464.7127865999937,464.69610850000754,None,463.69994359998964,None,463.69994359998964,None,463.69994359998964,None,465.39389198002755,None,465.39389198002755,None,465.39389198002755,None,,,,,,,,,,,,,,209,2023-04-04_13h32.44.137,Main,2022.1.1,59.77447092270902,
negative,negative,1,j,l,,,,,,,,,8,4,148,0,,,,,,,,,main,1,1,1,negative,negative,l,l,1,0.7003786999848671,465.3978197000106,466.4126892000204,466.3960311000119,None,465.3978197000106,None,465.3978197000106,None,465.3978197000106,None,467.0960546800343,None,467.0960546800343,None,467.0960546800343,None,,,,,,,,,,,,,,209,2023-04-04_13h32.44.137,Main,2022.1.1,59.77447092270902,
negative,neutral,1,j,l,,,,,,,,,8,5,149,3,,,,,,,,,main,2,2,1,neutral,negative,l,l,1,0.6792252999730408,467.0996627000277,468.1125938000041,468.09607169998344,None,467.0996627000277,None,467.0996627000277,None,467.0996627000277,None,468.7767457799928,None,468.7767457799928,None,468.7767457799928,None,,,,,,,,,,,,,,209,2023-04-04_13h32.44.137,Main,2022.1.1,59.77447092270902,
positive,positive,2,l,j,,,,,,,,,8,6,150,11,,,,,,,,,main,1,1,2,positive,positive,j,j,1,0.7817275000270456,468.77704820001964,469.7767293000361,469.7767293000361,None,468.77704820001964,None,468.77704820001964,None,468.77704820001964,None,470.56008408000343,None,470.56008408000343,None,470.56008408000343,None,,,,,,,,,,,,,,209,2023-04-04_13h32.44.137,Main,2022.1.1,59.77447092270902,
negative,positive,2,j,l,,,,,,,,,8,7,151,15,,,,,,,,,main,1,1,2,positive,negative,l,l,1,0.7010962999775074,470.56358260003617,471.57913700002246,471.5625424000318,None,470.56358260003617,None,470.56358260003617,None,470.56358260003617,None,472.26260078002815,None,472.26260078002815,None,472.26260078002815,None,,,,,,,,,,,,,,209,2023-04-04_13h32.44.137,Main,2022.1.1,59.77447092270902,
neutral,neutral,2,k,k,,,,,,,,,8,8,152,10,,,,,,,,,main,2,2,2,neutral,neutral,k,k,1,0.8650612999917939,472.2664853000315,473.2791826000321,473.26251860003686,None,472.2664853000315,None,472.2664853000315,None,472.2664853000315,None,474.12907237999025,None,474.12907237999025,None,474.12907237999025,None,,,,,,,,,,,,,,209,2023-04-04_13h32.44.137,Main,2022.1.1,59.77447092270902,
positive,negative,2,l,j,,,,,,,,,8,9,153,14,,,,,,,,,main,2,2,2,negative,positive,j,j,1,0.6480300999828614,474.1382207000279,475.14579969999613,475.12925440003164,None,474.1382207000279,None,474.1382207000279,None,474.1382207000279,None,475.7791218800412,None,475.7791218800412,None,475.7791218800412,None,,,,,,,,,,,,,,209,2023-04-04_13h32.44.137,Main,2022.1.1,59.77447092270902,
negative,positive,1,j,l,,,,,,,,,8,10,154,6,,,,,,,,,main,2,2,1,positive,negative,l,l,1,0.6319805000093766,475.78293829999166,476.7958147000172,476.77915190003114,None,475.78293829999166,None,475.78293829999166,None,475.78293829999166,None,477.4124696800427,None,477.4124696800427,None,477.4124696800427,None,,,,,,,,,,,,,,209,2023-04-04_13h32.44.137,Main,2022.1.1,59.77447092270902,
negative,negative,2,j,l,,,,,,,,,8,11,155,9,,,,,,,,,main,1,1,2,negative,negative,l,l,1,0.929045099997893,477.4155639000237,478.42911720002303,478.41250720003154,None,477.4155639000237,None,477.4155639000237,None,477.4155639000237,None,479.3431605799997,None,479.3431605799997,None,479.3431605799997,None,,,,,,,,,,,,,,209,2023-04-04_13h32.44.137,Main,2022.1.1,59.77447092270902,
neutral,negative,2,k,k,,,,,,,,,8,12,156,16,,,,,,,,,main,2,2,2,negative,neutral,k,k,1,0.798578699992504,479.34434599999804,480.35985920001986,480.34318429999985,None,479.34434599999804,None,479.34434599999804,None,479.34434599999804,None,481.14317888001096,None,481.14317888001096,None,481.14317888001096,None,,,,,,,,,,,,,,209,2023-04-04_13h32.44.137,Main,2022.1.1,59.77447092270902,
neutral,neutral,1,k,k,,,,,,,,,8,13,157,1,,,,,,,,,main,2,2,1,neutral,neutral,k,k,1,0.6998526999959722,481.14426929998444,482.15985890000593,482.1431714000064,None,481.14426929998444,None,481.14426929998444,None,481.14426929998444,None,482.84360408000066,None,482.84360408000066,None,482.84360408000066,None,,,,,,,,,,,,,,209,2023-04-04_13h32.44.137,Main,2022.1.1,59.77447092270902,
neutral,positive,1,k,k,,,,,,,,,8,14,158,4,,,,,,,,,main,1,1,1,positive,neutral,k,k,1,0.5825447000097483,482.84809980000136,483.86234580003656,483.8456428000354,None,482.84809980000136,None,482.84809980000136,None,482.84809980000136,None,484.42887637999956,None,484.42887637999956,None,484.42887637999956,None,,,,,,,,,,,,,,209,2023-04-04_13h32.44.137,Main,2022.1.1,59.77447092270902,
neutral,positive,2,k,k,,,,,,,,,8,15,159,13,,,,,,,,,main,2,2,2,positive,neutral,k,k,1,0.6161483000032604,484.4323704999988,485.4434264000156,485.42902270000195,None,484.4323704999988,None,484.4323704999988,None,484.4323704999988,None,486.0455437799974,None,486.0455437799974,None,486.0455437799974,None,,,,,,,,,,,,,,209,2023-04-04_13h32.44.137,Main,2022.1.1,59.77447092270902,
neutral,negative,1,k,k,,,,,,,,,8,16,160,7,,,,,,,,,main,2,2,1,negative,neutral,k,k,1,0.6807662000064738,486.0499834000366,487.0622609999846,487.0456264000386,None,486.0499834000366,None,486.0499834000366,None,486.0499834000366,None,487.728827480023,None,487.728827480023,None,487.728827480023,None,,,,,,,,,,,,,,209,2023-04-04_13h32.44.137,Main,2022.1.1,59.77447092270902,
positive,neutral,1,l,j,,,,,,,,,8,17,161,8,,,,,,,,,main,1,1,1,neutral,positive,j,j,1,1.8956479000044055,487.7333185999887,488.74559090001276,488.7288797000074,None,487.7333185999887,None,487.7333185999887,None,487.7333185999887,None,490.62626630003797,None,490.62626630003797,None,490.62626630003797,None,,,,,,,,,,,,,,209,2023-04-04_13h32.44.137,Main,2022.1.1,59.77447092270902,
positive,neutral,1,l,j,,,,,,,,,9,0,162,8,,,,,,,,,main,1,1,1,neutral,positive,j,j,1,0.7870388000155799,491.6263284999877,492.6287661999813,492.6121529000229,None,491.6263284999877,None,491.6263284999877,None,491.6263284999877,None,493.4096039799915,None,493.4096039799915,None,493.4096039799915,None,,,,,,,,,,,,,,209,2023-04-04_13h32.44.137,Main,2022.1.1,59.77447092270902,
neutral,negative,1,k,k,,,,,,,,,9,1,163,7,,,,,,,,,main,1,1,1,negative,neutral,k,k,1,0.6982850999920629,493.4136574000004,494.42866520001553,494.41210479999427,None,493.4136574000004,None,493.4136574000004,None,493.4136574000004,None,495.1098666800244,None,495.1098666800244,None,495.1098666800244,None,,,,,,,,,,,,,,209,2023-04-04_13h32.44.137,Main,2022.1.1,59.77447092270902,
negative,neutral,2,j,l,,,,,,,,,9,2,164,12,,,,,,,,,main,2,2,2,neutral,negative,l,l,1,0.9484989999909885,495.11373230000027,496.12864040001296,496.1121123000048,None,495.11373230000027,None,495.11373230000027,None,495.11373230000027,None,497.0598650800239,None,497.0598650800239,None,497.0598650800239,None,,,,,,,,,,,,,,209,2023-04-04_13h32.44.137,Main,2022.1.1,59.77447092270902,
positive,negative,1,l,j,,,,,,,,,9,3,165,5,,,,,,,,,main,1,1,1,negative,positive,j,j,1,0.6816654999856837,497.06573860003846,498.07868480001343,498.06207350001205,None,497.06573860003846,None,497.06573860003846,None,497.06573860003846,None,498.7431135800143,None,498.7431135800143,None,498.7431135800143,None,,,,,,,,,,,,,,209,2023-04-04_13h32.44.137,Main,2022.1.1,59.77447092270902,
neutral,neutral,2,k,k,,,,,,,,,9,4,166,10,,,,,,,,,main,2,2,2,neutral,neutral,k,k,1,0.5809739000396803,498.7488885000348,499.7617944999947,499.74525610002456,None,498.7488885000348,None,498.7488885000348,None,498.7488885000348,None,500.3256392799958,None,500.3256392799958,None,500.3256392799958,None,,,,,,,,,,,,,,209,2023-04-04_13h32.44.137,Main,2022.1.1,59.77447092270902,
positive,positive,1,l,j,,,,,,,,,9,5,167,2,,,,,,,,,main,1,1,1,positive,positive,j,j,1,0.9488592999987304,500.3413765000296,501.34266080003,501.32599059998756,None,500.3413765000296,None,500.3413765000296,None,500.3413765000296,None,502.27602088000276,None,502.27602088000276,None,502.27602088000276,None,,,,,,,,,,,,,,209,2023-04-04_13h32.44.137,Main,2022.1.1,59.77447092270902,
positive,neutral,2,l,j,,,,,,,,,9,6,168,17,,,,,,,,,main,1,1,2,neutral,positive,j,j,1,1.4214448999846354,502.2794938000152,503.2786409999826,503.2786409999826,None,502.2794938000152,None,502.2794938000152,None,502.2794938000152,None,504.6953064800182,None,504.6953064800182,None,504.6953064800182,None,,,,,,,,,,,,,,209,2023-04-04_13h32.44.137,Main,2022.1.1,59.77447092270902,
neutral,neutral,1,k,k,,,,,,,,,9,7,169,1,,,,,,,,,main,2,2,1,neutral,neutral,k,k,1,0.6915492999833077,504.70365530002164,505.71185510000214,505.6951970999944,None,504.70365530002164,None,504.70365530002164,None,504.70365530002164,None,506.3929598800314,None,506.3929598800314,None,506.3929598800314,None,,,,,,,,,,,,,,209,2023-04-04_13h32.44.137,Main,2022.1.1,59.77447092270902,
negative,positive,1,j,l,,,,,,,,,9,8,170,6,,,,,,,,,main,1,1,1,positive,negative,l,l,1,1.3013133000349626,506.3993814000278,507.41171750001376,507.3929385000374,None,506.3993814000278,None,506.3993814000278,None,506.3993814000278,None,508.6957891800266,None,508.6957891800266,None,508.6957891800266,None,,,,,,,,,,,,,,209,2023-04-04_13h32.44.137,Main,2022.1.1,59.77447092270902,
negative,neutral,1,j,l,,,,,,,,,9,9,171,3,,,,,,,,,main,1,1,1,neutral,negative,l,l,1,0.8288320999708958,508.6999041000381,509.7116987000336,509.6928694000235,None,508.6999041000381,None,508.6999041000381,None,508.6999041000381,None,510.52621708004153,None,510.52621708004153,None,510.52621708004153,None,,,,,,,,,,,,,,209,2023-04-04_13h32.44.137,Main,2022.1.1,59.77447092270902,
positive,positive,2,l,j,,,,,,,,,9,10,172,11,,,,,,,,,main,2,2,2,positive,positive,j,j,1,0.7482742000138387,510.5299788999837,511.542432599992,511.5257707000128,None,510.5299788999837,None,510.5299788999837,None,510.5299788999837,None,512.2758076800092,None,512.2758076800092,None,512.2758076800092,None,,,,,,,,,,,,,,209,2023-04-04_13h32.44.137,Main,2022.1.1,59.77447092270902,
negative,negative,2,j,l,,,,,,,,,9,11,173,9,,,,,,,,,main,2,2,2,negative,negative,l,l,1,0.6976958000450395,512.2924887000117,513.2924981000251,513.2758656000369,None,512.2924887000117,None,512.2924887000117,None,512.2924887000117,None,513.9758570799895,None,513.9758570799895,None,513.9758570799895,None,,,,,,,,,,,,,,209,2023-04-04_13h32.44.137,Main,2022.1.1,59.77447092270902,
negative,negative,1,j,l,,,,,,,,,9,12,174,0,,,,,,,,,main,2,2,1,negative,negative,l,l,1,0.6162015000008978,513.9817399000167,514.9949883000227,514.978326099983,None,513.9817399000167,None,513.9817399000167,None,513.9817399000167,None,515.5924430800078,None,515.5924430800078,None,515.5924430800078,None,,,,,,,,,,,,,,209,2023-04-04_13h32.44.137,Main,2022.1.1,59.77447092270902,
positive,negative,2,l,j,,,,,,,,,9,13,175,14,,,,,,,,,main,2,2,2,negative,positive,j,j,1,0.6974074000027031,515.5991037000204,516.6116347000352,516.5949185999925,None,515.5991037000204,None,515.5991037000204,None,515.5991037000204,None,517.292712280032,None,517.292712280032,None,517.292712280032,None,,,,,,,,,,,,,,209,2023-04-04_13h32.44.137,Main,2022.1.1,59.77447092270902,
neutral,positive,1,k,k,,,,,,,,,9,14,176,4,,,,,,,,,main,1,1,1,positive,neutral,k,k,1,0.59855279995827,517.2996693000314,518.311493700021,518.2926968000247,None,517.2996693000314,None,517.2996693000314,None,517.2996693000314,None,518.8927182799962,None,518.8927182799962,None,518.8927182799962,None,,,,,,,,,,,,,,209,2023-04-04_13h32.44.137,Main,2022.1.1,59.77447092270902,
neutral,positive,2,k,k,,,,,,,,,9,15,177,13,,,,,,,,,main,2,2,2,positive,neutral,k,k,1,0.7173572999890894,518.8986184000387,519.9115741000278,519.8949307000148,None,518.8986184000387,None,518.8986184000387,None,518.8986184000387,None,520.6113783800101,None,520.6113783800101,None,520.6113783800101,None,,,,,,,,,,,,,,209,2023-04-04_13h32.44.137,Main,2022.1.1,59.77447092270902,
negative,positive,2,j,l,,,,,,,,,9,16,178,15,,,,,,,,,main,1,1,2,positive,negative,l,l,1,0.6792497000424191,520.614806800033,521.6255610000226,521.5922049999936,None,520.614806800033,None,520.614806800033,None,520.614806800033,None,522.2922507800104,None,522.2922507800104,None,522.2922507800104,None,,,,,,,,,,,,,,209,2023-04-04_13h32.44.137,Main,2022.1.1,59.77447092270902,
neutral,negative,2,k,k,,,,,,,,,9,17,179,16,,,,,,,,,main,1,1,2,negative,neutral,k,k,1,0.998613599978853,522.2921896000043,523.2922271999996,523.2922271999996,None,522.2921896000043,None,522.2921896000043,None,522.2921896000043,None,524.2926100800105,None,524.2926100800105,None,524.2926100800105,None,,,,,,,,,,,,,,209,2023-04-04_13h32.44.137,Main,2022.1.1,59.77447092270902,
neutral,negative,1,k,k,,,,,,,,,10,0,180,7,,,,,,,,,main,2,2,1,negative,neutral,k,k,1,0.6315094999736175,524.2961477999925,525.3112985999906,525.2947465000325,None,524.2961477999925,None,524.2961477999925,None,524.2961477999925,None,525.9255586799991,None,525.9255586799991,None,525.9255586799991,None,,,,,,,,,,,,,,209,2023-04-04_13h32.44.137,Main,2022.1.1,59.77447092270902,
neutral,neutral,1,k,k,,,,,,,,,10,1,181,1,,,,,,,,,main,1,1,1,neutral,neutral,k,k,1,0.5987049000104889,525.9320169999846,526.9425174000207,526.9280660999939,None,525.9320169999846,None,525.9320169999846,None,525.9320169999846,None,527.525822680007,None,527.525822680007,None,527.525822680007,None,,,,,,,,,,,,,,209,2023-04-04_13h32.44.137,Main,2022.1.1,59.77447092270902,
positive,neutral,2,l,j,,,,,,,,,10,2,182,17,,,,,,,,,main,1,1,2,neutral,positive,j,j,1,0.7984235999756493,527.529296600027,528.5446713999845,528.5280217999825,None,527.529296600027,None,527.529296600027,None,527.529296600027,None,529.3258149799949,None,529.3258149799949,None,529.3258149799949,None,,,,,,,,,,,,,,209,2023-04-04_13h32.44.137,Main,2022.1.1,59.77447092270902,
positive,positive,2,l,j,,,,,,,,,10,3,183,11,,,,,,,,,main,1,1,2,positive,positive,j,j,1,0.7984125999500975,529.3315284000128,530.3444986999966,530.3279005000368,None,529.3315284000128,None,529.3315284000128,None,529.3315284000128,None,531.1257606800355,None,531.1257606800355,None,531.1257606800355,None,,,,,,,,,,,,,,209,2023-04-04_13h32.44.137,Main,2022.1.1,59.77447092270902,
positive,neutral,1,l,j,,,,,,,,,10,4,184,8,,,,,,,,,main,2,2,1,neutral,positive,j,j,1,0.6647978000110015,531.1320707999985,532.1420430000289,532.1253818999976,None,531.1320707999985,None,531.1320707999985,None,531.1320707999985,None,532.7920145800163,None,532.7920145800163,None,532.7920145800163,None,,,,,,,,,,,,,,209,2023-04-04_13h32.44.137,Main,2022.1.1,59.77447092270902,
negative,positive,1,j,l,,,,,,,,,10,5,185,6,,,,,,,,,main,2,2,1,positive,negative,l,l,1,0.8355750999762677,532.7921627000323,533.7920577999903,533.7920577999903,None,532.7921627000323,None,532.7921627000323,None,532.7921627000323,None,534.628016480041,None,534.628016480041,None,534.628016480041,None,,,,,,,,,,,,,,209,2023-04-04_13h32.44.137,Main,2022.1.1,59.77447092270902,
negative,neutral,2,j,l,,,,,,,,,10,6,186,12,,,,,,,,,main,2,2,2,neutral,negative,l,l,1,0.8612909000366926,534.6327248000307,535.6444773999974,535.6278674000059,None,534.6327248000307,None,534.6327248000307,None,534.6327248000307,None,536.4919988800248,None,536.4919988800248,None,536.4919988800248,None,,,,,,,,,,,,,,209,2023-04-04_13h32.44.137,Main,2022.1.1,59.77447092270902,
neutral,positive,2,k,k,,,,,,,,,10,7,187,13,,,,,,,,,main,2,2,2,positive,neutral,k,k,1,0.7325675999745727,536.4983315999852,537.5111861000187,537.4944785999833,None,536.4983315999852,None,536.4983315999852,None,536.4983315999852,None,538.2257124799944,None,538.2257124799944,None,538.2257124799944,None,,,,,,,,,,,,,,209,2023-04-04_13h32.44.137,Main,2022.1.1,59.77447092270902,
positive,negative,2,l,j,,,,,,,,,10,8,188,14,,,,,,,,,main,2,2,2,negative,positive,j,j,1,0.6980049000121653,538.2316989999963,539.2444495999953,539.227775300038,None,538.2316989999963,None,538.2316989999963,None,538.2316989999963,None,539.925593180029,None,539.925593180029,None,539.925593180029,None,,,,,,,,,,,,,,209,2023-04-04_13h32.44.137,Main,2022.1.1,59.77447092270902,
negative,neutral,1,j,l,,,,,,,,,10,9,189,3,,,,,,,,,main,2,2,1,neutral,negative,l,l,1,0.7485844000475481,539.931324300007,540.9443482999923,540.9278259000275,None,539.931324300007,None,539.931324300007,None,539.931324300007,None,541.6755132800026,None,541.6755132800026,None,541.6755132800026,None,,,,,,,,,,,,,,209,2023-04-04_13h32.44.137,Main,2022.1.1,59.77447092270902,
positive,negative,1,l,j,,,,,,,,,10,10,190,5,,,,,,,,,main,1,1,1,negative,positive,j,j,1,0.6814095000154339,541.6814087000093,542.6913794000284,542.6741859000176,None,541.6814087000093,None,541.6814087000093,None,541.6814087000093,None,543.3584600800241,None,543.3584600800241,None,543.3584600800241,None,,,,,,,,,,,,,,209,2023-04-04_13h32.44.137,Main,2022.1.1,59.77447092270902,
negative,negative,2,j,l,,,,,,,,,10,11,191,9,,,,,,,,,main,2,2,2,negative,negative,l,l,1,0.6983255000086501,543.3584242000361,544.3584454000229,544.3584454000229,None,543.3584242000361,None,543.3584242000361,None,543.3584242000361,None,545.0584801800142,None,545.0584801800142,None,545.0584801800142,None,,,,,,,,,,,,,,209,2023-04-04_13h32.44.137,Main,2022.1.1,59.77447092270902,
neutral,negative,2,k,k,,,,,,,,,10,12,192,16,,,,,,,,,main,1,1,2,negative,neutral,k,k,1,0.6487164999707602,545.0639610000071,546.0775949000381,546.0609833000344,None,545.0639610000071,None,545.0639610000071,None,545.0639610000071,None,546.7088124800066,None,546.7088124800066,None,546.7088124800066,None,,,,,,,,,,,,,,209,2023-04-04_13h32.44.137,Main,2022.1.1,59.77447092270902,
neutral,neutral,2,k,k,,,,,,,,,10,13,193,10,,,,,,,,,main,2,2,2,neutral,neutral,k,k,1,0.7508041000110097,546.7149720999878,547.7276149999816,547.7109549000161,None,546.7149720999878,None,546.7149720999878,None,546.7149720999878,None,548.460912879993,None,548.460912879993,None,548.460912879993,None,,,,,,,,,,,,,,209,2023-04-04_13h32.44.137,Main,2022.1.1,59.77447092270902,
negative,positive,2,j,l,,,,,,,,,10,14,194,15,,,,,,,,,main,2,2,2,positive,negative,l,l,1,0.7117442999733612,548.4656967000337,549.4774089999846,549.4609870000277,None,548.4656967000337,None,548.4656967000337,None,548.4656967000337,None,550.1753279799887,None,550.1753279799887,None,550.1753279799887,None,,,,,,,,,,,,,,209,2023-04-04_13h32.44.137,Main,2022.1.1,59.77447092270902,
negative,negative,1,j,l,,,,,,,,,10,15,195,0,,,,,,,,,main,1,1,1,negative,negative,l,l,1,0.9152763999882154,550.1817084000213,551.1941034999909,551.1753150000004,None,550.1817084000213,None,550.1817084000213,None,550.1817084000213,None,552.0918233800039,None,552.0918233800039,None,552.0918233800039,None,,,,,,,,,,,,,,209,2023-04-04_13h32.44.137,Main,2022.1.1,59.77447092270902,
positive,positive,1,l,j,,,,,,,,,10,16,196,2,,,,,,,,,main,2,2,1,positive,positive,j,j,1,0.7810794999822974,552.0986849000328,553.1082546000252,553.0915900000255,None,552.0986849000328,None,552.0986849000328,None,552.0986849000328,None,553.874909480015,None,553.874909480015,None,553.874909480015,None,,,,,,,,,,,,,,209,2023-04-04_13h32.44.137,Main,2022.1.1,59.77447092270902,
neutral,positive,1,k,k,,,,,,,,,10,17,197,4,,,,,,,,,main,2,2,1,positive,neutral,k,k,1,0.6324555000173859,553.8748420000193,554.8749297999893,554.8749297999893,None,553.8748420000193,None,553.8748420000193,None,553.8748420000193,None,555.5085730800347,None,555.5085730800347,None,555.5085730800347,None,,,,,,,,,,,,,,209,2023-04-04_13h32.44.137,Main,2022.1.1,59.77447092270902,
positive,neutral,1,l,j,,,,,,,,,11,0,198,8,,,,,,,,,main,2,2,1,neutral,positive,j,j,1,1.580650100018829,555.5146199000301,556.527376300015,556.5107702999958,None,555.5146199000301,None,555.5146199000301,None,555.5146199000301,None,558.0918437000364,None,558.0918437000364,None,558.0918437000364,None,,,,,,,,,,,,,,209,2023-04-04_13h32.44.137,Main,2022.1.1,59.77447092270902,
neutral,positive,2,k,k,,,,,,,,,11,1,199,13,,,,,,,,,main,1,1,2,positive,neutral,k,k,1,0.7369410999817774,559.0930886000278,560.0939882000093,560.0773431999842,None,559.0930886000278,None,559.0930886000278,None,559.0930886000278,None,560.8272423800372,None,560.8272423800372,None,560.8272423800372,None,,,,,,,,,,,,,,209,2023-04-04_13h32.44.137,Main,2022.1.1,59.77447092270902,
neutral,negative,1,k,k,,,,,,,,,11,2,200,7,,,,,,,,,main,2,2,1,negative,neutral,k,k,1,0.6629176999558695,560.8321569000254,561.8439193000086,561.827283999999,None,560.8321569000254,None,560.8321569000254,None,560.8321569000254,None,562.491729780013,None,562.491729780013,None,562.491729780013,None,,,,,,,,,,,,,,209,2023-04-04_13h32.44.137,Main,2022.1.1,59.77447092270902,
positive,negative,2,l,j,,,,,,,,,11,3,201,14,,,,,,,,,main,1,1,2,negative,positive,j,j,1,0.7145333999651484,562.497442700027,563.5079665000085,563.4912873000139,None,562.497442700027,None,562.497442700027,None,562.497442700027,None,564.2079789800046,None,564.2079789800046,None,564.2079789800046,None,,,,,,,,,,,,,,209,2023-04-04_13h32.44.137,Main,2022.1.1,59.77447092270902,
negative,positive,2,j,l,,,,,,,,,11,4,202,15,,,,,,,,,main,2,2,2,positive,negative,l,l,1,0.6652899999753572,564.2080664000241,565.2080303999828,565.2080303999828,None,564.2080664000241,None,564.2080664000241,None,564.2080664000241,None,565.8746971800283,None,565.8746971800283,None,565.8746971800283,None,,,,,,,,,,,,,,209,2023-04-04_13h32.44.137,Main,2022.1.1,59.77447092270902,
positive,positive,2,l,j,,,,,,,,,11,5,203,11,,,,,,,,,main,2,2,2,positive,positive,j,j,1,0.7358168999780901,565.876160099986,566.8913627000293,566.8746965000173,None,565.876160099986,None,565.876160099986,None,565.876160099986,None,567.610459079995,None,567.610459079995,None,567.610459079995,None,,,,,,,,,,,,,,209,2023-04-04_13h32.44.137,Main,2022.1.1,59.77447092270902,
negative,negative,2,j,l,,,,,,,,,11,6,204,9,,,,,,,,,main,2,2,2,negative,negative,l,l,1,0.7279435000382364,567.6155009000213,568.6270999999833,568.6104989000014,None,567.6155009000213,None,567.6155009000213,None,567.6155009000213,None,569.3416213800374,None,569.3416213800374,None,569.3416213800374,None,,,,,,,,,,,,,,209,2023-04-04_13h32.44.137,Main,2022.1.1,59.77447092270902,
positive,positive,1,l,j,,,,,,,,,11,7,205,2,,,,,,,,,main,2,2,1,positive,positive,j,j,1,0.7481287000118755,569.3476637999993,570.3604418000323,570.3438537000329,None,569.3476637999993,None,569.3476637999993,None,569.3476637999993,None,571.0913664800173,None,571.0913664800173,None,571.0913664800173,None,,,,,,,,,,,,,,209,2023-04-04_13h32.44.137,Main,2022.1.1,59.77447092270902,
positive,negative,1,l,j,,,,,,,,,11,8,206,5,,,,,,,,,main,2,2,1,negative,positive,j,j,1,0.6148127999622375,571.0979561000131,572.1103213999886,572.0937384000281,None,571.0979561000131,None,571.0979561000131,None,571.0979561000131,None,572.7078569800069,None,572.7078569800069,None,572.7078569800069,None,,,,,,,,,,,,,,209,2023-04-04_13h32.44.137,Main,2022.1.1,59.77447092270902,
negative,neutral,2,j,l,,,,,,,,,11,9,207,12,,,,,,,,,main,2,2,2,neutral,negative,l,l,1,0.7343864000285976,572.7148310000193,573.7269674999989,573.7103504000115,None,572.7148310000193,None,572.7148310000193,None,572.7148310000193,None,574.4438125799934,None,574.4438125799934,None,574.4438125799934,None,,,,,,,,,,,,,,209,2023-04-04_13h32.44.137,Main,2022.1.1,59.77447092270902,
negative,positive,1,j,l,,,,,,,,,11,10,208,6,,,,,,,,,main,2,2,1,positive,negative,l,l,1,1.8126393999555148,574.4480818000156,575.4576993000228,575.4410522999824,None,574.4480818000156,None,574.4480818000156,None,574.4480818000156,None,577.257777700026,None,577.257777700026,None,577.257777700026,None,,,,,,,,,,,,,,209,2023-04-04_13h32.44.137,Main,2022.1.1,59.77447092270902,
neutral,neutral,1,k,k,,,,,,,,,11,11,209,1,,,,,,,,,main,2,2,1,neutral,neutral,k,k,1,0.6856891000061296,578.2589513999992,579.2602664000005,579.2436723000137,None,578.2589513999992,None,578.2589513999992,None,578.2589513999992,None,579.9413911800075,None,579.9413911800075,None,579.9413911800075,None,,,,,,,,,,,,,,209,2023-04-04_13h32.44.137,Main,2022.1.1,59.77447092270902,
negative,negative,1,j,l,,,,,,,,,11,12,210,0,,,,,,,,,main,1,1,1,negative,negative,l,l,1,0.48135389998788014,579.9484122000285,580.9601476000389,580.943513300037,None,579.9484122000285,None,579.9484122000285,None,579.9484122000285,None,581.4246387800376,None,581.4246387800376,None,581.4246387800376,None,,,,,,,,,,,,,,209,2023-04-04_13h32.44.137,Main,2022.1.1,59.77447092270902,
neutral,neutral,2,k,k,,,,,,,,,11,13,211,10,,,,,,,,,main,1,1,2,neutral,neutral,k,k,1,0.7474501000251621,581.4307987000211,582.4434401000035,582.4268398000277,None,581.4307987000211,None,581.4307987000211,None,581.4307987000211,None,583.1746621800412,None,583.1746621800412,None,583.1746621800412,None,,,,,,,,,,,,,,209,2023-04-04_13h32.44.137,Main,2022.1.1,59.77447092270902,
neutral,positive,1,k,k,,,,,,,,,11,14,212,4,,,,,,,,,main,2,2,1,positive,neutral,k,k,1,0.6818512000027113,583.1806193999946,584.1934677999816,584.1768427999923,None,583.1806193999946,None,583.1806193999946,None,583.1806193999946,None,584.8579366799968,None,584.8579366799968,None,584.8579366799968,None,,,,,,,,,,,,,,209,2023-04-04_13h32.44.137,Main,2022.1.1,59.77447092270902,
neutral,negative,2,k,k,,,,,,,,,11,15,213,16,,,,,,,,,main,2,2,2,negative,neutral,k,k,1,0.7393103999784216,584.864148600027,585.87672260002,585.8600769999903,None,584.864148600027,None,584.864148600027,None,584.864148600027,None,586.5997666800104,None,586.5997666800104,None,586.5997666800104,None,,,,,,,,,,,,,,209,2023-04-04_13h32.44.137,Main,2022.1.1,59.77447092270902,
positive,neutral,2,l,j,,,,,,,,,11,16,214,17,,,,,,,,,main,1,1,2,neutral,positive,j,j,1,0.5551491999649443,586.6165127999848,587.6241692000185,587.5908368999953,None,586.6165127999848,None,586.6165127999848,None,586.6165127999848,None,588.1574789799924,None,588.1574789799924,None,588.1574789799924,None,,,,,,,,,,,,,,209,2023-04-04_13h32.44.137,Main,2022.1.1,59.77447092270902,
negative,neutral,1,j,l,,,,,,,,,11,17,215,3,,,,,,,,,main,2,2,1,neutral,negative,l,l,1,0.6321674000355415,588.1574297000188,589.1575227000285,589.1575227000285,None,588.1574297000188,None,588.1574297000188,None,588.1574297000188,None,589.7911663800187,None,589.7911663800187,None,589.7911663800187,None,,,,,,,,,,,,,,209,2023-04-04_13h32.44.137,Main,2022.1.1,59.77447092270902,
negative,positive,2,j,l,,,,,,,,,12,0,216,15,,,,,,,,,main,2,2,2,positive,negative,l,l,1,0.7828446999774314,589.797545999987,590.8100206000381,590.7933062000084,None,589.797545999987,None,589.797545999987,None,589.797545999987,None,591.574485279998,None,591.574485279998,None,591.574485279998,None,,,,,,,,,,,,,,209,2023-04-04_13h32.44.137,Main,2022.1.1,59.77447092270902,
neutral,negative,1,k,k,,,,,,,,,12,1,217,7,,,,,,,,,main,1,1,1,negative,neutral,k,k,1,0.717272599984426,591.5806043000193,592.5932474000147,592.5765893000062,None,591.5806043000193,None,591.5806043000193,None,591.5806043000193,None,593.2931904800062,None,593.2931904800062,None,593.2931904800062,None,,,,,,,,,,,,,,209,2023-04-04_13h32.44.137,Main,2022.1.1,59.77447092270902,
negative,neutral,2,j,l,,,,,,,,,12,2,218,12,,,,,,,,,main,1,1,2,neutral,negative,l,l,1,0.7641306999721564,593.2979536000057,594.3098042000202,594.293242499989,None,593.2979536000057,None,593.2979536000057,None,593.2979536000057,None,595.0598157799977,None,595.0598157799977,None,595.0598157799977,None,,,,,,,,,,,,,,209,2023-04-04_13h32.44.137,Main,2022.1.1,59.77447092270902,
neutral,neutral,1,k,k,,,,,,,,,12,3,219,1,,,,,,,,,main,2,2,1,neutral,neutral,k,k,1,0.6292541000293568,595.0637717000209,596.0764999000239,596.0598437000299,None,595.0637717000209,None,595.0637717000209,None,595.0637717000209,None,596.6906868799997,None,596.6906868799997,None,596.6906868799997,None,,,,,,,,,,,,,,209,2023-04-04_13h32.44.137,Main,2022.1.1,59.77447092270902,
negative,negative,2,j,l,,,,,,,,,12,4,220,9,,,,,,,,,main,2,2,2,negative,negative,l,l,1,0.8150371999945492,596.6963592999964,597.7072283999878,597.6905556999845,None,596.6963592999964,None,596.6963592999964,None,596.6963592999964,None,598.5072441800439,None,598.5072441800439,None,598.5072441800439,None,,,,,,,,,,,,,,209,2023-04-04_13h32.44.137,Main,2022.1.1,59.77447092270902,
positive,negative,1,l,j,,,,,,,,,12,5,221,5,,,,,,,,,main,2,2,1,negative,positive,j,j,1,0.6824806000222452,598.5072053000331,599.5097782000084,599.5097782000084,None,598.5072053000331,None,598.5072053000331,None,598.5072053000331,None,600.1909560800123,None,600.1909560800123,None,600.1909560800123,None,,,,,,,,,,,,,,209,2023-04-04_13h32.44.137,Main,2022.1.1,59.77447092270902,
positive,positive,1,l,j,,,,,,,,,12,6,222,2,,,,,,,,,main,2,2,1,positive,positive,j,j,1,0.6969902000273578,600.197901699983,601.2096574000316,601.1930866999901,None,600.197901699983,None,600.197901699983,None,600.197901699983,None,601.8906038800196,None,601.8906038800196,None,601.8906038800196,None,,,,,,,,,,,,,,209,2023-04-04_13h32.44.137,Main,2022.1.1,59.77447092270902,
positive,neutral,2,l,j,,,,,,,,,12,7,223,17,,,,,,,,,main,1,1,2,neutral,positive,j,j,1,0.7988292000372894,601.9096629000269,602.9097053000005,602.8931213000324,None,601.9096629000269,None,601.9096629000269,None,601.9096629000269,None,603.6909598800412,None,603.6909598800412,None,603.6909598800412,None,,,,,,,,,,,,,,209,2023-04-04_13h32.44.137,Main,2022.1.1,59.77447092270902,
