target,distractor,set,ans1,ans2,rep_loop2.thisRepN,rep_loop2.thisTrialN,rep_loop2.thisN,rep_loop2.thisIndex,flanker_prac_loop.thisRepN,flanker_prac_loop.thisTrialN,flanker_prac_loop.thisN,flanker_prac_loop.thisIndex,flanker_main_loop.thisRepN,flanker_main_loop.thisTrialN,flanker_main_loop.thisN,flanker_main_loop.thisIndex,fl_inst_resp.keys,fl_inst_resp.rt,sound_1.started,sound_1.stopped,image_4.started,image_4.stopped,back_2.started,back_2.stopped,main_prac,fl_cold,fl_colt,fl_set,fl_dcond,fl_tcond,fl_ans,fl_res,fl_corr,fl_rt,fix_fl.started,fix_fl.stopped,targ.started,targ.stopped,j_button.started,j_button.stopped,k_button.started,k_button.stopped,l_button.started,l_button.stopped,j_button2.started,j_button2.stopped,k_button2.started,k_button2.stopped,l_button2.started,l_button2.stopped,mainback.started,mainback.stopped,key_resp.keys,key_resp.rt,mouse_6.x,mouse_6.y,mouse_6.leftButton,mouse_6.midButton,mouse_6.rightButton,mouse_6.started,mouse_6.stopped,text_2.started,text_2.stopped,id*,date,expName,psychopyVersion,frameRate,
,,,,,0,0,0,0,,,,,,,,,space,52.669813100015745,28.78333126998041,None,81.47985489992425,None,,,,,,,,,,,,,,,,,,,,,,,,,,,,,,,,,,,,,,,,,,210,2023-04-05_14h56.13.196,Main,2022.1.1,60.02148767453243,
negative,positive,2,j,l,,,,,0,0,0,15,,,,,,,,,,,86.99895009992179,None,prac,1,1,2,positive,negative,j,j,1,1.2849948999937624,89.01448469993193,90.0198914000066,89.99803199991584,None,89.01448469993193,None,89.01448469993193,None,89.01448469993193,None,91.2963234699564,None,91.2963234699564,None,91.2963234699564,None,,,,,,,,,,,,,,210,2023-04-05_14h56.13.196,Main,2022.1.1,60.02148767453243,
positive,neutral,2,l,j,,,,,0,1,1,17,,,,,,,,,,,,,prac,2,2,2,neutral,positive,l,l,1,1.6171690000919625,91.29705779999495,92.29640150000341,92.29640150000341,None,91.29705779999495,None,91.29705779999495,None,91.29705779999495,None,93.91631230001803,None,93.91631230001803,None,93.91631230001803,None,,,,,,,,,,,,,,210,2023-04-05_14h56.13.196,Main,2022.1.1,60.02148767453243,
negative,neutral,1,j,l,,,,,0,2,2,3,,,,,,,,,,,,,prac,2,2,1,neutral,negative,j,j,1,0.9013232999714091,94.9143383000046,95.91542420000769,95.89876899996307,None,94.9143383000046,None,94.9143383000046,None,94.9143383000046,None,96.81325617001858,None,96.81325617001858,None,96.81325617001858,None,,,,,,,,,,,,,,210,2023-04-05_14h56.13.196,Main,2022.1.1,60.02148767453243,
negative,neutral,2,j,l,,,,,0,3,3,12,,,,,,,,,,,,,prac,1,1,2,neutral,negative,j,j,1,0.6832468999782577,96.81721290003043,97.83203469996806,97.81539689993951,None,96.81721290003043,None,96.81721290003043,None,96.81721290003043,None,98.49870547000319,None,98.49870547000319,None,98.49870547000319,None,,,,,,,,,,,,,,210,2023-04-05_14h56.13.196,Main,2022.1.1,60.02148767453243,
neutral,positive,2,k,k,,,,,0,4,4,13,,,,,,,,,,,,,prac,2,2,2,positive,neutral,k,k,1,0.7131530999904498,98.50155939999968,99.51535140001215,99.49874109996017,None,98.50155939999968,None,98.50155939999968,None,98.50155939999968,None,100.2127561699599,None,100.2127561699599,None,100.2127561699599,None,,,,,,,,,,,,,,210,2023-04-05_14h56.13.196,Main,2022.1.1,60.02148767453243,
positive,negative,1,l,j,,,,,0,5,5,5,,,,,,,,,,,,,prac,2,2,1,negative,positive,l,l,1,0.6166260000318289,100.21289029996842,101.21281840000302,101.21281840000302,None,100.21289029996842,None,100.21289029996842,None,100.21289029996842,None,101.82948266994208,None,101.82948266994208,None,101.82948266994208,None,,,,,,,,,,,,,,210,2023-04-05_14h56.13.196,Main,2022.1.1,60.02148767453243,
neutral,positive,1,k,k,,,,,0,6,6,4,,,,,,,,,,,,,prac,2,2,1,positive,neutral,k,j,0,0.747585800010711,101.83098149998114,102.84615839994512,102.82948630000465,None,101.83098149998114,None,101.83098149998114,None,101.83098149998114,None,103.5795109999599,None,103.5795109999599,None,103.5795109999599,None,,,,,,,,,,,,,,210,2023-04-05_14h56.13.196,Main,2022.1.1,60.02148767453243,
negative,negative,2,j,l,,,,,0,7,7,9,,,,,,,,,,,,,prac,2,2,2,negative,negative,j,j,1,0.8013391999993473,104.58055059995968,105.58189609996043,105.5652623999631,None,104.58055059995968,None,104.58055059995968,None,104.58055059995968,None,106.37962166999932,None,106.37962166999932,None,106.37962166999932,None,,,,,,,,,,,,,,210,2023-04-05_14h56.13.196,Main,2022.1.1,60.02148767453243,
positive,neutral,1,l,j,,,,,0,8,8,8,,,,,,,,,,,,,prac,1,1,1,neutral,positive,l,l,1,0.8019525000127032,106.38647969998419,107.39843089994974,107.38195629999973,None,106.38647969998419,None,106.38647969998419,None,106.38647969998419,None,108.17974616994616,None,108.17974616994616,None,108.17974616994616,None,,,,,,,,,,,,,,210,2023-04-05_14h56.13.196,Main,2022.1.1,60.02148767453243,
neutral,neutral,1,k,k,,,,,0,9,9,1,,,,,,,,,,,,,prac,2,2,1,neutral,neutral,k,k,1,0.7304385000606999,108.18618860002607,109.19846400001552,109.18188009993173,None,108.18618860002607,None,108.18618860002607,None,108.18618860002607,None,109.91510196996387,None,109.91510196996387,None,109.91510196996387,None,,,,,,,,,,,,,,210,2023-04-05_14h56.13.196,Main,2022.1.1,60.02148767453243,
positive,positive,1,l,j,,,,,0,10,10,2,,,,,,,,,,,,,prac,1,1,1,positive,positive,l,l,1,0.6964064000640064,109.92081199993845,110.93177829997148,110.915133100003,None,109.92081199993845,None,109.92081199993845,None,109.92081199993845,None,111.6125905700028,None,111.6125905700028,None,111.6125905700028,None,,,,,,,,,,,,,,210,2023-04-05_14h56.13.196,Main,2022.1.1,60.02148767453243,
positive,positive,2,l,j,,,,,0,11,11,11,,,,,,,,,,,,,prac,2,2,2,positive,positive,l,l,1,0.6655348000349477,111.61257009999827,112.61259389994666,112.61259389994666,None,111.61257009999827,None,111.61257009999827,None,111.61257009999827,None,113.27925926994067,None,113.27925926994067,None,113.27925926994067,None,,,,,,,,,,,,,,210,2023-04-05_14h56.13.196,Main,2022.1.1,60.02148767453243,
positive,negative,2,l,j,,,,,0,12,12,14,,,,,,,,,,,,,prac,2,2,2,negative,positive,l,l,1,0.9318197999382392,113.2823725999333,114.2817777999444,114.2817777999444,None,113.2823725999333,None,113.2823725999333,None,113.2823725999333,None,115.21255466993898,None,115.21255466993898,None,115.21255466993898,None,,,,,,,,,,,,,,210,2023-04-05_14h56.13.196,Main,2022.1.1,60.02148767453243,
neutral,negative,2,k,k,,,,,0,13,13,16,,,,,,,,,,,,,prac,2,2,2,negative,neutral,k,k,1,0.6159092000452802,115.21864460001234,116.23165660002269,116.19834829994943,None,115.21864460001234,None,115.21864460001234,None,115.21864460001234,None,116.8296978699509,None,116.8296978699509,None,116.8296978699509,None,,,,,,,,,,,,,,210,2023-04-05_14h56.13.196,Main,2022.1.1,60.02148767453243,
negative,positive,1,j,l,,,,,0,14,14,6,,,,,,,,,,,,,prac,1,1,1,positive,negative,j,j,1,0.5312543000327423,116.83605219994206,117.84828629996628,117.83168389997445,None,116.83605219994206,None,116.83605219994206,None,116.83605219994206,None,118.3624893699307,None,118.3624893699307,None,118.3624893699307,None,,,,,,,,,,,,,,210,2023-04-05_14h56.13.196,Main,2022.1.1,60.02148767453243,
neutral,neutral,2,k,k,,,,,0,15,15,10,,,,,,,,,,,,,prac,1,1,2,neutral,neutral,k,k,1,0.5512217000359669,118.36581300001126,119.3649463999318,119.34828429995105,None,118.36581300001126,None,118.36581300001126,None,118.36581300001126,None,119.91491107002366,None,119.91491107002366,None,119.91491107002366,None,,,,,,,,,,,,,,210,2023-04-05_14h56.13.196,Main,2022.1.1,60.02148767453243,
neutral,negative,1,k,k,,,,,0,16,16,7,,,,,,,,,,,,,prac,1,1,1,negative,neutral,k,k,1,0.6463662999449298,119.91778349992819,120.9290535999462,120.91238589992281,None,119.91778349992819,None,119.91778349992819,None,119.91778349992819,None,121.56240027002059,None,121.56240027002059,None,121.56240027002059,None,,,,,,,,,,,,,,210,2023-04-05_14h56.13.196,Main,2022.1.1,60.02148767453243,
negative,negative,1,j,l,,,,,0,17,17,0,,,,,,,,,,,,,prac,1,1,1,negative,negative,j,j,1,0.8985778000205755,121.5624268000247,122.56236689991783,122.56236689991783,None,121.5624268000247,None,121.5624268000247,None,121.5624268000247,None,123.46237036993261,None,123.46237036993261,None,123.46237036993261,None,,,,,,,,,,,,,,210,2023-04-05_14h56.13.196,Main,2022.1.1,60.02148767453243,
negative,positive,1,j,l,,,,,1,0,18,6,,,,,,,,,,,,,prac,2,2,1,positive,negative,j,j,1,0.6814031999092549,123.46358019998297,124.47904799995013,124.46236939996015,None,123.46358019998297,None,123.46358019998297,None,123.46358019998297,None,125.14569087000564,None,125.14569087000564,None,125.14569087000564,None,,,,,,,,,,,,,,210,2023-04-05_14h56.13.196,Main,2022.1.1,60.02148767453243,
negative,positive,2,j,l,,,,,1,1,19,15,,,,,,,,,,,,,prac,1,1,2,positive,negative,j,j,1,0.7008776000002399,125.14893649995793,126.14822309999727,126.14822309999727,None,125.14893649995793,None,125.14893649995793,None,125.14893649995793,None,126.84806476999074,None,126.84806476999074,None,126.84806476999074,None,,,,,,,,,,,,,,210,2023-04-05_14h56.13.196,Main,2022.1.1,60.02148767453243,
negative,negative,2,j,l,,,,,1,2,20,9,,,,,,,,,,,,,prac,2,2,2,negative,negative,j,j,1,0.7152946999995038,126.85085739998613,127.86468859994784,127.84602709999308,None,126.85085739998613,None,126.85085739998613,None,126.85085739998613,None,128.5647843700135,None,128.5647843700135,None,128.5647843700135,None,,,,,,,,,,,,,,210,2023-04-05_14h56.13.196,Main,2022.1.1,60.02148767453243,
negative,neutral,2,j,l,,,,,1,3,21,12,,,,,,,,,,,,,prac,2,2,2,neutral,negative,j,j,1,0.5974352000048384,128.56758139992598,129.5813363000052,129.56476089998614,None,128.56758139992598,None,128.56758139992598,None,128.56758139992598,None,130.1632887700107,None,130.1632887700107,None,130.1632887700107,None,,,,,,,,,,,,,,210,2023-04-05_14h56.13.196,Main,2022.1.1,60.02148767453243,
neutral,neutral,1,k,k,,,,,1,4,22,1,,,,,,,,,,,,,prac,2,2,1,neutral,neutral,k,k,1,0.7014880999922752,130.16908419993706,131.1813868000172,131.1647633999819,None,130.16908419993706,None,130.16908419993706,None,130.16908419993706,None,131.86465226998553,None,131.86465226998553,None,131.86465226998553,None,,,,,,,,,,,,,,210,2023-04-05_14h56.13.196,Main,2022.1.1,60.02148767453243,
positive,neutral,2,l,j,,,,,1,5,23,17,,,,,,,,,,,,,prac,2,2,2,neutral,positive,l,l,1,0.7611929000122473,131.86909439996816,132.8779892999446,132.86197800002992,None,131.86909439996816,None,131.86909439996816,None,131.86909439996816,None,133.62874586996622,None,133.62874586996622,None,133.62874586996622,None,,,,,,,,,,,,,,210,2023-04-05_14h56.13.196,Main,2022.1.1,60.02148767453243,
positive,neutral,1,l,j,,,,,1,6,24,8,,,,,,,,,,,,,prac,1,1,1,neutral,positive,l,l,1,0.6155769999604672,133.62877599999774,134.62881889997516,134.62881889997516,None,133.62877599999774,None,133.62877599999774,None,133.62877599999774,None,135.24545566993766,None,135.24545566993766,None,135.24545566993766,None,,,,,,,,,,,,,,210,2023-04-05_14h56.13.196,Main,2022.1.1,60.02148767453243,
neutral,neutral,2,k,k,,,,,1,7,25,10,,,,,,,,,,,,,prac,2,2,2,neutral,neutral,k,k,1,0.6655010000104085,135.24565529997926,136.24546060001012,136.24546060001012,None,135.24565529997926,None,135.24565529997926,None,135.24565529997926,None,136.91215627000201,None,136.91215627000201,None,136.91215627000201,None,,,,,,,,,,,,,,210,2023-04-05_14h56.13.196,Main,2022.1.1,60.02148767453243,
positive,negative,1,l,j,,,,,1,8,26,5,,,,,,,,,,,,,prac,1,1,1,negative,positive,l,l,1,0.6335683999350294,136.91534149996005,137.91456459998153,137.89799109997693,None,136.91534149996005,None,136.91534149996005,None,136.91534149996005,None,138.54706327000167,None,138.54706327000167,None,138.54706327000167,None,,,,,,,,,,,,,,210,2023-04-05_14h56.13.196,Main,2022.1.1,60.02148767453243,
negative,neutral,1,j,l,,,,,1,9,27,3,,,,,,,,,,,,,prac,1,1,1,neutral,negative,j,j,1,0.8835994999390095,138.5525873999577,139.5645128999604,139.5479385999497,None,138.5525873999577,None,138.5525873999577,None,138.5525873999577,None,140.43206986994483,None,140.43206986994483,None,140.43206986994483,None,,,,,,,,,,,,,,210,2023-04-05_14h56.13.196,Main,2022.1.1,60.02148767453243,
neutral,negative,2,k,k,,,,,1,10,28,16,,,,,,,,,,,,,prac,2,2,2,negative,neutral,k,k,1,0.6477704999269918,140.43587159994058,141.44778559997212,141.4311518999748,None,140.43587159994058,None,140.43587159994058,None,140.43587159994058,None,142.08114177000243,None,142.08114177000243,None,142.08114177000243,None,,,,,,,,,,,,,,210,2023-04-05_14h56.13.196,Main,2022.1.1,60.02148767453243,
neutral,positive,1,k,k,,,,,1,11,29,4,,,,,,,,,,,,,prac,1,1,1,positive,neutral,k,k,1,0.6984794000163674,142.08416979992762,143.0977348999586,143.08115189999808,None,142.08416979992762,None,142.08416979992762,None,142.08416979992762,None,143.78107036999427,None,143.78107036999427,None,143.78107036999427,None,,,,,,,,,,,,,,210,2023-04-05_14h56.13.196,Main,2022.1.1,60.02148767453243,
positive,positive,2,l,j,,,,,1,12,30,11,,,,,,,,,,,,,prac,1,1,2,positive,positive,l,l,1,0.7130343000171706,143.78368090000004,144.79524379991926,144.7785788999172,None,143.78368090000004,None,143.78368090000004,None,143.78368090000004,None,145.49520397000015,None,145.49520397000015,None,145.49520397000015,None,,,,,,,,,,,,,,210,2023-04-05_14h56.13.196,Main,2022.1.1,60.02148767453243,
negative,negative,1,j,l,,,,,1,13,31,0,,,,,,,,,,,,,prac,1,1,1,negative,negative,j,j,1,0.6152392999501899,145.49524159997236,146.49531459994614,146.49531459994614,None,145.49524159997236,None,145.49524159997236,None,145.49524159997236,None,147.11191026994493,None,147.11191026994493,None,147.11191026994493,None,,,,,,,,,,,,,,210,2023-04-05_14h56.13.196,Main,2022.1.1,60.02148767453243,
neutral,positive,2,k,k,,,,,1,14,32,13,,,,,,,,,,,,,prac,2,2,2,positive,neutral,k,k,1,0.5990432999096811,147.1177892999258,148.13102540001273,148.09780969994608,None,147.1177892999258,None,147.1177892999258,None,147.1177892999258,None,148.71212057000957,None,148.71212057000957,None,148.71212057000957,None,,,,,,,,,,,,,,210,2023-04-05_14h56.13.196,Main,2022.1.1,60.02148767453243,
positive,negative,2,l,j,,,,,1,15,33,14,,,,,,,,,,,,,prac,1,1,2,negative,positive,l,l,1,0.8173660000320524,148.7179833999835,149.7310078999726,149.71439310000278,None,148.7179833999835,None,148.7179833999835,None,148.7179833999835,None,150.53089386993088,None,150.53089386993088,None,150.53089386993088,None,,,,,,,,,,,,,,210,2023-04-05_14h56.13.196,Main,2022.1.1,60.02148767453243,
positive,positive,1,l,j,,,,,1,16,34,2,,,,,,,,,,,,,prac,1,1,1,positive,positive,l,l,1,0.6825505000306293,150.53344899998046,151.54757960001007,151.53101339994464,None,150.53344899998046,None,150.53344899998046,None,150.53344899998046,None,152.21425246994477,None,152.21425246994477,None,152.21425246994477,None,,,,,,,,,,,,,,210,2023-04-05_14h56.13.196,Main,2022.1.1,60.02148767453243,
neutral,negative,1,k,k,,,,,1,17,35,7,,,,,,,,,,,,,prac,2,2,1,negative,neutral,k,k,1,0.5982835000613704,152.21746730001178,153.2309457999654,153.2143557999516,None,152.21746730001178,None,152.21746730001178,None,152.21746730001178,None,153.81421797000803,None,153.81421797000803,None,153.81421797000803,None,,,,,,,,,,,,,,210,2023-04-05_14h56.13.196,Main,2022.1.1,60.02148767453243,
,,,,,,,,,,,,,,,,,,,,,,,,,,,,,,,,,,,,,,,,,,,,,,,,,,,153.81421079998836,None,space,3.2792734999675304,,,,,,,,,,210,2023-04-05_14h56.13.196,Main,2022.1.1,60.02148767453243,
,,,,,,,,,,,,,,,,,,,,,,,,,,,,,,,,,,,,,,,,,,,,,,,,,,,,,,,0.3787037,-0.0712963,0,0,0,0.011166870011948049,None,,,210,2023-04-05_14h56.13.196,Main,2022.1.1,60.02148767453243,
positive,negative,2,l,j,,,,,,,,,0,0,0,14,,,,,,,157.11170549993403,None,main,2,2,2,negative,positive,l,l,1,0.6479723999509588,159.11804319999646,160.1307157999836,160.11412199994083,None,159.11804319999646,None,159.11804319999646,None,159.11804319999646,None,160.7641381699359,None,160.7641381699359,None,160.7641381699359,None,,,,,,,,,,,,,,210,2023-04-05_14h56.13.196,Main,2022.1.1,60.02148767453243,
neutral,neutral,2,k,k,,,,,,,,,0,1,1,10,,,,,,,,,main,2,2,2,neutral,neutral,k,k,1,0.6131008000811562,160.769613499986,161.780852099997,161.76416799996514,None,160.769613499986,None,160.769613499986,None,160.769613499986,None,162.38081376999617,None,162.38081376999617,None,162.38081376999617,None,,,,,,,,,,,,,,210,2023-04-05_14h56.13.196,Main,2022.1.1,60.02148767453243,
neutral,negative,1,k,k,,,,,,,,,0,2,2,7,,,,,,,,,main,2,2,1,negative,neutral,k,k,1,0.5650138000492007,162.38392389996443,163.39737199991941,163.38078659994062,None,162.38392389996443,None,162.38392389996443,None,162.38392389996443,None,163.94739366997965,None,163.94739366997965,None,163.94739366997965,None,,,,,,,,,,,,,,210,2023-04-05_14h56.13.196,Main,2022.1.1,60.02148767453243,
neutral,negative,2,k,k,,,,,,,,,0,3,3,16,,,,,,,,,main,2,2,2,negative,neutral,k,k,1,0.595850000041537,163.95145729999058,164.96408189996146,164.9474632999627,None,163.95145729999058,None,163.95145729999058,None,163.95145729999058,None,165.54489357001148,None,165.54489357001148,None,165.54489357001148,None,,,,,,,,,,,,,,210,2023-04-05_14h56.13.196,Main,2022.1.1,60.02148767453243,
positive,positive,2,l,j,,,,,,,,,0,4,4,11,,,,,,,,,main,2,2,2,positive,positive,l,l,1,0.6151302000507712,165.55117789993528,166.56707909994293,166.55035299994051,None,165.55117789993528,None,165.55117789993528,None,165.55117789993528,None,167.1614116699202,None,167.1614116699202,None,167.1614116699202,None,,,,,,,,,,,,,,210,2023-04-05_14h56.13.196,Main,2022.1.1,60.02148767453243,
neutral,neutral,1,k,k,,,,,,,,,0,5,5,1,,,,,,,,,main,2,2,1,neutral,neutral,k,k,1,0.5982149000046775,167.16236570000183,168.1620591999963,168.1620591999963,None,167.16236570000183,None,167.16236570000183,None,167.16236570000183,None,168.76150267000776,None,168.76150267000776,None,168.76150267000776,None,,,,,,,,,,,,,,210,2023-04-05_14h56.13.196,Main,2022.1.1,60.02148767453243,
positive,neutral,1,l,j,,,,,,,,,0,6,6,8,,,,,,,,,main,2,2,1,neutral,positive,l,l,1,0.5845145999919623,168.7645910999272,169.763998099952,169.763998099952,None,168.7645910999272,None,168.7645910999272,None,168.7645910999272,None,170.34738896996714,None,170.34738896996714,None,170.34738896996714,None,,,,,,,,,,,,,,210,2023-04-05_14h56.13.196,Main,2022.1.1,60.02148767453243,
negative,negative,1,j,l,,,,,,,,,0,7,7,0,,,,,,,,,main,1,1,1,negative,negative,j,j,1,0.664848200045526,170.3511800999986,171.36386479996145,171.34727999998722,None,170.3511800999986,None,170.3511800999986,None,170.3511800999986,None,172.01376517000608,None,172.01376517000608,None,172.01376517000608,None,,,,,,,,,,,,,,210,2023-04-05_14h56.13.196,Main,2022.1.1,60.02148767453243,
negative,neutral,1,j,l,,,,,,,,,0,8,8,3,,,,,,,,,main,2,2,1,neutral,negative,j,j,1,0.5485814000712708,172.01678860001266,173.03052459994797,173.01389429997653,None,172.01678860001266,None,172.01678860001266,None,172.01678860001266,None,173.56383346999064,None,173.56383346999064,None,173.56383346999064,None,,,,,,,,,,,,,,210,2023-04-05_14h56.13.196,Main,2022.1.1,60.02148767453243,
neutral,positive,2,k,k,,,,,,,,,0,9,9,13,,,,,,,,,main,2,2,2,positive,neutral,k,k,1,0.5650654000928625,173.56850449997,174.5805260000052,174.5639125999296,None,173.56850449997,None,173.56850449997,None,173.56850449997,None,175.1303554699989,None,175.1303554699989,None,175.1303554699989,None,,,,,,,,,,,,,,210,2023-04-05_14h56.13.196,Main,2022.1.1,60.02148767453243,
neutral,positive,1,k,k,,,,,,,,,0,10,10,4,,,,,,,,,main,1,1,1,positive,neutral,k,k,1,0.8135161999380216,175.13398279994726,176.1471756999381,176.13055829994846,None,175.13398279994726,None,175.13398279994726,None,175.13398279994726,None,176.94465166993905,None,176.94465166993905,None,176.94465166993905,None,,,,,,,,,,,,,,210,2023-04-05_14h56.13.196,Main,2022.1.1,60.02148767453243,
negative,neutral,2,j,l,,,,,,,,,0,11,11,12,,,,,,,,,main,1,1,2,neutral,negative,j,j,1,0.7637528999475762,176.94547329994384,177.94462199998088,177.94462199998088,None,176.94547329994384,None,176.94547329994384,None,176.94547329994384,None,178.7113194699632,None,178.7113194699632,None,178.7113194699632,None,,,,,,,,,,,,,,210,2023-04-05_14h56.13.196,Main,2022.1.1,60.02148767453243,
positive,neutral,2,l,j,,,,,,,,,0,12,12,17,,,,,,,,,main,1,1,2,neutral,positive,l,l,1,0.6009670000057667,178.71414579998236,179.71380219992716,179.69712399994023,None,178.71414579998236,None,178.71414579998236,None,178.71414579998236,None,180.3137106699869,None,180.3137106699869,None,180.3137106699869,None,,,,,,,,,,,,,,210,2023-04-05_14h56.13.196,Main,2022.1.1,60.02148767453243,
negative,negative,2,j,l,,,,,,,,,0,13,13,9,,,,,,,,,main,2,2,2,negative,negative,j,j,1,0.8297434999840334,180.31671729998197,181.33035229996312,181.3137462999439,None,180.31671729998197,None,180.31671729998197,None,180.31671729998197,None,182.14488566992804,None,182.14488566992804,None,182.14488566992804,None,,,,,,,,,,,,,,210,2023-04-05_14h56.13.196,Main,2022.1.1,60.02148767453243,
positive,positive,1,l,j,,,,,,,,,0,14,14,2,,,,,,,,,main,1,1,1,positive,positive,l,l,1,0.6314783000852913,182.15107669995632,183.16364239994437,183.14699149993248,None,182.15107669995632,None,182.15107669995632,None,182.15107669995632,None,183.77795796992723,None,183.77795796992723,None,183.77795796992723,None,,,,,,,,,,,,,,210,2023-04-05_14h56.13.196,Main,2022.1.1,60.02148767453243,
negative,positive,1,j,l,,,,,,,,,0,15,15,6,,,,,,,,,main,2,2,1,positive,negative,j,j,1,0.6852339999750257,183.7816468999954,184.79693539999425,184.78032819996588,None,183.7816468999954,None,183.7816468999954,None,183.7816468999954,None,185.46358186996076,None,185.46358186996076,None,185.46358186996076,None,,,,,,,,,,,,,,210,2023-04-05_14h56.13.196,Main,2022.1.1,60.02148767453243,
negative,positive,2,j,l,,,,,,,,,0,16,16,15,,,,,,,,,main,2,2,2,positive,negative,j,j,1,0.6947498000226915,185.46831649995875,186.4904720999766,186.4680178000126,None,185.46831649995875,None,185.46831649995875,None,185.46831649995875,None,187.16106296994258,None,187.16106296994258,None,187.16106296994258,None,,,,,,,,,,,,,,210,2023-04-05_14h56.13.196,Main,2022.1.1,60.02148767453243,
positive,negative,1,l,j,,,,,,,,,0,17,17,5,,,,,,,,,main,2,2,1,negative,positive,l,l,1,0.6818965999409556,187.16288830002304,188.17772769997828,188.16107069991995,None,187.16288830002304,None,187.16288830002304,None,187.16288830002304,None,188.84444146999158,None,188.84444146999158,None,188.84444146999158,None,,,,,,,,,,,,,,210,2023-04-05_14h56.13.196,Main,2022.1.1,60.02148767453243,
positive,positive,1,l,j,,,,,,,,,1,0,18,2,,,,,,,,,main,1,1,1,positive,positive,l,l,1,0.5650149000575766,188.8493500999175,189.8635161999846,189.84687549993396,None,188.8493500999175,None,188.8493500999175,None,188.8493500999175,None,190.41114256996661,None,190.41114256996661,None,190.41114256996661,None,,,,,,,,,,,,,,210,2023-04-05_14h56.13.196,Main,2022.1.1,60.02148767453243,
positive,positive,2,l,j,,,,,,,,,1,1,19,11,,,,,,,,,main,2,2,2,positive,positive,l,l,1,0.6343717999989167,190.41722219996154,191.43013320001774,191.41354979993775,None,190.41722219996154,None,190.41722219996154,None,190.41722219996154,None,192.04688946995884,None,192.04688946995884,None,192.04688946995884,None,,,,,,,,,,,,,,210,2023-04-05_14h56.13.196,Main,2022.1.1,60.02148767453243,
negative,negative,1,j,l,,,,,,,,,1,2,20,0,,,,,,,,,main,2,2,1,negative,negative,j,j,1,0.6149118000175804,192.05011229997035,193.0634088999359,193.0468340999214,None,192.05011229997035,None,192.05011229997035,None,192.05011229997035,None,193.66338306991383,None,193.66338306991383,None,193.66338306991383,None,,,,,,,,,,,,,,210,2023-04-05_14h56.13.196,Main,2022.1.1,60.02148767453243,
positive,negative,1,l,j,,,,,,,,,1,3,21,5,,,,,,,,,main,1,1,1,negative,positive,l,l,1,0.6152804000303149,193.66658179997467,194.6800894999178,194.66347349993885,None,193.66658179997467,None,193.66658179997467,None,193.66658179997467,None,195.2800904699834,None,195.2800904699834,None,195.2800904699834,None,,,,,,,,,,,,,,210,2023-04-05_14h56.13.196,Main,2022.1.1,60.02148767453243,
neutral,negative,2,k,k,,,,,,,,,1,4,22,16,,,,,,,,,main,2,2,2,negative,neutral,k,k,1,0.6124090000521392,195.28437280002981,196.2938197000185,196.27663009997923,None,195.28437280002981,None,195.28437280002981,None,195.28437280002981,None,196.89417616999708,None,196.89417616999708,None,196.89417616999708,None,,,,,,,,,,,,,,210,2023-04-05_14h56.13.196,Main,2022.1.1,60.02148767453243,
negative,positive,2,j,l,,,,,,,,,1,5,23,15,,,,,,,,,main,2,2,2,positive,negative,j,j,1,0.6817035999847576,196.89421840000432,197.8942235999275,197.8942235999275,None,196.89421840000432,None,196.89421840000432,None,196.89421840000432,None,198.57752726995386,None,198.57752726995386,None,198.57752726995386,None,,,,,,,,,,,,,,210,2023-04-05_14h56.13.196,Main,2022.1.1,60.02148767453243,
neutral,positive,2,k,k,,,,,,,,,1,6,24,13,,,,,,,,,main,2,2,2,positive,neutral,k,k,1,0.6652018999448046,198.57796449994203,199.57755589997396,199.57755589997396,None,198.57796449994203,None,198.57796449994203,None,198.57796449994203,None,200.244161169976,None,200.244161169976,None,200.244161169976,None,,,,,,,,,,,,,,210,2023-04-05_14h56.13.196,Main,2022.1.1,60.02148767453243,
negative,neutral,2,j,l,,,,,,,,,1,7,25,12,,,,,,,,,main,1,1,2,neutral,negative,j,j,1,0.666484099929221,200.24550790002104,201.24672679998912,201.24672679998912,None,200.24550790002104,None,200.24550790002104,None,200.24550790002104,None,201.9132695699809,None,201.9132695699809,None,201.9132695699809,None,,,,,,,,,,,,,,210,2023-04-05_14h56.13.196,Main,2022.1.1,60.02148767453243,
neutral,neutral,1,k,k,,,,,,,,,1,8,26,1,,,,,,,,,main,1,1,1,neutral,neutral,k,k,1,0.6810238999314606,201.91625989996828,202.9299638000084,202.913325099973,None,201.91625989996828,None,201.91625989996828,None,201.91625989996828,None,203.59582706994843,None,203.59582706994843,None,203.59582706994843,None,,,,,,,,,,,,,,210,2023-04-05_14h56.13.196,Main,2022.1.1,60.02148767453243,
positive,neutral,1,l,j,,,,,,,,,1,9,27,8,,,,,,,,,main,1,1,1,neutral,positive,l,l,1,0.6824517999775708,203.601239599986,204.61321590002626,204.596630099928,None,203.601239599986,None,203.601239599986,None,203.601239599986,None,205.27986936992966,None,205.27986936992966,None,205.27986936992966,None,,,,,,,,,,,,,,210,2023-04-05_14h56.13.196,Main,2022.1.1,60.02148767453243,
positive,neutral,2,l,j,,,,,,,,,1,10,28,17,,,,,,,,,main,2,2,2,neutral,positive,l,l,1,0.5818867000052705,205.28287100000307,206.29652949993033,206.27993780001998,None,205.28287100000307,None,205.28287100000307,None,205.28287100000307,None,206.86313346994575,None,206.86313346994575,None,206.86313346994575,None,,,,,,,,,,,,,,210,2023-04-05_14h56.13.196,Main,2022.1.1,60.02148767453243,
negative,positive,1,j,l,,,,,,,,,1,11,29,6,,,,,,,,,main,2,2,1,positive,negative,j,j,1,0.6962494999170303,206.86623159993906,207.87980679993052,207.86322840000503,None,206.86623159993906,None,206.86623159993906,None,206.86623159993906,None,208.5605624699965,None,208.5605624699965,None,208.5605624699965,None,,,,,,,,,,,,,,210,2023-04-05_14h56.13.196,Main,2022.1.1,60.02148767453243,
neutral,positive,1,k,k,,,,,,,,,1,12,30,4,,,,,,,,,main,1,1,1,positive,neutral,k,k,1,0.5979937999509275,208.5609414000064,209.56065459991805,209.56065459991805,None,208.5609414000064,None,208.5609414000064,None,208.5609414000064,None,210.1606217699591,None,210.1606217699591,None,210.1606217699591,None,,,,,,,,,,,,,,210,2023-04-05_14h56.13.196,Main,2022.1.1,60.02148767453243,
positive,negative,2,l,j,,,,,,,,,1,13,31,14,,,,,,,,,main,2,2,2,negative,positive,l,l,1,0.5985576999373734,210.16061179991812,211.1606561000226,211.1606561000226,None,210.16061179991812,None,210.16061179991812,None,210.16061179991812,None,211.76061346998904,None,211.76061346998904,None,211.76061346998904,None,,,,,,,,,,,,,,210,2023-04-05_14h56.13.196,Main,2022.1.1,60.02148767453243,
neutral,neutral,2,k,k,,,,,,,,,1,14,32,10,,,,,,,,,main,2,2,2,neutral,neutral,k,k,1,0.632961199968122,211.76102939993143,212.76317659998313,212.76317659998313,None,211.76102939993143,None,211.76102939993143,None,211.76102939993143,None,213.39484846999403,None,213.39484846999403,None,213.39484846999403,None,,,,,,,,,,,,,,210,2023-04-05_14h56.13.196,Main,2022.1.1,60.02148767453243,
negative,neutral,1,j,l,,,,,,,,,1,15,33,3,,,,,,,,,main,2,2,1,neutral,negative,j,j,1,0.5998499999986961,213.4009571999777,214.41304369992577,214.39642579993233,None,213.4009571999777,None,213.4009571999777,None,213.4009571999777,None,214.99644916993566,None,214.99644916993566,None,214.99644916993566,None,,,,,,,,,,,,,,210,2023-04-05_14h56.13.196,Main,2022.1.1,60.02148767453243,
negative,negative,2,j,l,,,,,,,,,1,16,34,9,,,,,,,,,main,1,1,2,negative,negative,j,j,1,0.7146705000195652,214.99966039997526,216.01299630000722,215.99640039994847,None,214.99966039997526,None,214.99966039997526,None,214.99966039997526,None,216.71291657001711,None,216.71291657001711,None,216.71291657001711,None,,,,,,,,,,,,,,210,2023-04-05_14h56.13.196,Main,2022.1.1,60.02148767453243,
neutral,negative,1,k,k,,,,,,,,,1,17,35,7,,,,,,,,,main,2,2,1,negative,neutral,k,k,1,0.6130798000376672,216.71581339999102,217.72961409995332,217.71303879993502,None,216.71581339999102,None,216.71581339999102,None,216.71581339999102,None,218.32743596995715,None,218.32743596995715,None,218.32743596995715,None,,,,,,,,,,,,,,210,2023-04-05_14h56.13.196,Main,2022.1.1,60.02148767453243,
positive,positive,1,l,j,,,,,,,,,2,0,36,2,,,,,,,,,main,2,2,1,positive,positive,l,l,1,0.61995520000346,218.33349779993296,219.34625049994793,219.32965790003072,None,218.33349779993296,None,218.33349779993296,None,218.33349779993296,None,219.94630276993848,None,219.94630276993848,None,219.94630276993848,None,,,,,,,,,,,,,,210,2023-04-05_14h56.13.196,Main,2022.1.1,60.02148767453243,
negative,negative,2,j,l,,,,,,,,,2,1,37,9,,,,,,,,,main,2,2,2,negative,negative,j,j,1,0.6433930000057444,219.95761729998048,220.9604220999172,220.94369560002815,None,219.95761729998048,None,219.95761729998048,None,219.95761729998048,None,221.59370836999733,None,221.59370836999733,None,221.59370836999733,None,,,,,,,,,,,,,,210,2023-04-05_14h56.13.196,Main,2022.1.1,60.02148767453243,
neutral,positive,2,k,k,,,,,,,,,2,2,38,13,,,,,,,,,main,1,1,2,positive,neutral,k,k,1,0.6485968000488356,221.59389999997802,222.59374839998782,222.59374839998782,None,221.59389999997802,None,221.59389999997802,None,221.59389999997802,None,223.2436734699877,None,223.2436734699877,None,223.2436734699877,None,,,,,,,,,,,,,,210,2023-04-05_14h56.13.196,Main,2022.1.1,60.02148767453243,
positive,negative,2,l,j,,,,,,,,,2,3,39,14,,,,,,,,,main,1,1,2,negative,positive,l,l,1,0.6315550999715924,223.24443550000433,224.24371469998732,224.24371469998732,None,223.24443550000433,None,223.24443550000433,None,223.24443550000433,None,224.87701986997854,None,224.87701986997854,None,224.87701986997854,None,,,,,,,,,,,,,,210,2023-04-05_14h56.13.196,Main,2022.1.1,60.02148767453243,
positive,neutral,2,l,j,,,,,,,,,2,4,40,17,,,,,,,,,main,1,1,2,neutral,positive,l,l,1,0.5841317999875173,224.89632850000635,225.89614939992316,225.87954390002415,None,224.89632850000635,None,224.89632850000635,None,224.89632850000635,None,226.46283626998775,None,226.46283626998775,None,226.46283626998775,None,,,,,,,,,,,,,,210,2023-04-05_14h56.13.196,Main,2022.1.1,60.02148767453243,
negative,neutral,2,j,l,,,,,,,,,2,5,41,12,,,,,,,,,main,2,2,2,neutral,negative,j,j,1,0.5801274999976158,226.46584610000718,227.4795119999908,227.46284779999405,None,226.46584610000718,None,226.46584610000718,None,226.46584610000718,None,228.04443946992978,None,228.04443946992978,None,228.04443946992978,None,,,,,,,,,,,,,,210,2023-04-05_14h56.13.196,Main,2022.1.1,60.02148767453243,
neutral,neutral,1,k,k,,,,,,,,,2,6,42,1,,,,,,,,,main,2,2,1,neutral,neutral,k,k,1,0.6166883000405505,228.0506409999216,229.06277750001755,229.04615499998908,None,228.0506409999216,None,228.0506409999216,None,228.0506409999216,None,229.6626882699784,None,229.6626882699784,None,229.6626882699784,None,,,,,,,,,,,,,,210,2023-04-05_14h56.13.196,Main,2022.1.1,60.02148767453243,
negative,negative,1,j,l,,,,,,,,,2,7,43,0,,,,,,,,,main,1,1,1,negative,negative,j,j,1,0.8482582001015544,229.6657237999607,230.67934449994937,230.662781800027,None,229.6657237999607,None,229.6657237999607,None,229.6657237999607,None,231.5126978700282,None,231.5126978700282,None,231.5126978700282,None,,,,,,,,,,,,,,210,2023-04-05_14h56.13.196,Main,2022.1.1,60.02148767453243,
neutral,neutral,2,k,k,,,,,,,,,2,8,44,10,,,,,,,,,main,2,2,2,neutral,neutral,k,k,1,0.6292057000100613,231.5156739000231,232.52387439995073,232.5091552999802,None,231.5156739000231,None,231.5156739000231,None,231.5156739000231,None,233.1434366699541,None,233.1434366699541,None,233.1434366699541,None,,,,,,,,,,,,,,210,2023-04-05_14h56.13.196,Main,2022.1.1,60.02148767453243,
positive,positive,2,l,j,,,,,,,,,2,9,45,11,,,,,,,,,main,2,2,2,positive,positive,l,l,1,0.5488107999553904,233.14347010001075,234.14348760002758,234.14348760002758,None,233.14347010001075,None,233.14347010001075,None,233.14347010001075,None,234.69343466998544,None,234.69343466998544,None,234.69343466998544,None,,,,,,,,,,,,,,210,2023-04-05_14h56.13.196,Main,2022.1.1,60.02148767453243,
neutral,negative,2,k,k,,,,,,,,,2,10,46,16,,,,,,,,,main,2,2,2,negative,neutral,k,k,1,0.6153831999981776,234.69380499992985,235.69346430001315,235.69346430001315,None,234.69380499992985,None,234.69380499992985,None,234.69380499992985,None,236.3101531700231,None,236.3101531700231,None,236.3101531700231,None,,,,,,,,,,,,,,210,2023-04-05_14h56.13.196,Main,2022.1.1,60.02148767453243,
negative,positive,1,j,l,,,,,,,,,2,11,47,6,,,,,,,,,main,2,2,1,positive,negative,j,j,1,0.6004718000767753,236.31398680002894,237.32916949992068,237.31270200002473,None,236.31398680002894,None,236.31398680002894,None,236.31398680002894,None,237.912570770015,None,237.912570770015,None,237.912570770015,None,,,,,,,,,,,,,,210,2023-04-05_14h56.13.196,Main,2022.1.1,60.02148767453243,
positive,negative,1,l,j,,,,,,,,,2,12,48,5,,,,,,,,,main,1,1,1,negative,positive,l,l,1,0.5651933000190184,237.91568570001982,238.929181399988,238.9126358999638,None,237.91568570001982,None,237.91568570001982,None,237.91568570001982,None,239.4792274700012,None,239.4792274700012,None,239.4792274700012,None,,,,,,,,,,,,,,210,2023-04-05_14h56.13.196,Main,2022.1.1,60.02148767453243,
negative,neutral,1,j,l,,,,,,,,,2,13,49,3,,,,,,,,,main,1,1,1,neutral,negative,j,j,1,0.7482878000009805,239.48225769994315,240.49584959994536,240.47922009998,None,239.48225769994315,None,239.48225769994315,None,239.48225769994315,None,241.22917356994003,None,241.22917356994003,None,241.22917356994003,None,,,,,,,,,,,,,,210,2023-04-05_14h56.13.196,Main,2022.1.1,60.02148767453243,
positive,neutral,1,l,j,,,,,,,,,2,14,50,8,,,,,,,,,main,2,2,1,neutral,positive,l,l,1,0.5650933999568224,241.23225300002377,242.2458002999192,242.22920429997612,None,241.23225300002377,None,241.23225300002377,None,241.23225300002377,None,242.79574346996378,None,242.79574346996378,None,242.79574346996378,None,,,,,,,,,,,,,,210,2023-04-05_14h56.13.196,Main,2022.1.1,60.02148767453243,
neutral,positive,1,k,k,,,,,,,,,2,15,51,4,,,,,,,,,main,2,2,1,positive,neutral,k,k,1,0.5482007000828162,242.79901169997174,243.81241240003146,243.79583109996747,None,242.79901169997174,None,242.79901169997174,None,242.79901169997174,None,244.34565916995052,None,244.34565916995052,None,244.34565916995052,None,,,,,,,,,,,,,,210,2023-04-05_14h56.13.196,Main,2022.1.1,60.02148767453243,
neutral,negative,1,k,k,,,,,,,,,2,16,52,7,,,,,,,,,main,2,2,1,negative,neutral,k,k,1,0.5792998000979424,244.34996929997578,245.35988729994278,245.34322169993538,None,244.34996929997578,None,244.34996929997578,None,244.34996929997578,None,245.9265259699896,None,245.9265259699896,None,245.9265259699896,None,,,,,,,,,,,,,,210,2023-04-05_14h56.13.196,Main,2022.1.1,60.02148767453243,
negative,positive,2,j,l,,,,,,,,,2,17,53,15,,,,,,,,,main,1,1,2,positive,negative,j,j,1,0.6484632999636233,245.9265462999465,246.9265935999574,246.9265935999574,None,245.9265462999465,None,245.9265462999465,None,245.9265462999465,None,247.57652116997633,None,247.57652116997633,None,247.57652116997633,None,,,,,,,,,,,,,,210,2023-04-05_14h56.13.196,Main,2022.1.1,60.02148767453243,
neutral,neutral,2,k,k,,,,,,,,,3,0,54,10,,,,,,,,,main,2,2,2,neutral,neutral,k,k,1,0.5806964000221342,247.57827699999325,248.59318889991846,248.57654449995607,None,247.57827699999325,None,247.57827699999325,None,247.57827699999325,None,249.15988216991536,None,249.15988216991536,None,249.15988216991536,None,,,,,,,,,,,,,,210,2023-04-05_14h56.13.196,Main,2022.1.1,60.02148767453243,
negative,neutral,2,j,l,,,,,,,,,3,1,55,12,,,,,,,,,main,1,1,2,neutral,negative,j,j,1,0.7035630000755191,249.16299719992094,250.16232699993998,250.14575169992168,None,249.16299719992094,None,249.16299719992094,None,249.16299719992094,None,250.86227097001392,None,250.86227097001392,None,250.86227097001392,None,,,,,,,,,,,,,,210,2023-04-05_14h56.13.196,Main,2022.1.1,60.02148767453243,
negative,positive,2,j,l,,,,,,,,,3,2,56,15,,,,,,,,,main,1,1,2,positive,negative,j,j,1,0.6106334000360221,250.86799479997717,251.87893539993092,251.86234380002134,None,250.86799479997717,None,250.86799479997717,None,250.86799479997717,None,252.47697506996337,None,252.47697506996337,None,252.47697506996337,None,,,,,,,,,,,,,,210,2023-04-05_14h56.13.196,Main,2022.1.1,60.02148767453243,
negative,neutral,1,j,l,,,,,,,,,3,3,57,3,,,,,,,,,main,1,1,1,neutral,negative,j,j,1,0.6335299999918789,252.48361659992952,253.4955617999658,253.47895090002567,None,252.48361659992952,None,252.48361659992952,None,252.48361659992952,None,254.11219347000588,None,254.11219347000588,None,254.11219347000588,None,,,,,,,,,,,,,,210,2023-04-05_14h56.13.196,Main,2022.1.1,60.02148767453243,
neutral,positive,2,k,k,,,,,,,,,3,4,58,13,,,,,,,,,main,2,2,2,positive,neutral,k,k,1,0.6302979000611231,254.11556079995353,255.12887549994048,255.11225320002995,None,254.11556079995353,None,254.11556079995353,None,254.11556079995353,None,255.74360786995385,None,255.74360786995385,None,255.74360786995385,None,,,,,,,,,,,,,,210,2023-04-05_14h56.13.196,Main,2022.1.1,60.02148767453243,
neutral,positive,1,k,k,,,,,,,,,3,5,59,4,,,,,,,,,main,1,1,1,positive,neutral,k,k,1,0.5972650999901816,255.74991090002004,256.7596197000239,256.74295220000204,None,255.74991090002004,None,255.74991090002004,None,255.74991090002004,None,257.3429907700047,None,257.3429907700047,None,257.3429907700047,None,,,,,,,,,,,,,,210,2023-04-05_14h56.13.196,Main,2022.1.1,60.02148767453243,
positive,negative,2,l,j,,,,,,,,,3,6,60,14,,,,,,,,,main,1,1,2,negative,positive,l,l,1,0.7485707000596449,257.3432053999277,258.342995999963,258.342995999963,None,257.3432053999277,None,257.3432053999277,None,257.3432053999277,None,259.0929850699613,None,259.0929850699613,None,259.0929850699613,None,,,,,,,,,,,,,,210,2023-04-05_14h56.13.196,Main,2022.1.1,60.02148767453243,
positive,neutral,2,l,j,,,,,,,,,3,7,61,17,,,,,,,,,main,1,1,2,neutral,positive,l,l,1,0.5983962001046166,259.0933786999667,260.09299409994856,260.09299409994856,None,259.0933786999667,None,259.0933786999667,None,259.0933786999667,None,260.6929865699494,None,260.6929865699494,None,260.6929865699494,None,,,,,,,,,,,,,,210,2023-04-05_14h56.13.196,Main,2022.1.1,60.02148767453243,
neutral,negative,2,k,k,,,,,,,,,3,8,62,16,,,,,,,,,main,1,1,2,negative,neutral,k,k,1,0.6175404000096023,260.6966467000311,261.7120911999373,261.6954754999606,None,260.6966467000311,None,260.6966467000311,None,260.6966467000311,None,262.3121420699172,None,262.3121420699172,None,262.3121420699172,None,,,,,,,,,,,,,,210,2023-04-05_14h56.13.196,Main,2022.1.1,60.02148767453243,
negative,negative,1,j,l,,,,,,,,,3,9,63,0,,,,,,,,,main,2,2,1,negative,negative,j,j,1,0.7320235999068245,262.31612229999155,263.3286899999948,263.31209679995663,None,262.31612229999155,None,262.31612229999155,None,262.31612229999155,None,264.04554896999616,None,264.04554896999616,None,264.04554896999616,None,,,,,,,,,,,,,,210,2023-04-05_14h56.13.196,Main,2022.1.1,60.02148767453243,
positive,neutral,1,l,j,,,,,,,,,3,10,64,8,,,,,,,,,main,1,1,1,neutral,positive,l,l,1,0.7122323999647051,264.04937050002627,265.0620106999995,265.04535919998307,None,264.04937050002627,None,264.04937050002627,None,264.04937050002627,None,265.75951697002165,None,265.75951697002165,None,265.75951697002165,None,,,,,,,,,,,,,,210,2023-04-05_14h56.13.196,Main,2022.1.1,60.02148767453243,
neutral,neutral,1,k,k,,,,,,,,,3,11,65,1,,,,,,,,,main,1,1,1,neutral,neutral,k,k,1,0.6844590000109747,265.76469909993466,266.778639899916,266.7453728999244,None,265.76469909993466,None,265.76469909993466,None,265.76469909993466,None,267.44547137001064,None,267.44547137001064,None,267.44547137001064,None,,,,,,,,,,,,,,210,2023-04-05_14h56.13.196,Main,2022.1.1,60.02148767453243,
positive,negative,1,l,j,,,,,,,,,3,12,66,5,,,,,,,,,main,1,1,1,negative,positive,l,l,1,0.812410100013949,267.4492639999371,268.46191149996594,268.4453499999363,None,267.4492639999371,None,267.4492639999371,None,267.4492639999371,None,269.2594070699997,None,269.2594070699997,None,269.2594070699997,None,,,,,,,,,,,,,,210,2023-04-05_14h56.13.196,Main,2022.1.1,60.02148767453243,
negative,positive,1,j,l,,,,,,,,,3,13,67,6,,,,,,,,,main,1,1,1,positive,negative,j,j,1,0.7487983000464737,269.26104769995436,270.2760816999944,270.2594168999931,None,269.26104769995436,None,269.26104769995436,None,269.26104769995436,None,271.0093713699607,None,271.0093713699607,None,271.0093713699607,None,,,,,,,,,,,,,,210,2023-04-05_14h56.13.196,Main,2022.1.1,60.02148767453243,
positive,positive,1,l,j,,,,,,,,,3,14,68,2,,,,,,,,,main,1,1,1,positive,positive,l,l,1,0.6974947999697179,271.01077940000687,272.02606499998365,272.00939969997853,None,271.01077940000687,None,271.01077940000687,None,271.01077940000687,None,272.70940396992955,None,272.70940396992955,None,272.70940396992955,None,,,,,,,,,,,,,,210,2023-04-05_14h56.13.196,Main,2022.1.1,60.02148767453243,
positive,positive,2,l,j,,,,,,,,,3,15,69,11,,,,,,,,,main,2,2,2,positive,positive,l,l,1,0.5844821999780834,272.71573389996774,273.7285396999214,273.71195469994564,None,272.71573389996774,None,272.71573389996774,None,272.71573389996774,None,274.2952983699506,None,274.2952983699506,None,274.2952983699506,None,,,,,,,,,,,,,,210,2023-04-05_14h56.13.196,Main,2022.1.1,60.02148767453243,
negative,negative,2,j,l,,,,,,,,,3,16,70,9,,,,,,,,,main,2,2,2,negative,negative,j,j,1,0.6469596000388265,274.298182599945,275.31187039997894,275.29520739999134,None,274.298182599945,None,274.298182599945,None,274.298182599945,None,275.9429971699137,None,275.9429971699137,None,275.9429971699137,None,,,,,,,,,,,,,,210,2023-04-05_14h56.13.196,Main,2022.1.1,60.02148767453243,
neutral,negative,1,k,k,,,,,,,,,3,17,71,7,,,,,,,,,main,1,1,1,negative,neutral,k,k,1,0.6639986999798566,275.9491014999803,276.9617794000078,276.9451514999382,None,275.9491014999803,None,275.9491014999803,None,275.9491014999803,None,277.6094761699205,None,277.6094761699205,None,277.6094761699205,None,,,,,,,,,,,,,,210,2023-04-05_14h56.13.196,Main,2022.1.1,60.02148767453243,
negative,positive,1,j,l,,,,,,,,,4,0,72,6,,,,,,,,,main,1,1,1,positive,negative,j,j,1,0.6841848000185564,277.6154335999163,278.6283874999499,278.595189500018,None,277.6154335999163,None,277.6154335999163,None,277.6154335999163,None,279.2950163700152,None,279.2950163700152,None,279.2950163700152,None,,,,,,,,,,,,,,210,2023-04-05_14h56.13.196,Main,2022.1.1,60.02148767453243,
positive,neutral,1,l,j,,,,,,,,,4,1,73,8,,,,,,,,,main,2,2,1,neutral,positive,l,l,1,0.7294079000130296,279.2977045000298,280.3091569999233,280.29250189999584,None,279.2977045000298,None,279.2977045000298,None,279.2977045000298,None,281.02580946998205,None,281.02580946998205,None,281.02580946998205,None,,,,,,,,,,,,,,210,2023-04-05_14h56.13.196,Main,2022.1.1,60.02148767453243,
neutral,negative,1,k,k,,,,,,,,,4,2,74,7,,,,,,,,,main,1,1,1,negative,neutral,k,k,1,0.6484681000001729,281.0258371999953,282.02585309999995,282.02585309999995,None,281.0258371999953,None,281.0258371999953,None,281.0258371999953,None,282.6758682699874,None,282.6758682699874,None,282.6758682699874,None,,,,,,,,,,,,,,210,2023-04-05_14h56.13.196,Main,2022.1.1,60.02148767453243,
neutral,negative,2,k,k,,,,,,,,,4,3,75,16,,,,,,,,,main,2,2,2,negative,neutral,k,k,1,0.7319522999459878,282.6822017999366,283.6949532999424,283.6783369999612,None,282.6822017999366,None,282.6822017999366,None,282.6822017999366,None,284.40947316994425,None,284.40947316994425,None,284.40947316994425,None,,,,,,,,,,,,,,210,2023-04-05_14h56.13.196,Main,2022.1.1,60.02148767453243,
negative,neutral,2,j,l,,,,,,,,,4,4,76,12,,,,,,,,,main,2,2,2,neutral,negative,j,j,1,0.6478973000776023,284.4155010000104,285.4282060000114,285.41166270000394,None,284.4155010000104,None,284.4155010000104,None,284.4155010000104,None,286.05910986999515,None,286.05910986999515,None,286.05910986999515,None,,,,,,,,,,,,,,210,2023-04-05_14h56.13.196,Main,2022.1.1,60.02148767453243,
negative,neutral,1,j,l,,,,,,,,,4,5,77,3,,,,,,,,,main,2,2,1,neutral,negative,j,j,1,0.7998574000084773,286.06617509992793,287.0781889000209,287.0616133000003,None,286.06617509992793,None,286.06617509992793,None,286.06617509992793,None,287.8615134699503,None,287.8615134699503,None,287.8615134699503,None,,,,,,,,,,,,,,210,2023-04-05_14h56.13.196,Main,2022.1.1,60.02148767453243,
positive,neutral,2,l,j,,,,,,,,,4,6,78,17,,,,,,,,,main,2,2,2,neutral,positive,l,l,1,0.6298325000097975,287.8644233000232,288.87815060000867,288.86152049992234,None,287.8644233000232,None,287.8644233000232,None,287.8644233000232,None,289.4926501699956,None,289.4926501699956,None,289.4926501699956,None,,,,,,,,,,,,,,210,2023-04-05_14h56.13.196,Main,2022.1.1,60.02148767453243,
positive,negative,1,l,j,,,,,,,,,4,7,79,5,,,,,,,,,main,2,2,1,negative,positive,l,l,1,0.6478976999642327,289.49925090000033,290.50892359996215,290.47697269998025,None,289.49925090000033,None,289.49925090000033,None,289.49925090000033,None,291.1422390699154,None,291.1422390699154,None,291.1422390699154,None,,,,,,,,,,,,,,210,2023-04-05_14h56.13.196,Main,2022.1.1,60.02148767453243,
positive,negative,2,l,j,,,,,,,,,4,8,80,14,,,,,,,,,main,2,2,2,negative,positive,l,l,1,0.5317998999962583,291.1442971000215,292.15896439994685,292.14229879993945,None,291.1442971000215,None,291.1442971000215,None,291.1442971000215,None,292.6756320699351,None,292.6756320699351,None,292.6756320699351,None,,,,,,,,,,,,,,210,2023-04-05_14h56.13.196,Main,2022.1.1,60.02148767453243,
negative,negative,1,j,l,,,,,,,,,4,9,81,0,,,,,,,,,main,2,2,1,negative,negative,j,j,1,0.6484075000043958,292.679022999946,293.67817329999525,293.67817329999525,None,292.679022999946,None,292.679022999946,None,292.679022999946,None,294.3255985699361,None,294.3255985699361,None,294.3255985699361,None,,,,,,,,,,,,,,210,2023-04-05_14h56.13.196,Main,2022.1.1,60.02148767453243,
neutral,positive,2,k,k,,,,,,,,,4,10,82,13,,,,,,,,,main,2,2,2,positive,neutral,k,k,1,0.5986811000620946,294.3321752999909,295.34470789995976,295.3281076999847,None,294.3321752999909,None,294.3321752999909,None,294.3321752999909,None,295.92590926995035,None,295.92590926995035,None,295.92590926995035,None,,,,,,,,,,,,,,210,2023-04-05_14h56.13.196,Main,2022.1.1,60.02148767453243,
negative,negative,2,j,l,,,,,,,,,4,11,83,9,,,,,,,,,main,2,2,2,negative,negative,j,j,1,0.6161436999682337,295.9327380999457,296.9446806999622,296.9280633999733,None,295.9327380999457,None,295.9327380999457,None,295.9327380999457,None,297.5446212699171,None,297.5446212699171,None,297.5446212699171,None,,,,,,,,,,,,,,210,2023-04-05_14h56.13.196,Main,2022.1.1,60.02148767453243,
positive,positive,2,l,j,,,,,,,,,4,12,84,11,,,,,,,,,main,2,2,2,positive,positive,l,l,1,0.6468019000021741,297.54751369997393,298.5612720999634,298.54472669993993,None,297.54751369997393,None,297.54751369997393,None,297.54751369997393,None,299.1924290700117,None,299.1924290700117,None,299.1924290700117,None,,,,,,,,,,,,,,210,2023-04-05_14h56.13.196,Main,2022.1.1,60.02148767453243,
neutral,neutral,2,k,k,,,,,,,,,4,13,85,10,,,,,,,,,main,1,1,2,neutral,neutral,k,k,1,0.6823003001045436,299.1989012999693,300.20878059999086,300.19210490002297,None,299.1989012999693,None,299.1989012999693,None,299.1989012999693,None,300.8754111699527,None,300.8754111699527,None,300.8754111699527,None,,,,,,,,,,,,,,210,2023-04-05_14h56.13.196,Main,2022.1.1,60.02148767453243,
neutral,neutral,1,k,k,,,,,,,,,4,14,86,1,,,,,,,,,main,2,2,1,neutral,neutral,k,k,1,0.6140953999711201,300.8921133999247,301.89209699991625,301.8754287000047,None,300.8921133999247,None,300.8921133999247,None,300.8921133999247,None,302.49208986992016,None,302.49208986992016,None,302.49208986992016,None,,,,,,,,,,,,,,210,2023-04-05_14h56.13.196,Main,2022.1.1,60.02148767453243,
positive,positive,1,l,j,,,,,,,,,4,15,87,2,,,,,,,,,main,2,2,1,positive,positive,l,l,1,0.6324559999629855,302.49575080000795,303.5112315999577,303.49455209996086,None,302.49575080000795,None,302.49575080000795,None,302.49575080000795,None,304.12619606999215,None,304.12619606999215,None,304.12619606999215,None,,,,,,,,,,,,,,210,2023-04-05_14h56.13.196,Main,2022.1.1,60.02148767453243,
negative,positive,2,j,l,,,,,,,,,4,16,88,15,,,,,,,,,main,2,2,2,positive,negative,j,j,1,0.647749499999918,304.1326580999885,305.1444975999184,305.1279129999457,None,304.1326580999885,None,304.1326580999885,None,304.1326580999885,None,305.7756238699658,None,305.7756238699658,None,305.7756238699658,None,,,,,,,,,,,,,,210,2023-04-05_14h56.13.196,Main,2022.1.1,60.02148767453243,
neutral,positive,1,k,k,,,,,,,,,4,17,89,4,,,,,,,,,main,2,2,1,positive,neutral,k,k,1,0.598361499956809,305.78248609998263,306.79447149997577,306.7778742000228,None,305.78248609998263,None,305.78248609998263,None,305.78248609998263,None,307.3755214699777,None,307.3755214699777,None,307.3755214699777,None,,,,,,,,,,,,,,210,2023-04-05_14h56.13.196,Main,2022.1.1,60.02148767453243,
neutral,negative,1,k,k,,,,,,,,,5,0,90,7,,,,,,,,,main,1,1,1,negative,neutral,k,k,1,0.5482213000068441,307.38181549997535,308.3944752999814,308.377797299996,None,307.38181549997535,None,307.38181549997535,None,307.38181549997535,None,308.9255966700148,None,308.9255966700148,None,308.9255966700148,None,,,,,,,,,,,,,,210,2023-04-05_14h56.13.196,Main,2022.1.1,60.02148767453243,
positive,positive,1,l,j,,,,,,,,,5,1,91,2,,,,,,,,,main,2,2,1,positive,positive,l,l,1,0.5980374000500888,308.93187979992945,309.94439339998644,309.9277976999292,None,308.93187979992945,None,308.93187979992945,None,308.93187979992945,None,310.5251413700171,None,310.5251413700171,None,310.5251413700171,None,,,,,,,,,,,,,,210,2023-04-05_14h56.13.196,Main,2022.1.1,60.02148767453243,
negative,neutral,2,j,l,,,,,,,,,5,2,92,12,,,,,,,,,main,2,2,2,neutral,negative,j,j,1,0.5985558999236673,310.5251842000289,311.52519650000613,311.52519650000613,None,310.5251842000289,None,310.5251842000289,None,310.5251842000289,None,312.1251982699614,None,312.1251982699614,None,312.1251982699614,None,,,,,,,,,,,,,,210,2023-04-05_14h56.13.196,Main,2022.1.1,60.02148767453243,
neutral,positive,1,k,k,,,,,,,,,5,3,93,4,,,,,,,,,main,2,2,1,positive,neutral,k,k,1,0.699088399996981,312.12519259995315,313.1277517999988,313.1277517999988,None,312.12519259995315,None,312.12519259995315,None,312.12519259995315,None,313.8252858699998,None,313.8252858699998,None,313.8252858699998,None,,,,,,,,,,,,,,210,2023-04-05_14h56.13.196,Main,2022.1.1,60.02148767453243,
neutral,negative,2,k,k,,,,,,,,,5,4,94,16,,,,,,,,,main,2,2,2,negative,neutral,k,k,1,0.5846852000104263,313.83216260001063,314.84430509991944,314.8277088999748,None,313.83216260001063,None,313.83216260001063,None,313.83216260001063,None,315.4119858699851,None,315.4119858699851,None,315.4119858699851,None,,,,,,,,,,,,,,210,2023-04-05_14h56.13.196,Main,2022.1.1,60.02148767453243,
positive,neutral,1,l,j,,,,,,,,,5,5,95,8,,,,,,,,,main,2,2,1,neutral,positive,l,l,1,0.6107142000691965,315.41655730002094,316.4276117000263,316.4109703999711,None,315.41655730002094,None,315.41655730002094,None,315.41655730002094,None,317.02513286995236,None,317.02513286995236,None,317.02513286995236,None,,,,,,,,,,,,,,210,2023-04-05_14h56.13.196,Main,2022.1.1,60.02148767453243,
negative,positive,1,j,l,,,,,,,,,5,6,96,6,,,,,,,,,main,1,1,1,positive,negative,j,j,1,0.6987197999842465,317.0310188999865,318.04424049996305,318.02767430001404,None,317.0310188999865,None,317.0310188999865,None,317.0310188999865,None,318.72567706997506,None,318.72567706997506,None,318.72567706997506,None,,,,,,,,,,,,,,210,2023-04-05_14h56.13.196,Main,2022.1.1,60.02148767453243,
neutral,neutral,1,k,k,,,,,,,,,5,7,97,1,,,,,,,,,main,2,2,1,neutral,neutral,k,k,1,0.6646961000515148,318.7318071000045,319.7441871999763,319.72758199996315,None,318.7318071000045,None,318.7318071000045,None,318.7318071000045,None,320.3916936699534,None,320.3916936699534,None,320.3916936699534,None,,,,,,,,,,,,,,210,2023-04-05_14h56.13.196,Main,2022.1.1,60.02148767453243,
positive,negative,2,l,j,,,,,,,,,5,8,98,14,,,,,,,,,main,1,1,2,negative,positive,l,l,1,0.7484204999636859,320.391688899952,321.39169700001366,321.39169700001366,None,320.391688899952,None,320.391688899952,None,320.391688899952,None,322.1416892699199,None,322.1416892699199,None,322.1416892699199,None,,,,,,,,,,,,,,210,2023-04-05_14h56.13.196,Main,2022.1.1,60.02148767453243,
positive,neutral,2,l,j,,,,,,,,,5,9,99,17,,,,,,,,,main,2,2,2,neutral,positive,l,l,1,0.648098099976778,322.14254119992256,323.14166049996857,323.14166049996857,None,322.14254119992256,None,322.14254119992256,None,322.14254119992256,None,323.79165846994147,None,323.79165846994147,None,323.79165846994147,None,,,,,,,,,,,,,,210,2023-04-05_14h56.13.196,Main,2022.1.1,60.02148767453243,
negative,negative,2,j,l,,,,,,,,,5,10,100,9,,,,,,,,,main,2,2,2,negative,negative,j,j,1,0.6507748999865726,323.7958304999629,324.8108140999684,324.79419339995366,None,323.7958304999629,None,323.7958304999629,None,323.7958304999629,None,325.4440481700003,None,325.4440481700003,None,325.4440481700003,None,,,,,,,,,,,,,,210,2023-04-05_14h56.13.196,Main,2022.1.1,60.02148767453243,
neutral,neutral,2,k,k,,,,,,,,,5,11,101,10,,,,,,,,,main,1,1,2,neutral,neutral,k,k,1,0.6653298999881372,325.4480632999912,326.46076269994956,326.44414989999495,None,325.4480632999912,None,325.4480632999912,None,325.4480632999912,None,327.11077826994006,None,327.11077826994006,None,327.11077826994006,None,,,,,,,,,,,,,,210,2023-04-05_14h56.13.196,Main,2022.1.1,60.02148767453243,
neutral,positive,2,k,k,,,,,,,,,5,12,102,13,,,,,,,,,main,2,2,2,positive,neutral,k,k,1,0.6985508999787271,327.11847350001335,328.1273778999457,328.1107343999902,None,327.11847350001335,None,327.11847350001335,None,327.11847350001335,None,328.8106628699461,None,328.8106628699461,None,328.8106628699461,None,,,,,,,,,,,,,,210,2023-04-05_14h56.13.196,Main,2022.1.1,60.02148767453243,
negative,positive,2,j,l,,,,,,,,,5,13,103,15,,,,,,,,,main,1,1,2,positive,negative,j,j,1,0.7484123000176623,328.81385739997495,329.8273135999916,329.8107517999597,None,328.81385739997495,None,328.81385739997495,None,328.81385739997495,None,330.56057766999584,None,330.56057766999584,None,330.56057766999584,None,,,,,,,,,,,,,,210,2023-04-05_14h56.13.196,Main,2022.1.1,60.02148767453243,
negative,negative,1,j,l,,,,,,,,,5,14,104,0,,,,,,,,,main,2,2,1,negative,negative,j,j,1,0.6315559000940993,330.5641051999992,331.57474800001364,331.5580704000313,None,330.5641051999992,None,330.5641051999992,None,330.5641051999992,None,332.19145257002674,None,332.19145257002674,None,332.19145257002674,None,,,,,,,,,,,,,,210,2023-04-05_14h56.13.196,Main,2022.1.1,60.02148767453243,
positive,negative,1,l,j,,,,,,,,,5,15,105,5,,,,,,,,,main,2,2,1,negative,positive,l,l,1,0.712771899998188,332.1949285999872,333.2080954000121,333.19143280002754,None,332.1949285999872,None,332.1949285999872,None,332.1949285999872,None,333.9081353700021,None,333.9081353700021,None,333.9081353700021,None,,,,,,,,,,,,,,210,2023-04-05_14h56.13.196,Main,2022.1.1,60.02148767453243,
negative,neutral,1,j,l,,,,,,,,,5,16,106,3,,,,,,,,,main,1,1,1,neutral,negative,j,j,1,0.6820774999214336,333.9146026999224,334.92725009995047,334.9106146999402,None,333.9146026999224,None,333.9146026999224,None,333.9146026999224,None,335.59183716995176,None,335.59183716995176,None,335.59183716995176,None,,,,,,,,,,,,,,210,2023-04-05_14h56.13.196,Main,2022.1.1,60.02148767453243,
positive,positive,2,l,j,,,,,,,,,5,17,107,11,,,,,,,,,main,1,1,2,positive,positive,l,l,1,0.6842201999388635,335.5978098999476,336.6105166999623,336.5938612000318,None,335.5978098999476,None,335.5978098999476,None,335.5978098999476,None,337.277229469968,None,337.277229469968,None,337.277229469968,None,,,,,,,,,,,,,,210,2023-04-05_14h56.13.196,Main,2022.1.1,60.02148767453243,
positive,neutral,1,l,j,,,,,,,,,6,0,108,8,,,,,,,,,main,2,2,1,neutral,positive,l,l,1,0.6462780999718234,337.281139299972,338.29383229999803,338.2772026999155,None,337.281139299972,None,337.281139299972,None,337.281139299972,None,338.92464596999343,None,338.92464596999343,None,338.92464596999343,None,,,,,,,,,,,,,,210,2023-04-05_14h56.13.196,Main,2022.1.1,60.02148767453243,
positive,positive,2,l,j,,,,,,,,,6,1,109,11,,,,,,,,,main,1,1,2,positive,positive,l,l,1,0.6342742000706494,338.9285073999781,339.9437687000027,339.9271778999828,None,338.9285073999781,None,338.9285073999781,None,338.9285073999781,None,340.5606669699773,None,340.5606669699773,None,340.5606669699773,None,,,,,,,,,,,,,,210,2023-04-05_14h56.13.196,Main,2022.1.1,60.02148767453243,
negative,neutral,1,j,l,,,,,,,,,6,2,110,3,,,,,,,,,main,1,1,1,neutral,negative,j,j,1,0.6784434999572113,340.564553199918,341.57456069998443,341.55789679999,None,340.564553199918,None,340.564553199918,None,340.564553199918,None,342.241195569979,None,342.241195569979,None,342.241195569979,None,,,,,,,,,,,,,,210,2023-04-05_14h56.13.196,Main,2022.1.1,60.02148767453243,
neutral,neutral,2,k,k,,,,,,,,,6,3,111,10,,,,,,,,,main,2,2,2,neutral,neutral,k,k,1,0.6150910999858752,342.24152039992623,343.2412392999977,343.2412392999977,None,342.24152039992623,None,342.24152039992623,None,342.24152039992623,None,343.8578819700051,None,343.8578819700051,None,343.8578819700051,None,,,,,,,,,,,,,,210,2023-04-05_14h56.13.196,Main,2022.1.1,60.02148767453243,
positive,negative,2,l,j,,,,,,,,,6,4,112,14,,,,,,,,,main,1,1,2,negative,positive,l,l,1,0.7195437999907881,343.85854489996564,344.8579143999377,344.8579143999377,None,343.85854489996564,None,343.85854489996564,None,343.85854489996564,None,345.5787534699775,None,345.5787534699775,None,345.5787534699775,None,,,,,,,,,,,,,,210,2023-04-05_14h56.13.196,Main,2022.1.1,60.02148767453243,
positive,negative,1,l,j,,,,,,,,,6,5,113,5,,,,,,,,,main,1,1,1,negative,positive,l,l,1,0.6626960999565199,345.58307789999526,346.5936760000186,346.5770705000032,None,345.58307789999526,None,345.58307789999526,None,345.58307789999526,None,347.2439371700166,None,347.2439371700166,None,347.2439371700166,None,,,,,,,,,,,,,,210,2023-04-05_14h56.13.196,Main,2022.1.1,60.02148767453243,
neutral,positive,1,k,k,,,,,,,,,6,6,114,4,,,,,,,,,main,1,1,1,positive,neutral,k,k,1,0.6459294999949634,347.2479717999231,348.2602909000125,348.2436997999903,None,347.2479717999231,None,347.2479717999231,None,347.2479717999231,None,348.8914806699613,None,348.8914806699613,None,348.8914806699613,None,,,,,,,,,,,,,,210,2023-04-05_14h56.13.196,Main,2022.1.1,60.02148767453243,
negative,negative,1,j,l,,,,,,,,,6,7,115,0,,,,,,,,,main,1,1,1,negative,negative,j,j,1,0.7340241000056267,348.8992138999747,349.91021330002695,349.8936939999694,None,348.8992138999747,None,348.8992138999747,None,348.8992138999747,None,350.6271047699265,None,350.6271047699265,None,350.6271047699265,None,,,,,,,,,,,,,,210,2023-04-05_14h56.13.196,Main,2022.1.1,60.02148767453243,
neutral,negative,1,k,k,,,,,,,,,6,8,116,7,,,,,,,,,main,1,1,1,negative,neutral,k,k,1,0.6315508999396116,350.6309189000167,351.6434863000177,351.6269049999537,None,350.6309189000167,None,350.6309189000167,None,350.6309189000167,None,352.2601687699789,None,352.2601687699789,None,352.2601687699789,None,,,,,,,,,,,,,,210,2023-04-05_14h56.13.196,Main,2022.1.1,60.02148767453243,
neutral,neutral,1,k,k,,,,,,,,,6,9,117,1,,,,,,,,,main,1,1,1,neutral,neutral,k,k,1,0.5955636000726372,352.26316019997466,353.257631400018,353.2493352999445,None,352.26316019997466,None,352.26316019997466,None,352.26316019997466,None,353.8576001699548,None,353.8576001699548,None,353.8576001699548,None,,,,,,,,,,,,,,210,2023-04-05_14h56.13.196,Main,2022.1.1,60.02148767453243,
neutral,positive,2,k,k,,,,,,,,,6,10,118,13,,,,,,,,,main,1,1,2,positive,neutral,k,k,1,0.7156637000152841,353.85761970002204,354.8576735999668,354.8576735999668,None,353.85761970002204,None,353.85761970002204,None,353.85761970002204,None,355.5743476699572,None,355.5743476699572,None,355.5743476699572,None,,,,,,,,,,,,,,210,2023-04-05_14h56.13.196,Main,2022.1.1,60.02148767453243,
positive,positive,1,l,j,,,,,,,,,6,11,119,2,,,,,,,,,main,1,1,1,positive,positive,l,l,1,0.631605300004594,355.5749356999295,356.57433189998847,356.57433189998847,None,355.5749356999295,None,355.5749356999295,None,355.5749356999295,None,357.2076447699219,None,357.2076447699219,None,357.2076447699219,None,,,,,,,,,,,,,,210,2023-04-05_14h56.13.196,Main,2022.1.1,60.02148767453243,
negative,negative,2,j,l,,,,,,,,,6,12,120,9,,,,,,,,,main,1,1,2,negative,negative,j,j,1,0.7016735000070184,357.21353960002307,358.2267556999577,358.2101496999385,None,357.21353960002307,None,357.21353960002307,None,357.21353960002307,None,358.9099643699592,None,358.9099643699592,None,358.9099643699592,None,,,,,,,,,,,,,,210,2023-04-05_14h56.13.196,Main,2022.1.1,60.02148767453243,
negative,neutral,2,j,l,,,,,,,,,6,13,121,12,,,,,,,,,main,2,2,2,neutral,negative,j,j,1,0.6308460000436753,358.9147472999757,359.9267254000297,359.9101176999975,None,358.9147472999757,None,358.9147472999757,None,358.9147472999757,None,360.5433753699763,None,360.5433753699763,None,360.5433753699763,None,,,,,,,,,,,,,,210,2023-04-05_14h56.13.196,Main,2022.1.1,60.02148767453243,
negative,positive,1,j,l,,,,,,,,,6,14,122,6,,,,,,,,,main,1,1,1,positive,negative,j,j,1,0.5962816000683233,360.54648499994073,361.560057100025,361.5434240999166,None,360.54648499994073,None,360.54648499994073,None,360.54648499994073,None,362.14119986991864,None,362.14119986991864,None,362.14119986991864,None,,,,,,,,,,,,,,210,2023-04-05_14h56.13.196,Main,2022.1.1,60.02148767453243,
negative,positive,2,j,l,,,,,,,,,6,15,123,15,,,,,,,,,main,2,2,2,positive,negative,j,j,1,0.6006638000253588,362.14743349992204,363.15997029992286,363.1433832999319,None,362.14743349992204,None,362.14743349992204,None,362.14743349992204,None,363.7433536699973,None,363.7433536699973,None,363.7433536699973,None,,,,,,,,,,,,,,210,2023-04-05_14h56.13.196,Main,2022.1.1,60.02148767453243,
neutral,negative,2,k,k,,,,,,,,,6,16,124,16,,,,,,,,,main,2,2,2,negative,neutral,k,k,1,0.7624764000065625,363.7462621999439,364.7573885000311,364.7240517999744,None,363.7462621999439,None,363.7462621999439,None,363.7462621999439,None,365.50742776994593,None,365.50742776994593,None,365.50742776994593,None,,,,,,,,,,,,,,210,2023-04-05_14h56.13.196,Main,2022.1.1,60.02148767453243,
positive,neutral,2,l,j,,,,,,,,,6,17,125,17,,,,,,,,,main,2,2,2,neutral,positive,l,l,1,0.6513378999661654,365.50743689993396,366.50748169992585,366.50748169992585,None,365.50743689993396,None,365.50743689993396,None,365.50743689993396,None,367.16007346997503,None,367.16007346997503,None,367.16007346997503,None,,,,,,,,,,,,,,210,2023-04-05_14h56.13.196,Main,2022.1.1,60.02148767453243,
negative,neutral,1,j,l,,,,,,,,,7,0,126,3,,,,,,,,,main,2,2,1,neutral,negative,j,j,1,0.6919924000976607,367.1632130999351,368.1765261000255,368.15992190002,None,367.1632130999351,None,367.1632130999351,None,367.1632130999351,None,368.85363437002525,None,368.85363437002525,None,368.85363437002525,None,,,,,,,,,,,,,,210,2023-04-05_14h56.13.196,Main,2022.1.1,60.02148767453243,
negative,negative,2,j,l,,,,,,,,,7,1,127,9,,,,,,,,,main,2,2,2,negative,negative,j,j,1,0.6378650999395177,368.8569742999971,369.8598178999964,369.8432585999835,None,368.8569742999971,None,368.8569742999971,None,368.8569742999971,None,370.4932358699152,None,370.4932358699152,None,370.4932358699152,None,,,,,,,,,,,,,,210,2023-04-05_14h56.13.196,Main,2022.1.1,60.02148767453243,
negative,positive,2,j,l,,,,,,,,,7,2,128,15,,,,,,,,,main,1,1,2,positive,negative,j,j,1,0.5960907000117004,370.497350599966,371.50977090001106,371.49318420002237,None,370.497350599966,None,370.497350599966,None,370.497350599966,None,372.09064446995035,None,372.09064446995035,None,372.09064446995035,None,,,,,,,,,,,,,,210,2023-04-05_14h56.13.196,Main,2022.1.1,60.02148767453243,
positive,neutral,2,l,j,,,,,,,,,7,3,129,17,,,,,,,,,main,1,1,2,neutral,positive,l,l,1,0.7473499999614432,372.0949320999207,373.1098173999926,373.0931462999433,None,372.0949320999207,None,372.0949320999207,None,372.0949320999207,None,373.8406202699989,None,373.8406202699989,None,373.8406202699989,None,,,,,,,,,,,,,,210,2023-04-05_14h56.13.196,Main,2022.1.1,60.02148767453243,
positive,positive,1,l,j,,,,,,,,,7,4,130,2,,,,,,,,,main,1,1,1,positive,positive,l,l,1,0.6483655000338331,373.8475003999192,374.8561333999969,374.84013289993163,None,373.8475003999192,None,373.8475003999192,None,373.8475003999192,None,375.4905374699738,None,375.4905374699738,None,375.4905374699738,None,,,,,,,,,,,,,,210,2023-04-05_14h56.13.196,Main,2022.1.1,60.02148767453243,
positive,negative,1,l,j,,,,,,,,,7,5,131,5,,,,,,,,,main,1,1,1,negative,positive,l,l,1,0.6483737999806181,375.4905287999427,376.4905297999503,376.4905297999503,None,375.4905287999427,None,375.4905287999427,None,375.4905287999427,None,377.1405849700095,None,377.1405849700095,None,377.1405849700095,None,,,,,,,,,,,,,,210,2023-04-05_14h56.13.196,Main,2022.1.1,60.02148767453243,
negative,negative,1,j,l,,,,,,,,,7,6,132,0,,,,,,,,,main,2,2,1,negative,negative,j,j,1,0.715443600085564,377.1471095000161,378.1596692999592,378.1430681999773,None,377.1471095000161,None,377.1471095000161,None,377.1471095000161,None,378.85753177001607,None,378.85753177001607,None,378.85753177001607,None,,,,,,,,,,,,,,210,2023-04-05_14h56.13.196,Main,2022.1.1,60.02148767453243,
negative,neutral,2,j,l,,,,,,,,,7,7,133,12,,,,,,,,,main,2,2,2,neutral,negative,j,j,1,0.5814164000330493,378.8636959999567,379.8762958999723,379.8596789999865,None,378.8636959999567,None,378.8636959999567,None,378.8636959999567,None,380.4404669699725,None,380.4404669699725,None,380.4404669699725,None,,,,,,,,,,,,,,210,2023-04-05_14h56.13.196,Main,2022.1.1,60.02148767453243,
positive,negative,2,l,j,,,,,,,,,7,8,134,14,,,,,,,,,main,2,2,2,negative,positive,l,l,1,0.7488529999973252,380.4438181000296,381.4429747000104,381.4429747000104,None,380.4438181000296,None,380.4438181000296,None,380.4438181000296,None,382.19088517001364,None,382.19088517001364,None,382.19088517001364,None,,,,,,,,,,,,,,210,2023-04-05_14h56.13.196,Main,2022.1.1,60.02148767453243,
neutral,neutral,2,k,k,,,,,,,,,7,9,135,10,,,,,,,,,main,1,1,2,neutral,neutral,k,k,1,0.6003497000783682,382.19661580002867,383.209570899955,383.19293699995615,None,382.19661580002867,None,382.19661580002867,None,382.19661580002867,None,383.79286386992317,None,383.79286386992317,None,383.79286386992317,None,,,,,,,,,,,,,,210,2023-04-05_14h56.13.196,Main,2022.1.1,60.02148767453243,
neutral,neutral,1,k,k,,,,,,,,,7,10,136,1,,,,,,,,,main,2,2,1,neutral,neutral,k,k,1,0.5625339000253007,383.79708910000045,384.807051199954,384.79035369993653,None,383.79708910000045,None,383.79708910000045,None,383.79708910000045,None,385.35714056994766,None,385.35714056994766,None,385.35714056994766,None,,,,,,,,,,,,,,210,2023-04-05_14h56.13.196,Main,2022.1.1,60.02148767453243,
neutral,positive,2,k,k,,,,,,,,,7,11,137,13,,,,,,,,,main,2,2,2,positive,neutral,k,k,1,0.5665037999860942,385.35698339994997,386.35701479995623,386.35701479995623,None,385.35698339994997,None,385.35698339994997,None,385.35698339994997,None,386.925023269956,None,386.925023269956,None,386.925023269956,None,,,,,,,,,,,,,,210,2023-04-05_14h56.13.196,Main,2022.1.1,60.02148767453243,
neutral,negative,2,k,k,,,,,,,,,7,12,138,16,,,,,,,,,main,2,2,2,negative,neutral,k,k,1,0.5136060999939218,386.9304874999216,387.94282569992356,387.92620669992175,None,386.9304874999216,None,386.9304874999216,None,386.9304874999216,None,388.4403370699147,None,388.4403370699147,None,388.4403370699147,None,,,,,,,,,,,,,,210,2023-04-05_14h56.13.196,Main,2022.1.1,60.02148767453243,
positive,positive,2,l,j,,,,,,,,,7,13,139,11,,,,,,,,,main,1,1,2,positive,positive,l,l,1,0.650942699983716,388.4438336000312,389.44283429998904,389.44283429998904,None,388.4438336000312,None,388.4438336000312,None,388.4438336000312,None,390.09272716997657,None,390.09272716997657,None,390.09272716997657,None,,,,,,,,,,,,,,210,2023-04-05_14h56.13.196,Main,2022.1.1,60.02148767453243,
neutral,negative,1,k,k,,,,,,,,,7,14,140,7,,,,,,,,,main,1,1,1,negative,neutral,k,k,1,0.6306673999642953,390.09555209998507,391.10941029991955,391.0928154999856,None,390.09555209998507,None,390.09555209998507,None,390.09555209998507,None,391.72489216993563,None,391.72489216993563,None,391.72489216993563,None,,,,,,,,,,,,,,210,2023-04-05_14h56.13.196,Main,2022.1.1,60.02148767453243,
negative,positive,1,j,l,,,,,,,,,7,15,141,6,,,,,,,,,main,1,1,1,positive,negative,j,j,1,0.7305518999928609,391.7307557000313,392.74269210000057,392.7261243999237,None,391.7307557000313,None,391.7307557000313,None,391.7307557000313,None,393.4571371700149,None,393.4571371700149,None,393.4571371700149,None,,,,,,,,,,,,,,210,2023-04-05_14h56.13.196,Main,2022.1.1,60.02148767453243,
neutral,positive,1,k,k,,,,,,,,,7,16,142,4,,,,,,,,,main,2,2,1,positive,neutral,k,k,1,0.6315227999584749,393.46337559993844,394.4759680000134,394.4593324000016,None,393.46337559993844,None,393.46337559993844,None,393.46337559993844,None,395.0901043700287,None,395.0901043700287,None,395.0901043700287,None,,,,,,,,,,,,,,210,2023-04-05_14h56.13.196,Main,2022.1.1,60.02148767453243,
positive,neutral,1,l,j,,,,,,,,,7,17,143,8,,,,,,,,,main,1,1,1,neutral,positive,l,l,1,0.7319063999457285,395.0901357999537,396.09015619999263,396.09015619999263,None,395.0901357999537,None,395.0901357999537,None,395.0901357999537,None,396.8234785699751,None,396.8234785699751,None,396.8234785699751,None,,,,,,,,,,,,,,210,2023-04-05_14h56.13.196,Main,2022.1.1,60.02148767453243,
neutral,neutral,2,k,k,,,,,,,,,8,0,144,10,,,,,,,,,main,2,2,2,neutral,neutral,k,k,1,0.6321637999499217,396.8267133999616,397.8259920999408,397.8259920999408,None,396.8267133999616,None,396.8267133999616,None,396.8267133999616,None,398.4570941699203,None,398.4570941699203,None,398.4570941699203,None,,,,,,,,,,,,,,210,2023-04-05_14h56.13.196,Main,2022.1.1,60.02148767453243,
positive,positive,1,l,j,,,,,,,,,8,1,145,2,,,,,,,,,main,2,2,1,positive,positive,l,l,1,0.5981318999547511,398.46299319993705,399.475885199965,399.45927089999896,None,398.46299319993705,None,398.46299319993705,None,398.46299319993705,None,400.05675907002296,None,400.05675907002296,None,400.05675907002296,None,,,,,,,,,,,,,,210,2023-04-05_14h56.13.196,Main,2022.1.1,60.02148767453243,
positive,positive,2,l,j,,,,,,,,,8,2,146,11,,,,,,,,,main,1,1,2,positive,positive,l,l,1,0.6322333000134677,400.0610601999797,401.0759093000088,401.05925459996797,None,400.0610601999797,None,400.0610601999797,None,400.0610601999797,None,401.6904647699557,None,401.6904647699557,None,401.6904647699557,None,,,,,,,,,,,,,,210,2023-04-05_14h56.13.196,Main,2022.1.1,60.02148767453243,
positive,negative,2,l,j,,,,,,,,,8,3,147,14,,,,,,,,,main,2,2,2,negative,positive,l,l,1,0.5992234000004828,401.6961048999801,402.7091468999861,402.6925422999775,None,401.6961048999801,None,401.6961048999801,None,401.6961048999801,None,403.29030356998555,None,403.29030356998555,None,403.29030356998555,None,,,,,,,,,,,,,,210,2023-04-05_14h56.13.196,Main,2022.1.1,60.02148767453243,
negative,positive,1,j,l,,,,,,,,,8,4,148,6,,,,,,,,,main,2,2,1,positive,negative,j,j,1,0.6308663999661803,403.2952529999893,404.30911209993064,404.2925198000157,None,403.2952529999893,None,403.2952529999893,None,403.2952529999893,None,404.92363016994204,None,404.92363016994204,None,404.92363016994204,None,,,,,,,,,,,,,,210,2023-04-05_14h56.13.196,Main,2022.1.1,60.02148767453243,
negative,neutral,1,j,l,,,,,,,,,8,5,149,3,,,,,,,,,main,1,1,1,neutral,negative,j,j,1,0.6476599000161514,404.9273194000125,405.9399537999416,405.9232881999342,None,404.9273194000125,None,404.9273194000125,None,404.9273194000125,None,406.57323376997374,None,406.57323376997374,None,406.57323376997374,None,,,,,,,,,,,,,,210,2023-04-05_14h56.13.196,Main,2022.1.1,60.02148767453243,
negative,neutral,2,j,l,,,,,,,,,8,6,150,12,,,,,,,,,main,2,2,2,neutral,negative,j,j,1,0.7176913999719545,406.57323370000813,407.57328180002514,407.57328180002514,None,406.57323370000813,None,406.57323370000813,None,406.57323370000813,None,408.29235136997886,None,408.29235136997886,None,408.29235136997886,None,,,,,,,,,,,,,,210,2023-04-05_14h56.13.196,Main,2022.1.1,60.02148767453243,
positive,neutral,2,l,j,,,,,,,,,8,7,151,17,,,,,,,,,main,2,2,2,neutral,positive,l,l,1,0.7814395000459626,408.2961725000059,409.3090334000299,409.29240789997857,None,408.2961725000059,None,408.2961725000059,None,408.2961725000059,None,410.0757171700243,None,410.0757171700243,None,410.0757171700243,None,,,,,,,,,,,,,,210,2023-04-05_14h56.13.196,Main,2022.1.1,60.02148767453243,
neutral,negative,2,k,k,,,,,,,,,8,8,152,16,,,,,,,,,main,2,2,2,negative,neutral,k,k,1,0.5651124999858439,410.0786281999899,411.09230070002377,411.0757348999614,None,410.0786281999899,None,410.0786281999899,None,410.0786281999899,None,411.6423712699907,None,411.6423712699907,None,411.6423712699907,None,,,,,,,,,,,,,,210,2023-04-05_14h56.13.196,Main,2022.1.1,60.02148767453243,
neutral,positive,1,k,k,,,,,,,,,8,9,153,4,,,,,,,,,main,2,2,1,positive,neutral,k,k,1,0.6462300000712276,411.6455583999632,412.6589579000138,412.6423498999793,None,411.6455583999632,None,411.6455583999632,None,411.6455583999632,None,413.2901605699444,None,413.2901605699444,None,413.2901605699444,None,,,,,,,,,,,,,,210,2023-04-05_14h56.13.196,Main,2022.1.1,60.02148767453243,
neutral,negative,1,k,k,,,,,,,,,8,10,154,7,,,,,,,,,main,2,2,1,negative,neutral,k,k,1,0.5312222999054939,413.29606039996725,414.3088917999994,414.29232459992636,None,413.29606039996725,None,413.29606039996725,None,413.29606039996725,None,414.82309606997296,None,414.82309606997296,None,414.82309606997296,None,,,,,,,,,,,,,,210,2023-04-05_14h56.13.196,Main,2022.1.1,60.02148767453243,
negative,negative,2,j,l,,,,,,,,,8,11,155,9,,,,,,,,,main,2,2,2,negative,negative,j,j,1,0.7316964999772608,414.8298120999243,415.8396707000211,415.8230124999536,None,414.8298120999243,None,414.8298120999243,None,414.8298120999243,None,416.5563110699877,None,416.5563110699877,None,416.5563110699877,None,,,,,,,,,,,,,,210,2023-04-05_14h56.13.196,Main,2022.1.1,60.02148767453243,
negative,negative,1,j,l,,,,,,,,,8,12,156,0,,,,,,,,,main,2,2,1,negative,negative,j,j,1,0.617888699984178,416.5563561000163,417.5563839999959,417.5563839999959,None,416.5563561000163,None,416.5563561000163,None,416.5563561000163,None,418.17568707000464,None,418.17568707000464,None,418.17568707000464,None,,,,,,,,,,,,,,210,2023-04-05_14h56.13.196,Main,2022.1.1,60.02148767453243,
neutral,neutral,1,k,k,,,,,,,,,8,13,157,1,,,,,,,,,main,2,2,1,neutral,neutral,k,k,1,0.6291936000343412,418.1794767000247,419.19215199991595,419.1755601000041,None,418.1794767000247,None,418.1794767000247,None,418.1794767000247,None,419.8065684699686,None,419.8065684699686,None,419.8065684699686,None,,,,,,,,,,,,,,210,2023-04-05_14h56.13.196,Main,2022.1.1,60.02148767453243,
positive,neutral,1,l,j,,,,,,,,,8,14,158,8,,,,,,,,,main,1,1,1,neutral,positive,l,l,1,0.650244600023143,419.81304499995895,420.82556659996044,420.80885259993374,None,419.81304499995895,None,419.81304499995895,None,419.81304499995895,None,421.45663616992533,None,421.45663616992533,None,421.45663616992533,None,,,,,,,,,,,,,,210,2023-04-05_14h56.13.196,Main,2022.1.1,60.02148767453243,
neutral,positive,2,k,k,,,,,,,,,8,15,159,13,,,,,,,,,main,1,1,2,positive,neutral,k,k,1,0.6290815999964252,421.46268739993684,422.47540769993793,422.4588223999599,None,421.46268739993684,None,421.46268739993684,None,421.46268739993684,None,423.08959817001596,None,423.08959817001596,None,423.08959817001596,None,,,,,,,,,,,,,,210,2023-04-05_14h56.13.196,Main,2022.1.1,60.02148767453243,
positive,negative,1,l,j,,,,,,,,,8,16,160,5,,,,,,,,,main,1,1,1,negative,positive,l,l,1,0.6155746999429539,423.093137799995,424.1087102999445,424.09210359991994,None,423.093137799995,None,423.093137799995,None,423.093137799995,None,424.70656446996145,None,424.70656446996145,None,424.70656446996145,None,,,,,,,,,,,,,,210,2023-04-05_14h56.13.196,Main,2022.1.1,60.02148767453243,
negative,positive,2,j,l,,,,,,,,,8,17,161,15,,,,,,,,,main,2,2,2,positive,negative,j,j,1,0.7145071000559255,424.71276499994565,425.72282020002604,425.7061460999539,None,424.71276499994565,None,424.71276499994565,None,424.71276499994565,None,426.4227658699965,None,426.4227658699965,None,426.4227658699965,None,,,,,,,,,,,,,,210,2023-04-05_14h56.13.196,Main,2022.1.1,60.02148767453243,
negative,positive,1,j,l,,,,,,,,,9,0,162,6,,,,,,,,,main,1,1,1,positive,negative,j,j,1,0.6151933999499306,426.4242541999556,427.43957069993485,427.42288680002093,None,426.4242541999556,None,426.4242541999556,None,426.4242541999556,None,428.039532369934,None,428.039532369934,None,428.039532369934,None,,,,,,,,,,,,,,210,2023-04-05_14h56.13.196,Main,2022.1.1,60.02148767453243,
positive,neutral,2,l,j,,,,,,,,,9,1,163,17,,,,,,,,,main,2,2,2,neutral,positive,l,l,1,0.6655636999057606,428.0458175999811,429.0586123999674,429.0420422999887,None,428.0458175999811,None,428.0458175999811,None,428.0458175999811,None,429.70653266995214,None,429.70653266995214,None,429.70653266995214,None,,,,,,,,,,,,,,210,2023-04-05_14h56.13.196,Main,2022.1.1,60.02148767453243,
neutral,negative,2,k,k,,,,,,,,,9,2,164,16,,,,,,,,,main,1,1,2,negative,neutral,k,k,1,0.6147835999727249,429.7121549999574,430.7252463999903,430.70862299995497,None,429.7121549999574,None,429.7121549999574,None,429.7121549999574,None,431.3231163700111,None,431.3231163700111,None,431.3231163700111,None,,,,,,,,,,,,,,210,2023-04-05_14h56.13.196,Main,2022.1.1,60.02148767453243,
negative,positive,2,j,l,,,,,,,,,9,3,165,15,,,,,,,,,main,1,1,2,positive,negative,j,j,1,0.6315267999889329,431.32874759996776,432.3418734000297,432.3252805999946,None,431.32874759996776,None,431.32874759996776,None,431.32874759996776,None,432.9560572699411,None,432.9560572699411,None,432.9560572699411,None,,,,,,,,,,,,,,210,2023-04-05_14h56.13.196,Main,2022.1.1,60.02148767453243,
negative,neutral,2,j,l,,,,,,,,,9,4,166,12,,,,,,,,,main,2,2,2,neutral,negative,j,j,1,0.5489956999663264,432.9594181999564,433.95850870001595,433.94194920000155,None,432.9594181999564,None,432.9594181999564,None,432.9594181999564,None,434.5065140699735,None,434.5065140699735,None,434.5065140699735,None,,,,,,,,,,,,,,210,2023-04-05_14h56.13.196,Main,2022.1.1,60.02148767453243,
neutral,negative,1,k,k,,,,,,,,,9,5,167,7,,,,,,,,,main,1,1,1,negative,neutral,k,k,1,0.6979652000591159,434.51423909992445,435.5226778999204,435.5060083999997,None,434.51423909992445,None,434.51423909992445,None,434.51423909992445,None,436.2059666699497,None,436.2059666699497,None,436.2059666699497,None,,,,,,,,,,,,,,210,2023-04-05_14h56.13.196,Main,2022.1.1,60.02148767453243,
neutral,positive,2,k,k,,,,,,,,,9,6,168,13,,,,,,,,,main,1,1,2,positive,neutral,k,k,1,0.5817582999588922,436.20597140002064,437.20600629993714,437.20600629993714,None,436.20597140002064,None,436.20597140002064,None,436.20597140002064,None,437.7892856699182,None,437.7892856699182,None,437.7892856699182,None,,,,,,,,,,,,,,210,2023-04-05_14h56.13.196,Main,2022.1.1,60.02148767453243,
neutral,neutral,2,k,k,,,,,,,,,9,7,169,10,,,,,,,,,main,2,2,2,neutral,neutral,k,k,1,0.5643144999630749,437.7907278999919,438.80596679996233,438.78930740000214,None,437.7907278999919,None,437.7907278999919,None,437.7907278999919,None,439.35593446996063,None,439.35593446996063,None,439.35593446996063,None,,,,,,,,,,,,,,210,2023-04-05_14h56.13.196,Main,2022.1.1,60.02148767453243,
positive,negative,1,l,j,,,,,,,,,9,8,170,5,,,,,,,,,main,2,2,1,negative,positive,l,l,1,0.6733834000770003,439.3592823999934,440.3584665999515,440.3584665999515,None,439.3592823999934,None,439.3592823999934,None,439.3592823999934,None,441.02581467002165,None,441.02581467002165,None,441.02581467002165,None,,,,,,,,,,,,,,210,2023-04-05_14h56.13.196,Main,2022.1.1,60.02148767453243,
negative,negative,1,j,l,,,,,,,,,9,9,171,0,,,,,,,,,main,2,2,1,negative,negative,j,j,1,0.6237167000072077,441.0345266999211,442.04169879993424,442.02509889996145,None,441.0345266999211,None,441.0345266999211,None,441.0345266999211,None,442.65609056991525,None,442.65609056991525,None,442.65609056991525,None,,,,,,,,,,,,,,210,2023-04-05_14h56.13.196,Main,2022.1.1,60.02148767453243,
negative,negative,2,j,l,,,,,,,,,9,10,172,9,,,,,,,,,main,1,1,2,negative,negative,j,j,1,0.6342028999933973,442.6620873999782,443.6749384999275,443.6583447000012,None,442.6620873999782,None,442.6620873999782,None,442.6620873999782,None,444.2917188699357,None,444.2917188699357,None,444.2917188699357,None,,,,,,,,,,,,,,210,2023-04-05_14h56.13.196,Main,2022.1.1,60.02148767453243,
positive,neutral,1,l,j,,,,,,,,,9,11,173,8,,,,,,,,,main,2,2,1,neutral,positive,l,l,1,0.6950841000070795,444.2955380999483,445.3082838000264,445.2916925000027,None,444.2955380999483,None,444.2955380999483,None,444.2955380999483,None,445.98914796998724,None,445.98914796998724,None,445.98914796998724,None,,,,,,,,,,,,,,210,2023-04-05_14h56.13.196,Main,2022.1.1,60.02148767453243,
neutral,neutral,1,k,k,,,,,,,,,9,12,174,1,,,,,,,,,main,1,1,1,neutral,neutral,k,k,1,0.5815831000218168,445.99540279991925,447.005727199954,446.98903369996697,None,445.99540279991925,None,445.99540279991925,None,445.99540279991925,None,447.57236106996424,None,447.57236106996424,None,447.57236106996424,None,,,,,,,,,,,,,,210,2023-04-05_14h56.13.196,Main,2022.1.1,60.02148767453243,
neutral,positive,1,k,k,,,,,,,,,9,13,175,4,,,,,,,,,main,1,1,1,positive,neutral,k,k,1,0.46526550000999123,447.5723863999592,448.5724047999829,448.5724047999829,None,447.5723863999592,None,447.5723863999592,None,447.5723863999592,None,449.0390336699784,None,449.0390336699784,None,449.0390336699784,None,,,,,,,,,,,,,,210,2023-04-05_14h56.13.196,Main,2022.1.1,60.02148767453243,
positive,positive,1,l,j,,,,,,,,,9,14,176,2,,,,,,,,,main,2,2,1,positive,positive,l,l,1,0.5984438000014052,449.03998240001965,450.0390656000236,450.0390656000236,None,449.03998240001965,None,449.03998240001965,None,449.03998240001965,None,450.6390775699401,None,450.6390775699401,None,450.6390775699401,None,,,,,,,,,,,,,,210,2023-04-05_14h56.13.196,Main,2022.1.1,60.02148767453243,
negative,neutral,1,j,l,,,,,,,,,9,15,177,3,,,,,,,,,main,2,2,1,neutral,negative,j,j,1,0.6508581000380218,450.6425668000011,451.64163259998895,451.64163259998895,None,450.6425668000011,None,450.6425668000011,None,450.6425668000011,None,452.2915880699875,None,452.2915880699875,None,452.2915880699875,None,,,,,,,,,,,,,,210,2023-04-05_14h56.13.196,Main,2022.1.1,60.02148767453243,
positive,positive,2,l,j,,,,,,,,,9,16,178,11,,,,,,,,,main,1,1,2,positive,positive,l,l,1,0.6660941999871284,452.2948496999452,453.30808749992866,453.29151659994386,None,452.2948496999452,None,452.2948496999452,None,452.2948496999452,None,453.9559855699772,None,453.9559855699772,None,453.9559855699772,None,,,,,,,,,,,,,,210,2023-04-05_14h56.13.196,Main,2022.1.1,60.02148767453243,
positive,negative,2,l,j,,,,,,,,,9,17,179,14,,,,,,,,,main,2,2,2,negative,positive,l,l,1,0.5619411000516266,453.96212569996715,454.9747471000301,454.9581043999642,None,453.96212569996715,None,453.96212569996715,None,453.96212569996715,None,455.52260776993353,None,455.52260776993353,None,455.52260776993353,None,,,,,,,,,,,,,,210,2023-04-05_14h56.13.196,Main,2022.1.1,60.02148767453243,
neutral,negative,1,k,k,,,,,,,,,10,0,180,7,,,,,,,,,main,2,2,1,negative,neutral,k,k,1,0.616511500091292,455.5287716999883,456.541382699972,456.5248184999218,None,455.5287716999883,None,455.5287716999883,None,455.5287716999883,None,457.14134837000165,None,457.14134837000165,None,457.14134837000165,None,,,,,,,,,,,,,,210,2023-04-05_14h56.13.196,Main,2022.1.1,60.02148767453243,
positive,negative,1,l,j,,,,,,,,,10,1,181,5,,,,,,,,,main,1,1,1,negative,positive,l,l,1,0.6792071999516338,457.14443849993404,458.1550698999781,458.1383958000224,None,457.14443849993404,None,457.14443849993404,None,457.14443849993404,None,458.8221480699722,None,458.8221480699722,None,458.8221480699722,None,,,,,,,,,,,,,,210,2023-04-05_14h56.13.196,Main,2022.1.1,60.02148767453243,
negative,neutral,2,j,l,,,,,,,,,10,2,182,12,,,,,,,,,main,1,1,2,neutral,negative,j,j,1,0.69840979995206,458.8221224999288,459.8221503000241,459.8221503000241,None,458.8221224999288,None,458.8221224999288,None,458.8221224999288,None,460.52219177002553,None,460.52219177002553,None,460.52219177002553,None,,,,,,,,,,,,,,210,2023-04-05_14h56.13.196,Main,2022.1.1,60.02148767453243,
neutral,positive,1,k,k,,,,,,,,,10,3,183,4,,,,,,,,,main,2,2,1,positive,neutral,k,k,1,0.6155398999108002,460.5253082999261,461.52461480000056,461.50800979998894,None,460.5253082999261,None,460.5253082999261,None,460.5253082999261,None,462.13887566991616,None,462.13887566991616,None,462.13887566991616,None,,,,,,,,,,,,,,210,2023-04-05_14h56.13.196,Main,2022.1.1,60.02148767453243,
neutral,negative,2,k,k,,,,,,,,,10,4,184,16,,,,,,,,,main,2,2,2,negative,neutral,k,k,1,0.60046730004251,462.1453038000036,463.1579203000292,463.14133999997284,None,462.1453038000036,None,462.1453038000036,None,462.1453038000036,None,463.741236969945,None,463.741236969945,None,463.741236969945,None,,,,,,,,,,,,,,210,2023-04-05_14h56.13.196,Main,2022.1.1,60.02148767453243,
positive,neutral,2,l,j,,,,,,,,,10,5,185,17,,,,,,,,,main,1,1,2,neutral,positive,l,l,1,0.6150189000181854,463.7443135000067,464.757901999983,464.7412432000274,None,463.7443135000067,None,463.7443135000067,None,463.7443135000067,None,465.3579137700144,None,465.3579137700144,None,465.3579137700144,None,,,,,,,,,,,,,,210,2023-04-05_14h56.13.196,Main,2022.1.1,60.02148767453243,
positive,neutral,1,l,j,,,,,,,,,10,6,186,8,,,,,,,,,main,2,2,1,neutral,positive,l,l,1,0.6357830000342801,465.36181799997576,466.3745011999272,466.3579045999795,None,465.36181799997576,None,465.36181799997576,None,465.36181799997576,None,466.9912070699502,None,466.9912070699502,None,466.9912070699502,None,,,,,,,,,,,,,,210,2023-04-05_14h56.13.196,Main,2022.1.1,60.02148767453243,
negative,positive,2,j,l,,,,,,,,,10,7,187,15,,,,,,,,,main,1,1,2,positive,negative,j,j,1,0.6421781999524683,466.99818539991975,468.0077880999306,467.9912043999648,None,466.99818539991975,None,466.99818539991975,None,466.99818539991975,None,468.6385831700172,None,468.6385831700172,None,468.6385831700172,None,,,,,,,,,,,,,,210,2023-04-05_14h56.13.196,Main,2022.1.1,60.02148767453243,
negative,negative,2,j,l,,,,,,,,,10,8,188,9,,,,,,,,,main,2,2,2,negative,negative,j,j,1,0.5815280999522656,468.63860259996727,469.6386355999857,469.6386355999857,None,468.63860259996727,None,468.63860259996727,None,468.63860259996727,None,470.2219373700209,None,470.2219373700209,None,470.2219373700209,None,,,,,,,,,,,,,,210,2023-04-05_14h56.13.196,Main,2022.1.1,60.02148767453243,
neutral,neutral,2,k,k,,,,,,,,,10,9,189,10,,,,,,,,,main,1,1,2,neutral,neutral,k,k,1,0.7175758000230417,470.22196939995047,471.2219868999673,471.2219868999673,None,470.22196939995047,None,470.22196939995047,None,470.22196939995047,None,471.9411466700258,None,471.9411466700258,None,471.9411466700258,None,,,,,,,,,,,,,,210,2023-04-05_14h56.13.196,Main,2022.1.1,60.02148767453243,
positive,positive,2,l,j,,,,,,,,,10,10,190,11,,,,,,,,,main,2,2,2,positive,positive,l,l,1,0.5819656999083236,471.9443610999733,472.95763009996153,472.9410410999553,None,471.9443610999733,None,471.9443610999733,None,471.9443610999733,None,473.5245187699329,None,473.5245187699329,None,473.5245187699329,None,,,,,,,,,,,,,,210,2023-04-05_14h56.13.196,Main,2022.1.1,60.02148767453243,
negative,neutral,1,j,l,,,,,,,,,10,11,191,3,,,,,,,,,main,2,2,1,neutral,negative,j,j,1,0.5983221000060439,473.52868919994216,474.5410087999189,474.5244278999744,None,473.52868919994216,None,473.52868919994216,None,473.52868919994216,None,475.1242750699166,None,475.1242750699166,None,475.1242750699166,None,,,,,,,,,,,,,,210,2023-04-05_14h56.13.196,Main,2022.1.1,60.02148767453243,
positive,positive,1,l,j,,,,,,,,,10,12,192,2,,,,,,,,,main,1,1,1,positive,positive,l,l,1,0.7296896999469027,475.1278275999939,476.1409776000073,476.12436339992564,None,475.1278275999939,None,475.1278275999939,None,475.1278275999939,None,476.8554840700235,None,476.8554840700235,None,476.8554840700235,None,,,,,,,,,,,,,,210,2023-04-05_14h56.13.196,Main,2022.1.1,60.02148767453243,
neutral,neutral,1,k,k,,,,,,,,,10,13,193,1,,,,,,,,,main,1,1,1,neutral,neutral,k,k,1,1.0303982000332326,476.87447339994833,477.87422060000245,477.8577149999328,None,476.87447339994833,None,476.87447339994833,None,476.87447339994833,None,478.88840146991424,None,478.88840146991424,None,478.88840146991424,None,,,,,,,,,,,,,,210,2023-04-05_14h56.13.196,Main,2022.1.1,60.02148767453243,
negative,negative,1,j,l,,,,,,,,,10,14,194,0,,,,,,,,,main,2,2,1,negative,negative,j,j,1,0.8153232999611646,478.8883740999736,479.8883986999281,479.8883986999281,None,478.8883740999736,None,478.8883740999736,None,478.8883740999736,None,480.7051162699936,None,480.7051162699936,None,480.7051162699936,None,,,,,,,,,,,,,,210,2023-04-05_14h56.13.196,Main,2022.1.1,60.02148767453243,
neutral,positive,2,k,k,,,,,,,,,10,15,195,13,,,,,,,,,main,2,2,2,positive,neutral,k,k,1,0.6675088999327272,480.7109589999309,481.72419709991664,481.70759489992633,None,480.7109589999309,None,480.7109589999309,None,480.7109589999309,None,482.37424496992026,None,482.37424496992026,None,482.37424496992026,None,,,,,,,,,,,,,,210,2023-04-05_14h56.13.196,Main,2022.1.1,60.02148767453243,
positive,negative,2,l,j,,,,,,,,,10,16,196,14,,,,,,,,,main,2,2,2,negative,positive,l,l,1,0.5983991000102833,482.3785061999224,483.39086079993285,483.37424049992114,None,482.3785061999224,None,482.3785061999224,None,482.3785061999224,None,483.97424086998217,None,483.97424086998217,None,483.97424086998217,None,,,,,,,,,,,,,,210,2023-04-05_14h56.13.196,Main,2022.1.1,60.02148767453243,
negative,positive,1,j,l,,,,,,,,,10,17,197,6,,,,,,,,,main,1,1,1,positive,negative,j,j,1,0.6149111000122502,483.97743269999046,484.99080649996176,484.9741844999371,None,483.97743269999046,None,483.97743269999046,None,483.97743269999046,None,485.5908740699524,None,485.5908740699524,None,485.5908740699524,None,,,,,,,,,,,,,,210,2023-04-05_14h56.13.196,Main,2022.1.1,60.02148767453243,
neutral,positive,2,k,k,,,,,,,,,11,0,198,13,,,,,,,,,main,1,1,2,positive,neutral,k,k,1,0.5981865000212565,485.5952174999984,486.6073798999423,486.5908263999736,None,485.5952174999984,None,485.5952174999984,None,485.5952174999984,None,487.1906914699357,None,487.1906914699357,None,487.1906914699357,None,,,,,,,,,,,,,,210,2023-04-05_14h56.13.196,Main,2022.1.1,60.02148767453243,
negative,negative,1,j,l,,,,,,,,,11,1,199,0,,,,,,,,,main,1,1,1,negative,negative,j,j,1,0.6793815999990329,487.19338329997845,488.2073897999944,488.19085729995277,None,487.19338329997845,None,487.19338329997845,None,487.19338329997845,None,488.87153226998635,None,488.87153226998635,None,488.87153226998635,None,,,,,,,,,,,,,,210,2023-04-05_14h56.13.196,Main,2022.1.1,60.02148767453243,
positive,positive,1,l,j,,,,,,,,,11,2,200,2,,,,,,,,,main,1,1,1,positive,positive,l,l,1,0.6819446999579668,488.87555839994457,489.88814109994564,489.87147469993215,None,488.87555839994457,None,488.87555839994457,None,488.87555839994457,None,490.5548986699432,None,490.5548986699432,None,490.5548986699432,None,,,,,,,,,,,,,,210,2023-04-05_14h56.13.196,Main,2022.1.1,60.02148767453243,
positive,positive,2,l,j,,,,,,,,,11,3,201,11,,,,,,,,,main,1,1,2,positive,positive,l,l,1,0.7974496999522671,490.5592142000096,491.57397179992404,491.55734089994803,None,490.5592142000096,None,490.5592142000096,None,490.5592142000096,None,492.35500246996526,None,492.35500246996526,None,492.35500246996526,None,,,,,,,,,,,,,,210,2023-04-05_14h56.13.196,Main,2022.1.1,60.02148767453243,
positive,neutral,2,l,j,,,,,,,,,11,4,202,17,,,,,,,,,main,2,2,2,neutral,positive,l,l,1,-0.6808122999500483,492.3613412999548,None,None,None,492.3613412999548,None,492.3613412999548,None,492.3613412999548,None,492.67832649999764,None,492.67832649999764,None,492.67832649999764,None,,,,,,,,,,,,,,210,2023-04-05_14h56.13.196,Main,2022.1.1,60.02148767453243,
neutral,negative,2,k,k,,,,,,,,,11,5,203,16,,,,,,,,,main,1,1,2,negative,neutral,k,k,1,0.7058289999840781,495.6906676000217,496.6905373999616,496.673913699924,None,495.6906676000217,None,495.6906676000217,None,495.6906676000217,None,497.3905479699606,None,497.3905479699606,None,497.3905479699606,None,,,,,,,,,,,,,,210,2023-04-05_14h56.13.196,Main,2022.1.1,60.02148767453243,
positive,negative,1,l,j,,,,,,,,,11,6,204,5,,,,,,,,,main,2,2,1,negative,positive,l,l,1,0.7448356000240892,497.3959318000125,498.4047045999905,498.3880487999413,None,497.3959318000125,None,497.3959318000125,None,497.3959318000125,None,499.137964369962,None,499.137964369962,None,499.137964369962,None,,,,,,,,,,,,,,210,2023-04-05_14h56.13.196,Main,2022.1.1,60.02148767453243,
neutral,neutral,1,k,k,,,,,,,,,11,7,205,1,,,,,,,,,main,2,2,1,neutral,neutral,k,k,1,0.6974490999709815,499.1392265999457,500.1546853999607,500.13803219993133,None,499.1392265999457,None,499.1392265999457,None,499.1392265999457,None,500.83796147000976,None,500.83796147000976,None,500.83796147000976,None,,,,,,,,,,,,,,210,2023-04-05_14h56.13.196,Main,2022.1.1,60.02148767453243,
negative,positive,2,j,l,,,,,,,,,11,8,206,15,,,,,,,,,main,2,2,2,positive,negative,j,j,1,0.6846620000433177,500.83957429998554,501.8546774999704,501.83799010002986,None,500.83957429998554,None,500.83957429998554,None,500.83957429998554,None,502.5238797699567,None,502.5238797699567,None,502.5238797699567,None,,,,,,,,,,,,,,210,2023-04-05_14h56.13.196,Main,2022.1.1,60.02148767453243,
neutral,negative,1,k,k,,,,,,,,,11,9,207,7,,,,,,,,,main,2,2,1,negative,neutral,k,k,1,0.6622548999730498,502.52707760001067,503.53842639992945,503.5237882999936,None,502.52707760001067,None,502.52707760001067,None,502.52707760001067,None,504.18791656999383,None,504.18791656999383,None,504.18791656999383,None,,,,,,,,,,,,,,210,2023-04-05_14h56.13.196,Main,2022.1.1,60.02148767453243,
neutral,positive,1,k,k,,,,,,,,,11,10,208,4,,,,,,,,,main,2,2,1,positive,neutral,k,k,1,0.5844768000533804,504.1942526999628,505.20704100001603,505.1904444999527,None,504.1942526999628,None,504.1942526999628,None,504.1942526999628,None,505.77375137002673,None,505.77375137002673,None,505.77375137002673,None,,,,,,,,,,,,,,210,2023-04-05_14h56.13.196,Main,2022.1.1,60.02148767453243,
negative,positive,1,j,l,,,,,,,,,11,11,209,6,,,,,,,,,main,2,2,1,positive,negative,j,j,1,0.7649939999682829,505.7783351999242,506.79039219999686,506.7737230999628,None,505.7783351999242,None,505.7783351999242,None,505.7783351999242,None,507.5403015699703,None,507.5403015699703,None,507.5403015699703,None,,,,,,,,,,,,,,210,2023-04-05_14h56.13.196,Main,2022.1.1,60.02148767453243,
positive,negative,2,l,j,,,,,,,,,11,12,210,14,,,,,,,,,main,1,1,2,negative,positive,l,l,1,0.6472385000670329,507.5449198000133,508.55696389998775,508.54035989998374,None,507.5449198000133,None,507.5449198000133,None,507.5449198000133,None,509.1903887699591,None,509.1903887699591,None,509.1903887699591,None,,,,,,,,,,,,,,210,2023-04-05_14h56.13.196,Main,2022.1.1,60.02148767453243,
negative,neutral,2,j,l,,,,,,,,,11,13,211,12,,,,,,,,,main,2,2,2,neutral,negative,j,j,1,0.6622063999529928,509.1942897000117,510.1877116999822,510.1772778999293,None,509.1942897000117,None,509.1942897000117,None,509.1942897000117,None,510.8543847699184,None,510.8543847699184,None,510.8543847699184,None,,,,,,,,,,,,,,210,2023-04-05_14h56.13.196,Main,2022.1.1,60.02148767453243,
neutral,neutral,2,k,k,,,,,,,,,11,14,212,10,,,,,,,,,main,2,2,2,neutral,neutral,k,k,1,0.6986629000166431,510.85437630000524,511.8544074000092,511.8544074000092,None,510.85437630000524,None,510.85437630000524,None,510.85437630000524,None,512.554403970018,None,512.554403970018,None,512.554403970018,None,,,,,,,,,,,,,,210,2023-04-05_14h56.13.196,Main,2022.1.1,60.02148767453243,
negative,neutral,1,j,l,,,,,,,,,11,15,213,3,,,,,,,,,main,2,2,1,neutral,negative,j,j,1,0.7150157999712974,512.5558763999725,513.5710843999404,513.5544141000137,None,512.5558763999725,None,512.5558763999725,None,512.5558763999725,None,514.2710787699325,None,514.2710787699325,None,514.2710787699325,None,,,,,,,,,,,,,,210,2023-04-05_14h56.13.196,Main,2022.1.1,60.02148767453243,
negative,negative,2,j,l,,,,,,,,,11,16,214,9,,,,,,,,,main,2,2,2,negative,negative,j,j,1,0.7151793000521138,514.274190899916,515.2735239999602,515.2569253999973,None,514.274190899916,None,514.274190899916,None,514.274190899916,None,515.9877388699679,None,515.9877388699679,None,515.9877388699679,None,,,,,,,,,,,,,,210,2023-04-05_14h56.13.196,Main,2022.1.1,60.02148767453243,
positive,neutral,1,l,j,,,,,,,,,11,17,215,8,,,,,,,,,main,1,1,1,neutral,positive,l,l,1,0.6508973999880254,515.9937175000086,517.0067576000001,516.9735217000125,None,515.9937175000086,None,515.9937175000086,None,515.9937175000086,None,517.6400763699785,None,517.6400763699785,None,517.6400763699785,None,,,,,,,,,,,,,,210,2023-04-05_14h56.13.196,Main,2022.1.1,60.02148767453243,
neutral,neutral,2,k,k,,,,,,,,,12,0,216,10,,,,,,,,,main,2,2,2,neutral,neutral,k,k,1,0.6133682000217959,517.6441679999698,518.6567605999298,518.6401642999845,None,517.6441679999698,None,517.6441679999698,None,517.6441679999698,None,519.2548994700192,None,519.2548994700192,None,519.2548994700192,None,,,,,,,,,,,,,,210,2023-04-05_14h56.13.196,Main,2022.1.1,60.02148767453243,
positive,negative,2,l,j,,,,,,,,,12,1,217,14,,,,,,,,,main,2,2,2,negative,positive,l,l,1,0.8168959999457002,519.2611709999619,520.2733740999829,520.2567492999369,None,519.2611709999619,None,519.2611709999619,None,519.2611709999619,None,521.0733511699364,None,521.0733511699364,None,521.0733511699364,None,,,,,,,,,,,,,,210,2023-04-05_14h56.13.196,Main,2022.1.1,60.02148767453243,
negative,positive,1,j,l,,,,,,,,,12,2,218,6,,,,,,,,,main,2,2,1,positive,negative,j,j,1,0.6626279000192881,521.0773166000145,522.087471799925,522.0707893000217,None,521.0773166000145,None,521.0773166000145,None,521.0773166000145,None,522.7375106699765,None,522.7375106699765,None,522.7375106699765,None,,,,,,,,,,,,,,210,2023-04-05_14h56.13.196,Main,2022.1.1,60.02148767453243,
negative,positive,2,j,l,,,,,,,,,12,3,219,15,,,,,,,,,main,2,2,2,positive,negative,j,j,1,0.8152588999364525,522.7374896999681,523.7377354999771,523.7377354999771,None,522.7374896999681,None,522.7374896999681,None,522.7374896999681,None,524.5544282699702,None,524.5544282699702,None,524.5544282699702,None,,,,,,,,,,,,,,210,2023-04-05_14h56.13.196,Main,2022.1.1,60.02148767453243,
neutral,positive,2,k,k,,,,,,,,,12,4,220,13,,,,,,,,,main,1,1,2,positive,neutral,k,k,1,0.6175795000744984,524.5613810999785,525.5732730999589,525.5566714999732,None,524.5613810999785,None,524.5613810999785,None,524.5613810999785,None,526.1733607699862,None,526.1733607699862,None,526.1733607699862,None,,,,,,,,,,,,,,210,2023-04-05_14h56.13.196,Main,2022.1.1,60.02148767453243,
neutral,negative,2,k,k,,,,,,,,,12,5,221,16,,,,,,,,,main,1,1,2,negative,neutral,k,k,1,0.5622992999851704,526.1776682999916,527.1899048999185,527.1733120999997,None,526.1776682999916,None,526.1776682999916,None,526.1776682999916,None,527.7374831699999,None,527.7374831699999,None,527.7374831699999,None,,,,,,,,,,,,,,210,2023-04-05_14h56.13.196,Main,2022.1.1,60.02148767453243,
negative,negative,1,j,l,,,,,,,,,12,6,222,0,,,,,,,,,main,2,2,1,negative,negative,j,j,1,0.6344270000699908,527.7435672000283,528.7565406999784,528.7232752999989,None,527.7435672000283,None,527.7435672000283,None,527.7435672000283,None,529.3731680699857,None,529.3731680699857,None,529.3731680699857,None,,,,,,,,,,,,,,210,2023-04-05_14h56.13.196,Main,2022.1.1,60.02148767453243,
positive,neutral,1,l,j,,,,,,,,,12,7,223,8,,,,,,,,,main,1,1,1,neutral,positive,l,l,1,0.6817184999817982,529.3762237000046,530.3898385999491,530.3732446000213,None,529.3762237000046,None,529.3762237000046,None,529.3762237000046,None,531.0565706699854,None,531.0565706699854,None,531.0565706699854,None,,,,,,,,,,,,,,210,2023-04-05_14h56.13.196,Main,2022.1.1,60.02148767453243,
