target,distractor,set,ans1,ans2,rep_loop2.thisRepN,rep_loop2.thisTrialN,rep_loop2.thisN,rep_loop2.thisIndex,flanker_prac_loop.thisRepN,flanker_prac_loop.thisTrialN,flanker_prac_loop.thisN,flanker_prac_loop.thisIndex,flanker_main_loop.thisRepN,flanker_main_loop.thisTrialN,flanker_main_loop.thisN,flanker_main_loop.thisIndex,fl_inst_resp.keys,fl_inst_resp.rt,sound_1.started,sound_1.stopped,image_4.started,image_4.stopped,back_2.started,back_2.stopped,main_prac,fl_cold,fl_colt,fl_set,fl_dcond,fl_tcond,fl_ans,fl_res,fl_corr,fl_rt,fix_fl.started,fix_fl.stopped,targ.started,targ.stopped,j_button.started,j_button.stopped,k_button.started,k_button.stopped,l_button.started,l_button.stopped,j_button2.started,j_button2.stopped,k_button2.started,k_button2.stopped,l_button2.started,l_button2.stopped,mainback.started,mainback.stopped,key_resp.keys,key_resp.rt,mouse_6.x,mouse_6.y,mouse_6.leftButton,mouse_6.midButton,mouse_6.rightButton,mouse_6.started,mouse_6.stopped,id*,date,expName,psychopyVersion,frameRate,
,,,,,0,0,0,0,,,,,,,,,space,73.4898917999817,17.75536741002579,None,91.26789600000484,None,,,,,,,,,,,,,,,,,,,,,,,,,,,,,,,,,,,,,,,,001,2022-05-02_10h58.01.618,Main,2022.1.1,61.08709368753411,
positive,neutral,1,l,j,,,,,0,0,0,8,,,,,,,,,,,112.93422250001458,None,prac,2,2,1,neutral,positive,j,j,1,1.7268212999915704,114.96626630000537,115.97000090003712,115.95339300000342,None,114.96626630000537,None,114.96626630000537,None,114.96626630000537,None,117.68687820003834,None,117.68687820003834,None,117.68687820003834,None,,,,,,,,,,,,001,2022-05-02_10h58.01.618,Main,2022.1.1,61.08709368753411,
neutral,neutral,2,k,k,,,,,0,1,1,10,,,,,,,,,,,,,prac,2,2,2,neutral,neutral,k,k,1,0.8342439999687485,118.70179710001685,119.7010094000143,119.68668720003916,None,118.70179710001685,None,118.70179710001685,None,118.70179710001685,None,120.51747511001886,None,120.51747511001886,None,120.51747511001886,None,,,,,,,,,,,,001,2022-05-02_10h58.01.618,Main,2022.1.1,61.08709368753411,
neutral,negative,1,k,k,,,,,0,2,2,7,,,,,,,,,,,,,prac,1,1,1,negative,neutral,k,k,1,0.7979455000022426,120.52680410002358,121.53657760005444,121.51989550003782,None,120.52680410002358,None,120.52680410002358,None,120.52680410002358,None,122.31716751005152,None,122.31716751005152,None,122.31716751005152,None,,,,,,,,,,,,001,2022-05-02_10h58.01.618,Main,2022.1.1,61.08709368753411,
neutral,positive,2,k,k,,,,,0,3,3,13,,,,,,,,,,,,,prac,2,2,2,positive,neutral,k,k,1,0.8146142000332475,122.3344589000335,123.33389470004477,123.31722440000158,None,122.3344589000335,None,122.3344589000335,None,122.3344589000335,None,124.13387771003764,None,124.13387771003764,None,124.13387771003764,None,,,,,,,,,,,,001,2022-05-02_10h58.01.618,Main,2022.1.1,61.08709368753411,
negative,positive,2,j,l,,,,,0,4,4,15,,,,,,,,,,,,,prac,2,2,2,positive,negative,l,l,1,0.8487719999975525,124.14895120001165,125.1531854000059,125.13422390003689,None,124.14895120001165,None,124.14895120001165,None,124.14895120001165,None,125.98413291003672,None,125.98413291003672,None,125.98413291003672,None,,,,,,,,,,,,001,2022-05-02_10h58.01.618,Main,2022.1.1,61.08709368753411,
positive,negative,1,l,j,,,,,0,5,5,5,,,,,,,,,,,,,prac,2,2,1,negative,positive,j,j,1,1.1320181000046432,126.0042170000379,127.01753190002637,126.98642710002605,None,126.0042170000379,None,126.0042170000379,None,126.0042170000379,None,128.11741201003898,None,128.11741201003898,None,128.11741201003898,None,,,,,,,,,,,,001,2022-05-02_10h58.01.618,Main,2022.1.1,61.08709368753411,
negative,positive,1,j,l,,,,,0,6,6,6,,,,,,,,,,,,,prac,2,2,1,positive,negative,l,l,1,0.8827837000135332,128.13584700005595,129.1363053000532,129.11980520002544,None,128.13584700005595,None,128.13584700005595,None,128.13584700005595,None,130.0007191100216,None,130.0007191100216,None,130.0007191100216,None,,,,,,,,,,,,001,2022-05-02_10h58.01.618,Main,2022.1.1,61.08709368753411,
neutral,negative,2,k,k,,,,,0,7,7,16,,,,,,,,,,,,,prac,1,1,2,negative,neutral,k,k,1,0.7643540999852121,130.01155520003522,131.01965660002315,131.00306510005612,None,130.01155520003522,None,130.01155520003522,None,130.01155520003522,None,131.76704851003015,None,131.76704851003015,None,131.76704851003015,None,,,,,,,,,,,,001,2022-05-02_10h58.01.618,Main,2022.1.1,61.08709368753411,
neutral,neutral,1,k,k,,,,,0,8,8,1,,,,,,,,,,,,,prac,1,1,1,neutral,neutral,k,k,1,0.7484367999713868,131.78295610001078,132.7836797000491,132.76702250004746,None,131.78295610001078,None,131.78295610001078,None,131.78295610001078,None,133.5169674100529,None,133.5169674100529,None,133.5169674100529,None,,,,,,,,,,,,001,2022-05-02_10h58.01.618,Main,2022.1.1,61.08709368753411,
positive,positive,1,l,j,,,,,0,9,9,2,,,,,,,,,,,,,prac,2,2,1,positive,positive,j,j,1,0.9491515000117943,133.51704560004873,134.51704910001718,134.51704910001718,None,133.51704560004873,None,133.51704560004873,None,133.51704560004873,None,135.46727921005223,None,135.46727921005223,None,135.46727921005223,None,,,,,,,,,,,,001,2022-05-02_10h58.01.618,Main,2022.1.1,61.08709368753411,
positive,positive,2,l,j,,,,,0,10,10,11,,,,,,,,,,,,,prac,2,2,2,positive,positive,j,j,1,0.9481916999793611,135.47102280001855,136.48619320004946,136.4696069000056,None,135.47102280001855,None,135.47102280001855,None,135.47102280001855,None,137.41721991001978,None,137.41721991001978,None,137.41721991001978,None,,,,,,,,,,,,001,2022-05-02_10h58.01.618,Main,2022.1.1,61.08709368753411,
negative,neutral,1,j,l,,,,,0,11,11,3,,,,,,,,,,,,,prac,1,1,1,neutral,negative,l,l,1,0.798076500010211,137.421189900022,138.43618150003022,138.4195879000472,None,137.421189900022,None,137.421189900022,None,137.421189900022,None,139.21719711000915,None,139.21719711000915,None,139.21719711000915,None,,,,,,,,,,,,001,2022-05-02_10h58.01.618,Main,2022.1.1,61.08709368753411,
positive,negative,2,l,j,,,,,0,12,12,14,,,,,,,,,,,,,prac,2,2,2,negative,positive,j,j,1,0.831902000005357,139.2329885000363,140.23607810004614,140.2195513000479,None,139.2329885000363,None,139.2329885000363,None,139.2329885000363,None,141.0504926100315,None,141.0504926100315,None,141.0504926100315,None,,,,,,,,,,,,001,2022-05-02_10h58.01.618,Main,2022.1.1,61.08709368753411,
negative,neutral,2,j,l,,,,,0,13,13,12,,,,,,,,,,,,,prac,1,1,2,neutral,negative,l,l,1,0.9314930000109598,141.06519910000497,142.06943250005133,142.0527613000013,None,141.06519910000497,None,141.06519910000497,None,141.06519910000497,None,142.98343321000576,None,142.98343321000576,None,142.98343321000576,None,,,,,,,,,,,,001,2022-05-02_10h58.01.618,Main,2022.1.1,61.08709368753411,
positive,neutral,2,l,j,,,,,0,14,14,17,,,,,,,,,,,,,prac,2,2,2,neutral,positive,j,j,1,0.7820342999766581,142.98352190002333,143.98350200004643,143.98350200004643,None,142.98352190002333,None,142.98352190002333,None,142.98352190002333,None,144.76679181005457,None,144.76679181005457,None,144.76679181005457,None,,,,,,,,,,,,001,2022-05-02_10h58.01.618,Main,2022.1.1,61.08709368753411,
neutral,positive,1,k,k,,,,,0,15,15,4,,,,,,,,,,,,,prac,1,1,1,positive,neutral,k,k,1,0.7821990000084043,144.7716381000355,145.7860230000224,145.76941010000883,None,144.7716381000355,None,144.7716381000355,None,144.7716381000355,None,146.55036631000112,None,146.55036631000112,None,146.55036631000112,None,,,,,,,,,,,,001,2022-05-02_10h58.01.618,Main,2022.1.1,61.08709368753411,
negative,negative,1,j,l,,,,,0,16,16,0,,,,,,,,,,,,,prac,2,2,1,negative,negative,l,l,1,0.8987736999988556,146.55354570003692,147.55270560004283,147.55270560004283,None,146.55354570003692,None,146.55354570003692,None,146.55354570003692,None,148.45033721003566,None,148.45033721003566,None,148.45033721003566,None,,,,,,,,,,,,001,2022-05-02_10h58.01.618,Main,2022.1.1,61.08709368753411,
negative,negative,2,j,l,,,,,0,17,17,9,,,,,,,,,,,,,prac,1,1,2,negative,negative,l,l,1,0.8149338999646716,148.45368960004998,149.46915680001257,149.45264620002126,None,148.45368960004998,None,148.45368960004998,None,148.45368960004998,None,150.26697941002786,None,150.26697941002786,None,150.26697941002786,None,,,,,,,,,,,,001,2022-05-02_10h58.01.618,Main,2022.1.1,61.08709368753411,
neutral,negative,1,k,k,,,,,1,0,18,7,,,,,,,,,,,,,prac,1,1,1,negative,neutral,k,k,1,0.8048293000319973,150.27284560003318,151.28591240005335,151.2526610000059,None,150.27284560003318,None,150.27284560003318,None,150.27284560003318,None,152.0691142100317,None,152.0691142100317,None,152.0691142100317,None,,,,,,,,,,,,001,2022-05-02_10h58.01.618,Main,2022.1.1,61.08709368753411,
positive,positive,2,l,j,,,,,1,1,19,11,,,,,,,,,,,,,prac,1,1,2,positive,positive,j,j,1,0.7264579000184312,152.09068470000057,153.09997920005117,153.0833065000479,None,152.09068470000057,None,152.09068470000057,None,152.09068470000057,None,153.7998797100212,None,153.7998797100212,None,153.7998797100212,None,,,,,,,,,,,,001,2022-05-02_10h58.01.618,Main,2022.1.1,61.08709368753411,
positive,negative,1,l,j,,,,,1,2,20,5,,,,,,,,,,,,,prac,1,1,1,negative,positive,j,j,1,0.9643137999810278,153.8004506000434,154.79994630004512,154.79994630004512,None,153.8004506000434,None,153.8004506000434,None,153.8004506000434,None,155.7665470100532,None,155.7665470100532,None,155.7665470100532,None,,,,,,,,,,,,001,2022-05-02_10h58.01.618,Main,2022.1.1,61.08709368753411,
neutral,positive,1,k,k,,,,,1,3,21,4,,,,,,,,,,,,,prac,1,1,1,positive,neutral,k,k,1,0.8004694000119343,155.76926210004603,156.78329300001496,156.76662490004674,None,155.76926210004603,None,155.76926210004603,None,155.76926210004603,None,157.56914661004558,None,157.56914661004558,None,157.56914661004558,None,,,,,,,,,,,,001,2022-05-02_10h58.01.618,Main,2022.1.1,61.08709368753411,
neutral,negative,2,k,k,,,,,1,4,22,16,,,,,,,,,,,,,prac,2,2,2,negative,neutral,k,k,1,0.6460703000193462,157.57195730000967,158.58574200002477,158.56916450004792,None,157.57195730000967,None,157.57195730000967,None,157.57195730000967,None,159.2168102100317,None,159.2168102100317,None,159.2168102100317,None,,,,,,,,,,,,001,2022-05-02_10h58.01.618,Main,2022.1.1,61.08709368753411,
negative,negative,2,j,l,,,,,1,5,23,9,,,,,,,,,,,,,prac,1,1,2,negative,negative,l,l,1,0.7987542999908328,159.2208066000021,160.2358195000561,160.21914990001824,None,159.2208066000021,None,159.2208066000021,None,159.2208066000021,None,161.01672541001463,None,161.01672541001463,None,161.01672541001463,None,,,,,,,,,,,,001,2022-05-02_10h58.01.618,Main,2022.1.1,61.08709368753411,
neutral,positive,2,k,k,,,,,1,6,24,13,,,,,,,,,,,,,prac,1,1,2,positive,neutral,k,k,1,0.6673754000221379,161.01996940001845,162.01908200001344,162.01908200001344,None,161.01996940001845,None,161.01996940001845,None,161.01996940001845,None,162.68561471003923,None,162.68561471003923,None,162.68561471003923,None,,,,,,,,,,,,001,2022-05-02_10h58.01.618,Main,2022.1.1,61.08709368753411,
negative,negative,1,j,l,,,,,1,7,25,0,,,,,,,,,,,,,prac,1,1,1,negative,negative,l,l,1,1.1320628999965265,162.68923430005088,163.70232650003163,163.68577180005377,None,162.68923430005088,None,162.68923430005088,None,162.68923430005088,None,164.81883701001644,None,164.81883701001644,None,164.81883701001644,None,,,,,,,,,,,,001,2022-05-02_10h58.01.618,Main,2022.1.1,61.08709368753411,
negative,positive,2,j,l,,,,,1,8,26,15,,,,,,,,,,,,,prac,1,1,2,positive,negative,l,l,1,0.829176000028383,164.82172160001937,165.83304800000042,165.8163876000326,None,164.82172160001937,None,164.82172160001937,None,164.82172160001937,None,166.64959781000508,None,166.64959781000508,None,166.64959781000508,None,,,,,,,,,,,,001,2022-05-02_10h58.01.618,Main,2022.1.1,61.08709368753411,
negative,neutral,1,j,l,,,,,1,9,27,3,,,,,,,,,,,,,prac,2,2,1,neutral,negative,l,l,1,0.8822045000270009,166.64993440004764,167.64969120000023,167.64969120000023,None,166.64993440004764,None,166.64993440004764,None,166.64993440004764,None,168.53298391000718,None,168.53298391000718,None,168.53298391000718,None,,,,,,,,,,,,001,2022-05-02_10h58.01.618,Main,2022.1.1,61.08709368753411,
positive,positive,1,l,j,,,,,1,10,28,2,,,,,,,,,,,,,prac,2,2,1,positive,positive,j,j,1,0.8486983000184409,168.53623580001295,169.55232400004752,169.53572460002033,None,168.53623580001295,None,168.53623580001295,None,168.53623580001295,None,170.38323261001497,None,170.38323261001497,None,170.38323261001497,None,,,,,,,,,,,,001,2022-05-02_10h58.01.618,Main,2022.1.1,61.08709368753411,
positive,negative,2,l,j,,,,,1,11,29,14,,,,,,,,,,,,,prac,1,1,2,negative,positive,j,j,1,0.7513387000071816,170.38723070005653,171.4022558000288,171.385626400006,None,170.38723070005653,None,170.38723070005653,None,170.38723070005653,None,172.13563641004149,None,172.13563641004149,None,172.13563641004149,None,,,,,,,,,,,,001,2022-05-02_10h58.01.618,Main,2022.1.1,61.08709368753411,
neutral,neutral,2,k,k,,,,,1,12,30,10,,,,,,,,,,,,,prac,1,1,2,neutral,neutral,k,k,1,0.630713599966839,172.1394315000507,173.15212950005662,173.1356207000208,None,172.1394315000507,None,172.1394315000507,None,172.1394315000507,None,173.7687055100163,None,173.7687055100163,None,173.7687055100163,None,,,,,,,,,,,,001,2022-05-02_10h58.01.618,Main,2022.1.1,61.08709368753411,
neutral,neutral,1,k,k,,,,,1,13,31,1,,,,,,,,,,,,,prac,2,2,1,neutral,neutral,k,k,1,0.6131180000375025,173.771148800035,174.78540480002994,174.76873200002592,None,173.771148800035,None,173.771148800035,None,173.771148800035,None,175.3831306100532,None,175.3831306100532,None,175.3831306100532,None,,,,,,,,,,,,001,2022-05-02_10h58.01.618,Main,2022.1.1,61.08709368753411,
positive,neutral,1,l,j,,,,,1,14,32,8,,,,,,,,,,,,,prac,2,2,1,neutral,positive,j,j,1,0.8980920999892987,175.386272200034,176.38569800002733,176.3688514000387,None,175.386272200034,None,175.386272200034,None,175.386272200034,None,177.282737010048,None,177.282737010048,None,177.282737010048,None,,,,,,,,,,,,001,2022-05-02_10h58.01.618,Main,2022.1.1,61.08709368753411,
positive,neutral,2,l,j,,,,,1,15,33,17,,,,,,,,,,,,,prac,1,1,2,neutral,positive,j,j,1,0.748939800017979,177.28296860004775,178.2827982000308,178.2827982000308,None,177.28296860004775,None,177.28296860004775,None,177.28296860004775,None,179.03305081005092,None,179.03305081005092,None,179.03305081005092,None,,,,,,,,,,,,001,2022-05-02_10h58.01.618,Main,2022.1.1,61.08709368753411,
negative,positive,1,j,l,,,,,1,16,34,6,,,,,,,,,,,,,prac,2,2,1,positive,negative,l,l,1,0.7513430999824777,179.04980960005196,180.05198710004333,180.0353798000142,None,179.04980960005196,None,179.04980960005196,None,179.04980960005196,None,180.78520131001133,None,180.78520131001133,None,180.78520131001133,None,,,,,,,,,,,,001,2022-05-02_10h58.01.618,Main,2022.1.1,61.08709368753411,
negative,neutral,2,j,l,,,,,1,17,35,12,,,,,,,,,,,,,prac,2,2,2,neutral,negative,l,l,1,0.8286853000172414,180.78933820000384,181.80198970000492,181.78534729999956,None,180.78933820000384,None,180.78933820000384,None,180.78933820000384,None,182.6163131100533,None,182.6163131100533,None,182.6163131100533,None,,,,,,,,,,,,001,2022-05-02_10h58.01.618,Main,2022.1.1,61.08709368753411,
,,,,,,,,,,,,,,,,,,,,,,,,,,,,,,,,,,,,,,,,,,,,,,,,,,,182.61865290004062,None,space,10.192197100026533,,,,,,,,001,2022-05-02_10h58.01.618,Main,2022.1.1,61.08709368753411,
,,,,,,,,,,,,,,,,,,,,,,,,,,,,,,,,,,,,,,,,,,,,,,,,,,,,,,,0.06666667,-0.07962963,0,0,0,0.010965809982735664,None,001,2022-05-02_10h58.01.618,Main,2022.1.1,61.08709368753411,
neutral,negative,1,k,k,,,,,,,,,0,0,0,7,,,,,,,192.83517310000025,None,main,1,1,1,negative,neutral,k,k,1,0.6601856999914162,194.84450140001718,195.8517744000419,195.83506990002934,None,194.84450140001718,None,194.84450140001718,None,194.84450140001718,None,196.5016218100267,None,196.5016218100267,None,196.5016218100267,None,,,,,,,,,,,,001,2022-05-02_10h58.01.618,Main,2022.1.1,61.08709368753411,
positive,neutral,1,l,j,,,,,,,,,0,1,1,8,,,,,,,,,main,1,1,1,neutral,positive,j,l,0,0.9777697999961674,196.50637930002995,197.51573820004705,197.499069100013,None,196.50637930002995,None,196.50637930002995,None,196.50637930002995,None,198.4823885000078,None,198.4823885000078,None,198.4823885000078,None,,,,,,,,,,,,001,2022-05-02_10h58.01.618,Main,2022.1.1,61.08709368753411,
neutral,neutral,1,k,k,,,,,,,,,0,2,2,1,,,,,,,,,main,1,1,1,neutral,neutral,k,k,1,0.7577563000377268,199.48818310000934,200.50162060000002,200.4660163000226,None,199.48818310000934,None,199.48818310000934,None,199.48818310000934,None,201.23648071004428,None,201.23648071004428,None,201.23648071004428,None,,,,,,,,,,,,001,2022-05-02_10h58.01.618,Main,2022.1.1,61.08709368753411,
positive,negative,1,l,j,,,,,,,,,0,3,3,5,,,,,,,,,main,1,1,1,negative,positive,j,j,1,0.8119061000179499,201.24084000004223,202.2514903000556,202.23498810001183,None,201.24084000004223,None,201.24084000004223,None,201.24084000004223,None,203.05148441001657,None,203.05148441001657,None,203.05148441001657,None,,,,,,,,,,,,001,2022-05-02_10h58.01.618,Main,2022.1.1,61.08709368753411,
negative,negative,2,j,l,,,,,,,,,0,4,4,9,,,,,,,,,main,1,1,2,negative,negative,l,l,1,0.7650101999752223,203.0540456000017,204.06823200004874,204.05151750001824,None,203.0540456000017,None,203.0540456000017,None,203.0540456000017,None,204.81816121005104,None,204.81816121005104,None,204.81816121005104,None,,,,,,,,,,,,001,2022-05-02_10h58.01.618,Main,2022.1.1,61.08709368753411,
positive,neutral,2,l,j,,,,,,,,,0,5,5,17,,,,,,,,,main,2,2,2,neutral,positive,j,j,1,0.7463437000405975,204.82224940002197,205.83255680004368,205.81815620005364,None,204.82224940002197,None,204.82224940002197,None,204.82224940002197,None,206.56581851002412,None,206.56581851002412,None,206.56581851002412,None,,,,,,,,,,,,001,2022-05-02_10h58.01.618,Main,2022.1.1,61.08709368753411,
neutral,positive,1,k,k,,,,,,,,,0,6,6,4,,,,,,,,,main,1,1,1,positive,neutral,k,k,1,0.700730399985332,206.569962700014,207.5821932000108,207.56552560004639,None,206.569962700014,None,206.569962700014,None,206.569962700014,None,208.26543581003207,None,208.26543581003207,None,208.26543581003207,None,,,,,,,,,,,,001,2022-05-02_10h58.01.618,Main,2022.1.1,61.08709368753411,
neutral,neutral,2,k,k,,,,,,,,,0,7,7,10,,,,,,,,,main,2,2,2,neutral,neutral,k,k,1,0.6110004000365734,208.276093100023,209.2821985000046,209.26554150000447,None,208.276093100023,None,208.276093100023,None,208.276093100023,None,209.8825622100325,None,209.8825622100325,None,209.8825622100325,None,,,,,,,,,,,,001,2022-05-02_10h58.01.618,Main,2022.1.1,61.08709368753411,
positive,positive,2,l,j,,,,,,,,,0,8,8,11,,,,,,,,,main,2,2,2,positive,positive,j,j,1,0.632591700006742,209.8834994000499,210.89885660004802,210.88219100004062,None,209.8834994000499,None,209.8834994000499,None,209.8834994000499,None,211.5168225100555,None,211.5168225100555,None,211.5168225100555,None,,,,,,,,,,,,001,2022-05-02_10h58.01.618,Main,2022.1.1,61.08709368753411,
negative,positive,2,j,l,,,,,,,,,0,9,9,15,,,,,,,,,main,2,2,2,positive,negative,l,l,1,0.7471670000231825,211.5228670000215,212.53472360002343,212.51811520004412,None,211.5228670000215,None,211.5228670000215,None,211.5228670000215,None,213.26571401005495,None,213.26571401005495,None,213.26571401005495,None,,,,,,,,,,,,001,2022-05-02_10h58.01.618,Main,2022.1.1,61.08709368753411,
negative,neutral,1,j,l,,,,,,,,,0,10,10,3,,,,,,,,,main,2,2,1,neutral,negative,l,l,1,0.7648839000030421,213.26934260001872,214.28474290005397,214.2680775000481,None,213.26934260001872,None,213.26934260001872,None,213.26934260001872,None,215.03233491001302,None,215.03233491001302,None,215.03233491001302,None,,,,,,,,,,,,001,2022-05-02_10h58.01.618,Main,2022.1.1,61.08709368753411,
neutral,positive,2,k,k,,,,,,,,,0,11,11,13,,,,,,,,,main,1,1,2,positive,neutral,k,k,1,0.6826432999805547,215.03599830000894,216.05127400002675,216.0346455000108,None,215.03599830000894,None,215.03599830000894,None,215.03599830000894,None,216.71658321004944,None,216.71658321004944,None,216.71658321004944,None,,,,,,,,,,,,001,2022-05-02_10h58.01.618,Main,2022.1.1,61.08709368753411,
negative,neutral,2,j,l,,,,,,,,,0,12,12,12,,,,,,,,,main,2,2,2,neutral,negative,l,l,1,0.6471886999788694,216.72266800003126,217.73233970004367,217.71793959999923,None,216.72266800003126,None,216.72266800003126,None,216.72266800003126,None,218.36556161003537,None,218.36556161003537,None,218.36556161003537,None,,,,,,,,,,,,001,2022-05-02_10h58.01.618,Main,2022.1.1,61.08709368753411,
positive,positive,1,l,j,,,,,,,,,0,13,13,2,,,,,,,,,main,2,2,1,positive,positive,j,j,1,0.9147362999501638,218.36888000002364,219.38196220004465,219.3652877000277,None,218.36888000002364,None,218.36888000002364,None,218.36888000002364,None,220.28186761000543,None,220.28186761000543,None,220.28186761000543,None,,,,,,,,,,,,001,2022-05-02_10h58.01.618,Main,2022.1.1,61.08709368753411,
positive,negative,2,l,j,,,,,,,,,0,14,14,14,,,,,,,,,main,1,1,2,negative,positive,j,j,1,0.6508616000064649,220.28220220003277,221.28461180004524,221.28461180004524,None,220.28220220003277,None,220.28220220003277,None,220.28220220003277,None,221.93447181000957,None,221.93447181000957,None,221.93447181000957,None,,,,,,,,,,,,001,2022-05-02_10h58.01.618,Main,2022.1.1,61.08709368753411,
neutral,negative,2,k,k,,,,,,,,,0,15,15,16,,,,,,,,,main,1,1,2,negative,neutral,k,k,1,0.6459042999777012,221.93747320002876,222.95119920000434,222.93223580002086,None,221.93747320002876,None,221.93747320002876,None,221.93747320002876,None,223.5821561100369,None,223.5821561100369,None,223.5821561100369,None,,,,,,,,,,,,001,2022-05-02_10h58.01.618,Main,2022.1.1,61.08709368753411,
negative,negative,1,j,l,,,,,,,,,0,16,16,0,,,,,,,,,main,1,1,1,negative,negative,l,l,1,0.7660070999991149,223.586227300053,224.60117040004116,224.58444450004026,None,223.586227300053,None,223.586227300053,None,223.586227300053,None,225.34852151002852,None,225.34852151002852,None,225.34852151002852,None,,,,,,,,,,,,001,2022-05-02_10h58.01.618,Main,2022.1.1,61.08709368753411,
negative,positive,1,j,l,,,,,,,,,0,17,17,6,,,,,,,,,main,1,1,1,positive,negative,l,l,1,0.6634450000128709,225.35580230003688,226.3654998000129,226.3488270000089,None,225.35580230003688,None,225.35580230003688,None,225.35580230003688,None,227.01539911004366,None,227.01539911004366,None,227.01539911004366,None,,,,,,,,,,,,001,2022-05-02_10h58.01.618,Main,2022.1.1,61.08709368753411,
positive,positive,1,l,j,,,,,,,,,1,0,18,2,,,,,,,,,main,1,1,1,positive,positive,j,j,1,0.764915400010068,227.01846240001032,228.03213470004266,228.01777600002242,None,227.01846240001032,None,227.01846240001032,None,227.01846240001032,None,228.7820048100024,None,228.7820048100024,None,228.7820048100024,None,,,,,,,,,,,,001,2022-05-02_10h58.01.618,Main,2022.1.1,61.08709368753411,
neutral,neutral,2,k,k,,,,,,,,,1,1,19,10,,,,,,,,,main,2,2,2,neutral,neutral,k,k,1,0.6807309999712743,228.78617010003654,229.79838200000813,229.78171010001097,None,228.78617010003654,None,228.78617010003654,None,228.78617010003654,None,230.46499901003554,None,230.46499901003554,None,230.46499901003554,None,,,,,,,,,,,,001,2022-05-02_10h58.01.618,Main,2022.1.1,61.08709368753411,
negative,positive,1,j,l,,,,,,,,,1,2,20,6,,,,,,,,,main,2,2,1,positive,negative,l,l,1,0.7852205000235699,230.46506230003433,231.4650846000295,231.4650846000295,None,230.46506230003433,None,230.46506230003433,None,230.46506230003433,None,232.25088381005335,None,232.25088381005335,None,232.25088381005335,None,,,,,,,,,,,,001,2022-05-02_10h58.01.618,Main,2022.1.1,61.08709368753411,
neutral,negative,2,k,k,,,,,,,,,1,3,21,16,,,,,,,,,main,1,1,2,negative,neutral,k,k,1,0.6783251999877393,232.2555044000037,233.2676604000153,233.25103110005148,None,232.2555044000037,None,232.2555044000037,None,232.2555044000037,None,233.9319132100267,None,233.9319132100267,None,233.9319132100267,None,,,,,,,,,,,,001,2022-05-02_10h58.01.618,Main,2022.1.1,61.08709368753411,
negative,neutral,1,j,l,,,,,,,,,1,4,22,3,,,,,,,,,main,1,1,1,neutral,negative,l,l,1,0.6652629000018351,233.93588520004414,234.95088020002004,234.91759950004052,None,233.93588520004414,None,233.93588520004414,None,233.93588520004414,None,235.59856931004325,None,235.59856931004325,None,235.59856931004325,None,,,,,,,,,,,,001,2022-05-02_10h58.01.618,Main,2022.1.1,61.08709368753411,
negative,neutral,2,j,l,,,,,,,,,1,5,23,12,,,,,,,,,main,1,1,2,neutral,negative,l,l,1,0.7003351000021212,235.60220920003485,236.61756260000402,236.60091630002717,None,235.60220920003485,None,235.60220920003485,None,235.60220920003485,None,237.3006761100318,None,237.3006761100318,None,237.3006761100318,None,,,,,,,,,,,,001,2022-05-02_10h58.01.618,Main,2022.1.1,61.08709368753411,
positive,negative,2,l,j,,,,,,,,,1,6,24,14,,,,,,,,,main,1,1,2,negative,positive,j,j,1,0.6626960999565199,237.30371250002645,238.31747460004408,238.30081380001502,None,237.30371250002645,None,237.30371250002645,None,237.30371250002645,None,238.96514551004512,None,238.96514551004512,None,238.96514551004512,None,,,,,,,,,,,,001,2022-05-02_10h58.01.618,Main,2022.1.1,61.08709368753411,
negative,negative,1,j,l,,,,,,,,,1,7,25,0,,,,,,,,,main,1,1,1,negative,negative,l,l,1,0.6825087000033818,238.96850650000852,239.98152630002005,239.96486530004768,None,238.96850650000852,None,238.96850650000852,None,238.96850650000852,None,240.64811571001192,None,240.64811571001192,None,240.64811571001192,None,,,,,,,,,,,,001,2022-05-02_10h58.01.618,Main,2022.1.1,61.08709368753411,
negative,negative,2,j,l,,,,,,,,,1,8,26,9,,,,,,,,,main,2,2,2,negative,negative,l,l,1,0.6166214999975637,240.66486620000796,241.66489140002523,241.64822130004177,None,240.66486620000796,None,240.66486620000796,None,240.66486620000796,None,242.2673022100411,None,242.2673022100411,None,242.2673022100411,None,,,,,,,,,,,,001,2022-05-02_10h58.01.618,Main,2022.1.1,61.08709368753411,
positive,neutral,1,l,j,,,,,,,,,1,9,27,8,,,,,,,,,main,2,2,1,neutral,positive,j,j,1,0.8625423000194132,242.27080480003497,243.28400790004525,243.26495550002437,None,242.27080480003497,None,242.27080480003497,None,242.27080480003497,None,244.13173481001868,None,244.13173481001868,None,244.13173481001868,None,,,,,,,,,,,,001,2022-05-02_10h58.01.618,Main,2022.1.1,61.08709368753411,
neutral,positive,2,k,k,,,,,,,,,1,10,28,13,,,,,,,,,main,1,1,2,positive,neutral,k,k,1,0.6817037999862805,244.1350885000429,245.15065760002472,245.13406510005007,None,244.1350885000429,None,244.1350885000429,None,244.1350885000429,None,245.8150263100455,None,245.8150263100455,None,245.8150263100455,None,,,,,,,,,,,,001,2022-05-02_10h58.01.618,Main,2022.1.1,61.08709368753411,
positive,positive,2,l,j,,,,,,,,,1,11,29,11,,,,,,,,,main,2,2,2,positive,positive,j,j,1,0.6650284999632277,245.81872220005607,246.83174240001244,246.81739220005693,None,245.81872220005607,None,245.81872220005607,None,245.81872220005607,None,247.4816562100372,None,247.4816562100372,None,247.4816562100372,None,,,,,,,,,,,,001,2022-05-02_10h58.01.618,Main,2022.1.1,61.08709368753411,
neutral,neutral,1,k,k,,,,,,,,,1,12,30,1,,,,,,,,,main,2,2,1,neutral,neutral,k,k,1,0.6650112000061199,247.48527340003056,248.50059880001936,248.4840449000476,None,247.48527340003056,None,247.48527340003056,None,247.48527340003056,None,249.14828531002277,None,249.14828531002277,None,249.14828531002277,None,,,,,,,,,,,,001,2022-05-02_10h58.01.618,Main,2022.1.1,61.08709368753411,
neutral,positive,1,k,k,,,,,,,,,1,13,31,4,,,,,,,,,main,2,2,1,positive,neutral,k,k,1,0.648147500003688,249.15199610003037,250.1646591000026,250.14799720002338,None,249.15199610003037,None,249.15199610003037,None,249.15199610003037,None,250.79790631001234,None,250.79790631001234,None,250.79790631001234,None,,,,,,,,,,,,001,2022-05-02_10h58.01.618,Main,2022.1.1,61.08709368753411,
neutral,negative,1,k,k,,,,,,,,,1,14,32,7,,,,,,,,,main,1,1,1,negative,neutral,k,k,1,0.6313426999840885,250.79843439999968,251.79798250005115,251.79798250005115,None,250.79843439999968,None,250.79843439999968,None,250.79843439999968,None,252.43124011002365,None,252.43124011002365,None,252.43124011002365,None,,,,,,,,,,,,001,2022-05-02_10h58.01.618,Main,2022.1.1,61.08709368753411,
negative,positive,2,j,l,,,,,,,,,1,15,33,15,,,,,,,,,main,1,1,2,positive,negative,l,l,1,0.715386199997738,252.4313211000408,253.4313193000271,253.4313193000271,None,252.4313211000408,None,252.4313211000408,None,252.4313211000408,None,254.14818761003554,None,254.14818761003554,None,254.14818761003554,None,,,,,,,,,,,,001,2022-05-02_10h58.01.618,Main,2022.1.1,61.08709368753411,
positive,negative,1,l,j,,,,,,,,,1,16,34,5,,,,,,,,,main,1,1,1,negative,positive,j,j,1,0.7339311999967322,254.153740400041,255.16723440005444,255.15058200003114,None,254.153740400041,None,254.153740400041,None,254.153740400041,None,255.88382911001682,None,255.88382911001682,None,255.88382911001682,None,,,,,,,,,,,,001,2022-05-02_10h58.01.618,Main,2022.1.1,61.08709368753411,
positive,neutral,2,l,j,,,,,,,,,1,17,35,17,,,,,,,,,main,2,2,2,neutral,positive,j,j,1,0.7660621000104584,255.8874926000135,256.9004910000367,256.8839066000073,None,255.8874926000135,None,255.8874926000135,None,255.8874926000135,None,257.6482634100306,None,257.6482634100306,None,257.6482634100306,None,,,,,,,,,,,,001,2022-05-02_10h58.01.618,Main,2022.1.1,61.08709368753411,
neutral,negative,2,k,k,,,,,,,,,2,0,36,16,,,,,,,,,main,2,2,2,negative,neutral,k,k,1,0.6939904000028037,257.6556518000434,258.6670550000272,258.6504282000242,None,257.6556518000434,None,257.6556518000434,None,257.6556518000434,None,259.3480547100247,None,259.3480547100247,None,259.3480547100247,None,,,,,,,,,,,,001,2022-05-02_10h58.01.618,Main,2022.1.1,61.08709368753411,
negative,positive,1,j,l,,,,,,,,,2,1,37,6,,,,,,,,,main,2,2,1,positive,negative,l,l,1,1.015691299980972,259.3524504000088,260.3669471000321,260.35037610004656,None,259.3524504000088,None,259.3524504000088,None,259.3524504000088,None,261.3643351100094,None,261.3643351100094,None,261.3643351100094,None,,,,,,,,,,,,001,2022-05-02_10h58.01.618,Main,2022.1.1,61.08709368753411,
positive,negative,1,l,j,,,,,,,,,2,2,38,5,,,,,,,,,main,2,2,1,negative,positive,j,j,1,0.8974601000081748,261.36555580003187,262.3810785000096,262.36441200005356,None,261.36555580003187,None,261.36555580003187,None,261.36555580003187,None,263.2643726100272,None,263.2643726100272,None,263.2643726100272,None,,,,,,,,,,,,001,2022-05-02_10h58.01.618,Main,2022.1.1,61.08709368753411,
positive,positive,2,l,j,,,,,,,,,2,3,39,11,,,,,,,,,main,2,2,2,positive,positive,j,j,1,0.8486090999795124,263.2682855000021,264.28364390000934,264.2671020000125,None,263.2682855000021,None,263.2682855000021,None,263.2682855000021,None,265.11462781002626,None,265.11462781002626,None,265.11462781002626,None,,,,,,,,,,,,001,2022-05-02_10h58.01.618,Main,2022.1.1,61.08709368753411,
negative,negative,1,j,l,,,,,,,,,2,4,40,0,,,,,,,,,main,1,1,1,negative,negative,l,l,1,1.0983420999837108,265.11821890005376,266.1335119000287,266.11696850002045,None,265.11821890005376,None,265.11821890005376,None,265.11821890005376,None,267.2145737100567,None,267.2145737100567,None,267.2145737100567,None,,,,,,,,,,,,001,2022-05-02_10h58.01.618,Main,2022.1.1,61.08709368753411,
neutral,neutral,1,k,k,,,,,,,,,2,5,41,1,,,,,,,,,main,2,2,1,neutral,neutral,k,k,1,0.733836900035385,267.2181174000143,268.23158060002606,268.2169148000539,None,267.2181174000143,None,267.2181174000143,None,267.2181174000143,None,268.95013461000633,None,268.95013461000633,None,268.95013461000633,None,,,,,,,,,,,,001,2022-05-02_10h58.01.618,Main,2022.1.1,61.08709368753411,
positive,negative,2,l,j,,,,,,,,,2,6,42,14,,,,,,,,,main,1,1,2,negative,positive,j,j,1,0.765286699985154,268.95299760001944,269.9648766000173,269.9502475000336,None,268.95299760001944,None,268.95299760001944,None,268.95299760001944,None,270.71712921001597,None,270.71712921001597,None,270.71712921001597,None,,,,,,,,,,,,001,2022-05-02_10h58.01.618,Main,2022.1.1,61.08709368753411,
negative,negative,2,j,l,,,,,,,,,2,7,43,9,,,,,,,,,main,2,2,2,negative,negative,l,l,1,1.0621359000215307,270.71969630004605,271.7308833000134,271.71422190003796,None,270.71969630004605,None,270.71969630004605,None,270.71969630004605,None,272.7807900100073,None,272.7807900100073,None,272.7807900100073,None,,,,,,,,,,,,001,2022-05-02_10h58.01.618,Main,2022.1.1,61.08709368753411,
negative,neutral,1,j,l,,,,,,,,,2,8,44,3,,,,,,,,,main,2,2,1,neutral,negative,l,l,1,0.7318215999985114,272.78085200005444,273.78089930000715,273.78089930000715,None,272.78085200005444,None,272.78085200005444,None,272.78085200005444,None,274.5141348100209,None,274.5141348100209,None,274.5141348100209,None,,,,,,,,,,,,001,2022-05-02_10h58.01.618,Main,2022.1.1,61.08709368753411,
positive,neutral,1,l,j,,,,,,,,,2,9,45,8,,,,,,,,,main,1,1,1,neutral,positive,j,j,1,0.7817678999854252,274.5181856000563,275.5333338000346,275.51674410002306,None,274.5181856000563,None,274.5181856000563,None,274.5181856000563,None,276.2977454100095,None,276.2977454100095,None,276.2977454100095,None,,,,,,,,,,,,001,2022-05-02_10h58.01.618,Main,2022.1.1,61.08709368753411,
neutral,positive,2,k,k,,,,,,,,,2,10,46,13,,,,,,,,,main,2,2,2,positive,neutral,k,k,1,0.7013672000030056,276.3038467000006,277.3166927000275,277.3001124000293,None,276.3038467000006,None,276.3038467000006,None,276.3038467000006,None,278.0004888100142,None,278.0004888100142,None,278.0004888100142,None,,,,,,,,,,,,001,2022-05-02_10h58.01.618,Main,2022.1.1,61.08709368753411,
positive,positive,1,l,j,,,,,,,,,2,11,47,2,,,,,,,,,main,1,1,1,positive,positive,j,j,1,0.8449572999961674,278.0037709000171,279.01661890000105,278.9977568000322,None,278.0037709000171,None,278.0037709000171,None,278.0037709000171,None,279.8473407100013,None,279.8473407100013,None,279.8473407100013,None,,,,,,,,,,,,001,2022-05-02_10h58.01.618,Main,2022.1.1,61.08709368753411,
neutral,neutral,2,k,k,,,,,,,,,2,12,48,10,,,,,,,,,main,1,1,2,neutral,neutral,k,k,1,0.7156193999690004,279.85030130000087,280.86656540003605,280.83104540000204,None,279.85030130000087,None,279.85030130000087,None,279.85030130000087,None,281.56448121002757,None,281.56448121002757,None,281.56448121002757,None,,,,,,,,,,,,001,2022-05-02_10h58.01.618,Main,2022.1.1,61.08709368753411,
positive,neutral,2,l,j,,,,,,,,,2,13,49,17,,,,,,,,,main,1,1,2,neutral,positive,j,j,1,0.7310180999920703,281.5799328000285,282.5806678000372,282.5639949000324,None,281.5799328000285,None,281.5799328000285,None,281.5799328000285,None,283.2972388100519,None,283.2972388100519,None,283.2972388100519,None,,,,,,,,,,,,001,2022-05-02_10h58.01.618,Main,2022.1.1,61.08709368753411,
negative,positive,2,j,l,,,,,,,,,2,14,50,15,,,,,,,,,main,1,1,2,positive,negative,l,l,1,0.7843215999891981,283.2973208000185,284.30002540000714,284.30002540000714,None,283.2973208000185,None,283.2973208000185,None,283.2973208000185,None,285.0830615100043,None,285.0830615100043,None,285.0830615100043,None,,,,,,,,,,,,001,2022-05-02_10h58.01.618,Main,2022.1.1,61.08709368753411,
neutral,positive,1,k,k,,,,,,,,,2,15,51,4,,,,,,,,,main,2,2,1,positive,neutral,k,k,1,0.7460742000257596,285.0869973000372,286.0997722000466,286.08328420005273,None,285.0869973000372,None,285.0869973000372,None,285.0869973000372,None,286.83085841005084,None,286.83085841005084,None,286.83085841005084,None,,,,,,,,,,,,001,2022-05-02_10h58.01.618,Main,2022.1.1,61.08709368753411,
neutral,negative,1,k,k,,,,,,,,,2,16,52,7,,,,,,,,,main,1,1,1,negative,neutral,k,k,1,0.680891599971801,286.8349970000563,287.8498013000353,287.8332356000319,None,286.8349970000563,None,286.8349970000563,None,286.8349970000563,None,288.51416961005305,None,288.51416961005305,None,288.51416961005305,None,,,,,,,,,,,,001,2022-05-02_10h58.01.618,Main,2022.1.1,61.08709368753411,
negative,neutral,2,j,l,,,,,,,,,2,17,53,12,,,,,,,,,main,2,2,2,neutral,negative,l,l,1,0.764828099985607,288.5174457000103,289.53314190002857,289.51652210002067,None,288.5174457000103,None,288.5174457000103,None,288.5174457000103,None,290.28076041001475,None,290.28076041001475,None,290.28076041001475,None,,,,,,,,,,,,001,2022-05-02_10h58.01.618,Main,2022.1.1,61.08709368753411,
neutral,negative,2,k,k,,,,,,,,,3,0,54,16,,,,,,,,,main,1,1,2,negative,neutral,k,k,1,0.7141284000244923,290.28485160000855,291.29752250004094,291.2830534000532,None,290.28485160000855,None,290.28485160000855,None,290.28485160000855,None,291.9974117100413,None,291.9974117100413,None,291.9974117100413,None,,,,,,,,,,,,001,2022-05-02_10h58.01.618,Main,2022.1.1,61.08709368753411,
positive,neutral,2,l,j,,,,,,,,,3,1,55,17,,,,,,,,,main,2,2,2,neutral,positive,j,j,1,0.7147121999878436,292.0015787000302,293.0137891000486,292.99712340004044,None,292.0015787000302,None,292.0015787000302,None,292.0015787000302,None,293.71369481,None,293.71369481,None,293.71369481,None,,,,,,,,,,,,001,2022-05-02_10h58.01.618,Main,2022.1.1,61.08709368753411,
negative,neutral,1,j,l,,,,,,,,,3,2,56,3,,,,,,,,,main,2,2,1,neutral,negative,l,l,1,0.8842955000000075,293.7140186000033,294.71380040002987,294.71380040002987,None,293.7140186000033,None,293.7140186000033,None,293.7140186000033,None,295.59956561000433,None,295.59956561000433,None,295.59956561000433,None,,,,,,,,,,,,001,2022-05-02_10h58.01.618,Main,2022.1.1,61.08709368753411,
negative,positive,1,j,l,,,,,,,,,3,3,57,6,,,,,,,,,main,2,2,1,positive,negative,l,l,1,0.696207000000868,295.6032430000487,296.61630020005396,296.5997618000256,None,295.6032430000487,None,295.6032430000487,None,295.6032430000487,None,297.2972944100096,None,297.2972944100096,None,297.2972944100096,None,,,,,,,,,,,,001,2022-05-02_10h58.01.618,Main,2022.1.1,61.08709368753411,
neutral,positive,2,k,k,,,,,,,,,3,4,58,13,,,,,,,,,main,2,2,2,positive,neutral,k,k,1,0.8378980000270531,297.30111620004755,298.3162534000003,298.29962820000947,None,297.30111620004755,None,297.30111620004755,None,297.30111620004755,None,299.1328288100252,None,299.1328288100252,None,299.1328288100252,None,,,,,,,,,,,,001,2022-05-02_10h58.01.618,Main,2022.1.1,61.08709368753411,
neutral,negative,1,k,k,,,,,,,,,3,5,59,7,,,,,,,,,main,1,1,1,negative,neutral,k,k,1,0.6610532000195235,299.13976930000354,300.1473165000207,300.1306526000262,None,299.13976930000354,None,299.13976930000354,None,299.13976930000354,None,300.79956961004643,None,300.79956961004643,None,300.79956961004643,None,,,,,,,,,,,,001,2022-05-02_10h58.01.618,Main,2022.1.1,61.08709368753411,
neutral,neutral,1,k,k,,,,,,,,,3,6,60,1,,,,,,,,,main,2,2,1,neutral,neutral,k,k,1,0.613563199993223,300.80275680002524,301.8161530000507,301.7995582000003,None,300.80275680002524,None,300.80275680002524,None,300.80275680002524,None,302.41383291001546,None,302.41383291001546,None,302.41383291001546,None,,,,,,,,,,,,001,2022-05-02_10h58.01.618,Main,2022.1.1,61.08709368753411,
neutral,neutral,2,k,k,,,,,,,,,3,7,61,10,,,,,,,,,main,2,2,2,neutral,neutral,k,k,1,0.7317183999693953,302.41800100001274,303.43021440005396,303.4135686000227,None,302.41800100001274,None,302.41800100001274,None,302.41800100001274,None,304.1468102100247,None,304.1468102100247,None,304.1468102100247,None,,,,,,,,,,,,001,2022-05-02_10h58.01.618,Main,2022.1.1,61.08709368753411,
positive,neutral,1,l,j,,,,,,,,,3,8,62,8,,,,,,,,,main,2,2,1,neutral,positive,j,j,1,0.8805942999897525,304.14813670003787,305.16358240001136,305.1469230000512,None,304.14813670003787,None,304.14813670003787,None,304.14813670003787,None,306.03047761001505,None,306.03047761001505,None,306.03047761001505,None,,,,,,,,,,,,001,2022-05-02_10h58.01.618,Main,2022.1.1,61.08709368753411,
negative,negative,2,j,l,,,,,,,,,3,9,63,9,,,,,,,,,main,1,1,2,negative,negative,l,l,1,0.698811000038404,306.03382940002484,307.0471875000512,307.0328950000112,None,306.03382940002484,None,306.03382940002484,None,306.03382940002484,None,307.7304393100261,None,307.7304393100261,None,307.7304393100261,None,,,,,,,,,,,,001,2022-05-02_10h58.01.618,Main,2022.1.1,61.08709368753411,
negative,neutral,2,j,l,,,,,,,,,3,10,64,12,,,,,,,,,main,2,2,2,neutral,negative,l,l,1,0.7334759999648668,307.73443360003876,308.7494464000338,308.73280850000447,None,307.73443360003876,None,307.73443360003876,None,307.73443360003876,None,309.4658908100158,None,309.4658908100158,None,309.4658908100158,None,,,,,,,,,,,,001,2022-05-02_10h58.01.618,Main,2022.1.1,61.08709368753411,
positive,positive,2,l,j,,,,,,,,,3,11,65,11,,,,,,,,,main,1,1,2,positive,positive,j,j,1,0.8125705999555066,309.46914630004903,310.48269450000953,310.4660399000277,None,309.46914630004903,None,309.46914630004903,None,309.46914630004903,None,311.2803494100284,None,311.2803494100284,None,311.2803494100284,None,,,,,,,,,,,,001,2022-05-02_10h58.01.618,Main,2022.1.1,61.08709368753411,
negative,positive,2,j,l,,,,,,,,,3,12,66,15,,,,,,,,,main,2,2,2,positive,negative,l,l,1,1.035106499970425,311.28437480004504,312.2993383000139,312.28275670000585,None,311.28437480004504,None,311.28437480004504,None,311.28437480004504,None,313.3158068100514,None,313.3158068100514,None,313.3158068100514,None,,,,,,,,,,,,001,2022-05-02_10h58.01.618,Main,2022.1.1,61.08709368753411,
negative,negative,1,j,l,,,,,,,,,3,13,67,0,,,,,,,,,main,2,2,1,negative,negative,l,l,1,0.8114412999711931,313.32017650001217,314.3299705000245,314.31335140002193,None,313.32017650001217,None,313.32017650001217,None,313.32017650001217,None,315.1299247100309,None,315.1299247100309,None,315.1299247100309,None,,,,,,,,,,,,001,2022-05-02_10h58.01.618,Main,2022.1.1,61.08709368753411,
positive,negative,2,l,j,,,,,,,,,3,14,68,14,,,,,,,,,main,1,1,2,negative,positive,j,j,1,0.7653269000002183,315.12997550005093,316.1300250000204,316.1300250000204,None,315.12997550005093,None,315.12997550005093,None,315.12997550005093,None,316.89691661001996,None,316.89691661001996,None,316.89691661001996,None,,,,,,,,,,,,001,2022-05-02_10h58.01.618,Main,2022.1.1,61.08709368753411,
neutral,positive,1,k,k,,,,,,,,,3,15,69,4,,,,,,,,,main,2,2,1,positive,neutral,k,k,1,0.714940799982287,316.90065780002624,317.9159212000086,317.89928110002074,None,316.90065780002624,None,316.90065780002624,None,316.90065780002624,None,318.613536610041,None,318.613536610041,None,318.613536610041,None,,,,,,,,,,,,001,2022-05-02_10h58.01.618,Main,2022.1.1,61.08709368753411,
positive,positive,1,l,j,,,,,,,,,3,16,70,2,,,,,,,,,main,2,2,1,positive,positive,j,j,1,0.6819706999813206,318.6171117000049,319.63241450005444,319.61580660002073,None,318.6171117000049,None,318.6171117000049,None,318.6171117000049,None,320.2968295100203,None,320.2968295100203,None,320.2968295100203,None,,,,,,,,,,,,001,2022-05-02_10h58.01.618,Main,2022.1.1,61.08709368753411,
positive,negative,1,l,j,,,,,,,,,3,17,71,5,,,,,,,,,main,2,2,1,negative,positive,j,j,1,0.8812030000262894,320.300686600036,321.3157995000365,321.2969029000378,None,320.300686600036,None,320.300686600036,None,320.300686600036,None,322.1801191100443,None,322.1801191100443,None,322.1801191100443,None,,,,,,,,,,,,001,2022-05-02_10h58.01.618,Main,2022.1.1,61.08709368753411,
negative,neutral,1,j,l,,,,,,,,,4,0,72,3,,,,,,,,,main,2,2,1,neutral,negative,l,l,1,0.8485641000443138,322.18421900004614,323.19911770004546,323.165795500041,None,322.18421900004614,None,322.18421900004614,None,322.18421900004614,None,324.03008541005545,None,324.03008541005545,None,324.03008541005545,None,,,,,,,,,,,,001,2022-05-02_10h58.01.618,Main,2022.1.1,61.08709368753411,
neutral,negative,2,k,k,,,,,,,,,4,1,73,16,,,,,,,,,main,1,1,2,negative,neutral,k,k,1,0.6812994999927469,324.03345420002006,325.04645550000714,325.0297918000142,None,324.03345420002006,None,324.03345420002006,None,324.03345420002006,None,325.71303591004687,None,325.71303591004687,None,325.71303591004687,None,,,,,,,,,,,,001,2022-05-02_10h58.01.618,Main,2022.1.1,61.08709368753411,
positive,neutral,2,l,j,,,,,,,,,4,2,74,17,,,,,,,,,main,1,1,2,neutral,positive,j,j,1,0.798613800026942,325.7131157000549,326.7133700000122,326.7133700000122,None,325.7131157000549,None,325.7131157000549,None,325.7131157000549,None,327.5133500100404,None,327.5133500100404,None,327.5133500100404,None,,,,,,,,,,,,001,2022-05-02_10h58.01.618,Main,2022.1.1,61.08709368753411,
positive,negative,2,l,j,,,,,,,,,4,3,75,14,,,,,,,,,main,1,1,2,negative,positive,j,j,1,0.6690288999816403,327.5166486000526,328.53230570000596,328.51567839999916,None,327.5166486000526,None,327.5166486000526,None,327.5166486000526,None,329.18015391001825,None,329.18015391001825,None,329.18015391001825,None,,,,,,,,,,,,001,2022-05-02_10h58.01.618,Main,2022.1.1,61.08709368753411,
positive,neutral,1,l,j,,,,,,,,,4,4,76,8,,,,,,,,,main,2,2,1,neutral,positive,j,j,1,0.9108231000136584,329.18708570004674,330.1989067000104,330.182334800018,None,329.18708570004674,None,329.18708570004674,None,329.18708570004674,None,331.0966001100081,None,331.0966001100081,None,331.0966001100081,None,,,,,,,,,,,,001,2022-05-02_10h58.01.618,Main,2022.1.1,61.08709368753411,
positive,negative,1,l,j,,,,,,,,,4,5,77,5,,,,,,,,,main,2,2,1,negative,positive,j,j,1,0.7818500999710523,331.1005147000542,332.1133273000014,332.09894490003353,None,331.1005147000542,None,331.1005147000542,None,331.1005147000542,None,332.8799008100235,None,332.8799008100235,None,332.8799008100235,None,,,,,,,,,,,,001,2022-05-02_10h58.01.618,Main,2022.1.1,61.08709368753411,
negative,positive,2,j,l,,,,,,,,,4,6,78,15,,,,,,,,,main,1,1,2,positive,negative,l,l,1,0.7672213000478223,332.88348740001675,333.89890100003686,333.88231040001847,None,332.88348740001675,None,332.88348740001675,None,332.88348740001675,None,334.6487444100261,None,334.6487444100261,None,334.6487444100261,None,,,,,,,,,,,,001,2022-05-02_10h58.01.618,Main,2022.1.1,61.08709368753411,
negative,negative,2,j,l,,,,,,,,,4,7,79,9,,,,,,,,,main,2,2,2,negative,negative,l,l,1,0.7792221999843605,334.65182410000125,335.6629040000262,335.6462365000043,None,334.65182410000125,None,334.65182410000125,None,334.65182410000125,None,336.42945711000937,None,336.42945711000937,None,336.42945711000937,None,,,,,,,,,,,,001,2022-05-02_10h58.01.618,Main,2022.1.1,61.08709368753411,
negative,positive,1,j,l,,,,,,,,,4,8,80,6,,,,,,,,,main,1,1,1,positive,negative,l,l,1,0.9675299000227824,336.42953210003907,337.42956910002977,337.42956910002977,None,336.42953210003907,None,336.42953210003907,None,336.42953210003907,None,338.39872981003134,None,338.39872981003134,None,338.39872981003134,None,,,,,,,,,,,,001,2022-05-02_10h58.01.618,Main,2022.1.1,61.08709368753411,
neutral,negative,1,k,k,,,,,,,,,4,9,81,7,,,,,,,,,main,2,2,1,negative,neutral,k,k,1,0.6624464999767952,338.40713530004723,339.41546750004636,339.398856200045,None,338.40713530004723,None,338.40713530004723,None,338.40713530004723,None,340.0630054100242,None,340.0630054100242,None,340.0630054100242,None,,,,,,,,,,,,001,2022-05-02_10h58.01.618,Main,2022.1.1,61.08709368753411,
positive,positive,1,l,j,,,,,,,,,4,10,82,2,,,,,,,,,main,2,2,1,positive,positive,j,j,1,0.7838892999570817,340.0694452000316,341.0821152999997,341.065430800023,None,340.0694452000316,None,340.0694452000316,None,340.0694452000316,None,341.8485981100297,None,341.8485981100297,None,341.8485981100297,None,,,,,,,,,,,,001,2022-05-02_10h58.01.618,Main,2022.1.1,61.08709368753411,
neutral,positive,1,k,k,,,,,,,,,4,11,83,4,,,,,,,,,main,2,2,1,positive,neutral,k,k,1,0.8148965000291355,341.85185630002525,342.86538280005334,342.84879270003876,None,341.85185630002525,None,341.85185630002525,None,341.85185630002525,None,343.6651784100162,None,343.6651784100162,None,343.6651784100162,None,,,,,,,,,,,,001,2022-05-02_10h58.01.618,Main,2022.1.1,61.08709368753411,
negative,negative,1,j,l,,,,,,,,,4,12,84,0,,,,,,,,,main,1,1,1,negative,negative,l,l,1,0.7792132000322454,343.66814300004626,344.68200090003666,344.66530270001385,None,343.66814300004626,None,343.66814300004626,None,343.66814300004626,None,345.44594531000473,None,345.44594531000473,None,345.44594531000473,None,,,,,,,,,,,,001,2022-05-02_10h58.01.618,Main,2022.1.1,61.08709368753411,
positive,positive,2,l,j,,,,,,,,,4,13,85,11,,,,,,,,,main,2,2,2,positive,positive,j,j,1,0.698216599994339,345.44654880004236,346.4459842000506,346.4459842000506,None,345.44654880004236,None,345.44654880004236,None,345.44654880004236,None,347.14597361005724,None,347.14597361005724,None,347.14597361005724,None,,,,,,,,,,,,001,2022-05-02_10h58.01.618,Main,2022.1.1,61.08709368753411,
neutral,positive,2,k,k,,,,,,,,,4,14,86,13,,,,,,,,,main,2,2,2,positive,neutral,k,k,1,0.6154424999840558,347.1492633000016,348.14865190000273,348.14865190000273,None,347.1492633000016,None,347.1492633000016,None,347.1492633000016,None,348.76292921003767,None,348.76292921003767,None,348.76292921003767,None,,,,,,,,,,,,001,2022-05-02_10h58.01.618,Main,2022.1.1,61.08709368753411,
neutral,neutral,1,k,k,,,,,,,,,4,15,87,1,,,,,,,,,main,2,2,1,neutral,neutral,k,k,1,0.6647335999878123,348.766539400036,349.78180070000235,349.76529030001257,None,348.766539400036,None,348.766539400036,None,348.766539400036,None,350.4292394100397,None,350.4292394100397,None,350.4292394100397,None,,,,,,,,,,,,001,2022-05-02_10h58.01.618,Main,2022.1.1,61.08709368753411,
neutral,neutral,2,k,k,,,,,,,,,4,16,88,10,,,,,,,,,main,1,1,2,neutral,neutral,k,k,1,0.6671398000326008,350.4330975000048,351.44844090001425,351.4318932000315,None,350.4330975000048,None,350.4330975000048,None,350.4330975000048,None,352.0984200100123,None,352.0984200100123,None,352.0984200100123,None,,,,,,,,,,,,001,2022-05-02_10h58.01.618,Main,2022.1.1,61.08709368753411,
negative,neutral,2,j,l,,,,,,,,,4,17,89,12,,,,,,,,,main,2,2,2,neutral,negative,l,l,1,0.715025199984666,352.10208190005505,353.1150994000491,353.09855230001267,None,352.10208190005505,None,352.10208190005505,None,352.10208190005505,None,353.81494541001155,None,353.81494541001155,None,353.81494541001155,None,,,,,,,,,,,,001,2022-05-02_10h58.01.618,Main,2022.1.1,61.08709368753411,
neutral,neutral,1,k,k,,,,,,,,,5,0,90,1,,,,,,,,,main,2,2,1,neutral,neutral,k,k,1,0.729448800033424,353.81850600003963,354.82952590001514,354.81515360000776,None,353.81850600003963,None,353.81850600003963,None,353.81850600003963,None,355.5460816100298,None,355.5460816100298,None,355.5460816100298,None,,,,,,,,,,,,001,2022-05-02_10h58.01.618,Main,2022.1.1,61.08709368753411,
positive,negative,1,l,j,,,,,,,,,5,1,91,5,,,,,,,,,main,1,1,1,negative,positive,j,j,1,0.9315687000053003,355.56508530001156,356.57914660003735,356.54586040001595,None,355.56508530001156,None,355.56508530001156,None,355.56508530001156,None,357.47905261000267,None,357.47905261000267,None,357.47905261000267,None,,,,,,,,,,,,001,2022-05-02_10h58.01.618,Main,2022.1.1,61.08709368753411,
negative,positive,2,j,l,,,,,,,,,5,2,92,15,,,,,,,,,main,1,1,2,positive,negative,l,l,1,0.7819839000003412,357.4791084000026,358.4791589000379,358.4791589000379,None,357.4791084000026,None,357.4791084000026,None,357.4791084000026,None,359.2627183100034,None,359.2627183100034,None,359.2627183100034,None,,,,,,,,,,,,001,2022-05-02_10h58.01.618,Main,2022.1.1,61.08709368753411,
negative,positive,1,j,l,,,,,,,,,5,3,93,6,,,,,,,,,main,2,2,1,positive,negative,l,l,1,0.9005019000032917,359.2669282000279,360.2816311000497,360.2651319000288,None,359.2669282000279,None,359.2669282000279,None,359.2669282000279,None,361.1648486100079,None,361.1648486100079,None,361.1648486100079,None,,,,,,,,,,,,001,2022-05-02_10h58.01.618,Main,2022.1.1,61.08709368753411,
neutral,negative,1,k,k,,,,,,,,,5,4,94,7,,,,,,,,,main,2,2,1,negative,neutral,k,k,1,0.7295876000425778,361.16805320000276,362.1815447000554,362.1649880000041,None,361.16805320000276,None,361.16805320000276,None,361.16805320000276,None,362.89579991001517,None,362.89579991001517,None,362.89579991001517,None,,,,,,,,,,,,001,2022-05-02_10h58.01.618,Main,2022.1.1,61.08709368753411,
negative,neutral,2,j,l,,,,,,,,,5,5,95,12,,,,,,,,,main,2,2,2,neutral,negative,l,l,1,0.6648135000141338,362.90259460004745,363.91485020000255,363.8982766000554,None,362.90259460004745,None,362.90259460004745,None,362.90259460004745,None,364.56256311003233,None,364.56256311003233,None,364.56256311003233,None,,,,,,,,,,,,001,2022-05-02_10h58.01.618,Main,2022.1.1,61.08709368753411,
neutral,neutral,2,k,k,,,,,,,,,5,6,96,10,,,,,,,,,main,2,2,2,neutral,neutral,k,k,1,0.7333442000090145,364.5661944000167,365.5814792000456,365.5648852000013,None,364.5661944000167,None,364.5661944000167,None,364.5661944000167,None,366.2953310100187,None,366.2953310100187,None,366.2953310100187,None,,,,,,,,,,,,001,2022-05-02_10h58.01.618,Main,2022.1.1,61.08709368753411,
positive,neutral,1,l,j,,,,,,,,,5,7,97,8,,,,,,,,,main,1,1,1,neutral,positive,j,j,1,0.7619594999705441,366.3122909000376,367.31226440001046,367.29558200004976,None,366.3122909000376,None,366.3122909000376,None,366.3122909000376,None,368.06216151000115,None,368.06216151000115,None,368.06216151000115,None,,,,,,,,,,,,001,2022-05-02_10h58.01.618,Main,2022.1.1,61.08709368753411,
negative,negative,1,j,l,,,,,,,,,5,8,98,0,,,,,,,,,main,1,1,1,negative,negative,l,l,1,0.784437499998603,368.062223200046,369.06495990004623,369.06495990004623,None,368.062223200046,None,368.062223200046,None,368.062223200046,None,369.84812161001025,None,369.84812161001025,None,369.84812161001025,None,,,,,,,,,,,,001,2022-05-02_10h58.01.618,Main,2022.1.1,61.08709368753411,
neutral,positive,1,k,k,,,,,,,,,5,9,99,4,,,,,,,,,main,2,2,1,positive,neutral,k,k,1,0.7625679000047967,369.85135050001554,370.86484540003585,370.84823670005426,None,369.85135050001554,None,369.85135050001554,None,369.85135050001554,None,371.61242301000163,None,371.61242301000163,None,371.61242301000163,None,,,,,,,,,,,,001,2022-05-02_10h58.01.618,Main,2022.1.1,61.08709368753411,
negative,negative,2,j,l,,,,,,,,,5,10,100,9,,,,,,,,,main,2,2,2,negative,negative,l,l,1,0.7648190000327304,371.6156748000067,372.61478460003855,372.61478460003855,None,371.6156748000067,None,371.6156748000067,None,371.6156748000067,None,373.37907931005464,None,373.37907931005464,None,373.37907931005464,None,,,,,,,,,,,,001,2022-05-02_10h58.01.618,Main,2022.1.1,61.08709368753411,
positive,negative,2,l,j,,,,,,,,,5,11,101,14,,,,,,,,,main,1,1,2,negative,positive,j,j,1,0.6984601999865845,373.39581470005214,374.3957924999995,374.3791287000058,None,373.39581470005214,None,373.39581470005214,None,373.39581470005214,None,375.0790389100497,None,375.0790389100497,None,375.0790389100497,None,,,,,,,,,,,,001,2022-05-02_10h58.01.618,Main,2022.1.1,61.08709368753411,
positive,positive,2,l,j,,,,,,,,,5,12,102,11,,,,,,,,,main,1,1,2,positive,positive,j,j,1,0.6316818000050262,375.08220010000514,376.0814031000482,376.0814031000482,None,375.08220010000514,None,375.08220010000514,None,375.08220010000514,None,376.7123145100253,None,376.7123145100253,None,376.7123145100253,None,,,,,,,,,,,,001,2022-05-02_10h58.01.618,Main,2022.1.1,61.08709368753411,
negative,neutral,1,j,l,,,,,,,,,5,13,103,3,,,,,,,,,main,2,2,1,neutral,negative,l,l,1,0.8311908000032417,376.71799130004365,377.7286677000229,377.71201810002094,None,376.71799130004365,None,376.71799130004365,None,376.71799130004365,None,378.54528071004313,None,378.54528071004313,None,378.54528071004313,None,,,,,,,,,,,,001,2022-05-02_10h58.01.618,Main,2022.1.1,61.08709368753411,
neutral,positive,2,k,k,,,,,,,,,5,14,104,13,,,,,,,,,main,2,2,2,positive,neutral,k,k,1,0.7177609999780543,378.5456231000135,379.54539550002664,379.54539550002664,None,378.5456231000135,None,378.5456231000135,None,378.5456231000135,None,380.2644416100287,None,380.2644416100287,None,380.2644416100287,None,,,,,,,,,,,,001,2022-05-02_10h58.01.618,Main,2022.1.1,61.08709368753411,
positive,positive,1,l,j,,,,,,,,,5,15,105,2,,,,,,,,,main,1,1,1,positive,positive,j,j,1,0.8128150000120513,380.2682177000097,381.28131970000686,381.2646856000065,None,380.2682177000097,None,380.2682177000097,None,380.2682177000097,None,382.0789113100094,None,382.0789113100094,None,382.0789113100094,None,,,,,,,,,,,,001,2022-05-02_10h58.01.618,Main,2022.1.1,61.08709368753411,
neutral,negative,2,k,k,,,,,,,,,5,16,106,16,,,,,,,,,main,2,2,2,negative,neutral,k,k,1,0.7315152999944985,382.0825495000463,383.09789309999906,383.0789452000172,None,382.0825495000463,None,382.0825495000463,None,382.0825495000463,None,383.8121777100081,None,383.8121777100081,None,383.8121777100081,None,,,,,,,,,,,,001,2022-05-02_10h58.01.618,Main,2022.1.1,61.08709368753411,
positive,neutral,2,l,j,,,,,,,,,5,17,107,17,,,,,,,,,main,2,2,2,neutral,positive,j,j,1,0.6649157999781892,383.8156997000333,384.83114010002464,384.8145431000157,None,383.8156997000333,None,383.8156997000333,None,383.8156997000333,None,385.478805910045,None,385.478805910045,None,385.478805910045,None,,,,,,,,,,,,001,2022-05-02_10h58.01.618,Main,2022.1.1,61.08709368753411,
neutral,negative,2,k,k,,,,,,,,,6,0,108,16,,,,,,,,,main,1,1,2,negative,neutral,k,k,1,0.6309592999750748,385.49777840002207,386.4978898000554,386.481242800015,None,385.49777840002207,None,385.49777840002207,None,385.49777840002207,None,387.1121173100022,None,387.1121173100022,None,387.1121173100022,None,,,,,,,,,,,,001,2022-05-02_10h58.01.618,Main,2022.1.1,61.08709368753411,
positive,negative,2,l,j,,,,,,,,,6,1,109,14,,,,,,,,,main,1,1,2,negative,positive,j,j,1,0.681297299975995,387.11544360005064,388.1284824000322,388.1118150000111,None,387.11544360005064,None,387.11544360005064,None,387.11544360005064,None,388.7950639100221,None,388.7950639100221,None,388.7950639100221,None,,,,,,,,,,,,001,2022-05-02_10h58.01.618,Main,2022.1.1,61.08709368753411,
neutral,neutral,2,k,k,,,,,,,,,6,2,110,10,,,,,,,,,main,2,2,2,neutral,neutral,k,k,1,0.6352934000315145,388.7951477000024,389.7951563000097,389.7951563000097,None,388.7951477000024,None,388.7951477000024,None,388.7951477000024,None,390.4309361100371,None,390.4309361100371,None,390.4309361100371,None,,,,,,,,,,,,001,2022-05-02_10h58.01.618,Main,2022.1.1,61.08709368753411,
negative,positive,2,j,l,,,,,,,,,6,3,111,15,,,,,,,,,main,1,1,2,positive,negative,l,l,1,0.6950228000059724,390.43503400002373,391.44545980001567,391.43109740002546,None,390.43503400002373,None,390.43503400002373,None,390.43503400002373,None,392.1286957100441,None,392.1286957100441,None,392.1286957100441,None,,,,,,,,,,,,001,2022-05-02_10h58.01.618,Main,2022.1.1,61.08709368753411,
negative,neutral,1,j,l,,,,,,,,,6,4,112,3,,,,,,,,,main,2,2,1,neutral,negative,l,l,1,0.7817583999712951,392.13489800004754,393.14774560002843,393.1310718000168,None,392.13489800004754,None,392.13489800004754,None,392.13489800004754,None,393.9119519100117,None,393.9119519100117,None,393.9119519100117,None,,,,,,,,,,,,001,2022-05-02_10h58.01.618,Main,2022.1.1,61.08709368753411,
neutral,positive,2,k,k,,,,,,,,,6,5,113,13,,,,,,,,,main,1,1,2,positive,neutral,k,k,1,0.7159399000229314,393.91554310003994,394.9309159000404,394.9142658000346,None,393.91554310003994,None,393.91554310003994,None,393.91554310003994,None,395.62860161002607,None,395.62860161002607,None,395.62860161002607,None,,,,,,,,,,,,001,2022-05-02_10h58.01.618,Main,2022.1.1,61.08709368753411,
negative,negative,2,j,l,,,,,,,,,6,6,114,9,,,,,,,,,main,1,1,2,negative,negative,l,l,1,0.766014399996493,395.6400367000024,396.64751660003094,396.63097960001323,None,395.6400367000024,None,395.6400367000024,None,395.6400367000024,None,397.39745811001046,None,397.39745811001046,None,397.39745811001046,None,,,,,,,,,,,,001,2022-05-02_10h58.01.618,Main,2022.1.1,61.08709368753411,
negative,negative,1,j,l,,,,,,,,,6,7,115,0,,,,,,,,,main,2,2,1,negative,negative,l,l,1,0.9793343000346795,397.40048390004085,398.41161380003905,398.39494920003926,None,397.40048390004085,None,397.40048390004085,None,397.40048390004085,None,399.37818511005605,None,399.37818511005605,None,399.37818511005605,None,,,,,,,,,,,,001,2022-05-02_10h58.01.618,Main,2022.1.1,61.08709368753411,
positive,negative,1,l,j,,,,,,,,,6,8,116,5,,,,,,,,,main,1,1,1,negative,positive,j,j,1,0.8481781000155024,399.3782628000481,400.3782768000383,400.3782768000383,None,399.3782628000481,None,399.3782628000481,None,399.3782628000481,None,401.22821130999944,None,401.22821130999944,None,401.22821130999944,None,,,,,,,,,,,,001,2022-05-02_10h58.01.618,Main,2022.1.1,61.08709368753411,
positive,neutral,1,l,j,,,,,,,,,6,9,117,8,,,,,,,,,main,1,1,1,neutral,positive,j,j,1,0.8820479999994859,401.23120130004827,402.2308995000203,402.2142084000516,None,401.23120130004827,None,401.23120130004827,None,401.23120130004827,None,403.1118112099997,None,403.1118112099997,None,403.1118112099997,None,,,,,,,,,,,,001,2022-05-02_10h58.01.618,Main,2022.1.1,61.08709368753411,
positive,neutral,2,l,j,,,,,,,,,6,10,118,17,,,,,,,,,main,2,2,2,neutral,positive,j,j,1,0.6983728000195697,403.1177577000344,404.1307836000342,404.1141371000558,None,403.1177577000344,None,403.1177577000344,None,403.1177577000344,None,404.81174341001895,None,404.81174341001895,None,404.81174341001895,None,,,,,,,,,,,,001,2022-05-02_10h58.01.618,Main,2022.1.1,61.08709368753411,
positive,positive,1,l,j,,,,,,,,,6,11,119,2,,,,,,,,,main,1,1,1,positive,positive,j,j,1,0.6981990999775007,404.8152288000565,405.8306207000278,405.814110300038,None,404.8152288000565,None,404.8152288000565,None,404.8152288000565,None,406.5117302100465,None,406.5117302100465,None,406.5117302100465,None,,,,,,,,,,,,001,2022-05-02_10h58.01.618,Main,2022.1.1,61.08709368753411,
negative,neutral,2,j,l,,,,,,,,,6,12,120,12,,,,,,,,,main,1,1,2,neutral,negative,l,l,1,0.7309607000206597,406.5285626000259,407.5306017000112,407.514111000055,None,406.5285626000259,None,406.5285626000259,None,406.5285626000259,None,408.24502181000423,None,408.24502181000423,None,408.24502181000423,None,,,,,,,,,,,,001,2022-05-02_10h58.01.618,Main,2022.1.1,61.08709368753411,
neutral,negative,1,k,k,,,,,,,,,6,13,121,7,,,,,,,,,main,2,2,1,negative,neutral,k,k,1,0.7804751999792643,408.24913860001834,409.2613702000235,409.24481910001487,None,408.24913860001834,None,408.24913860001834,None,408.24913860001834,None,410.0279730100359,None,410.0279730100359,None,410.0279730100359,None,,,,,,,,,,,,001,2022-05-02_10h58.01.618,Main,2022.1.1,61.08709368753411,
negative,positive,1,j,l,,,,,,,,,6,14,122,6,,,,,,,,,main,2,2,1,positive,negative,l,j,0,1.06515420001233,410.02804450003896,411.0280255000107,411.0280255000107,None,410.02804450003896,None,410.02804450003896,None,410.02804450003896,None,412.0947265000432,None,412.0947265000432,None,412.0947265000432,None,,,,,,,,,,,,001,2022-05-02_10h58.01.618,Main,2022.1.1,61.08709368753411,
neutral,neutral,1,k,k,,,,,,,,,6,15,123,1,,,,,,,,,main,2,2,1,neutral,neutral,k,k,1,1.234363800031133,413.0950874000555,414.0972066000104,414.0806737000239,None,413.0950874000555,None,413.0950874000555,None,413.0950874000555,None,415.32821571000966,None,415.32821571000966,None,415.32821571000966,None,,,,,,,,,,,,001,2022-05-02_10h58.01.618,Main,2022.1.1,61.08709368753411,
neutral,positive,1,k,k,,,,,,,,,6,16,124,4,,,,,,,,,main,2,2,1,positive,neutral,k,k,1,0.7313195999595337,415.3320757000474,416.34721160004847,416.3305865000002,None,415.3320757000474,None,415.3320757000474,None,415.3320757000474,None,417.06148471002814,None,417.06148471002814,None,417.06148471002814,None,,,,,,,,,,,,001,2022-05-02_10h58.01.618,Main,2022.1.1,61.08709368753411,
positive,positive,2,l,j,,,,,,,,,6,17,125,11,,,,,,,,,main,1,1,2,positive,positive,j,j,1,0.8815704999724403,417.06490340002347,418.0805113000097,418.0615583000472,None,417.06490340002347,None,417.06490340002347,None,417.06490340002347,None,418.94476571004486,None,418.94476571004486,None,418.94476571004486,None,,,,,,,,,,,,001,2022-05-02_10h58.01.618,Main,2022.1.1,61.08709368753411,
positive,neutral,2,l,j,,,,,,,,,7,0,126,17,,,,,,,,,main,1,1,2,neutral,positive,j,j,1,0.7138607999659143,418.9508449000423,419.9611430000514,419.9444688000367,None,418.9508449000423,None,418.9508449000423,None,418.9508449000423,None,420.66107261001014,None,420.66107261001014,None,420.66107261001014,None,,,,,,,,,,,,001,2022-05-02_10h58.01.618,Main,2022.1.1,61.08709368753411,
neutral,positive,1,k,k,,,,,,,,,7,1,127,4,,,,,,,,,main,2,2,1,positive,neutral,k,k,1,0.7009742999798618,420.6618677000515,421.66119420004543,421.66119420004543,None,420.6618677000515,None,420.6618677000515,None,420.6618677000515,None,422.3635747100401,None,422.3635747100401,None,422.3635747100401,None,,,,,,,,,,,,001,2022-05-02_10h58.01.618,Main,2022.1.1,61.08709368753411,
negative,neutral,1,j,l,,,,,,,,,7,2,128,3,,,,,,,,,main,1,1,1,neutral,negative,l,l,1,0.9128956000204198,422.36633020004956,423.38034540001536,423.3638044000254,None,422.36633020004956,None,422.36633020004956,None,422.36633020004956,None,424.27803401003473,None,424.27803401003473,None,424.27803401003473,None,,,,,,,,,,,,001,2022-05-02_10h58.01.618,Main,2022.1.1,61.08709368753411,
positive,positive,1,l,j,,,,,,,,,7,3,129,2,,,,,,,,,main,2,2,1,positive,positive,j,j,1,0.8511097000446171,424.2818145000492,425.297025100037,425.27807610004675,None,424.2818145000492,None,424.2818145000492,None,424.2818145000492,None,426.13022821001357,None,426.13022821001357,None,426.13022821001357,None,,,,,,,,,,,,001,2022-05-02_10h58.01.618,Main,2022.1.1,61.08709368753411,
positive,negative,2,l,j,,,,,,,,,7,4,130,14,,,,,,,,,main,1,1,2,negative,positive,j,j,1,0.697432300017681,426.13419730000896,427.14692260004813,427.1280310000293,None,426.13419730000896,None,426.13419730000896,None,426.13419730000896,None,427.83012381004517,None,427.83012381004517,None,427.83012381004517,None,,,,,,,,,,,,001,2022-05-02_10h58.01.618,Main,2022.1.1,61.08709368753411,
negative,neutral,2,j,l,,,,,,,,,7,5,131,12,,,,,,,,,main,2,2,2,neutral,negative,l,l,1,0.8293181000044569,427.8342084000469,428.84673140000086,428.83028550003655,None,427.8342084000469,None,427.8342084000469,None,427.8342084000469,None,429.6608892100106,None,429.6608892100106,None,429.6608892100106,None,,,,,,,,,,,,001,2022-05-02_10h58.01.618,Main,2022.1.1,61.08709368753411,
negative,positive,1,j,l,,,,,,,,,7,6,132,6,,,,,,,,,main,1,1,1,positive,negative,l,l,1,0.7982727999915369,429.66105030005565,430.6609508000547,430.6609508000547,None,429.66105030005565,None,429.66105030005565,None,429.66105030005565,None,431.4609231100243,None,431.4609231100243,None,431.4609231100243,None,,,,,,,,,,,,001,2022-05-02_10h58.01.618,Main,2022.1.1,61.08709368753411,
neutral,neutral,1,k,k,,,,,,,,,7,7,133,1,,,,,,,,,main,2,2,1,neutral,neutral,k,k,1,0.7839909999747761,431.4643670000369,432.4635600000038,432.4635600000038,None,431.4643670000369,None,431.4643670000369,None,431.4643670000369,None,433.2468482099997,None,433.2468482099997,None,433.2468482099997,None,,,,,,,,,,,,001,2022-05-02_10h58.01.618,Main,2022.1.1,61.08709368753411,
positive,negative,1,l,j,,,,,,,,,7,8,134,5,,,,,,,,,main,2,2,1,negative,positive,j,j,1,0.8483938999706879,433.25014870002633,434.26352070004214,434.2468246000353,None,433.25014870002633,None,433.25014870002633,None,433.25014870002633,None,435.09680391004656,None,435.09680391004656,None,435.09680391004656,None,,,,,,,,,,,,001,2022-05-02_10h58.01.618,Main,2022.1.1,61.08709368753411,
neutral,neutral,2,k,k,,,,,,,,,7,9,135,10,,,,,,,,,main,2,2,2,neutral,neutral,k,k,1,0.7151049000094645,435.100077900046,436.1134455000283,436.0943238000036,None,435.100077900046,None,435.100077900046,None,435.100077900046,None,436.81349831005207,None,436.81349831005207,None,436.81349831005207,None,,,,,,,,,,,,001,2022-05-02_10h58.01.618,Main,2022.1.1,61.08709368753411,
positive,positive,2,l,j,,,,,,,,,7,10,136,11,,,,,,,,,main,2,2,2,positive,positive,j,j,1,0.7625805000425316,436.82004120002966,437.8300310000195,437.8134899000288,None,436.82004120002966,None,436.82004120002966,None,436.82004120002966,None,438.5777222100354,None,438.5777222100354,None,438.5777222100354,None,,,,,,,,,,,,001,2022-05-02_10h58.01.618,Main,2022.1.1,61.08709368753411,
negative,positive,2,j,l,,,,,,,,,7,11,137,15,,,,,,,,,main,1,1,2,positive,negative,l,l,1,0.7980209000525065,438.5813485000399,439.5940998000442,439.577435800049,None,438.5813485000399,None,438.5813485000399,None,438.5813485000399,None,440.3773355100478,None,440.3773355100478,None,440.3773355100478,None,,,,,,,,,,,,001,2022-05-02_10h58.01.618,Main,2022.1.1,61.08709368753411,
neutral,positive,2,k,k,,,,,,,,,7,12,138,13,,,,,,,,,main,1,1,2,positive,neutral,k,k,1,0.7316659000352956,440.3774734000326,441.3774548000074,441.3774548000074,None,440.3774734000326,None,440.3774734000326,None,440.3774734000326,None,442.1106765100325,None,442.1106765100325,None,442.1106765100325,None,,,,,,,,,,,,001,2022-05-02_10h58.01.618,Main,2022.1.1,61.08709368753411,
neutral,negative,1,k,k,,,,,,,,,7,13,139,7,,,,,,,,,main,1,1,1,negative,neutral,k,k,1,0.7341856000130065,442.11399940005504,443.1133832000196,443.1133832000196,None,442.11399940005504,None,442.11399940005504,None,442.11399940005504,None,443.8465293100511,None,443.8465293100511,None,443.8465293100511,None,,,,,,,,,,,,001,2022-05-02_10h58.01.618,Main,2022.1.1,61.08709368753411,
negative,negative,2,j,l,,,,,,,,,7,14,140,9,,,,,,,,,main,1,1,2,negative,negative,l,l,1,0.7791678999783471,443.8494430000428,444.86319160001585,444.8466744000325,None,443.8494430000428,None,443.8494430000428,None,443.8494430000428,None,445.6275839100184,None,445.6275839100184,None,445.6275839100184,None,,,,,,,,,,,,001,2022-05-02_10h58.01.618,Main,2022.1.1,61.08709368753411,
negative,negative,1,j,l,,,,,,,,,7,15,141,0,,,,,,,,,main,2,2,1,negative,negative,l,l,1,1.0508949999930337,445.6315942000365,446.6466129000182,446.6299942000187,None,445.6315942000365,None,445.6315942000365,None,445.6315942000365,None,447.67978421005535,None,447.67978421005535,None,447.67978421005535,None,,,,,,,,,,,,001,2022-05-02_10h58.01.618,Main,2022.1.1,61.08709368753411,
positive,neutral,1,l,j,,,,,,,,,7,16,142,8,,,,,,,,,main,1,1,1,neutral,positive,j,j,1,1.047713800042402,447.68357160000596,448.69651210005395,448.67759350000415,None,447.68357160000596,None,447.68357160000596,None,447.68357160000596,None,449.73004151002385,None,449.73004151002385,None,449.73004151002385,None,,,,,,,,,,,,001,2022-05-02_10h58.01.618,Main,2022.1.1,61.08709368753411,
neutral,negative,2,k,k,,,,,,,,,7,17,143,16,,,,,,,,,main,1,1,2,negative,neutral,k,k,1,1.662080199981574,449.74411379999947,450.7438755000476,450.72720580000896,None,449.74411379999947,None,449.74411379999947,None,449.74411379999947,None,452.39390860003186,None,452.39390860003186,None,452.39390860003186,None,,,,,,,,,,,,001,2022-05-02_10h58.01.618,Main,2022.1.1,61.08709368753411,
negative,negative,2,j,l,,,,,,,,,8,0,144,9,,,,,,,,,main,1,1,2,negative,negative,l,l,1,0.7206130999838933,453.39481700002216,454.39639160002116,454.37978040002054,None,453.39481700002216,None,453.39481700002216,None,453.39481700002216,None,455.1128854100301,None,455.1128854100301,None,455.1128854100301,None,,,,,,,,,,,,001,2022-05-02_10h58.01.618,Main,2022.1.1,61.08709368753411,
negative,neutral,1,j,l,,,,,,,,,8,1,145,3,,,,,,,,,main,2,2,1,neutral,negative,l,l,1,0.8972810999839567,455.11718840000685,456.1296517000301,456.11300590005703,None,455.11718840000685,None,455.11718840000685,None,455.11718840000685,None,457.01286251005365,None,457.01286251005365,None,457.01286251005365,None,,,,,,,,,,,,001,2022-05-02_10h58.01.618,Main,2022.1.1,61.08709368753411,
neutral,neutral,1,k,k,,,,,,,,,8,2,146,1,,,,,,,,,main,2,2,1,neutral,neutral,k,k,1,0.7968866000301205,457.0156307000434,458.0295846000081,458.01293210004224,None,457.0156307000434,None,457.0156307000434,None,457.0156307000434,None,458.8106455100409,None,458.8106455100409,None,458.8106455100409,None,,,,,,,,,,,,001,2022-05-02_10h58.01.618,Main,2022.1.1,61.08709368753411,
neutral,negative,2,k,k,,,,,,,,,8,3,147,16,,,,,,,,,main,1,1,2,negative,neutral,k,k,1,0.6139430999755859,458.8147320999997,459.82736160000786,459.81304990005447,None,458.8147320999997,None,458.8147320999997,None,458.8147320999997,None,460.4269248100521,None,460.4269248100521,None,460.4269248100521,None,,,,,,,,,,,,001,2022-05-02_10h58.01.618,Main,2022.1.1,61.08709368753411,
positive,negative,2,l,j,,,,,,,,,8,4,148,14,,,,,,,,,main,2,2,2,negative,positive,j,j,1,0.6816866000299342,460.4270234000287,461.42699890001677,461.42699890001677,None,460.4270234000287,None,460.4270234000287,None,460.4270234000287,None,462.11025361001373,None,462.11025361001373,None,462.11025361001373,None,,,,,,,,,,,,001,2022-05-02_10h58.01.618,Main,2022.1.1,61.08709368753411,
neutral,positive,2,k,k,,,,,,,,,8,5,149,13,,,,,,,,,main,2,2,2,positive,neutral,k,k,1,0.6328490000450984,462.113817800011,463.1294558000518,463.11294710001675,None,462.113817800011,None,462.113817800011,None,462.113817800011,None,463.743885010021,None,463.743885010021,None,463.743885010021,None,,,,,,,,,,,,001,2022-05-02_10h58.01.618,Main,2022.1.1,61.08709368753411,
positive,positive,2,l,j,,,,,,,,,8,6,150,11,,,,,,,,,main,1,1,2,positive,positive,j,j,1,0.6495687999995425,463.7481434000074,464.76279440004146,464.7463030000217,None,463.7481434000074,None,463.7481434000074,None,463.7481434000074,None,465.3960591100098,None,465.3960591100098,None,465.3960591100098,None,,,,,,,,,,,,001,2022-05-02_10h58.01.618,Main,2022.1.1,61.08709368753411,
positive,negative,1,l,j,,,,,,,,,8,7,151,5,,,,,,,,,main,2,2,1,negative,positive,j,j,1,0.8295787000097334,465.39885370002594,466.4128661000286,466.3961434000521,None,465.39885370002594,None,465.39885370002594,None,465.39885370002594,None,467.2271297100291,None,467.2271297100291,None,467.2271297100291,None,,,,,,,,,,,,001,2022-05-02_10h58.01.618,Main,2022.1.1,61.08709368753411,
neutral,negative,1,k,k,,,,,,,,,8,8,152,7,,,,,,,,,main,2,2,1,negative,neutral,k,k,1,0.681670900026802,467.23059230000945,468.24602460005553,468.2293567000306,None,467.23059230000945,None,467.23059230000945,None,467.23059230000945,None,468.91044051002825,None,468.91044051002825,None,468.91044051002825,None,,,,,,,,,,,,001,2022-05-02_10h58.01.618,Main,2022.1.1,61.08709368753411,
negative,neutral,2,j,l,,,,,,,,,8,9,153,12,,,,,,,,,main,1,1,2,neutral,negative,l,l,1,0.8674468999961391,468.9295061000157,469.9294053000049,469.91280340001686,None,468.9295061000157,None,468.9295061000157,None,468.9295061000157,None,470.78014261002534,None,470.78014261002534,None,470.78014261002534,None,,,,,,,,,,,,001,2022-05-02_10h58.01.618,Main,2022.1.1,61.08709368753411,
positive,neutral,2,l,j,,,,,,,,,8,10,154,17,,,,,,,,,main,2,2,2,neutral,positive,j,j,1,0.8151580999838188,470.7937571000075,471.79344000003766,471.77677050000057,None,470.7937571000075,None,470.7937571000075,None,470.7937571000075,None,472.5933381100243,None,472.5933381100243,None,472.5933381100243,None,,,,,,,,,,,,001,2022-05-02_10h58.01.618,Main,2022.1.1,61.08709368753411,
positive,positive,1,l,j,,,,,,,,,8,11,155,2,,,,,,,,,main,1,1,1,positive,positive,j,j,1,0.8116779000265524,472.5976195000112,473.610124800005,473.59345650003524,None,472.5976195000112,None,472.5976195000112,None,472.5976195000112,None,474.4103420100349,None,474.4103420100349,None,474.4103420100349,None,,,,,,,,,,,,001,2022-05-02_10h58.01.618,Main,2022.1.1,61.08709368753411,
negative,positive,2,j,l,,,,,,,,,8,12,156,15,,,,,,,,,main,2,2,2,positive,negative,l,l,1,1.3150935000157915,474.4140594000346,475.42935000004945,475.4127484000055,None,474.4140594000346,None,474.4140594000346,None,474.4140594000346,None,476.7269423100573,None,476.7269423100573,None,476.7269423100573,None,,,,,,,,,,,,001,2022-05-02_10h58.01.618,Main,2022.1.1,61.08709368753411,
neutral,positive,1,k,k,,,,,,,,,8,13,157,4,,,,,,,,,main,1,1,1,positive,neutral,k,k,1,0.7504423999926075,476.7304670000449,477.7459776000469,477.7293480000226,None,476.7304670000449,None,476.7304670000449,None,476.7304670000449,None,478.47913801001266,None,478.47913801001266,None,478.47913801001266,None,,,,,,,,,,,,001,2022-05-02_10h58.01.618,Main,2022.1.1,61.08709368753411,
positive,neutral,1,l,j,,,,,,,,,8,14,158,8,,,,,,,,,main,1,1,1,neutral,positive,j,j,1,1.046054299979005,478.4825251000002,479.4958989000297,479.4791819000384,None,478.4825251000002,None,478.4825251000002,None,478.4825251000002,None,480.52685441001665,None,480.52685441001665,None,480.52685441001665,None,,,,,,,,,,,,001,2022-05-02_10h58.01.618,Main,2022.1.1,61.08709368753411,
neutral,neutral,2,k,k,,,,,,,,,8,15,159,10,,,,,,,,,main,2,2,2,neutral,neutral,k,j,0,-0.7350163999944925,480.53356030001305,None,None,None,480.53356030001305,None,480.53356030001305,None,480.53356030001305,None,480.79361160000553,None,480.79361160000553,None,480.79361160000553,None,,,,,,,,,,,,001,2022-05-02_10h58.01.618,Main,2022.1.1,61.08709368753411,
negative,positive,1,j,l,,,,,,,,,8,16,160,6,,,,,,,,,main,2,2,1,positive,negative,l,l,1,1.0511911999783479,483.7945848000236,484.79581770004006,484.77917260001414,None,483.7945848000236,None,483.7945848000236,None,483.7945848000236,None,485.8434360100131,None,485.8434360100131,None,485.8434360100131,None,,,,,,,,,,,,001,2022-05-02_10h58.01.618,Main,2022.1.1,61.08709368753411,
negative,negative,1,j,l,,,,,,,,,8,17,161,0,,,,,,,,,main,2,2,1,negative,negative,l,l,1,0.7998789999983273,485.84741840005154,486.86240560002625,486.84348110004794,None,485.84741840005154,None,485.84741840005154,None,485.84741840005154,None,487.64551231003713,None,487.64551231003713,None,487.64551231003713,None,,,,,,,,,,,,001,2022-05-02_10h58.01.618,Main,2022.1.1,61.08709368753411,
positive,negative,2,l,j,,,,,,,,,9,0,162,14,,,,,,,,,main,2,2,2,negative,positive,j,j,1,0.7648755999980494,487.6493109000148,488.6623381000245,488.645655100001,None,487.6493109000148,None,487.6493109000148,None,487.6493109000148,None,489.41220401001044,None,489.41220401001044,None,489.41220401001044,None,,,,,,,,,,,,001,2022-05-02_10h58.01.618,Main,2022.1.1,61.08709368753411,
positive,neutral,1,l,j,,,,,,,,,9,1,163,8,,,,,,,,,main,2,2,1,neutral,positive,j,j,1,0.6662007999839261,489.4160866000457,490.4290127000422,490.41243370005395,None,489.4160866000457,None,489.4160866000457,None,489.4160866000457,None,491.07664531004264,None,491.07664531004264,None,491.07664531004264,None,,,,,,,,,,,,001,2022-05-02_10h58.01.618,Main,2022.1.1,61.08709368753411,
positive,negative,1,l,j,,,,,,,,,9,2,164,5,,,,,,,,,main,2,2,1,negative,positive,j,j,1,0.7108463000040501,491.0834525000537,492.0930157000548,492.07635290001053,None,491.0834525000537,None,491.0834525000537,None,491.0834525000537,None,492.79294721002805,None,492.79294721002805,None,492.79294721002805,None,,,,,,,,,,,,001,2022-05-02_10h58.01.618,Main,2022.1.1,61.08709368753411,
negative,negative,2,j,l,,,,,,,,,9,3,165,9,,,,,,,,,main,2,2,2,negative,negative,l,l,1,0.8151169999619015,492.79312280000886,493.79301390005276,493.79301390005276,None,492.79312280000886,None,492.79312280000886,None,492.79312280000886,None,494.6096240100509,None,494.6096240100509,None,494.6096240100509,None,,,,,,,,,,,,001,2022-05-02_10h58.01.618,Main,2022.1.1,61.08709368753411,
neutral,negative,1,k,k,,,,,,,,,9,4,166,7,,,,,,,,,main,2,2,1,negative,neutral,k,k,1,0.798454700037837,494.6136890000198,495.6288850000128,495.6123956000083,None,494.6136890000198,None,494.6136890000198,None,494.6136890000198,None,496.40986231004933,None,496.40986231004933,None,496.40986231004933,None,,,,,,,,,,,,001,2022-05-02_10h58.01.618,Main,2022.1.1,61.08709368753411,
neutral,positive,2,k,k,,,,,,,,,9,5,167,13,,,,,,,,,main,2,2,2,positive,neutral,k,k,1,0.734192100004293,496.4136168000405,497.4288487000158,497.4121951000416,None,496.4136168000405,None,496.4136168000405,None,496.4136168000405,None,498.1454409100173,None,498.1454409100173,None,498.1454409100173,None,,,,,,,,,,,,001,2022-05-02_10h58.01.618,Main,2022.1.1,61.08709368753411,
neutral,negative,2,k,k,,,,,,,,,9,6,168,16,,,,,,,,,main,1,1,2,negative,neutral,k,k,1,0.7123666999978013,498.14879700000165,499.1598882000544,499.14548070001183,None,498.14879700000165,None,498.14879700000165,None,498.14879700000165,None,499.8597965100256,None,499.8597965100256,None,499.8597965100256,None,,,,,,,,,,,,001,2022-05-02_10h58.01.618,Main,2022.1.1,61.08709368753411,
negative,positive,1,j,l,,,,,,,,,9,7,169,6,,,,,,,,,main,1,1,1,positive,negative,l,l,1,0.7820026999688707,499.86334660003195,500.87879570003133,500.8621395000373,None,499.86334660003195,None,499.86334660003195,None,499.86334660003195,None,501.64309631003414,None,501.64309631003414,None,501.64309631003414,None,,,,,,,,,,,,001,2022-05-02_10h58.01.618,Main,2022.1.1,61.08709368753411,
neutral,neutral,2,k,k,,,,,,,,,9,8,170,10,,,,,,,,,main,1,1,2,neutral,neutral,k,k,1,0.6644135999958962,501.6470513000386,502.6620168000227,502.6454958000104,None,501.6470513000386,None,501.6470513000386,None,501.6470513000386,None,503.3093467100465,None,503.3093467100465,None,503.3093467100465,None,,,,,,,,,,,,001,2022-05-02_10h58.01.618,Main,2022.1.1,61.08709368753411,
positive,positive,1,l,j,,,,,,,,,9,9,171,2,,,,,,,,,main,2,2,1,positive,positive,j,j,1,0.731644099985715,503.30944660003297,504.3094018000411,504.3094018000411,None,503.30944660003297,None,503.30944660003297,None,503.30944660003297,None,505.0427292100561,None,505.0427292100561,None,505.0427292100561,None,,,,,,,,,,,,001,2022-05-02_10h58.01.618,Main,2022.1.1,61.08709368753411,
negative,neutral,1,j,l,,,,,,,,,9,10,172,3,,,,,,,,,main,1,1,1,neutral,negative,l,l,1,0.7508966000168584,505.04601570003433,506.04539160005515,506.04539160005515,None,505.04601570003433,None,505.04601570003433,None,505.04601570003433,None,506.79525011004296,None,506.79525011004296,None,506.79525011004296,None,,,,,,,,,,,,001,2022-05-02_10h58.01.618,Main,2022.1.1,61.08709368753411,
positive,positive,2,l,j,,,,,,,,,9,11,173,11,,,,,,,,,main,2,2,2,positive,positive,j,j,1,1.0127565000439063,506.79857290000655,507.8119243000401,507.7953206000384,None,506.79857290000655,None,506.79857290000655,None,506.79857290000655,None,508.80962471000964,None,508.80962471000964,None,508.80962471000964,None,,,,,,,,,,,,001,2022-05-02_10h58.01.618,Main,2022.1.1,61.08709368753411,
negative,negative,1,j,l,,,,,,,,,9,12,174,0,,,,,,,,,main,2,2,1,negative,negative,l,l,1,0.6978986000176519,508.8199464000063,509.8285887000384,509.81200160004664,None,508.8199464000063,None,508.8199464000063,None,508.8199464000063,None,510.5092664100288,None,510.5092664100288,None,510.5092664100288,None,,,,,,,,,,,,001,2022-05-02_10h58.01.618,Main,2022.1.1,61.08709368753411,
neutral,neutral,1,k,k,,,,,,,,,9,13,175,1,,,,,,,,,main,1,1,1,neutral,neutral,k,k,1,1.0318178999586962,510.5127135000075,511.5119516000268,511.5119516000268,None,510.5127135000075,None,510.5127135000075,None,510.5127135000075,None,512.5428391100198,None,512.5428391100198,None,512.5428391100198,None,,,,,,,,,,,,001,2022-05-02_10h58.01.618,Main,2022.1.1,61.08709368753411,
negative,neutral,2,j,l,,,,,,,,,9,14,176,12,,,,,,,,,main,1,1,2,neutral,negative,l,l,1,0.7479959999909624,512.5463172000018,513.5592361000017,513.5425630000536,None,512.5463172000018,None,512.5463172000018,None,512.5463172000018,None,514.2924773100007,None,514.2924773100007,None,514.2924773100007,None,,,,,,,,,,,,001,2022-05-02_10h58.01.618,Main,2022.1.1,61.08709368753411,
negative,positive,2,j,l,,,,,,,,,9,15,177,15,,,,,,,,,main,1,1,2,positive,negative,l,l,1,0.69869240000844,514.2926793000079,515.292591000034,515.292591000034,None,514.2926793000079,None,514.2926793000079,None,514.2926793000079,None,515.992824410036,None,515.992824410036,None,515.992824410036,None,,,,,,,,,,,,001,2022-05-02_10h58.01.618,Main,2022.1.1,61.08709368753411,
neutral,positive,1,k,k,,,,,,,,,9,16,178,4,,,,,,,,,main,2,2,1,positive,neutral,k,k,1,0.9171107999864034,515.9966608000104,517.0118585000164,516.9952221000567,None,515.9966608000104,None,515.9966608000104,None,515.9966608000104,None,517.9116628100222,None,517.9116628100222,None,517.9116628100222,None,,,,,,,,,,,,001,2022-05-02_10h58.01.618,Main,2022.1.1,61.08709368753411,
positive,neutral,2,l,j,,,,,,,,,9,17,179,17,,,,,,,,,main,2,2,2,neutral,positive,j,j,1,0.6994328000000678,517.9149268000037,518.9284040000057,518.9117781000095,None,517.9149268000037,None,517.9149268000037,None,517.9149268000037,None,519.6117503100016,None,519.6117503100016,None,519.6117503100016,None,,,,,,,,,,,,001,2022-05-02_10h58.01.618,Main,2022.1.1,61.08709368753411,
negative,positive,1,j,l,,,,,,,,,10,0,180,6,,,,,,,,,main,1,1,1,positive,negative,l,l,1,0.8615878000273369,519.615981800016,520.6261141000432,520.6117522999994,None,519.615981800016,None,519.615981800016,None,519.615981800016,None,521.4759940100543,None,521.4759940100543,None,521.4759940100543,None,,,,,,,,,,,,001,2022-05-02_10h58.01.618,Main,2022.1.1,61.08709368753411,
negative,neutral,2,j,l,,,,,,,,,10,1,181,12,,,,,,,,,main,2,2,2,neutral,negative,l,l,1,0.7150990999653004,521.4795569000416,522.492712700041,522.4782565000351,None,521.4795569000416,None,521.4795569000416,None,521.4795569000416,None,523.1926343100553,None,523.1926343100553,None,523.1926343100553,None,,,,,,,,,,,,001,2022-05-02_10h58.01.618,Main,2022.1.1,61.08709368753411,
positive,positive,2,l,j,,,,,,,,,10,2,182,11,,,,,,,,,main,1,1,2,positive,positive,j,j,1,0.9479079999728128,523.196475100005,524.2090255000512,524.1923531000502,None,523.196475100005,None,523.196475100005,None,523.196475100005,None,525.1422552100324,None,525.1422552100324,None,525.1422552100324,None,,,,,,,,,,,,001,2022-05-02_10h58.01.618,Main,2022.1.1,61.08709368753411,
neutral,neutral,1,k,k,,,,,,,,,10,3,183,1,,,,,,,,,main,1,1,1,neutral,neutral,k,k,1,0.7152878000051714,525.1423448999994,526.1450346000493,526.1450346000493,None,525.1423448999994,None,525.1423448999994,None,525.1423448999994,None,526.8592491100484,None,526.8592491100484,None,526.8592491100484,None,,,,,,,,,,,,001,2022-05-02_10h58.01.618,Main,2022.1.1,61.08709368753411,
neutral,positive,2,k,k,,,,,,,,,10,4,184,13,,,,,,,,,main,1,1,2,positive,neutral,k,k,1,0.6814714999636635,526.8627900000429,527.878216000041,527.8615404000157,None,526.8627900000429,None,526.8627900000429,None,526.8627900000429,None,528.54235491,None,528.54235491,None,528.54235491,None,,,,,,,,,,,,001,2022-05-02_10h58.01.618,Main,2022.1.1,61.08709368753411,
positive,negative,2,l,j,,,,,,,,,10,5,185,14,,,,,,,,,main,1,1,2,negative,positive,j,j,1,0.9657863000174984,528.5483844000264,529.5614566000295,529.5449118000106,None,528.5483844000264,None,528.5483844000264,None,528.5483844000264,None,530.5091356100223,None,530.5091356100223,None,530.5091356100223,None,,,,,,,,,,,,001,2022-05-02_10h58.01.618,Main,2022.1.1,61.08709368753411,
neutral,positive,1,k,k,,,,,,,,,10,6,186,4,,,,,,,,,main,2,2,1,positive,neutral,k,k,1,0.7322761000250466,530.5132784000016,531.5258510000422,531.5113930000225,None,530.5132784000016,None,530.5132784000016,None,530.5132784000016,None,532.2424649100343,None,532.2424649100343,None,532.2424649100343,None,,,,,,,,,,,,001,2022-05-02_10h58.01.618,Main,2022.1.1,61.08709368753411,
neutral,neutral,2,k,k,,,,,,,,,10,7,187,10,,,,,,,,,main,2,2,2,neutral,neutral,k,k,1,0.6493552000029013,532.2490995000117,533.2614362000022,533.2425154000521,None,532.2490995000117,None,532.2490995000117,None,532.2490995000117,None,533.8946441100037,None,533.8946441100037,None,533.8946441100037,None,,,,,,,,,,,,001,2022-05-02_10h58.01.618,Main,2022.1.1,61.08709368753411,
positive,positive,1,l,j,,,,,,,,,10,8,188,2,,,,,,,,,main,2,2,1,positive,positive,j,j,1,0.7124276999966241,533.8976756000193,534.9087964000064,534.8921326000127,None,533.8976756000193,None,533.8976756000193,None,533.8976756000193,None,535.6087133100431,None,535.6087133100431,None,535.6087133100431,None,,,,,,,,,,,,001,2022-05-02_10h58.01.618,Main,2022.1.1,61.08709368753411,
neutral,negative,2,k,k,,,,,,,,,10,9,189,16,,,,,,,,,main,2,2,2,negative,neutral,k,k,1,0.7855846000020392,535.608789800026,536.6088216000353,536.6088216000353,None,535.608789800026,None,535.608789800026,None,535.608789800026,None,537.3923787100415,None,537.3923787100415,None,537.3923787100415,None,,,,,,,,,,,,001,2022-05-02_10h58.01.618,Main,2022.1.1,61.08709368753411,
negative,negative,1,j,l,,,,,,,,,10,10,190,0,,,,,,,,,main,2,2,1,negative,negative,l,l,1,0.7625077000120655,537.4001882000011,538.4113989000325,538.3947544000112,None,537.4001882000011,None,537.4001882000011,None,537.4001882000011,None,539.1589969100372,None,539.1589969100372,None,539.1589969100372,None,,,,,,,,,,,,001,2022-05-02_10h58.01.618,Main,2022.1.1,61.08709368753411,
positive,neutral,2,l,j,,,,,,,,,10,11,191,17,,,,,,,,,main,1,1,2,neutral,positive,j,j,1,1.1471709000179544,539.1631379000028,540.1779927000171,540.161326100002,None,539.1631379000028,None,539.1631379000028,None,539.1631379000028,None,541.3089442100085,None,541.3089442100085,None,541.3089442100085,None,,,,,,,,,,,,001,2022-05-02_10h58.01.618,Main,2022.1.1,61.08709368753411,
neutral,negative,1,k,k,,,,,,,,,10,12,192,7,,,,,,,,,main,1,1,1,negative,neutral,k,k,1,0.8649173000012524,541.3121623000479,542.3112879000255,542.3112879000255,None,541.3121623000479,None,541.3121623000479,None,541.3121623000479,None,543.1755622100376,None,543.1755622100376,None,543.1755622100376,None,,,,,,,,,,,,001,2022-05-02_10h58.01.618,Main,2022.1.1,61.08709368753411,
positive,negative,1,l,j,,,,,,,,,10,13,193,5,,,,,,,,,main,1,1,1,negative,positive,j,j,1,0.7648429999826476,543.1789242000086,544.1944880000083,544.1756231000181,None,543.1789242000086,None,543.1789242000086,None,543.1789242000086,None,544.9418412100116,None,544.9418412100116,None,544.9418412100116,None,,,,,,,,,,,,001,2022-05-02_10h58.01.618,Main,2022.1.1,61.08709368753411,
negative,negative,2,j,l,,,,,,,,,10,14,194,9,,,,,,,,,main,2,2,2,negative,negative,l,l,1,0.8314848000300117,544.9419336999999,545.9419026000542,545.9419026000542,None,544.9419336999999,None,544.9419336999999,None,544.9419336999999,None,546.7751905100362,None,546.7751905100362,None,546.7751905100362,None,,,,,,,,,,,,001,2022-05-02_10h58.01.618,Main,2022.1.1,61.08709368753411,
positive,neutral,1,l,j,,,,,,,,,10,15,195,8,,,,,,,,,main,1,1,1,neutral,positive,j,j,1,0.7989199999719858,546.7778977000271,547.777801600052,547.7614836000139,None,546.7778977000271,None,546.7778977000271,None,546.7778977000271,None,548.5754472100001,None,548.5754472100001,None,548.5754472100001,None,,,,,,,,,,,,001,2022-05-02_10h58.01.618,Main,2022.1.1,61.08709368753411,
negative,neutral,1,j,l,,,,,,,,,10,16,196,3,,,,,,,,,main,1,1,1,neutral,negative,l,l,1,0.7313809999614023,548.5838239000295,549.5944219000521,549.577800100029,None,548.5838239000295,None,548.5838239000295,None,548.5838239000295,None,550.3087421100412,None,550.3087421100412,None,550.3087421100412,None,,,,,,,,,,,,001,2022-05-02_10h58.01.618,Main,2022.1.1,61.08709368753411,
negative,positive,2,j,l,,,,,,,,,10,17,197,15,,,,,,,,,main,2,2,2,positive,negative,l,l,1,0.6982464999891818,550.315139400016,551.327771500044,551.3111017000047,None,550.315139400016,None,550.315139400016,None,550.315139400016,None,552.0087094100367,None,552.0087094100367,None,552.0087094100367,None,,,,,,,,,,,,001,2022-05-02_10h58.01.618,Main,2022.1.1,61.08709368753411,
positive,positive,1,l,j,,,,,,,,,11,0,198,2,,,,,,,,,main,1,1,1,positive,positive,j,j,1,0.7641452000243589,552.0128646000521,553.0277315000421,553.0111004000064,None,552.0128646000521,None,552.0128646000521,None,552.0128646000521,None,553.7753299100499,None,553.7753299100499,None,553.7753299100499,None,,,,,,,,,,,,001,2022-05-02_10h58.01.618,Main,2022.1.1,61.08709368753411,
neutral,neutral,1,k,k,,,,,,,,,11,1,199,1,,,,,,,,,main,2,2,1,neutral,neutral,k,k,1,0.700806199980434,553.7788021000451,554.7942951000296,554.7754028000054,None,553.7788021000451,None,553.7788021000451,None,553.7788021000451,None,555.4778019100253,None,555.4778019100253,None,555.4778019100253,None,,,,,,,,,,,,001,2022-05-02_10h58.01.618,Main,2022.1.1,61.08709368753411,
neutral,positive,2,k,k,,,,,,,,,11,2,200,13,,,,,,,,,main,2,2,2,positive,neutral,k,k,1,1.2958493999904022,555.4919448000146,556.4919075000216,556.4753405000083,None,555.4919448000146,None,555.4919448000146,None,555.4919448000146,None,557.7751626100566,None,557.7751626100566,None,557.7751626100566,None,,,,,,,,,,,,001,2022-05-02_10h58.01.618,Main,2022.1.1,61.08709368753411,
negative,positive,1,j,l,,,,,,,,,11,3,201,6,,,,,,,,,main,1,1,1,positive,negative,l,l,1,0.7817958000232466,557.7786132000037,558.7918936000206,558.775226400001,None,557.7786132000037,None,557.7786132000037,None,557.7786132000037,None,559.5584395100071,None,559.5584395100071,None,559.5584395100071,None,,,,,,,,,,,,001,2022-05-02_10h58.01.618,Main,2022.1.1,61.08709368753411,
positive,negative,2,l,j,,,,,,,,,11,4,202,14,,,,,,,,,main,2,2,2,negative,positive,j,j,1,0.6814176000189036,559.5618763000239,560.5751697000233,560.5585051000235,None,559.5618763000239,None,559.5618763000239,None,559.5618763000239,None,561.2417814100103,None,561.2417814100103,None,561.2417814100103,None,,,,,,,,,,,,001,2022-05-02_10h58.01.618,Main,2022.1.1,61.08709368753411,
neutral,positive,1,k,k,,,,,,,,,11,5,203,4,,,,,,,,,main,1,1,1,positive,neutral,k,k,1,0.6483108999673277,561.2451696000062,562.2585678000469,562.2418480000342,None,561.2451696000062,None,561.2451696000062,None,561.2451696000062,None,562.8917754100461,None,562.8917754100461,None,562.8917754100461,None,,,,,,,,,,,,001,2022-05-02_10h58.01.618,Main,2022.1.1,61.08709368753411,
negative,positive,2,j,l,,,,,,,,,11,6,204,15,,,,,,,,,main,1,1,2,positive,negative,l,l,1,0.7486329000093974,562.908553700021,563.9085071000154,563.8918213000288,None,562.908553700021,None,562.908553700021,None,562.908553700021,None,564.641795310023,None,564.641795310023,None,564.641795310023,None,,,,,,,,,,,,001,2022-05-02_10h58.01.618,Main,2022.1.1,61.08709368753411,
positive,positive,2,l,j,,,,,,,,,11,7,205,11,,,,,,,,,main,1,1,2,positive,positive,j,j,1,0.7639972000033595,564.6459583000396,565.6584429000504,565.6440842000302,None,564.6459583000396,None,564.6459583000396,None,564.6459583000396,None,566.4083691100299,None,566.4083691100299,None,566.4083691100299,None,,,,,,,,,,,,001,2022-05-02_10h58.01.618,Main,2022.1.1,61.08709368753411,
positive,neutral,2,l,j,,,,,,,,,11,8,206,17,,,,,,,,,main,2,2,2,neutral,positive,j,j,1,0.7366594999912195,566.4119780000183,567.4345327000483,567.4120456000092,None,566.4119780000183,None,566.4119780000183,None,566.4119780000183,None,568.1413640100567,None,568.1413640100567,None,568.1413640100567,None,,,,,,,,,,,,001,2022-05-02_10h58.01.618,Main,2022.1.1,61.08709368753411,
neutral,negative,2,k,k,,,,,,,,,11,9,207,16,,,,,,,,,main,2,2,2,negative,neutral,k,k,1,0.6762067000381649,568.1465010000393,569.1580923000001,569.1414297000156,None,568.1465010000393,None,568.1465010000393,None,568.1465010000393,None,569.8247248100291,None,569.8247248100291,None,569.8247248100291,None,,,,,,,,,,,,001,2022-05-02_10h58.01.618,Main,2022.1.1,61.08709368753411,
negative,negative,1,j,l,,,,,,,,,11,10,208,0,,,,,,,,,main,2,2,1,negative,negative,l,l,1,0.6512507000006735,569.828704500047,570.8440336000058,570.8107722000568,None,569.828704500047,None,569.828704500047,None,569.828704500047,None,571.4772361100244,None,571.4772361100244,None,571.4772361100244,None,,,,,,,,,,,,001,2022-05-02_10h58.01.618,Main,2022.1.1,61.08709368753411,
positive,negative,1,l,j,,,,,,,,,11,11,209,5,,,,,,,,,main,2,2,1,negative,positive,j,j,1,0.7626880999887362,571.4805316000129,572.4938567000208,572.4772747000097,None,571.4805316000129,None,571.4805316000129,None,571.4805316000129,None,573.2416235100303,None,573.2416235100303,None,573.2416235100303,None,,,,,,,,,,,,001,2022-05-02_10h58.01.618,Main,2022.1.1,61.08709368753411,
negative,negative,2,j,l,,,,,,,,,11,12,210,9,,,,,,,,,main,1,1,2,negative,negative,l,l,1,0.7647529999958351,573.2449014000013,574.2439667000435,574.2439667000435,None,573.2449014000013,None,573.2449014000013,None,573.2449014000013,None,575.0082488100219,None,575.0082488100219,None,575.0082488100219,None,,,,,,,,,,,,001,2022-05-02_10h58.01.618,Main,2022.1.1,61.08709368753411,
negative,neutral,1,j,l,,,,,,,,,11,13,211,3,,,,,,,,,main,1,1,1,neutral,negative,l,l,1,0.8150305000017397,575.0113598000025,576.0082914000377,576.0082914000377,None,575.0113598000025,None,575.0113598000025,None,575.0113598000025,None,576.8248562100401,None,576.8248562100401,None,576.8248562100401,None,,,,,,,,,,,,001,2022-05-02_10h58.01.618,Main,2022.1.1,61.08709368753411,
positive,neutral,1,l,j,,,,,,,,,11,14,212,8,,,,,,,,,main,2,2,1,neutral,positive,j,j,1,0.814631899993401,576.828200500051,577.8412355000037,577.8245787000051,None,576.828200500051,None,576.828200500051,None,576.828200500051,None,578.6411289100128,None,578.6411289100128,None,578.6411289100128,None,,,,,,,,,,,,001,2022-05-02_10h58.01.618,Main,2022.1.1,61.08709368753411,
neutral,neutral,2,k,k,,,,,,,,,11,15,213,10,,,,,,,,,main,2,2,2,neutral,neutral,k,k,1,0.6318988000275567,578.6412017000257,579.6412340000388,579.6412340000388,None,578.6412017000257,None,578.6412017000257,None,578.6412017000257,None,580.2745637100364,None,580.2745637100364,None,580.2745637100364,None,,,,,,,,,,,,001,2022-05-02_10h58.01.618,Main,2022.1.1,61.08709368753411,
neutral,negative,1,k,k,,,,,,,,,11,16,214,7,,,,,,,,,main,2,2,1,negative,neutral,k,k,1,0.8818452000268735,580.2810347000486,581.2938339000102,581.2771598000545,None,580.2810347000486,None,580.2810347000486,None,580.2810347000486,None,582.1581030100409,None,582.1581030100409,None,582.1581030100409,None,,,,,,,,,,,,001,2022-05-02_10h58.01.618,Main,2022.1.1,61.08709368753411,
negative,neutral,2,j,l,,,,,,,,,11,17,215,12,,,,,,,,,main,1,1,2,neutral,negative,l,l,1,0.7149337999871932,582.1613202000153,583.1604358000332,583.1604358000332,None,582.1613202000153,None,582.1613202000153,None,582.1613202000153,None,583.8747323100164,None,583.8747323100164,None,583.8747323100164,None,,,,,,,,,,,,001,2022-05-02_10h58.01.618,Main,2022.1.1,61.08709368753411,
neutral,negative,2,k,k,,,,,,,,,12,0,216,16,,,,,,,,,main,1,1,2,negative,neutral,k,k,1,0.89822589996038,583.8802246000268,584.8936725000385,584.8770038000075,None,583.8802246000268,None,583.8802246000268,None,583.8802246000268,None,585.7746635100397,None,585.7746635100397,None,585.7746635100397,None,,,,,,,,,,,,001,2022-05-02_10h58.01.618,Main,2022.1.1,61.08709368753411,
positive,positive,1,l,j,,,,,,,,,12,1,217,2,,,,,,,,,main,1,1,1,positive,positive,j,j,1,0.8843569000018761,585.7780094000045,586.7913712000009,586.7770302000572,None,585.7780094000045,None,585.7780094000045,None,585.7780094000045,None,587.6607248100394,None,587.6607248100394,None,587.6607248100394,None,,,,,,,,,,,,001,2022-05-02_10h58.01.618,Main,2022.1.1,61.08709368753411,
neutral,neutral,1,k,k,,,,,,,,,12,2,218,1,,,,,,,,,main,2,2,1,neutral,neutral,k,k,1,0.72859499999322,587.6609115000465,588.6743321000249,588.6576597000239,None,587.6609115000465,None,587.6609115000465,None,587.6609115000465,None,589.3909227100143,None,589.3909227100143,None,589.3909227100143,None,,,,,,,,,,,,001,2022-05-02_10h58.01.618,Main,2022.1.1,61.08709368753411,
negative,neutral,1,j,l,,,,,,,,,12,3,219,3,,,,,,,,,main,2,2,1,neutral,negative,l,l,1,0.8655452000093646,589.3914679000154,590.3936432000482,590.376933600055,None,589.3914679000154,None,589.3914679000154,None,589.3914679000154,None,591.2579684100405,None,591.2579684100405,None,591.2579684100405,None,,,,,,,,,,,,001,2022-05-02_10h58.01.618,Main,2022.1.1,61.08709368753411,
negative,positive,1,j,l,,,,,,,,,12,4,220,6,,,,,,,,,main,1,1,1,positive,negative,l,l,1,0.6839171999599785,591.2615466000279,592.2768915000488,592.2602684000158,None,591.2615466000279,None,591.2615466000279,None,591.2615466000279,None,592.9435030100343,None,592.9435030100343,None,592.9435030100343,None,,,,,,,,,,,,001,2022-05-02_10h58.01.618,Main,2022.1.1,61.08709368753411,
positive,positive,2,l,j,,,,,,,,,12,5,221,11,,,,,,,,,main,2,2,2,positive,positive,j,j,1,0.8125785999582149,592.9467156000319,593.9579228000366,593.9435871000169,None,592.9467156000319,None,592.9467156000319,None,592.9467156000319,None,594.7578097100544,None,594.7578097100544,None,594.7578097100544,None,,,,,,,,,,,,001,2022-05-02_10h58.01.618,Main,2022.1.1,61.08709368753411,
positive,negative,2,l,j,,,,,,,,,12,6,222,14,,,,,,,,,main,1,1,2,negative,positive,j,j,1,0.7653944999910891,594.7609719000175,595.7600733000436,595.7600733000436,None,594.7609719000175,None,594.7609719000175,None,594.7609719000175,None,596.5247857100388,None,596.5247857100388,None,596.5247857100388,None,,,,,,,,,,,,001,2022-05-02_10h58.01.618,Main,2022.1.1,61.08709368753411,
neutral,positive,2,k,k,,,,,,,,,12,7,223,13,,,,,,,,,main,1,1,2,positive,neutral,k,k,1,0.7311489999992773,596.530773400038,597.54083730001,597.5241646000068,None,596.530773400038,None,596.530773400038,None,596.530773400038,None,598.2574063100095,None,598.2574063100095,None,598.2574063100095,None,,,,,,,,,,,,001,2022-05-02_10h58.01.618,Main,2022.1.1,61.08709368753411,
neutral,positive,1,k,k,,,,,,,,,12,8,224,4,,,,,,,,,main,2,2,1,positive,neutral,k,k,1,0.5814348999992944,598.2626870000386,599.2741656000144,599.2574944000226,None,598.2626870000386,None,598.2626870000386,None,598.2626870000386,None,599.8407430100546,None,599.8407430100546,None,599.8407430100546,None,,,,,,,,,,,,001,2022-05-02_10h58.01.618,Main,2022.1.1,61.08709368753411,
neutral,neutral,2,k,k,,,,,,,,,12,9,225,10,,,,,,,,,main,2,2,2,neutral,neutral,k,k,1,0.5820180000155233,599.841280600056,600.8408212000504,600.8408212000504,None,599.841280600056,None,599.841280600056,None,599.841280600056,None,601.424390710023,None,601.424390710023,None,601.424390710023,None,,,,,,,,,,,,001,2022-05-02_10h58.01.618,Main,2022.1.1,61.08709368753411,
