target,distractor,set,ans1,ans2,rep_loop2.thisRepN,rep_loop2.thisTrialN,rep_loop2.thisN,rep_loop2.thisIndex,flanker_prac_loop.thisRepN,flanker_prac_loop.thisTrialN,flanker_prac_loop.thisN,flanker_prac_loop.thisIndex,flanker_main_loop.thisRepN,flanker_main_loop.thisTrialN,flanker_main_loop.thisN,flanker_main_loop.thisIndex,fl_inst_resp.keys,fl_inst_resp.rt,sound_1.started,sound_1.stopped,image_4.started,image_4.stopped,back_2.started,back_2.stopped,main_prac,fl_cold,fl_colt,fl_set,fl_dcond,fl_tcond,fl_ans,fl_res,fl_corr,fl_rt,fix_fl.started,fix_fl.stopped,targ.started,targ.stopped,j_button.started,j_button.stopped,k_button.started,k_button.stopped,l_button.started,l_button.stopped,j_button2.started,j_button2.stopped,k_button2.started,k_button2.stopped,l_button2.started,l_button2.stopped,mainback.started,mainback.stopped,key_resp.keys,mouse_6.x,mouse_6.y,mouse_6.leftButton,mouse_6.midButton,mouse_6.rightButton,mouse_6.started,mouse_6.stopped,text_2.started,text_2.stopped,id*,date,expName,psychopyVersion,frameRate,
,,,,,0,0,0,0,,,,,,,,,space,59.763886900036596,19.431145470018965,None,79.21043279999867,None,,,,,,,,,,,,,,,,,,,,,,,,,,,,,,,,,,,,,,,,,002,2022-05-04_15h54.16.007,Main,2022.1.1,61.4017528768495,
positive,negative,1,l,j,,,,,0,0,0,5,,,,,,,,,,,84.69652340002358,None,prac,1,1,1,negative,positive,l,l,1,2.153472700039856,86.72667230002116,87.72687650006264,87.71020510001108,None,86.72667230002116,None,86.72667230002116,None,86.72667230002116,None,89.87727100006305,None,89.87727100006305,None,89.87727100006305,None,,,,,,,,,,,,,002,2022-05-04_15h54.16.007,Main,2022.1.1,61.4017528768495,
neutral,neutral,2,k,k,,,,,0,1,1,10,,,,,,,,,,,,,prac,2,2,2,neutral,neutral,k,k,1,1.0358184000942856,90.89250120008364,91.89356070000213,91.87678659998346,None,90.89250120008364,None,90.89250120008364,None,90.89250120008364,None,92.91000427004182,None,92.91000427004182,None,92.91000427004182,None,,,,,,,,,,,,,002,2022-05-04_15h54.16.007,Main,2022.1.1,61.4017528768495,
negative,negative,2,j,l,,,,,0,2,2,9,,,,,,,,,,,,,prac,2,2,2,negative,negative,j,j,1,0.9315729000372812,92.9284513000166,93.94338950002566,93.91013500001281,None,92.9284513000166,None,92.9284513000166,None,92.9284513000166,None,94.8433305700426,None,94.8433305700426,None,94.8433305700426,None,,,,,,,,,,,,,002,2022-05-04_15h54.16.007,Main,2022.1.1,61.4017528768495,
neutral,neutral,1,k,k,,,,,0,3,3,1,,,,,,,,,,,,,prac,2,2,1,neutral,neutral,k,k,1,0.8486636000452563,94.85771120002028,95.86004980001599,95.84363580006175,None,94.85771120002028,None,94.85771120002028,None,94.85771120002028,None,96.69328297000611,None,96.69328297000611,None,96.69328297000611,None,,,,,,,,,,,,,002,2022-05-04_15h54.16.007,Main,2022.1.1,61.4017528768495,
neutral,negative,1,k,k,,,,,0,4,4,7,,,,,,,,,,,,,prac,2,2,1,negative,neutral,k,k,1,0.6987183000892401,96.70122980000451,97.71001150005031,97.69334430003073,None,96.70122980000451,None,96.70122980000451,None,96.70122980000451,None,98.39324226999888,None,98.39324226999888,None,98.39324226999888,None,,,,,,,,,,,,,002,2022-05-04_15h54.16.007,Main,2022.1.1,61.4017528768495,
negative,negative,1,j,l,,,,,0,5,5,0,,,,,,,,,,,,,prac,2,2,1,negative,negative,j,k,0,1.1488864999264479,98.39858010003809,99.41003080003429,99.39328950003255,None,98.39858010003809,None,98.39858010003809,None,98.39858010003809,None,100.54328590002842,None,100.54328590002842,None,100.54328590002842,None,,,,,,,,,,,,,002,2022-05-04_15h54.16.007,Main,2022.1.1,61.4017528768495,
positive,neutral,2,l,j,,,,,0,6,6,17,,,,,,,,,,,,,prac,2,2,2,neutral,positive,l,l,1,1.0529930000193417,101.54841729998589,102.55994830001146,102.54324260004796,None,101.54841729998589,None,101.54841729998589,None,101.54841729998589,None,103.59312747000949,None,103.59312747000949,None,103.59312747000949,None,,,,,,,,,,,,,002,2022-05-04_15h54.16.007,Main,2022.1.1,61.4017528768495,
positive,positive,1,l,j,,,,,0,7,7,2,,,,,,,,,,,,,prac,2,2,1,positive,positive,l,l,1,1.0316786000039428,103.59944630006794,104.60984290007036,104.59316080005374,None,103.59944630006794,None,103.59944630006794,None,103.59944630006794,None,105.62648167008301,None,105.62648167008301,None,105.62648167008301,None,,,,,,,,,,,,,002,2022-05-04_15h54.16.007,Main,2022.1.1,61.4017528768495,
positive,positive,2,l,j,,,,,0,8,8,11,,,,,,,,,,,,,prac,1,1,2,positive,positive,l,l,1,1.0828228000318632,105.63101810007356,106.64320420008153,106.62646389997099,None,105.63101810007356,None,105.63101810007356,None,105.63101810007356,None,107.71077687003417,None,107.71077687003417,None,107.71077687003417,None,,,,,,,,,,,,,002,2022-05-04_15h54.16.007,Main,2022.1.1,61.4017528768495,
neutral,positive,1,k,k,,,,,0,9,9,4,,,,,,,,,,,,,prac,1,1,1,positive,neutral,k,k,1,0.8973730999277905,107.72136450000107,108.72642109997105,108.7098170000827,None,107.72136450000107,None,107.72136450000107,None,107.72136450000107,None,109.60965216999175,None,109.60965216999175,None,109.60965216999175,None,,,,,,,,,,,,,002,2022-05-04_15h54.16.007,Main,2022.1.1,61.4017528768495,
negative,positive,1,j,l,,,,,0,10,10,6,,,,,,,,,,,,,prac,2,2,1,positive,negative,j,j,1,0.7833116999827325,109.61267880001105,110.62644100002944,110.60973040002864,None,109.61267880001105,None,109.61267880001105,None,109.61267880001105,None,111.39301196999149,None,111.39301196999149,None,111.39301196999149,None,,,,,,,,,,,,,002,2022-05-04_15h54.16.007,Main,2022.1.1,61.4017528768495,
negative,neutral,2,j,l,,,,,0,11,11,12,,,,,,,,,,,,,prac,2,2,2,neutral,negative,j,j,1,0.9307597998995334,111.39914190000854,112.40968699997757,112.39308569999412,None,111.39914190000854,None,111.39914190000854,None,111.39914190000854,None,113.32625147002982,None,113.32625147002982,None,113.32625147002982,None,,,,,,,,,,,,,002,2022-05-04_15h54.16.007,Main,2022.1.1,61.4017528768495,
neutral,positive,2,k,k,,,,,0,12,12,13,,,,,,,,,,,,,prac,1,1,2,positive,neutral,k,k,1,0.7832468999549747,113.34256160003133,114.3429728000192,114.32631640008185,None,113.34256160003133,None,113.34256160003133,None,113.34256160003133,None,115.10956897005671,None,115.10956897005671,None,115.10956897005671,None,,,,,,,,,,,,,002,2022-05-04_15h54.16.007,Main,2022.1.1,61.4017528768495,
positive,neutral,1,l,j,,,,,0,13,13,8,,,,,,,,,,,,,prac,2,2,1,neutral,positive,l,l,1,0.7975949000101537,115.11364590004086,116.12629659997765,116.10963099997025,None,115.11364590004086,None,115.11364590004086,None,115.11364590004086,None,116.90953587008407,None,116.90953587008407,None,116.90953587008407,None,,,,,,,,,,,,,002,2022-05-04_15h54.16.007,Main,2022.1.1,61.4017528768495,
negative,positive,2,j,l,,,,,0,14,14,15,,,,,,,,,,,,,prac,2,2,2,positive,negative,j,j,1,1.1152550000697374,116.92496059997939,117.9262216000352,117.90956689999439,None,116.92496059997939,None,116.92496059997939,None,116.92496059997939,None,119.02615707007935,None,119.02615707007935,None,119.02615707007935,None,,,,,,,,,,,,,002,2022-05-04_15h54.16.007,Main,2022.1.1,61.4017528768495,
negative,neutral,1,j,l,,,,,0,15,15,3,,,,,,,,,,,,,prac,2,2,1,neutral,negative,j,j,1,0.9186581000685692,119.03225210006349,120.04288199997973,120.02620449999813,None,119.03225210006349,None,119.03225210006349,None,119.03225210006349,None,120.9424995699781,None,120.9424995699781,None,120.9424995699781,None,,,,,,,,,,,,,002,2022-05-04_15h54.16.007,Main,2022.1.1,61.4017528768495,
neutral,negative,2,k,k,,,,,0,16,16,16,,,,,,,,,,,,,prac,2,2,2,negative,neutral,k,k,1,0.9619786000112072,120.95008580002468,121.95950180001091,121.94283209997229,None,120.95008580002468,None,120.95008580002468,None,120.95008580002468,None,122.90941047006054,None,122.90941047006054,None,122.90941047006054,None,,,,,,,,,,,,,002,2022-05-04_15h54.16.007,Main,2022.1.1,61.4017528768495,
positive,negative,2,l,j,,,,,0,17,17,14,,,,,,,,,,,,,prac,1,1,2,negative,positive,l,l,1,0.8821284999139607,122.92625999997836,123.92613060004078,123.90946700004861,None,122.92625999997836,None,122.92625999997836,None,122.92625999997836,None,124.7927081700298,None,124.7927081700298,None,124.7927081700298,None,,,,,,,,,,,,,002,2022-05-04_15h54.16.007,Main,2022.1.1,61.4017528768495,
negative,negative,2,j,l,,,,,1,0,18,9,,,,,,,,,,,,,prac,2,2,2,negative,negative,j,j,1,0.9148647000547498,124.79604340007063,125.80938980006613,125.79556080000475,None,124.79604340007063,None,124.79604340007063,None,124.79604340007063,None,126.7093167699757,None,126.7093167699757,None,126.7093167699757,None,,,,,,,,,,,,,002,2022-05-04_15h54.16.007,Main,2022.1.1,61.4017528768495,
positive,neutral,2,l,j,,,,,1,1,19,17,,,,,,,,,,,,,prac,2,2,2,neutral,positive,l,l,1,0.798901200061664,126.7154634000035,127.72605140006635,127.70938320003916,None,126.7154634000035,None,126.7154634000035,None,126.7154634000035,None,128.50927877008218,None,128.50927877008218,None,128.50927877008218,None,,,,,,,,,,,,,002,2022-05-04_15h54.16.007,Main,2022.1.1,61.4017528768495,
negative,neutral,1,j,l,,,,,1,2,20,3,,,,,,,,,,,,,prac,2,2,1,neutral,negative,j,j,1,0.7485284999711439,128.51461329997983,129.5259997000685,129.50933010003064,None,128.51461329997983,None,128.51461329997983,None,128.51461329997983,None,130.25922837004765,None,130.25922837004765,None,130.25922837004765,None,,,,,,,,,,,,,002,2022-05-04_15h54.16.007,Main,2022.1.1,61.4017528768495,
negative,negative,1,j,l,,,,,1,3,21,0,,,,,,,,,,,,,prac,2,2,1,negative,negative,j,j,1,0.6853659000480548,130.2624739999883,131.27594079996925,131.259276399971,None,130.2624739999883,None,130.2624739999883,None,130.2624739999883,None,131.94342857006706,None,131.94342857006706,None,131.94342857006706,None,,,,,,,,,,,,,002,2022-05-04_15h54.16.007,Main,2022.1.1,61.4017528768495,
positive,neutral,1,l,j,,,,,1,4,22,8,,,,,,,,,,,,,prac,2,2,1,neutral,positive,l,l,1,0.8452190000098199,131.9498670999892,132.95927280001342,132.94270520005375,None,131.9498670999892,None,131.9498670999892,None,131.9498670999892,None,133.7924944700324,None,133.7924944700324,None,133.7924944700324,None,,,,,,,,,,,,,002,2022-05-04_15h54.16.007,Main,2022.1.1,61.4017528768495,
neutral,positive,2,k,k,,,,,1,5,23,13,,,,,,,,,,,,,prac,2,2,2,positive,neutral,k,k,1,0.7485976000316441,133.7956220000051,134.80921820004005,134.79253740003332,None,133.7956220000051,None,133.7956220000051,None,133.7956220000051,None,135.54246537004366,None,135.54246537004366,None,135.54246537004366,None,,,,,,,,,,,,,002,2022-05-04_15h54.16.007,Main,2022.1.1,61.4017528768495,
positive,positive,1,l,j,,,,,1,6,24,2,,,,,,,,,,,,,prac,1,1,1,positive,positive,l,l,1,0.6990846000844613,135.54550910007674,136.5591883000452,136.52585380000528,None,135.54550910007674,None,135.54550910007674,None,135.54550910007674,None,137.24256437005243,None,137.24256437005243,None,137.24256437005243,None,,,,,,,,,,,,,002,2022-05-04_15h54.16.007,Main,2022.1.1,61.4017528768495,
positive,negative,2,l,j,,,,,1,7,25,14,,,,,,,,,,,,,prac,1,1,2,negative,positive,l,l,1,0.681149399955757,137.24867330002598,138.25916000001598,138.24249440000858,None,137.24867330002598,None,137.24867330002598,None,137.24867330002598,None,138.92571436999134,None,138.92571436999134,None,138.92571436999134,None,,,,,,,,,,,,,002,2022-05-04_15h54.16.007,Main,2022.1.1,61.4017528768495,
positive,negative,1,l,j,,,,,1,8,26,5,,,,,,,,,,,,,prac,1,1,1,negative,positive,l,l,1,0.7986877999501303,138.93116759997793,139.94256370002404,139.9257879999932,None,138.93116759997793,None,138.93116759997793,None,138.93116759997793,None,140.7256706700544,None,140.7256706700544,None,140.7256706700544,None,,,,,,,,,,,,,002,2022-05-04_15h54.16.007,Main,2022.1.1,61.4017528768495,
negative,positive,2,j,l,,,,,1,9,27,15,,,,,,,,,,,,,prac,2,2,2,positive,negative,j,j,1,0.7984033999964595,140.72900250006933,141.74239570007194,141.7257395000197,None,140.72900250006933,None,140.72900250006933,None,140.72900250006933,None,142.52563627007186,None,142.52563627007186,None,142.52563627007186,None,,,,,,,,,,,,,002,2022-05-04_15h54.16.007,Main,2022.1.1,61.4017528768495,
negative,positive,1,j,l,,,,,1,10,28,6,,,,,,,,,,,,,prac,2,2,1,positive,negative,j,j,1,0.8486984999617562,142.53088239999488,143.5423698000377,143.50910750008188,None,142.53088239999488,None,142.53088239999488,None,142.53088239999488,None,144.37560707005906,None,144.37560707005906,None,144.37560707005906,None,,,,,,,,,,,,,002,2022-05-04_15h54.16.007,Main,2022.1.1,61.4017528768495,
neutral,negative,1,k,k,,,,,1,11,29,7,,,,,,,,,,,,,prac,2,2,1,negative,neutral,k,k,1,0.8322506999829784,144.37873870006297,145.3923308000667,145.3785932000028,None,144.37873870006297,None,144.37873870006297,None,144.37873870006297,None,146.2089447700535,None,146.2089447700535,None,146.2089447700535,None,,,,,,,,,,,,,002,2022-05-04_15h54.16.007,Main,2022.1.1,61.4017528768495,
neutral,positive,1,k,k,,,,,1,12,30,4,,,,,,,,,,,,,prac,2,2,1,positive,neutral,k,k,1,0.748500999994576,146.21406540006865,147.2256932000164,147.2089615999721,None,146.21406540006865,None,146.21406540006865,None,146.21406540006865,None,147.95888796997025,None,147.95888796997025,None,147.95888796997025,None,,,,,,,,,,,,,002,2022-05-04_15h54.16.007,Main,2022.1.1,61.4017528768495,
neutral,neutral,1,k,k,,,,,1,13,31,1,,,,,,,,,,,,,prac,1,1,1,neutral,neutral,k,k,1,0.7181071999948472,147.96414820000064,148.97573090007063,148.95894140005112,None,147.96414820000064,None,147.96414820000064,None,147.96414820000064,None,149.67830737006153,None,149.67830737006153,None,149.67830737006153,None,,,,,,,,,,,,,002,2022-05-04_15h54.16.007,Main,2022.1.1,61.4017528768495,
negative,neutral,2,j,l,,,,,1,14,32,12,,,,,,,,,,,,,prac,1,1,2,neutral,negative,j,j,1,0.8124771999428049,149.68144249997567,150.69227310002316,150.67554419999942,None,149.68144249997567,None,149.68144249997567,None,149.68144249997567,None,151.49212057004917,None,151.49212057004917,None,151.49212057004917,None,,,,,,,,,,,,,002,2022-05-04_15h54.16.007,Main,2022.1.1,61.4017528768495,
neutral,negative,2,k,k,,,,,1,15,33,16,,,,,,,,,,,,,prac,1,1,2,negative,neutral,k,k,1,0.6997999999439344,151.49722270003986,152.50892900000326,152.4921813000692,None,151.49722270003986,None,151.49722270003986,None,151.49722270003986,None,153.19209017000395,None,153.19209017000395,None,153.19209017000395,None,,,,,,,,,,,,,002,2022-05-04_15h54.16.007,Main,2022.1.1,61.4017528768495,
neutral,neutral,2,k,k,,,,,1,16,34,10,,,,,,,,,,,,,prac,1,1,2,neutral,neutral,k,k,1,0.6474949000403285,153.19613559998106,154.20882950001396,154.19215030001942,None,153.19613559998106,None,153.19613559998106,None,153.19613559998106,None,154.84207116999897,None,154.84207116999897,None,154.84207116999897,None,,,,,,,,,,,,,002,2022-05-04_15h54.16.007,Main,2022.1.1,61.4017528768495,
positive,positive,2,l,j,,,,,1,17,35,11,,,,,,,,,,,,,prac,1,1,2,positive,positive,l,l,1,0.765380600001663,154.8452240000479,155.8588506000815,155.84209659998305,None,154.8452240000479,None,154.8452240000479,None,154.8452240000479,None,156.60867446999765,None,156.60867446999765,None,156.60867446999765,None,,,,,,,,,,,,,002,2022-05-04_15h54.16.007,Main,2022.1.1,61.4017528768495,
,,,,,,,,,,,,,,,,,,,,,,,,,,,,,,,,,,,,,,,,,,,,,,,,,,,156.60875050001778,None,None,,,,,,,,,,002,2022-05-04_15h54.16.007,Main,2022.1.1,61.4017528768495,
,,,,,,,,,,,,,,,,,,,,,,,,,,,,,,,,,,,,,,,,,,,,,,,,,,,,,,-0.019444445,-0.075925924,1,0,0,0.010998870013281703,None,,,002,2022-05-04_15h54.16.007,Main,2022.1.1,61.4017528768495,
negative,positive,2,j,l,,,,,,,,,0,0,0,15,,,,,,,172.6250973000424,None,main,1,1,2,positive,negative,j,j,1,0.9752877000719309,174.6350826000562,175.64173709996976,175.62503740005195,None,174.6350826000562,None,174.6350826000562,None,174.6350826000562,None,176.60824857001427,None,176.60824857001427,None,176.60824857001427,None,,,,,,,,,,,,,002,2022-05-04_15h54.16.007,Main,2022.1.1,61.4017528768495,
neutral,neutral,2,k,k,,,,,,,,,0,1,1,10,,,,,,,,,main,2,2,2,neutral,neutral,k,k,1,0.7142322000581771,176.6123747000238,177.62787590001244,177.60830860002898,None,176.6123747000238,None,176.6123747000238,None,176.6123747000238,None,178.32490727003898,None,178.32490727003898,None,178.32490727003898,None,,,,,,,,,,,,,002,2022-05-04_15h54.16.007,Main,2022.1.1,61.4017528768495,
neutral,negative,1,k,k,,,,,,,,,0,2,2,7,,,,,,,,,main,2,2,1,negative,neutral,k,k,1,0.6650072999764234,178.3285791000817,179.34162750001997,179.32496560004074,None,178.3285791000817,None,178.3285791000817,None,178.3285791000817,None,179.99152317004047,None,179.99152317004047,None,179.99152317004047,None,,,,,,,,,,,,,002,2022-05-04_15h54.16.007,Main,2022.1.1,61.4017528768495,
neutral,positive,2,k,k,,,,,,,,,0,3,3,13,,,,,,,,,main,2,2,2,positive,neutral,k,k,1,0.7815817999653518,179.99610140000004,181.00831260008272,180.9916900000535,None,179.99610140000004,None,179.99610140000004,None,179.99610140000004,None,181.77481147007785,None,181.77481147007785,None,181.77481147007785,None,,,,,,,,,,,,,002,2022-05-04_15h54.16.007,Main,2022.1.1,61.4017528768495,
positive,negative,2,l,j,,,,,,,,,0,4,4,14,,,,,,,,,main,2,2,2,negative,positive,l,l,1,0.7484122000169009,181.77837389998604,182.79151820007246,182.77486920007505,None,181.77837389998604,None,181.77837389998604,None,181.77837389998604,None,183.52478847001913,None,183.52478847001913,None,183.52478847001913,None,,,,,,,,,,,,,002,2022-05-04_15h54.16.007,Main,2022.1.1,61.4017528768495,
neutral,positive,1,k,k,,,,,,,,,0,5,5,4,,,,,,,,,main,1,1,1,positive,neutral,k,k,1,0.7484291999135166,183.53037430008408,184.54152900003828,184.52485390007496,None,183.53037430008408,None,183.53037430008408,None,183.53037430008408,None,185.27477026999696,None,185.27477026999696,None,185.27477026999696,None,,,,,,,,,,,,,002,2022-05-04_15h54.16.007,Main,2022.1.1,61.4017528768495,
negative,negative,1,j,l,,,,,,,,,0,6,6,0,,,,,,,,,main,1,1,1,negative,negative,j,j,1,0.8481059999903664,185.28089410008397,186.29151380003896,186.27481770003214,None,185.28089410008397,None,185.28089410008397,None,185.28089410008397,None,187.1248144700774,None,187.1248144700774,None,187.1248144700774,None,,,,,,,,,,,,,002,2022-05-04_15h54.16.007,Main,2022.1.1,61.4017528768495,
positive,positive,2,l,j,,,,,,,,,0,7,7,11,,,,,,,,,main,2,2,2,positive,positive,l,l,1,0.7651349999941885,187.13016379997134,188.14149910002016,188.12479650008027,None,187.13016379997134,None,187.13016379997134,None,187.13016379997134,None,188.89144187002677,None,188.89144187002677,None,188.89144187002677,None,,,,,,,,,,,,,002,2022-05-04_15h54.16.007,Main,2022.1.1,61.4017528768495,
positive,neutral,2,l,j,,,,,,,,,0,8,8,17,,,,,,,,,main,1,1,2,neutral,positive,l,l,1,0.6482475999509916,188.8980717000086,189.90805610001553,189.89139050000813,None,188.8980717000086,None,188.8980717000086,None,188.8980717000086,None,190.5412828700035,None,190.5412828700035,None,190.5412828700035,None,,,,,,,,,,,,,002,2022-05-04_15h54.16.007,Main,2022.1.1,61.4017528768495,
neutral,neutral,1,k,k,,,,,,,,,0,9,9,1,,,,,,,,,main,1,1,1,neutral,neutral,k,k,1,0.7316382999997586,190.54458980006166,191.55802019999828,191.54141260008328,None,190.54458980006166,None,190.54458980006166,None,190.54458980006166,None,192.27461476997706,None,192.27461476997706,None,192.27461476997706,None,,,,,,,,,,,,,002,2022-05-04_15h54.16.007,Main,2022.1.1,61.4017528768495,
negative,neutral,1,j,l,,,,,,,,,0,10,10,3,,,,,,,,,main,1,1,1,neutral,negative,j,j,1,0.7649527000030503,192.2781373000471,193.2913447000319,193.2746473000152,None,192.2781373000471,None,192.2781373000471,None,192.2781373000471,None,194.04123667000096,None,194.04123667000096,None,194.04123667000096,None,,,,,,,,,,,,,002,2022-05-04_15h54.16.007,Main,2022.1.1,61.4017528768495,
negative,neutral,2,j,l,,,,,,,,,0,11,11,12,,,,,,,,,main,1,1,2,neutral,negative,j,j,1,0.8484009999083355,194.04435900005046,195.05797119997442,195.0412766999798,None,194.04435900005046,None,194.04435900005046,None,194.04435900005046,None,195.89117257007166,None,195.89117257007166,None,195.89117257007166,None,,,,,,,,,,,,,002,2022-05-04_15h54.16.007,Main,2022.1.1,61.4017528768495,
negative,negative,2,j,l,,,,,,,,,0,12,12,9,,,,,,,,,main,1,1,2,negative,negative,j,j,1,0.6650909000309184,195.89492730004713,196.90792879997753,196.89124350005295,None,195.89492730004713,None,195.89492730004713,None,195.89492730004713,None,197.5578488700674,None,197.5578488700674,None,197.5578488700674,None,,,,,,,,,,,,,002,2022-05-04_15h54.16.007,Main,2022.1.1,61.4017528768495,
positive,positive,1,l,j,,,,,,,,,0,13,13,2,,,,,,,,,main,1,1,1,positive,positive,l,l,1,0.748481799964793,197.56423919997178,198.57452670007478,198.55786150007043,None,197.56423919997178,None,197.56423919997178,None,197.56423919997178,None,199.30792017002824,None,199.30792017002824,None,199.30792017002824,None,,,,,,,,,,,,,002,2022-05-04_15h54.16.007,Main,2022.1.1,61.4017528768495,
neutral,negative,2,k,k,,,,,,,,,0,14,14,16,,,,,,,,,main,1,1,2,negative,neutral,k,k,1,0.7138007999164984,199.31855129997712,200.3245815000264,200.30784590006806,None,199.31855129997712,None,199.31855129997712,None,199.31855129997712,None,201.02441177006114,None,201.02441177006114,None,201.02441177006114,None,,,,,,,,,,,,,002,2022-05-04_15h54.16.007,Main,2022.1.1,61.4017528768495,
positive,neutral,1,l,j,,,,,,,,,0,15,15,8,,,,,,,,,main,1,1,1,neutral,positive,l,l,1,0.7484224999789149,201.0305636000121,202.04114510002546,202.02462000004016,None,201.0305636000121,None,201.0305636000121,None,201.0305636000121,None,202.7743792700465,None,202.7743792700465,None,202.7743792700465,None,,,,,,,,,,,,,002,2022-05-04_15h54.16.007,Main,2022.1.1,61.4017528768495,
positive,negative,1,l,j,,,,,,,,,0,16,16,5,,,,,,,,,main,2,2,1,negative,positive,l,l,1,0.664308900013566,202.77878699998837,203.7910907000769,203.77448370005004,None,202.77878699998837,None,202.77878699998837,None,202.77878699998837,None,204.4410111700534,None,204.4410111700534,None,204.4410111700534,None,,,,,,,,,,,,,002,2022-05-04_15h54.16.007,Main,2022.1.1,61.4017528768495,
negative,positive,1,j,l,,,,,,,,,0,17,17,6,,,,,,,,,main,1,1,1,positive,negative,j,j,1,0.781500400044024,204.4466565999901,205.4577446000185,205.44108320004307,None,204.4466565999901,None,204.4466565999901,None,204.4466565999901,None,206.22428937001388,None,206.22428937001388,None,206.22428937001388,None,,,,,,,,,,,,,002,2022-05-04_15h54.16.007,Main,2022.1.1,61.4017528768495,
negative,positive,1,j,l,,,,,,,,,1,0,18,6,,,,,,,,,main,1,1,1,positive,negative,j,j,1,0.7492081000236794,206.22843040002044,207.24130520003382,207.2244412000291,None,206.22843040002044,None,206.22843040002044,None,206.22843040002044,None,207.97430567002158,None,207.97430567002158,None,207.97430567002158,None,,,,,,,,,,,,,002,2022-05-04_15h54.16.007,Main,2022.1.1,61.4017528768495,
neutral,positive,1,k,k,,,,,,,,,1,1,19,4,,,,,,,,,main,2,2,1,positive,neutral,k,k,1,0.7311161999823526,207.97917519998737,208.99101310002152,208.97434509999584,None,207.97917519998737,None,207.97917519998737,None,207.97917519998737,None,209.70756297000918,None,209.70756297000918,None,209.70756297000918,None,,,,,,,,,,,,,002,2022-05-04_15h54.16.007,Main,2022.1.1,61.4017528768495,
negative,negative,1,j,l,,,,,,,,,1,2,20,0,,,,,,,,,main,2,2,1,negative,negative,j,j,1,0.8638981999829412,209.71183599997312,210.72428550000768,210.70761859999038,None,209.71183599997312,None,209.71183599997312,None,209.71183599997312,None,211.57421567001148,None,211.57421567001148,None,211.57421567001148,None,,,,,,,,,,,,,002,2022-05-04_15h54.16.007,Main,2022.1.1,61.4017528768495,
neutral,positive,2,k,k,,,,,,,,,1,3,21,13,,,,,,,,,main,2,2,2,positive,neutral,k,k,1,0.665097099961713,211.58008430001792,212.59087900002487,212.5742682000855,None,211.58008430001792,None,211.58008430001792,None,211.58008430001792,None,213.24083947007313,None,213.24083947007313,None,213.24083947007313,None,,,,,,,,,,,,,002,2022-05-04_15h54.16.007,Main,2022.1.1,61.4017528768495,
positive,positive,1,l,j,,,,,,,,,1,4,22,2,,,,,,,,,main,1,1,1,positive,positive,l,l,1,0.7983260999899358,213.24637379997876,214.2576161000179,214.24100220005494,None,213.24637379997876,None,213.24637379997876,None,213.24637379997876,None,215.04077636998846,None,215.04077636998846,None,215.04077636998846,None,,,,,,,,,,,,,002,2022-05-04_15h54.16.007,Main,2022.1.1,61.4017528768495,
positive,positive,2,l,j,,,,,,,,,1,5,23,11,,,,,,,,,main,2,2,2,positive,positive,l,l,1,0.7817270000232384,215.04433399997652,216.06028670002706,216.04083070007619,None,215.04433399997652,None,215.04433399997652,None,215.04433399997652,None,216.8240808700328,None,216.8240808700328,None,216.8240808700328,None,,,,,,,,,,,,,002,2022-05-04_15h54.16.007,Main,2022.1.1,61.4017528768495,
negative,neutral,1,j,l,,,,,,,,,1,6,24,3,,,,,,,,,main,2,2,1,neutral,negative,j,j,1,0.8314995999680832,216.82767190004233,217.8407968999818,217.8241303000832,None,216.82767190004233,None,216.82767190004233,None,216.82767190004233,None,218.65736207006267,None,218.65736207006267,None,218.65736207006267,None,,,,,,,,,,,,,002,2022-05-04_15h54.16.007,Main,2022.1.1,61.4017528768495,
positive,neutral,2,l,j,,,,,,,,,1,7,25,17,,,,,,,,,main,2,2,2,neutral,positive,l,l,1,0.6151677999878302,218.66080259997398,219.67408829997294,219.65744149999227,None,218.66080259997398,None,218.66080259997398,None,218.66080259997398,None,220.2740338699776,None,220.2740338699776,None,220.2740338699776,None,,,,,,,,,,,,,002,2022-05-04_15h54.16.007,Main,2022.1.1,61.4017528768495,
neutral,neutral,1,k,k,,,,,,,,,1,8,26,1,,,,,,,,,main,1,1,1,neutral,neutral,k,k,1,0.6648579000029713,220.2771849000128,221.29075260006357,221.2740757999709,None,220.2771849000128,None,220.2771849000128,None,220.2771849000128,None,221.94063716999955,None,221.94063716999955,None,221.94063716999955,None,,,,,,,,,,,,,002,2022-05-04_15h54.16.007,Main,2022.1.1,61.4017528768495,
negative,negative,2,j,l,,,,,,,,,1,9,27,9,,,,,,,,,main,1,1,2,negative,negative,j,j,1,0.8317954000085592,221.94381960004102,222.9573790000286,222.94072339998093,None,221.94381960004102,None,221.94381960004102,None,221.94381960004102,None,223.774060770066,None,223.774060770066,None,223.774060770066,None,,,,,,,,,,,,,002,2022-05-04_15h54.16.007,Main,2022.1.1,61.4017528768495,
neutral,neutral,2,k,k,,,,,,,,,1,10,28,10,,,,,,,,,main,1,1,2,neutral,neutral,k,k,1,0.7815365000860766,223.77805720001925,224.79065820004325,224.77399230003357,None,223.77805720001925,None,223.77805720001925,None,223.77805720001925,None,225.55724146998256,None,225.55724146998256,None,225.55724146998256,None,,,,,,,,,,,,,002,2022-05-04_15h54.16.007,Main,2022.1.1,61.4017528768495,
neutral,negative,1,k,k,,,,,,,,,1,11,29,7,,,,,,,,,main,2,2,1,negative,neutral,k,k,1,0.9484916999936104,225.56285450002179,226.57397080003284,226.55735820007976,None,225.56285450002179,None,225.56285450002179,None,225.56285450002179,None,227.5071899700095,None,227.5071899700095,None,227.5071899700095,None,,,,,,,,,,,,,002,2022-05-04_15h54.16.007,Main,2022.1.1,61.4017528768495,
positive,neutral,1,l,j,,,,,,,,,1,12,30,8,,,,,,,,,main,1,1,1,neutral,positive,l,l,1,0.7484328999416903,227.5184948000824,228.52674930007197,228.5072587999748,None,227.5184948000824,None,227.5184948000824,None,227.5184948000824,None,229.2572373700212,None,229.2572373700212,None,229.2572373700212,None,,,,,,,,,,,,,002,2022-05-04_15h54.16.007,Main,2022.1.1,61.4017528768495,
negative,positive,2,j,l,,,,,,,,,1,13,31,15,,,,,,,,,main,2,2,2,positive,negative,j,j,1,0.7639213999500498,229.26157500001136,230.27388480002992,230.2572327000089,None,229.26157500001136,None,229.26157500001136,None,229.26157500001136,None,231.0237745699822,None,231.0237745699822,None,231.0237745699822,None,,,,,,,,,,,,,002,2022-05-04_15h54.16.007,Main,2022.1.1,61.4017528768495,
negative,neutral,2,j,l,,,,,,,,,1,14,32,12,,,,,,,,,main,2,2,2,neutral,negative,j,j,1,0.7482239999808371,231.02777980000246,232.04049060004763,232.02392559999134,None,231.02777980000246,None,231.02777980000246,None,231.02777980000246,None,232.77373597003754,None,232.77373597003754,None,232.77373597003754,None,,,,,,,,,,,,,002,2022-05-04_15h54.16.007,Main,2022.1.1,61.4017528768495,
neutral,negative,2,k,k,,,,,,,,,1,15,33,16,,,,,,,,,main,1,1,2,negative,neutral,k,k,1,0.765149199985899,232.7769953000825,233.79048800002784,233.77379830006976,None,232.7769953000825,None,232.7769953000825,None,232.7769953000825,None,234.54050787003945,None,234.54050787003945,None,234.54050787003945,None,,,,,,,,,,,,,002,2022-05-04_15h54.16.007,Main,2022.1.1,61.4017528768495,
positive,negative,2,l,j,,,,,,,,,1,16,34,14,,,,,,,,,main,1,1,2,negative,positive,l,l,1,0.764934099977836,234.54380740004126,235.55988880002405,235.54044580005575,None,234.54380740004126,None,234.54380740004126,None,234.54380740004126,None,236.30705257005758,None,236.30705257005758,None,236.30705257005758,None,,,,,,,,,,,,,002,2022-05-04_15h54.16.007,Main,2022.1.1,61.4017528768495,
positive,negative,1,l,j,,,,,,,,,1,17,35,5,,,,,,,,,main,2,2,1,negative,positive,l,l,1,0.831729399971664,236.31072220008355,237.32377520005684,237.3071092000464,None,236.31072220008355,None,236.31072220008355,None,236.31072220008355,None,238.14037677006564,None,238.14037677006564,None,238.14037677006564,None,,,,,,,,,,,,,002,2022-05-04_15h54.16.007,Main,2022.1.1,61.4017528768495,
neutral,negative,2,k,k,,,,,,,,,2,0,36,16,,,,,,,,,main,1,1,2,negative,neutral,k,k,1,0.6981090999906883,238.1444137999788,239.15702060004696,239.14037030003965,None,238.1444137999788,None,238.1444137999788,None,238.1444137999788,None,239.84025517002448,None,239.84025517002448,None,239.84025517002448,None,,,,,,,,,,,,,002,2022-05-04_15h54.16.007,Main,2022.1.1,61.4017528768495,
negative,negative,1,j,l,,,,,,,,,2,1,37,0,,,,,,,,,main,1,1,1,negative,negative,j,j,1,0.7987097000004724,239.84346170001663,240.85699640004896,240.84032120008487,None,239.84346170001663,None,239.84346170001663,None,239.84346170001663,None,241.64031417005464,None,241.64031417005464,None,241.64031417005464,None,,,,,,,,,,,,,002,2022-05-04_15h54.16.007,Main,2022.1.1,61.4017528768495,
positive,neutral,1,l,j,,,,,,,,,2,2,38,8,,,,,,,,,main,1,1,1,neutral,positive,l,l,1,0.7816424999618903,241.64598180004396,242.65700230002403,242.64028519997373,None,241.64598180004396,None,241.64598180004396,None,241.64598180004396,None,243.4236472700839,None,243.4236472700839,None,243.4236472700839,None,,,,,,,,,,,,,002,2022-05-04_15h54.16.007,Main,2022.1.1,61.4017528768495,
neutral,positive,2,k,k,,,,,,,,,2,3,39,13,,,,,,,,,main,1,1,2,positive,neutral,k,k,1,0.7816585999680683,243.42713299999014,244.44305870006792,244.42359310004395,None,243.42713299999014,None,243.42713299999014,None,243.42713299999014,None,245.20695677004989,None,245.20695677004989,None,245.20695677004989,None,,,,,,,,,,,,,002,2022-05-04_15h54.16.007,Main,2022.1.1,61.4017528768495,
neutral,positive,1,k,k,,,,,,,,,2,4,40,4,,,,,,,,,main,2,2,1,positive,neutral,k,k,1,0.9149287000764161,245.21135110000614,246.22355990007054,246.2068939000601,None,245.21135110000614,None,245.21135110000614,None,245.21135110000614,None,247.1234579699929,None,247.1234579699929,None,247.1234579699929,None,,,,,,,,,,,,,002,2022-05-04_15h54.16.007,Main,2022.1.1,61.4017528768495,
negative,neutral,1,j,l,,,,,,,,,2,5,41,3,,,,,,,,,main,2,2,1,neutral,negative,j,j,1,0.8316020000493154,247.1271130000241,248.14016619999893,248.12350730004255,None,247.1271130000241,None,247.1271130000241,None,247.1271130000241,None,248.95679827000714,None,248.95679827000714,None,248.95679827000714,None,,,,,,,,,,,,,002,2022-05-04_15h54.16.007,Main,2022.1.1,61.4017528768495,
positive,negative,2,l,j,,,,,,,,,2,6,42,14,,,,,,,,,main,1,1,2,negative,positive,l,l,1,0.7316597000462934,248.9622604000615,249.97634900000412,249.95678170002066,None,248.9622604000615,None,248.9622604000615,None,248.9622604000615,None,250.69001647004626,None,250.69001647004626,None,250.69001647004626,None,,,,,,,,,,,,,002,2022-05-04_15h54.16.007,Main,2022.1.1,61.4017528768495,
positive,positive,2,l,j,,,,,,,,,2,7,43,11,,,,,,,,,main,2,2,2,positive,positive,l,l,1,0.7318085000151768,250.69345450005494,251.70953220000956,251.6900994000025,None,250.69345450005494,None,250.69345450005494,None,250.69345450005494,None,252.42331416999224,None,252.42331416999224,None,252.42331416999224,None,,,,,,,,,,,,,002,2022-05-04_15h54.16.007,Main,2022.1.1,61.4017528768495,
neutral,neutral,1,k,k,,,,,,,,,2,8,44,1,,,,,,,,,main,1,1,1,neutral,neutral,k,k,1,0.7314991999883205,252.426690399996,253.4401168000186,253.42340470000636,None,252.426690399996,None,252.426690399996,None,252.426690399996,None,254.15663456999465,None,254.15663456999465,None,254.15663456999465,None,,,,,,,,,,,,,002,2022-05-04_15h54.16.007,Main,2022.1.1,61.4017528768495,
negative,negative,2,j,l,,,,,,,,,2,9,45,9,,,,,,,,,main,1,1,2,negative,negative,j,j,1,0.7816414999542758,254.16187579999678,255.1733719999902,255.15686770004686,None,254.16187579999678,None,254.16187579999678,None,254.16187579999678,None,255.93993256998948,None,255.93993256998948,None,255.93993256998948,None,,,,,,,,,,,,,002,2022-05-04_15h54.16.007,Main,2022.1.1,61.4017528768495,
positive,negative,1,l,j,,,,,,,,,2,10,46,5,,,,,,,,,main,2,2,1,negative,positive,l,l,1,0.7872944000409916,255.9460362000391,256.95664490002673,256.93997589999344,None,255.9460362000391,None,255.9460362000391,None,255.9460362000391,None,257.7275461700163,None,257.7275461700163,None,257.7275461700163,None,,,,,,,,,,,,,002,2022-05-04_15h54.16.007,Main,2022.1.1,61.4017528768495,
positive,neutral,2,l,j,,,,,,,,,2,11,47,17,,,,,,,,,main,2,2,2,neutral,positive,l,l,1,0.7763626000378281,257.7321163000306,258.7399557000026,258.7232898999937,None,257.7321163000306,None,257.7321163000306,None,257.7321163000306,None,259.5065933700069,None,259.5065933700069,None,259.5065933700069,None,,,,,,,,,,,,,002,2022-05-04_15h54.16.007,Main,2022.1.1,61.4017528768495,
positive,positive,1,l,j,,,,,,,,,2,12,48,2,,,,,,,,,main,2,2,1,positive,positive,l,l,1,0.8482451000018045,259.5124773000134,260.5260542000178,260.5065895000007,None,259.5124773000134,None,259.5124773000134,None,259.5124773000134,None,261.35649677006296,None,261.35649677006296,None,261.35649677006296,None,,,,,,,,,,,,,002,2022-05-04_15h54.16.007,Main,2022.1.1,61.4017528768495,
negative,positive,1,j,l,,,,,,,,,2,13,49,6,,,,,,,,,main,1,1,1,positive,negative,j,j,1,1.164935200009495,261.36193340003956,262.37321750004776,262.3565551000647,None,261.36193340003956,None,261.36193340003956,None,261.36193340003956,None,263.52311167005684,None,263.52311167005684,None,263.52311167005684,None,,,,,,,,,,,,,002,2022-05-04_15h54.16.007,Main,2022.1.1,61.4017528768495,
negative,positive,2,j,l,,,,,,,,,2,14,50,15,,,,,,,,,main,2,2,2,positive,negative,j,j,1,0.7982802999904379,263.5265365000814,264.53983700007666,264.5231720000738,None,263.5265365000814,None,263.5265365000814,None,263.5265365000814,None,265.3230575700407,None,265.3230575700407,None,265.3230575700407,None,,,,,,,,,,,,,002,2022-05-04_15h54.16.007,Main,2022.1.1,61.4017528768495,
neutral,negative,1,k,k,,,,,,,,,2,15,51,7,,,,,,,,,main,2,2,1,negative,neutral,k,k,1,0.7652910000178963,265.3262912000064,266.3398008000804,266.3231324000517,None,265.3262912000064,None,265.3262912000064,None,265.3262912000064,None,267.08976156999125,None,267.08976156999125,None,267.08976156999125,None,,,,,,,,,,,,,002,2022-05-04_15h54.16.007,Main,2022.1.1,61.4017528768495,
negative,neutral,2,j,l,,,,,,,,,2,16,52,12,,,,,,,,,main,2,2,2,neutral,negative,j,j,1,0.8973979000002146,267.0960112999892,268.1065099000698,268.0897315000184,None,267.0960112999892,None,267.0960112999892,None,267.0960112999892,None,268.98963947001613,None,268.98963947001613,None,268.98963947001613,None,,,,,,,,,,,,,002,2022-05-04_15h54.16.007,Main,2022.1.1,61.4017528768495,
neutral,neutral,2,k,k,,,,,,,,,2,17,53,10,,,,,,,,,main,2,2,2,neutral,neutral,k,k,1,0.8329280000180006,268.99511820008047,270.00636350002605,269.9896785999881,None,268.99511820008047,None,268.99511820008047,None,268.99511820008047,None,270.82294306998375,None,270.82294306998375,None,270.82294306998375,None,,,,,,,,,,,,,002,2022-05-04_15h54.16.007,Main,2022.1.1,61.4017528768495,
positive,positive,2,l,j,,,,,,,,,3,0,54,11,,,,,,,,,main,2,2,2,positive,positive,l,l,1,0.8138482000213116,270.8294636000646,271.8397007000167,271.82297490001656,None,270.8294636000646,None,270.8294636000646,None,270.8294636000646,None,272.6395646700519,None,272.6395646700519,None,272.6395646700519,None,,,,,,,,,,,,,002,2022-05-04_15h54.16.007,Main,2022.1.1,61.4017528768495,
negative,negative,2,j,l,,,,,,,,,3,1,55,9,,,,,,,,,main,1,1,2,negative,negative,j,j,1,0.9150265000062063,272.6449727000436,273.6562923999736,273.63964150007814,None,272.6449727000436,None,272.6449727000436,None,272.6449727000436,None,274.55622417003616,None,274.55622417003616,None,274.55622417003616,None,,,,,,,,,,,,,002,2022-05-04_15h54.16.007,Main,2022.1.1,61.4017528768495,
neutral,neutral,2,k,k,,,,,,,,,3,2,56,10,,,,,,,,,main,2,2,2,neutral,neutral,k,k,1,0.8150299000553787,274.5621396000497,275.5729540999746,275.5562647000188,None,274.5621396000497,None,274.5621396000497,None,274.5621396000497,None,276.3728501700214,None,276.3728501700214,None,276.3728501700214,None,,,,,,,,,,,,,002,2022-05-04_15h54.16.007,Main,2022.1.1,61.4017528768495,
positive,neutral,2,l,j,,,,,,,,,3,3,57,17,,,,,,,,,main,1,1,2,neutral,positive,l,l,1,0.7988339000148699,276.37850350001827,277.38954260002356,277.3728744999971,None,276.37850350001827,None,276.37850350001827,None,276.37850350001827,None,278.17283037003364,None,278.17283037003364,None,278.17283037003364,None,,,,,,,,,,,,,002,2022-05-04_15h54.16.007,Main,2022.1.1,61.4017528768495,
neutral,neutral,1,k,k,,,,,,,,,3,4,58,1,,,,,,,,,main,1,1,1,neutral,neutral,k,k,1,0.7477297000586987,278.1763957000803,279.18952130002435,279.1728535000002,None,278.1763957000803,None,278.1763957000803,None,278.1763957000803,None,279.9227468699799,None,279.9227468699799,None,279.9227468699799,None,,,,,,,,,,,,,002,2022-05-04_15h54.16.007,Main,2022.1.1,61.4017528768495,
positive,negative,1,l,j,,,,,,,,,3,5,59,5,,,,,,,,,main,2,2,1,negative,positive,l,l,1,1.1153282000450417,279.9394950000569,280.939483400085,280.90622240002267,None,279.9394950000569,None,279.9394950000569,None,279.9394950000569,None,282.0393737700186,None,282.0393737700186,None,282.0393737700186,None,,,,,,,,,,,,,002,2022-05-04_15h54.16.007,Main,2022.1.1,61.4017528768495,
negative,neutral,1,j,l,,,,,,,,,3,6,60,3,,,,,,,,,main,1,1,1,neutral,negative,j,j,1,0.915045699919574,282.0427148999879,283.0560947000049,283.03940420004074,None,282.0427148999879,None,282.0427148999879,None,282.0427148999879,None,283.95600577002625,None,283.95600577002625,None,283.95600577002625,None,,,,,,,,,,,,,002,2022-05-04_15h54.16.007,Main,2022.1.1,61.4017528768495,
neutral,positive,1,k,k,,,,,,,,,3,7,61,4,,,,,,,,,main,2,2,1,positive,neutral,k,k,1,0.7649763999506831,283.96171280008275,284.9727139000315,284.95604489999823,None,283.96171280008275,None,283.96171280008275,None,283.96171280008275,None,285.7226438700571,None,285.7226438700571,None,285.7226438700571,None,,,,,,,,,,,,,002,2022-05-04_15h54.16.007,Main,2022.1.1,61.4017528768495,
neutral,negative,2,k,k,,,,,,,,,3,8,62,16,,,,,,,,,main,2,2,2,negative,neutral,k,k,1,0.7815193999558687,285.7283386000199,286.7393651000457,286.7228089000564,None,285.7283386000199,None,285.7283386000199,None,285.7283386000199,None,287.5059191699955,None,287.5059191699955,None,287.5059191699955,None,,,,,,,,,,,,,002,2022-05-04_15h54.16.007,Main,2022.1.1,61.4017528768495,
neutral,positive,2,k,k,,,,,,,,,3,9,63,13,,,,,,,,,main,1,1,2,positive,neutral,k,k,1,0.7151481999317184,287.51151009998284,288.52552510006353,288.50597930001095,None,287.51151009998284,None,287.51151009998284,None,287.51151009998284,None,289.22257127008635,None,289.22257127008635,None,289.22257127008635,None,,,,,,,,,,,,,002,2022-05-04_15h54.16.007,Main,2022.1.1,61.4017528768495,
negative,neutral,2,j,l,,,,,,,,,3,10,64,12,,,,,,,,,main,1,1,2,neutral,negative,j,j,1,1.5149332999717444,289.2260203000624,290.2392640999751,290.222624200047,None,289.2260203000624,None,289.2260203000624,None,289.2260203000624,None,291.73938739998266,None,291.73938739998266,None,291.73938739998266,None,,,,,,,,,,,,,002,2022-05-04_15h54.16.007,Main,2022.1.1,61.4017528768495,
negative,negative,1,j,l,,,,,,,,,3,11,65,0,,,,,,,,,main,1,1,1,negative,negative,j,j,1,0.8539325000019744,292.74036050005816,293.7560050999746,293.72254770004656,None,292.74036050005816,None,292.74036050005816,None,292.74036050005816,None,294.58913446998923,None,294.58913446998923,None,294.58913446998923,None,,,,,,,,,,,,,002,2022-05-04_15h54.16.007,Main,2022.1.1,61.4017528768495,
positive,neutral,1,l,j,,,,,,,,,3,12,66,8,,,,,,,,,main,1,1,1,neutral,positive,l,l,1,0.7972006000345573,294.595934699988,295.6058486000402,295.5891753999749,None,294.595934699988,None,294.595934699988,None,294.595934699988,None,296.38909676998156,None,296.38909676998156,None,296.38909676998156,None,,,,,,,,,,,,,002,2022-05-04_15h54.16.007,Main,2022.1.1,61.4017528768495,
positive,negative,2,l,j,,,,,,,,,3,13,67,14,,,,,,,,,main,2,2,2,negative,positive,l,l,1,0.6815761000616476,296.392555700033,297.4057791000232,297.3919960000785,None,296.392555700033,None,296.392555700033,None,296.392555700033,None,298.07235967008165,None,298.07235967008165,None,298.07235967008165,None,,,,,,,,,,,,,002,2022-05-04_15h54.16.007,Main,2022.1.1,61.4017528768495,
negative,positive,2,j,l,,,,,,,,,3,14,68,15,,,,,,,,,main,1,1,2,positive,negative,j,j,1,0.8816641999874264,298.07573270006105,299.08910390001256,299.07240910001565,None,298.07573270006105,None,298.07573270006105,None,298.07573270006105,None,299.955668070016,None,299.955668070016,None,299.955668070016,None,,,,,,,,,,,,,002,2022-05-04_15h54.16.007,Main,2022.1.1,61.4017528768495,
neutral,negative,1,k,k,,,,,,,,,3,15,69,7,,,,,,,,,main,1,1,1,negative,neutral,k,k,1,0.765086599974893,299.95876249996945,300.9724306999706,300.9557198000839,None,299.95876249996945,None,299.95876249996945,None,299.95876249996945,None,301.72232367006364,None,301.72232367006364,None,301.72232367006364,None,,,,,,,,,,,,,002,2022-05-04_15h54.16.007,Main,2022.1.1,61.4017528768495,
negative,positive,1,j,l,,,,,,,,,3,16,70,6,,,,,,,,,main,1,1,1,positive,negative,j,j,1,0.7828132000286132,301.7267767000012,302.7390337000834,302.7223611000227,None,301.7267767000012,None,301.7267767000012,None,301.7267767000012,None,303.50560747006676,None,303.50560747006676,None,303.50560747006676,None,,,,,,,,,,,,,002,2022-05-04_15h54.16.007,Main,2022.1.1,61.4017528768495,
positive,positive,1,l,j,,,,,,,,,3,17,71,2,,,,,,,,,main,2,2,1,positive,positive,l,l,1,0.7646777000045404,303.5119191000704,304.5223017000826,304.5085931000067,None,303.5119191000704,None,303.5119191000704,None,303.5119191000704,None,305.27240787005286,None,305.27240787005286,None,305.27240787005286,None,,,,,,,,,,,,,002,2022-05-04_15h54.16.007,Main,2022.1.1,61.4017528768495,
neutral,positive,2,k,k,,,,,,,,,4,0,72,13,,,,,,,,,main,1,1,2,positive,neutral,k,k,1,0.7975883999606594,305.27638559998013,306.29222940001637,306.27228420006577,None,305.27638559998013,None,305.27638559998013,None,305.27638559998013,None,307.0721781699802,None,307.0721781699802,None,307.0721781699802,None,,,,,,,,,,,,,002,2022-05-04_15h54.16.007,Main,2022.1.1,61.4017528768495,
positive,negative,2,l,j,,,,,,,,,4,1,73,14,,,,,,,,,main,1,1,2,negative,positive,l,l,1,0.714953999966383,307.0776833000127,308.088907700032,308.0722256000154,None,307.0776833000127,None,307.0776833000127,None,307.0776833000127,None,308.7888251700322,None,308.7888251700322,None,308.7888251700322,None,,,,,,,,,,,,,002,2022-05-04_15h54.16.007,Main,2022.1.1,61.4017528768495,
positive,positive,1,l,j,,,,,,,,,4,2,74,2,,,,,,,,,main,2,2,1,positive,positive,l,l,1,0.7984146000817418,308.7923421000596,309.80554380000103,309.7888787999982,None,308.7923421000596,None,308.7923421000596,None,308.7923421000596,None,310.5887671699864,None,310.5887671699864,None,310.5887671699864,None,,,,,,,,,,,,,002,2022-05-04_15h54.16.007,Main,2022.1.1,61.4017528768495,
positive,neutral,1,l,j,,,,,,,,,4,3,75,8,,,,,,,,,main,1,1,1,neutral,positive,l,l,1,0.6482713998993859,310.5919402000727,311.60551080002915,311.58884620002937,None,310.5919402000727,None,310.5919402000727,None,310.5919402000727,None,312.2387396700331,None,312.2387396700331,None,312.2387396700331,None,,,,,,,,,,,,,002,2022-05-04_15h54.16.007,Main,2022.1.1,61.4017528768495,
negative,neutral,1,j,l,,,,,,,,,4,4,76,3,,,,,,,,,main,2,2,1,neutral,negative,j,j,1,0.8484454000135884,312.2422436000779,313.2554609000217,313.2387900999747,None,312.2422436000779,None,312.2422436000779,None,312.2422436000779,None,314.0888251700788,None,314.0888251700788,None,314.0888251700788,None,,,,,,,,,,,,,002,2022-05-04_15h54.16.007,Main,2022.1.1,61.4017528768495,
negative,positive,2,j,l,,,,,,,,,4,5,77,15,,,,,,,,,main,1,1,2,positive,negative,j,j,1,0.7982471000868827,314.09506730001885,315.1054320000112,315.0887520000106,None,314.09506730001885,None,314.09506730001885,None,314.09506730001885,None,315.88868366997923,None,315.88868366997923,None,315.88868366997923,None,,,,,,,,,,,,,002,2022-05-04_15h54.16.007,Main,2022.1.1,61.4017528768495,
negative,negative,2,j,l,,,,,,,,,4,6,78,9,,,,,,,,,main,1,1,2,negative,negative,j,j,1,0.5982737999875098,315.8942490000045,316.9054570000153,316.87206379999407,None,315.8942490000045,None,315.8942490000045,None,315.8942490000045,None,317.4886444700067,None,317.4886444700067,None,317.4886444700067,None,,,,,,,,,,,,,002,2022-05-04_15h54.16.007,Main,2022.1.1,61.4017528768495,
negative,neutral,2,j,l,,,,,,,,,4,7,79,12,,,,,,,,,main,1,1,2,neutral,negative,j,j,1,0.6150342000182718,317.4940373999998,318.5053417000454,318.4886695999885,None,317.4940373999998,None,317.4940373999998,None,317.4940373999998,None,319.10525907006814,None,319.10525907006814,None,319.10525907006814,None,,,,,,,,,,,,,002,2022-05-04_15h54.16.007,Main,2022.1.1,61.4017528768495,
positive,positive,2,l,j,,,,,,,,,4,8,80,11,,,,,,,,,main,1,1,2,positive,positive,l,l,1,0.7985489000566304,319.11079479998443,320.12197330000345,320.1053127000341,None,319.11079479998443,None,319.11079479998443,None,319.11079479998443,None,320.9052460700157,None,320.9052460700157,None,320.9052460700157,None,,,,,,,,,,,,,002,2022-05-04_15h54.16.007,Main,2022.1.1,61.4017528768495,
positive,negative,1,l,j,,,,,,,,,4,9,81,5,,,,,,,,,main,2,2,1,negative,positive,l,l,1,0.7316983999917284,320.91116590006277,321.9219604000682,321.90534980001394,None,320.91116590006277,None,320.91116590006277,None,320.91116590006277,None,322.63851287007566,None,322.63851287007566,None,322.63851287007566,None,,,,,,,,,,,,,002,2022-05-04_15h54.16.007,Main,2022.1.1,61.4017528768495,
neutral,negative,1,k,k,,,,,,,,,4,10,82,7,,,,,,,,,main,2,2,1,negative,neutral,k,k,1,0.8817067999625579,322.6420488000149,323.6552551999921,323.6385911999969,None,322.6420488000149,None,322.6420488000149,None,322.6420488000149,None,324.52181547008223,None,324.52181547008223,None,324.52181547008223,None,,,,,,,,,,,,,002,2022-05-04_15h54.16.007,Main,2022.1.1,61.4017528768495,
negative,positive,1,j,l,,,,,,,,,4,11,83,6,,,,,,,,,main,2,2,1,positive,negative,j,j,1,1.6813777999486774,324.52772290003486,325.5385421999963,325.5218760999851,None,324.52772290003486,None,324.52772290003486,None,324.52772290003486,None,327.205157599994,None,327.205157599994,None,327.205157599994,None,,,,,,,,,,,,,002,2022-05-04_15h54.16.007,Main,2022.1.1,61.4017528768495,
negative,negative,1,j,l,,,,,,,,,4,12,84,0,,,,,,,,,main,1,1,1,negative,negative,j,j,1,0.8533289000624791,328.2051562999841,329.20512980001513,329.1884637000039,None,328.2051562999841,None,328.2051562999841,None,328.2051562999841,None,330.05500966998517,None,330.05500966998517,None,330.05500966998517,None,,,,,,,,,,,,,002,2022-05-04_15h54.16.007,Main,2022.1.1,61.4017528768495,
neutral,neutral,1,k,k,,,,,,,,,4,13,85,1,,,,,,,,,main,2,2,1,neutral,neutral,k,k,1,0.8313648999901488,330.0609288000269,331.0746485000709,331.05505920003634,None,330.0609288000269,None,330.0609288000269,None,330.0609288000269,None,331.88830457000296,None,331.88830457000296,None,331.88830457000296,None,,,,,,,,,,,,,002,2022-05-04_15h54.16.007,Main,2022.1.1,61.4017528768495,
neutral,neutral,2,k,k,,,,,,,,,4,14,86,10,,,,,,,,,main,1,1,2,neutral,neutral,k,k,1,0.831948300008662,331.89440900005866,332.90503879997414,332.8913213000633,None,331.89440900005866,None,331.89440900005866,None,331.89440900005866,None,333.72169777007076,None,333.72169777007076,None,333.72169777007076,None,,,,,,,,,,,,,002,2022-05-04_15h54.16.007,Main,2022.1.1,61.4017528768495,
positive,neutral,2,l,j,,,,,,,,,4,15,87,17,,,,,,,,,main,2,2,2,neutral,positive,l,l,1,0.8317750999704003,333.725150900078,334.7383318999782,334.72165850002784,None,333.725150900078,None,333.725150900078,None,333.725150900078,None,335.5549228700227,None,335.5549228700227,None,335.5549228700227,None,,,,,,,,,,,,,002,2022-05-04_15h54.16.007,Main,2022.1.1,61.4017528768495,
neutral,positive,1,k,k,,,,,,,,,4,16,88,4,,,,,,,,,main,2,2,1,positive,neutral,k,k,1,0.8482194000389427,335.5605960000539,336.57175240002107,336.5549692000495,None,335.5605960000539,None,335.5605960000539,None,335.5605960000539,None,337.40486847005087,None,337.40486847005087,None,337.40486847005087,None,,,,,,,,,,,,,002,2022-05-04_15h54.16.007,Main,2022.1.1,61.4017528768495,
neutral,negative,2,k,k,,,,,,,,,4,17,89,16,,,,,,,,,main,1,1,2,negative,neutral,k,k,1,0.6984021000098437,337.4105384000577,338.42158740002196,338.4050093999831,None,337.4105384000577,None,337.4105384000577,None,337.4105384000577,None,339.10493487004425,None,339.10493487004425,None,339.10493487004425,None,,,,,,,,,,,,,002,2022-05-04_15h54.16.007,Main,2022.1.1,61.4017528768495,
neutral,neutral,2,k,k,,,,,,,,,5,0,90,10,,,,,,,,,main,1,1,2,neutral,neutral,k,k,1,0.8473824999528006,339.10893190000206,340.1216341999825,340.1049717999995,None,339.10893190000206,None,339.10893190000206,None,339.10893190000206,None,340.95480936999667,None,340.95480936999667,None,340.95480936999667,None,,,,,,,,,,,,,002,2022-05-04_15h54.16.007,Main,2022.1.1,61.4017528768495,
positive,positive,1,l,j,,,,,,,,,5,1,91,2,,,,,,,,,main,2,2,1,positive,positive,l,l,1,0.8150633999612182,340.95839980000164,341.9715315999929,341.95486609998625,None,340.95839980000164,None,340.95839980000164,None,340.95839980000164,None,342.77144307004056,None,342.77144307004056,None,342.77144307004056,None,,,,,,,,,,,,,002,2022-05-04_15h54.16.007,Main,2022.1.1,61.4017528768495,
negative,neutral,1,j,l,,,,,,,,,5,2,92,3,,,,,,,,,main,1,1,1,neutral,negative,j,j,1,0.7825336999958381,342.7769616000587,343.78814129997045,343.7715142000234,None,342.7769616000587,None,342.7769616000587,None,342.7769616000587,None,344.55478387001205,None,344.55478387001205,None,344.55478387001205,None,,,,,,,,,,,,,002,2022-05-04_15h54.16.007,Main,2022.1.1,61.4017528768495,
negative,neutral,2,j,l,,,,,,,,,5,3,93,12,,,,,,,,,main,2,2,2,neutral,negative,j,j,1,0.7975735999643803,344.5609490000643,345.5714594000019,345.5547493000049,None,344.5609490000643,None,344.5609490000643,None,344.5609490000643,None,346.3546818699804,None,346.3546818699804,None,346.3546818699804,None,,,,,,,,,,,,,002,2022-05-04_15h54.16.007,Main,2022.1.1,61.4017528768495,
positive,negative,1,l,j,,,,,,,,,5,4,94,5,,,,,,,,,main,1,1,1,negative,positive,l,l,1,0.932093899929896,346.3599952000659,347.37137619999703,347.3409226000076,None,346.3599952000659,None,346.3599952000659,None,346.3599952000659,None,348.2879732700647,None,348.2879732700647,None,348.2879732700647,None,,,,,,,,,,,,,002,2022-05-04_15h54.16.007,Main,2022.1.1,61.4017528768495,
positive,positive,2,l,j,,,,,,,,,5,5,95,11,,,,,,,,,main,2,2,2,positive,positive,l,l,1,0.7159023000858724,348.29183540004306,349.30469280004036,349.28801350004505,None,348.29183540004306,None,348.29183540004306,None,348.29183540004306,None,350.00461916999194,None,350.00461916999194,None,350.00461916999194,None,,,,,,,,,,,,,002,2022-05-04_15h54.16.007,Main,2022.1.1,61.4017528768495,
neutral,neutral,1,k,k,,,,,,,,,5,6,96,1,,,,,,,,,main,2,2,1,neutral,neutral,k,k,1,0.8137341999681666,350.0087462000083,351.02134300000034,351.00467840000056,None,350.0087462000083,None,350.0087462000083,None,350.0087462000083,None,351.8212892700802,None,351.8212892700802,None,351.8212892700802,None,,,,,,,,,,,,,002,2022-05-04_15h54.16.007,Main,2022.1.1,61.4017528768495,
neutral,positive,2,k,k,,,,,,,,,5,7,97,13,,,,,,,,,main,2,2,2,positive,neutral,k,k,1,0.7489147000014782,351.8268110000063,352.83796909998637,352.82128959998954,None,351.8268110000063,None,351.8268110000063,None,351.8268110000063,None,353.5715823699837,None,353.5715823699837,None,353.5715823699837,None,,,,,,,,,,,,,002,2022-05-04_15h54.16.007,Main,2022.1.1,61.4017528768495,
positive,neutral,2,l,j,,,,,,,,,5,8,98,17,,,,,,,,,main,2,2,2,neutral,positive,l,l,1,0.7313527000369504,353.5781556000002,354.58790649997536,354.57122540008277,None,353.5781556000002,None,353.5781556000002,None,353.5781556000002,None,355.30453756999924,None,355.30453756999924,None,355.30453756999924,None,,,,,,,,,,,,,002,2022-05-04_15h54.16.007,Main,2022.1.1,61.4017528768495,
neutral,negative,1,k,k,,,,,,,,,5,9,99,7,,,,,,,,,main,2,2,1,negative,neutral,k,k,1,0.7649491999763995,355.3081422999967,356.32119539997075,356.3045542000327,None,355.3081422999967,None,355.3081422999967,None,355.3081422999967,None,357.07112087007846,None,357.07112087007846,None,357.07112087007846,None,,,,,,,,,,,,,002,2022-05-04_15h54.16.007,Main,2022.1.1,61.4017528768495,
negative,negative,2,j,l,,,,,,,,,5,10,100,9,,,,,,,,,main,1,1,2,negative,negative,j,j,1,0.9649585000006482,357.07442590000574,358.08786460000556,358.0740447000135,None,357.07442590000574,None,357.07442590000574,None,357.07442590000574,None,359.037756770046,None,359.037756770046,None,359.037756770046,None,,,,,,,,,,,,,002,2022-05-04_15h54.16.007,Main,2022.1.1,61.4017528768495,
positive,negative,2,l,j,,,,,,,,,5,11,101,14,,,,,,,,,main,1,1,2,negative,positive,l,l,1,0.8148048999719322,359.04100019996986,360.0544711999828,360.02126519999,None,359.04100019996986,None,359.04100019996986,None,359.04100019996986,None,360.8543854700518,None,360.8543854700518,None,360.8543854700518,None,,,,,,,,,,,,,002,2022-05-04_15h54.16.007,Main,2022.1.1,61.4017528768495,
neutral,positive,1,k,k,,,,,,,,,5,12,102,4,,,,,,,,,main,2,2,1,positive,neutral,k,k,1,0.7151150000281632,360.87118780007586,361.8710945000639,361.8544345999835,None,360.87118780007586,None,360.87118780007586,None,360.87118780007586,None,362.5709815700655,None,362.5709815700655,None,362.5709815700655,None,,,,,,,,,,,,,002,2022-05-04_15h54.16.007,Main,2022.1.1,61.4017528768495,
positive,neutral,1,l,j,,,,,,,,,5,13,103,8,,,,,,,,,main,2,2,1,neutral,positive,l,l,1,0.7317338000284508,362.5751086000819,363.5877726000035,363.5710408000741,None,362.5751086000819,None,362.5751086000819,None,362.5751086000819,None,364.3042975700344,None,364.3042975700344,None,364.3042975700344,None,,,,,,,,,,,,,002,2022-05-04_15h54.16.007,Main,2022.1.1,61.4017528768495,
negative,positive,1,j,l,,,,,,,,,5,14,104,6,,,,,,,,,main,2,2,1,positive,negative,j,j,1,1.0161588999908417,364.30864310008474,365.321062300005,365.30439579999074,None,364.30864310008474,None,364.30864310008474,None,364.30864310008474,None,366.3209450700204,None,366.3209450700204,None,366.3209450700204,None,,,,,,,,,,,,,002,2022-05-04_15h54.16.007,Main,2022.1.1,61.4017528768495,
neutral,negative,2,k,k,,,,,,,,,5,15,105,16,,,,,,,,,main,2,2,2,negative,neutral,k,k,1,0.7640064000152051,366.32517179998104,367.3376446000766,367.32391280005686,None,366.32517179998104,None,366.32517179998104,None,366.32517179998104,None,368.0875552700716,None,368.0875552700716,None,368.0875552700716,None,,,,,,,,,,,,,002,2022-05-04_15h54.16.007,Main,2022.1.1,61.4017528768495,
negative,negative,1,j,l,,,,,,,,,5,16,106,0,,,,,,,,,main,2,2,1,negative,negative,j,j,1,0.8361625999677926,368.09103040001355,369.10428730002604,369.08761909999885,None,368.09103040001355,None,368.09103040001355,None,368.09103040001355,None,369.9252943700529,None,369.9252943700529,None,369.9252943700529,None,,,,,,,,,,,,,002,2022-05-04_15h54.16.007,Main,2022.1.1,61.4017528768495,
negative,positive,2,j,l,,,,,,,,,5,17,107,15,,,,,,,,,main,1,1,2,positive,negative,j,j,1,0.793686700053513,369.92834169999696,370.93757770000957,370.9209125000052,None,369.92834169999696,None,369.92834169999696,None,369.92834169999696,None,371.7208089700551,None,371.7208089700551,None,371.7208089700551,None,,,,,,,,,,,,,002,2022-05-04_15h54.16.007,Main,2022.1.1,61.4017528768495,
positive,neutral,1,l,j,,,,,,,,,6,0,108,8,,,,,,,,,main,1,1,1,neutral,positive,l,l,1,0.8818575999466702,371.7248038999969,372.7375271000201,372.7208625000203,None,371.7248038999969,None,371.7248038999969,None,371.7248038999969,None,373.6041148699704,None,373.6041148699704,None,373.6041148699704,None,,,,,,,,,,,,,002,2022-05-04_15h54.16.007,Main,2022.1.1,61.4017528768495,
neutral,negative,2,k,k,,,,,,,,,6,1,109,16,,,,,,,,,main,2,2,2,negative,neutral,k,k,1,0.7483183000003919,373.60813349997625,374.6208083999809,374.6042198999785,None,373.60813349997625,None,373.60813349997625,None,373.60813349997625,None,375.35405566998526,None,375.35405566998526,None,375.35405566998526,None,,,,,,,,,,,,,002,2022-05-04_15h54.16.007,Main,2022.1.1,61.4017528768495,
negative,neutral,2,j,l,,,,,,,,,6,2,110,12,,,,,,,,,main,2,2,2,neutral,negative,j,j,1,0.7982190999900922,375.3574787999969,376.35409530007746,376.35409530007746,None,375.3574787999969,None,375.3574787999969,None,375.3574787999969,None,377.1540352699929,None,377.1540352699929,None,377.1540352699929,None,,,,,,,,,,,,,002,2022-05-04_15h54.16.007,Main,2022.1.1,61.4017528768495,
neutral,neutral,2,k,k,,,,,,,,,6,3,111,10,,,,,,,,,main,1,1,2,neutral,neutral,k,k,1,0.8484346000477672,377.15949140000157,378.17075100005604,378.15415209997445,None,377.15949140000157,None,377.15949140000157,None,377.15949140000157,None,379.00401217002656,None,379.00401217002656,None,379.00401217002656,None,,,,,,,,,,,,,002,2022-05-04_15h54.16.007,Main,2022.1.1,61.4017528768495,
neutral,negative,1,k,k,,,,,,,,,6,4,112,7,,,,,,,,,main,1,1,1,negative,neutral,k,k,1,0.7162198000587523,379.00732079998124,380.02078540006187,380.0040573000442,None,379.00732079998124,None,379.00732079998124,None,379.00732079998124,None,380.720605870022,None,380.720605870022,None,380.720605870022,None,,,,,,,,,,,,,002,2022-05-04_15h54.16.007,Main,2022.1.1,61.4017528768495,
positive,positive,2,l,j,,,,,,,,,6,5,113,11,,,,,,,,,main,2,2,2,positive,positive,l,l,1,0.7806386000011116,380.725358900032,381.73739580006804,381.7206654000329,None,380.725358900032,None,380.725358900032,None,380.725358900032,None,382.50391927001766,None,382.50391927001766,None,382.50391927001766,None,,,,,,,,,,,,,002,2022-05-04_15h54.16.007,Main,2022.1.1,61.4017528768495,
positive,positive,1,l,j,,,,,,,,,6,6,114,2,,,,,,,,,main,2,2,1,positive,positive,l,l,1,0.9143459999468178,382.5080353000667,383.5206337000709,383.5039666000521,None,382.5080353000667,None,382.5080353000667,None,382.5080353000667,None,384.42052147003125,None,384.42052147003125,None,384.42052147003125,None,,,,,,,,,,,,,002,2022-05-04_15h54.16.007,Main,2022.1.1,61.4017528768495,
neutral,positive,1,k,k,,,,,,,,,6,7,115,4,,,,,,,,,main,1,1,1,positive,neutral,k,k,1,0.8315474999835715,384.42399869998917,385.43733770004474,385.42345570004545,None,384.42399869998917,None,384.42399869998917,None,384.42399869998917,None,386.25384377002484,None,386.25384377002484,None,386.25384377002484,None,,,,,,,,,,,,,002,2022-05-04_15h54.16.007,Main,2022.1.1,61.4017528768495,
negative,negative,1,j,l,,,,,,,,,6,8,116,0,,,,,,,,,main,2,2,1,negative,negative,j,j,1,0.9318349999375641,386.25949620001484,387.27056159998756,387.25676740007475,None,386.25949620001484,None,386.25949620001484,None,386.25949620001484,None,388.1871193699888,None,388.1871193699888,None,388.1871193699888,None,,,,,,,,,,,,,002,2022-05-04_15h54.16.007,Main,2022.1.1,61.4017528768495,
neutral,positive,2,k,k,,,,,,,,,6,9,117,13,,,,,,,,,main,1,1,2,positive,neutral,k,k,1,0.7814219000283629,388.19277189997956,389.20388970000204,389.1871893000789,None,388.19277189997956,None,388.19277189997956,None,388.19277189997956,None,389.9704174699844,None,389.9704174699844,None,389.9704174699844,None,,,,,,,,,,,,,002,2022-05-04_15h54.16.007,Main,2022.1.1,61.4017528768495,
negative,neutral,1,j,l,,,,,,,,,6,10,118,3,,,,,,,,,main,1,1,1,neutral,negative,j,j,1,0.8315801999997348,389.97365900001023,390.98715050006285,390.9704903999809,None,389.97365900001023,None,389.97365900001023,None,389.97365900001023,None,391.8037201700616,None,391.8037201700616,None,391.8037201700616,None,,,,,,,,,,,,,002,2022-05-04_15h54.16.007,Main,2022.1.1,61.4017528768495,
negative,positive,2,j,l,,,,,,,,,6,11,119,15,,,,,,,,,main,2,2,2,positive,negative,j,j,1,0.8651802999665961,391.8099076000508,392.8205575000029,392.806608300074,None,391.8099076000508,None,391.8099076000508,None,391.8099076000508,None,393.67033857003554,None,393.67033857003554,None,393.67033857003554,None,,,,,,,,,,,,,002,2022-05-04_15h54.16.007,Main,2022.1.1,61.4017528768495,
negative,negative,2,j,l,,,,,,,,,6,12,120,9,,,,,,,,,main,1,1,2,negative,negative,j,j,1,0.6983229999896139,393.67352070007473,394.68705720000435,394.6703977000434,None,393.67352070007473,None,393.67352070007473,None,393.67352070007473,None,395.37030806998956,None,395.37030806998956,None,395.37030806998956,None,,,,,,,,,,,,,002,2022-05-04_15h54.16.007,Main,2022.1.1,61.4017528768495,
negative,positive,1,j,l,,,,,,,,,6,13,121,6,,,,,,,,,main,1,1,1,positive,negative,j,j,1,0.7649939999682829,395.37570700002834,396.3870652000187,396.37036790000275,None,395.37570700002834,None,395.37570700002834,None,395.37570700002834,None,397.13692247007276,None,397.13692247007276,None,397.13692247007276,None,,,,,,,,,,,,,002,2022-05-04_15h54.16.007,Main,2022.1.1,61.4017528768495,
neutral,neutral,1,k,k,,,,,,,,,6,14,122,1,,,,,,,,,main,1,1,1,neutral,neutral,k,k,1,0.8651839999947697,397.1422261000844,398.1536315000849,398.13697530003265,None,397.1422261000844,None,397.1422261000844,None,397.1422261000844,None,399.00356847002405,None,399.00356847002405,None,399.00356847002405,None,,,,,,,,,,,,,002,2022-05-04_15h54.16.007,Main,2022.1.1,61.4017528768495,
positive,negative,2,l,j,,,,,,,,,6,15,123,14,,,,,,,,,main,2,2,2,negative,positive,l,l,1,0.7307199999922886,399.0097718000179,400.0232799000805,400.00360010005534,None,399.0097718000179,None,399.0097718000179,None,399.0097718000179,None,400.73684387003306,None,400.73684387003306,None,400.73684387003306,None,,,,,,,,,,,,,002,2022-05-04_15h54.16.007,Main,2022.1.1,61.4017528768495,
positive,negative,1,l,j,,,,,,,,,6,16,124,5,,,,,,,,,main,2,2,1,negative,positive,l,l,1,0.6642682999372482,400.7411442999728,401.75355610006955,401.7369736999972,None,400.7411442999728,None,400.7411442999728,None,400.7411442999728,None,402.40349547007355,None,402.40349547007355,None,402.40349547007355,None,,,,,,,,,,,,,002,2022-05-04_15h54.16.007,Main,2022.1.1,61.4017528768495,
positive,neutral,2,l,j,,,,,,,,,6,17,125,17,,,,,,,,,main,2,2,2,neutral,positive,l,l,1,0.6983741000294685,402.40726280002855,403.42028319998644,403.4035600000061,None,402.40726280002855,None,402.40726280002855,None,402.40726280002855,None,404.10346507002834,None,404.10346507002834,None,404.10346507002834,None,,,,,,,,,,,,,002,2022-05-04_15h54.16.007,Main,2022.1.1,61.4017528768495,
positive,neutral,1,l,j,,,,,,,,,7,0,126,8,,,,,,,,,main,1,1,1,neutral,positive,l,l,1,0.6482229999965057,404.106930000009,405.1202262999723,405.10352020000573,None,404.106930000009,None,404.106930000009,None,404.106930000009,None,405.753420570062,None,405.753420570062,None,405.753420570062,None,,,,,,,,,,,,,002,2022-05-04_15h54.16.007,Main,2022.1.1,61.4017528768495,
negative,negative,2,j,l,,,,,,,,,7,1,127,9,,,,,,,,,main,2,2,2,negative,negative,j,j,1,0.8316148000303656,405.7565728999907,406.7701321999775,406.75345409999136,None,405.7565728999907,None,405.7565728999907,None,405.7565728999907,None,407.5867051700014,None,407.5867051700014,None,407.5867051700014,None,,,,,,,,,,,,,002,2022-05-04_15h54.16.007,Main,2022.1.1,61.4017528768495,
neutral,neutral,1,k,k,,,,,,,,,7,2,128,1,,,,,,,,,main,1,1,1,neutral,neutral,k,k,1,0.7649982000002638,407.59178120002616,408.60342860000674,408.57020499999635,None,407.59178120002616,None,407.59178120002616,None,407.59178120002616,None,409.3533608700498,None,409.3533608700498,None,409.3533608700498,None,,,,,,,,,,,,,002,2022-05-04_15h54.16.007,Main,2022.1.1,61.4017528768495,
positive,positive,2,l,j,,,,,,,,,7,3,129,11,,,,,,,,,main,2,2,2,positive,positive,l,l,1,0.8318762000417337,409.3595512000611,410.3701348999748,410.35340530006215,None,409.3595512000611,None,409.3595512000611,None,409.3595512000611,None,411.18665996998317,None,411.18665996998317,None,411.18665996998317,None,,,,,,,,,,,,,002,2022-05-04_15h54.16.007,Main,2022.1.1,61.4017528768495,
negative,positive,2,j,l,,,,,,,,,7,4,130,15,,,,,,,,,main,2,2,2,positive,negative,j,j,1,0.8647626000456512,411.19012420007493,412.20337820006534,412.18669990007766,None,411.19012420007493,None,411.19012420007493,None,411.19012420007493,None,413.0532694700058,None,413.0532694700058,None,413.0532694700058,None,,,,,,,,,,,,,002,2022-05-04_15h54.16.007,Main,2022.1.1,61.4017528768495,
negative,neutral,1,j,l,,,,,,,,,7,5,131,3,,,,,,,,,main,2,2,1,neutral,negative,j,j,1,0.7484956999542192,413.0564494000282,414.0700385000091,414.0533292000182,None,413.0564494000282,None,413.0564494000282,None,413.0564494000282,None,414.803227970039,None,414.803227970039,None,414.803227970039,None,,,,,,,,,,,,,002,2022-05-04_15h54.16.007,Main,2022.1.1,61.4017528768495,
neutral,negative,1,k,k,,,,,,,,,7,6,132,7,,,,,,,,,main,2,2,1,negative,neutral,k,k,1,0.8150762999430299,414.80981820006855,415.81995819997974,415.80330270004924,None,414.80981820006855,None,414.80981820006855,None,414.80981820006855,None,416.61985066999915,None,416.61985066999915,None,416.61985066999915,None,,,,,,,,,,,,,002,2022-05-04_15h54.16.007,Main,2022.1.1,61.4017528768495,
positive,positive,1,l,j,,,,,,,,,7,7,133,2,,,,,,,,,main,1,1,1,positive,positive,l,l,1,0.6828603999456391,416.62531300005503,417.63658280007076,417.61990200006403,None,416.62531300005503,None,416.62531300005503,None,416.62531300005503,None,418.30317197007827,None,418.30317197007827,None,418.30317197007827,None,,,,,,,,,,,,,002,2022-05-04_15h54.16.007,Main,2022.1.1,61.4017528768495,
negative,positive,1,j,l,,,,,,,,,7,8,134,6,,,,,,,,,main,1,1,1,positive,negative,j,j,1,0.7972823999589309,418.3072662000777,419.31987950007897,419.30321370007005,None,418.3072662000777,None,418.3072662000777,None,418.3072662000777,None,420.1031261700089,None,420.1031261700089,None,420.1031261700089,None,,,,,,,,,,,,,002,2022-05-04_15h54.16.007,Main,2022.1.1,61.4017528768495,
positive,neutral,2,l,j,,,,,,,,,7,9,135,17,,,,,,,,,main,1,1,2,neutral,positive,l,l,1,0.7152505000121891,420.10866879997775,421.1198433000827,421.1031804999802,None,420.10866879997775,None,420.10866879997775,None,420.10866879997775,None,421.81989787007916,None,421.81989787007916,None,421.81989787007916,None,,,,,,,,,,,,,002,2022-05-04_15h54.16.007,Main,2022.1.1,61.4017528768495,
positive,negative,2,l,j,,,,,,,,,7,10,136,14,,,,,,,,,main,2,2,2,negative,positive,l,l,1,0.7019456999842077,421.8233735000249,422.8226484999759,422.8226484999759,None,421.8233735000249,None,421.8233735000249,None,421.8233735000249,None,423.52363117005444,None,423.52363117005444,None,423.52363117005444,None,,,,,,,,,,,,,002,2022-05-04_15h54.16.007,Main,2022.1.1,61.4017528768495,
neutral,positive,2,k,k,,,,,,,,,7,11,137,13,,,,,,,,,main,1,1,2,positive,neutral,k,k,1,0.7778997001005337,423.52708230004646,424.5364859000547,424.51976809999906,None,423.52708230004646,None,423.52708230004646,None,423.52708230004646,None,425.3030124700279,None,425.3030124700279,None,425.3030124700279,None,,,,,,,,,,,,,002,2022-05-04_15h54.16.007,Main,2022.1.1,61.4017528768495,
negative,neutral,2,j,l,,,,,,,,,7,12,138,12,,,,,,,,,main,2,2,2,neutral,negative,j,j,1,0.7651496999897063,425.30904070008546,426.3197277999716,426.30307500006165,None,425.30904070008546,None,425.30904070008546,None,425.30904070008546,None,427.06974287006307,None,427.06974287006307,None,427.06974287006307,None,,,,,,,,,,,,,002,2022-05-04_15h54.16.007,Main,2022.1.1,61.4017528768495,
negative,negative,1,j,l,,,,,,,,,7,13,139,0,,,,,,,,,main,2,2,1,negative,negative,j,j,1,0.8007035000482574,427.07524759997614,428.0864200000651,428.0696852999972,None,427.07524759997614,None,427.07524759997614,None,427.07524759997614,None,428.871589170082,None,428.871589170082,None,428.871589170082,None,,,,,,,,,,,,,002,2022-05-04_15h54.16.007,Main,2022.1.1,61.4017528768495,
neutral,negative,2,k,k,,,,,,,,,7,14,140,16,,,,,,,,,main,2,2,2,negative,neutral,k,k,1,0.7457678000209853,428.8770059000235,429.8863264999818,429.87262350006495,None,428.8770059000235,None,428.8770059000235,None,428.8770059000235,None,430.61960977002747,None,430.61960977002747,None,430.61960977002747,None,,,,,,,,,,,,,002,2022-05-04_15h54.16.007,Main,2022.1.1,61.4017528768495,
neutral,positive,1,k,k,,,,,,,,,7,15,141,4,,,,,,,,,main,2,2,1,positive,neutral,k,k,1,0.6651300999801606,430.62283360003494,431.6362746000523,431.6196218000259,None,430.62283360003494,None,430.62283360003494,None,430.62283360003494,None,432.28621037002887,None,432.28621037002887,None,432.28621037002887,None,,,,,,,,,,,,,002,2022-05-04_15h54.16.007,Main,2022.1.1,61.4017528768495,
neutral,neutral,2,k,k,,,,,,,,,7,16,142,10,,,,,,,,,main,1,1,2,neutral,neutral,k,k,1,0.7148809999926016,432.28951929998584,433.3029010000173,433.2862874000566,None,432.28951929998584,None,432.28951929998584,None,432.28951929998584,None,434.00281576999697,None,434.00281576999697,None,434.00281576999697,None,,,,,,,,,,,,,002,2022-05-04_15h54.16.007,Main,2022.1.1,61.4017528768495,
positive,negative,1,l,j,,,,,,,,,7,17,143,5,,,,,,,,,main,2,2,1,negative,positive,l,l,1,0.8820415999507532,434.0082722000079,435.0195497000823,435.0029991000192,None,434.0082722000079,None,434.0082722000079,None,434.0082722000079,None,435.8861171699944,None,435.8861171699944,None,435.8861171699944,None,,,,,,,,,,,,,002,2022-05-04_15h54.16.007,Main,2022.1.1,61.4017528768495,
negative,negative,1,j,l,,,,,,,,,8,0,144,0,,,,,,,,,main,1,1,1,negative,negative,j,j,1,0.8646934001008049,435.8898596999934,436.90284760005306,436.8861646000296,None,435.8898596999934,None,435.8898596999934,None,435.8898596999934,None,437.7527396699996,None,437.7527396699996,None,437.7527396699996,None,,,,,,,,,,,,,002,2022-05-04_15h54.16.007,Main,2022.1.1,61.4017528768495,
positive,neutral,2,l,j,,,,,,,,,8,1,145,17,,,,,,,,,main,1,1,2,neutral,positive,l,l,1,0.7484260000055656,437.7580673000775,438.7694485000102,438.7528583999956,None,437.7580673000775,None,437.7580673000775,None,437.7580673000775,None,439.5027119700215,None,439.5027119700215,None,439.5027119700215,None,,,,,,,,,,,,,002,2022-05-04_15h54.16.007,Main,2022.1.1,61.4017528768495,
positive,negative,2,l,j,,,,,,,,,8,2,146,14,,,,,,,,,main,1,1,2,negative,positive,l,l,1,0.6983058999758214,439.50579069997184,440.5027670999989,440.4890592000447,None,439.50579069997184,None,439.50579069997184,None,439.50579069997184,None,441.2026527699898,None,441.2026527699898,None,441.2026527699898,None,,,,,,,,,,,,,002,2022-05-04_15h54.16.007,Main,2022.1.1,61.4017528768495,
neutral,neutral,2,k,k,,,,,,,,,8,3,147,10,,,,,,,,,main,2,2,2,neutral,neutral,k,k,1,0.7484666000818834,441.2062691000756,442.2193989000516,442.2027410999872,None,441.2062691000756,None,441.2062691000756,None,441.2062691000756,None,442.95263377007797,None,442.95263377007797,None,442.95263377007797,None,,,,,,,,,,,,,002,2022-05-04_15h54.16.007,Main,2022.1.1,61.4017528768495,
positive,neutral,1,l,j,,,,,,,,,8,4,148,8,,,,,,,,,main,2,2,1,neutral,positive,l,l,1,0.8316153000341728,442.9558844000567,443.96939460001886,443.95273780007847,None,442.9558844000567,None,442.9558844000567,None,442.9558844000567,None,444.78592397005997,None,444.78592397005997,None,444.78592397005997,None,,,,,,,,,,,,,002,2022-05-04_15h54.16.007,Main,2022.1.1,61.4017528768495,
positive,negative,1,l,j,,,,,,,,,8,5,149,5,,,,,,,,,main,2,2,1,negative,positive,l,l,1,0.6985816999804229,444.7895203999942,445.80263639998157,445.7860396000324,None,444.7895203999942,None,444.7895203999942,None,444.7895203999942,None,446.48592016998447,None,446.48592016998447,None,446.48592016998447,None,,,,,,,,,,,,,002,2022-05-04_15h54.16.007,Main,2022.1.1,61.4017528768495,
positive,positive,2,l,j,,,,,,,,,8,6,150,11,,,,,,,,,main,1,1,2,positive,positive,l,l,1,0.6639642999507487,446.49046400003135,447.5026240000734,447.4859509000089,None,446.49046400003135,None,446.49046400003135,None,446.49046400003135,None,448.15251956997673,None,448.15251956997673,None,448.15251956997673,None,,,,,,,,,,,,,002,2022-05-04_15h54.16.007,Main,2022.1.1,61.4017528768495,
negative,positive,1,j,l,,,,,,,,,8,7,151,6,,,,,,,,,main,1,1,1,positive,negative,j,j,1,0.7481330001028255,448.1558117000386,449.1692529000575,449.1525743000675,None,448.1558117000386,None,448.1558117000386,None,448.1558117000386,None,449.902482670045,None,449.902482670045,None,449.902482670045,None,,,,,,,,,,,,,002,2022-05-04_15h54.16.007,Main,2022.1.1,61.4017528768495,
neutral,positive,2,k,k,,,,,,,,,8,8,152,13,,,,,,,,,main,1,1,2,positive,neutral,k,k,1,0.7317424000939354,449.9193208999932,450.9192139999941,450.90261940006167,None,449.9193208999932,None,449.9193208999932,None,449.9193208999932,None,451.63575897006086,None,451.63575897006086,None,451.63575897006086,None,,,,,,,,,,,,,002,2022-05-04_15h54.16.007,Main,2022.1.1,61.4017528768495,
neutral,positive,1,k,k,,,,,,,,,8,9,153,4,,,,,,,,,main,2,2,1,positive,neutral,k,k,1,0.8984480999642983,451.63983760005794,452.65248900000006,452.6358361999737,None,451.63983760005794,None,451.63983760005794,None,451.63983760005794,None,453.5357528700377,None,453.5357528700377,None,453.5357528700377,None,,,,,,,,,,,,,002,2022-05-04_15h54.16.007,Main,2022.1.1,61.4017528768495,
neutral,neutral,1,k,k,,,,,,,,,8,10,154,1,,,,,,,,,main,2,2,1,neutral,neutral,k,k,1,0.6818238000851125,453.5389479000587,454.552463500062,454.5358706000261,None,453.5389479000587,None,453.5389479000587,None,453.5389479000587,None,455.21904737002916,None,455.21904737002916,None,455.21904737002916,None,,,,,,,,,,,,,002,2022-05-04_15h54.16.007,Main,2022.1.1,61.4017528768495,
negative,neutral,2,j,l,,,,,,,,,8,11,155,12,,,,,,,,,main,2,2,2,neutral,negative,j,j,1,0.7983335999306291,455.2231533000013,456.2357711000368,456.2191029000096,None,455.2231533000013,None,455.2231533000013,None,455.2231533000013,None,457.0190209699911,None,457.0190209699911,None,457.0190209699911,None,,,,,,,,,,,,,002,2022-05-04_15h54.16.007,Main,2022.1.1,61.4017528768495,
neutral,negative,1,k,k,,,,,,,,,8,12,156,7,,,,,,,,,main,1,1,1,negative,neutral,k,k,1,0.7984437000704929,457.0248280999949,458.03583190008067,458.01906640001107,None,457.0248280999949,None,457.0248280999949,None,457.0248280999949,None,458.8189500700799,None,458.8189500700799,None,458.8189500700799,None,,,,,,,,,,,,,002,2022-05-04_15h54.16.007,Main,2022.1.1,61.4017528768495,
positive,positive,1,l,j,,,,,,,,,8,13,157,2,,,,,,,,,main,1,1,1,positive,positive,l,l,1,0.7147312000161037,458.8251729999902,459.8356755999848,459.8190115999896,None,458.8251729999902,None,458.8251729999902,None,458.8251729999902,None,460.53531646997436,None,460.53531646997436,None,460.53531646997436,None,,,,,,,,,,,,,002,2022-05-04_15h54.16.007,Main,2022.1.1,61.4017528768495,
negative,negative,2,j,l,,,,,,,,,8,14,158,9,,,,,,,,,main,2,2,2,negative,negative,j,j,1,0.8991859999950975,460.5525128999725,461.5523301999783,461.53565700002946,None,460.5525128999725,None,460.5525128999725,None,460.5525128999725,None,462.4355686700554,None,462.4355686700554,None,462.4355686700554,None,,,,,,,,,,,,,002,2022-05-04_15h54.16.007,Main,2022.1.1,61.4017528768495,
neutral,negative,2,k,k,,,,,,,,,8,15,159,16,,,,,,,,,main,1,1,2,negative,neutral,k,k,1,0.7312140000285581,462.4394585000118,463.4522937000729,463.4356164999772,None,462.4394585000118,None,462.4394585000118,None,462.4394585000118,None,464.16898516997463,None,464.16898516997463,None,464.16898516997463,None,,,,,,,,,,,,,002,2022-05-04_15h54.16.007,Main,2022.1.1,61.4017528768495,
negative,neutral,1,j,l,,,,,,,,,8,16,160,3,,,,,,,,,main,1,1,1,neutral,negative,j,j,1,0.7650648999260738,464.1724395999918,465.1855828000698,465.16891190002207,None,464.1724395999918,None,464.1724395999918,None,464.1724395999918,None,465.9356692700065,None,465.9356692700065,None,465.9356692700065,None,,,,,,,,,,,,,002,2022-05-04_15h54.16.007,Main,2022.1.1,61.4017528768495,
negative,positive,2,j,l,,,,,,,,,8,17,161,15,,,,,,,,,main,1,1,2,positive,negative,j,j,1,0.7481598999584094,465.9410577000817,466.9522870000219,466.9355986000737,None,465.9410577000817,None,465.9410577000817,None,465.9410577000817,None,467.6854733700282,None,467.6854733700282,None,467.6854733700282,None,,,,,,,,,,,,,002,2022-05-04_15h54.16.007,Main,2022.1.1,61.4017528768495,
positive,negative,2,l,j,,,,,,,,,9,0,162,14,,,,,,,,,main,2,2,2,negative,positive,l,l,1,0.7997050000121817,467.688681300031,468.7021440999815,468.68547720008064,None,467.688681300031,None,467.688681300031,None,467.688681300031,None,469.48542037002045,None,469.48542037002045,None,469.48542037002045,None,,,,,,,,,,,,,002,2022-05-04_15h54.16.007,Main,2022.1.1,61.4017528768495,
neutral,negative,1,k,k,,,,,,,,,9,1,163,7,,,,,,,,,main,2,2,1,negative,neutral,k,k,1,0.7471181000582874,469.49002290004864,470.505042099976,470.4854705000762,None,469.49002290004864,None,469.49002290004864,None,469.49002290004864,None,471.235452070029,None,471.235452070029,None,471.235452070029,None,,,,,,,,,,,,,002,2022-05-04_15h54.16.007,Main,2022.1.1,61.4017528768495,
positive,neutral,1,l,j,,,,,,,,,9,2,164,8,,,,,,,,,main,1,1,1,neutral,positive,l,l,1,0.7817351999692619,471.241829500068,472.2520846000407,472.22160569997504,None,471.241829500068,None,471.241829500068,None,471.241829500068,None,473.01876247000183,None,473.01876247000183,None,473.01876247000183,None,,,,,,,,,,,,,002,2022-05-04_15h54.16.007,Main,2022.1.1,61.4017528768495,
positive,positive,2,l,j,,,,,,,,,9,3,165,11,,,,,,,,,main,2,2,2,positive,positive,l,l,1,0.7149952999316156,473.0224603000097,474.0354634000687,474.021585599985,None,473.0224603000097,None,473.0224603000097,None,473.0224603000097,None,474.73527607008583,None,474.73527607008583,None,474.73527607008583,None,,,,,,,,,,,,,002,2022-05-04_15h54.16.007,Main,2022.1.1,61.4017528768495,
neutral,negative,2,k,k,,,,,,,,,9,4,166,16,,,,,,,,,main,1,1,2,negative,neutral,k,k,1,0.8481823999900371,474.73870099999476,475.75198609998915,475.7353355999803,None,474.73870099999476,None,474.73870099999476,None,474.73870099999476,None,476.58526877000696,None,476.58526877000696,None,476.58526877000696,None,,,,,,,,,,,,,002,2022-05-04_15h54.16.007,Main,2022.1.1,61.4017528768495,
neutral,positive,1,k,k,,,,,,,,,9,5,167,4,,,,,,,,,main,2,2,1,positive,neutral,k,k,1,0.748281600070186,476.5884063000558,477.60198510007467,477.5853105999995,None,476.5884063000558,None,476.5884063000558,None,476.5884063000558,None,478.33519587003394,None,478.33519587003394,None,478.33519587003394,None,,,,,,,,,,,,,002,2022-05-04_15h54.16.007,Main,2022.1.1,61.4017528768495,
positive,neutral,2,l,j,,,,,,,,,9,6,168,17,,,,,,,,,main,2,2,2,neutral,positive,l,l,1,0.8651901000412181,478.3385445000604,479.3519341000356,479.33527140005026,None,478.3385445000604,None,478.3385445000604,None,478.3385445000604,None,480.2018435699982,None,480.2018435699982,None,480.2018435699982,None,,,,,,,,,,,,,002,2022-05-04_15h54.16.007,Main,2022.1.1,61.4017528768495,
negative,positive,1,j,l,,,,,,,,,9,7,169,6,,,,,,,,,main,1,1,1,positive,negative,j,j,1,0.8314803000539541,480.2053104999941,481.21856050007045,481.201906900038,None,480.2053104999941,None,480.2053104999941,None,480.2053104999941,None,482.035199370014,None,482.035199370014,None,482.035199370014,None,,,,,,,,,,,,,002,2022-05-04_15h54.16.007,Main,2022.1.1,61.4017528768495,
negative,negative,1,j,l,,,,,,,,,9,8,170,0,,,,,,,,,main,2,2,1,negative,negative,j,j,1,0.8317794000031427,482.0383119999897,483.0518483000342,483.0351773999864,None,482.0383119999897,None,482.0383119999897,None,482.0383119999897,None,483.86841737002834,None,483.86841737002834,None,483.86841737002834,None,,,,,,,,,,,,,002,2022-05-04_15h54.16.007,Main,2022.1.1,61.4017528768495,
neutral,neutral,2,k,k,,,,,,,,,9,9,171,10,,,,,,,,,main,1,1,2,neutral,neutral,k,k,1,0.6831203999463469,483.87163279997185,484.8880432000151,484.8684689999791,None,483.87163279997185,None,483.87163279997185,None,483.87163279997185,None,485.55174127001084,None,485.55174127001084,None,485.55174127001084,None,,,,,,,,,,,,,002,2022-05-04_15h54.16.007,Main,2022.1.1,61.4017528768495,
neutral,neutral,1,k,k,,,,,,,,,9,10,172,1,,,,,,,,,main,2,2,1,neutral,neutral,k,k,1,0.7803438000846654,485.5562604999868,486.5685205999762,486.5517822999973,None,485.5562604999868,None,485.5562604999868,None,485.5562604999868,None,487.335006369988,None,487.335006369988,None,487.335006369988,None,,,,,,,,,,,,,002,2022-05-04_15h54.16.007,Main,2022.1.1,61.4017528768495,
negative,neutral,2,j,l,,,,,,,,,9,11,173,12,,,,,,,,,main,2,2,2,neutral,negative,j,j,1,0.8984338999725878,487.33851220004726,488.354680199991,488.33801439998206,None,487.33851220004726,None,487.33851220004726,None,487.33851220004726,None,489.2350874700467,None,489.2350874700467,None,489.2350874700467,None,,,,,,,,,,,,,002,2022-05-04_15h54.16.007,Main,2022.1.1,61.4017528768495,
negative,positive,2,j,l,,,,,,,,,9,12,174,15,,,,,,,,,main,2,2,2,positive,negative,j,j,1,0.7660049999831244,489.2393345000455,490.2517632000381,490.2350495000137,None,489.2393345000455,None,489.2393345000455,None,489.2393345000455,None,491.001599770051,None,491.001599770051,None,491.001599770051,None,,,,,,,,,,,,,002,2022-05-04_15h54.16.007,Main,2022.1.1,61.4017528768495,
neutral,positive,2,k,k,,,,,,,,,9,13,175,13,,,,,,,,,main,2,2,2,positive,neutral,k,k,1,0.7972999999765307,491.01093260000926,492.0183457999956,492.0016776000848,None,491.01093260000926,None,491.01093260000926,None,491.01093260000926,None,492.80154096999905,None,492.80154096999905,None,492.80154096999905,None,,,,,,,,,,,,,002,2022-05-04_15h54.16.007,Main,2022.1.1,61.4017528768495,
negative,neutral,1,j,l,,,,,,,,,9,14,176,3,,,,,,,,,main,2,2,1,neutral,negative,j,j,1,0.8152412000345066,492.80722010007594,493.81840059999377,493.80164060008246,None,492.80722010007594,None,492.80722010007594,None,492.80722010007594,None,494.61826727004956,None,494.61826727004956,None,494.61826727004956,None,,,,,,,,,,,,,002,2022-05-04_15h54.16.007,Main,2022.1.1,61.4017528768495,
positive,positive,1,l,j,,,,,,,,,9,15,177,2,,,,,,,,,main,1,1,1,positive,positive,l,l,1,1.1147029999410734,494.62420530000236,495.6349265000317,495.61825930001214,None,494.62420530000236,None,494.62420530000236,None,494.62420530000236,None,496.7348323700833,None,496.7348323700833,None,496.7348323700833,None,,,,,,,,,,,,,002,2022-05-04_15h54.16.007,Main,2022.1.1,61.4017528768495,
positive,negative,1,l,j,,,,,,,,,9,16,178,5,,,,,,,,,main,1,1,1,negative,positive,l,l,1,0.7152516000205651,496.7382481000386,497.7515401999699,497.73488410003483,None,496.7382481000386,None,496.7382481000386,None,496.7382481000386,None,498.45149126999314,None,498.45149126999314,None,498.45149126999314,None,,,,,,,,,,,,,002,2022-05-04_15h54.16.007,Main,2022.1.1,61.4017528768495,
negative,negative,2,j,l,,,,,,,,,9,17,179,9,,,,,,,,,main,1,1,2,negative,negative,j,j,1,0.8146361999679357,498.455060300068,499.46822799998336,499.4515103000449,None,498.455060300068,None,498.455060300068,None,498.455060300068,None,500.26808946999955,None,500.26808946999955,None,500.26808946999955,None,,,,,,,,,,,,,002,2022-05-04_15h54.16.007,Main,2022.1.1,61.4017528768495,
positive,negative,1,l,j,,,,,,,,,10,0,180,5,,,,,,,,,main,1,1,1,negative,positive,l,l,1,0.9318485000403598,500.2713970000623,501.28478119999636,501.2681176000042,None,500.2713970000623,None,500.2713970000623,None,500.2713970000623,None,502.2013501700829,None,502.2013501700829,None,502.2013501700829,None,,,,,,,,,,,,,002,2022-05-04_15h54.16.007,Main,2022.1.1,61.4017528768495,
negative,positive,1,j,l,,,,,,,,,10,1,181,6,,,,,,,,,main,1,1,1,positive,negative,j,j,1,0.7816204999107867,502.2052261000499,503.2180872000754,503.2014348000521,None,502.2052261000499,None,502.2052261000499,None,502.2052261000499,None,503.9847007700126,None,503.9847007700126,None,503.9847007700126,None,,,,,,,,,,,,,002,2022-05-04_15h54.16.007,Main,2022.1.1,61.4017528768495,
neutral,positive,2,k,k,,,,,,,,,10,2,182,13,,,,,,,,,main,2,2,2,positive,neutral,k,k,1,0.9357860999880359,503.9882373000728,505.0013651000336,504.9846950999927,None,503.9882373000728,None,503.9882373000728,None,503.9882373000728,None,505.9179298699717,None,505.9179298699717,None,505.9179298699717,None,,,,,,,,,,,,,002,2022-05-04_15h54.16.007,Main,2022.1.1,61.4017528768495,
negative,negative,1,j,l,,,,,,,,,10,3,183,0,,,,,,,,,main,1,1,1,negative,negative,j,j,1,0.9441149000776932,505.92590480006766,506.9346954000648,506.9179880999727,None,505.92590480006766,None,505.92590480006766,None,505.92590480006766,None,507.8678963700193,None,507.8678963700193,None,507.8678963700193,None,,,,,,,,,,,,,002,2022-05-04_15h54.16.007,Main,2022.1.1,61.4017528768495,
negative,positive,2,j,l,,,,,,,,,10,4,184,15,,,,,,,,,main,2,2,2,positive,negative,j,j,1,0.7818909999914467,507.87373500003014,508.88466330000665,508.8679639999755,None,507.87373500003014,None,507.87373500003014,None,507.87373500003014,None,509.65122647002573,None,509.65122647002573,None,509.65122647002573,None,,,,,,,,,,,,,002,2022-05-04_15h54.16.007,Main,2022.1.1,61.4017528768495,
positive,positive,2,l,j,,,,,,,,,10,5,185,11,,,,,,,,,main,1,1,2,positive,positive,l,l,1,0.7982216000091285,509.65723870007787,510.6679377000546,510.65125720005017,None,509.65723870007787,None,509.65723870007787,None,509.65723870007787,None,511.4513086699997,None,511.4513086699997,None,511.4513086699997,None,,,,,,,,,,,,,002,2022-05-04_15h54.16.007,Main,2022.1.1,61.4017528768495,
negative,negative,2,j,l,,,,,,,,,10,6,186,9,,,,,,,,,main,1,1,2,negative,negative,j,j,1,0.6981158000417054,511.454789099982,512.4679014000576,512.4512275999878,None,511.454789099982,None,511.454789099982,None,511.454789099982,None,513.1511700700619,None,513.1511700700619,None,513.1511700700619,None,,,,,,,,,,,,,002,2022-05-04_15h54.16.007,Main,2022.1.1,61.4017528768495,
positive,positive,1,l,j,,,,,,,,,10,7,187,2,,,,,,,,,main,2,2,1,positive,positive,l,l,1,0.7651275999378413,513.1546090000775,514.1678781000664,514.1511988000711,None,513.1546090000775,None,513.1546090000775,None,513.1546090000775,None,514.9177442700718,None,514.9177442700718,None,514.9177442700718,None,,,,,,,,,,,,,002,2022-05-04_15h54.16.007,Main,2022.1.1,61.4017528768495,
neutral,neutral,1,k,k,,,,,,,,,10,8,188,1,,,,,,,,,main,2,2,1,neutral,neutral,k,k,1,0.8316644000587985,514.9212070000358,515.9344812000636,515.9178128000349,None,514.9212070000358,None,514.9212070000358,None,514.9212070000358,None,516.7511952699977,None,516.7511952699977,None,516.7511952699977,None,,,,,,,,,,,,,002,2022-05-04_15h54.16.007,Main,2022.1.1,61.4017528768495,
negative,neutral,1,j,l,,,,,,,,,10,9,189,3,,,,,,,,,main,2,2,1,neutral,negative,j,j,1,0.9307069000788033,516.7573164000642,517.7707094000652,517.7511179000139,None,516.7573164000642,None,516.7573164000642,None,516.7573164000642,None,518.6843688699998,None,518.6843688699998,None,518.6843688699998,None,,,,,,,,,,,,,002,2022-05-04_15h54.16.007,Main,2022.1.1,61.4017528768495,
neutral,negative,2,k,k,,,,,,,,,10,10,190,16,,,,,,,,,main,1,1,2,negative,neutral,k,k,1,0.7985717999981716,518.6872187000699,519.7011781000765,519.6873503000243,None,518.6872187000699,None,518.6872187000699,None,518.6872187000699,None,520.4843732700799,None,520.4843732700799,None,520.4843732700799,None,,,,,,,,,,,,,002,2022-05-04_15h54.16.007,Main,2022.1.1,61.4017528768495,
negative,neutral,2,j,l,,,,,,,,,10,11,191,12,,,,,,,,,main,1,1,2,neutral,negative,j,j,1,0.9313715000171214,520.4877119000303,521.5011470000027,521.4843619000167,None,520.4877119000303,None,520.4877119000303,None,520.4877119000303,None,522.4176690700813,None,522.4176690700813,None,522.4176690700813,None,,,,,,,,,,,,,002,2022-05-04_15h54.16.007,Main,2022.1.1,61.4017528768495,
positive,negative,2,l,j,,,,,,,,,10,12,192,14,,,,,,,,,main,2,2,2,negative,positive,l,l,1,0.7663331999210641,522.4344801000552,523.4372386999894,523.4206141000614,None,522.4344801000552,None,522.4344801000552,None,522.4344801000552,None,524.1842419700813,None,524.1842419700813,None,524.1842419700813,None,,,,,,,,,,,,,002,2022-05-04_15h54.16.007,Main,2022.1.1,61.4017528768495,
neutral,neutral,2,k,k,,,,,,,,,10,13,193,10,,,,,,,,,main,2,2,2,neutral,neutral,k,k,1,0.8139442000538111,524.1883862999966,525.2009425000288,525.1842632000335,None,524.1883862999966,None,524.1883862999966,None,524.1883862999966,None,526.0008451700094,None,526.0008451700094,None,526.0008451700094,None,,,,,,,,,,,,,002,2022-05-04_15h54.16.007,Main,2022.1.1,61.4017528768495,
neutral,negative,1,k,k,,,,,,,,,10,14,194,7,,,,,,,,,main,1,1,1,negative,neutral,k,k,1,0.7816981000360101,526.0043006000342,527.0175762000727,527.0009051000234,None,526.0043006000342,None,526.0043006000342,None,526.0043006000342,None,527.7841580700012,None,527.7841580700012,None,527.7841580700012,None,,,,,,,,,,,,,002,2022-05-04_15h54.16.007,Main,2022.1.1,61.4017528768495,
positive,neutral,2,l,j,,,,,,,,,10,15,195,17,,,,,,,,,main,2,2,2,neutral,positive,l,l,1,0.7488185999682173,527.7898273000028,528.8008841000265,528.7841991999885,None,527.7898273000028,None,527.7898273000028,None,527.7898273000028,None,529.534401469992,None,529.534401469992,None,529.534401469992,None,,,,,,,,,,,,,002,2022-05-04_15h54.16.007,Main,2022.1.1,61.4017528768495,
neutral,positive,1,k,k,,,,,,,,,10,16,196,4,,,,,,,,,main,2,2,1,positive,neutral,k,k,1,1.0820016999496147,529.5381211000495,530.5508585000644,530.5341770000523,None,529.5381211000495,None,529.5381211000495,None,529.5381211000495,None,531.6173772700247,None,531.6173772700247,None,531.6173772700247,None,,,,,,,,,,,,,002,2022-05-04_15h54.16.007,Main,2022.1.1,61.4017528768495,
positive,neutral,1,l,j,,,,,,,,,10,17,197,8,,,,,,,,,main,2,2,1,neutral,positive,l,l,1,0.7476198999211192,531.621474500047,532.6341941000428,532.6174805000192,None,531.621474500047,None,531.621474500047,None,531.621474500047,None,533.367381770059,None,533.367381770059,None,533.367381770059,None,,,,,,,,,,,,,002,2022-05-04_15h54.16.007,Main,2022.1.1,61.4017528768495,
neutral,neutral,2,k,k,,,,,,,,,11,0,198,10,,,,,,,,,main,1,1,2,neutral,neutral,k,k,1,0.6816864999709651,533.3705800999887,534.3841008000309,534.3708427000092,None,533.3705800999887,None,533.3705800999887,None,533.3705800999887,None,535.0507820700411,None,535.0507820700411,None,535.0507820700411,None,,,,,,,,,,,,,002,2022-05-04_15h54.16.007,Main,2022.1.1,61.4017528768495,
neutral,negative,2,k,k,,,,,,,,,11,1,199,16,,,,,,,,,main,1,1,2,negative,neutral,k,k,1,0.6481742999749258,535.0551181000192,536.0674057999859,536.0507126000011,None,535.0551181000192,None,535.0551181000192,None,535.0551181000192,None,536.7006502699921,None,536.7006502699921,None,536.7006502699921,None,,,,,,,,,,,,,002,2022-05-04_15h54.16.007,Main,2022.1.1,61.4017528768495,
neutral,positive,2,k,k,,,,,,,,,11,2,200,13,,,,,,,,,main,1,1,2,positive,neutral,k,k,1,0.7481141000753269,536.704404600081,537.7174164999742,537.7007021000609,None,536.704404600081,None,536.704404600081,None,536.704404600081,None,538.450613970065,None,538.450613970065,None,538.450613970065,None,,,,,,,,,,,,,002,2022-05-04_15h54.16.007,Main,2022.1.1,61.4017528768495,
positive,positive,2,l,j,,,,,,,,,11,3,201,11,,,,,,,,,main,2,2,2,positive,positive,l,l,1,0.7317546000704169,538.4541160999797,539.4673004000215,539.4507274000207,None,538.4541160999797,None,538.4541160999797,None,538.4541160999797,None,540.1838749700808,None,540.1838749700808,None,540.1838749700808,None,,,,,,,,,,,,,002,2022-05-04_15h54.16.007,Main,2022.1.1,61.4017528768495,
negative,negative,1,j,l,,,,,,,,,11,4,202,0,,,,,,,,,main,2,2,1,negative,negative,j,j,1,0.8325299000134692,540.1895749000832,541.200600799988,541.1868923000293,None,540.1895749000832,None,540.1895749000832,None,540.1895749000832,None,542.0171704699867,None,542.0171704699867,None,542.0171704699867,None,,,,,,,,,,,,,002,2022-05-04_15h54.16.007,Main,2022.1.1,61.4017528768495,
positive,neutral,2,l,j,,,,,,,,,11,5,203,17,,,,,,,,,main,2,2,2,neutral,positive,l,l,1,0.7479150999570265,542.023662700085,543.033905700082,543.01723950007,None,542.023662700085,None,542.023662700085,None,542.023662700085,None,543.7671689699753,None,543.7671689699753,None,543.7671689699753,None,,,,,,,,,,,,,002,2022-05-04_15h54.16.007,Main,2022.1.1,61.4017528768495,
neutral,negative,1,k,k,,,,,,,,,11,6,204,7,,,,,,,,,main,2,2,1,negative,neutral,k,k,1,0.6808695000363514,543.7840286999708,544.7843006000621,544.7672120999778,None,543.7840286999708,None,543.7840286999708,None,543.7840286999708,None,545.450197370036,None,545.450197370036,None,545.450197370036,None,,,,,,,,,,,,,002,2022-05-04_15h54.16.007,Main,2022.1.1,61.4017528768495,
negative,neutral,1,j,l,,,,,,,,,11,7,205,3,,,,,,,,,main,2,2,1,neutral,negative,j,j,1,0.848503699991852,545.4544893000275,546.4671735999873,546.4505177000538,None,545.4544893000275,None,545.4544893000275,None,545.4544893000275,None,547.3004006700473,None,547.3004006700473,None,547.3004006700473,None,,,,,,,,,,,,,002,2022-05-04_15h54.16.007,Main,2022.1.1,61.4017528768495,
negative,positive,2,j,l,,,,,,,,,11,8,206,15,,,,,,,,,main,2,2,2,positive,negative,j,j,1,1.5318315000040457,547.3043561000377,548.3171104000648,548.3004437000491,None,547.3043561000377,None,547.3043561000377,None,547.3043561000377,None,549.8338954000501,None,549.8338954000501,None,549.8338954000501,None,,,,,,,,,,,,,002,2022-05-04_15h54.16.007,Main,2022.1.1,61.4017528768495,
positive,negative,1,l,j,,,,,,,,,11,9,207,5,,,,,,,,,main,1,1,1,negative,positive,l,l,1,0.7702351999469101,550.8338001000229,551.8337789999787,551.8170687999809,None,550.8338001000229,None,550.8338001000229,None,550.8338001000229,None,552.6003061700728,None,552.6003061700728,None,552.6003061700728,None,,,,,,,,,,,,,002,2022-05-04_15h54.16.007,Main,2022.1.1,61.4017528768495,
neutral,neutral,1,k,k,,,,,,,,,11,10,208,1,,,,,,,,,main,1,1,1,neutral,neutral,k,k,1,0.7812640001066029,552.6037759999745,553.617021300015,553.6003467000555,None,552.6037759999745,None,552.6037759999745,None,552.6037759999745,None,554.3835971700144,None,554.3835971700144,None,554.3835971700144,None,,,,,,,,,,,,,002,2022-05-04_15h54.16.007,Main,2022.1.1,61.4017528768495,
negative,neutral,2,j,l,,,,,,,,,11,11,209,12,,,,,,,,,main,2,2,2,neutral,negative,j,j,1,0.7974435000214726,554.3883314999985,555.4003196000122,555.3837280999869,None,554.3883314999985,None,554.3883314999985,None,554.3883314999985,None,556.1835393700865,None,556.1835393700865,None,556.1835393700865,None,,,,,,,,,,,,,002,2022-05-04_15h54.16.007,Main,2022.1.1,61.4017528768495,
negative,positive,1,j,l,,,,,,,,,11,12,210,6,,,,,,,,,main,1,1,1,positive,negative,j,j,1,0.8151490999152884,556.1891245000297,557.2002644999884,557.1835954000708,None,556.1891245000297,None,556.1891245000297,None,556.1891245000297,None,558.0002886700793,None,558.0002886700793,None,558.0002886700793,None,,,,,,,,,,,,,002,2022-05-04_15h54.16.007,Main,2022.1.1,61.4017528768495,
neutral,positive,1,k,k,,,,,,,,,11,13,211,4,,,,,,,,,main,2,2,1,positive,neutral,k,k,1,0.8650811999104917,558.0059847000521,559.0170030000154,559.0002236000728,None,558.0059847000521,None,558.0059847000521,None,558.0059847000521,None,559.8668240700033,None,559.8668240700033,None,559.8668240700033,None,,,,,,,,,,,,,002,2022-05-04_15h54.16.007,Main,2022.1.1,61.4017528768495,
positive,neutral,1,l,j,,,,,,,,,11,14,212,8,,,,,,,,,main,2,2,1,neutral,positive,l,l,1,0.631601299974136,559.8703314000741,560.8668633999769,560.8668633999769,None,559.8703314000741,None,559.8703314000741,None,559.8703314000741,None,561.5001131700235,None,561.5001131700235,None,561.5001131700235,None,,,,,,,,,,,,,002,2022-05-04_15h54.16.007,Main,2022.1.1,61.4017528768495,
positive,negative,2,l,j,,,,,,,,,11,15,213,14,,,,,,,,,main,2,2,2,negative,positive,l,l,1,0.6981349000707269,561.5036150000524,562.5168302999809,562.5001796999713,None,561.5036150000524,None,561.5036150000524,None,561.5036150000524,None,563.2000584700261,None,563.2000584700261,None,563.2000584700261,None,,,,,,,,,,,,,002,2022-05-04_15h54.16.007,Main,2022.1.1,61.4017528768495,
negative,negative,2,j,l,,,,,,,,,11,16,214,9,,,,,,,,,main,2,2,2,negative,negative,j,j,1,0.8984053999884054,563.2031381999841,564.2167668000329,564.2030261000618,None,563.2031381999841,None,563.2031381999841,None,563.2031381999841,None,565.1000082700164,None,565.1000082700164,None,565.1000082700164,None,,,,,,,,,,,,,002,2022-05-04_15h54.16.007,Main,2022.1.1,61.4017528768495,
positive,positive,1,l,j,,,,,,,,,11,17,215,2,,,,,,,,,main,1,1,1,positive,positive,l,l,1,0.8318732999032363,565.1052832000423,566.1168203999987,566.1000670000212,None,565.1052832000423,None,565.1052832000423,None,565.1052832000423,None,566.933328869997,None,566.933328869997,None,566.933328869997,None,,,,,,,,,,,,,002,2022-05-04_15h54.16.007,Main,2022.1.1,61.4017528768495,
positive,positive,2,l,j,,,,,,,,,12,0,216,11,,,,,,,,,main,2,2,2,positive,positive,l,l,1,0.6651274999603629,566.9366863999749,567.9500423000427,567.93339130003,None,566.9366863999749,None,566.9366863999749,None,566.9366863999749,None,568.5999681700603,None,568.5999681700603,None,568.5999681700603,None,,,,,,,,,,,,,002,2022-05-04_15h54.16.007,Main,2022.1.1,61.4017528768495,
negative,neutral,1,j,l,,,,,,,,,12,1,217,3,,,,,,,,,main,2,2,1,neutral,negative,j,j,1,0.7982266000472009,568.6036003000336,569.6166804999812,569.6000158999814,None,568.6036003000336,None,568.6036003000336,None,568.6036003000336,None,570.3999534699949,None,570.3999534699949,None,570.3999534699949,None,,,,,,,,,,,,,002,2022-05-04_15h54.16.007,Main,2022.1.1,61.4017528768495,
positive,neutral,1,l,j,,,,,,,,,12,2,218,8,,,,,,,,,main,1,1,1,neutral,positive,l,l,1,0.7647017000708729,570.4055059000384,571.416705599986,571.4028389999876,None,570.4055059000384,None,570.4055059000384,None,570.4055059000384,None,572.1665370700764,None,572.1665370700764,None,572.1665370700764,None,,,,,,,,,,,,,002,2022-05-04_15h54.16.007,Main,2022.1.1,61.4017528768495,
negative,negative,2,j,l,,,,,,,,,12,3,219,9,,,,,,,,,main,1,1,2,negative,negative,j,j,1,0.8308890000917017,572.1706009000773,573.1832506000064,573.166595900082,None,572.1706009000773,None,572.1706009000773,None,572.1706009000773,None,573.9998311699717,None,573.9998311699717,None,573.9998311699717,None,,,,,,,,,,,,,002,2022-05-04_15h54.16.007,Main,2022.1.1,61.4017528768495,
negative,neutral,2,j,l,,,,,,,,,12,4,220,12,,,,,,,,,main,2,2,2,neutral,negative,j,j,1,0.6816547000780702,574.0033281000797,575.0165360000683,574.9998904999811,None,574.0033281000797,None,574.0033281000797,None,574.0033281000797,None,575.6831509700394,None,575.6831509700394,None,575.6831509700394,None,,,,,,,,,,,,,002,2022-05-04_15h54.16.007,Main,2022.1.1,61.4017528768495,
positive,negative,1,l,j,,,,,,,,,12,5,221,5,,,,,,,,,main,1,1,1,negative,positive,l,l,1,0.7486475999467075,575.6865156000713,576.6998644000851,576.6833089999855,None,575.6865156000713,None,575.6865156000713,None,575.6865156000713,None,577.4330812699743,None,577.4330812699743,None,577.4330812699743,None,,,,,,,,,,,,,002,2022-05-04_15h54.16.007,Main,2022.1.1,61.4017528768495,
positive,negative,2,l,j,,,,,,,,,12,6,222,14,,,,,,,,,main,2,2,2,negative,positive,l,l,1,0.6825194000266492,577.437133200001,578.449863600079,578.4331655000569,None,577.437133200001,None,577.437133200001,None,577.437133200001,None,579.1164745700196,None,579.1164745700196,None,579.1164745700196,None,,,,,,,,,,,,,002,2022-05-04_15h54.16.007,Main,2022.1.1,61.4017528768495,
negative,positive,2,j,l,,,,,,,,,12,7,223,15,,,,,,,,,main,1,1,2,positive,negative,j,j,1,0.8345891999779269,579.1206289000111,580.1331740000751,580.1164387000026,None,579.1206289000111,None,579.1206289000111,None,579.1206289000111,None,580.949691670027,None,580.949691670027,None,580.949691670027,None,,,,,,,,,,,,,002,2022-05-04_15h54.16.007,Main,2022.1.1,61.4017528768495,
neutral,neutral,2,k,k,,,,,,,,,12,8,224,10,,,,,,,,,main,2,2,2,neutral,neutral,k,k,1,0.8600686000427231,580.9627734000096,581.966419900069,581.9497521000449,None,580.9627734000096,None,580.9627734000096,None,580.9627734000096,None,582.816318470065,None,582.816318470065,None,582.816318470065,None,,,,,,,,,,,,,002,2022-05-04_15h54.16.007,Main,2022.1.1,61.4017528768495,
neutral,positive,2,k,k,,,,,,,,,12,9,225,13,,,,,,,,,main,2,2,2,positive,neutral,k,k,1,0.8143052000086755,582.8207003000425,583.8330338000087,583.8163814999862,None,582.8207003000425,None,582.8207003000425,None,582.8207003000425,None,584.6329533700016,None,584.6329533700016,None,584.6329533700016,None,,,,,,,,,,,,,002,2022-05-04_15h54.16.007,Main,2022.1.1,61.4017528768495,
