target,distractor,set,ans1,ans2,rep_loop2.thisRepN,rep_loop2.thisTrialN,rep_loop2.thisN,rep_loop2.thisIndex,flanker_prac_loop.thisRepN,flanker_prac_loop.thisTrialN,flanker_prac_loop.thisN,flanker_prac_loop.thisIndex,flanker_main_loop.thisRepN,flanker_main_loop.thisTrialN,flanker_main_loop.thisN,flanker_main_loop.thisIndex,fl_inst_resp.keys,fl_inst_resp.rt,sound_1.started,sound_1.stopped,image_4.started,image_4.stopped,back_2.started,back_2.stopped,main_prac,fl_cold,fl_colt,fl_set,fl_dcond,fl_tcond,fl_ans,fl_res,fl_corr,fl_rt,fix_fl.started,fix_fl.stopped,targ.started,targ.stopped,j_button.started,j_button.stopped,k_button.started,k_button.stopped,l_button.started,l_button.stopped,j_button2.started,j_button2.stopped,k_button2.started,k_button2.stopped,l_button2.started,l_button2.stopped,mainback.started,mainback.stopped,key_resp.keys,mouse_6.x,mouse_6.y,mouse_6.leftButton,mouse_6.midButton,mouse_6.rightButton,mouse_6.started,mouse_6.stopped,text_2.started,text_2.stopped,id*,date,expName,psychopyVersion,frameRate,
,,,,,0,0,0,0,,,,,,,,,space,64.61895879998337,17.953059640002902,None,82.6017493000254,None,,,,,,,,,,,,,,,,,,,,,,,,,,,,,,,,,,,,,,,,,003,2022-05-05_17h26.19.882,Main,2022.1.1,59.99912403405818,
positive,neutral,1,l,j,,,,,0,0,0,8,,,,,,,,,,,95.05142999999225,None,prac,2,2,1,neutral,positive,j,j,1,1.861353899934329,97.07712160004303,98.08748660003766,98.06804100004956,None,97.07712160004303,None,97.07712160004303,None,97.07712160004303,None,99.93528770003468,None,99.93528770003468,None,99.93528770003468,None,,,,,,,,,,,,,003,2022-05-05_17h26.19.882,Main,2022.1.1,59.99912403405818,
negative,negative,1,j,l,,,,,0,1,1,0,,,,,,,,,,,,,prac,1,1,1,negative,negative,l,l,1,2.003683099988848,100.9382842000341,101.95127149997279,101.91794189997017,None,100.9382842000341,None,100.9382842000341,None,100.9382842000341,None,103.93460300005972,None,103.93460300005972,None,103.93460300005972,None,,,,,,,,,,,,,003,2022-05-05_17h26.19.882,Main,2022.1.1,59.99912403405818,
negative,positive,2,j,l,,,,,0,2,2,15,,,,,,,,,,,,,prac,2,2,2,positive,negative,l,l,1,1.0199781999690458,104.93468489998486,105.93455510004424,105.91787910007406,None,104.93468489998486,None,104.93468489998486,None,104.93468489998486,None,106.95129304005532,None,106.95129304005532,None,106.95129304005532,None,,,,,,,,,,,,,003,2022-05-05_17h26.19.882,Main,2022.1.1,59.99912403405818,
positive,neutral,2,l,j,,,,,0,3,3,17,,,,,,,,,,,,,prac,2,2,2,neutral,positive,j,j,1,0.8811026000184938,106.96786009997595,107.96796190005261,107.95116860000417,None,106.96786009997595,None,106.96786009997595,None,106.96786009997595,None,108.83430354004959,None,108.83430354004959,None,108.83430354004959,None,,,,,,,,,,,,,003,2022-05-05_17h26.19.882,Main,2022.1.1,59.99912403405818,
neutral,neutral,1,k,k,,,,,0,4,4,1,,,,,,,,,,,,,prac,2,2,1,neutral,neutral,k,k,1,0.9155900999903679,108.83996230002958,109.8511311999755,109.83447200001683,None,108.83996230002958,None,108.83996230002958,None,108.83996230002958,None,110.75109143996379,None,110.75109143996379,None,110.75109143996379,None,,,,,,,,,,,,,003,2022-05-05_17h26.19.882,Main,2022.1.1,59.99912403405818,
negative,neutral,2,j,l,,,,,0,5,5,12,,,,,,,,,,,,,prac,2,2,2,neutral,negative,l,l,1,0.9486654000356793,110.75423019996379,111.76773510000203,111.75107920006849,None,110.75423019996379,None,110.75423019996379,None,110.75423019996379,None,112.7010581400129,None,112.7010581400129,None,112.7010581400129,None,,,,,,,,,,,,,003,2022-05-05_17h26.19.882,Main,2022.1.1,59.99912403405818,
neutral,positive,2,k,k,,,,,0,6,6,13,,,,,,,,,,,,,prac,2,2,2,positive,neutral,k,k,1,1.0654903000686318,112.70425890001934,113.717717200052,113.7011398000177,None,112.70425890001934,None,112.70425890001934,None,112.70425890001934,None,114.7677580399788,None,114.7677580399788,None,114.7677580399788,None,,,,,,,,,,,,,003,2022-05-05_17h26.19.882,Main,2022.1.1,59.99912403405818,
negative,negative,2,j,l,,,,,0,7,7,9,,,,,,,,,,,,,prac,1,1,2,negative,negative,l,l,1,0.9156121999258175,114.77315660007298,115.78433689998928,115.76767470000777,None,114.77315660007298,None,114.77315660007298,None,114.77315660007298,None,116.68445063998224,None,116.68445063998224,None,116.68445063998224,None,,,,,,,,,,,,,003,2022-05-05_17h26.19.882,Main,2022.1.1,59.99912403405818,
positive,negative,2,l,j,,,,,0,8,8,14,,,,,,,,,,,,,prac,2,2,2,negative,positive,j,j,1,0.8149380999384448,116.68837119999807,117.70096869999543,117.68430309998803,None,116.68837119999807,None,116.68837119999807,None,116.68837119999807,None,118.5010588400648,None,118.5010588400648,None,118.5010588400648,None,,,,,,,,,,,,,003,2022-05-05_17h26.19.882,Main,2022.1.1,59.99912403405818,
negative,positive,1,j,l,,,,,0,9,9,6,,,,,,,,,,,,,prac,2,2,1,positive,negative,l,l,1,1.015224700095132,118.50451800005976,119.51758800004609,119.50090910005383,None,118.50451800005976,None,118.50451800005976,None,118.50451800005976,None,120.51767584005138,None,120.51767584005138,None,120.51767584005138,None,,,,,,,,,,,,,003,2022-05-05_17h26.19.882,Main,2022.1.1,59.99912403405818,
neutral,negative,2,k,k,,,,,0,10,10,16,,,,,,,,,,,,,prac,1,1,2,negative,neutral,k,k,1,0.918995900079608,120.52131139999256,121.5342052000342,121.5175362000009,None,120.52131139999256,None,120.52131139999256,None,120.52131139999256,None,122.43498283996014,None,122.43498283996014,None,122.43498283996014,None,,,,,,,,,,,,,003,2022-05-05_17h26.19.882,Main,2022.1.1,59.99912403405818,
neutral,negative,1,k,k,,,,,0,11,11,7,,,,,,,,,,,,,prac,2,2,1,negative,neutral,k,k,1,0.7610160000622272,122.4419166999869,123.45082360005472,123.43416609999258,None,122.4419166999869,None,122.4419166999869,None,122.4419166999869,None,124.20081824004883,None,124.20081824004883,None,124.20081824004883,None,,,,,,,,,,,,,003,2022-05-05_17h26.19.882,Main,2022.1.1,59.99912403405818,
positive,negative,1,l,j,,,,,0,12,12,5,,,,,,,,,,,,,prac,2,2,1,negative,positive,j,j,1,0.9153930000029504,124.20387129997835,125.21747999999207,125.20111839997116,None,124.20387129997835,None,124.20387129997835,None,124.20387129997835,None,126.11745323996293,None,126.11745323996293,None,126.11745323996293,None,,,,,,,,,,,,,003,2022-05-05_17h26.19.882,Main,2022.1.1,59.99912403405818,
neutral,neutral,2,k,k,,,,,0,13,13,10,,,,,,,,,,,,,prac,1,1,2,neutral,neutral,k,k,1,0.7484175999416038,126.1208172000479,127.13419310003519,127.12035890005063,None,126.1208172000479,None,126.1208172000479,None,126.1208172000479,None,127.86738754004473,None,127.86738754004473,None,127.86738754004473,None,,,,,,,,,,,,,003,2022-05-05_17h26.19.882,Main,2022.1.1,59.99912403405818,
positive,positive,2,l,j,,,,,0,14,14,11,,,,,,,,,,,,,prac,1,1,2,positive,positive,j,j,1,0.6821398999309167,127.87076199997682,128.8673675999744,128.8673675999744,None,127.87076199997682,None,127.87076199997682,None,127.87076199997682,None,129.5507777400664,None,129.5507777400664,None,129.5507777400664,None,,,,,,,,,,,,,003,2022-05-05_17h26.19.882,Main,2022.1.1,59.99912403405818,
positive,positive,1,l,j,,,,,0,15,15,2,,,,,,,,,,,,,prac,1,1,1,positive,positive,j,j,1,0.7321109999902546,129.55419140006416,130.5674295000499,130.55068640003446,None,129.55419140006416,None,129.55419140006416,None,129.55419140006416,None,131.2841532400227,None,131.2841532400227,None,131.2841532400227,None,,,,,,,,,,,,,003,2022-05-05_17h26.19.882,Main,2022.1.1,59.99912403405818,
neutral,positive,1,k,k,,,,,0,16,16,4,,,,,,,,,,,,,prac,1,1,1,positive,neutral,k,k,1,0.6816435999935493,131.28789779997896,132.30063670000527,132.28400660003535,None,131.28789779997896,None,131.28789779997896,None,131.28789779997896,None,132.96734534004935,None,132.96734534004935,None,132.96734534004935,None,,,,,,,,,,,,,003,2022-05-05_17h26.19.882,Main,2022.1.1,59.99912403405818,
negative,neutral,1,j,l,,,,,0,17,17,3,,,,,,,,,,,,,prac,2,2,1,neutral,negative,l,l,1,0.8654235999565572,132.970505699981,133.98395210003946,133.96728790004272,None,132.970505699981,None,132.970505699981,None,132.970505699981,None,134.8340165399597,None,134.8340165399597,None,134.8340165399597,None,,,,,,,,,,,,,003,2022-05-05_17h26.19.882,Main,2022.1.1,59.99912403405818,
positive,neutral,1,l,j,,,,,1,0,18,8,,,,,,,,,,,,,prac,2,2,1,neutral,positive,j,j,1,1.1982838999247178,134.83694509998895,135.85067760001402,135.83687030000146,None,134.83694509998895,None,134.83694509998895,None,134.83694509998895,None,137.03388034004018,None,137.03388034004018,None,137.03388034004018,None,,,,,,,,,,,,,003,2022-05-05_17h26.19.882,Main,2022.1.1,59.99912403405818,
neutral,neutral,2,k,k,,,,,1,1,19,10,,,,,,,,,,,,,prac,1,1,2,neutral,neutral,k,k,1,0.8655373000074178,137.03706480003893,138.05067769996822,138.03387689997908,None,137.03706480003893,None,137.03706480003893,None,137.03706480003893,None,138.900501740037,None,138.900501740037,None,138.900501740037,None,,,,,,,,,,,,,003,2022-05-05_17h26.19.882,Main,2022.1.1,59.99912403405818,
negative,positive,1,j,l,,,,,1,2,20,6,,,,,,,,,,,,,prac,1,1,1,positive,negative,l,l,1,1.1152502000331879,138.90365270001348,139.91716259997338,139.88394770002924,None,138.90365270001348,None,138.90365270001348,None,138.90365270001348,None,141.01711393996374,None,141.01711393996374,None,141.01711393996374,None,,,,,,,,,,,,,003,2022-05-05_17h26.19.882,Main,2022.1.1,59.99912403405818,
negative,negative,2,j,l,,,,,1,3,21,9,,,,,,,,,,,,,prac,1,1,2,negative,negative,l,l,1,0.9486887999810278,141.02106409997214,142.03377860004548,142.017120399978,None,141.02106409997214,None,141.02106409997214,None,141.02106409997214,None,142.96712834002682,None,142.96712834002682,None,142.96712834002682,None,,,,,,,,,,,,,003,2022-05-05_17h26.19.882,Main,2022.1.1,59.99912403405818,
negative,neutral,2,j,l,,,,,1,4,22,12,,,,,,,,,,,,,prac,1,1,2,neutral,negative,l,l,1,1.0495196999982,142.9699695999734,143.98374719999265,143.9671304000076,None,142.9699695999734,None,142.9699695999734,None,142.9699695999734,None,145.01689034000736,None,145.01689034000736,None,145.01689034000736,None,,,,,,,,,,,,,003,2022-05-05_17h26.19.882,Main,2022.1.1,59.99912403405818,
positive,negative,1,l,j,,,,,1,5,23,5,,,,,,,,,,,,,prac,2,2,1,negative,positive,j,j,1,0.7312167999334633,145.0365420000162,146.05036950006615,146.0170340000186,None,145.0365420000162,None,145.0365420000162,None,145.0365420000162,None,146.75033143999752,None,146.75033143999752,None,146.75033143999752,None,,,,,,,,,,,,,003,2022-05-05_17h26.19.882,Main,2022.1.1,59.99912403405818,
positive,neutral,2,l,j,,,,,1,6,24,17,,,,,,,,,,,,,prac,2,2,2,neutral,positive,j,j,1,0.7319428999908268,146.75354579999112,147.76697100000456,147.7503074000124,None,146.75354579999112,None,146.75354579999112,None,146.75354579999112,None,148.48367334004723,None,148.48367334004723,None,148.48367334004723,None,,,,,,,,,,,,,003,2022-05-05_17h26.19.882,Main,2022.1.1,59.99912403405818,
positive,positive,2,l,j,,,,,1,7,25,11,,,,,,,,,,,,,prac,1,1,2,positive,positive,j,j,1,0.6650599999120459,148.48684150003828,149.50029270001687,149.48362800001632,None,148.48684150003828,None,148.48684150003828,None,148.48684150003828,None,150.1502815399901,None,150.1502815399901,None,150.1502815399901,None,,,,,,,,,,,,,003,2022-05-05_17h26.19.882,Main,2022.1.1,59.99912403405818,
negative,negative,1,j,l,,,,,1,8,26,0,,,,,,,,,,,,,prac,2,2,1,negative,negative,l,j,0,1.198879399918951,150.15393020003103,151.16693379997741,151.15025379997678,None,150.15393020003103,None,150.15393020003103,None,150.15393020003103,None,152.35021679999772,None,152.35021679999772,None,152.35021679999772,None,,,,,,,,,,,,,003,2022-05-05_17h26.19.882,Main,2022.1.1,59.99912403405818,
negative,neutral,1,j,l,,,,,1,9,27,3,,,,,,,,,,,,,prac,2,2,1,neutral,negative,l,l,1,1.0699041999178007,153.35017610003706,154.35019220004324,154.33357310004067,None,153.35017610003706,None,153.35017610003706,None,153.35017610003706,None,155.41679664001566,None,155.41679664001566,None,155.41679664001566,None,,,,,,,,,,,,,003,2022-05-05_17h26.19.882,Main,2022.1.1,59.99912403405818,
negative,positive,2,j,l,,,,,1,10,28,15,,,,,,,,,,,,,prac,2,2,2,positive,negative,l,l,1,0.9151155999861658,155.42053460003808,156.43346089997794,156.41678359999787,None,155.42053460003808,None,155.42053460003808,None,155.42053460003808,None,157.33350364001234,None,157.33350364001234,None,157.33350364001234,None,,,,,,,,,,,,,003,2022-05-05_17h26.19.882,Main,2022.1.1,59.99912403405818,
neutral,positive,2,k,k,,,,,1,11,29,13,,,,,,,,,,,,,prac,2,2,2,positive,neutral,k,k,1,0.7659515000414103,157.33805060002487,158.35016000003088,158.33341550000478,None,157.33805060002487,None,157.33805060002487,None,157.33805060002487,None,159.10005974000086,None,159.10005974000086,None,159.10005974000086,None,,,,,,,,,,,,,003,2022-05-05_17h26.19.882,Main,2022.1.1,59.99912403405818,
positive,negative,2,l,j,,,,,1,12,30,14,,,,,,,,,,,,,prac,2,2,2,negative,positive,j,j,1,0.713930300087668,159.10456440004054,160.1167293000035,160.10005530004855,None,159.10456440004054,None,159.10456440004054,None,159.10456440004054,None,160.81671333998673,None,160.81671333998673,None,160.81671333998673,None,,,,,,,,,,,,,003,2022-05-05_17h26.19.882,Main,2022.1.1,59.99912403405818,
neutral,negative,1,k,k,,,,,1,13,31,7,,,,,,,,,,,,,prac,2,2,1,negative,neutral,k,k,1,0.7144740999210626,160.82070879999083,161.8333632000722,161.81670079997275,None,160.82070879999083,None,160.82070879999083,None,160.82070879999083,None,162.5333139400347,None,162.5333139400347,None,162.5333139400347,None,,,,,,,,,,,,,003,2022-05-05_17h26.19.882,Main,2022.1.1,59.99912403405818,
positive,positive,1,l,j,,,,,1,14,32,2,,,,,,,,,,,,,prac,1,1,1,positive,positive,j,j,1,0.7150998999131843,162.5500539999921,163.54996620002203,163.5333475000225,None,162.5500539999921,None,162.5500539999921,None,162.5500539999921,None,164.24998734005493,None,164.24998734005493,None,164.24998734005493,None,,,,,,,,,,,,,003,2022-05-05_17h26.19.882,Main,2022.1.1,59.99912403405818,
neutral,positive,1,k,k,,,,,1,15,33,4,,,,,,,,,,,,,prac,1,1,1,positive,neutral,k,k,1,0.7487092000665143,164.2569697999861,165.26674520003144,165.24999170005322,None,164.2569697999861,None,164.2569697999861,None,164.2569697999861,None,165.99991304007125,None,165.99991304007125,None,165.99991304007125,None,,,,,,,,,,,,,003,2022-05-05_17h26.19.882,Main,2022.1.1,59.99912403405818,
neutral,neutral,1,k,k,,,,,1,16,34,1,,,,,,,,,,,,,prac,1,1,1,neutral,neutral,k,k,1,0.7143792000133544,166.016591600026,167.01658389996737,166.9999162000604,None,166.016591600026,None,166.016591600026,None,166.016591600026,None,167.71652583997928,None,167.71652583997928,None,167.71652583997928,None,,,,,,,,,,,,,003,2022-05-05_17h26.19.882,Main,2022.1.1,59.99912403405818,
neutral,negative,2,k,k,,,,,1,17,35,16,,,,,,,,,,,,,prac,2,2,2,negative,neutral,k,k,1,0.7321496999356896,167.72047469997779,168.73319170007017,168.71663779998198,None,167.72047469997779,None,167.72047469997779,None,167.72047469997779,None,169.4498418400646,None,169.4498418400646,None,169.4498418400646,None,,,,,,,,,,,,,003,2022-05-05_17h26.19.882,Main,2022.1.1,59.99912403405818,
,,,,,,,,,,,,,,,,,,,,,,,,,,,,,,,,,,,,,,,,,,,,,,,,,,,169.44983830000274,None,None,,,,,,,,,,003,2022-05-05_17h26.19.882,Main,2022.1.1,59.99912403405818,
,,,,,,,,,,,,,,,,,,,,,,,,,,,,,,,,,,,,,,,,,,,,,,,,,,,,,,0.3351852,-0.033333335,1,0,0,0.011070240056142211,None,,,003,2022-05-05_17h26.19.882,Main,2022.1.1,59.99912403405818,
neutral,negative,2,k,k,,,,,,,,,0,0,0,16,,,,,,,175.94975320005324,None,main,1,1,2,negative,neutral,k,k,1,1.1423682000022382,177.95863660005853,178.96630440000445,178.94962460000534,None,177.95863660005853,None,177.95863660005853,None,177.95863660005853,None,180.0996291399817,None,180.0996291399817,None,180.0996291399817,None,,,,,,,,,,,,,003,2022-05-05_17h26.19.882,Main,2022.1.1,59.99912403405818,
neutral,negative,1,k,k,,,,,,,,,0,1,1,7,,,,,,,,,main,1,1,1,negative,neutral,k,k,1,0.7473683999851346,180.10469040006865,181.11625439999625,181.0995959000429,None,180.10469040006865,None,180.10469040006865,None,180.10469040006865,None,181.84956783998058,None,181.84956783998058,None,181.84956783998058,None,,,,,,,,,,,,,003,2022-05-05_17h26.19.882,Main,2022.1.1,59.99912403405818,
positive,negative,2,l,j,,,,,,,,,0,2,2,14,,,,,,,,,main,1,1,2,negative,positive,j,j,1,0.7307151999557391,181.85363250004593,182.86629250005353,182.84955539996736,None,181.85363250004593,None,181.85363250004593,None,181.85363250004593,None,183.5828626400209,None,183.5828626400209,None,183.5828626400209,None,,,,,,,,,,,,,003,2022-05-05_17h26.19.882,Main,2022.1.1,59.99912403405818,
negative,positive,2,j,l,,,,,,,,,0,3,3,15,,,,,,,,,main,1,1,2,positive,negative,l,l,1,0.9642982999794185,183.5869103000732,184.59951400000136,184.58283179998398,None,183.5869103000732,None,183.5869103000732,None,183.5869103000732,None,185.54954714000922,None,185.54954714000922,None,185.54954714000922,None,,,,,,,,,,,,,003,2022-05-05_17h26.19.882,Main,2022.1.1,59.99912403405818,
positive,positive,2,l,j,,,,,,,,,0,4,4,11,,,,,,,,,main,2,2,2,positive,positive,j,j,1,0.8146377999801189,185.5538492000196,186.5662579999771,186.54946810007095,None,185.5538492000196,None,185.5538492000196,None,185.5538492000196,None,187.3658396400162,None,187.3658396400162,None,187.3658396400162,None,,,,,,,,,,,,,003,2022-05-05_17h26.19.882,Main,2022.1.1,59.99912403405818,
negative,negative,1,j,l,,,,,,,,,0,5,5,0,,,,,,,,,main,2,2,1,negative,negative,l,l,1,1.2652387000853196,187.36919200001284,188.38287960004527,188.36612020002212,None,187.36919200001284,None,187.36919200001284,None,187.36919200001284,None,189.63246983998687,None,189.63246983998687,None,189.63246983998687,None,,,,,,,,,,,,,003,2022-05-05_17h26.19.882,Main,2022.1.1,59.99912403405818,
positive,neutral,1,l,j,,,,,,,,,0,6,6,8,,,,,,,,,main,1,1,1,neutral,positive,j,j,1,0.7817814000882208,189.63612629997078,190.6493833999848,190.6327701000264,None,189.63612629997078,None,189.63612629997078,None,189.63612629997078,None,191.41605543995973,None,191.41605543995973,None,191.41605543995973,None,,,,,,,,,,,,,003,2022-05-05_17h26.19.882,Main,2022.1.1,59.99912403405818,
neutral,positive,2,k,k,,,,,,,,,0,7,7,13,,,,,,,,,main,1,1,2,positive,neutral,k,k,1,0.6650488999439403,191.41954410006292,192.43269639997743,192.4160353000043,None,191.41954410006292,None,191.41954410006292,None,191.41954410006292,None,193.08266744004794,None,193.08266744004794,None,193.08266744004794,None,,,,,,,,,,,,,003,2022-05-05_17h26.19.882,Main,2022.1.1,59.99912403405818,
negative,negative,2,j,l,,,,,,,,,0,8,8,9,,,,,,,,,main,1,1,2,negative,negative,l,l,1,0.7983223999617621,193.08597030001692,194.0993125999812,194.08265930006746,None,193.08597030001692,None,193.08597030001692,None,193.08597030001692,None,194.8826299400418,None,194.8826299400418,None,194.8826299400418,None,,,,,,,,,,,,,003,2022-05-05_17h26.19.882,Main,2022.1.1,59.99912403405818,
neutral,positive,1,k,k,,,,,,,,,0,9,9,4,,,,,,,,,main,1,1,1,positive,neutral,k,k,1,0.7317207000451162,194.88616029999685,195.8993004000513,195.88262250006665,None,194.88616029999685,None,194.88616029999685,None,194.88616029999685,None,196.61593244002432,None,196.61593244002432,None,196.61593244002432,None,,,,,,,,,,,,,003,2022-05-05_17h26.19.882,Main,2022.1.1,59.99912403405818,
positive,negative,1,l,j,,,,,,,,,0,10,10,5,,,,,,,,,main,1,1,1,negative,positive,j,j,1,0.5991128000896424,196.61939060001168,197.6325706000207,197.6159573000623,None,196.61939060001168,None,196.61939060001168,None,196.61939060001168,None,198.21586104003944,None,198.21586104003944,None,198.21586104003944,None,,,,,,,,,,,,,003,2022-05-05_17h26.19.882,Main,2022.1.1,59.99912403405818,
positive,positive,1,l,j,,,,,,,,,0,11,11,2,,,,,,,,,main,2,2,1,positive,positive,j,j,1,0.6142479999689385,198.22010669996962,199.23252730001695,199.21587860002182,None,198.22010669996962,None,198.22010669996962,None,198.22010669996962,None,199.83253164006163,None,199.83253164006163,None,199.83253164006163,None,,,,,,,,,,,,,003,2022-05-05_17h26.19.882,Main,2022.1.1,59.99912403405818,
neutral,neutral,2,k,k,,,,,,,,,0,12,12,10,,,,,,,,,main,1,1,2,neutral,neutral,k,k,1,0.6816562000894919,199.8360387000721,200.84916910005268,200.83249010005966,None,199.8360387000721,None,199.8360387000721,None,199.8360387000721,None,201.5158256400493,None,201.5158256400493,None,201.5158256400493,None,,,,,,,,,,,,,003,2022-05-05_17h26.19.882,Main,2022.1.1,59.99912403405818,
negative,neutral,1,j,l,,,,,,,,,0,13,13,3,,,,,,,,,main,2,2,1,neutral,negative,l,l,1,0.7816079999320209,201.5194961000234,202.53253970004153,202.51581410004292,None,201.5194961000234,None,201.5194961000234,None,201.5194961000234,None,203.29921024000504,None,203.29921024000504,None,203.29921024000504,None,,,,,,,,,,,,,003,2022-05-05_17h26.19.882,Main,2022.1.1,59.99912403405818,
negative,positive,1,j,l,,,,,,,,,0,14,14,6,,,,,,,,,main,2,2,1,positive,negative,l,l,1,0.6652553000021726,203.30291590001434,204.3157707999926,204.3019722000463,None,203.30291590001434,None,203.30291590001434,None,203.30291590001434,None,204.96583823998225,None,204.96583823998225,None,204.96583823998225,None,,,,,,,,,,,,,003,2022-05-05_17h26.19.882,Main,2022.1.1,59.99912403405818,
neutral,neutral,1,k,k,,,,,,,,,0,15,15,1,,,,,,,,,main,1,1,1,neutral,neutral,k,k,1,0.6646212000632659,204.96971179998945,205.9823813000694,205.96865619998425,None,204.96971179998945,None,204.96971179998945,None,204.96971179998945,None,206.6323629399878,None,206.6323629399878,None,206.6323629399878,None,,,,,,,,,,,,,003,2022-05-05_17h26.19.882,Main,2022.1.1,59.99912403405818,
positive,neutral,2,l,j,,,,,,,,,0,16,16,17,,,,,,,,,main,2,2,2,neutral,positive,j,j,1,1.1984908999875188,206.6358158000512,207.64901539997663,207.6323473000666,None,206.6358158000512,None,206.6358158000512,None,206.6358158000512,None,208.83232944003538,None,208.83232944003538,None,208.83232944003538,None,,,,,,,,,,,,,003,2022-05-05_17h26.19.882,Main,2022.1.1,59.99912403405818,
negative,neutral,2,j,l,,,,,,,,,0,17,17,12,,,,,,,,,main,1,1,2,neutral,negative,l,l,1,0.7975715000648052,208.83635930006858,209.84897869999986,209.83231990004424,None,208.83635930006858,None,208.83635930006858,None,208.83635930006858,None,210.632306540024,None,210.632306540024,None,210.632306540024,None,,,,,,,,,,,,,003,2022-05-05_17h26.19.882,Main,2022.1.1,59.99912403405818,
positive,neutral,2,l,j,,,,,,,,,1,0,18,17,,,,,,,,,main,2,2,2,neutral,positive,j,j,1,0.7651848000241444,210.63610420003533,211.6489211000735,211.63239529996645,None,210.63610420003533,None,210.63610420003533,None,210.63610420003533,None,212.3989224400022,None,212.3989224400022,None,212.3989224400022,None,,,,,,,,,,,,,003,2022-05-05_17h26.19.882,Main,2022.1.1,59.99912403405818,
negative,negative,2,j,l,,,,,,,,,1,1,19,9,,,,,,,,,main,2,2,2,negative,negative,l,l,1,0.8149143999908119,212.40265050006565,213.41558929998428,213.39891340001486,None,212.40265050006565,None,212.40265050006565,None,212.40265050006565,None,214.21556443999287,None,214.21556443999287,None,214.21556443999287,None,,,,,,,,,,,,,003,2022-05-05_17h26.19.882,Main,2022.1.1,59.99912403405818,
neutral,neutral,2,k,k,,,,,,,,,1,2,20,10,,,,,,,,,main,2,2,2,neutral,neutral,k,k,1,0.7327308999374509,214.21912839997094,215.23224559996743,215.21552750002593,None,214.21912839997094,None,214.21912839997094,None,214.21912839997094,None,215.94883853999198,None,215.94883853999198,None,215.94883853999198,None,,,,,,,,,,,,,003,2022-05-05_17h26.19.882,Main,2022.1.1,59.99912403405818,
negative,negative,1,j,l,,,,,,,,,1,3,21,0,,,,,,,,,main,1,1,1,negative,negative,l,l,1,0.947417699964717,215.9530136999674,216.96549279999454,216.9488127999939,None,215.9530136999674,None,215.9530136999674,None,215.9530136999674,None,217.89887333997757,None,217.89887333997757,None,217.89887333997757,None,,,,,,,,,,,,,003,2022-05-05_17h26.19.882,Main,2022.1.1,59.99912403405818,
neutral,negative,2,k,k,,,,,,,,,1,4,22,16,,,,,,,,,main,2,2,2,negative,neutral,k,k,1,0.7648400000762194,217.90224460000172,218.9183620000258,218.8987854999723,None,217.90224460000172,None,217.90224460000172,None,217.90224460000172,None,219.66544324007117,None,219.66544324007117,None,219.66544324007117,None,,,,,,,,,,,,,003,2022-05-05_17h26.19.882,Main,2022.1.1,59.99912403405818,
positive,neutral,1,l,j,,,,,,,,,1,5,23,8,,,,,,,,,main,1,1,1,neutral,positive,j,j,1,0.5819010999985039,219.668776000035,220.6820577000035,220.66540519997943,None,219.668776000035,None,219.668776000035,None,219.668776000035,None,221.2487204400706,None,221.2487204400706,None,221.2487204400706,None,,,,,,,,,,,,,003,2022-05-05_17h26.19.882,Main,2022.1.1,59.99912403405818,
positive,negative,2,l,j,,,,,,,,,1,6,24,14,,,,,,,,,main,1,1,2,negative,positive,j,j,1,1.3983134999871254,221.2521904000314,222.26539399998728,222.24872440006584,None,221.2521904000314,None,221.2521904000314,None,221.2521904000314,None,223.64884333998197,None,223.64884333998197,None,223.64884333998197,None,,,,,,,,,,,,,003,2022-05-05_17h26.19.882,Main,2022.1.1,59.99912403405818,
negative,positive,1,j,l,,,,,,,,,1,7,25,6,,,,,,,,,main,2,2,1,positive,negative,l,l,1,0.7316444999305531,223.65208640007768,224.66533540003002,224.64873130002525,None,223.65208640007768,None,223.65208640007768,None,223.65208640007768,None,225.38202613998436,None,225.38202613998436,None,225.38202613998436,None,,,,,,,,,,,,,003,2022-05-05_17h26.19.882,Main,2022.1.1,59.99912403405818,
negative,neutral,2,j,l,,,,,,,,,1,8,26,12,,,,,,,,,main,1,1,2,neutral,negative,l,l,1,0.7825542000355199,225.38522870000452,226.39863970002625,226.3819600000279,None,225.38522870000452,None,225.38522870000452,None,225.38522870000452,None,227.1652638399857,None,227.1652638399857,None,227.1652638399857,None,,,,,,,,,,,,,003,2022-05-05_17h26.19.882,Main,2022.1.1,59.99912403405818,
neutral,positive,2,k,k,,,,,,,,,1,9,27,13,,,,,,,,,main,2,2,2,positive,neutral,k,k,1,0.6974349999800324,227.16968559997622,228.1819242000347,228.16525249998085,None,227.16968559997622,None,227.16968559997622,None,227.16968559997622,None,228.86522143996552,None,228.86522143996552,None,228.86522143996552,None,,,,,,,,,,,,,003,2022-05-05_17h26.19.882,Main,2022.1.1,59.99912403405818,
negative,neutral,1,j,l,,,,,,,,,1,10,28,3,,,,,,,,,main,1,1,1,neutral,negative,l,l,1,0.785512899979949,228.86926189996302,229.88477620005142,229.8653454000596,None,228.86926189996302,None,228.86926189996302,None,228.86926189996302,None,230.64865064002805,None,230.64865064002805,None,230.64865064002805,None,,,,,,,,,,,,,003,2022-05-05_17h26.19.882,Main,2022.1.1,59.99912403405818,
neutral,neutral,1,k,k,,,,,,,,,1,11,29,1,,,,,,,,,main,1,1,1,neutral,neutral,k,k,1,0.6777464000042528,230.65520390006714,231.6651928999927,231.64851680002175,None,230.65520390006714,None,230.65520390006714,None,230.65520390006714,None,232.33184074003947,None,232.33184074003947,None,232.33184074003947,None,,,,,,,,,,,,,003,2022-05-05_17h26.19.882,Main,2022.1.1,59.99912403405818,
positive,positive,2,l,j,,,,,,,,,1,12,30,11,,,,,,,,,main,2,2,2,positive,positive,j,j,1,0.5984789999201894,232.3358920000028,233.34845250006765,233.33180320006795,None,232.3358920000028,None,232.3358920000028,None,232.3358920000028,None,233.9318601400475,None,233.9318601400475,None,233.9318601400475,None,,,,,,,,,,,,,003,2022-05-05_17h26.19.882,Main,2022.1.1,59.99912403405818,
positive,negative,1,l,j,,,,,,,,,1,13,31,5,,,,,,,,,main,2,2,1,negative,positive,j,j,1,0.6325663999887183,233.9357911000261,234.9485137000447,234.9317612000741,None,233.9357911000261,None,233.9357911000261,None,233.9357911000261,None,235.56507334007182,None,235.56507334007182,None,235.56507334007182,None,,,,,,,,,,,,,003,2022-05-05_17h26.19.882,Main,2022.1.1,59.99912403405818,
negative,positive,2,j,l,,,,,,,,,1,14,32,15,,,,,,,,,main,2,2,2,positive,negative,l,l,1,0.6974086000118405,235.56971970002633,236.5818486000644,236.5650862000184,None,235.56971970002633,None,235.56971970002633,None,235.56971970002633,None,237.26504514004336,None,237.26504514004336,None,237.26504514004336,None,,,,,,,,,,,,,003,2022-05-05_17h26.19.882,Main,2022.1.1,59.99912403405818,
neutral,negative,1,k,k,,,,,,,,,1,15,33,7,,,,,,,,,main,1,1,1,negative,neutral,k,k,1,0.6654612999409437,237.26901350007392,238.2816942000063,238.2650204000529,None,237.26901350007392,None,237.26901350007392,None,237.26901350007392,None,238.93169923998647,None,238.93169923998647,None,238.93169923998647,None,,,,,,,,,,,,,003,2022-05-05_17h26.19.882,Main,2022.1.1,59.99912403405818,
neutral,positive,1,k,k,,,,,,,,,1,16,34,4,,,,,,,,,main,2,2,1,positive,neutral,k,k,1,0.7473852999974042,238.93571370001882,239.94836230005603,239.9317307000747,None,238.93571370001882,None,238.93571370001882,None,238.93571370001882,None,240.68164544004247,None,240.68164544004247,None,240.68164544004247,None,,,,,,,,,,,,,003,2022-05-05_17h26.19.882,Main,2022.1.1,59.99912403405818,
positive,positive,1,l,j,,,,,,,,,1,17,35,2,,,,,,,,,main,2,2,1,positive,positive,j,j,1,0.7480282000033185,240.69216630002484,241.6982916999841,241.68163510004524,None,240.69216630002484,None,240.69216630002484,None,240.69216630002484,None,242.43162654001497,None,242.43162654001497,None,242.43162654001497,None,,,,,,,,,,,,,003,2022-05-05_17h26.19.882,Main,2022.1.1,59.99912403405818,
negative,neutral,1,j,l,,,,,,,,,2,0,36,3,,,,,,,,,main,2,2,1,neutral,negative,l,l,1,0.5978647998999804,242.43594360002317,243.4482621999923,243.43158950004727,None,242.43594360002317,None,242.43594360002317,None,242.43594360002317,None,244.03154254005057,None,244.03154254005057,None,244.03154254005057,None,,,,,,,,,,,,,003,2022-05-05_17h26.19.882,Main,2022.1.1,59.99912403405818,
neutral,negative,2,k,k,,,,,,,,,2,1,37,16,,,,,,,,,main,1,1,2,negative,neutral,k,k,1,0.6815886000404134,244.0379523000447,245.0482032999862,245.03152830002364,None,244.0379523000447,None,244.0379523000447,None,244.0379523000447,None,245.71485284004592,None,245.71485284004592,None,245.71485284004592,None,,,,,,,,,,,,,003,2022-05-05_17h26.19.882,Main,2022.1.1,59.99912403405818,
negative,positive,2,j,l,,,,,,,,,2,2,38,15,,,,,,,,,main,2,2,2,positive,negative,l,l,1,0.6819242000347003,245.71818740002345,246.73163749999367,246.71770110004582,None,245.71818740002345,None,245.71818740002345,None,245.71818740002345,None,247.39820584001717,None,247.39820584001717,None,247.39820584001717,None,,,,,,,,,,,,,003,2022-05-05_17h26.19.882,Main,2022.1.1,59.99912403405818,
negative,neutral,2,j,l,,,,,,,,,2,3,39,12,,,,,,,,,main,1,1,2,neutral,negative,l,l,1,0.6640456999884918,247.40231260005385,248.41479539999273,248.3981343000196,None,247.40231260005385,None,247.40231260005385,None,247.40231260005385,None,249.06479014001087,None,249.06479014001087,None,249.06479014001087,None,,,,,,,,,,,,,003,2022-05-05_17h26.19.882,Main,2022.1.1,59.99912403405818,
neutral,neutral,1,k,k,,,,,,,,,2,4,40,1,,,,,,,,,main,2,2,1,neutral,neutral,k,k,1,0.6483397000702098,249.06801789999008,250.06486020004377,250.06486020004377,None,249.06801789999008,None,249.06801789999008,None,249.06801789999008,None,250.7147682399838,None,250.7147682399838,None,250.7147682399838,None,,,,,,,,,,,,,003,2022-05-05_17h26.19.882,Main,2022.1.1,59.99912403405818,
positive,positive,1,l,j,,,,,,,,,2,5,41,2,,,,,,,,,main,1,1,1,positive,positive,j,j,1,0.7818109999643639,250.7181327000726,251.7313994000433,251.71474199998192,None,250.7181327000726,None,250.7181327000726,None,250.7181327000726,None,252.49812733997823,None,252.49812733997823,None,252.49812733997823,None,,,,,,,,,,,,,003,2022-05-05_17h26.19.882,Main,2022.1.1,59.99912403405818,
neutral,negative,1,k,k,,,,,,,,,2,6,42,7,,,,,,,,,main,2,2,1,negative,neutral,k,k,1,0.7316389000043273,252.50364070001524,253.51477700006217,253.4980208000634,None,252.50364070001524,None,252.50364070001524,None,252.50364070001524,None,254.23133454005,None,254.23133454005,None,254.23133454005,None,,,,,,,,,,,,,003,2022-05-05_17h26.19.882,Main,2022.1.1,59.99912403405818,
negative,negative,2,j,l,,,,,,,,,2,7,43,9,,,,,,,,,main,1,1,2,negative,negative,l,l,1,0.6982204000232741,254.23466010007542,255.2480008000275,255.23133139999118,None,254.23466010007542,None,254.23466010007542,None,254.23466010007542,None,255.93131114005809,None,255.93131114005809,None,255.93131114005809,None,,,,,,,,,,,,,003,2022-05-05_17h26.19.882,Main,2022.1.1,59.99912403405818,
neutral,positive,1,k,k,,,,,,,,,2,8,44,4,,,,,,,,,main,2,2,1,positive,neutral,k,k,1,0.6652376999845728,255.93455420003738,256.9479372999631,256.93126980005763,None,255.93455420003738,None,255.93455420003738,None,255.93455420003738,None,257.59792454004054,None,257.59792454004054,None,257.59792454004054,None,,,,,,,,,,,,,003,2022-05-05_17h26.19.882,Main,2022.1.1,59.99912403405818,
positive,neutral,1,l,j,,,,,,,,,2,9,45,8,,,,,,,,,main,1,1,1,neutral,positive,j,j,1,0.6828780999640003,257.6013346000109,258.6145994999679,258.5979498999659,None,257.6013346000109,None,257.6013346000109,None,257.6013346000109,None,259.2813010400743,None,259.2813010400743,None,259.2813010400743,None,,,,,,,,,,,,,003,2022-05-05_17h26.19.882,Main,2022.1.1,59.99912403405818,
positive,positive,2,l,j,,,,,,,,,2,10,46,11,,,,,,,,,main,1,1,2,positive,positive,j,j,1,0.7638989000115544,259.2879316000035,260.29789839999285,260.2812092000386,None,259.2879316000035,None,259.2879316000035,None,259.2879316000035,None,261.0478525400278,None,261.0478525400278,None,261.0478525400278,None,,,,,,,,,,,,,003,2022-05-05_17h26.19.882,Main,2022.1.1,59.99912403405818,
negative,negative,1,j,l,,,,,,,,,2,11,47,0,,,,,,,,,main,2,2,1,negative,negative,l,l,1,0.7152334999991581,261.0512690000469,262.06450530001894,262.04784150002524,None,261.0512690000469,None,261.0512690000469,None,261.0512690000469,None,262.7644854399725,None,262.7644854399725,None,262.7644854399725,None,,,,,,,,,,,,,003,2022-05-05_17h26.19.882,Main,2022.1.1,59.99912403405818,
negative,positive,1,j,l,,,,,,,,,2,12,48,6,,,,,,,,,main,2,2,1,positive,negative,l,l,1,0.5983647999819368,262.77024159999564,263.7812629999826,263.76745180005673,None,262.77024159999564,None,262.77024159999564,None,262.77024159999564,None,264.36447114007314,None,264.36447114007314,None,264.36447114007314,None,,,,,,,,,,,,,003,2022-05-05_17h26.19.882,Main,2022.1.1,59.99912403405818,
neutral,positive,2,k,k,,,,,,,,,2,13,49,13,,,,,,,,,main,1,1,2,positive,neutral,k,k,1,0.5824553000275046,264.36801009997725,265.3811086000642,265.3644986000145,None,264.36801009997725,None,264.36801009997725,None,264.36801009997725,None,265.9477686399943,None,265.9477686399943,None,265.9477686399943,None,,,,,,,,,,,,,003,2022-05-05_17h26.19.882,Main,2022.1.1,59.99912403405818,
positive,negative,1,l,j,,,,,,,,,2,14,50,5,,,,,,,,,main,1,1,1,negative,positive,j,j,1,0.6807162000332028,265.95186330005527,266.96441050001886,266.9477471000282,None,265.95186330005527,None,265.95186330005527,None,265.95186330005527,None,267.6310602399637,None,267.6310602399637,None,267.6310602399637,None,,,,,,,,,,,,,003,2022-05-05_17h26.19.882,Main,2022.1.1,59.99912403405818,
positive,neutral,2,l,j,,,,,,,,,2,15,51,17,,,,,,,,,main,1,1,2,neutral,positive,j,j,1,2.0983112000394613,267.6351190999849,268.6477293999633,268.63106599997263,None,267.6351190999849,None,267.6351190999849,None,267.6351190999849,None,270.73103889997583,None,270.73103889997583,None,270.73103889997583,None,,,,,,,,,,,,,003,2022-05-05_17h26.19.882,Main,2022.1.1,59.99912403405818,
positive,negative,2,l,j,,,,,,,,,2,16,52,14,,,,,,,,,main,1,1,2,negative,positive,j,j,1,0.7834499999880791,271.7344425000483,272.7476300999988,272.7309665000066,None,271.7344425000483,None,271.7344425000483,None,271.7344425000483,None,273.514250740048,None,273.514250740048,None,273.514250740048,None,,,,,,,,,,,,,003,2022-05-05_17h26.19.882,Main,2022.1.1,59.99912403405818,
neutral,neutral,2,k,k,,,,,,,,,2,17,53,10,,,,,,,,,main,2,2,2,neutral,neutral,k,k,1,0.8819479000521824,273.5180991999805,274.5309285999974,274.5142812000122,None,273.5180991999805,None,273.5180991999805,None,273.5180991999805,None,275.39754664000355,None,275.39754664000355,None,275.39754664000355,None,,,,,,,,,,,,,003,2022-05-05_17h26.19.882,Main,2022.1.1,59.99912403405818,
negative,positive,2,j,l,,,,,,,,,3,0,54,15,,,,,,,,,main,1,1,2,positive,negative,l,l,1,0.7479922999627888,275.4015300000319,276.4142150999978,276.3975237000268,None,275.4015300000319,None,275.4015300000319,None,275.4015300000319,None,277.14751403998815,None,277.14751403998815,None,277.14751403998815,None,,,,,,,,,,,,,003,2022-05-05_17h26.19.882,Main,2022.1.1,59.99912403405818,
neutral,positive,2,k,k,,,,,,,,,3,1,55,13,,,,,,,,,main,1,1,2,positive,neutral,k,k,1,0.7650607998948544,277.15091179998126,278.16416230006143,278.1475726000499,None,277.15091179998126,None,277.15091179998126,None,277.15091179998126,None,278.9142183400574,None,278.9142183400574,None,278.9142183400574,None,,,,,,,,,,,,,003,2022-05-05_17h26.19.882,Main,2022.1.1,59.99912403405818,
neutral,negative,2,k,k,,,,,,,,,3,2,56,16,,,,,,,,,main,2,2,2,negative,neutral,k,k,1,0.6662671000231057,278.9173543000361,279.9308127000695,279.89745579997543,None,278.9173543000361,None,278.9173543000361,None,278.9173543000361,None,280.58090654002734,None,280.58090654002734,None,280.58090654002734,None,,,,,,,,,,,,,003,2022-05-05_17h26.19.882,Main,2022.1.1,59.99912403405818,
negative,positive,1,j,l,,,,,,,,,3,3,57,6,,,,,,,,,main,1,1,1,positive,negative,l,l,1,0.8339362000115216,280.5850560000399,281.5974934999831,281.58077010000125,None,280.5850560000399,None,280.5850560000399,None,280.5850560000399,None,282.41428493998245,None,282.41428493998245,None,282.41428493998245,None,,,,,,,,,,,,,003,2022-05-05_17h26.19.882,Main,2022.1.1,59.99912403405818,
negative,negative,1,j,l,,,,,,,,,3,4,58,0,,,,,,,,,main,2,2,1,negative,negative,l,l,1,0.6117460000095889,282.4259347000625,283.4335945000639,283.41406680003274,None,282.4259347000625,None,282.4259347000625,None,282.4259347000625,None,284.03076953998533,None,284.03076953998533,None,284.03076953998533,None,,,,,,,,,,,,,003,2022-05-05_17h26.19.882,Main,2022.1.1,59.99912403405818,
positive,neutral,2,l,j,,,,,,,,,3,5,59,17,,,,,,,,,main,2,2,2,neutral,positive,j,j,1,0.7639650000492111,284.03519309998956,285.0474457000382,285.0307023000205,None,284.03519309998956,None,284.03519309998956,None,284.03519309998956,None,285.7973767400137,None,285.7973767400137,None,285.7973767400137,None,,,,,,,,,,,,,003,2022-05-05_17h26.19.882,Main,2022.1.1,59.99912403405818,
negative,negative,2,j,l,,,,,,,,,3,6,60,9,,,,,,,,,main,2,2,2,negative,negative,l,l,1,0.7316033000824973,285.8027036000276,286.8139882000396,286.7806583000347,None,285.8027036000276,None,285.8027036000276,None,285.8027036000276,None,287.53062354003777,None,287.53062354003777,None,287.53062354003777,None,,,,,,,,,,,,,003,2022-05-05_17h26.19.882,Main,2022.1.1,59.99912403405818,
positive,positive,1,l,j,,,,,,,,,3,7,61,2,,,,,,,,,main,1,1,1,positive,positive,j,j,1,0.6985548000084236,287.53382500004955,288.54731729999185,288.5305978000397,None,287.53382500004955,None,287.53382500004955,None,287.53382500004955,None,289.2305795400054,None,289.2305795400054,None,289.2305795400054,None,,,,,,,,,,,,,003,2022-05-05_17h26.19.882,Main,2022.1.1,59.99912403405818,
neutral,neutral,1,k,k,,,,,,,,,3,8,62,1,,,,,,,,,main,1,1,1,neutral,neutral,k,k,1,0.7308073999593034,289.23461629997473,290.24722889997065,290.2305634999648,None,289.23461629997473,None,289.23461629997473,None,289.23461629997473,None,290.96387634006095,None,290.96387634006095,None,290.96387634006095,None,,,,,,,,,,,,,003,2022-05-05_17h26.19.882,Main,2022.1.1,59.99912403405818,
negative,neutral,2,j,l,,,,,,,,,3,9,63,12,,,,,,,,,main,2,2,2,neutral,negative,l,l,1,0.6806968000018969,290.96810800000094,291.98053930001333,291.9638826000737,None,290.96810800000094,None,290.96810800000094,None,290.96810800000094,None,292.6471850400441,None,292.6471850400441,None,292.6471850400441,None,,,,,,,,,,,,,003,2022-05-05_17h26.19.882,Main,2022.1.1,59.99912403405818,
positive,neutral,1,l,j,,,,,,,,,3,10,64,8,,,,,,,,,main,2,2,1,neutral,positive,j,j,1,0.6484407000243664,292.6504889000207,293.66382250003517,293.6304822000675,None,292.6504889000207,None,292.6504889000207,None,292.6504889000207,None,294.29717373998136,None,294.29717373998136,None,294.29717373998136,None,,,,,,,,,,,,,003,2022-05-05_17h26.19.882,Main,2022.1.1,59.99912403405818,
positive,positive,2,l,j,,,,,,,,,3,11,65,11,,,,,,,,,main,2,2,2,positive,positive,j,j,1,0.6483548999531195,294.30067839997355,295.3137839999981,295.29711619997397,None,294.30067839997355,None,294.30067839997355,None,294.30067839997355,None,295.94711444001877,None,295.94711444001877,None,295.94711444001877,None,,,,,,,,,,,,,003,2022-05-05_17h26.19.882,Main,2022.1.1,59.99912403405818,
positive,negative,1,l,j,,,,,,,,,3,12,66,5,,,,,,,,,main,2,2,1,negative,positive,j,j,1,0.6482629999518394,295.95053889998235,296.96376159996726,296.94715660007205,None,295.95053889998235,None,295.95053889998235,None,295.95053889998235,None,297.59704954001353,None,297.59704954001353,None,297.59704954001353,None,,,,,,,,,,,,,003,2022-05-05_17h26.19.882,Main,2022.1.1,59.99912403405818,
neutral,positive,1,k,k,,,,,,,,,3,13,67,4,,,,,,,,,main,1,1,1,positive,neutral,k,k,1,1.331990099977702,297.60107289999723,298.6137811000226,298.59706910001114,None,297.60107289999723,None,297.60107289999723,None,297.60107289999723,None,299.93034854006254,None,299.93034854006254,None,299.93034854006254,None,,,,,,,,,,,,,003,2022-05-05_17h26.19.882,Main,2022.1.1,59.99912403405818,
negative,neutral,1,j,l,,,,,,,,,3,14,68,3,,,,,,,,,main,1,1,1,neutral,negative,l,l,1,0.7481765999691561,299.9343457999639,300.946978699998,300.93011089996435,None,299.9343457999639,None,299.9343457999639,None,299.9343457999639,None,301.6803199399612,None,301.6803199399612,None,301.6803199399612,None,,,,,,,,,,,,,003,2022-05-05_17h26.19.882,Main,2022.1.1,59.99912403405818,
neutral,neutral,2,k,k,,,,,,,,,3,15,69,10,,,,,,,,,main,1,1,2,neutral,neutral,k,k,1,0.8318413000088185,301.68628829997033,302.6969608999789,302.68323369999416,None,301.68628829997033,None,301.68628829997033,None,301.68628829997033,None,303.5136474399944,None,303.5136474399944,None,303.5136474399944,None,,,,,,,,,,,,,003,2022-05-05_17h26.19.882,Main,2022.1.1,59.99912403405818,
neutral,negative,1,k,k,,,,,,,,,3,16,70,7,,,,,,,,,main,2,2,1,negative,neutral,k,k,1,0.7641275000059977,303.5201207000064,304.5302764000371,304.51359930005856,None,303.5201207000064,None,303.5201207000064,None,303.5201207000064,None,305.28021304005523,None,305.28021304005523,None,305.28021304005523,None,,,,,,,,,,,,,003,2022-05-05_17h26.19.882,Main,2022.1.1,59.99912403405818,
positive,negative,2,l,j,,,,,,,,,3,17,71,14,,,,,,,,,main,2,2,2,negative,positive,j,j,1,0.6816783000249416,305.2836585000623,306.2969815999968,306.2802115000086,None,305.2836585000623,None,305.2836585000623,None,305.2836585000623,None,306.9635233400506,None,306.9635233400506,None,306.9635233400506,None,,,,,,,,,,,,,003,2022-05-05_17h26.19.882,Main,2022.1.1,59.99912403405818,
negative,neutral,2,j,l,,,,,,,,,4,0,72,12,,,,,,,,,main,1,1,2,neutral,negative,l,l,1,0.7976036000763997,306.9675324000418,307.980196599965,307.96352800005116,None,306.9675324000418,None,306.9675324000418,None,306.9675324000418,None,308.7635027400567,None,308.7635027400567,None,308.7635027400567,None,,,,,,,,,,,,,003,2022-05-05_17h26.19.882,Main,2022.1.1,59.99912403405818,
negative,positive,2,j,l,,,,,,,,,4,1,73,15,,,,,,,,,main,2,2,2,positive,negative,l,l,1,0.6651351000182331,308.76700620003976,309.7635524000507,309.7635524000507,None,308.76700620003976,None,308.76700620003976,None,308.76700620003976,None,310.43013653996167,None,310.43013653996167,None,310.43013653996167,None,,,,,,,,,,,,,003,2022-05-05_17h26.19.882,Main,2022.1.1,59.99912403405818,
positive,negative,1,l,j,,,,,,,,,4,2,74,5,,,,,,,,,main,2,2,1,negative,positive,j,j,1,0.9306186999892816,310.4365059999982,311.44677500007674,311.4301145999925,None,310.4365059999982,None,310.4365059999982,None,310.4365059999982,None,312.363397240045,None,312.363397240045,None,312.363397240045,None,,,,,,,,,,,,,003,2022-05-05_17h26.19.882,Main,2022.1.1,59.99912403405818,
negative,negative,1,j,l,,,,,,,,,4,3,75,0,,,,,,,,,main,2,2,1,negative,negative,l,l,1,0.7319516999414191,312.36671940004453,313.380056999973,313.36340330005623,None,312.36671940004453,None,312.36671940004453,None,312.36671940004453,None,314.0967797400546,None,314.0967797400546,None,314.0967797400546,None,,,,,,,,,,,,,003,2022-05-05_17h26.19.882,Main,2022.1.1,59.99912403405818,
neutral,neutral,1,k,k,,,,,,,,,4,4,76,1,,,,,,,,,main,2,2,1,neutral,neutral,k,k,1,0.6814432999817654,314.10073090007063,315.113388900063,315.0967072000494,None,314.10073090007063,None,314.10073090007063,None,314.10073090007063,None,315.7800249400199,None,315.7800249400199,None,315.7800249400199,None,,,,,,,,,,,,,003,2022-05-05_17h26.19.882,Main,2022.1.1,59.99912403405818,
neutral,negative,2,k,k,,,,,,,,,4,5,77,16,,,,,,,,,main,1,1,2,negative,neutral,k,k,1,0.8157676999690011,315.7852852999931,316.7996149000246,316.78000080003403,None,315.7852852999931,None,315.7852852999931,None,315.7852852999931,None,317.5966341399937,None,317.5966341399937,None,317.5966341399937,None,,,,,,,,,,,,,003,2022-05-05_17h26.19.882,Main,2022.1.1,59.99912403405818,
neutral,positive,2,k,k,,,,,,,,,4,6,78,13,,,,,,,,,main,1,1,2,positive,neutral,k,k,1,0.6312263000290841,317.60066250001546,318.61609969998244,318.5966483000666,None,317.60066250001546,None,317.60066250001546,None,317.60066250001546,None,319.23007574001093,None,319.23007574001093,None,319.23007574001093,None,,,,,,,,,,,,,003,2022-05-05_17h26.19.882,Main,2022.1.1,59.99912403405818,
neutral,neutral,2,k,k,,,,,,,,,4,7,79,10,,,,,,,,,main,2,2,2,neutral,neutral,k,k,1,0.5809012999525294,319.2339412000729,320.2465791000286,320.2299171000486,None,319.2339412000729,None,319.2339412000729,None,319.2339412000729,None,320.8132288399967,None,320.8132288399967,None,320.8132288399967,None,,,,,,,,,,,,,003,2022-05-05_17h26.19.882,Main,2022.1.1,59.99912403405818,
negative,positive,1,j,l,,,,,,,,,4,8,80,6,,,,,,,,,main,2,2,1,positive,negative,l,l,1,0.7161381000187248,320.8166700999718,321.8298911000602,321.81323079997674,None,320.8166700999718,None,320.8166700999718,None,320.8166700999718,None,322.5298544400022,None,322.5298544400022,None,322.5298544400022,None,,,,,,,,,,,,,003,2022-05-05_17h26.19.882,Main,2022.1.1,59.99912403405818,
positive,negative,2,l,j,,,,,,,,,4,9,81,14,,,,,,,,,main,1,1,2,negative,positive,j,j,1,0.6638306999811903,322.53388370003086,323.54650459997356,323.5298436000012,None,322.53388370003086,None,322.53388370003086,None,322.53388370003086,None,324.1965702400659,None,324.1965702400659,None,324.1965702400659,None,,,,,,,,,,,,,003,2022-05-05_17h26.19.882,Main,2022.1.1,59.99912403405818,
positive,positive,2,l,j,,,,,,,,,4,10,82,11,,,,,,,,,main,2,2,2,positive,positive,j,j,1,0.6151598000433296,324.1996397000039,325.2131612000521,325.1964910000097,None,324.1996397000039,None,324.1996397000039,None,324.1996397000039,None,325.8131958399783,None,325.8131958399783,None,325.8131958399783,None,,,,,,,,,,,,,003,2022-05-05_17h26.19.882,Main,2022.1.1,59.99912403405818,
negative,negative,2,j,l,,,,,,,,,4,11,83,9,,,,,,,,,main,1,1,2,negative,negative,l,l,1,0.7483732000691816,325.8163840000052,326.82988079998177,326.8131297000218,None,325.8163840000052,None,325.8163840000052,None,325.8163840000052,None,327.56308184004155,None,327.56308184004155,None,327.56308184004155,None,,,,,,,,,,,,,003,2022-05-05_17h26.19.882,Main,2022.1.1,59.99912403405818,
negative,neutral,1,j,l,,,,,,,,,4,12,84,3,,,,,,,,,main,2,2,1,neutral,negative,l,l,1,0.9810567999957129,327.579891600064,328.5797448999947,328.5630871000467,None,327.579891600064,None,327.579891600064,None,327.579891600064,None,329.54649364004143,None,329.54649364004143,None,329.54649364004143,None,,,,,,,,,,,,,003,2022-05-05_17h26.19.882,Main,2022.1.1,59.99912403405818,
positive,neutral,2,l,j,,,,,,,,,4,13,85,17,,,,,,,,,main,1,1,2,neutral,positive,j,j,1,0.6984376000473276,329.54974719998427,330.5631473000394,330.54636979999486,None,329.54974719998427,None,329.54974719998427,None,329.54974719998427,None,331.24647763998945,None,331.24647763998945,None,331.24647763998945,None,,,,,,,,,,,,,003,2022-05-05_17h26.19.882,Main,2022.1.1,59.99912403405818,
positive,neutral,1,l,j,,,,,,,,,4,14,86,8,,,,,,,,,main,2,2,1,neutral,positive,j,j,1,0.7313258000649512,331.2500984000508,332.26296339998953,332.24631670000963,None,331.2500984000508,None,331.2500984000508,None,331.2500984000508,None,332.9796377400518,None,332.9796377400518,None,332.9796377400518,None,,,,,,,,,,,,,003,2022-05-05_17h26.19.882,Main,2022.1.1,59.99912403405818,
neutral,negative,1,k,k,,,,,,,,,4,15,87,7,,,,,,,,,main,2,2,1,negative,neutral,k,k,1,0.5987508000107482,332.9829080000054,333.9963568999665,333.9796187999891,None,332.9829080000054,None,332.9829080000054,None,332.9829080000054,None,334.5798906399752,None,334.5798906399752,None,334.5798906399752,None,,,,,,,,,,,,,003,2022-05-05_17h26.19.882,Main,2022.1.1,59.99912403405818,
neutral,positive,1,k,k,,,,,,,,,4,16,88,4,,,,,,,,,main,1,1,1,positive,neutral,k,k,1,0.6147795000579208,334.58298890001606,335.5962562999921,335.57958949997555,None,334.58298890001606,None,334.58298890001606,None,334.58298890001606,None,336.1963532400434,None,336.1963532400434,None,336.1963532400434,None,,,,,,,,,,,,,003,2022-05-05_17h26.19.882,Main,2022.1.1,59.99912403405818,
positive,positive,1,l,j,,,,,,,,,4,17,89,2,,,,,,,,,main,1,1,1,positive,positive,j,j,1,0.7815448999172077,336.1996381999925,337.21289620001335,337.1962317000143,None,336.1996381999925,None,336.1996381999925,None,336.1996381999925,None,337.9795245400048,None,337.9795245400048,None,337.9795245400048,None,,,,,,,,,,,,,003,2022-05-05_17h26.19.882,Main,2022.1.1,59.99912403405818,
negative,positive,1,j,l,,,,,,,,,5,0,90,6,,,,,,,,,main,2,2,1,positive,negative,l,l,1,0.9652172999922186,337.9829653999768,338.99618000001647,338.97964200004935,None,337.9829653999768,None,337.9829653999768,None,337.9829653999768,None,339.94617653997847,None,339.94617653997847,None,339.94617653997847,None,,,,,,,,,,,,,003,2022-05-05_17h26.19.882,Main,2022.1.1,59.99912403405818,
neutral,positive,1,k,k,,,,,,,,,5,1,91,4,,,,,,,,,main,1,1,1,positive,neutral,k,k,1,0.7814218000276014,339.9497121999739,340.962813799968,340.9461459000595,None,339.9497121999739,None,339.9497121999739,None,339.9497121999739,None,341.7294440399739,None,341.7294440399739,None,341.7294440399739,None,,,,,,,,,,,,,003,2022-05-05_17h26.19.882,Main,2022.1.1,59.99912403405818,
negative,negative,1,j,l,,,,,,,,,5,2,92,0,,,,,,,,,main,2,2,1,negative,negative,l,l,1,0.7818678999319673,341.73265590006486,342.7461114000762,342.72944280004594,None,341.73265590006486,None,341.73265590006486,None,341.73265590006486,None,343.5128297400544,None,343.5128297400544,None,343.5128297400544,None,,,,,,,,,,,,,003,2022-05-05_17h26.19.882,Main,2022.1.1,59.99912403405818,
positive,positive,1,l,j,,,,,,,,,5,3,93,2,,,,,,,,,main,1,1,1,positive,positive,j,j,1,0.7491166000254452,343.51678920001723,344.5294030000223,344.51272640004754,None,343.51678920001723,None,343.51678920001723,None,343.51678920001723,None,345.262717540015,None,345.262717540015,None,345.262717540015,None,,,,,,,,,,,,,003,2022-05-05_17h26.19.882,Main,2022.1.1,59.99912403405818,
positive,neutral,2,l,j,,,,,,,,,5,4,94,17,,,,,,,,,main,1,1,2,neutral,positive,j,j,1,0.8299078999552876,345.2674261999782,346.2793717000168,346.2628086999757,None,345.2674261999782,None,345.2674261999782,None,345.2674261999782,None,347.0960097400122,None,347.0960097400122,None,347.0960097400122,None,,,,,,,,,,,,,003,2022-05-05_17h26.19.882,Main,2022.1.1,59.99912403405818,
neutral,negative,1,k,k,,,,,,,,,5,5,95,7,,,,,,,,,main,1,1,1,negative,neutral,k,k,1,0.7984516000142321,347.09924650005996,348.11264980002306,348.0959900000598,None,347.09924650005996,None,347.09924650005996,None,347.09924650005996,None,348.89596763997105,None,348.89596763997105,None,348.89596763997105,None,,,,,,,,,,,,,003,2022-05-05_17h26.19.882,Main,2022.1.1,59.99912403405818,
neutral,negative,2,k,k,,,,,,,,,5,6,96,16,,,,,,,,,main,1,1,2,negative,neutral,k,k,1,0.7980359999928623,348.90151600004174,349.91260679997504,349.89592849998735,None,348.90151600004174,None,348.90151600004174,None,348.90151600004174,None,350.6959192399983,None,350.6959192399983,None,350.6959192399983,None,,,,,,,,,,,,,003,2022-05-05_17h26.19.882,Main,2022.1.1,59.99912403405818,
positive,negative,1,l,j,,,,,,,,,5,7,97,5,,,,,,,,,main,2,2,1,negative,positive,j,j,1,0.8483965001069009,350.69995470007416,351.7126644999953,351.6960288999835,None,350.69995470007416,None,350.69995470007416,None,350.69995470007416,None,352.54587004006606,None,352.54587004006606,None,352.54587004006606,None,,,,,,,,,,,,,003,2022-05-05_17h26.19.882,Main,2022.1.1,59.99912403405818,
positive,neutral,1,l,j,,,,,,,,,5,8,98,8,,,,,,,,,main,2,2,1,neutral,positive,j,j,1,1.2152161999838427,352.54924970003776,353.5625429999782,353.5458738000598,None,352.54924970003776,None,352.54924970003776,None,352.54924970003776,None,354.76249663996276,None,354.76249663996276,None,354.76249663996276,None,,,,,,,,,,,,,003,2022-05-05_17h26.19.882,Main,2022.1.1,59.99912403405818,
negative,negative,2,j,l,,,,,,,,,5,9,99,9,,,,,,,,,main,1,1,2,negative,negative,l,l,1,0.9815764999948442,354.76840030006133,355.77916629996616,355.7624817000469,None,354.76840030006133,None,354.76840030006133,None,354.76840030006133,None,356.7458594400552,None,356.7458594400552,None,356.7458594400552,None,,,,,,,,,,,,,003,2022-05-05_17h26.19.882,Main,2022.1.1,59.99912403405818,
positive,negative,2,l,j,,,,,,,,,5,10,100,14,,,,,,,,,main,2,2,2,negative,positive,j,j,1,0.6649650000035763,356.75186740001664,357.7625076000113,357.7487198000308,None,356.75186740001664,None,356.75186740001664,None,356.75186740001664,None,358.41242234000237,None,358.41242234000237,None,358.41242234000237,None,,,,,,,,,,,,,003,2022-05-05_17h26.19.882,Main,2022.1.1,59.99912403405818,
negative,neutral,2,j,l,,,,,,,,,5,11,101,12,,,,,,,,,main,1,1,2,neutral,negative,l,l,1,0.9144500000402331,358.41646590002347,359.4290627000155,359.4124432000099,None,358.41646590002347,None,358.41646590002347,None,358.41646590002347,None,360.32906803999794,None,360.32906803999794,None,360.32906803999794,None,,,,,,,,,,,,,003,2022-05-05_17h26.19.882,Main,2022.1.1,59.99912403405818,
neutral,positive,2,k,k,,,,,,,,,5,12,102,13,,,,,,,,,main,1,1,2,positive,neutral,k,k,1,0.7994132000021636,360.33510220004246,361.3456741999835,361.32901750004385,None,360.33510220004246,None,360.33510220004246,None,360.33510220004246,None,362.12992554005467,None,362.12992554005467,None,362.12992554005467,None,,,,,,,,,,,,,003,2022-05-05_17h26.19.882,Main,2022.1.1,59.99912403405818,
positive,positive,2,l,j,,,,,,,,,5,13,103,11,,,,,,,,,main,2,2,2,positive,positive,j,j,1,0.6629416999639943,362.13632330007385,363.14566689997446,363.12900419998914,None,362.13632330007385,None,362.13632330007385,None,362.13632330007385,None,363.7956052400288,None,363.7956052400288,None,363.7956052400288,None,,,,,,,,,,,,,003,2022-05-05_17h26.19.882,Main,2022.1.1,59.99912403405818,
negative,positive,2,j,l,,,,,,,,,5,14,104,15,,,,,,,,,main,2,2,2,positive,negative,l,l,1,0.648612399934791,363.7990410999628,364.7985472000437,364.7818060000427,None,363.7990410999628,None,363.7990410999628,None,363.7990410999628,None,365.44559343996224,None,365.44559343996224,None,365.44559343996224,None,,,,,,,,,,,,,003,2022-05-05_17h26.19.882,Main,2022.1.1,59.99912403405818,
neutral,neutral,1,k,k,,,,,,,,,5,15,105,1,,,,,,,,,main,2,2,1,neutral,neutral,k,k,1,0.6983946999534965,365.4489170999732,366.4622334999731,366.4455819000723,None,365.4489170999732,None,365.4489170999732,None,365.4489170999732,None,367.14557934004114,None,367.14557934004114,None,367.14557934004114,None,,,,,,,,,,,,,003,2022-05-05_17h26.19.882,Main,2022.1.1,59.99912403405818,
negative,neutral,1,j,l,,,,,,,,,5,16,106,3,,,,,,,,,main,1,1,1,neutral,negative,l,l,1,0.8313455000752583,367.1490660000127,368.1622392999707,368.145555300056,None,367.1490660000127,None,367.1490660000127,None,367.1490660000127,None,368.9788686400163,None,368.9788686400163,None,368.9788686400163,None,,,,,,,,,,,,,003,2022-05-05_17h26.19.882,Main,2022.1.1,59.99912403405818,
neutral,neutral,2,k,k,,,,,,,,,5,17,107,10,,,,,,,,,main,2,2,2,neutral,neutral,k,k,1,0.6985246000112966,368.984225400025,369.9955167999724,369.9788416000083,None,368.984225400025,None,368.984225400025,None,368.984225400025,None,370.6788136400166,None,370.6788136400166,None,370.6788136400166,None,,,,,,,,,,,,,003,2022-05-05_17h26.19.882,Main,2022.1.1,59.99912403405818,
positive,positive,1,l,j,,,,,,,,,6,0,108,2,,,,,,,,,main,1,1,1,positive,positive,j,j,1,0.7150254000443965,370.6822371999733,371.69552740000654,371.67880430002697,None,370.6822371999733,None,370.6822371999733,None,370.6822371999733,None,372.39543754000914,None,372.39543754000914,None,372.39543754000914,None,,,,,,,,,,,,,003,2022-05-05_17h26.19.882,Main,2022.1.1,59.99912403405818,
negative,neutral,1,j,l,,,,,,,,,6,1,109,3,,,,,,,,,main,2,2,1,neutral,negative,l,l,1,0.681780599988997,372.40079510002397,373.4120918000117,373.39555100002326,None,372.40079510002397,None,372.40079510002397,None,372.40079510002397,None,374.0787538400502,None,374.0787538400502,None,374.0787538400502,None,,,,,,,,,,,,,003,2022-05-05_17h26.19.882,Main,2022.1.1,59.99912403405818,
positive,negative,1,l,j,,,,,,,,,6,2,110,5,,,,,,,,,main,1,1,1,negative,positive,j,j,1,0.6493364000925794,374.08457549999,375.0954028000124,375.0816792000551,None,374.08457549999,None,374.08457549999,None,374.08457549999,None,375.7296778400079,None,375.7296778400079,None,375.7296778400079,None,,,,,,,,,,,,,003,2022-05-05_17h26.19.882,Main,2022.1.1,59.99912403405818,
neutral,positive,1,k,k,,,,,,,,,6,3,111,4,,,,,,,,,main,1,1,1,positive,neutral,k,k,1,0.7472160999896005,375.7357006999664,376.74537000001874,376.72870049998164,None,375.7357006999664,None,375.7357006999664,None,375.7357006999664,None,377.47865264000137,None,377.47865264000137,None,377.47865264000137,None,,,,,,,,,,,,,003,2022-05-05_17h26.19.882,Main,2022.1.1,59.99912403405818,
neutral,neutral,2,k,k,,,,,,,,,6,4,112,10,,,,,,,,,main,2,2,2,neutral,neutral,k,k,1,0.7317470000125468,377.48221140005626,378.4953259000322,378.4787358000176,None,377.48221140005626,None,377.48221140005626,None,377.48221140005626,None,379.2119735400076,None,379.2119735400076,None,379.2119735400076,None,,,,,,,,,,,,,003,2022-05-05_17h26.19.882,Main,2022.1.1,59.99912403405818,
positive,positive,2,l,j,,,,,,,,,6,5,113,11,,,,,,,,,main,1,1,2,positive,positive,j,j,1,0.7982890999410301,379.21536260005087,380.2286880000029,380.1952867000364,None,379.21536260005087,None,379.21536260005087,None,379.21536260005087,None,381.01191813998156,None,381.01191813998156,None,381.01191813998156,None,,,,,,,,,,,,,003,2022-05-05_17h26.19.882,Main,2022.1.1,59.99912403405818,
negative,negative,1,j,l,,,,,,,,,6,6,114,0,,,,,,,,,main,1,1,1,negative,negative,l,l,1,0.8317684999201447,381.0172987000551,382.0285663000541,382.01191010000184,None,381.0172987000551,None,381.0172987000551,None,381.0172987000551,None,382.84524283999343,None,382.84524283999343,None,382.84524283999343,None,,,,,,,,,,,,,003,2022-05-05_17h26.19.882,Main,2022.1.1,59.99912403405818,
neutral,negative,1,k,k,,,,,,,,,6,7,115,7,,,,,,,,,main,2,2,1,negative,neutral,k,k,1,0.6983712000073865,382.84865629998967,383.861920400057,383.84520079998765,None,382.84865629998967,None,382.84865629998967,None,382.84865629998967,None,384.54518573997774,None,384.54518573997774,None,384.54518573997774,None,,,,,,,,,,,,,003,2022-05-05_17h26.19.882,Main,2022.1.1,59.99912403405818,
neutral,neutral,1,k,k,,,,,,,,,6,8,116,1,,,,,,,,,main,2,2,1,neutral,neutral,k,k,1,0.6650978999678046,384.55129259999376,385.5618297000183,385.54517140006647,None,384.55129259999376,None,384.55129259999376,None,384.55129259999376,None,386.21196094002806,None,386.21196094002806,None,386.21196094002806,None,,,,,,,,,,,,,003,2022-05-05_17h26.19.882,Main,2022.1.1,59.99912403405818,
negative,positive,2,j,l,,,,,,,,,6,9,117,15,,,,,,,,,main,2,2,2,positive,negative,l,l,1,0.6817900999449193,386.2152285000775,387.22848419996444,387.2118194999639,None,386.2152285000775,None,386.2152285000775,None,386.2152285000775,None,387.89511233997763,None,387.89511233997763,None,387.89511233997763,None,,,,,,,,,,,,,003,2022-05-05_17h26.19.882,Main,2022.1.1,59.99912403405818,
positive,neutral,2,l,j,,,,,,,,,6,10,118,17,,,,,,,,,main,1,1,2,neutral,positive,j,j,1,0.7649874000344425,387.9005218000384,388.91186630004086,388.8951731000561,None,387.9005218000384,None,387.9005218000384,None,387.9005218000384,None,389.6617338399985,None,389.6617338399985,None,389.6617338399985,None,,,,,,,,,,,,,003,2022-05-05_17h26.19.882,Main,2022.1.1,59.99912403405818,
negative,neutral,2,j,l,,,,,,,,,6,11,119,12,,,,,,,,,main,1,1,2,neutral,negative,l,l,1,0.7317058999324217,389.664920500014,390.67839140002616,390.66169560002163,None,389.664920500014,None,389.664920500014,None,389.664920500014,None,391.39502584001747,None,391.39502584001747,None,391.39502584001747,None,,,,,,,,,,,,,003,2022-05-05_17h26.19.882,Main,2022.1.1,59.99912403405818,
neutral,positive,2,k,k,,,,,,,,,6,12,120,13,,,,,,,,,main,1,1,2,positive,neutral,k,k,1,0.5983924000756815,391.3982661999762,392.4116796000162,392.3950210000621,None,391.3982661999762,None,391.3982661999762,None,391.3982661999762,None,392.99501404002075,None,392.99501404002075,None,392.99501404002075,None,,,,,,,,,,,,,003,2022-05-05_17h26.19.882,Main,2022.1.1,59.99912403405818,
positive,negative,2,l,j,,,,,,,,,6,13,121,14,,,,,,,,,main,1,1,2,negative,positive,j,j,1,0.6816575999837369,392.9990593000548,394.01164260006044,393.9949950000737,None,392.9990593000548,None,392.9990593000548,None,392.9990593000548,None,394.6783466400695,None,394.6783466400695,None,394.6783466400695,None,,,,,,,,,,,,,003,2022-05-05_17h26.19.882,Main,2022.1.1,59.99912403405818,
positive,neutral,1,l,j,,,,,,,,,6,14,122,8,,,,,,,,,main,1,1,1,neutral,positive,j,j,1,0.7315458999946713,394.68140900006983,395.6949714999646,395.6782796999905,None,394.68140900006983,None,394.68140900006983,None,394.68140900006983,None,396.4116021400434,None,396.4116021400434,None,396.4116021400434,None,,,,,,,,,,,,,003,2022-05-05_17h26.19.882,Main,2022.1.1,59.99912403405818,
negative,positive,1,j,l,,,,,,,,,6,15,123,6,,,,,,,,,main,2,2,1,positive,negative,l,l,1,0.6487282000016421,396.41468100005295,397.4282484999858,397.41157009999733,None,396.41468100005295,None,396.41468100005295,None,396.41468100005295,None,398.0615510400268,None,398.0615510400268,None,398.0615510400268,None,,,,,,,,,,,,,003,2022-05-05_17h26.19.882,Main,2022.1.1,59.99912403405818,
negative,negative,2,j,l,,,,,,,,,6,16,124,9,,,,,,,,,main,1,1,2,negative,negative,l,l,1,0.9315853000152856,398.0648562000133,399.07822580006905,399.06156070006546,None,398.0648562000133,None,398.0648562000133,None,398.0648562000133,None,399.9948488400434,None,399.9948488400434,None,399.9948488400434,None,,,,,,,,,,,,,003,2022-05-05_17h26.19.882,Main,2022.1.1,59.99912403405818,
neutral,negative,2,k,k,,,,,,,,,6,17,125,16,,,,,,,,,main,2,2,2,negative,neutral,k,k,1,0.7981937000295147,399.9982098999899,401.01151600002777,400.9948407000629,None,399.9982098999899,None,399.9982098999899,None,399.9982098999899,None,401.7947998400661,None,401.7947998400661,None,401.7947998400661,None,,,,,,,,,,,,,003,2022-05-05_17h26.19.882,Main,2022.1.1,59.99912403405818,
neutral,negative,1,k,k,,,,,,,,,7,0,126,7,,,,,,,,,main,1,1,1,negative,neutral,k,k,1,0.6652389999944717,401.79808600002434,402.8114783000201,402.7948125000112,None,401.79808600002434,None,401.79808600002434,None,401.79808600002434,None,403.46144094002665,None,403.46144094002665,None,403.46144094002665,None,,,,,,,,,,,,,003,2022-05-05_17h26.19.882,Main,2022.1.1,59.99912403405818,
neutral,positive,1,k,k,,,,,,,,,7,1,127,4,,,,,,,,,main,1,1,1,positive,neutral,k,k,1,0.648305100039579,403.4648303000722,404.4780954000307,404.4614691999741,None,403.4648303000722,None,403.4648303000722,None,403.4648303000722,None,405.11141863999654,None,405.11141863999654,None,405.11141863999654,None,,,,,,,,,,,,,003,2022-05-05_17h26.19.882,Main,2022.1.1,59.99912403405818,
negative,negative,2,j,l,,,,,,,,,7,2,128,9,,,,,,,,,main,2,2,2,negative,negative,l,l,1,0.9309127000160515,405.1154868999729,406.1280613000272,406.1113815000281,None,405.1154868999729,None,405.1154868999729,None,405.1154868999729,None,407.0448451400618,None,407.0448451400618,None,407.0448451400618,None,,,,,,,,,,,,,003,2022-05-05_17h26.19.882,Main,2022.1.1,59.99912403405818,
positive,negative,1,l,j,,,,,,,,,7,3,129,5,,,,,,,,,main,2,2,1,negative,positive,j,j,1,0.7150071000214666,407.04811960004736,408.0614107999718,408.044759200071,None,407.04811960004736,None,407.04811960004736,None,407.04811960004736,None,408.761349440075,None,408.761349440075,None,408.761349440075,None,,,,,,,,,,,,,003,2022-05-05_17h26.19.882,Main,2022.1.1,59.99912403405818,
positive,positive,2,l,j,,,,,,,,,7,4,130,11,,,,,,,,,main,1,1,2,positive,positive,j,j,1,1.2994755000108853,408.7649486999726,409.7780558000086,409.76133310003206,None,408.7649486999726,None,408.7649486999726,None,408.7649486999726,None,411.0613978400244,None,411.0613978400244,None,411.0613978400244,None,,,,,,,,,,,,,003,2022-05-05_17h26.19.882,Main,2022.1.1,59.99912403405818,
positive,negative,2,l,j,,,,,,,,,7,5,131,14,,,,,,,,,main,2,2,2,negative,positive,j,j,1,0.7470954000018537,411.0674948999658,412.07795329997316,412.0612923000008,None,411.0674948999658,None,411.0674948999658,None,411.0674948999658,None,412.81128184007247,None,412.81128184007247,None,412.81128184007247,None,,,,,,,,,,,,,003,2022-05-05_17h26.19.882,Main,2022.1.1,59.99912403405818,
negative,neutral,1,j,l,,,,,,,,,7,6,132,3,,,,,,,,,main,2,2,1,neutral,negative,l,l,1,0.7485241999384016,412.8146209999686,413.8307550000027,413.81417590007186,None,412.8146209999686,None,412.8146209999686,None,412.8146209999686,None,414.5612072399701,None,414.5612072399701,None,414.5612072399701,None,,,,,,,,,,,,,003,2022-05-05_17h26.19.882,Main,2022.1.1,59.99912403405818,
positive,positive,1,l,j,,,,,,,,,7,7,133,2,,,,,,,,,main,1,1,1,positive,positive,j,j,1,0.6993502000113949,414.5646575000137,415.5778533000266,415.56118239997886,None,414.5646575000137,None,414.5646575000137,None,414.5646575000137,None,416.261178640055,None,416.261178640055,None,416.261178640055,None,,,,,,,,,,,,,003,2022-05-05_17h26.19.882,Main,2022.1.1,59.99912403405818,
neutral,neutral,1,k,k,,,,,,,,,7,8,134,1,,,,,,,,,main,1,1,1,neutral,neutral,k,k,1,0.747273699962534,416.265189900063,417.2778292000294,417.26410150004085,None,416.265189900063,None,416.265189900063,None,416.265189900063,None,418.0111131400219,None,418.0111131400219,None,418.0111131400219,None,,,,,,,,,,,,,003,2022-05-05_17h26.19.882,Main,2022.1.1,59.99912403405818,
negative,negative,1,j,l,,,,,,,,,7,9,135,0,,,,,,,,,main,2,2,1,negative,negative,l,l,1,0.7818607999943197,418.014585900004,419.02779299998656,419.01112819998525,None,418.014585900004,None,418.014585900004,None,418.014585900004,None,419.7943253400619,None,419.7943253400619,None,419.7943253400619,None,,,,,,,,,,,,,003,2022-05-05_17h26.19.882,Main,2022.1.1,59.99912403405818,
negative,positive,1,j,l,,,,,,,,,7,10,136,6,,,,,,,,,main,1,1,1,positive,negative,l,l,1,0.6483014000114053,419.8010736000724,420.8111877000192,420.7944461000152,None,419.8010736000724,None,419.8010736000724,None,419.8010736000724,None,421.4443824400543,None,421.4443824400543,None,421.4443824400543,None,,,,,,,,,,,,,003,2022-05-05_17h26.19.882,Main,2022.1.1,59.99912403405818,
neutral,negative,2,k,k,,,,,,,,,7,11,137,16,,,,,,,,,main,1,1,2,negative,neutral,k,k,1,0.7640428000595421,421.4484773000004,422.46102639997844,422.44445860001724,None,421.4484773000004,None,421.4484773000004,None,421.4484773000004,None,423.2111381400493,None,423.2111381400493,None,423.2111381400493,None,,,,,,,,,,,,,003,2022-05-05_17h26.19.882,Main,2022.1.1,59.99912403405818,
neutral,neutral,2,k,k,,,,,,,,,7,12,138,10,,,,,,,,,main,2,2,2,neutral,neutral,k,k,1,0.7321394000900909,423.2144869000185,424.22766249999404,424.2110007000156,None,423.2144869000185,None,423.2144869000185,None,423.2144869000185,None,424.94489744001766,None,424.94489744001766,None,424.94489744001766,None,,,,,,,,,,,,,003,2022-05-05_17h26.19.882,Main,2022.1.1,59.99912403405818,
negative,neutral,2,j,l,,,,,,,,,7,13,139,12,,,,,,,,,main,1,1,2,neutral,negative,l,l,1,0.8146793000632897,424.95118099998217,425.96098009997513,425.9443095000461,None,424.95118099998217,None,424.95118099998217,None,424.95118099998217,None,426.7609384399722,None,426.7609384399722,None,426.7609384399722,None,,,,,,,,,,,,,003,2022-05-05_17h26.19.882,Main,2022.1.1,59.99912403405818,
positive,neutral,2,l,j,,,,,,,,,7,14,140,17,,,,,,,,,main,1,1,2,neutral,positive,j,j,1,0.7148555999156088,426.7648304000031,427.77760500006843,427.7609522000421,None,426.7648304000031,None,426.7648304000031,None,426.7648304000031,None,428.4775600400637,None,428.4775600400637,None,428.4775600400637,None,,,,,,,,,,,,,003,2022-05-05_17h26.19.882,Main,2022.1.1,59.99912403405818,
positive,neutral,1,l,j,,,,,,,,,7,15,141,8,,,,,,,,,main,2,2,1,neutral,positive,j,j,1,1.166139499982819,428.4810231999727,429.4942232000176,429.4608624000102,None,428.4810231999727,None,428.4810231999727,None,428.4810231999727,None,430.64417803996474,None,430.64417803996474,None,430.64417803996474,None,,,,,,,,,,,,,003,2022-05-05_17h26.19.882,Main,2022.1.1,59.99912403405818,
negative,positive,2,j,l,,,,,,,,,7,16,142,15,,,,,,,,,main,2,2,2,positive,negative,l,l,1,0.7310148000251502,430.64829789998475,431.66082340001594,431.6441802000627,None,430.64829789998475,None,430.64829789998475,None,430.64829789998475,None,432.3775053400197,None,432.3775053400197,None,432.3775053400197,None,,,,,,,,,,,,,003,2022-05-05_17h26.19.882,Main,2022.1.1,59.99912403405818,
neutral,positive,2,k,k,,,,,,,,,7,17,143,13,,,,,,,,,main,2,2,2,positive,neutral,k,k,1,0.7808282000478357,432.38362660002895,433.39418259996455,433.3775334999664,None,432.38362660002895,None,432.38362660002895,None,432.38362660002895,None,434.16061673999064,None,434.16061673999064,None,434.16061673999064,None,,,,,,,,,,,,,003,2022-05-05_17h26.19.882,Main,2022.1.1,59.99912403405818,
positive,neutral,2,l,j,,,,,,,,,8,0,144,17,,,,,,,,,main,1,1,2,neutral,positive,j,j,1,0.7149191999342293,434.167449700064,435.17747920006514,435.160770000075,None,434.167449700064,None,434.167449700064,None,434.167449700064,None,435.8775231400388,None,435.8775231400388,None,435.8775231400388,None,,,,,,,,,,,,,003,2022-05-05_17h26.19.882,Main,2022.1.1,59.99912403405818,
positive,negative,1,l,j,,,,,,,,,8,1,145,5,,,,,,,,,main,2,2,1,negative,positive,j,j,1,0.7483840000350028,435.8832350000739,436.89406620000955,436.8773980999831,None,435.8832350000739,None,435.8832350000739,None,435.8832350000739,None,437.6274121400085,None,437.6274121400085,None,437.6274121400085,None,,,,,,,,,,,,,003,2022-05-05_17h26.19.882,Main,2022.1.1,59.99912403405818,
positive,positive,1,l,j,,,,,,,,,8,2,146,2,,,,,,,,,main,2,2,1,positive,positive,j,j,1,0.7483073999173939,437.63103240006603,438.6273378999904,438.6273378999904,None,437.63103240006603,None,437.63103240006603,None,437.63103240006603,None,439.3773405400454,None,439.3773405400454,None,439.3773405400454,None,,,,,,,,,,,,,003,2022-05-05_17h26.19.882,Main,2022.1.1,59.99912403405818,
negative,neutral,1,j,l,,,,,,,,,8,3,147,3,,,,,,,,,main,1,1,1,neutral,negative,l,l,1,0.8482544999569654,439.38286280003376,440.39397510001436,440.37729530001525,None,439.38286280003376,None,439.38286280003376,None,439.38286280003376,None,441.22730134007287,None,441.22730134007287,None,441.22730134007287,None,,,,,,,,,,,,,003,2022-05-05_17h26.19.882,Main,2022.1.1,59.99912403405818,
neutral,negative,1,k,k,,,,,,,,,8,4,148,7,,,,,,,,,main,1,1,1,negative,neutral,k,k,1,0.63182060001418,441.231331899995,442.2439581999788,442.22729399998207,None,441.231331899995,None,441.231331899995,None,441.231331899995,None,442.8606211399776,None,442.8606211399776,None,442.8606211399776,None,,,,,,,,,,,,,003,2022-05-05_17h26.19.882,Main,2022.1.1,59.99912403405818,
negative,negative,1,j,l,,,,,,,,,8,5,149,0,,,,,,,,,main,2,2,1,negative,negative,l,l,1,0.7650242000818253,442.8642861000262,443.87736689997837,443.86058490001597,None,442.8642861000262,None,442.8642861000262,None,442.8642861000262,None,444.62721053998683,None,444.62721053998683,None,444.62721053998683,None,,,,,,,,,,,,,003,2022-05-05_17h26.19.882,Main,2022.1.1,59.99912403405818,
negative,positive,1,j,l,,,,,,,,,8,6,150,6,,,,,,,,,main,2,2,1,positive,negative,l,l,1,0.6650766000384465,444.63083050004207,445.64385590003803,445.62724349997006,None,444.63083050004207,None,444.63083050004207,None,444.63083050004207,None,446.2938653400517,None,446.2938653400517,None,446.2938653400517,None,,,,,,,,,,,,,003,2022-05-05_17h26.19.882,Main,2022.1.1,59.99912403405818,
negative,neutral,2,j,l,,,,,,,,,8,7,151,12,,,,,,,,,main,1,1,2,neutral,negative,l,l,1,0.6980938001070172,446.2974716000026,447.310505200061,447.29384309996385,None,446.2974716000026,None,446.2974716000026,None,446.2974716000026,None,447.9938268400612,None,447.9938268400612,None,447.9938268400612,None,,,,,,,,,,,,,003,2022-05-05_17h26.19.882,Main,2022.1.1,59.99912403405818,
negative,negative,2,j,l,,,,,,,,,8,8,152,9,,,,,,,,,main,2,2,2,negative,negative,l,l,1,0.6869614999741316,447.99691850005183,449.0104787000455,448.99381430004723,None,447.99691850005183,None,447.99691850005183,None,447.99691850005183,None,449.6772074400098,None,449.6772074400098,None,449.6772074400098,None,,,,,,,,,,,,,003,2022-05-05_17h26.19.882,Main,2022.1.1,59.99912403405818,
negative,positive,2,j,l,,,,,,,,,8,9,153,15,,,,,,,,,main,2,2,2,positive,negative,l,l,1,0.5924624999752268,449.69102939998265,450.69377060001716,450.6771546000382,None,449.69102939998265,None,449.69102939998265,None,449.69102939998265,None,451.2770827399683,None,451.2770827399683,None,451.2770827399683,None,,,,,,,,,,,,,003,2022-05-05_17h26.19.882,Main,2022.1.1,59.99912403405818,
neutral,positive,2,k,k,,,,,,,,,8,10,154,13,,,,,,,,,main,1,1,2,positive,neutral,k,k,1,0.9649132000049576,451.28069000004325,452.29370859998744,452.27704379998613,None,451.28069000004325,None,451.28069000004325,None,451.28069000004325,None,453.2437169400393,None,453.2437169400393,None,453.2437169400393,None,,,,,,,,,,,,,003,2022-05-05_17h26.19.882,Main,2022.1.1,59.99912403405818,
neutral,negative,2,k,k,,,,,,,,,8,11,155,16,,,,,,,,,main,2,2,2,negative,neutral,k,k,1,0.6982810000190511,453.2470905999653,454.243756400072,454.243756400072,None,453.2470905999653,None,453.2470905999653,None,453.2470905999653,None,454.94364834005245,None,454.94364834005245,None,454.94364834005245,None,,,,,,,,,,,,,003,2022-05-05_17h26.19.882,Main,2022.1.1,59.99912403405818,
positive,neutral,1,l,j,,,,,,,,,8,12,156,8,,,,,,,,,main,2,2,1,neutral,positive,j,j,1,0.8483653999865055,454.9470215999754,455.9604364000261,455.94365889998153,None,454.9470215999754,None,454.9470215999754,None,454.9470215999754,None,456.79365503996377,None,456.79365503996377,None,456.79365503996377,None,,,,,,,,,,,,,003,2022-05-05_17h26.19.882,Main,2022.1.1,59.99912403405818,
positive,positive,2,l,j,,,,,,,,,8,13,157,11,,,,,,,,,main,2,2,2,positive,positive,j,j,1,0.6818520000670105,456.7975648000138,457.81024690007325,457.7935967000667,None,456.7975648000138,None,456.7975648000138,None,456.7975648000138,None,458.4769031400676,None,458.4769031400676,None,458.4769031400676,None,,,,,,,,,,,,,003,2022-05-05_17h26.19.882,Main,2022.1.1,59.99912403405818,
positive,negative,2,l,j,,,,,,,,,8,14,158,14,,,,,,,,,main,2,2,2,negative,positive,j,j,1,0.7144653999712318,458.48086160002276,459.49356169998646,459.47688730002847,None,458.48086160002276,None,458.48086160002276,None,458.48086160002276,None,460.19352804006775,None,460.19352804006775,None,460.19352804006775,None,,,,,,,,,,,,,003,2022-05-05_17h26.19.882,Main,2022.1.1,59.99912403405818,
neutral,neutral,2,k,k,,,,,,,,,8,15,159,10,,,,,,,,,main,2,2,2,neutral,neutral,k,k,1,0.7981497999280691,460.19748209998943,461.2103205000749,461.19640710006934,None,460.19748209998943,None,460.19748209998943,None,460.19748209998943,None,461.9935174400336,None,461.9935174400336,None,461.9935174400336,None,,,,,,,,,,,,,003,2022-05-05_17h26.19.882,Main,2022.1.1,59.99912403405818,
neutral,positive,1,k,k,,,,,,,,,8,16,160,4,,,,,,,,,main,1,1,1,positive,neutral,k,k,1,0.8815874999854714,461.999631099985,463.01031090004835,462.9935004999861,None,461.999631099985,None,461.999631099985,None,461.999631099985,None,463.8767905400484,None,463.8767905400484,None,463.8767905400484,None,,,,,,,,,,,,,003,2022-05-05_17h26.19.882,Main,2022.1.1,59.99912403405818,
neutral,neutral,1,k,k,,,,,,,,,8,17,161,1,,,,,,,,,main,2,2,1,neutral,neutral,k,k,1,0.6984646000200883,463.8802768000169,464.89343519997783,464.8796825000318,None,463.8802768000169,None,463.8802768000169,None,463.8802768000169,None,465.57684454006375,None,465.57684454006375,None,465.57684454006375,None,,,,,,,,,,,,,003,2022-05-05_17h26.19.882,Main,2022.1.1,59.99912403405818,
neutral,positive,1,k,k,,,,,,,,,9,0,162,4,,,,,,,,,main,1,1,1,positive,neutral,k,k,1,0.665378600009717,465.5801777000306,466.5934913000092,466.5767466999823,None,465.5801777000306,None,465.5801777000306,None,465.5801777000306,None,467.2433828400564,None,467.2433828400564,None,467.2433828400564,None,,,,,,,,,,,,,003,2022-05-05_17h26.19.882,Main,2022.1.1,59.99912403405818,
negative,negative,2,j,l,,,,,,,,,9,1,163,9,,,,,,,,,main,1,1,2,negative,negative,l,l,1,0.6812907999847084,467.24722640006803,468.2600718999747,468.243368800031,None,467.24722640006803,None,467.24722640006803,None,467.24722640006803,None,468.9266910400358,None,468.9266910400358,None,468.9266910400358,None,,,,,,,,,,,,,003,2022-05-05_17h26.19.882,Main,2022.1.1,59.99912403405818,
positive,neutral,1,l,j,,,,,,,,,9,2,164,8,,,,,,,,,main,2,2,1,neutral,positive,j,j,1,0.8148868000134826,468.93081000004895,469.94337170000654,469.9266765000066,None,468.93081000004895,None,468.93081000004895,None,468.93081000004895,None,470.74330724006285,None,470.74330724006285,None,470.74330724006285,None,,,,,,,,,,,,,003,2022-05-05_17h26.19.882,Main,2022.1.1,59.99912403405818,
negative,positive,2,j,l,,,,,,,,,9,3,165,15,,,,,,,,,main,1,1,2,positive,negative,l,l,1,0.7317845999496058,470.7465375000611,471.75998079997953,471.7432989999652,None,470.7465375000611,None,470.7465375000611,None,470.7465375000611,None,472.4766088400385,None,472.4766088400385,None,472.4766088400385,None,,,,,,,,,,,,,003,2022-05-05_17h26.19.882,Main,2022.1.1,59.99912403405818,
positive,negative,2,l,j,,,,,,,,,9,4,166,14,,,,,,,,,main,2,2,2,negative,positive,j,j,1,0.7482860999880359,472.4801327000605,473.49334310006816,473.47958869999275,None,472.4801327000605,None,472.4801327000605,None,472.4801327000605,None,474.2265613400261,None,474.2265613400261,None,474.2265613400261,None,,,,,,,,,,,,,003,2022-05-05_17h26.19.882,Main,2022.1.1,59.99912403405818,
positive,neutral,2,l,j,,,,,,,,,9,5,167,17,,,,,,,,,main,2,2,2,neutral,positive,j,j,1,0.6665251000085846,474.2306185000343,475.2432394999778,475.22658020001836,None,474.2306185000343,None,474.2306185000343,None,474.2306185000343,None,475.8932059400133,None,475.8932059400133,None,475.8932059400133,None,,,,,,,,,,,,,003,2022-05-05_17h26.19.882,Main,2022.1.1,59.99912403405818,
negative,neutral,1,j,l,,,,,,,,,9,6,168,3,,,,,,,,,main,2,2,1,neutral,negative,l,l,1,0.6970260998932645,475.897806199966,476.9098611000227,476.89318140002433,None,475.897806199966,None,475.897806199966,None,475.897806199966,None,477.5932116400101,None,477.5932116400101,None,477.5932116400101,None,,,,,,,,,,,,,003,2022-05-05_17h26.19.882,Main,2022.1.1,59.99912403405818,
positive,negative,1,l,j,,,,,,,,,9,7,169,5,,,,,,,,,main,1,1,1,negative,positive,j,j,1,0.665127000072971,477.5972379000159,478.6098295999691,478.59314210002776,None,477.5972379000159,None,477.5972379000159,None,477.5972379000159,None,479.2598174400511,None,479.2598174400511,None,479.2598174400511,None,,,,,,,,,,,,,003,2022-05-05_17h26.19.882,Main,2022.1.1,59.99912403405818,
neutral,positive,2,k,k,,,,,,,,,9,8,170,13,,,,,,,,,main,2,2,2,positive,neutral,k,k,1,0.6482288000406697,479.2637347000418,480.27649890002795,480.259768399992,None,479.2637347000418,None,479.2637347000418,None,479.2637347000418,None,480.9097521400428,None,480.9097521400428,None,480.9097521400428,None,,,,,,,,,,,,,003,2022-05-05_17h26.19.882,Main,2022.1.1,59.99912403405818,
neutral,neutral,2,k,k,,,,,,,,,9,9,171,10,,,,,,,,,main,2,2,2,neutral,neutral,k,k,1,0.6493682999862358,480.9132824999979,481.92641269997694,481.9098029000452,None,480.9132824999979,None,480.9132824999979,None,480.9132824999979,None,482.5597081399639,None,482.5597081399639,None,482.5597081399639,None,,,,,,,,,,,,,003,2022-05-05_17h26.19.882,Main,2022.1.1,59.99912403405818,
positive,positive,1,l,j,,,,,,,,,9,10,172,2,,,,,,,,,main,1,1,1,positive,positive,j,j,1,0.6971848999382928,482.5638858000748,483.57636219996493,483.5596995999804,None,482.5638858000748,None,482.5638858000748,None,482.5638858000748,None,484.25967063998104,None,484.25967063998104,None,484.25967063998104,None,,,,,,,,,,,,,003,2022-05-05_17h26.19.882,Main,2022.1.1,59.99912403405818,
neutral,negative,1,k,k,,,,,,,,,9,11,173,7,,,,,,,,,main,2,2,1,negative,neutral,k,k,1,0.9318048000568524,484.2640619999729,485.27646129997447,485.25968380004633,None,484.2640619999729,None,484.2640619999729,None,484.2640619999729,None,486.19304864002623,None,486.19304864002623,None,486.19304864002623,None,,,,,,,,,,,,,003,2022-05-05_17h26.19.882,Main,2022.1.1,59.99912403405818,
negative,negative,1,j,l,,,,,,,,,9,12,174,0,,,,,,,,,main,2,2,1,negative,negative,l,l,1,0.8160970999160782,486.19631260004826,487.212601599982,487.1930445000762,None,486.19631260004826,None,486.19631260004826,None,486.19631260004826,None,488.0095978400088,None,488.0095978400088,None,488.0095978400088,None,,,,,,,,,,,,,003,2022-05-05_17h26.19.882,Main,2022.1.1,59.99912403405818,
neutral,neutral,1,k,k,,,,,,,,,9,13,175,1,,,,,,,,,main,1,1,1,neutral,neutral,k,k,1,0.8303984999656677,488.0157396000577,489.02921519998927,489.009597199969,None,488.0157396000577,None,488.0157396000577,None,488.0157396000577,None,489.84289664005627,None,489.84289664005627,None,489.84289664005627,None,,,,,,,,,,,,,003,2022-05-05_17h26.19.882,Main,2022.1.1,59.99912403405818,
positive,positive,2,l,j,,,,,,,,,9,14,176,11,,,,,,,,,main,2,2,2,positive,positive,j,j,1,0.7152453000890091,489.84631539997645,490.8596028999891,490.84304459998384,None,489.84631539997645,None,489.84631539997645,None,489.84631539997645,None,491.5596522400039,None,491.5596522400039,None,491.5596522400039,None,,,,,,,,,,,,,003,2022-05-05_17h26.19.882,Main,2022.1.1,59.99912403405818,
negative,neutral,2,j,l,,,,,,,,,9,15,177,12,,,,,,,,,main,2,2,2,neutral,negative,l,l,1,0.8506697999546304,491.56308850005735,492.5763087000232,492.55951519997325,None,491.56308850005735,None,491.56308850005735,None,491.56308850005735,None,493.4095051400247,None,493.4095051400247,None,493.4095051400247,None,,,,,,,,,,,,,003,2022-05-05_17h26.19.882,Main,2022.1.1,59.99912403405818,
neutral,negative,2,k,k,,,,,,,,,9,16,178,16,,,,,,,,,main,2,2,2,negative,neutral,k,k,1,0.8959480000194162,493.4158371000085,494.4261526999762,494.4094791000243,None,493.4158371000085,None,493.4158371000085,None,493.4158371000085,None,495.309467739996,None,495.309467739996,None,495.309467739996,None,,,,,,,,,,,,,003,2022-05-05_17h26.19.882,Main,2022.1.1,59.99912403405818,
negative,positive,1,j,l,,,,,,,,,9,17,179,6,,,,,,,,,main,2,2,1,positive,negative,l,l,1,0.7318018999649212,495.3130947999889,496.3261934000766,496.3094244999811,None,495.3130947999889,None,495.3130947999889,None,495.3130947999889,None,497.04276863996637,None,497.04276863996637,None,497.04276863996637,None,,,,,,,,,,,,,003,2022-05-05_17h26.19.882,Main,2022.1.1,59.99912403405818,
positive,positive,1,l,j,,,,,,,,,10,0,180,2,,,,,,,,,main,2,2,1,positive,positive,j,j,1,0.6648822000715882,497.04635950003285,498.0594582000049,498.0427401000634,None,497.04635950003285,None,497.04635950003285,None,497.04635950003285,None,498.7093604400172,None,498.7093604400172,None,498.7093604400172,None,,,,,,,,,,,,,003,2022-05-05_17h26.19.882,Main,2022.1.1,59.99912403405818,
negative,negative,2,j,l,,,,,,,,,10,1,181,9,,,,,,,,,main,2,2,2,negative,negative,l,l,1,0.6818008000263944,498.7127116000047,499.7260274,499.7123057000572,None,498.7127116000047,None,498.7127116000047,None,498.7127116000047,None,500.3927528400556,None,500.3927528400556,None,500.3927528400556,None,,,,,,,,,,,,,003,2022-05-05_17h26.19.882,Main,2022.1.1,59.99912403405818,
neutral,neutral,1,k,k,,,,,,,,,10,2,182,1,,,,,,,,,main,2,2,1,neutral,neutral,k,k,1,0.7483434000751004,500.39590550004505,501.412142300047,501.39267219998874,None,500.39590550004505,None,500.39590550004505,None,500.39590550004505,None,502.14267564004984,None,502.14267564004984,None,502.14267564004984,None,,,,,,,,,,,,,003,2022-05-05_17h26.19.882,Main,2022.1.1,59.99912403405818,
neutral,negative,2,k,k,,,,,,,,,10,3,183,16,,,,,,,,,main,2,2,2,negative,neutral,k,k,1,0.9984926000470296,502.1459440999897,503.1593660999788,503.14261630002875,None,502.1459440999897,None,502.1459440999897,None,502.1459440999897,None,504.1426027399604,None,504.1426027399604,None,504.1426027399604,None,,,,,,,,,,,,,003,2022-05-05_17h26.19.882,Main,2022.1.1,59.99912403405818,
positive,neutral,2,l,j,,,,,,,,,10,4,184,17,,,,,,,,,main,1,1,2,neutral,positive,j,j,1,0.8483851999044418,504.14610600005835,505.15926039998885,505.14264029997867,None,504.14610600005835,None,504.14610600005835,None,504.14610600005835,None,505.9925567400525,None,505.9925567400525,None,505.9925567400525,None,,,,,,,,,,,,,003,2022-05-05_17h26.19.882,Main,2022.1.1,59.99912403405818,
negative,neutral,2,j,l,,,,,,,,,10,5,185,12,,,,,,,,,main,2,2,2,neutral,negative,l,l,1,0.7650945000350475,505.9958782000467,507.0092130000703,506.99259589996655,None,505.9958782000467,None,505.9958782000467,None,505.9958782000467,None,507.75917774006956,None,507.75917774006956,None,507.75917774006956,None,,,,,,,,,,,,,003,2022-05-05_17h26.19.882,Main,2022.1.1,59.99912403405818,
negative,negative,1,j,l,,,,,,,,,10,6,186,0,,,,,,,,,main,2,2,1,negative,negative,l,l,1,0.7664411999285221,507.763300599996,508.77582229999825,508.7591656000586,None,507.763300599996,None,507.763300599996,None,507.763300599996,None,509.52586404000175,None,509.52586404000175,None,509.52586404000175,None,,,,,,,,,,,,,003,2022-05-05_17h26.19.882,Main,2022.1.1,59.99912403405818,
positive,negative,2,l,j,,,,,,,,,10,7,187,14,,,,,,,,,main,1,1,2,negative,positive,j,j,1,0.762799899908714,509.5312631999841,510.5424785000505,510.5258145000553,None,509.5312631999841,None,509.5312631999841,None,509.5312631999841,None,511.2924433400505,None,511.2924433400505,None,511.2924433400505,None,,,,,,,,,,,,,003,2022-05-05_17h26.19.882,Main,2022.1.1,59.99912403405818,
neutral,negative,1,k,k,,,,,,,,,10,8,188,7,,,,,,,,,main,2,2,1,negative,neutral,k,k,1,0.7656528999796137,511.2956553000258,512.3090963000432,512.2924535999773,None,511.2956553000258,None,511.2956553000258,None,511.2956553000258,None,513.0591381400475,None,513.0591381400475,None,513.0591381400475,None,,,,,,,,,,,,,003,2022-05-05_17h26.19.882,Main,2022.1.1,59.99912403405818,
positive,positive,2,l,j,,,,,,,,,10,9,189,11,,,,,,,,,main,1,1,2,positive,positive,j,j,1,0.6979841999709606,513.0628564000363,514.0757408000063,514.0590590999927,None,513.0628564000363,None,513.0628564000363,None,513.0628564000363,None,514.7590362400399,None,514.7590362400399,None,514.7590362400399,None,,,,,,,,,,,,,003,2022-05-05_17h26.19.882,Main,2022.1.1,59.99912403405818,
neutral,neutral,2,k,k,,,,,,,,,10,10,190,10,,,,,,,,,main,2,2,2,neutral,neutral,k,k,1,0.7985220999689773,514.7626110999845,515.7785664000548,515.7618376000319,None,514.7626110999845,None,514.7626110999845,None,514.7626110999845,None,516.5591204400291,None,516.5591204400291,None,516.5591204400291,None,,,,,,,,,,,,,003,2022-05-05_17h26.19.882,Main,2022.1.1,59.99912403405818,
neutral,positive,1,k,k,,,,,,,,,10,11,191,4,,,,,,,,,main,1,1,1,positive,neutral,k,k,1,0.6982023000018671,516.5625103999628,517.5784066000488,517.5589925000677,None,516.5625103999628,None,516.5625103999628,None,516.5625103999628,None,518.2589440400363,None,518.2589440400363,None,518.2589440400363,None,,,,,,,,,,,,,003,2022-05-05_17h26.19.882,Main,2022.1.1,59.99912403405818,
negative,neutral,1,j,l,,,,,,,,,10,12,192,3,,,,,,,,,main,1,1,1,neutral,negative,l,l,1,0.8984262000303715,518.2621551000047,519.2785601000069,519.2589513000567,None,518.2621551000047,None,518.2621551000047,None,518.2621551000047,None,520.1589033399825,None,520.1589033399825,None,520.1589033399825,None,,,,,,,,,,,,,003,2022-05-05_17h26.19.882,Main,2022.1.1,59.99912403405818,
negative,positive,2,j,l,,,,,,,,,10,13,193,15,,,,,,,,,main,1,1,2,positive,negative,l,l,1,0.8309869000222534,520.1649974000175,521.1759253999917,521.158930900041,None,520.1649974000175,None,520.1649974000175,None,520.1649974000175,None,521.9921945399722,None,521.9921945399722,None,521.9921945399722,None,,,,,,,,,,,,,003,2022-05-05_17h26.19.882,Main,2022.1.1,59.99912403405818,
neutral,positive,2,k,k,,,,,,,,,10,14,194,13,,,,,,,,,main,2,2,2,positive,neutral,k,k,1,0.7490512999938801,521.9960156000452,523.0088571000379,522.9921920000343,None,521.9960156000452,None,521.9960156000452,None,521.9960156000452,None,523.7428917400423,None,523.7428917400423,None,523.7428917400423,None,,,,,,,,,,,,,003,2022-05-05_17h26.19.882,Main,2022.1.1,59.99912403405818,
positive,neutral,1,l,j,,,,,,,,,10,15,195,8,,,,,,,,,main,2,2,1,neutral,positive,j,j,1,0.6806875000474975,523.749125399976,524.758806400001,524.7452089000726,None,523.749125399976,None,523.749125399976,None,523.749125399976,None,525.4254588399665,None,525.4254588399665,None,525.4254588399665,None,,,,,,,,,,,,,003,2022-05-05_17h26.19.882,Main,2022.1.1,59.99912403405818,
negative,positive,1,j,l,,,,,,,,,10,16,196,6,,,,,,,,,main,1,1,1,positive,negative,l,l,1,0.8318663999671116,525.4292773000197,526.4421063000336,526.4254560000263,None,525.4292773000197,None,525.4292773000197,None,525.4292773000197,None,527.2587799400674,None,527.2587799400674,None,527.2587799400674,None,,,,,,,,,,,,,003,2022-05-05_17h26.19.882,Main,2022.1.1,59.99912403405818,
positive,negative,1,l,j,,,,,,,,,10,17,197,5,,,,,,,,,main,1,1,1,negative,positive,j,j,1,0.8324215000029653,527.26223880006,528.2754792000633,528.258757499978,None,527.26223880006,None,527.26223880006,None,527.26223880006,None,529.0920552400523,None,529.0920552400523,None,529.0920552400523,None,,,,,,,,,,,,,003,2022-05-05_17h26.19.882,Main,2022.1.1,59.99912403405818,
neutral,neutral,1,k,k,,,,,,,,,11,0,198,1,,,,,,,,,main,1,1,1,neutral,neutral,k,k,1,0.7473669000901282,529.0964685999788,530.1086931000464,530.0948728000512,None,529.0964685999788,None,529.0964685999788,None,529.0964685999788,None,530.8420207400225,None,530.8420207400225,None,530.8420207400225,None,,,,,,,,,,,,,003,2022-05-05_17h26.19.882,Main,2022.1.1,59.99912403405818,
negative,neutral,1,j,l,,,,,,,,,11,1,199,3,,,,,,,,,main,1,1,1,neutral,negative,l,l,1,0.7651042999932542,530.8451206000755,531.858660900034,531.8420429000398,None,530.8451206000755,None,530.8451206000755,None,530.8451206000755,None,532.6086289400585,None,532.6086289400585,None,532.6086289400585,None,,,,,,,,,,,,,003,2022-05-05_17h26.19.882,Main,2022.1.1,59.99912403405818,
positive,negative,2,l,j,,,,,,,,,11,2,200,14,,,,,,,,,main,2,2,2,negative,positive,j,j,1,0.764971400029026,532.6120905000716,533.6086154000368,533.6086154000368,None,532.6120905000716,None,532.6120905000716,None,532.6120905000716,None,534.3753337400151,None,534.3753337400151,None,534.3753337400151,None,,,,,,,,,,,,,003,2022-05-05_17h26.19.882,Main,2022.1.1,59.99912403405818,
neutral,positive,1,k,k,,,,,,,,,11,3,201,4,,,,,,,,,main,1,1,1,positive,neutral,k,k,1,0.998276500031352,534.3787042000331,535.3919383999892,535.3752772000153,None,534.3787042000331,None,534.3787042000331,None,534.3787042000331,None,536.3752281400259,None,536.3752281400259,None,536.3752281400259,None,,,,,,,,,,,,,003,2022-05-05_17h26.19.882,Main,2022.1.1,59.99912403405818,
positive,positive,1,l,j,,,,,,,,,11,4,202,2,,,,,,,,,main,1,1,1,positive,positive,j,j,1,1.0172033999115229,536.378582400037,537.3918923999881,537.3752725999802,None,536.378582400037,None,536.378582400037,None,536.378582400037,None,538.3926937400713,None,538.3926937400713,None,538.3926937400713,None,,,,,,,,,,,,,003,2022-05-05_17h26.19.882,Main,2022.1.1,59.99912403405818,
neutral,negative,1,k,k,,,,,,,,,11,5,203,7,,,,,,,,,main,1,1,1,negative,neutral,k,k,1,0.7960810998920351,538.3992014999967,539.408512199996,539.3918587999651,None,538.3992014999967,None,538.3992014999967,None,538.3992014999967,None,540.1918147400604,None,540.1918147400604,None,540.1918147400604,None,,,,,,,,,,,,,003,2022-05-05_17h26.19.882,Main,2022.1.1,59.99912403405818,
neutral,positive,2,k,k,,,,,,,,,11,6,204,13,,,,,,,,,main,2,2,2,positive,neutral,k,k,1,0.7149822999490425,540.1960871999618,541.2085022999672,541.1918186000548,None,540.1960871999618,None,540.1960871999618,None,540.1960871999618,None,541.9084279399715,None,541.9084279399715,None,541.9084279399715,None,,,,,,,,,,,,,003,2022-05-05_17h26.19.882,Main,2022.1.1,59.99912403405818,
positive,positive,2,l,j,,,,,,,,,11,7,205,11,,,,,,,,,main,2,2,2,positive,positive,j,j,1,0.7485444999765605,541.9124217999633,542.9251747999806,542.9084717000369,None,541.9124217999633,None,541.9124217999633,None,541.9124217999633,None,543.6583929400542,None,543.6583929400542,None,543.6583929400542,None,,,,,,,,,,,,,003,2022-05-05_17h26.19.882,Main,2022.1.1,59.99912403405818,
negative,positive,2,j,l,,,,,,,,,11,8,206,15,,,,,,,,,main,1,1,2,positive,negative,l,l,1,0.6639036999549717,543.6646310000215,544.6750716000097,544.6583949000342,None,543.6646310000215,None,543.6646310000215,None,543.6646310000215,None,545.3247617400368,None,545.3247617400368,None,545.3247617400368,None,,,,,,,,,,,,,003,2022-05-05_17h26.19.882,Main,2022.1.1,59.99912403405818,
negative,negative,1,j,l,,,,,,,,,11,9,207,0,,,,,,,,,main,1,1,1,negative,negative,l,l,1,0.8153849999653175,545.3311314000748,546.3444593000459,546.30835940002,None,545.3311314000748,None,545.3311314000748,None,545.3311314000748,None,547.1416627400206,None,547.1416627400206,None,547.1416627400206,None,,,,,,,,,,,,,003,2022-05-05_17h26.19.882,Main,2022.1.1,59.99912403405818,
positive,neutral,2,l,j,,,,,,,,,11,10,208,17,,,,,,,,,main,2,2,2,neutral,positive,j,j,1,0.7481894000666216,547.1451667000074,548.1583031000337,548.1416869000532,None,547.1451667000074,None,547.1451667000074,None,547.1451667000074,None,548.8916105399724,None,548.8916105399724,None,548.8916105399724,None,,,,,,,,,,,,,003,2022-05-05_17h26.19.882,Main,2022.1.1,59.99912403405818,
neutral,neutral,2,k,k,,,,,,,,,11,11,209,10,,,,,,,,,main,1,1,2,neutral,neutral,k,k,1,0.731820399989374,548.894728400046,549.9082767000655,549.8916969000129,None,548.894728400046,None,548.894728400046,None,548.894728400046,None,550.6249146399671,None,550.6249146399671,None,550.6249146399671,None,,,,,,,,,,,,,003,2022-05-05_17h26.19.882,Main,2022.1.1,59.99912403405818,
negative,positive,1,j,l,,,,,,,,,11,12,210,6,,,,,,,,,main,1,1,1,positive,negative,l,l,1,0.7816825000336394,550.6284937000601,551.6415853999788,551.6249215999851,None,550.6284937000601,None,550.6284937000601,None,550.6284937000601,None,552.4082242400502,None,552.4082242400502,None,552.4082242400502,None,,,,,,,,,,,,,003,2022-05-05_17h26.19.882,Main,2022.1.1,59.99912403405818,
positive,negative,1,l,j,,,,,,,,,11,13,211,5,,,,,,,,,main,2,2,1,negative,positive,j,j,1,0.7649781000800431,552.411758900038,553.424878400052,553.4082129000453,None,552.411758900038,None,552.411758900038,None,552.411758900038,None,554.174840740033,None,554.174840740033,None,554.174840740033,None,,,,,,,,,,,,,003,2022-05-05_17h26.19.882,Main,2022.1.1,59.99912403405818,
neutral,negative,2,k,k,,,,,,,,,11,14,212,16,,,,,,,,,main,1,1,2,negative,neutral,k,k,1,0.7982777999714017,554.1783234999748,555.1915402000304,555.174926900072,None,554.1783234999748,None,554.1783234999748,None,554.1783234999748,None,555.974915140064,None,555.974915140064,None,555.974915140064,None,,,,,,,,,,,,,003,2022-05-05_17h26.19.882,Main,2022.1.1,59.99912403405818,
positive,neutral,1,l,j,,,,,,,,,11,15,213,8,,,,,,,,,main,1,1,1,neutral,positive,j,j,1,0.748277600039728,555.9780360000441,556.9914566000225,556.9748593000695,None,555.9780360000441,None,555.9780360000441,None,555.9780360000441,None,557.7247827399872,None,557.7247827399872,None,557.7247827399872,None,,,,,,,,,,,,,003,2022-05-05_17h26.19.882,Main,2022.1.1,59.99912403405818,
negative,neutral,2,j,l,,,,,,,,,11,16,214,12,,,,,,,,,main,2,2,2,neutral,negative,l,l,1,0.714939899975434,557.7310523000779,558.7414159000618,558.7248665000079,None,557.7310523000779,None,557.7310523000779,None,557.7310523000779,None,559.4414088399965,None,559.4414088399965,None,559.4414088399965,None,,,,,,,,,,,,,003,2022-05-05_17h26.19.882,Main,2022.1.1,59.99912403405818,
negative,negative,2,j,l,,,,,,,,,11,17,215,9,,,,,,,,,main,2,2,2,negative,negative,l,l,1,0.6317444000160322,559.4476273000473,560.4580700000515,560.4278966999846,None,559.4476273000473,None,559.4476273000473,None,559.4476273000473,None,561.0746909399634,None,561.0746909399634,None,561.0746909399634,None,,,,,,,,,,,,,003,2022-05-05_17h26.19.882,Main,2022.1.1,59.99912403405818,
neutral,positive,1,k,k,,,,,,,,,12,0,216,4,,,,,,,,,main,1,1,1,positive,neutral,k,k,1,0.6483107999665663,561.078162800055,562.0913503000047,562.0746914000483,None,561.078162800055,None,561.078162800055,None,561.078162800055,None,562.7246421399643,None,562.7246421399643,None,562.7246421399643,None,,,,,,,,,,,,,003,2022-05-05_17h26.19.882,Main,2022.1.1,59.99912403405818,
negative,positive,2,j,l,,,,,,,,,12,1,217,15,,,,,,,,,main,2,2,2,positive,negative,l,l,1,0.7484975999686867,562.7282273999881,563.7413260000758,563.7246604000684,None,562.7282273999881,None,562.7282273999881,None,562.7282273999881,None,564.4747293400462,None,564.4747293400462,None,564.4747293400462,None,,,,,,,,,,,,,003,2022-05-05_17h26.19.882,Main,2022.1.1,59.99912403405818,
neutral,negative,1,k,k,,,,,,,,,12,2,218,7,,,,,,,,,main,2,2,1,negative,neutral,k,k,1,0.7149399999761954,564.4783424000489,565.4912909000413,565.4746160999639,None,564.4783424000489,None,564.4783424000489,None,564.4783424000489,None,566.191323740047,None,566.191323740047,None,566.191323740047,None,,,,,,,,,,,,,003,2022-05-05_17h26.19.882,Main,2022.1.1,59.99912403405818,
neutral,neutral,2,k,k,,,,,,,,,12,3,219,10,,,,,,,,,main,2,2,2,neutral,neutral,k,k,1,0.7982885000528768,566.1947761999909,567.2078812000109,567.1912322000135,None,566.1947761999909,None,566.1947761999909,None,566.1947761999909,None,567.9911908400129,None,567.9911908400129,None,567.9911908400129,None,,,,,,,,,,,,,003,2022-05-05_17h26.19.882,Main,2022.1.1,59.99912403405818,
negative,negative,2,j,l,,,,,,,,,12,4,220,9,,,,,,,,,main,2,2,2,negative,negative,l,l,1,0.6983827999792993,567.9944493999938,569.0078504000558,568.991182000027,None,567.9944493999938,None,567.9944493999938,None,567.9944493999938,None,569.6912036400638,None,569.6912036400638,None,569.6912036400638,None,,,,,,,,,,,,,003,2022-05-05_17h26.19.882,Main,2022.1.1,59.99912403405818,
positive,neutral,1,l,j,,,,,,,,,12,5,221,8,,,,,,,,,main,1,1,1,neutral,positive,j,j,1,0.8148912000469863,569.6945969000226,570.707811600063,570.6941057000076,None,569.6945969000226,None,569.6945969000226,None,569.6945969000226,None,571.5077880399651,None,571.5077880399651,None,571.5077880399651,None,,,,,,,,,,,,,003,2022-05-05_17h26.19.882,Main,2022.1.1,59.99912403405818,
positive,negative,2,l,j,,,,,,,,,12,6,222,14,,,,,,,,,main,2,2,2,negative,positive,j,j,1,0.8327784000430256,571.511034599971,572.524568599998,572.510638799984,None,571.511034599971,None,571.511034599971,None,571.511034599971,None,573.3411690400565,None,573.3411690400565,None,573.3411690400565,None,,,,,,,,,,,,,003,2022-05-05_17h26.19.882,Main,2022.1.1,59.99912403405818,
negative,neutral,1,j,l,,,,,,,,,12,7,223,3,,,,,,,,,main,1,1,1,neutral,negative,l,l,1,0.6974696000106633,573.3451588000171,574.3577883000253,574.3410620000213,None,573.3451588000171,None,573.3451588000171,None,573.3451588000171,None,575.0411268400378,None,575.0411268400378,None,575.0411268400378,None,,,,,,,,,,,,,003,2022-05-05_17h26.19.882,Main,2022.1.1,59.99912403405818,
positive,positive,1,l,j,,,,,,,,,12,8,224,2,,,,,,,,,main,1,1,1,positive,positive,j,j,1,0.7815859999973327,575.0451611999888,576.0577698000707,576.0410304999677,None,575.0451611999888,None,575.0451611999888,None,575.0451611999888,None,576.8243310400169,None,576.8243310400169,None,576.8243310400169,None,,,,,,,,,,,,,003,2022-05-05_17h26.19.882,Main,2022.1.1,59.99912403405818,
