target,distractor,set,ans1,ans2,rep_loop2.thisRepN,rep_loop2.thisTrialN,rep_loop2.thisN,rep_loop2.thisIndex,flanker_prac_loop.thisRepN,flanker_prac_loop.thisTrialN,flanker_prac_loop.thisN,flanker_prac_loop.thisIndex,flanker_main_loop.thisRepN,flanker_main_loop.thisTrialN,flanker_main_loop.thisN,flanker_main_loop.thisIndex,fl_inst_resp.keys,fl_inst_resp.rt,sound_1.started,sound_1.stopped,image_4.started,image_4.stopped,back_2.started,back_2.stopped,main_prac,fl_cold,fl_colt,fl_set,fl_dcond,fl_tcond,fl_ans,fl_res,fl_corr,fl_rt,fix_fl.started,fix_fl.stopped,targ.started,targ.stopped,j_button.started,j_button.stopped,k_button.started,k_button.stopped,l_button.started,l_button.stopped,j_button2.started,j_button2.stopped,k_button2.started,k_button2.stopped,l_button2.started,l_button2.stopped,mainback.started,mainback.stopped,key_resp.keys,key_resp.rt,mouse_6.x,mouse_6.y,mouse_6.leftButton,mouse_6.midButton,mouse_6.rightButton,mouse_6.started,mouse_6.stopped,text_2.started,text_2.stopped,id*,date,expName,psychopyVersion,frameRate,
,,,,,0,0,0,0,,,,,,,,,space,55.41200530005153,17.970392629981507,None,73.40010520000942,None,,,,,,,,,,,,,,,,,,,,,,,,,,,,,,,,,,,,,,,,,,004,2022-05-06_10h23.26.489,Main,2022.1.1,59.99674817942585,
,,,,,1,0,1,0,,,,,,,,,space,12.116886400035582,77.8392841300345,None,89.98541710001882,None,,,,,,,,,,,,,,,,,,,,,,,,,,,,,,,,,,,,,,,,,,004,2022-05-06_10h23.26.489,Main,2022.1.1,59.99674817942585,
positive,neutral,1,l,j,,,,,0,0,0,8,,,,,,,,,,,97.16887190006673,None,prac,2,2,1,neutral,positive,l,k,0,3.6707298000110313,99.18313370004762,100.18314630002715,100.16873799997848,None,99.18313370004762,None,99.18313370004762,None,99.18313370004762,None,103.85450210003182,None,103.85450210003182,None,103.85450210003182,None,,,,,,,,,,,,,,004,2022-05-06_10h23.26.489,Main,2022.1.1,59.99674817942585,
negative,neutral,1,j,l,,,,,0,1,1,3,,,,,,,,,,,,,prac,1,1,1,neutral,negative,j,j,1,1.636218500090763,104.86821430001874,105.88298530003522,105.84966409998015,None,104.86821430001874,None,104.86821430001874,None,104.86821430001874,None,107.50037949997932,None,107.50037949997932,None,107.50037949997932,None,,,,,,,,,,,,,,004,2022-05-06_10h23.26.489,Main,2022.1.1,59.99674817942585,
positive,neutral,2,l,j,,,,,0,2,2,17,,,,,,,,,,,,,prac,1,1,2,neutral,positive,l,l,1,0.8514498999575153,108.50143030006438,109.51625250000507,109.48292149999179,None,108.50143030006438,None,108.50143030006438,None,108.50143030006438,None,110.34956433008192,None,110.34956433008192,None,110.34956433008192,None,,,,,,,,,,,,,,004,2022-05-06_10h23.26.489,Main,2022.1.1,59.99674817942585,
neutral,negative,2,k,k,,,,,0,3,3,16,,,,,,,,,,,,,prac,1,1,2,negative,neutral,k,k,1,1.0644590998999774,110.36392710008658,111.3658499000594,111.3491759999888,None,110.36392710008658,None,110.36392710008658,None,110.36392710008658,None,112.41580083001172,None,112.41580083001172,None,112.41580083001172,None,,,,,,,,,,,,,,004,2022-05-06_10h23.26.489,Main,2022.1.1,59.99674817942585,
positive,negative,1,l,j,,,,,0,4,4,5,,,,,,,,,,,,,prac,2,2,1,negative,positive,l,j,0,0.9825341999530792,112.42663930007257,113.43283459998202,113.41618469997775,None,112.42663930007257,None,112.42663930007257,None,112.42663930007257,None,114.3994749999838,None,114.3994749999838,None,114.3994749999838,None,,,,,,,,,,,,,,004,2022-05-06_10h23.26.489,Main,2022.1.1,59.99674817942585,
negative,neutral,2,j,l,,,,,0,5,5,12,,,,,,,,,,,,,prac,2,2,2,neutral,negative,j,j,1,1.0847503000404686,115.4121386000188,116.416137500084,116.40174390003085,None,115.4121386000188,None,115.4121386000188,None,115.4121386000188,None,117.48284873006632,None,117.48284873006632,None,117.48284873006632,None,,,,,,,,,,,,,,004,2022-05-06_10h23.26.489,Main,2022.1.1,59.99674817942585,
negative,positive,1,j,l,,,,,0,6,6,6,,,,,,,,,,,,,prac,1,1,1,positive,negative,j,j,1,1.231595000019297,117.48701879999135,118.50172180007212,118.48255800001789,None,117.48701879999135,None,117.48701879999135,None,117.48701879999135,None,119.71601313004503,None,119.71601313004503,None,119.71601313004503,None,,,,,,,,,,,,,,004,2022-05-06_10h23.26.489,Main,2022.1.1,59.99674817942585,
negative,negative,2,j,l,,,,,0,7,7,9,,,,,,,,,,,,,prac,2,2,2,negative,negative,j,j,1,0.9312756999861449,119.73270719998982,120.7323166000424,120.71565490006469,None,119.73270719998982,None,119.73270719998982,None,119.73270719998982,None,121.64893833001842,None,121.64893833001842,None,121.64893833001842,None,,,,,,,,,,,,,,004,2022-05-06_10h23.26.489,Main,2022.1.1,59.99674817942585,
negative,positive,2,j,l,,,,,0,8,8,15,,,,,,,,,,,,,prac,1,1,2,positive,negative,j,j,1,0.8318526999792084,121.65157260000706,122.66564120003022,122.64897600002587,None,121.65157260000706,None,121.65157260000706,None,121.65157260000706,None,123.48263413006207,None,123.48263413006207,None,123.48263413006207,None,,,,,,,,,,,,,,004,2022-05-06_10h23.26.489,Main,2022.1.1,59.99674817942585,
positive,positive,2,l,j,,,,,0,9,9,11,,,,,,,,,,,,,prac,1,1,2,positive,positive,l,l,1,0.8652718999655917,123.48593960003927,124.50151139998343,124.48488970007747,None,123.48593960003927,None,123.48593960003927,None,123.48593960003927,None,125.34924053006107,None,125.34924053006107,None,125.34924053006107,None,,,,,,,,,,,,,,004,2022-05-06_10h23.26.489,Main,2022.1.1,59.99674817942585,
neutral,negative,1,k,k,,,,,0,10,10,7,,,,,,,,,,,,,prac,2,2,1,negative,neutral,k,k,1,0.8654729999834672,125.3532423999859,126.36590299999807,126.34923330007587,None,125.3532423999859,None,125.3532423999859,None,125.3532423999859,None,127.21595043003326,None,127.21595043003326,None,127.21595043003326,None,,,,,,,,,,,,,,004,2022-05-06_10h23.26.489,Main,2022.1.1,59.99674817942585,
negative,negative,1,j,l,,,,,0,11,11,0,,,,,,,,,,,,,prac,1,1,1,negative,negative,j,j,1,1.367736199987121,127.23041319998447,128.23250809998717,128.21807390009053,None,127.23041319998447,None,127.23041319998447,None,127.23041319998447,None,129.58530272998615,None,129.58530272998615,None,129.58530272998615,None,,,,,,,,,,,,,,004,2022-05-06_10h23.26.489,Main,2022.1.1,59.99674817942585,
positive,negative,2,l,j,,,,,0,12,12,14,,,,,,,,,,,,,prac,1,1,2,negative,positive,l,l,1,0.8455623999470845,129.58555170008913,130.5987714000512,130.58209120004904,None,129.58555170008913,None,129.58555170008913,None,129.58555170008913,None,131.43212903001114,None,131.43212903001114,None,131.43212903001114,None,,,,,,,,,,,,,,004,2022-05-06_10h23.26.489,Main,2022.1.1,59.99674817942585,
neutral,positive,1,k,k,,,,,0,13,13,4,,,,,,,,,,,,,prac,2,2,1,positive,neutral,k,k,1,0.8325001000193879,131.43558859999757,132.44908559997566,132.43244540004525,None,131.43558859999757,None,131.43558859999757,None,131.43558859999757,None,133.26574463002618,None,133.26574463002618,None,133.26574463002618,None,,,,,,,,,,,,,,004,2022-05-06_10h23.26.489,Main,2022.1.1,59.99674817942585,
neutral,neutral,2,k,k,,,,,0,14,14,10,,,,,,,,,,,,,prac,2,2,2,neutral,neutral,k,k,1,0.8653494999743998,133.26877510000486,134.2823861000361,134.2657270000782,None,133.26877510000486,None,133.26877510000486,None,133.26877510000486,None,135.1323649300146,None,135.1323649300146,None,135.1323649300146,None,,,,,,,,,,,,,,004,2022-05-06_10h23.26.489,Main,2022.1.1,59.99674817942585,
neutral,neutral,1,k,k,,,,,0,15,15,1,,,,,,,,,,,,,prac,1,1,1,neutral,neutral,k,k,1,0.7527408000314608,135.13549780007452,136.149012900074,136.13234410004225,None,135.13549780007452,None,135.13549780007452,None,135.13549780007452,None,136.88243133005454,None,136.88243133005454,None,136.88243133005454,None,,,,,,,,,,,,,,004,2022-05-06_10h23.26.489,Main,2022.1.1,59.99674817942585,
neutral,positive,2,k,k,,,,,0,16,16,13,,,,,,,,,,,,,prac,2,2,2,positive,neutral,k,k,1,0.7056725000729784,136.89754040003754,137.89897580002435,137.88232159998734,None,136.89754040003754,None,136.89754040003754,None,136.89754040003754,None,138.59372123006034,None,138.59372123006034,None,138.59372123006034,None,,,,,,,,,,,,,,004,2022-05-06_10h23.26.489,Main,2022.1.1,59.99674817942585,
positive,positive,1,l,j,,,,,0,17,17,2,,,,,,,,,,,,,prac,1,1,1,positive,positive,l,l,1,0.8869735000189394,138.60424900008366,139.61550429998897,139.58216910006013,None,138.60424900008366,None,138.60424900008366,None,138.60424900008366,None,140.4821482300875,None,140.4821482300875,None,140.4821482300875,None,,,,,,,,,,,,,,004,2022-05-06_10h23.26.489,Main,2022.1.1,59.99674817942585,
negative,neutral,1,j,l,,,,,1,0,18,3,,,,,,,,,,,,,prac,2,2,1,neutral,negative,j,l,0,1.3655678998911753,140.48481170006562,141.49885209999047,141.46550470008515,None,140.48481170006562,None,140.48481170006562,None,140.48481170006562,None,142.84880819998216,None,142.84880819998216,None,142.84880819998216,None,,,,,,,,,,,,,,004,2022-05-06_10h23.26.489,Main,2022.1.1,59.99674817942585,
negative,negative,1,j,l,,,,,1,1,19,0,,,,,,,,,,,,,prac,1,1,1,negative,negative,j,k,0,1.1198847000487149,143.84879020007793,144.84878410003148,144.83210620004684,None,143.84879020007793,None,143.84879020007793,None,143.84879020007793,None,145.96510270005092,None,145.96510270005092,None,145.96510270005092,None,,,,,,,,,,,,,,004,2022-05-06_10h23.26.489,Main,2022.1.1,59.99674817942585,
positive,neutral,2,l,j,,,,,1,2,20,17,,,,,,,,,,,,,prac,1,1,2,neutral,positive,l,l,1,0.8702645000303164,146.96638720005285,147.98177770001348,147.9651196000632,None,146.96638720005285,None,146.96638720005285,None,146.96638720005285,None,148.8322049300303,None,148.8322049300303,None,148.8322049300303,None,,,,,,,,,,,,,,004,2022-05-06_10h23.26.489,Main,2022.1.1,59.99674817942585,
positive,positive,1,l,j,,,,,1,3,21,2,,,,,,,,,,,,,prac,1,1,1,positive,positive,l,l,1,1.033991500036791,148.83599320007488,149.84873189998325,149.83433440001681,None,148.83599320007488,None,148.83599320007488,None,148.83599320007488,None,150.86781063001837,None,150.86781063001837,None,150.86781063001837,None,,,,,,,,,,,,,,004,2022-05-06_10h23.26.489,Main,2022.1.1,59.99674817942585,
neutral,neutral,2,k,k,,,,,1,4,22,10,,,,,,,,,,,,,prac,2,2,2,neutral,neutral,k,k,1,0.812762500019744,150.87080130004324,151.8841848000884,151.8653531000018,None,150.87080130004324,None,150.87080130004324,None,150.87080130004324,None,152.68200873002644,None,152.68200873002644,None,152.68200873002644,None,,,,,,,,,,,,,,004,2022-05-06_10h23.26.489,Main,2022.1.1,59.99674817942585,
negative,positive,1,j,l,,,,,1,5,23,6,,,,,,,,,,,,,prac,2,2,1,positive,negative,j,j,1,0.8979620999889448,152.68610789999366,153.7009903000435,153.6842833000701,None,152.68610789999366,None,152.68610789999366,None,152.68610789999366,None,154.58208393004026,None,154.58208393004026,None,154.58208393004026,None,,,,,,,,,,,,,,004,2022-05-06_10h23.26.489,Main,2022.1.1,59.99674817942585,
positive,neutral,1,l,j,,,,,1,6,24,8,,,,,,,,,,,,,prac,1,1,1,neutral,positive,l,l,1,1.4480999000370502,154.58534650004003,155.59823980007786,155.5815676000202,None,154.58534650004003,None,154.58534650004003,None,154.58534650004003,None,157.03159342998407,None,157.03159342998407,None,157.03159342998407,None,,,,,,,,,,,,,,004,2022-05-06_10h23.26.489,Main,2022.1.1,59.99674817942585,
positive,negative,1,l,j,,,,,1,7,25,5,,,,,,,,,,,,,prac,2,2,1,negative,positive,l,l,1,0.7658903999254107,157.03468430007342,158.0485516000772,158.0341581000248,None,157.03468430007342,None,157.03468430007342,None,157.03468430007342,None,158.79862333008788,None,158.79862333008788,None,158.79862333008788,None,,,,,,,,,,,,,,004,2022-05-06_10h23.26.489,Main,2022.1.1,59.99674817942585,
positive,positive,2,l,j,,,,,1,8,26,11,,,,,,,,,,,,,prac,2,2,2,positive,positive,l,l,1,0.7985918999183923,158.80201740004122,159.8152606000658,159.79857079999056,None,158.80201740004122,None,158.80201740004122,None,158.80201740004122,None,160.5985724299797,None,160.5985724299797,None,160.5985724299797,None,,,,,,,,,,,,,,004,2022-05-06_10h23.26.489,Main,2022.1.1,59.99674817942585,
neutral,positive,2,k,k,,,,,1,9,27,13,,,,,,,,,,,,,prac,2,2,2,positive,neutral,k,k,1,0.8153122999938205,160.6175355000887,161.61517250002362,161.58411509997677,None,160.6175355000887,None,160.6175355000887,None,160.6175355000887,None,162.41514162999812,None,162.41514162999812,None,162.41514162999812,None,,,,,,,,,,,,,,004,2022-05-06_10h23.26.489,Main,2022.1.1,59.99674817942585,
negative,negative,2,j,l,,,,,1,10,28,9,,,,,,,,,,,,,prac,1,1,2,negative,negative,j,j,1,0.8321223000530154,162.41840620001312,163.43177850008942,163.41512710007373,None,162.41840620001312,None,162.41840620001312,None,162.41840620001312,None,164.24843023008435,None,164.24843023008435,None,164.24843023008435,None,,,,,,,,,,,,,,004,2022-05-06_10h23.26.489,Main,2022.1.1,59.99674817942585,
neutral,negative,2,k,k,,,,,1,11,29,16,,,,,,,,,,,,,prac,1,1,2,negative,neutral,k,k,1,0.8980661999667063,164.2517119999975,165.26470300008077,165.2480386000825,None,164.2517119999975,None,164.2517119999975,None,164.2517119999975,None,166.1480124300695,None,166.1480124300695,None,166.1480124300695,None,,,,,,,,,,,,,,004,2022-05-06_10h23.26.489,Main,2022.1.1,59.99674817942585,
positive,negative,2,l,j,,,,,1,12,30,14,,,,,,,,,,,,,prac,1,1,2,negative,positive,l,l,1,0.8159456999273971,166.14801870007068,167.1480502000777,167.1480502000777,None,166.14801870007068,None,166.14801870007068,None,166.14801870007068,None,167.96512533003698,None,167.96512533003698,None,167.96512533003698,None,,,,,,,,,,,,,,004,2022-05-06_10h23.26.489,Main,2022.1.1,59.99674817942585,
negative,neutral,2,j,l,,,,,1,13,31,12,,,,,,,,,,,,,prac,2,2,2,neutral,negative,j,j,1,0.8152730000438169,167.96838810003828,168.98166350007523,168.96731079998426,None,167.96838810003828,None,167.96838810003828,None,167.96838810003828,None,169.78163822997595,None,169.78163822997595,None,169.78163822997595,None,,,,,,,,,,,,,,004,2022-05-06_10h23.26.489,Main,2022.1.1,59.99674817942585,
negative,positive,2,j,l,,,,,1,14,32,15,,,,,,,,,,,,,prac,2,2,2,positive,negative,j,j,1,0.798668000032194,169.78570680005942,170.79858529998455,170.78392670000903,None,169.78570680005942,None,169.78570680005942,None,169.78570680005942,None,171.58160653001397,None,171.58160653001397,None,171.58160653001397,None,,,,,,,,,,,,,,004,2022-05-06_10h23.26.489,Main,2022.1.1,59.99674817942585,
neutral,neutral,1,k,k,,,,,1,15,33,1,,,,,,,,,,,,,prac,1,1,1,neutral,neutral,k,k,1,0.7486706000054255,171.5848700000206,172.59826820006128,172.58161580003798,None,171.5848700000206,None,171.5848700000206,None,171.5848700000206,None,173.33170083003353,None,173.33170083003353,None,173.33170083003353,None,,,,,,,,,,,,,,004,2022-05-06_10h23.26.489,Main,2022.1.1,59.99674817942585,
neutral,negative,1,k,k,,,,,1,16,34,7,,,,,,,,,,,,,prac,2,2,1,negative,neutral,k,k,1,0.7150402000406757,173.33501210005488,174.33117250003852,174.32116200006567,None,173.33501210005488,None,173.33501210005488,None,173.33501210005488,None,175.04781482998516,None,175.04781482998516,None,175.04781482998516,None,,,,,,,,,,,,,,004,2022-05-06_10h23.26.489,Main,2022.1.1,59.99674817942585,
neutral,positive,1,k,k,,,,,1,17,35,4,,,,,,,,,,,,,prac,1,1,1,positive,neutral,k,k,1,0.6319631000515074,175.0478339000838,176.04813300003298,176.04813300003298,None,175.0478339000838,None,175.0478339000838,None,175.0478339000838,None,176.68120613008506,None,176.68120613008506,None,176.68120613008506,None,,,,,,,,,,,,,,004,2022-05-06_10h23.26.489,Main,2022.1.1,59.99674817942585,
,,,,,,,,,,,,,,,,,,,,,,,,,,,,,,,,,,,,,,,,,,,,,,,,,,,176.68120460002683,None,space,32.57097680005245,,,,,,,,,,004,2022-05-06_10h23.26.489,Main,2022.1.1,59.99674817942585,
,,,,,,,,,,,,,,,,,,,,,,,,,,,,,,,,,,,,,,,,,,,,,,,,,,,,,,,-0.17037037,-0.07962963,0,0,0,0.011096930014900863,None,,,004,2022-05-06_10h23.26.489,Main,2022.1.1,59.99674817942585,
neutral,neutral,2,k,k,,,,,,,,,0,0,0,10,,,,,,,209.2806035000831,None,main,2,2,2,neutral,neutral,k,k,1,0.7886052000103518,211.29436420009006,212.29744770005345,212.28309230005834,None,211.29436420009006,None,211.29436420009006,None,211.29436420009006,None,213.0808781300555,None,213.0808781300555,None,213.0808781300555,None,,,,,,,,,,,,,,004,2022-05-06_10h23.26.489,Main,2022.1.1,59.99674817942585,
positive,positive,1,l,j,,,,,,,,,0,1,1,2,,,,,,,,,main,1,1,1,positive,positive,l,l,1,0.6979812999488786,213.08529459999409,214.09740420000162,214.08072490000632,None,213.08529459999409,None,213.08529459999409,None,213.08529459999409,None,214.78150033009007,None,214.78150033009007,None,214.78150033009007,None,,,,,,,,,,,,,,004,2022-05-06_10h23.26.489,Main,2022.1.1,59.99674817942585,
positive,negative,1,l,j,,,,,,,,,0,2,2,5,,,,,,,,,main,1,1,1,negative,positive,l,l,1,0.64822329999879,214.78728370007593,215.79972530005034,215.78308269998524,None,214.78728370007593,None,214.78728370007593,None,214.78728370007593,None,216.43140953000403,None,216.43140953000403,None,216.43140953000403,None,,,,,,,,,,,,,,004,2022-05-06_10h23.26.489,Main,2022.1.1,59.99674817942585,
positive,neutral,1,l,j,,,,,,,,,0,3,3,8,,,,,,,,,main,1,1,1,neutral,positive,l,l,1,0.6308397999964654,216.43775809998624,217.4469452999765,217.43028299999423,None,216.43775809998624,None,216.43775809998624,None,216.43775809998624,None,218.06358623005218,None,218.06358623005218,None,218.06358623005218,None,,,,,,,,,,,,,,004,2022-05-06_10h23.26.489,Main,2022.1.1,59.99674817942585,
negative,negative,1,j,l,,,,,,,,,0,4,4,0,,,,,,,,,main,2,2,1,negative,negative,j,j,1,0.9679370999801904,218.0636821000371,219.06361660000402,219.06361660000402,None,218.0636821000371,None,218.0636821000371,None,218.0636821000371,None,220.03305533005624,None,220.03305533005624,None,220.03305533005624,None,,,,,,,,,,,,,,004,2022-05-06_10h23.26.489,Main,2022.1.1,59.99674817942585,
negative,negative,2,j,l,,,,,,,,,0,5,5,9,,,,,,,,,main,2,2,2,negative,negative,j,j,1,0.8624725999543443,220.0360590000637,221.0494959000498,221.030573700089,None,220.0360590000637,None,220.0360590000637,None,220.0360590000637,None,221.89721653006274,None,221.89721653006274,None,221.89721653006274,None,,,,,,,,,,,,,,004,2022-05-06_10h23.26.489,Main,2022.1.1,59.99674817942585,
negative,positive,2,j,l,,,,,,,,,0,6,6,15,,,,,,,,,main,1,1,2,positive,negative,j,j,1,0.7142611000454053,221.9013245999813,222.91386750002857,222.89956320007332,None,221.9013245999813,None,221.9013245999813,None,221.9013245999813,None,223.61384853000055,None,223.61384853000055,None,223.61384853000055,None,,,,,,,,,,,,,,004,2022-05-06_10h23.26.489,Main,2022.1.1,59.99674817942585,
negative,neutral,1,j,l,,,,,,,,,0,7,7,3,,,,,,,,,main,2,2,1,neutral,negative,j,j,1,0.731688900035806,223.6181777000893,224.6304840000812,224.61621560005005,None,223.6181777000893,None,223.6181777000893,None,223.6181777000893,None,225.3471613300615,None,225.3471613300615,None,225.3471613300615,None,,,,,,,,,,,,,,004,2022-05-06_10h23.26.489,Main,2022.1.1,59.99674817942585,
positive,neutral,2,l,j,,,,,,,,,0,8,8,17,,,,,,,,,main,2,2,2,neutral,positive,l,l,1,0.8649081999901682,225.3511967000086,226.36380839999765,226.34713240002748,None,225.3511967000086,None,225.3511967000086,None,225.3511967000086,None,227.21341373004253,None,227.21341373004253,None,227.21341373004253,None,,,,,,,,,,,,,,004,2022-05-06_10h23.26.489,Main,2022.1.1,59.99674817942585,
positive,positive,2,l,j,,,,,,,,,0,9,9,11,,,,,,,,,main,1,1,2,positive,positive,l,l,1,0.7317476000171155,227.21392380003817,228.21340400003828,228.21340400003828,None,227.21392380003817,None,227.21392380003817,None,227.21392380003817,None,228.94672153006542,None,228.94672153006542,None,228.94672153006542,None,,,,,,,,,,,,,,004,2022-05-06_10h23.26.489,Main,2022.1.1,59.99674817942585,
positive,negative,2,l,j,,,,,,,,,0,10,10,14,,,,,,,,,main,2,2,2,negative,positive,l,l,1,0.6817881000461057,228.9491127000656,229.96338010008913,229.94671140005812,None,228.9491127000656,None,228.9491127000656,None,228.9491127000656,None,230.6300814300892,None,230.6300814300892,None,230.6300814300892,None,,,,,,,,,,,,,,004,2022-05-06_10h23.26.489,Main,2022.1.1,59.99674817942585,
negative,positive,1,j,l,,,,,,,,,0,11,11,6,,,,,,,,,main,1,1,1,positive,negative,j,j,1,0.8151861000806093,230.63377640000544,231.64936240005773,231.63035680004396,None,230.63377640000544,None,230.63377640000544,None,230.63377640000544,None,232.44705283002696,None,232.44705283002696,None,232.44705283002696,None,,,,,,,,,,,,,,004,2022-05-06_10h23.26.489,Main,2022.1.1,59.99674817942585,
negative,neutral,2,j,l,,,,,,,,,0,12,12,12,,,,,,,,,main,2,2,2,neutral,negative,j,j,1,0.8655623000813648,232.450686300057,233.46365070005413,233.4492811000673,None,232.450686300057,None,232.450686300057,None,232.450686300057,None,234.31363673008747,None,234.31363673008747,None,234.31363673008747,None,,,,,,,,,,,,,,004,2022-05-06_10h23.26.489,Main,2022.1.1,59.99674817942585,
neutral,positive,2,k,k,,,,,,,,,0,13,13,13,,,,,,,,,main,1,1,2,positive,neutral,k,k,1,0.7645479999482632,234.3176458000671,235.33266060007736,235.31361920002382,None,234.3176458000671,None,234.3176458000671,None,234.3176458000671,None,236.08030543000206,None,236.08030543000206,None,236.08030543000206,None,,,,,,,,,,,,,,004,2022-05-06_10h23.26.489,Main,2022.1.1,59.99674817942585,
neutral,negative,1,k,k,,,,,,,,,0,14,14,7,,,,,,,,,main,1,1,1,negative,neutral,k,k,1,0.7979429999832064,236.08383490005508,237.0990843999898,237.08255709998775,None,236.08383490005508,None,236.08383490005508,None,236.08383490005508,None,237.87983273005813,None,237.87983273005813,None,237.87983273005813,None,,,,,,,,,,,,,,004,2022-05-06_10h23.26.489,Main,2022.1.1,59.99674817942585,
neutral,negative,2,k,k,,,,,,,,,0,15,15,16,,,,,,,,,main,2,2,2,negative,neutral,k,k,1,0.7653181999921799,237.87983890005853,238.87982230004855,238.87982230004855,None,237.87983890005853,None,237.87983890005853,None,237.87983890005853,None,239.64654353006046,None,239.64654353006046,None,239.64654353006046,None,,,,,,,,,,,,,,004,2022-05-06_10h23.26.489,Main,2022.1.1,59.99674817942585,
neutral,positive,1,k,k,,,,,,,,,0,16,16,4,,,,,,,,,main,2,2,1,positive,neutral,k,k,1,1.2488238000078127,239.6500279000029,240.6490357000148,240.6490357000148,None,239.6500279000029,None,239.6500279000029,None,239.6500279000029,None,241.8969659300172,None,241.8969659300172,None,241.8969659300172,None,,,,,,,,,,,,,,004,2022-05-06_10h23.26.489,Main,2022.1.1,59.99674817942585,
neutral,neutral,1,k,k,,,,,,,,,0,17,17,1,,,,,,,,,main,1,1,1,neutral,neutral,k,k,1,0.6480656999628991,241.90035540005192,242.9156462000683,242.89680370001588,None,241.90035540005192,None,241.90035540005192,None,241.90035540005192,None,243.54675543006744,None,243.54675543006744,None,243.54675543006744,None,,,,,,,,,,,,,,004,2022-05-06_10h23.26.489,Main,2022.1.1,59.99674817942585,
neutral,positive,2,k,k,,,,,,,,,1,0,18,13,,,,,,,,,main,2,2,2,positive,neutral,k,k,1,0.7165676000295207,243.55031229997985,244.56386059999932,244.54901239997707,None,243.55031229997985,None,243.55031229997985,None,243.55031229997985,None,245.26353283006466,None,245.26353283006466,None,245.26353283006466,None,,,,,,,,,,,,,,004,2022-05-06_10h23.26.489,Main,2022.1.1,59.99674817942585,
neutral,positive,1,k,k,,,,,,,,,1,1,19,4,,,,,,,,,main,1,1,1,positive,neutral,k,k,1,0.6085680000251159,245.26983070001006,246.28269470005762,246.26341980008874,None,245.26983070001006,None,245.26983070001006,None,245.26983070001006,None,246.8752295300481,None,246.8752295300481,None,246.8752295300481,None,,,,,,,,,,,,,,004,2022-05-06_10h23.26.489,Main,2022.1.1,59.99674817942585,
positive,negative,2,l,j,,,,,,,,,1,2,20,14,,,,,,,,,main,1,1,2,negative,positive,l,l,1,0.8366846001008525,246.87493890000042,247.87963229999878,247.86295780004002,None,246.87493890000042,None,246.87493890000042,None,246.87493890000042,None,248.71300183004934,None,248.71300183004934,None,248.71300183004934,None,,,,,,,,,,,,,,004,2022-05-06_10h23.26.489,Main,2022.1.1,59.99674817942585,
positive,positive,2,l,j,,,,,,,,,1,3,21,11,,,,,,,,,main,1,1,2,positive,positive,l,l,1,0.588092099991627,248.71913380001206,249.73022160003893,249.71332900004927,None,248.71913380001206,None,248.71913380001206,None,248.71913380001206,None,250.29895993008978,None,250.29895993008978,None,250.29895993008978,None,,,,,,,,,,,,,,004,2022-05-06_10h23.26.489,Main,2022.1.1,59.99674817942585,
neutral,neutral,2,k,k,,,,,,,,,1,4,22,10,,,,,,,,,main,2,2,2,neutral,neutral,k,k,1,0.7745756000513211,250.30710340000223,251.3155212000711,251.296604400035,None,250.30710340000223,None,250.30710340000223,None,250.30710340000223,None,252.07992543001893,None,252.07992543001893,None,252.07992543001893,None,,,,,,,,,,,,,,004,2022-05-06_10h23.26.489,Main,2022.1.1,59.99674817942585,
negative,negative,1,j,l,,,,,,,,,1,5,23,0,,,,,,,,,main,1,1,1,negative,negative,j,j,1,0.8651820999803022,252.08321200008504,253.09659139998257,253.08211980003398,None,252.08321200008504,None,252.08321200008504,None,252.08321200008504,None,253.9466390300193,None,253.9466390300193,None,253.9466390300193,None,,,,,,,,,,,,,,004,2022-05-06_10h23.26.489,Main,2022.1.1,59.99674817942585,
negative,neutral,1,j,l,,,,,,,,,1,6,24,3,,,,,,,,,main,2,2,1,neutral,negative,j,j,1,0.6817599000642076,253.9500066000037,254.96320080000442,254.94879090005998,None,253.9500066000037,None,253.9500066000037,None,253.9500066000037,None,255.6298410300049,None,255.6298410300049,None,255.6298410300049,None,,,,,,,,,,,,,,004,2022-05-06_10h23.26.489,Main,2022.1.1,59.99674817942585,
positive,neutral,2,l,j,,,,,,,,,1,7,25,17,,,,,,,,,main,1,1,2,neutral,positive,l,l,1,0.8813444999977946,255.63562120008282,256.64613550005015,256.6294521000236,None,255.63562120008282,None,255.63562120008282,None,255.63562120008282,None,257.5127850300749,None,257.5127850300749,None,257.5127850300749,None,,,,,,,,,,,,,,004,2022-05-06_10h23.26.489,Main,2022.1.1,59.99674817942585,
positive,negative,1,l,j,,,,,,,,,1,8,26,5,,,,,,,,,main,2,2,1,negative,positive,l,l,1,0.9644491999642923,257.51693110005,258.5297134000575,258.51282030006405,None,257.51693110005,None,257.51693110005,None,257.51693110005,None,259.4797691300162,None,259.4797691300162,None,259.4797691300162,None,,,,,,,,,,,,,,004,2022-05-06_10h23.26.489,Main,2022.1.1,59.99674817942585,
neutral,negative,2,k,k,,,,,,,,,1,9,27,16,,,,,,,,,main,1,1,2,negative,neutral,k,k,1,0.7479761999566108,259.4830882999813,260.4964501999784,260.482096599997,None,259.4830882999813,None,259.4830882999813,None,259.4830882999813,None,261.22972433002434,None,261.22972433002434,None,261.22972433002434,None,,,,,,,,,,,,,,004,2022-05-06_10h23.26.489,Main,2022.1.1,59.99674817942585,
negative,neutral,2,j,l,,,,,,,,,1,10,28,12,,,,,,,,,main,1,1,2,neutral,negative,j,j,1,0.7711385000729933,261.23367400001734,262.24661760008894,262.22971830004826,None,261.23367400001734,None,261.23367400001734,None,261.23367400001734,None,263.0011038300698,None,263.0011038300698,None,263.0011038300698,None,,,,,,,,,,,,,,004,2022-05-06_10h23.26.489,Main,2022.1.1,59.99674817942585,
positive,neutral,1,l,j,,,,,,,,,1,11,29,8,,,,,,,,,main,1,1,1,neutral,positive,l,l,1,0.9926346000283957,263.0094414000632,264.0152238000883,263.9986616000533,None,263.0094414000632,None,263.0094414000632,None,263.0094414000632,None,264.9963219299796,None,264.9963219299796,None,264.9963219299796,None,,,,,,,,,,,,,,004,2022-05-06_10h23.26.489,Main,2022.1.1,59.99674817942585,
positive,positive,1,l,j,,,,,,,,,1,12,30,2,,,,,,,,,main,2,2,1,positive,positive,l,l,1,0.6313596999971196,265.0000465000048,266.0125769000733,265.9959217000287,None,265.0000465000048,None,265.0000465000048,None,265.0000465000048,None,266.6292455300107,None,266.6292455300107,None,266.6292455300107,None,,,,,,,,,,,,,,004,2022-05-06_10h23.26.489,Main,2022.1.1,59.99674817942585,
negative,positive,1,j,l,,,,,,,,,1,13,31,6,,,,,,,,,main,1,1,1,positive,negative,j,l,0,0.8649983000941575,266.62927150004543,267.62959070003126,267.62959070003126,None,266.62927150004543,None,266.62927150004543,None,266.62927150004543,None,268.4962540999986,None,268.4962540999986,None,268.4962540999986,None,,,,,,,,,,,,,,004,2022-05-06_10h23.26.489,Main,2022.1.1,59.99674817942585,
neutral,neutral,1,k,k,,,,,,,,,1,14,32,1,,,,,,,,,main,1,1,1,neutral,neutral,k,k,1,0.8511779999826103,269.49626050004736,270.4962060999824,270.4818754000589,None,269.49626050004736,None,269.49626050004736,None,269.49626050004736,None,271.34617262998364,None,271.34617262998364,None,271.34617262998364,None,,,,,,,,,,,,,,004,2022-05-06_10h23.26.489,Main,2022.1.1,59.99674817942585,
neutral,negative,1,k,k,,,,,,,,,1,15,33,7,,,,,,,,,main,1,1,1,negative,neutral,k,k,1,0.7481905999593437,271.3651183000766,272.3628291999921,272.34847369999625,None,271.3651183000766,None,271.3651183000766,None,271.3651183000766,None,273.096142229985,None,273.096142229985,None,273.096142229985,None,,,,,,,,,,,,,,004,2022-05-06_10h23.26.489,Main,2022.1.1,59.99674817942585,
negative,positive,2,j,l,,,,,,,,,1,16,34,15,,,,,,,,,main,1,1,2,positive,negative,j,j,1,0.8974553999723867,273.10053470009007,274.1127865000162,274.09613349998835,None,273.10053470009007,None,273.10053470009007,None,273.10053470009007,None,274.9960873300559,None,274.9960873300559,None,274.9960873300559,None,,,,,,,,,,,,,,004,2022-05-06_10h23.26.489,Main,2022.1.1,59.99674817942585,
negative,negative,2,j,l,,,,,,,,,1,17,35,9,,,,,,,,,main,2,2,2,negative,negative,j,j,1,0.7978558000177145,274.99946980003733,276.01236880000215,275.9956982000731,None,274.99946980003733,None,274.99946980003733,None,274.99946980003733,None,276.7957110300311,None,276.7957110300311,None,276.7957110300311,None,,,,,,,,,,,,,,004,2022-05-06_10h23.26.489,Main,2022.1.1,59.99674817942585,
positive,negative,2,l,j,,,,,,,,,2,0,36,14,,,,,,,,,main,2,2,2,negative,positive,l,l,1,0.8991405999986455,276.79600630002096,277.79573210002854,277.79573210002854,None,276.79600630002096,None,276.79600630002096,None,276.79600630002096,None,278.69591373008444,None,278.69591373008444,None,278.69591373008444,None,,,,,,,,,,,,,,004,2022-05-06_10h23.26.489,Main,2022.1.1,59.99674817942585,
positive,neutral,1,l,j,,,,,,,,,2,1,37,8,,,,,,,,,main,2,2,1,neutral,positive,l,l,1,0.9816843000007793,278.6999665000476,279.7150880000554,279.69842770008836,None,278.6999665000476,None,278.6999665000476,None,278.6999665000476,None,280.6793336300296,None,280.6793336300296,None,280.6793336300296,None,,,,,,,,,,,,,,004,2022-05-06_10h23.26.489,Main,2022.1.1,59.99674817942585,
positive,neutral,2,l,j,,,,,,,,,2,2,38,17,,,,,,,,,main,2,2,2,neutral,positive,l,l,1,0.8149966000346467,280.6829713000916,281.6982105000643,281.6793144000694,None,280.6829713000916,None,280.6829713000916,None,280.6829713000916,None,282.495956629992,None,282.495956629992,None,282.495956629992,None,,,,,,,,,,,,,,004,2022-05-06_10h23.26.489,Main,2022.1.1,59.99674817942585,
negative,positive,1,j,l,,,,,,,,,2,3,39,6,,,,,,,,,main,2,2,1,positive,negative,j,j,1,0.8154734000563622,282.4999772000592,283.51489140000194,283.49595030001365,None,282.4999772000592,None,282.4999772000592,None,282.4999772000592,None,284.31258522999707,None,284.31258522999707,None,284.31258522999707,None,,,,,,,,,,,,,,004,2022-05-06_10h23.26.489,Main,2022.1.1,59.99674817942585,
neutral,neutral,2,k,k,,,,,,,,,2,4,40,10,,,,,,,,,main,2,2,2,neutral,neutral,k,k,1,0.781640800065361,284.31638309999835,285.33147980005015,285.3125707000727,None,284.31638309999835,None,284.31638309999835,None,284.31638309999835,None,286.09604123003083,None,286.09604123003083,None,286.09604123003083,None,,,,,,,,,,,,,,004,2022-05-06_10h23.26.489,Main,2022.1.1,59.99674817942585,
neutral,positive,2,k,k,,,,,,,,,2,5,41,13,,,,,,,,,main,2,2,2,positive,neutral,k,k,1,0.6984516000375152,286.0996422000462,287.11214400001336,287.095480900025,None,286.0996422000462,None,286.0996422000462,None,286.0996422000462,None,287.7956944300211,None,287.7956944300211,None,287.7956944300211,None,,,,,,,,,,,,,,004,2022-05-06_10h23.26.489,Main,2022.1.1,59.99674817942585,
neutral,neutral,1,k,k,,,,,,,,,2,6,42,1,,,,,,,,,main,1,1,1,neutral,neutral,k,k,1,0.6804879000410438,287.79934340005275,288.8121753000887,288.7955100000836,None,287.79934340005275,None,287.79934340005275,None,287.79934340005275,None,289.4792600299814,None,289.4792600299814,None,289.4792600299814,None,,,,,,,,,,,,,,004,2022-05-06_10h23.26.489,Main,2022.1.1,59.99674817942585,
negative,neutral,2,j,l,,,,,,,,,2,7,43,12,,,,,,,,,main,1,1,2,neutral,negative,j,j,1,0.7983795000473037,289.48273739998695,290.49831759999506,290.4817254000809,None,289.48273739998695,None,289.48273739998695,None,289.48273739998695,None,291.279185430042,None,291.279185430042,None,291.279185430042,None,,,,,,,,,,,,,,004,2022-05-06_10h23.26.489,Main,2022.1.1,59.99674817942585,
negative,negative,2,j,l,,,,,,,,,2,8,44,9,,,,,,,,,main,2,2,2,negative,negative,j,j,1,0.5980604999931529,291.28306919999886,292.2957341000438,292.27938940003514,None,291.28306919999886,None,291.28306919999886,None,291.28306919999886,None,292.87902133004974,None,292.87902133004974,None,292.87902133004974,None,,,,,,,,,,,,,,004,2022-05-06_10h23.26.489,Main,2022.1.1,59.99674817942585,
positive,positive,1,l,j,,,,,,,,,2,9,45,2,,,,,,,,,main,1,1,1,positive,positive,l,l,1,0.8489402999402955,292.88301780004986,293.89570910006296,293.879021700006,None,292.88301780004986,None,292.88301780004986,None,292.88301780004986,None,294.72915203009035,None,294.72915203009035,None,294.72915203009035,None,,,,,,,,,,,,,,004,2022-05-06_10h23.26.489,Main,2022.1.1,59.99674817942585,
neutral,negative,2,k,k,,,,,,,,,2,10,46,16,,,,,,,,,main,1,1,2,negative,neutral,k,k,1,0.7811703999759629,294.7329895000439,295.74782530008815,295.72899149998557,None,294.7329895000439,None,294.7329895000439,None,294.7329895000439,None,296.51193753002445,None,296.51193753002445,None,296.51193753002445,None,,,,,,,,,,,,,,004,2022-05-06_10h23.26.489,Main,2022.1.1,59.99674817942585,
negative,neutral,1,j,l,,,,,,,,,2,11,47,3,,,,,,,,,main,1,1,1,neutral,negative,j,j,1,1.148371799965389,296.51195180008654,297.51191730005667,297.51191730005667,None,296.51195180008654,None,296.51195180008654,None,296.51195180008654,None,298.6619560300722,None,298.6619560300722,None,298.6619560300722,None,,,,,,,,,,,,,,004,2022-05-06_10h23.26.489,Main,2022.1.1,59.99674817942585,
positive,negative,1,l,j,,,,,,,,,2,12,48,5,,,,,,,,,main,2,2,1,negative,positive,l,l,1,0.8317984999157488,298.66259830002673,299.66190870001446,299.66190870001446,None,298.66259830002673,None,298.66259830002673,None,298.66259830002673,None,300.4952686299919,None,300.4952686299919,None,300.4952686299919,None,,,,,,,,,,,,,,004,2022-05-06_10h23.26.489,Main,2022.1.1,59.99674817942585,
neutral,positive,1,k,k,,,,,,,,,2,13,49,4,,,,,,,,,main,1,1,1,positive,neutral,k,k,1,0.7821744999382645,300.49871419998817,301.4978287999984,301.4978287999984,None,300.49871419998817,None,300.49871419998817,None,300.49871419998817,None,302.27890823002673,None,302.27890823002673,None,302.27890823002673,None,,,,,,,,,,,,,,004,2022-05-06_10h23.26.489,Main,2022.1.1,59.99674817942585,
negative,positive,2,j,l,,,,,,,,,2,14,50,15,,,,,,,,,main,1,1,2,positive,negative,j,j,1,0.6981941999401897,302.2822635000339,303.2955206000479,303.2811532000778,None,302.2822635000339,None,302.2822635000339,None,302.2822635000339,None,303.9788315299782,None,303.9788315299782,None,303.9788315299782,None,,,,,,,,,,,,,,004,2022-05-06_10h23.26.489,Main,2022.1.1,59.99674817942585,
neutral,negative,1,k,k,,,,,,,,,2,15,51,7,,,,,,,,,main,2,2,1,negative,neutral,k,k,1,0.731946500018239,303.9821147000184,304.97880090004764,304.97880090004764,None,303.9821147000184,None,303.9821147000184,None,303.9821147000184,None,305.7121160300565,None,305.7121160300565,None,305.7121160300565,None,,,,,,,,,,,,,,004,2022-05-06_10h23.26.489,Main,2022.1.1,59.99674817942585,
negative,negative,1,j,l,,,,,,,,,2,16,52,0,,,,,,,,,main,1,1,1,negative,negative,j,l,0,0.7815069999778643,305.715659199981,306.7287787999958,306.7121075000614,None,305.715659199981,None,305.715659199981,None,305.715659199981,None,307.49785739998333,None,307.49785739998333,None,307.49785739998333,None,,,,,,,,,,,,,,004,2022-05-06_10h23.26.489,Main,2022.1.1,59.99674817942585,
positive,positive,2,l,j,,,,,,,,,2,17,53,11,,,,,,,,,main,2,2,2,positive,positive,l,l,1,0.8031506999395788,308.5142703000456,309.5283460000064,309.5116963000037,None,308.5142703000456,None,308.5142703000456,None,308.5142703000456,None,310.31170043001185,None,310.31170043001185,None,310.31170043001185,None,,,,,,,,,,,,,,004,2022-05-06_10h23.26.489,Main,2022.1.1,59.99674817942585,
negative,neutral,2,j,l,,,,,,,,,3,0,54,12,,,,,,,,,main,1,1,2,neutral,negative,j,j,1,0.8976370999589562,310.3287154000718,311.32867439999245,311.3143690000288,None,310.3287154000718,None,310.3287154000718,None,310.3287154000718,None,312.211976530042,None,312.211976530042,None,312.211976530042,None,,,,,,,,,,,,,,004,2022-05-06_10h23.26.489,Main,2022.1.1,59.99674817942585,
negative,negative,2,j,l,,,,,,,,,3,1,55,9,,,,,,,,,main,1,1,2,negative,negative,j,j,1,0.7488273999188095,312.2159589000512,313.2286202000687,313.2119647000218,None,312.2159589000512,None,312.2159589000512,None,312.2159589000512,None,313.9619395299931,None,313.9619395299931,None,313.9619395299931,None,,,,,,,,,,,,,,004,2022-05-06_10h23.26.489,Main,2022.1.1,59.99674817942585,
positive,negative,2,l,j,,,,,,,,,3,2,56,14,,,,,,,,,main,2,2,2,negative,positive,l,l,1,0.8657210000092164,313.9666650000727,314.9786016000435,314.96192700008396,None,313.9666650000727,None,313.9666650000727,None,313.9666650000727,None,315.83001172997757,None,315.83001172997757,None,315.83001172997757,None,,,,,,,,,,,,,,004,2022-05-06_10h23.26.489,Main,2022.1.1,59.99674817942585,
neutral,negative,2,k,k,,,,,,,,,3,3,57,16,,,,,,,,,main,1,1,2,negative,neutral,k,k,1,0.8287554000271484,315.83559170004446,316.8446838000091,316.8446838000091,None,315.83559170004446,None,315.83559170004446,None,315.83559170004446,None,317.66151293007425,None,317.66151293007425,None,317.66151293007425,None,,,,,,,,,,,,,,004,2022-05-06_10h23.26.489,Main,2022.1.1,59.99674817942585,
neutral,neutral,2,k,k,,,,,,,,,3,4,58,10,,,,,,,,,main,2,2,2,neutral,neutral,k,k,1,1.2488659999798983,317.66217140003573,318.6614970000228,318.6614970000228,None,317.66217140003573,None,317.66217140003573,None,317.66217140003573,None,319.91181223002496,None,319.91181223002496,None,319.91181223002496,None,,,,,,,,,,,,,,004,2022-05-06_10h23.26.489,Main,2022.1.1,59.99674817942585,
positive,positive,2,l,j,,,,,,,,,3,5,59,11,,,,,,,,,main,1,1,2,positive,positive,l,l,1,0.7979075000621378,319.9160937999841,320.9284541000379,320.9117920000572,None,319.9160937999841,None,319.9160937999841,None,319.9160937999841,None,321.7118523300276,None,321.7118523300276,None,321.7118523300276,None,,,,,,,,,,,,,,004,2022-05-06_10h23.26.489,Main,2022.1.1,59.99674817942585,
negative,neutral,1,j,l,,,,,,,,,3,6,60,3,,,,,,,,,main,2,2,1,neutral,negative,j,j,1,0.7648171000182629,321.71810800000094,322.7307791999774,322.7117812000215,None,321.71810800000094,None,321.71810800000094,None,321.71810800000094,None,323.47847283004086,None,323.47847283004086,None,323.47847283004086,None,,,,,,,,,,,,,,004,2022-05-06_10h23.26.489,Main,2022.1.1,59.99674817942585,
positive,positive,1,l,j,,,,,,,,,3,7,61,2,,,,,,,,,main,1,1,1,positive,positive,l,l,1,0.7983389999717474,323.4842889000429,324.4954552000854,324.4810343000572,None,323.4842889000429,None,323.4842889000429,None,323.4842889000429,None,325.27836822998944,None,325.27836822998944,None,325.27836822998944,None,,,,,,,,,,,,,,004,2022-05-06_10h23.26.489,Main,2022.1.1,59.99674817942585,
negative,negative,1,j,l,,,,,,,,,3,8,62,0,,,,,,,,,main,2,2,1,negative,negative,j,j,1,0.7478563999757171,325.28185560007114,326.29464209999423,326.2779696000507,None,325.28185560007114,None,325.28185560007114,None,325.28185560007114,None,327.02796153003584,None,327.02796153003584,None,327.02796153003584,None,,,,,,,,,,,,,,004,2022-05-06_10h23.26.489,Main,2022.1.1,59.99674817942585,
neutral,neutral,1,k,k,,,,,,,,,3,9,63,1,,,,,,,,,main,1,1,1,neutral,neutral,k,k,1,0.6818628000328317,327.0281883000862,328.02798420004547,328.02798420004547,None,327.0281883000862,None,327.0281883000862,None,327.0281883000862,None,328.7113344300422,None,328.7113344300422,None,328.7113344300422,None,,,,,,,,,,,,,,004,2022-05-06_10h23.26.489,Main,2022.1.1,59.99674817942585,
neutral,positive,2,k,k,,,,,,,,,3,10,64,13,,,,,,,,,main,2,2,2,positive,neutral,k,k,1,0.6652888999087736,328.7150611000834,329.72828110004775,329.7139688000316,None,328.7150611000834,None,328.7150611000834,None,328.7150611000834,None,330.3782690300257,None,330.3782690300257,None,330.3782690300257,None,,,,,,,,,,,,,,004,2022-05-06_10h23.26.489,Main,2022.1.1,59.99674817942585,
negative,positive,1,j,l,,,,,,,,,3,11,65,6,,,,,,,,,main,2,2,1,positive,negative,j,j,1,1.031795599963516,330.3818481999915,331.3952829000773,331.37861660006456,None,330.3818481999915,None,330.3818481999915,None,330.3818481999915,None,332.41166043003324,None,332.41166043003324,None,332.41166043003324,None,,,,,,,,,,,,,,004,2022-05-06_10h23.26.489,Main,2022.1.1,59.99674817942585,
neutral,negative,1,k,k,,,,,,,,,3,12,66,7,,,,,,,,,main,2,2,1,negative,neutral,k,k,1,0.8173134999815375,332.4151259000646,333.4304068000056,333.41155840002466,None,332.4151259000646,None,332.4151259000646,None,332.4151259000646,None,334.2305735300877,None,334.2305735300877,None,334.2305735300877,None,,,,,,,,,,,,,,004,2022-05-06_10h23.26.489,Main,2022.1.1,59.99674817942585,
negative,positive,2,j,l,,,,,,,,,3,13,67,15,,,,,,,,,main,2,2,2,positive,negative,j,j,1,0.9115608000429347,334.2347052000696,335.24712830001954,335.2304261000827,None,334.2347052000696,None,334.2347052000696,None,334.2347052000696,None,336.1444303300348,None,336.1444303300348,None,336.1444303300348,None,,,,,,,,,,,,,,004,2022-05-06_10h23.26.489,Main,2022.1.1,59.99674817942585,
positive,negative,1,l,j,,,,,,,,,3,14,68,5,,,,,,,,,main,1,1,1,negative,positive,l,l,1,0.8983764000004157,336.1444307999918,337.14443570002913,337.14443570002913,None,336.1444307999918,None,336.1444307999918,None,336.1444307999918,None,338.0444127300405,None,338.0444127300405,None,338.0444127300405,None,,,,,,,,,,,,,,004,2022-05-06_10h23.26.489,Main,2022.1.1,59.99674817942585,
neutral,positive,1,k,k,,,,,,,,,3,15,69,4,,,,,,,,,main,2,2,1,positive,neutral,k,k,1,0.730835699941963,338.0510081000393,339.06107639998663,339.04441540001426,None,338.0510081000393,None,338.0510081000393,None,338.0510081000393,None,339.7777621300309,None,339.7777621300309,None,339.7777621300309,None,,,,,,,,,,,,,,004,2022-05-06_10h23.26.489,Main,2022.1.1,59.99674817942585,
positive,neutral,2,l,j,,,,,,,,,3,16,70,17,,,,,,,,,main,1,1,2,neutral,positive,l,l,1,0.7650700999656692,339.78417760005686,340.79707620001864,340.77806859998964,None,339.78417760005686,None,339.78417760005686,None,339.78417760005686,None,341.5447080300772,None,341.5447080300772,None,341.5447080300772,None,,,,,,,,,,,,,,004,2022-05-06_10h23.26.489,Main,2022.1.1,59.99674817942585,
positive,neutral,1,l,j,,,,,,,,,3,17,71,8,,,,,,,,,main,2,2,1,neutral,positive,l,j,0,0.8507670999970287,341.54813880007714,342.56370010005776,342.54469690006226,None,341.54813880007714,None,341.54813880007714,None,341.54813880007714,None,343.39709900005255,None,343.39709900005255,None,343.39709900005255,None,,,,,,,,,,,,,,004,2022-05-06_10h23.26.489,Main,2022.1.1,59.99674817942585,
neutral,negative,2,k,k,,,,,,,,,4,0,72,16,,,,,,,,,main,2,2,2,negative,neutral,k,k,1,0.8175096999621019,344.3958598000463,345.39692870003637,345.38061220000964,None,344.3958598000463,None,344.3958598000463,None,344.3958598000463,None,346.2112386300112,None,346.2112386300112,None,346.2112386300112,None,,,,,,,,,,,,,,004,2022-05-06_10h23.26.489,Main,2022.1.1,59.99674817942585,
positive,negative,2,l,j,,,,,,,,,4,1,73,14,,,,,,,,,main,1,1,2,negative,positive,l,l,1,0.781093499972485,346.21519080002327,347.21554400003515,347.209100499982,None,346.21519080002327,None,346.21519080002327,None,346.21519080002327,None,347.994169430004,None,347.994169430004,None,347.994169430004,None,,,,,,,,,,,,,,004,2022-05-06_10h23.26.489,Main,2022.1.1,59.99674817942585,
negative,neutral,2,j,l,,,,,,,,,4,2,74,12,,,,,,,,,main,1,1,2,neutral,negative,j,j,1,0.81526770000346,347.9942586000543,348.994162100018,348.994162100018,None,347.9942586000543,None,347.9942586000543,None,347.9942586000543,None,349.8111715300591,None,349.8111715300591,None,349.8111715300591,None,,,,,,,,,,,,,,004,2022-05-06_10h23.26.489,Main,2022.1.1,59.99674817942585,
neutral,positive,2,k,k,,,,,,,,,4,3,75,13,,,,,,,,,main,2,2,2,positive,neutral,k,k,1,0.7830449000466615,349.815447500092,350.8278546000365,350.81115349999163,None,349.815447500092,None,349.815447500092,None,349.815447500092,None,351.5944734300836,None,351.5944734300836,None,351.5944734300836,None,,,,,,,,,,,,,,004,2022-05-06_10h23.26.489,Main,2022.1.1,59.99674817942585,
positive,positive,2,l,j,,,,,,,,,4,4,76,11,,,,,,,,,main,2,2,2,positive,positive,l,l,1,0.8510146000189707,351.5988699999871,352.61113420000765,352.5944954000879,None,351.5988699999871,None,351.5988699999871,None,351.5988699999871,None,353.4445425300044,None,353.4445425300044,None,353.4445425300044,None,,,,,,,,,,,,,,004,2022-05-06_10h23.26.489,Main,2022.1.1,59.99674817942585,
neutral,negative,1,k,k,,,,,,,,,4,5,77,7,,,,,,,,,main,2,2,1,negative,neutral,k,k,1,0.7448619999922812,353.4513721000403,354.4610956000397,354.4467357000103,None,353.4513721000403,None,353.4513721000403,None,353.4513721000403,None,355.194393530034,None,355.194393530034,None,355.194393530034,None,,,,,,,,,,,,,,004,2022-05-06_10h23.26.489,Main,2022.1.1,59.99674817942585,
positive,negative,1,l,j,,,,,,,,,4,6,78,5,,,,,,,,,main,2,2,1,negative,positive,l,l,1,0.9149628999875858,355.2001778000267,356.2132687000558,356.1943923999788,None,355.2001778000267,None,355.2001778000267,None,355.2001778000267,None,357.1109067300684,None,357.1109067300684,None,357.1109067300684,None,,,,,,,,,,,,,,004,2022-05-06_10h23.26.489,Main,2022.1.1,59.99674817942585,
negative,negative,1,j,l,,,,,,,,,4,7,79,0,,,,,,,,,main,2,2,1,negative,negative,j,j,1,0.8815238999668509,357.1141700000735,358.12756950000767,358.1108884999994,None,357.1141700000735,None,357.1141700000735,None,357.1141700000735,None,358.99420473003994,None,358.99420473003994,None,358.99420473003994,None,,,,,,,,,,,,,,004,2022-05-06_10h23.26.489,Main,2022.1.1,59.99674817942585,
neutral,neutral,2,k,k,,,,,,,,,4,8,80,10,,,,,,,,,main,2,2,2,neutral,neutral,k,k,1,0.7660888999234885,358.998023900087,360.01088970003184,359.99421630008146,None,358.998023900087,None,358.998023900087,None,358.998023900087,None,360.7608854300459,None,360.7608854300459,None,360.7608854300459,None,,,,,,,,,,,,,,004,2022-05-06_10h23.26.489,Main,2022.1.1,59.99674817942585,
positive,positive,1,l,j,,,,,,,,,4,9,81,2,,,,,,,,,main,1,1,1,positive,positive,l,l,1,0.8643081000773236,360.7654249999905,361.7775464000879,361.76088110008277,None,360.7654249999905,None,360.7654249999905,None,360.7654249999905,None,362.6275296299835,None,362.6275296299835,None,362.6275296299835,None,,,,,,,,,,,,,,004,2022-05-06_10h23.26.489,Main,2022.1.1,59.99674817942585,
neutral,positive,1,k,k,,,,,,,,,4,10,82,4,,,,,,,,,main,2,2,1,positive,neutral,k,k,1,0.7151582000078633,362.63086959999055,363.64416480006184,363.62749270000495,None,362.63086959999055,None,362.63086959999055,None,362.63086959999055,None,364.34417162999745,None,364.34417162999745,None,364.34417162999745,None,,,,,,,,,,,,,,004,2022-05-06_10h23.26.489,Main,2022.1.1,59.99674817942585,
positive,neutral,2,l,j,,,,,,,,,4,11,83,17,,,,,,,,,main,1,1,2,neutral,positive,l,l,1,0.8478672000346705,364.34752270008903,365.36049800005276,365.34382589999586,None,364.34752270008903,None,364.34752270008903,None,364.34752270008903,None,366.19379212999485,None,366.19379212999485,None,366.19379212999485,None,,,,,,,,,,,,,,004,2022-05-06_10h23.26.489,Main,2022.1.1,59.99674817942585,
neutral,neutral,1,k,k,,,,,,,,,4,12,84,1,,,,,,,,,main,2,2,1,neutral,neutral,k,k,1,0.7146181000862271,366.19438120000996,367.1938453000039,367.1938453000039,None,366.19438120000996,None,366.19438120000996,None,366.19438120000996,None,367.91079343006714,None,367.91079343006714,None,367.91079343006714,None,,,,,,,,,,,,,,004,2022-05-06_10h23.26.489,Main,2022.1.1,59.99674817942585,
negative,neutral,1,j,l,,,,,,,,,4,13,85,3,,,,,,,,,main,2,2,1,neutral,negative,j,j,1,0.8319300999864936,367.9148120000027,368.92744190001395,368.9107906999998,None,367.9148120000027,None,367.9148120000027,None,367.9148120000027,None,369.74409212999745,None,369.74409212999745,None,369.74409212999745,None,,,,,,,,,,,,,,004,2022-05-06_10h23.26.489,Main,2022.1.1,59.99674817942585,
negative,negative,2,j,l,,,,,,,,,4,14,86,9,,,,,,,,,main,1,1,2,negative,negative,j,j,1,0.8150186999700963,369.7477260000305,370.7607624999946,370.7463886999758,None,369.7477260000305,None,369.7477260000305,None,369.7477260000305,None,371.56072793005734,None,371.56072793005734,None,371.56072793005734,None,,,,,,,,,,,,,,004,2022-05-06_10h23.26.489,Main,2022.1.1,59.99674817942585,
negative,positive,2,j,l,,,,,,,,,4,15,87,15,,,,,,,,,main,1,1,2,positive,negative,j,j,1,0.6986545000690967,371.5639295000583,372.56299170001876,372.56299170001876,None,371.5639295000583,None,371.5639295000583,None,371.5639295000583,None,373.2606870300486,None,373.2606870300486,None,373.2606870300486,None,,,,,,,,,,,,,,004,2022-05-06_10h23.26.489,Main,2022.1.1,59.99674817942585,
negative,positive,1,j,l,,,,,,,,,4,16,88,6,,,,,,,,,main,1,1,1,positive,negative,j,j,1,0.9645082999486476,373.26464459998533,374.2726588000078,374.2500119000906,None,373.26464459998533,None,373.26464459998533,None,373.26464459998533,None,375.2269493300817,None,375.2269493300817,None,375.2269493300817,None,,,,,,,,,,,,,,004,2022-05-06_10h23.26.489,Main,2022.1.1,59.99674817942585,
positive,neutral,1,l,j,,,,,,,,,4,17,89,8,,,,,,,,,main,1,1,1,neutral,positive,l,l,1,0.8484771000221372,375.2270448000636,376.2273015000392,376.2273015000392,None,375.2270448000636,None,375.2270448000636,None,375.2270448000636,None,377.0772601299803,None,377.0772601299803,None,377.0772601299803,None,,,,,,,,,,,,,,004,2022-05-06_10h23.26.489,Main,2022.1.1,59.99674817942585,
positive,negative,1,l,j,,,,,,,,,5,0,90,5,,,,,,,,,main,2,2,1,negative,positive,l,l,1,0.8151948999147862,377.0813668000046,378.09391240007244,378.07953049999196,None,377.0813668000046,None,377.0813668000046,None,377.0813668000046,None,378.89389653004474,None,378.89389653004474,None,378.89389653004474,None,,,,,,,,,,,,,,004,2022-05-06_10h23.26.489,Main,2022.1.1,59.99674817942585,
negative,positive,1,j,l,,,,,,,,,5,1,91,6,,,,,,,,,main,2,2,1,positive,negative,j,j,1,1.0484664998948574,378.89736160007305,379.91055070003495,379.8938915000763,None,378.89736160007305,None,378.89736160007305,None,378.89736160007305,None,380.94385423000205,None,380.94385423000205,None,380.94385423000205,None,,,,,,,,,,,,,,004,2022-05-06_10h23.26.489,Main,2022.1.1,59.99674817942585,
positive,positive,1,l,j,,,,,,,,,5,2,92,2,,,,,,,,,main,2,2,1,positive,positive,l,l,1,0.9652442000806332,380.9497192000272,381.9627116000047,381.946156400023,None,380.9497192000272,None,380.9497192000272,None,380.9497192000272,None,382.91048133001897,None,382.91048133001897,None,382.91048133001897,None,,,,,,,,,,,,,,004,2022-05-06_10h23.26.489,Main,2022.1.1,59.99674817942585,
positive,positive,2,l,j,,,,,,,,,5,3,93,11,,,,,,,,,main,2,2,2,positive,positive,l,l,1,0.8644547999138013,382.91658830002416,383.93972680007573,383.91728480008896,None,382.91658830002416,None,382.91658830002416,None,382.91658830002416,None,384.77672503005016,None,384.77672503005016,None,384.77672503005016,None,,,,,,,,,,,,,,004,2022-05-06_10h23.26.489,Main,2022.1.1,59.99674817942585,
positive,neutral,1,l,j,,,,,,,,,5,4,94,8,,,,,,,,,main,1,1,1,neutral,positive,l,l,1,1.3309530999977142,384.77771490009036,385.793393000029,385.77671360003296,None,384.77771490009036,None,384.77771490009036,None,384.77771490009036,None,387.1100539299776,None,387.1100539299776,None,387.1100539299776,None,,,,,,,,,,,,,,004,2022-05-06_10h23.26.489,Main,2022.1.1,59.99674817942585,
negative,positive,2,j,l,,,,,,,,,5,5,95,15,,,,,,,,,main,2,2,2,positive,negative,j,j,1,1.248747200006619,387.1125826999778,388.1271678999765,388.11005020001903,None,387.1125826999778,None,387.1125826999778,None,387.1125826999778,None,389.3603621299961,None,389.3603621299961,None,389.3603621299961,None,,,,,,,,,,,,,,004,2022-05-06_10h23.26.489,Main,2022.1.1,59.99674817942585,
neutral,negative,1,k,k,,,,,,,,,5,6,96,7,,,,,,,,,main,2,2,1,negative,neutral,k,k,1,0.8647488999413326,389.3640680999961,390.37934960005805,390.3626663000323,None,389.3640680999961,None,389.3640680999961,None,389.3640680999961,None,391.22696802999127,None,391.22696802999127,None,391.22696802999127,None,,,,,,,,,,,,,,004,2022-05-06_10h23.26.489,Main,2022.1.1,59.99674817942585,
negative,neutral,2,j,l,,,,,,,,,5,7,97,12,,,,,,,,,main,1,1,2,neutral,negative,j,j,1,0.8319678999250755,391.2436528999824,392.2436420000158,392.22697010007687,None,391.2436528999824,None,391.2436528999824,None,391.2436528999824,None,393.06036872999977,None,393.06036872999977,None,393.06036872999977,None,,,,,,,,,,,,,,004,2022-05-06_10h23.26.489,Main,2022.1.1,59.99674817942585,
negative,negative,2,j,l,,,,,,,,,5,8,98,9,,,,,,,,,main,1,1,2,negative,negative,j,j,1,1.2317579999798909,393.06357490003575,394.07690500002354,394.06255909998436,None,393.06357490003575,None,393.06357490003575,None,393.06357490003575,None,395.2936164300307,None,395.2936164300307,None,395.2936164300307,None,,,,,,,,,,,,,,004,2022-05-06_10h23.26.489,Main,2022.1.1,59.99674817942585,
neutral,positive,2,k,k,,,,,,,,,5,9,99,13,,,,,,,,,main,2,2,2,positive,neutral,k,k,1,0.8480828000465408,395.3103057000553,396.3098286000313,396.2935967000667,None,395.3103057000553,None,395.3103057000553,None,395.3103057000553,None,397.1431435300154,None,397.1431435300154,None,397.1431435300154,None,,,,,,,,,,,,,,004,2022-05-06_10h23.26.489,Main,2022.1.1,59.99674817942585,
positive,negative,2,l,j,,,,,,,,,5,10,100,14,,,,,,,,,main,2,2,2,negative,positive,l,l,1,0.9985378000419587,397.14324860007036,398.1457727000816,398.1457727000816,None,397.14324860007036,None,397.14324860007036,None,397.14324860007036,None,399.1435440300382,None,399.1435440300382,None,399.1435440300382,None,,,,,,,,,,,,,,004,2022-05-06_10h23.26.489,Main,2022.1.1,59.99674817942585,
positive,neutral,2,l,j,,,,,,,,,5,11,101,17,,,,,,,,,main,1,1,2,neutral,positive,l,l,1,0.7151816999539733,399.16013750003185,400.1601959000109,400.1434423000319,None,399.16013750003185,None,399.16013750003185,None,399.16013750003185,None,400.86014333007626,None,400.86014333007626,None,400.86014333007626,None,,,,,,,,,,,,,,004,2022-05-06_10h23.26.489,Main,2022.1.1,59.99674817942585,
negative,neutral,1,j,l,,,,,,,,,5,12,102,3,,,,,,,,,main,1,1,1,neutral,negative,j,j,1,1.0136284000473097,400.8645332000451,401.8767676000716,401.8600827000337,None,400.8645332000451,None,400.8645332000451,None,400.8645332000451,None,402.87639083004325,None,402.87639083004325,None,402.87639083004325,None,,,,,,,,,,,,,,004,2022-05-06_10h23.26.489,Main,2022.1.1,59.99674817942585,
neutral,neutral,2,k,k,,,,,,,,,5,13,103,10,,,,,,,,,main,1,1,2,neutral,neutral,k,k,1,0.8153758000116795,402.8804542000871,403.8956428000238,403.87898270005826,None,402.8804542000871,None,402.8804542000871,None,402.8804542000871,None,404.6933997300337,None,404.6933997300337,None,404.6933997300337,None,,,,,,,,,,,,,,004,2022-05-06_10h23.26.489,Main,2022.1.1,59.99674817942585,
neutral,neutral,1,k,k,,,,,,,,,5,14,104,1,,,,,,,,,main,2,2,1,neutral,neutral,k,k,1,0.6655436999863014,404.6973112000851,405.7096289000474,405.6929508000612,None,404.6973112000851,None,404.6973112000851,None,404.6973112000851,None,406.3596316300216,None,406.3596316300216,None,406.3596316300216,None,,,,,,,,,,,,,,004,2022-05-06_10h23.26.489,Main,2022.1.1,59.99674817942585,
neutral,positive,1,k,k,,,,,,,,,5,15,105,4,,,,,,,,,main,2,2,1,positive,neutral,k,k,1,0.6138622000580654,406.3609925999772,407.35964320006315,407.35964320006315,None,406.3609925999772,None,406.3609925999772,None,406.3609925999772,None,407.9762697300292,None,407.9762697300292,None,407.9762697300292,None,,,,,,,,,,,,,,004,2022-05-06_10h23.26.489,Main,2022.1.1,59.99674817942585,
negative,negative,1,j,l,,,,,,,,,5,16,106,0,,,,,,,,,main,2,2,1,negative,negative,j,j,1,1.482188199996017,407.9767871000804,408.97630079998635,408.97630079998635,None,407.9767871000804,None,407.9767871000804,None,407.9767871000804,None,410.4599967299844,None,410.4599967299844,None,410.4599967299844,None,,,,,,,,,,,,,,004,2022-05-06_10h23.26.489,Main,2022.1.1,59.99674817942585,
neutral,negative,2,k,k,,,,,,,,,5,17,107,16,,,,,,,,,main,1,1,2,negative,neutral,k,k,1,0.8474803999997675,410.46384129999205,411.47891090007033,411.45989599998575,None,410.46384129999205,None,410.46384129999205,None,410.46384129999205,None,412.30986943003956,None,412.30986943003956,None,412.30986943003956,None,,,,,,,,,,,,,,004,2022-05-06_10h23.26.489,Main,2022.1.1,59.99674817942585,
negative,positive,2,j,l,,,,,,,,,6,0,108,15,,,,,,,,,main,1,1,2,positive,negative,j,j,1,0.7818071000510827,412.313239500043,413.32869070000015,413.3121955000097,None,412.313239500043,None,412.313239500043,None,412.313239500043,None,414.0931464299909,None,414.0931464299909,None,414.0931464299909,None,,,,,,,,,,,,,,004,2022-05-06_10h23.26.489,Main,2022.1.1,59.99674817942585,
negative,negative,1,j,l,,,,,,,,,6,1,109,0,,,,,,,,,main,2,2,1,negative,negative,j,j,1,0.8972833999432623,414.0966550000012,415.1120638999855,415.09314320003614,None,414.0966550000012,None,414.0966550000012,None,414.0966550000012,None,415.9919358299929,None,415.9919358299929,None,415.9919358299929,None,,,,,,,,,,,,,,004,2022-05-06_10h23.26.489,Main,2022.1.1,59.99674817942585,
negative,neutral,2,j,l,,,,,,,,,6,2,110,12,,,,,,,,,main,2,2,2,neutral,negative,j,j,1,0.7161322999745607,416.0075569000328,417.0093678000849,416.9926988000516,None,416.0075569000328,None,416.0075569000328,None,416.0075569000328,None,417.70959643007956,None,417.70959643007956,None,417.70959643007956,None,,,,,,,,,,,,,,004,2022-05-06_10h23.26.489,Main,2022.1.1,59.99674817942585,
positive,neutral,2,l,j,,,,,,,,,6,3,111,17,,,,,,,,,main,1,1,2,neutral,positive,l,l,1,0.8984666999895126,417.70947120001074,418.7097450000001,418.7097450000001,None,417.70947120001074,None,417.70947120001074,None,417.70947120001074,None,419.60971233005404,None,419.60971233005404,None,419.60971233005404,None,,,,,,,,,,,,,,004,2022-05-06_10h23.26.489,Main,2022.1.1,59.99674817942585,
positive,positive,2,l,j,,,,,,,,,6,4,112,11,,,,,,,,,main,1,1,2,positive,positive,l,l,1,1.1654173000715673,419.61545390007086,420.6263637000229,420.6097201000666,None,419.61545390007086,None,419.61545390007086,None,419.61545390007086,None,421.7763728300459,None,421.7763728300459,None,421.7763728300459,None,,,,,,,,,,,,,,004,2022-05-06_10h23.26.489,Main,2022.1.1,59.99674817942585,
positive,negative,1,l,j,,,,,,,,,6,5,113,5,,,,,,,,,main,2,2,1,negative,positive,l,l,1,1.264993300079368,421.78029680007603,422.792975999997,422.77859540004283,None,421.78029680007603,None,421.78029680007603,None,421.78029680007603,None,424.0430445299833,None,424.0430445299833,None,424.0430445299833,None,,,,,,,,,,,,,,004,2022-05-06_10h23.26.489,Main,2022.1.1,59.99674817942585,
positive,positive,1,l,j,,,,,,,,,6,6,114,2,,,,,,,,,main,2,2,1,positive,positive,l,l,1,0.8644192999927327,424.04898010008037,425.06194290006533,425.04292769997846,None,424.04898010008037,None,424.04898010008037,None,424.04898010008037,None,425.9091827300261,None,425.9091827300261,None,425.9091827300261,None,,,,,,,,,,,,,,004,2022-05-06_10h23.26.489,Main,2022.1.1,59.99674817942585,
neutral,neutral,1,k,k,,,,,,,,,6,7,115,1,,,,,,,,,main,1,1,1,neutral,neutral,k,k,1,0.7659963000332937,425.9093995000003,426.9092564000748,426.9092564000748,None,425.9093995000003,None,425.9093995000003,None,425.9093995000003,None,427.6759046299965,None,427.6759046299965,None,427.6759046299965,None,,,,,,,,,,,,,,004,2022-05-06_10h23.26.489,Main,2022.1.1,59.99674817942585,
neutral,negative,1,k,k,,,,,,,,,6,8,116,7,,,,,,,,,main,1,1,1,negative,neutral,k,k,1,0.7647939999587834,427.68015130003914,428.69285580003634,428.67844080005307,None,427.68015130003914,None,427.68015130003914,None,427.68015130003914,None,429.44290213008645,None,429.44290213008645,None,429.44290213008645,None,,,,,,,,,,,,,,004,2022-05-06_10h23.26.489,Main,2022.1.1,59.99674817942585,
positive,neutral,1,l,j,,,,,,,,,6,9,117,8,,,,,,,,,main,2,2,1,neutral,positive,l,l,1,0.998367500025779,429.4487093000207,430.4616994999815,430.4428283000598,None,429.4487093000207,None,429.4487093000207,None,429.4487093000207,None,431.44276263007197,None,431.44276263007197,None,431.44276263007197,None,,,,,,,,,,,,,,004,2022-05-06_10h23.26.489,Main,2022.1.1,59.99674817942585,
negative,positive,1,j,l,,,,,,,,,6,10,118,6,,,,,,,,,main,1,1,1,positive,negative,j,j,1,0.9984518999699503,431.44633559999056,432.46170420001727,432.4450706000207,None,431.44633559999056,None,431.44633559999056,None,431.44633559999056,None,433.4427646300872,None,433.4427646300872,None,433.4427646300872,None,,,,,,,,,,,,,,004,2022-05-06_10h23.26.489,Main,2022.1.1,59.99674817942585,
positive,negative,2,l,j,,,,,,,,,6,11,119,14,,,,,,,,,main,1,1,2,negative,positive,l,l,1,0.8151619000127539,433.4485036000842,434.46165479999036,434.44271580001805,None,433.4485036000842,None,433.4485036000842,None,433.4485036000842,None,435.25937173004496,None,435.25937173004496,None,435.25937173004496,None,,,,,,,,,,,,,,004,2022-05-06_10h23.26.489,Main,2022.1.1,59.99674817942585,
neutral,neutral,2,k,k,,,,,,,,,6,12,120,10,,,,,,,,,main,2,2,2,neutral,neutral,k,k,1,0.7972012999234721,435.2634145000484,436.27564090001397,436.2589730999898,None,435.2634145000484,None,435.2634145000484,None,435.2634145000484,None,437.0589529300458,None,437.0589529300458,None,437.0589529300458,None,,,,,,,,,,,,,,004,2022-05-06_10h23.26.489,Main,2022.1.1,59.99674817942585,
neutral,positive,1,k,k,,,,,,,,,6,13,121,4,,,,,,,,,main,2,2,1,positive,neutral,k,k,1,0.8819672000827268,437.0757874000119,438.0756400000537,438.0589713000227,None,437.0757874000119,None,437.0757874000119,None,437.0757874000119,None,438.9423188300687,None,438.9423188300687,None,438.9423188300687,None,,,,,,,,,,,,,,004,2022-05-06_10h23.26.489,Main,2022.1.1,59.99674817942585,
neutral,positive,2,k,k,,,,,,,,,6,14,122,13,,,,,,,,,main,1,1,2,positive,neutral,k,k,1,0.7654355999547988,438.9481166000478,439.96150920004584,439.9426249000244,None,438.9481166000478,None,438.9481166000478,None,438.9481166000478,None,440.7092739300686,None,440.7092739300686,None,440.7092739300686,None,,,,,,,,,,,,,,004,2022-05-06_10h23.26.489,Main,2022.1.1,59.99674817942585,
negative,neutral,1,j,l,,,,,,,,,6,15,123,3,,,,,,,,,main,1,1,1,neutral,negative,j,j,1,1.015110700041987,440.713182699983,441.72819519997574,441.7115851000417,None,440.713182699983,None,440.713182699983,None,440.713182699983,None,442.7259455300053,None,442.7259455300053,None,442.7259455300053,None,,,,,,,,,,,,,,004,2022-05-06_10h23.26.489,Main,2022.1.1,59.99674817942585,
neutral,negative,2,k,k,,,,,,,,,6,16,124,16,,,,,,,,,main,2,2,2,negative,neutral,k,k,1,0.8149584999773651,442.72930750006344,443.7448565000668,443.72589250002056,None,442.72930750006344,None,442.72930750006344,None,442.72930750006344,None,444.5426482299925,None,444.5426482299925,None,444.5426482299925,None,,,,,,,,,,,,,,004,2022-05-06_10h23.26.489,Main,2022.1.1,59.99674817942585,
negative,negative,2,j,l,,,,,,,,,6,17,125,9,,,,,,,,,main,2,2,2,negative,negative,j,j,1,0.8482725000940263,444.5459283000091,445.5614695000695,445.54483919998165,None,444.5459283000091,None,444.5459283000091,None,444.5459283000091,None,446.3924623300671,None,446.3924623300671,None,446.3924623300671,None,,,,,,,,,,,,,,004,2022-05-06_10h23.26.489,Main,2022.1.1,59.99674817942585,
positive,neutral,2,l,j,,,,,,,,,7,0,126,17,,,,,,,,,main,2,2,2,neutral,positive,l,l,1,0.8314793999306858,446.3960148000624,447.4087569999974,447.3920974000357,None,446.3960148000624,None,446.3960148000624,None,446.3960148000624,None,448.2253772299853,None,448.2253772299853,None,448.2253772299853,None,,,,,,,,,,,,,,004,2022-05-06_10h23.26.489,Main,2022.1.1,59.99674817942585,
neutral,positive,2,k,k,,,,,,,,,7,1,127,13,,,,,,,,,main,2,2,2,positive,neutral,k,k,1,0.7689656999427825,448.226542300079,449.242316900054,449.22574270004407,None,448.226542300079,None,448.226542300079,None,448.226542300079,None,449.9926856299979,None,449.9926856299979,None,449.9926856299979,None,,,,,,,,,,,,,,004,2022-05-06_10h23.26.489,Main,2022.1.1,59.99674817942585,
negative,positive,1,j,l,,,,,,,,,7,2,128,6,,,,,,,,,main,2,2,1,positive,negative,j,j,1,1.076265100040473,450.0098647000268,451.0090303000761,450.99464380007703,None,450.0098647000268,None,450.0098647000268,None,450.0098647000268,None,452.07566962997663,None,452.07566962997663,None,452.07566962997663,None,,,,,,,,,,,,,,004,2022-05-06_10h23.26.489,Main,2022.1.1,59.99674817942585,
positive,negative,1,l,j,,,,,,,,,7,3,129,5,,,,,,,,,main,2,2,1,negative,positive,l,l,1,0.9485396000090986,452.07922650000546,453.0923162000254,453.07565400004387,None,452.07922650000546,None,452.07922650000546,None,452.07922650000546,None,454.025621730031,None,454.025621730031,None,454.025621730031,None,,,,,,,,,,,,,,004,2022-05-06_10h23.26.489,Main,2022.1.1,59.99674817942585,
positive,negative,2,l,j,,,,,,,,,7,4,130,14,,,,,,,,,main,1,1,2,negative,positive,l,l,1,0.8150397000135854,454.02909110009205,455.04448240005877,455.0279847000493,None,454.02909110009205,None,454.02909110009205,None,454.02909110009205,None,455.8422427299782,None,455.8422427299782,None,455.8422427299782,None,,,,,,,,,,,,,,004,2022-05-06_10h23.26.489,Main,2022.1.1,59.99674817942585,
positive,neutral,1,l,j,,,,,,,,,7,5,131,8,,,,,,,,,main,2,2,1,neutral,positive,l,l,1,0.8979606999782845,455.8480048000347,456.85852860007435,456.841904800036,None,455.8480048000347,None,455.8480048000347,None,455.8480048000347,None,457.7418338300311,None,457.7418338300311,None,457.7418338300311,None,,,,,,,,,,,,,,004,2022-05-06_10h23.26.489,Main,2022.1.1,59.99674817942585,
positive,positive,2,l,j,,,,,,,,,7,6,132,11,,,,,,,,,main,2,2,2,positive,positive,l,l,1,0.8989048999501392,457.74193050002214,458.7418503999943,458.7418503999943,None,457.74193050002214,None,457.74193050002214,None,457.74193050002214,None,459.6418651300599,None,459.6418651300599,None,459.6418651300599,None,,,,,,,,,,,,,,004,2022-05-06_10h23.26.489,Main,2022.1.1,59.99674817942585,
negative,neutral,1,j,l,,,,,,,,,7,7,133,3,,,,,,,,,main,2,2,1,neutral,negative,j,j,1,1.0983211999991909,459.64453679998405,460.6585415999871,460.64186049997807,None,459.64453679998405,None,459.64453679998405,None,459.64453679998405,None,461.7422279300052,None,461.7422279300052,None,461.7422279300052,None,,,,,,,,,,,,,,004,2022-05-06_10h23.26.489,Main,2022.1.1,59.99674817942585,
positive,positive,1,l,j,,,,,,,,,7,8,134,2,,,,,,,,,main,2,2,1,positive,positive,l,l,1,0.9819911000085995,461.745776600088,462.7611622000113,462.74447060003877,None,461.745776600088,None,461.745776600088,None,461.745776600088,None,463.7254875300103,None,463.7254875300103,None,463.7254875300103,None,,,,,,,,,,,,,,004,2022-05-06_10h23.26.489,Main,2022.1.1,59.99674817942585,
negative,negative,2,j,l,,,,,,,,,7,9,135,9,,,,,,,,,main,1,1,2,negative,negative,j,j,1,0.7806805999716744,463.7364062999841,464.7420701000374,464.7254000999965,None,463.7364062999841,None,463.7364062999841,None,463.7364062999841,None,465.5087545300019,None,465.5087545300019,None,465.5087545300019,None,,,,,,,,,,,,,,004,2022-05-06_10h23.26.489,Main,2022.1.1,59.99674817942585,
negative,positive,2,j,l,,,,,,,,,7,10,136,15,,,,,,,,,main,1,1,2,positive,negative,j,j,1,0.6816690000705421,465.5120341000147,466.5253717000596,466.5109856000636,None,465.5120341000147,None,465.5120341000147,None,465.5120341000147,None,467.1920099300449,None,467.1920099300449,None,467.1920099300449,None,,,,,,,,,,,,,,004,2022-05-06_10h23.26.489,Main,2022.1.1,59.99674817942585,
neutral,neutral,1,k,k,,,,,,,,,7,11,137,1,,,,,,,,,main,1,1,1,neutral,neutral,k,k,1,0.7812616999726743,467.19520339998417,468.2082970000338,468.19161750003695,None,467.19520339998417,None,467.19520339998417,None,467.19520339998417,None,468.97493243009086,None,468.97493243009086,None,468.97493243009086,None,,,,,,,,,,,,,,004,2022-05-06_10h23.26.489,Main,2022.1.1,59.99674817942585,
neutral,neutral,2,k,k,,,,,,,,,7,12,138,10,,,,,,,,,main,2,2,2,neutral,neutral,k,k,1,0.7828036999562755,468.9749417999992,469.9749682000838,469.9749682000838,None,468.9749417999992,None,468.9749417999992,None,468.9749417999992,None,470.7583056300762,None,470.7583056300762,None,470.7583056300762,None,,,,,,,,,,,,,,004,2022-05-06_10h23.26.489,Main,2022.1.1,59.99674817942585,
neutral,positive,1,k,k,,,,,,,,,7,13,139,4,,,,,,,,,main,2,2,1,positive,neutral,k,k,1,0.6311846000608057,470.7631400000537,471.77743030001875,471.76082389999647,None,470.7631400000537,None,470.7631400000537,None,470.7631400000537,None,472.3918938300456,None,472.3918938300456,None,472.3918938300456,None,,,,,,,,,,,,,,004,2022-05-06_10h23.26.489,Main,2022.1.1,59.99674817942585,
negative,neutral,2,j,l,,,,,,,,,7,14,140,12,,,,,,,,,main,2,2,2,neutral,negative,j,j,1,0.7483678999124095,472.3954678000882,473.40857089997735,473.3919132000301,None,472.3954678000882,None,472.3954678000882,None,472.3954678000882,None,474.1419535300345,None,474.1419535300345,None,474.1419535300345,None,,,,,,,,,,,,,,004,2022-05-06_10h23.26.489,Main,2022.1.1,59.99674817942585,
neutral,negative,1,k,k,,,,,,,,,7,15,141,7,,,,,,,,,main,1,1,1,negative,neutral,k,k,1,0.7816162999952212,474.1451905000722,475.158564100042,475.14185880008154,None,474.1451905000722,None,474.1451905000722,None,474.1451905000722,None,475.92520653003595,None,475.92520653003595,None,475.92520653003595,None,,,,,,,,,,,,,,004,2022-05-06_10h23.26.489,Main,2022.1.1,59.99674817942585,
negative,negative,1,j,l,,,,,,,,,7,16,142,0,,,,,,,,,main,2,2,1,negative,negative,j,j,1,0.8639628000091761,475.9292086000787,476.9418142000213,476.9251600999851,None,475.9292086000787,None,475.9292086000787,None,475.9292086000787,None,477.79144012999024,None,477.79144012999024,None,477.79144012999024,None,,,,,,,,,,,,,,004,2022-05-06_10h23.26.489,Main,2022.1.1,59.99674817942585,
neutral,negative,2,k,k,,,,,,,,,7,17,143,16,,,,,,,,,main,1,1,2,negative,neutral,k,k,1,0.7317019999027252,477.7914536000462,478.79139170004055,478.79139170004055,None,477.7914536000462,None,477.7914536000462,None,477.7914536000462,None,479.52478153003614,None,479.52478153003614,None,479.52478153003614,None,,,,,,,,,,,,,,004,2022-05-06_10h23.26.489,Main,2022.1.1,59.99674817942585,
neutral,negative,1,k,k,,,,,,,,,8,0,144,7,,,,,,,,,main,2,2,1,negative,neutral,k,k,1,0.6988351000472903,479.53045429999474,480.54175209999084,480.5250962000573,None,479.53045429999474,None,479.53045429999474,None,479.53045429999474,None,481.2250427299994,None,481.2250427299994,None,481.2250427299994,None,,,,,,,,,,,,,,004,2022-05-06_10h23.26.489,Main,2022.1.1,59.99674817942585,
negative,positive,1,j,l,,,,,,,,,8,1,145,6,,,,,,,,,main,1,1,1,positive,negative,j,j,1,1.1983180999523029,481.23115060001146,482.2417105999775,482.22733210003935,None,481.23115060001146,None,481.23115060001146,None,481.23115060001146,None,483.4250002299785,None,483.4250002299785,None,483.4250002299785,None,,,,,,,,,,,,,,004,2022-05-06_10h23.26.489,Main,2022.1.1,59.99674817942585,
negative,negative,2,j,l,,,,,,,,,8,2,146,9,,,,,,,,,main,1,1,2,negative,negative,j,j,1,0.848513999953866,483.43048350000754,484.44166360003874,484.42498610005714,None,483.43048350000754,None,483.43048350000754,None,483.43048350000754,None,485.2750815299922,None,485.2750815299922,None,485.2750815299922,None,,,,,,,,,,,,,,004,2022-05-06_10h23.26.489,Main,2022.1.1,59.99674817942585,
positive,neutral,2,l,j,,,,,,,,,8,3,147,17,,,,,,,,,main,1,1,2,neutral,positive,l,l,1,0.8981252999510616,485.27821110002697,486.29161519999616,486.2749578000512,None,485.27821110002697,None,485.27821110002697,None,485.27821110002697,None,487.1745521300589,None,487.1745521300589,None,487.1745521300589,None,,,,,,,,,,,,,,004,2022-05-06_10h23.26.489,Main,2022.1.1,59.99674817942585,
positive,neutral,1,l,j,,,,,,,,,8,4,148,8,,,,,,,,,main,1,1,1,neutral,positive,l,l,1,0.9483462000498548,487.1748449000297,488.1745335999876,488.1745335999876,None,487.1748449000297,None,487.1748449000297,None,487.1748449000297,None,489.1245346299955,None,489.1245346299955,None,489.1245346299955,None,,,,,,,,,,,,,,004,2022-05-06_10h23.26.489,Main,2022.1.1,59.99674817942585,
positive,positive,2,l,j,,,,,,,,,8,5,149,11,,,,,,,,,main,2,2,2,positive,positive,l,l,1,0.8317475999938324,489.1251923000673,490.12476210005116,490.12476210005116,None,489.1251923000673,None,489.1251923000673,None,489.1251923000673,None,490.95785642998527,None,490.95785642998527,None,490.95785642998527,None,,,,,,,,,,,,,,004,2022-05-06_10h23.26.489,Main,2022.1.1,59.99674817942585,
neutral,negative,2,k,k,,,,,,,,,8,6,150,16,,,,,,,,,main,2,2,2,negative,neutral,k,k,1,0.8819733000127599,490.96139040007256,491.96044300007634,491.96044300007634,None,490.96139040007256,None,490.96139040007256,None,490.96139040007256,None,492.8414694300271,None,492.8414694300271,None,492.8414694300271,None,,,,,,,,,,,,,,004,2022-05-06_10h23.26.489,Main,2022.1.1,59.99674817942585,
positive,negative,1,l,j,,,,,,,,,8,7,151,5,,,,,,,,,main,2,2,1,negative,positive,l,l,1,1.1815860000206158,492.8453621000517,493.85811310005374,493.841608799994,None,492.8453621000517,None,492.8453621000517,None,492.8453621000517,None,495.0248315300676,None,495.0248315300676,None,495.0248315300676,None,,,,,,,,,,,,,,004,2022-05-06_10h23.26.489,Main,2022.1.1,59.99674817942585,
positive,positive,1,l,j,,,,,,,,,8,8,152,2,,,,,,,,,main,2,2,1,positive,positive,l,l,1,0.714389199973084,495.0289660000708,496.0414086000528,496.02694470004644,None,495.0289660000708,None,495.0289660000708,None,495.0289660000708,None,496.7415580300265,None,496.7415580300265,None,496.7415580300265,None,,,,,,,,,,,,,,004,2022-05-06_10h23.26.489,Main,2022.1.1,59.99674817942585,
neutral,neutral,1,k,k,,,,,,,,,8,9,153,1,,,,,,,,,main,1,1,1,neutral,neutral,k,k,1,0.7980786000844091,496.74787289998494,497.758060400025,497.74399980006274,None,496.74787289998494,None,496.74787289998494,None,496.74787289998494,None,498.5410004300182,None,498.5410004300182,None,498.5410004300182,None,,,,,,,,,,,,,,004,2022-05-06_10h23.26.489,Main,2022.1.1,59.99674817942585,
neutral,positive,1,k,k,,,,,,,,,8,10,154,4,,,,,,,,,main,2,2,1,positive,neutral,k,k,1,0.6305074000265449,498.5490893999813,499.5576487000799,499.54096970008686,None,498.5490893999813,None,498.5490893999813,None,498.5490893999813,None,500.17432972999524,None,500.17432972999524,None,500.17432972999524,None,,,,,,,,,,,,,,004,2022-05-06_10h23.26.489,Main,2022.1.1,59.99674817942585,
negative,positive,2,j,l,,,,,,,,,8,11,155,15,,,,,,,,,main,2,2,2,positive,negative,j,j,1,0.7996412999927998,500.17993189999834,501.19129960006103,501.17462569999043,None,500.17993189999834,None,500.17993189999834,None,500.17993189999834,None,501.9746758299996,None,501.9746758299996,None,501.9746758299996,None,,,,,,,,,,,,,,004,2022-05-06_10h23.26.489,Main,2022.1.1,59.99674817942585,
negative,neutral,1,j,l,,,,,,,,,8,12,156,3,,,,,,,,,main,2,2,1,neutral,negative,j,l,0,0.8811940999003127,501.98114520008676,502.9935675000306,502.9767990000546,None,501.98114520008676,None,501.98114520008676,None,501.98114520008676,None,503.8579054999864,None,503.8579054999864,None,503.8579054999864,None,,,,,,,,,,,,,,004,2022-05-06_10h23.26.489,Main,2022.1.1,59.99674817942585,
neutral,positive,2,k,k,,,,,,,,,8,13,157,13,,,,,,,,,main,2,2,2,positive,neutral,k,k,1,0.8512338999425992,504.85863750008866,505.8578783000121,505.84364590002224,None,504.85863750008866,None,504.85863750008866,None,504.85863750008866,None,506.70784403000727,None,506.70784403000727,None,506.70784403000727,None,,,,,,,,,,,,,,004,2022-05-06_10h23.26.489,Main,2022.1.1,59.99674817942585,
neutral,neutral,2,k,k,,,,,,,,,8,14,158,10,,,,,,,,,main,1,1,2,neutral,neutral,k,k,1,0.714270900003612,506.71178570005577,507.72449210006744,507.7101755000185,None,506.71178570005577,None,506.71178570005577,None,506.71178570005577,None,508.4241000299924,None,508.4241000299924,None,508.4241000299924,None,,,,,,,,,,,,,,004,2022-05-06_10h23.26.489,Main,2022.1.1,59.99674817942585,
negative,negative,1,j,l,,,,,,,,,8,15,159,0,,,,,,,,,main,2,2,1,negative,negative,j,j,1,0.9317432000534609,508.42409600003157,509.42409660003614,509.42409660003614,None,508.42409600003157,None,508.42409600003157,None,508.42409600003157,None,510.3574110299931,None,510.3574110299931,None,510.3574110299931,None,,,,,,,,,,,,,,004,2022-05-06_10h23.26.489,Main,2022.1.1,59.99674817942585,
negative,neutral,2,j,l,,,,,,,,,8,16,160,12,,,,,,,,,main,1,1,2,neutral,negative,j,j,1,0.766226299921982,510.3587817000225,511.37431089999154,511.3574252000544,None,510.3587817000225,None,510.3587817000225,None,510.3587817000225,None,512.1240838300553,None,512.1240838300553,None,512.1240838300553,None,,,,,,,,,,,,,,004,2022-05-06_10h23.26.489,Main,2022.1.1,59.99674817942585,
positive,negative,2,l,j,,,,,,,,,8,17,161,14,,,,,,,,,main,1,1,2,negative,positive,l,l,1,0.8476191000081599,512.1409752999898,513.1432951000752,513.1266933000879,None,512.1409752999898,None,512.1409752999898,None,512.1409752999898,None,513.9743631300632,None,513.9743631300632,None,513.9743631300632,None,,,,,,,,,,,,,,004,2022-05-06_10h23.26.489,Main,2022.1.1,59.99674817942585,
neutral,neutral,2,k,k,,,,,,,,,9,0,162,10,,,,,,,,,main,2,2,2,neutral,neutral,k,k,1,0.7842518000397831,513.9779676999897,514.9909938999917,514.9765426000813,None,513.9779676999897,None,513.9779676999897,None,513.9779676999897,None,515.760095430084,None,515.760095430084,None,515.760095430084,None,,,,,,,,,,,,,,004,2022-05-06_10h23.26.489,Main,2022.1.1,59.99674817942585,
negative,positive,2,j,l,,,,,,,,,9,1,163,15,,,,,,,,,main,2,2,2,positive,negative,j,j,1,0.8458692000713199,515.7631592000835,516.7743176000658,516.7600227000657,None,515.7631592000835,None,515.7631592000835,None,515.7631592000835,None,517.6076115300064,None,517.6076115300064,None,517.6076115300064,None,,,,,,,,,,,,,,004,2022-05-06_10h23.26.489,Main,2022.1.1,59.99674817942585,
neutral,negative,2,k,k,,,,,,,,,9,2,164,16,,,,,,,,,main,2,2,2,negative,neutral,k,k,1,0.7979410999687389,517.6110677000834,518.6265476000262,518.6098595000803,None,517.6110677000834,None,517.6110677000834,None,517.6110677000834,None,519.407043630036,None,519.407043630036,None,519.407043630036,None,,,,,,,,,,,,,,004,2022-05-06_10h23.26.489,Main,2022.1.1,59.99674817942585,
neutral,neutral,1,k,k,,,,,,,,,9,3,165,1,,,,,,,,,main,1,1,1,neutral,neutral,k,k,1,0.698467000038363,519.4227498000255,520.423863700009,520.4071992000099,None,519.4227498000255,None,519.4227498000255,None,519.4227498000255,None,521.107152830006,None,521.107152830006,None,521.107152830006,None,,,,,,,,,,,,,,004,2022-05-06_10h23.26.489,Main,2022.1.1,59.99674817942585,
positive,neutral,2,l,j,,,,,,,,,9,4,166,17,,,,,,,,,main,1,1,2,neutral,positive,l,l,1,0.8488499999511987,521.1071645000484,522.1075061000884,522.1075061000884,None,521.1071645000484,None,521.1071645000484,None,521.1071645000484,None,522.957623730076,None,522.957623730076,None,522.957623730076,None,,,,,,,,,,,,,,004,2022-05-06_10h23.26.489,Main,2022.1.1,59.99674817942585,
positive,neutral,1,l,j,,,,,,,,,9,5,167,8,,,,,,,,,main,2,2,1,neutral,positive,l,l,1,0.8310468000127003,522.9613638999872,523.9741591999773,523.9574832000071,None,522.9613638999872,None,522.9613638999872,None,522.9613638999872,None,524.7907846300047,None,524.7907846300047,None,524.7907846300047,None,,,,,,,,,,,,,,004,2022-05-06_10h23.26.489,Main,2022.1.1,59.99674817942585,
positive,positive,1,l,j,,,,,,,,,9,6,168,2,,,,,,,,,main,1,1,1,positive,positive,l,l,1,0.8485120999393985,524.7942268999759,525.8074535999913,525.793018000084,None,524.7942268999759,None,524.7942268999759,None,524.7942268999759,None,526.6407436300185,None,526.6407436300185,None,526.6407436300185,None,,,,,,,,,,,,,,004,2022-05-06_10h23.26.489,Main,2022.1.1,59.99674817942585,
negative,neutral,1,j,l,,,,,,,,,9,7,169,3,,,,,,,,,main,1,1,1,neutral,negative,j,l,0,0.7317923000082374,526.6463520000689,527.6587982000783,527.643066800083,None,526.6463520000689,None,526.6463520000689,None,526.6463520000689,None,528.3740505999885,None,528.3740505999885,None,528.3740505999885,None,,,,,,,,,,,,,,004,2022-05-06_10h23.26.489,Main,2022.1.1,59.99674817942585,
positive,negative,1,l,j,,,,,,,,,9,8,170,5,,,,,,,,,main,2,2,1,negative,positive,l,l,1,1.1028205000329763,529.3745920000365,530.3736313000554,530.3736313000554,None,529.3745920000365,None,529.3745920000365,None,529.3745920000365,None,531.4736671300022,None,531.4736671300022,None,531.4736671300022,None,,,,,,,,,,,,,,004,2022-05-06_10h23.26.489,Main,2022.1.1,59.99674817942585,
neutral,positive,1,k,k,,,,,,,,,9,9,171,4,,,,,,,,,main,1,1,1,positive,neutral,k,k,1,0.8518683000002056,531.4744833000004,532.4736174000427,532.4736174000427,None,531.4744833000004,None,531.4744833000004,None,531.4744833000004,None,533.3236419300199,None,533.3236419300199,None,533.3236419300199,None,,,,,,,,,,,,,,004,2022-05-06_10h23.26.489,Main,2022.1.1,59.99674817942585,
positive,positive,2,l,j,,,,,,,,,9,10,172,11,,,,,,,,,main,2,2,2,positive,positive,l,l,1,0.8455150000518188,533.3373737999937,534.3406155999983,534.3239477000898,None,533.3373737999937,None,533.3373737999937,None,533.3373737999937,None,535.173901629995,None,535.173901629995,None,535.173901629995,None,,,,,,,,,,,,,,004,2022-05-06_10h23.26.489,Main,2022.1.1,59.99674817942585,
negative,positive,1,j,l,,,,,,,,,9,11,173,6,,,,,,,,,main,2,2,1,positive,negative,j,j,1,0.8639299999922514,535.1806384000229,536.1905579000013,536.1761669000844,None,535.1806384000229,None,535.1806384000229,None,535.1806384000229,None,537.0405423300224,None,537.0405423300224,None,537.0405423300224,None,,,,,,,,,,,,,,004,2022-05-06_10h23.26.489,Main,2022.1.1,59.99674817942585,
negative,negative,1,j,l,,,,,,,,,9,12,174,0,,,,,,,,,main,2,2,1,negative,negative,j,j,1,0.6816888999892399,537.0465329000726,538.0571889000712,538.0405340000289,None,537.0465329000726,None,537.0465329000726,None,537.0465329000726,None,538.7238288300694,None,538.7238288300694,None,538.7238288300694,None,,,,,,,,,,,,,,004,2022-05-06_10h23.26.489,Main,2022.1.1,59.99674817942585,
negative,neutral,2,j,l,,,,,,,,,9,13,175,12,,,,,,,,,main,1,1,2,neutral,negative,j,j,1,0.9152184000704437,538.7271875999868,539.7408184000524,539.7241572000785,None,538.7271875999868,None,538.7271875999868,None,538.7271875999868,None,540.6400640300824,None,540.6400640300824,None,540.6400640300824,None,,,,,,,,,,,,,,004,2022-05-06_10h23.26.489,Main,2022.1.1,59.99674817942585,
neutral,positive,2,k,k,,,,,,,,,9,14,176,13,,,,,,,,,main,2,2,2,positive,neutral,k,k,1,0.9311890999088064,540.6409440999851,541.6402182000456,541.6402182000456,None,540.6409440999851,None,540.6409440999851,None,540.6409440999851,None,542.5734601300326,None,542.5734601300326,None,542.5734601300326,None,,,,,,,,,,,,,,004,2022-05-06_10h23.26.489,Main,2022.1.1,59.99674817942585,
negative,negative,2,j,l,,,,,,,,,9,15,177,9,,,,,,,,,main,1,1,2,negative,negative,j,j,1,0.9986032000742853,542.5776922000805,543.5903982000891,543.5593483999837,None,542.5776922000805,None,542.5776922000805,None,542.5776922000805,None,544.5737009300035,None,544.5737009300035,None,544.5737009300035,None,,,,,,,,,,,,,,004,2022-05-06_10h23.26.489,Main,2022.1.1,59.99674817942585,
positive,negative,2,l,j,,,,,,,,,9,16,178,14,,,,,,,,,main,1,1,2,negative,positive,l,l,1,1.2307987000094727,544.5777341000503,545.5903618000448,545.5759822999826,None,544.5777341000503,None,544.5777341000503,None,544.5777341000503,None,546.8069817300536,None,546.8069817300536,None,546.8069817300536,None,,,,,,,,,,,,,,004,2022-05-06_10h23.26.489,Main,2022.1.1,59.99674817942585,
neutral,negative,1,k,k,,,,,,,,,9,17,179,7,,,,,,,,,main,2,2,1,negative,neutral,k,l,0,-0.7847226000158116,546.813467000029,None,None,None,546.813467000029,None,546.813467000029,None,546.813467000029,None,547.0233393000672,None,547.0233393000672,None,547.0233393000672,None,,,,,,,,,,,,,,004,2022-05-06_10h23.26.489,Main,2022.1.1,59.99674817942585,
negative,positive,1,j,l,,,,,,,,,10,0,180,6,,,,,,,,,main,2,2,1,positive,negative,j,j,1,0.9006305999355391,550.0246193000348,551.0398607000243,551.0065245000878,None,550.0246193000348,None,550.0246193000348,None,550.0246193000348,None,551.9231700300122,None,551.9231700300122,None,551.9231700300122,None,,,,,,,,,,,,,,004,2022-05-06_10h23.26.489,Main,2022.1.1,59.99674817942585,
positive,positive,1,l,j,,,,,,,,,10,1,181,2,,,,,,,,,main,1,1,1,positive,positive,l,l,1,0.9142942000180483,551.9240547000663,552.9231856000843,552.9231856000843,None,551.9240547000663,None,551.9240547000663,None,551.9240547000663,None,553.8398578299791,None,553.8398578299791,None,553.8398578299791,None,,,,,,,,,,,,,,004,2022-05-06_10h23.26.489,Main,2022.1.1,59.99674817942585,
positive,positive,2,l,j,,,,,,,,,10,2,182,11,,,,,,,,,main,2,2,2,positive,positive,l,l,1,0.7829564999556169,553.8436058000661,554.8568412000313,554.8424472000916,None,553.8436058000661,None,553.8436058000661,None,553.8436058000661,None,555.6234767300891,None,555.6234767300891,None,555.6234767300891,None,,,,,,,,,,,,,,004,2022-05-06_10h23.26.489,Main,2022.1.1,59.99674817942585,
neutral,negative,1,k,k,,,,,,,,,10,3,183,7,,,,,,,,,main,1,1,1,negative,neutral,k,k,1,0.7832511001033708,555.6300618000096,556.642389500048,556.6257512000157,None,555.6300618000096,None,555.6300618000096,None,555.6300618000096,None,557.4090929300407,None,557.4090929300407,None,557.4090929300407,None,,,,,,,,,,,,,,004,2022-05-06_10h23.26.489,Main,2022.1.1,59.99674817942585,
negative,negative,2,j,l,,,,,,,,,10,4,184,9,,,,,,,,,main,1,1,2,negative,negative,j,j,1,0.7792698000557721,557.4121684000129,558.4256543000229,558.4090423000744,None,557.4121684000129,None,557.4121684000129,None,557.4121684000129,None,559.190051830036,None,559.190051830036,None,559.190051830036,None,,,,,,,,,,,,,,004,2022-05-06_10h23.26.489,Main,2022.1.1,59.99674817942585,
neutral,positive,1,k,k,,,,,,,,,10,5,185,4,,,,,,,,,main,1,1,1,positive,neutral,k,k,1,0.7639239999698475,559.1992888000095,560.2090030000545,560.1924023000756,None,559.1992888000095,None,559.1992888000095,None,559.1992888000095,None,560.9566884300555,None,560.9566884300555,None,560.9566884300555,None,,,,,,,,,,,,,,004,2022-05-06_10h23.26.489,Main,2022.1.1,59.99674817942585,
positive,neutral,2,l,j,,,,,,,,,10,6,186,17,,,,,,,,,main,1,1,2,neutral,positive,l,l,1,0.8648922999855131,560.9601933000376,561.9729513999773,561.9562977000605,None,560.9601933000376,None,560.9601933000376,None,560.9601933000376,None,562.8229418300441,None,562.8229418300441,None,562.8229418300441,None,,,,,,,,,,,,,,004,2022-05-06_10h23.26.489,Main,2022.1.1,59.99674817942585,
neutral,positive,2,k,k,,,,,,,,,10,7,187,13,,,,,,,,,main,1,1,2,positive,neutral,k,k,1,0.7985773000400513,562.8230170999886,563.82296400005,563.82296400005,None,562.8230170999886,None,562.8230170999886,None,562.8230170999886,None,564.6233480300405,None,564.6233480300405,None,564.6233480300405,None,,,,,,,,,,,,,,004,2022-05-06_10h23.26.489,Main,2022.1.1,59.99674817942585,
positive,negative,1,l,j,,,,,,,,,10,8,188,5,,,,,,,,,main,1,1,1,negative,positive,l,l,1,0.9317348999902606,564.6267841000808,565.6421163000632,565.6232495000586,None,564.6267841000808,None,564.6267841000808,None,564.6267841000808,None,566.5565558300702,None,566.5565558300702,None,566.5565558300702,None,,,,,,,,,,,,,,004,2022-05-06_10h23.26.489,Main,2022.1.1,59.99674817942585,
negative,negative,1,j,l,,,,,,,,,10,9,189,0,,,,,,,,,main,2,2,1,negative,negative,j,j,1,0.9315593000501394,566.56239430001,567.5732190000126,567.5565565000288,None,566.56239430001,None,566.56239430001,None,566.56239430001,None,568.4898622300359,None,568.4898622300359,None,568.4898622300359,None,,,,,,,,,,,,,,004,2022-05-06_10h23.26.489,Main,2022.1.1,59.99674817942585,
neutral,neutral,2,k,k,,,,,,,,,10,10,190,10,,,,,,,,,main,1,1,2,neutral,neutral,k,k,1,0.8312074999557808,568.4939846000634,569.5065224000718,569.4922049000161,None,568.4939846000634,None,568.4939846000634,None,568.4939846000634,None,570.3231516300118,None,570.3231516300118,None,570.3231516300118,None,,,,,,,,,,,,,,004,2022-05-06_10h23.26.489,Main,2022.1.1,59.99674817942585,
positive,negative,2,l,j,,,,,,,,,10,11,191,14,,,,,,,,,main,1,1,2,negative,positive,l,l,1,0.9314464000053704,570.3290403999854,571.3394193000859,571.3227767000208,None,570.3290403999854,None,570.3290403999854,None,570.3290403999854,None,572.2563123300322,None,572.2563123300322,None,572.2563123300322,None,,,,,,,,,,,,,,004,2022-05-06_10h23.26.489,Main,2022.1.1,59.99674817942585,
negative,neutral,1,j,l,,,,,,,,,10,12,192,3,,,,,,,,,main,1,1,1,neutral,negative,j,j,1,0.8651117000263184,572.2562469000695,573.2561013000086,573.2561013000086,None,572.2562469000695,None,572.2562469000695,None,572.2562469000695,None,574.1230765300686,None,574.1230765300686,None,574.1230765300686,None,,,,,,,,,,,,,,004,2022-05-06_10h23.26.489,Main,2022.1.1,59.99674817942585,
positive,neutral,1,l,j,,,,,,,,,10,13,193,8,,,,,,,,,main,1,1,1,neutral,positive,l,l,1,1.0150848000776023,574.1284596000332,575.1397179000778,575.1230680000735,None,574.1284596000332,None,574.1284596000332,None,574.1284596000332,None,576.1396991299814,None,576.1396991299814,None,576.1396991299814,None,,,,,,,,,,,,,,004,2022-05-06_10h23.26.489,Main,2022.1.1,59.99674817942585,
negative,neutral,2,j,l,,,,,,,,,10,14,194,12,,,,,,,,,main,1,1,2,neutral,negative,j,j,1,0.8317638000007719,576.1436298000626,577.1563612000318,577.1396742999787,None,576.1436298000626,None,576.1436298000626,None,576.1436298000626,None,577.9729923299863,None,577.9729923299863,None,577.9729923299863,None,,,,,,,,,,,,,,004,2022-05-06_10h23.26.489,Main,2022.1.1,59.99674817942585,
neutral,negative,2,k,k,,,,,,,,,10,15,195,16,,,,,,,,,main,2,2,2,negative,neutral,k,k,1,0.8486434000078589,577.9786042000633,578.9896333999932,578.9729746000376,None,577.9786042000633,None,577.9786042000633,None,577.9786042000633,None,579.8229945299797,None,579.8229945299797,None,579.8229945299797,None,,,,,,,,,,,,,,004,2022-05-06_10h23.26.489,Main,2022.1.1,59.99674817942585,
neutral,neutral,1,k,k,,,,,,,,,10,16,196,1,,,,,,,,,main,1,1,1,neutral,neutral,k,k,1,0.8175487999105826,579.8285453000572,580.8392373999814,580.822570300079,None,579.8285453000572,None,579.8285453000572,None,579.8285453000572,None,581.6392405299819,None,581.6392405299819,None,581.6392405299819,None,,,,,,,,,,,,,,004,2022-05-06_10h23.26.489,Main,2022.1.1,59.99674817942585,
negative,positive,2,j,l,,,,,,,,,10,17,197,15,,,,,,,,,main,1,1,2,positive,negative,j,j,1,0.7954931000713259,581.6423829999985,582.6558752000565,582.6392125000712,None,581.6423829999985,None,581.6423829999985,None,581.6423829999985,None,583.4392182300915,None,583.4392182300915,None,583.4392182300915,None,,,,,,,,,,,,,,004,2022-05-06_10h23.26.489,Main,2022.1.1,59.99674817942585,
positive,positive,2,l,j,,,,,,,,,11,0,198,11,,,,,,,,,main,2,2,2,positive,positive,l,l,1,0.7985881000058725,583.4399489000207,584.4394283000147,584.4394283000147,None,583.4399489000207,None,583.4399489000207,None,583.4399489000207,None,585.2391984299873,None,585.2391984299873,None,585.2391984299873,None,,,,,,,,,,,,,,004,2022-05-06_10h23.26.489,Main,2022.1.1,59.99674817942585,
negative,negative,2,j,l,,,,,,,,,11,1,199,9,,,,,,,,,main,1,1,2,negative,negative,j,j,1,0.7483914999756962,585.2460485000629,586.2584287000354,586.2417156000156,None,585.2460485000629,None,585.2460485000629,None,585.2460485000629,None,586.9894728299812,None,586.9894728299812,None,586.9894728299812,None,,,,,,,,,,,,,,004,2022-05-06_10h23.26.489,Main,2022.1.1,59.99674817942585,
negative,positive,2,j,l,,,,,,,,,11,2,200,15,,,,,,,,,main,1,1,2,positive,negative,j,j,1,0.8164070999482647,586.9950984000461,588.0083366000326,587.9917763000121,None,586.9950984000461,None,586.9950984000461,None,586.9950984000461,None,588.8060938300448,None,588.8060938300448,None,588.8060938300448,None,,,,,,,,,,,,,,004,2022-05-06_10h23.26.489,Main,2022.1.1,59.99674817942585,
positive,negative,2,l,j,,,,,,,,,11,3,201,14,,,,,,,,,main,2,2,2,negative,positive,l,l,1,0.9304314000764862,588.8106147000799,589.8249430999858,589.8083354000701,None,588.8106147000799,None,588.8106147000799,None,588.8106147000799,None,590.7393727300339,None,590.7393727300339,None,590.7393727300339,None,,,,,,,,,,,,,,004,2022-05-06_10h23.26.489,Main,2022.1.1,59.99674817942585,
positive,negative,1,l,j,,,,,,,,,11,4,202,5,,,,,,,,,main,2,2,1,negative,positive,l,l,1,1.1314435000531375,590.7456961000571,591.7560445000418,591.7417324000271,None,590.7456961000571,None,590.7456961000571,None,590.7456961000571,None,592.8722817300702,None,592.8722817300702,None,592.8722817300702,None,,,,,,,,,,,,,,004,2022-05-06_10h23.26.489,Main,2022.1.1,59.99674817942585,
neutral,positive,1,k,k,,,,,,,,,11,5,203,4,,,,,,,,,main,2,2,1,positive,neutral,k,k,1,0.8650540000526235,592.8723374999827,593.872311300016,593.872311300016,None,592.8723374999827,None,592.8723374999827,None,592.8723374999827,None,594.7389708300004,None,594.7389708300004,None,594.7389708300004,None,,,,,,,,,,,,,,004,2022-05-06_10h23.26.489,Main,2022.1.1,59.99674817942585,
neutral,neutral,1,k,k,,,,,,,,,11,6,204,1,,,,,,,,,main,2,2,1,neutral,neutral,k,k,1,0.7311398000456393,594.7454521000618,595.758245700039,595.7415602999972,None,594.7454521000618,None,594.7454521000618,None,594.7454521000618,None,596.4726601300179,None,596.4726601300179,None,596.4726601300179,None,,,,,,,,,,,,,,004,2022-05-06_10h23.26.489,Main,2022.1.1,59.99674817942585,
neutral,positive,2,k,k,,,,,,,,,11,7,205,13,,,,,,,,,main,2,2,2,positive,neutral,k,k,1,0.7309221000177786,596.4789768999908,597.4892405000282,597.4749179000501,None,596.4789768999908,None,596.4789768999908,None,596.4789768999908,None,598.2058715300052,None,598.2058715300052,None,598.2058715300052,None,,,,,,,,,,,,,,004,2022-05-06_10h23.26.489,Main,2022.1.1,59.99674817942585,
positive,neutral,1,l,j,,,,,,,,,11,8,206,8,,,,,,,,,main,1,1,1,neutral,positive,l,l,1,0.8975968000013381,598.212501400034,599.2225059000775,599.2081625000574,None,598.212501400034,None,598.212501400034,None,598.212501400034,None,600.1058404300245,None,600.1058404300245,None,600.1058404300245,None,,,,,,,,,,,,,,004,2022-05-06_10h23.26.489,Main,2022.1.1,59.99674817942585,
neutral,neutral,2,k,k,,,,,,,,,11,9,207,10,,,,,,,,,main,2,2,2,neutral,neutral,k,k,1,0.8321875999681652,600.1093205000507,601.124715300044,601.1081290000584,None,600.1093205000507,None,600.1093205000507,None,600.1093205000507,None,601.9387556300615,None,601.9387556300615,None,601.9387556300615,None,,,,,,,,,,,,,,004,2022-05-06_10h23.26.489,Main,2022.1.1,59.99674817942585,
negative,neutral,2,j,l,,,,,,,,,11,10,208,12,,,,,,,,,main,1,1,2,neutral,negative,j,j,1,0.8144201000686735,601.9393345999997,602.9387337000808,602.9387337000808,None,601.9393345999997,None,601.9393345999997,None,601.9393345999997,None,603.7554475300828,None,603.7554475300828,None,603.7554475300828,None,,,,,,,,,,,,,,004,2022-05-06_10h23.26.489,Main,2022.1.1,59.99674817942585,
neutral,negative,1,k,k,,,,,,,,,11,11,209,7,,,,,,,,,main,2,2,1,negative,neutral,k,k,1,0.8991732000140473,603.7561980000464,604.7554259999888,604.7554259999888,None,603.7561980000464,None,603.7561980000464,None,603.7561980000464,None,605.6554149300907,None,605.6554149300907,None,605.6554149300907,None,,,,,,,,,,,,,,004,2022-05-06_10h23.26.489,Main,2022.1.1,59.99674817942585,
positive,neutral,2,l,j,,,,,,,,,11,12,210,17,,,,,,,,,main,2,2,2,neutral,positive,l,l,1,0.947724899975583,605.6620966000482,606.6747116000624,606.6580004000571,None,605.6620966000482,None,605.6620966000482,None,605.6620966000482,None,607.6056893300381,None,607.6056893300381,None,607.6056893300381,None,,,,,,,,,,,,,,004,2022-05-06_10h23.26.489,Main,2022.1.1,59.99674817942585,
negative,negative,1,j,l,,,,,,,,,11,13,211,0,,,,,,,,,main,2,2,1,negative,negative,j,j,1,0.9650397000368685,607.6098058000207,608.6246244000504,608.6056760000065,None,607.6098058000207,None,607.6098058000207,None,607.6098058000207,None,609.5723141300375,None,609.5723141300375,None,609.5723141300375,None,,,,,,,,,,,,,,004,2022-05-06_10h23.26.489,Main,2022.1.1,59.99674817942585,
negative,neutral,1,j,l,,,,,,,,,11,14,212,3,,,,,,,,,main,1,1,1,neutral,negative,j,j,1,0.8509215000085533,609.5760391000658,610.5889751000796,610.5579504000489,None,609.5760391000658,None,609.5760391000658,None,609.5760391000658,None,611.4247311300248,None,611.4247311300248,None,611.4247311300248,None,,,,,,,,,,,,,,004,2022-05-06_10h23.26.489,Main,2022.1.1,59.99674817942585,
negative,positive,1,j,l,,,,,,,,,11,15,213,6,,,,,,,,,main,2,2,1,positive,negative,j,j,1,0.7550229999469593,611.4277273000916,612.4411975999828,612.4222383000888,None,611.4277273000916,None,611.4277273000916,None,611.4277273000916,None,613.1810430300072,None,613.1810430300072,None,613.1810430300072,None,,,,,,,,,,,,,,004,2022-05-06_10h23.26.489,Main,2022.1.1,59.99674817942585,
neutral,negative,2,k,k,,,,,,,,,11,16,214,16,,,,,,,,,main,1,1,2,negative,neutral,k,k,1,0.8889385999646038,613.19689989998,614.2051713999826,614.1718386000721,None,613.19689989998,None,613.19689989998,None,613.19689989998,None,615.0718709300388,None,615.0718709300388,None,615.0718709300388,None,,,,,,,,,,,,,,004,2022-05-06_10h23.26.489,Main,2022.1.1,59.99674817942585,
positive,positive,1,l,j,,,,,,,,,11,17,215,2,,,,,,,,,main,1,1,1,positive,positive,l,l,1,0.9148851999780163,615.0781651000725,616.0888435000088,616.0721722000744,None,615.0781651000725,None,615.0781651000725,None,615.0781651000725,None,616.9888070300337,None,616.9888070300337,None,616.9888070300337,None,,,,,,,,,,,,,,004,2022-05-06_10h23.26.489,Main,2022.1.1,59.99674817942585,
negative,neutral,2,j,l,,,,,,,,,12,0,216,12,,,,,,,,,main,2,2,2,neutral,negative,j,j,1,0.8317397999344394,616.9922047000146,618.0054544000886,617.9887925999938,None,616.9922047000146,None,616.9922047000146,None,616.9922047000146,None,618.8221172300516,None,618.8221172300516,None,618.8221172300516,None,,,,,,,,,,,,,,004,2022-05-06_10h23.26.489,Main,2022.1.1,59.99674817942585,
negative,positive,1,j,l,,,,,,,,,12,1,217,6,,,,,,,,,main,1,1,1,positive,negative,j,j,1,1.2160410999786109,618.8278797999956,619.838801200036,619.8244910000358,None,618.8278797999956,None,618.8278797999956,None,618.8278797999956,None,621.0387123300577,None,621.0387123300577,None,621.0387123300577,None,,,,,,,,,,,,,,004,2022-05-06_10h23.26.489,Main,2022.1.1,59.99674817942585,
positive,neutral,1,l,j,,,,,,,,,12,2,218,8,,,,,,,,,main,1,1,1,neutral,positive,l,l,1,0.9638067999621853,621.0449513000203,622.0576130000409,622.0387244999874,None,621.0449513000203,None,621.0449513000203,None,621.0449513000203,None,623.0049923299928,None,623.0049923299928,None,623.0049923299928,None,,,,,,,,,,,,,,004,2022-05-06_10h23.26.489,Main,2022.1.1,59.99674817942585,
negative,negative,1,j,l,,,,,,,,,12,3,219,0,,,,,,,,,main,1,1,1,negative,negative,j,j,1,0.8319238000549376,623.005009100074,624.0049764000578,624.0049764000578,None,623.005009100074,None,623.005009100074,None,623.005009100074,None,624.8386463300674,None,624.8386463300674,None,624.8386463300674,None,,,,,,,,,,,,,,004,2022-05-06_10h23.26.489,Main,2022.1.1,59.99674817942585,
negative,positive,2,j,l,,,,,,,,,12,4,220,15,,,,,,,,,main,2,2,2,positive,negative,j,j,1,0.7151747000170872,624.8444668999873,625.8554453999968,625.8386383000761,None,624.8444668999873,None,624.8444668999873,None,624.8444668999873,None,626.5552768299938,None,626.5552768299938,None,626.5552768299938,None,,,,,,,,,,,,,,004,2022-05-06_10h23.26.489,Main,2022.1.1,59.99674817942585,
negative,neutral,1,j,l,,,,,,,,,12,5,221,3,,,,,,,,,main,2,2,1,neutral,negative,j,j,1,0.9815955000231043,626.5611098000081,627.5719272000715,627.555273200036,None,626.5611098000081,None,626.5611098000081,None,626.5611098000081,None,628.5385681300074,None,628.5385681300074,None,628.5385681300074,None,,,,,,,,,,,,,,004,2022-05-06_10h23.26.489,Main,2022.1.1,59.99674817942585,
negative,negative,2,j,l,,,,,,,,,12,6,222,9,,,,,,,,,main,2,2,2,negative,negative,j,j,1,0.8309722000267357,628.542595100007,629.5574896000326,629.538548600045,None,628.542595100007,None,628.542595100007,None,628.542595100007,None,630.3719216300058,None,630.3719216300058,None,630.3719216300058,None,,,,,,,,,,,,,,004,2022-05-06_10h23.26.489,Main,2022.1.1,59.99674817942585,
neutral,neutral,2,k,k,,,,,,,,,12,7,223,10,,,,,,,,,main,2,2,2,neutral,neutral,k,k,1,0.814593099988997,630.3754218000686,631.3885168000124,631.371862100088,None,630.3754218000686,None,630.3754218000686,None,630.3754218000686,None,632.1881135300616,None,632.1881135300616,None,632.1881135300616,None,,,,,,,,,,,,,,004,2022-05-06_10h23.26.489,Main,2022.1.1,59.99674817942585,
