target,distractor,set,ans1,ans2,rep_loop2.thisRepN,rep_loop2.thisTrialN,rep_loop2.thisN,rep_loop2.thisIndex,flanker_prac_loop.thisRepN,flanker_prac_loop.thisTrialN,flanker_prac_loop.thisN,flanker_prac_loop.thisIndex,flanker_main_loop.thisRepN,flanker_main_loop.thisTrialN,flanker_main_loop.thisN,flanker_main_loop.thisIndex,fl_inst_resp.keys,fl_inst_resp.rt,sound_1.started,sound_1.stopped,image_4.started,image_4.stopped,back_2.started,back_2.stopped,main_prac,fl_cold,fl_colt,fl_set,fl_dcond,fl_tcond,fl_ans,fl_res,fl_corr,fl_rt,fix_fl.started,fix_fl.stopped,targ.started,targ.stopped,j_button.started,j_button.stopped,k_button.started,k_button.stopped,l_button.started,l_button.stopped,j_button2.started,j_button2.stopped,k_button2.started,k_button2.stopped,l_button2.started,l_button2.stopped,mainback.started,mainback.stopped,key_resp.keys,key_resp.rt,mouse_6.x,mouse_6.y,mouse_6.leftButton,mouse_6.midButton,mouse_6.rightButton,mouse_6.started,mouse_6.stopped,text_2.started,text_2.stopped,id*,date,expName,psychopyVersion,frameRate,
,,,,,0,0,0,0,,,,,,,,,space,57.41860299999826,18.864194539922757,None,76.3110497999005,None,,,,,,,,,,,,,,,,,,,,,,,,,,,,,,,,,,,,,,,,,,005,2022-05-06_17h24.09.709,Main,2022.1.1,60.2500739533205,
neutral,negative,2,k,k,,,,,0,0,0,16,,,,,,,,,,,80.5795541999396,None,prac,2,2,2,negative,neutral,k,k,1,1.375014099990949,82.61400019994471,83.62948919995688,83.59614609996788,None,82.61400019994471,None,82.61400019994471,None,82.61400019994471,None,84.97716943997656,None,84.97716943997656,None,84.97716943997656,None,,,,,,,,,,,,,,005,2022-05-06_17h24.09.709,Main,2022.1.1,60.2500739533205,
neutral,neutral,2,k,k,,,,,0,1,1,10,,,,,,,,,,,,,prac,2,2,2,neutral,neutral,k,k,1,0.9597604000009596,84.98643179994542,85.99604060000274,85.97944899997674,None,84.98643179994542,None,84.98643179994542,None,84.98643179994542,None,86.94379954001633,None,86.94379954001633,None,86.94379954001633,None,,,,,,,,,,,,,,005,2022-05-06_17h24.09.709,Main,2022.1.1,60.2500739533205,
neutral,positive,1,k,k,,,,,0,2,2,4,,,,,,,,,,,,,prac,1,1,1,positive,neutral,k,l,0,1.465178900049068,86.95438099990133,87.96007519995328,87.9434123999672,None,86.95438099990133,None,86.95438099990133,None,86.95438099990133,None,89.4101067999145,None,89.4101067999145,None,89.4101067999145,None,,,,,,,,,,,,,,005,2022-05-06_17h24.09.709,Main,2022.1.1,60.2500739533205,
negative,neutral,1,j,l,,,,,0,3,3,3,,,,,,,,,,,,,prac,1,1,1,neutral,negative,l,l,1,1.1025996999815106,90.41953059996013,91.42704390001018,91.41268700000364,None,90.41953059996013,None,90.41953059996013,None,90.41953059996013,None,92.51164133994607,None,92.51164133994607,None,92.51164133994607,None,,,,,,,,,,,,,,005,2022-05-06_17h24.09.709,Main,2022.1.1,60.2500739533205,
negative,negative,1,j,l,,,,,0,4,4,0,,,,,,,,,,,,,prac,2,2,1,negative,negative,l,l,1,1.130262800026685,92.51726379990578,93.52922379993834,93.51032459991984,None,92.51726379990578,None,92.51726379990578,None,92.51726379990578,None,94.64332033992977,None,94.64332033992977,None,94.64332033992977,None,,,,,,,,,,,,,,005,2022-05-06_17h24.09.709,Main,2022.1.1,60.2500739533205,
negative,negative,2,j,l,,,,,0,5,5,9,,,,,,,,,,,,,prac,1,1,2,negative,negative,l,l,1,1.0825123999966308,94.65479199995752,95.6625861999346,95.64360979991034,None,94.65479199995752,None,94.65479199995752,None,94.65479199995752,None,96.7269424399943,None,96.7269424399943,None,96.7269424399943,None,,,,,,,,,,,,,,005,2022-05-06_17h24.09.709,Main,2022.1.1,60.2500739533205,
negative,positive,2,j,l,,,,,0,6,6,15,,,,,,,,,,,,,prac,1,1,2,positive,negative,l,l,1,1.0150187999242917,96.74361879995558,97.75966799992602,97.72573830001056,None,96.74361879995558,None,96.74361879995558,None,96.74361879995558,None,98.74319163997424,None,98.74319163997424,None,98.74319163997424,None,,,,,,,,,,,,,,005,2022-05-06_17h24.09.709,Main,2022.1.1,60.2500739533205,
positive,neutral,1,l,j,,,,,0,7,7,8,,,,,,,,,,,,,prac,2,2,1,neutral,positive,j,j,1,1.1159568999428302,98.74550069996621,99.7599285999313,99.74332050001249,None,98.74550069996621,None,98.74550069996621,None,98.74550069996621,None,100.8602007400128,None,100.8602007400128,None,100.8602007400128,None,,,,,,,,,,,,,,005,2022-05-06_17h24.09.709,Main,2022.1.1,60.2500739533205,
positive,neutral,2,l,j,,,,,0,8,8,17,,,,,,,,,,,,,prac,1,1,2,neutral,positive,j,j,1,1.0205104999477044,100.86638789996505,101.87912689999212,101.86016339994967,None,100.86638789996505,None,100.86638789996505,None,100.86638789996505,None,102.8768192400108,None,102.8768192400108,None,102.8768192400108,None,,,,,,,,,,,,,,005,2022-05-06_17h24.09.709,Main,2022.1.1,60.2500739533205,
neutral,negative,1,k,k,,,,,0,9,9,7,,,,,,,,,,,,,prac,2,2,1,negative,neutral,k,k,1,1.126277800067328,102.89216009993106,103.8956835999852,103.87676349992398,None,102.89216009993106,None,102.89216009993106,None,102.89216009993106,None,105.01023063991451,None,105.01023063991451,None,105.01023063991451,None,,,,,,,,,,,,,,005,2022-05-06_17h24.09.709,Main,2022.1.1,60.2500739533205,
negative,neutral,2,j,l,,,,,0,10,10,12,,,,,,,,,,,,,prac,1,1,2,neutral,negative,l,l,1,0.9983908999711275,105.01590849994682,106.02902329992503,106.01236940000672,None,105.01590849994682,None,105.01590849994682,None,105.01590849994682,None,107.01004484001314,None,107.01004484001314,None,107.01004484001314,None,,,,,,,,,,,,,,005,2022-05-06_17h24.09.709,Main,2022.1.1,60.2500739533205,
positive,negative,1,l,j,,,,,0,11,11,5,,,,,,,,,,,,,prac,1,1,1,negative,positive,j,j,1,0.9817151000024751,107.02060509996954,108.02655720000621,108.00978029996622,None,107.02060509996954,None,107.02060509996954,None,107.02060509996954,None,108.99295983995543,None,108.99295983995543,None,108.99295983995543,None,,,,,,,,,,,,,,005,2022-05-06_17h24.09.709,Main,2022.1.1,60.2500739533205,
positive,positive,2,l,j,,,,,0,12,12,11,,,,,,,,,,,,,prac,1,1,2,positive,positive,j,j,1,0.8489051999058574,108.9929667999968,109.99298129999079,109.99298129999079,None,108.9929667999968,None,108.9929667999968,None,108.9929667999968,None,110.84297373992158,None,110.84297373992158,None,110.84297373992158,None,,,,,,,,,,,,,,005,2022-05-06_17h24.09.709,Main,2022.1.1,60.2500739533205,
neutral,positive,2,k,k,,,,,0,13,13,13,,,,,,,,,,,,,prac,1,1,2,positive,neutral,k,k,1,0.8483637999743223,110.8437821000116,111.84562699997332,111.84562699997332,None,110.8437821000116,None,110.8437821000116,None,110.8437821000116,None,112.69294174000387,None,112.69294174000387,None,112.69294174000387,None,,,,,,,,,,,,,,005,2022-05-06_17h24.09.709,Main,2022.1.1,60.2500739533205,
positive,negative,2,l,j,,,,,0,14,14,14,,,,,,,,,,,,,prac,2,2,2,negative,positive,j,j,1,0.8157453999156132,112.7070464999415,113.71217309997883,113.69553759996779,None,112.7070464999415,None,112.7070464999415,None,112.7070464999415,None,114.50990143996896,None,114.50990143996896,None,114.50990143996896,None,,,,,,,,,,,,,,005,2022-05-06_17h24.09.709,Main,2022.1.1,60.2500739533205,
positive,positive,1,l,j,,,,,0,15,15,2,,,,,,,,,,,,,prac,2,2,1,positive,positive,j,j,1,1.297629600041546,114.53253450000193,115.54317069996614,115.512138399994,None,114.53253450000193,None,114.53253450000193,None,114.53253450000193,None,116.80983813999919,None,116.80983813999919,None,116.80983813999919,None,,,,,,,,,,,,,,005,2022-05-06_17h24.09.709,Main,2022.1.1,60.2500739533205,
neutral,neutral,1,k,k,,,,,0,16,16,1,,,,,,,,,,,,,prac,1,1,1,neutral,neutral,k,k,1,0.8987973000621423,116.81312219996471,117.82875629991759,117.81207889993675,None,116.81312219996471,None,116.81312219996471,None,116.81312219996471,None,118.70993703996064,None,118.70993703996064,None,118.70993703996064,None,,,,,,,,,,,,,,005,2022-05-06_17h24.09.709,Main,2022.1.1,60.2500739533205,
negative,positive,1,j,l,,,,,0,17,17,6,,,,,,,,,,,,,prac,2,2,1,positive,negative,l,l,1,1.0514180000172928,118.71653859992512,119.72609509993345,119.70941859995946,None,118.71653859992512,None,118.71653859992512,None,118.71653859992512,None,120.7594304399914,None,120.7594304399914,None,120.7594304399914,None,,,,,,,,,,,,,,005,2022-05-06_17h24.09.709,Main,2022.1.1,60.2500739533205,
neutral,negative,2,k,k,,,,,1,0,18,16,,,,,,,,,,,,,prac,1,1,2,negative,neutral,k,k,1,1.2620459999889135,120.76264239999,121.76203769992571,121.76203769992571,None,120.76264239999,None,120.76264239999,None,120.76264239999,None,123.0264414399513,None,123.0264414399513,None,123.0264414399513,None,,,,,,,,,,,,,,005,2022-05-06_17h24.09.709,Main,2022.1.1,60.2500739533205,
negative,negative,2,j,l,,,,,1,1,19,9,,,,,,,,,,,,,prac,2,2,2,negative,negative,l,l,1,0.9701666999608278,123.02955289999954,124.02864949998911,124.01197029999457,None,123.02955289999954,None,123.02955289999954,None,123.02955289999954,None,124.99737183990655,None,124.99737183990655,None,124.99737183990655,None,,,,,,,,,,,,,,005,2022-05-06_17h24.09.709,Main,2022.1.1,60.2500739533205,
neutral,neutral,1,k,k,,,,,1,2,20,1,,,,,,,,,,,,,prac,1,1,1,neutral,neutral,k,k,1,0.8106413000496104,125.00052170001436,126.00960479991045,125.9952454000013,None,125.00052170001436,None,125.00052170001436,None,125.00052170001436,None,126.8096748399199,None,126.8096748399199,None,126.8096748399199,None,,,,,,,,,,,,,,005,2022-05-06_17h24.09.709,Main,2022.1.1,60.2500739533205,
negative,neutral,2,j,l,,,,,1,3,21,12,,,,,,,,,,,,,prac,2,2,2,neutral,negative,l,l,1,0.9484555999515578,126.81511149997823,127.82850229996257,127.81181989994366,None,126.81511149997823,None,126.81511149997823,None,126.81511149997823,None,128.75922493994003,None,128.75922493994003,None,128.75922493994003,None,,,,,,,,,,,,,,005,2022-05-06_17h24.09.709,Main,2022.1.1,60.2500739533205,
negative,negative,1,j,l,,,,,1,4,22,0,,,,,,,,,,,,,prac,2,2,1,negative,negative,l,l,1,0.948775399941951,128.75922939996235,129.75920510001015,129.75920510001015,None,128.75922939996235,None,128.75922939996235,None,128.75922939996235,None,130.70920083994278,None,130.70920083994278,None,130.70920083994278,None,,,,,,,,,,,,,,005,2022-05-06_17h24.09.709,Main,2022.1.1,60.2500739533205,
positive,positive,2,l,j,,,,,1,5,23,11,,,,,,,,,,,,,prac,2,2,2,positive,positive,j,j,1,0.8831104999408126,130.72008080000523,131.72585859999526,131.70919129997492,None,130.72008080000523,None,130.72008080000523,None,130.72008080000523,None,132.59250833998667,None,132.59250833998667,None,132.59250833998667,None,,,,,,,,,,,,,,005,2022-05-06_17h24.09.709,Main,2022.1.1,60.2500739533205,
positive,negative,1,l,j,,,,,1,6,24,5,,,,,,,,,,,,,prac,1,1,1,negative,positive,j,j,1,0.8311527000041679,132.59687080001459,133.61172829999123,133.59507419995498,None,132.59687080001459,None,132.59687080001459,None,132.59687080001459,None,134.42612323999637,None,134.42612323999637,None,134.42612323999637,None,,,,,,,,,,,,,,005,2022-05-06_17h24.09.709,Main,2022.1.1,60.2500739533205,
neutral,positive,2,k,k,,,,,1,7,25,13,,,,,,,,,,,,,prac,2,2,2,positive,neutral,k,k,1,0.8015659999800846,134.4296219999669,135.44503890001215,135.42833419993985,None,134.4296219999669,None,134.4296219999669,None,134.4296219999669,None,136.22852213991573,None,136.22852213991573,None,136.22852213991573,None,,,,,,,,,,,,,,005,2022-05-06_17h24.09.709,Main,2022.1.1,60.2500739533205,
positive,neutral,2,l,j,,,,,1,8,26,17,,,,,,,,,,,,,prac,1,1,2,neutral,positive,j,j,1,1.349661000072956,136.23184559994843,137.2449679999845,137.2283709999174,None,136.23184559994843,None,136.23184559994843,None,136.23184559994843,None,138.576017239911,None,138.576017239911,None,138.576017239911,None,,,,,,,,,,,,,,005,2022-05-06_17h24.09.709,Main,2022.1.1,60.2500739533205,
neutral,neutral,2,k,k,,,,,1,9,27,10,,,,,,,,,,,,,prac,2,2,2,neutral,neutral,k,k,1,0.7937489999458194,138.5845703999512,139.59265719994437,139.57598819991108,None,138.5845703999512,None,138.5845703999512,None,138.5845703999512,None,140.3756381399813,None,140.3756381399813,None,140.3756381399813,None,,,,,,,,,,,,,,005,2022-05-06_17h24.09.709,Main,2022.1.1,60.2500739533205,
neutral,positive,1,k,k,,,,,1,10,28,4,,,,,,,,,,,,,prac,2,2,1,positive,neutral,k,k,1,0.9488324000267312,140.37564039998688,141.3758369999705,141.3758369999705,None,140.37564039998688,None,140.37564039998688,None,140.37564039998688,None,142.32565133991883,None,142.32565133991883,None,142.32565133991883,None,,,,,,,,,,,,,,005,2022-05-06_17h24.09.709,Main,2022.1.1,60.2500739533205,
negative,neutral,1,j,l,,,,,1,11,29,3,,,,,,,,,,,,,prac,1,1,1,neutral,negative,l,l,1,0.8322862000204623,142.3310415999731,143.34257159999106,143.31152220000513,None,142.3310415999731,None,142.3310415999731,None,142.3310415999731,None,144.15922123993514,None,144.15922123993514,None,144.15922123993514,None,,,,,,,,,,,,,,005,2022-05-06_17h24.09.709,Main,2022.1.1,60.2500739533205,
negative,positive,2,j,l,,,,,1,12,30,15,,,,,,,,,,,,,prac,2,2,2,positive,negative,l,l,1,0.7323691999772564,144.1634945999831,145.17588539991993,145.15922309993766,None,144.1634945999831,None,144.1634945999831,None,144.1634945999831,None,145.89253363999305,None,145.89253363999305,None,145.89253363999305,None,,,,,,,,,,,,,,005,2022-05-06_17h24.09.709,Main,2022.1.1,60.2500739533205,
positive,positive,1,l,j,,,,,1,13,31,2,,,,,,,,,,,,,prac,2,2,1,positive,positive,j,j,1,0.8703859000233933,145.8970581999747,146.90917659993283,146.89251299994066,None,145.8970581999747,None,145.8970581999747,None,145.8970581999747,None,147.76219473996898,None,147.76219473996898,None,147.76219473996898,None,,,,,,,,,,,,,,005,2022-05-06_17h24.09.709,Main,2022.1.1,60.2500739533205,
negative,positive,1,j,l,,,,,1,14,32,6,,,,,,,,,,,,,prac,1,1,1,positive,negative,l,l,1,0.9690191000699997,147.76766899996437,148.7779382999288,148.76141919998918,None,147.76766899996437,None,147.76766899996437,None,147.76766899996437,None,149.73471593993017,None,149.73471593993017,None,149.73471593993017,None,,,,,,,,,,,,,,005,2022-05-06_17h24.09.709,Main,2022.1.1,60.2500739533205,
positive,neutral,1,l,j,,,,,1,15,33,8,,,,,,,,,,,,,prac,1,1,1,neutral,positive,j,j,1,0.8225552999647334,149.75073590001557,150.75899659993593,150.72567049995996,None,149.75073590001557,None,149.75073590001557,None,149.75073590001557,None,151.55894163992488,None,151.55894163992488,None,151.55894163992488,None,,,,,,,,,,,,,,005,2022-05-06_17h24.09.709,Main,2022.1.1,60.2500739533205,
neutral,negative,1,k,k,,,,,1,16,34,7,,,,,,,,,,,,,prac,1,1,1,negative,neutral,k,k,1,0.8156149000860751,151.56371799996123,152.5756222999189,152.55894669995178,None,151.56371799996123,None,151.56371799996123,None,151.56371799996123,None,153.37563183993333,None,153.37563183993333,None,153.37563183993333,None,,,,,,,,,,,,,,005,2022-05-06_17h24.09.709,Main,2022.1.1,60.2500739533205,
positive,negative,2,l,j,,,,,1,17,35,14,,,,,,,,,,,,,prac,1,1,2,negative,positive,j,j,1,0.8143964998889714,153.3923563999124,154.39228829997592,154.3756304999115,None,153.3923563999124,None,153.3923563999124,None,153.3923563999124,None,155.19226343996124,None,155.19226343996124,None,155.19226343996124,None,,,,,,,,,,,,,,005,2022-05-06_17h24.09.709,Main,2022.1.1,60.2500739533205,
,,,,,,,,,,,,,,,,,,,,,,,,,,,,,,,,,,,,,,,,,,,,,,,,,,,155.1922723999014,None,space,7.180140899959952,,,,,,,,,,005,2022-05-06_17h24.09.709,Main,2022.1.1,60.2500739533205,
,,,,,,,,,,,,,,,,,,,,,,,,,,,,,,,,,,,,,,,,,,,,,,,,,,,,,,,0.65833336,-0.21111111,0,0,0,0.01118843990843743,None,,,005,2022-05-06_17h24.09.709,Main,2022.1.1,60.2500739533205,
positive,positive,2,l,j,,,,,,,,,0,0,0,11,,,,,,,162.39444499998353,None,main,1,1,2,positive,positive,j,j,1,0.7258028000360355,164.40119379991665,165.41096739994828,165.39211279992014,None,164.40119379991665,None,164.40119379991665,None,164.40119379991665,None,166.12542563999304,None,166.12542563999304,None,166.12542563999304,None,,,,,,,,,,,,,,005,2022-05-06_17h24.09.709,Main,2022.1.1,60.2500739533205,
positive,neutral,1,l,j,,,,,,,,,0,1,1,8,,,,,,,,,main,2,2,1,neutral,positive,j,j,1,0.8348706000251696,166.12993980001193,167.14207820000593,167.12540029990487,None,166.12993980001193,None,166.12993980001193,None,166.12993980001193,None,167.96306144000263,None,167.96306144000263,None,167.96306144000263,None,,,,,,,,,,,,,,005,2022-05-06_17h24.09.709,Main,2022.1.1,60.2500739533205,
positive,positive,1,l,j,,,,,,,,,0,2,2,2,,,,,,,,,main,1,1,1,positive,positive,j,j,1,0.6602837999816984,167.96633510000538,168.97522819996811,168.96098520001397,None,167.96633510000538,None,167.96633510000538,None,167.96633510000538,None,169.6249833400012,None,169.6249833400012,None,169.6249833400012,None,,,,,,,,,,,,,,005,2022-05-06_17h24.09.709,Main,2022.1.1,60.2500739533205,
neutral,positive,2,k,k,,,,,,,,,0,3,3,13,,,,,,,,,main,1,1,2,positive,neutral,k,k,1,0.6652239999966696,169.62499109993223,170.62496859999374,170.62496859999374,None,169.62499109993223,None,169.62499109993223,None,169.62499109993223,None,171.29167724001454,None,171.29167724001454,None,171.29167724001454,None,,,,,,,,,,,,,,005,2022-05-06_17h24.09.709,Main,2022.1.1,60.2500739533205,
positive,negative,2,l,j,,,,,,,,,0,4,4,14,,,,,,,,,main,2,2,2,negative,positive,j,j,1,0.7156157999997959,171.2972547999816,172.30892059998587,172.29447029996663,None,171.2972547999816,None,171.2972547999816,None,171.2972547999816,None,173.00892623999388,None,173.00892623999388,None,173.00892623999388,None,,,,,,,,,,,,,,005,2022-05-06_17h24.09.709,Main,2022.1.1,60.2500739533205,
positive,neutral,2,l,j,,,,,,,,,0,5,5,17,,,,,,,,,main,2,2,2,neutral,positive,j,j,1,0.6481690000509843,173.01522069994826,174.02748019993305,174.01087200001348,None,173.01522069994826,None,173.01522069994826,None,173.01522069994826,None,174.6585548399831,None,174.6585548399831,None,174.6585548399831,None,,,,,,,,,,,,,,005,2022-05-06_17h24.09.709,Main,2022.1.1,60.2500739533205,
positive,negative,1,l,j,,,,,,,,,0,6,6,5,,,,,,,,,main,1,1,1,negative,positive,j,j,1,0.7485801000148058,174.66211209993344,175.67521939997096,175.6585378999589,None,174.66211209993344,None,174.66211209993344,None,174.66211209993344,None,176.40856273992685,None,176.40856273992685,None,176.40856273992685,None,,,,,,,,,,,,,,005,2022-05-06_17h24.09.709,Main,2022.1.1,60.2500739533205,
negative,negative,2,j,l,,,,,,,,,0,7,7,9,,,,,,,,,main,1,1,2,negative,negative,l,l,1,0.7483943001134321,176.4152983999811,177.42749029991683,177.40853829996195,None,176.4152983999811,None,176.4152983999811,None,176.4152983999811,None,178.1585804399452,None,178.1585804399452,None,178.1585804399452,None,,,,,,,,,,,,,,005,2022-05-06_17h24.09.709,Main,2022.1.1,60.2500739533205,
negative,neutral,1,j,l,,,,,,,,,0,8,8,3,,,,,,,,,main,1,1,1,neutral,negative,l,l,1,0.6304951999336481,178.16278319992125,179.175029899925,179.158507599961,None,178.16278319992125,None,178.16278319992125,None,178.16278319992125,None,179.79145173992728,None,179.79145173992728,None,179.79145173992728,None,,,,,,,,,,,,,,005,2022-05-06_17h24.09.709,Main,2022.1.1,60.2500739533205,
negative,neutral,2,j,l,,,,,,,,,0,9,9,12,,,,,,,,,main,1,1,2,neutral,negative,l,l,1,0.6318982999073341,179.79155159997754,180.79168199992273,180.79168199992273,None,179.79155159997754,None,179.79155159997754,None,179.79155159997754,None,181.4251221399405,None,181.4251221399405,None,181.4251221399405,None,,,,,,,,,,,,,,005,2022-05-06_17h24.09.709,Main,2022.1.1,60.2500739533205,
neutral,negative,1,k,k,,,,,,,,,0,10,10,7,,,,,,,,,main,2,2,1,negative,neutral,k,k,1,1.2152087999274954,181.42881179996766,182.44393959990703,182.42743869998958,None,181.42881179996766,None,181.42881179996766,None,181.42881179996766,None,183.6417829399812,None,183.6417829399812,None,183.6417829399812,None,,,,,,,,,,,,,,005,2022-05-06_17h24.09.709,Main,2022.1.1,60.2500739533205,
neutral,neutral,2,k,k,,,,,,,,,0,11,11,10,,,,,,,,,main,1,1,2,neutral,neutral,k,k,1,0.6320157999871299,183.64536550000776,184.6605957999127,184.64394979993813,None,183.64536550000776,None,183.64536550000776,None,183.64536550000776,None,185.2750407399959,None,185.2750407399959,None,185.2750407399959,None,,,,,,,,,,,,,,005,2022-05-06_17h24.09.709,Main,2022.1.1,60.2500739533205,
neutral,neutral,1,k,k,,,,,,,,,0,12,12,1,,,,,,,,,main,1,1,1,neutral,neutral,k,k,1,0.531388400006108,185.27961879991926,186.29399309994187,186.2750289000105,None,185.27961879991926,None,185.27961879991926,None,185.27961879991926,None,186.8083558400045,None,186.8083558400045,None,186.8083558400045,None,,,,,,,,,,,,,,005,2022-05-06_17h24.09.709,Main,2022.1.1,60.2500739533205,
neutral,positive,1,k,k,,,,,,,,,0,13,13,4,,,,,,,,,main,1,1,1,positive,neutral,k,k,1,0.5484013999812305,186.81195479992311,187.82712519995403,187.81063939991873,None,186.81195479992311,None,186.81195479992311,None,186.81195479992311,None,188.35830183998914,None,188.35830183998914,None,188.35830183998914,None,,,,,,,,,,,,,,005,2022-05-06_17h24.09.709,Main,2022.1.1,60.2500739533205,
neutral,negative,2,k,k,,,,,,,,,0,14,14,16,,,,,,,,,main,2,2,2,negative,neutral,k,k,1,0.598106799996458,188.36176519992296,189.37480200000573,189.358218499925,None,188.36176519992296,None,188.36176519992296,None,188.36176519992296,None,189.95790313995676,None,189.95790313995676,None,189.95790313995676,None,,,,,,,,,,,,,,005,2022-05-06_17h24.09.709,Main,2022.1.1,60.2500739533205,
negative,positive,2,j,l,,,,,,,,,0,15,15,15,,,,,,,,,main,2,2,2,positive,negative,l,l,1,0.7485872000688687,189.9652990999166,190.9747905000113,190.9581341999583,None,189.9652990999166,None,189.9652990999166,None,189.9652990999166,None,191.70787643998628,None,191.70787643998628,None,191.70787643998628,None,,,,,,,,,,,,,,005,2022-05-06_17h24.09.709,Main,2022.1.1,60.2500739533205,
negative,positive,1,j,l,,,,,,,,,0,16,16,6,,,,,,,,,main,1,1,1,positive,negative,l,l,1,0.680556199979037,191.7099498999305,192.72460119996686,192.70811939996202,None,191.7099498999305,None,191.7099498999305,None,191.7099498999305,None,193.39122243990423,None,193.39122243990423,None,193.39122243990423,None,,,,,,,,,,,,,,005,2022-05-06_17h24.09.709,Main,2022.1.1,60.2500739533205,
negative,negative,1,j,l,,,,,,,,,0,17,17,0,,,,,,,,,main,1,1,1,negative,negative,l,l,1,0.6345752000343055,193.39556039997842,194.40822529990692,194.39389489998575,None,193.39556039997842,None,193.39556039997842,None,193.39556039997842,None,195.0272621399141,None,195.0272621399141,None,195.0272621399141,None,,,,,,,,,,,,,,005,2022-05-06_17h24.09.709,Main,2022.1.1,60.2500739533205,
neutral,positive,2,k,k,,,,,,,,,1,0,18,13,,,,,,,,,main,2,2,2,positive,neutral,k,k,1,0.7125752998981625,195.03089349996299,196.04369929991663,196.02710790000856,None,195.03089349996299,None,195.03089349996299,None,195.03089349996299,None,196.74151893992675,None,196.74151893992675,None,196.74151893992675,None,,,,,,,,,,,,,,005,2022-05-06_17h24.09.709,Main,2022.1.1,60.2500739533205,
positive,neutral,2,l,j,,,,,,,,,1,1,19,17,,,,,,,,,main,2,2,2,neutral,positive,j,j,1,0.7492489999858662,196.74764949991368,197.7603285999503,197.74376759992447,None,196.74764949991368,None,196.74764949991368,None,196.74764949991368,None,198.49142603991785,None,198.49142603991785,None,198.49142603991785,None,,,,,,,,,,,,,,005,2022-05-06_17h24.09.709,Main,2022.1.1,60.2500739533205,
negative,negative,2,j,l,,,,,,,,,1,2,20,9,,,,,,,,,main,1,1,2,negative,negative,l,l,1,0.7471447999123484,198.4958023999352,199.50805269996636,199.49137880001217,None,198.4958023999352,None,198.4958023999352,None,198.4958023999352,None,200.24097143994877,None,200.24097143994877,None,200.24097143994877,None,,,,,,,,,,,,,,005,2022-05-06_17h24.09.709,Main,2022.1.1,60.2500739533205,
neutral,negative,1,k,k,,,,,,,,,1,3,21,7,,,,,,,,,main,2,2,1,negative,neutral,k,k,1,0.6816737999906763,200.2421548999846,201.25798009999562,201.24120519997086,None,200.2421548999846,None,200.2421548999846,None,200.2421548999846,None,201.92436403998872,None,201.92436403998872,None,201.92436403998872,None,,,,,,,,,,,,,,005,2022-05-06_17h24.09.709,Main,2022.1.1,60.2500739533205,
neutral,positive,1,k,k,,,,,,,,,1,4,22,4,,,,,,,,,main,2,2,1,positive,neutral,k,k,1,0.6488117999397218,201.9302325999597,202.94347589998506,202.9246523999609,None,201.9302325999597,None,201.9302325999597,None,201.9302325999597,None,203.57460503998445,None,203.57460503998445,None,203.57460503998445,None,,,,,,,,,,,,,,005,2022-05-06_17h24.09.709,Main,2022.1.1,60.2500739533205,
positive,positive,2,l,j,,,,,,,,,1,5,23,11,,,,,,,,,main,2,2,2,positive,positive,j,j,1,0.7204419000772759,203.58049419999588,204.591256899992,204.5745775999967,None,203.58049419999588,None,203.58049419999588,None,203.58049419999588,None,205.29538183993427,None,205.29538183993427,None,205.29538183993427,None,,,,,,,,,,,,,,005,2022-05-06_17h24.09.709,Main,2022.1.1,60.2500739533205,
negative,negative,1,j,l,,,,,,,,,1,6,24,0,,,,,,,,,main,1,1,1,negative,negative,l,l,1,0.8264892000006512,205.2999734999612,206.31014539999887,206.2935945999343,None,205.2999734999612,None,205.2999734999612,None,205.2999734999612,None,207.12456213993718,None,207.12456213993718,None,207.12456213993718,None,,,,,,,,,,,,,,005,2022-05-06_17h24.09.709,Main,2022.1.1,60.2500739533205,
negative,neutral,1,j,l,,,,,,,,,1,7,25,3,,,,,,,,,main,1,1,1,neutral,negative,l,l,1,0.6483121999772266,207.12821329990402,208.14145319990348,208.12481309997384,None,207.12821329990402,None,207.12821329990402,None,207.12821329990402,None,208.77453363997628,None,208.77453363997628,None,208.77453363997628,None,,,,,,,,,,,,,,005,2022-05-06_17h24.09.709,Main,2022.1.1,60.2500739533205,
negative,positive,2,j,l,,,,,,,,,1,8,26,15,,,,,,,,,main,2,2,2,positive,negative,l,l,1,0.7312898000236601,208.7782717999071,209.79103279998526,209.77413389994763,None,208.7782717999071,None,208.7782717999071,None,208.7782717999071,None,210.5074310400174,None,210.5074310400174,None,210.5074310400174,None,,,,,,,,,,,,,,005,2022-05-06_17h24.09.709,Main,2022.1.1,60.2500739533205,
neutral,negative,2,k,k,,,,,,,,,1,9,27,16,,,,,,,,,main,2,2,2,negative,neutral,k,k,1,0.765521900029853,210.50744399998803,211.50748939998448,211.50748939998448,None,210.50744399998803,None,210.50744399998803,None,210.50744399998803,None,212.27442003992618,None,212.27442003992618,None,212.27442003992618,None,,,,,,,,,,,,,,005,2022-05-06_17h24.09.709,Main,2022.1.1,60.2500739533205,
neutral,neutral,1,k,k,,,,,,,,,1,10,28,1,,,,,,,,,main,2,2,1,neutral,neutral,k,k,1,0.6860093000577763,212.28028019994963,213.29332539997995,213.27664039994124,None,212.28028019994963,None,212.28028019994963,None,212.28028019994963,None,213.9619968399289,None,213.9619968399289,None,213.9619968399289,None,,,,,,,,,,,,,,005,2022-05-06_17h24.09.709,Main,2022.1.1,60.2500739533205,
positive,negative,2,l,j,,,,,,,,,1,11,29,14,,,,,,,,,main,2,2,2,negative,positive,j,j,1,0.7164501000661403,213.965146399918,214.9765951000154,214.9576977000106,None,213.965146399918,None,213.965146399918,None,213.965146399918,None,215.6743436399498,None,215.6743436399498,None,215.6743436399498,None,,,,,,,,,,,,,,005,2022-05-06_17h24.09.709,Main,2022.1.1,60.2500739533205,
positive,negative,1,l,j,,,,,,,,,1,12,30,5,,,,,,,,,main,2,2,1,negative,positive,j,j,1,0.5753187000518665,215.68507589993533,216.69323649990838,216.67434859997593,None,215.68507589993533,None,215.68507589993533,None,215.68507589993533,None,217.2576506399433,None,217.2576506399433,None,217.2576506399433,None,,,,,,,,,,,,,,005,2022-05-06_17h24.09.709,Main,2022.1.1,60.2500739533205,
neutral,neutral,2,k,k,,,,,,,,,1,13,31,10,,,,,,,,,main,2,2,2,neutral,neutral,k,k,1,0.7146693000104278,217.26130389992613,218.27649059996475,218.25763949996326,None,217.26130389992613,None,217.26130389992613,None,217.26130389992613,None,218.9739862399525,None,218.9739862399525,None,218.9739862399525,None,,,,,,,,,,,,,,005,2022-05-06_17h24.09.709,Main,2022.1.1,60.2500739533205,
negative,neutral,2,j,l,,,,,,,,,1,14,32,12,,,,,,,,,main,1,1,2,neutral,negative,l,l,1,0.6982112000696361,218.98032550001517,219.99055859993678,219.97389119991567,None,218.98032550001517,None,218.98032550001517,None,218.98032550001517,None,220.67388633996015,None,220.67388633996015,None,220.67388633996015,None,,,,,,,,,,,,,,005,2022-05-06_17h24.09.709,Main,2022.1.1,60.2500739533205,
negative,positive,1,j,l,,,,,,,,,1,15,33,6,,,,,,,,,main,2,2,1,positive,negative,l,l,1,0.648646300076507,220.6738751999801,221.67388909996953,221.67388909996953,None,220.6738751999801,None,220.6738751999801,None,220.6738751999801,None,222.32386223991634,None,222.32386223991634,None,222.32386223991634,None,,,,,,,,,,,,,,005,2022-05-06_17h24.09.709,Main,2022.1.1,60.2500739533205,
positive,positive,1,l,j,,,,,,,,,1,16,34,2,,,,,,,,,main,1,1,1,positive,positive,j,j,1,0.7809984999476001,222.32574719993863,223.34054909995757,223.32387699990068,None,222.32574719993863,None,222.32574719993863,None,222.32574719993863,None,224.10760583992814,None,224.10760583992814,None,224.10760583992814,None,,,,,,,,,,,,,,005,2022-05-06_17h24.09.709,Main,2022.1.1,60.2500739533205,
positive,neutral,1,l,j,,,,,,,,,1,17,35,8,,,,,,,,,main,2,2,1,neutral,positive,j,j,1,0.6315464000217617,224.1135769999819,225.1263085999526,225.1097469999222,None,224.1135769999819,None,224.1135769999819,None,224.1135769999819,None,225.74082123996922,None,225.74082123996922,None,225.74082123996922,None,,,,,,,,,,,,,,005,2022-05-06_17h24.09.709,Main,2022.1.1,60.2500739533205,
positive,negative,1,l,j,,,,,,,,,2,0,36,5,,,,,,,,,main,2,2,1,negative,positive,j,j,1,0.5494701999705285,225.74445749993902,226.7574546999531,226.7430760000134,None,225.74445749993902,None,225.74445749993902,None,225.74445749993902,None,227.29178274000296,None,227.29178274000296,None,227.29178274000296,None,,,,,,,,,,,,,,005,2022-05-06_17h24.09.709,Main,2022.1.1,60.2500739533205,
positive,positive,2,l,j,,,,,,,,,2,1,37,11,,,,,,,,,main,2,2,2,positive,positive,j,j,1,0.7848130000056699,227.29762879991904,228.3074093000032,228.2907335999189,None,227.29762879991904,None,227.29762879991904,None,227.29762879991904,None,229.0740582400118,None,229.0740582400118,None,229.0740582400118,None,,,,,,,,,,,,,,005,2022-05-06_17h24.09.709,Main,2022.1.1,60.2500739533205,
negative,negative,2,j,l,,,,,,,,,2,2,38,9,,,,,,,,,main,2,2,2,negative,negative,l,l,1,0.7142348000779748,229.08716549992096,230.0929191999603,230.07634119992144,None,229.08716549992096,None,229.08716549992096,None,229.08716549992096,None,230.7944692399702,None,230.7944692399702,None,230.7944692399702,None,,,,,,,,,,,,,,005,2022-05-06_17h24.09.709,Main,2022.1.1,60.2500739533205,
positive,neutral,1,l,j,,,,,,,,,2,3,39,8,,,,,,,,,main,1,1,1,neutral,positive,j,j,1,0.7111770999617875,230.80723789997865,231.80719929991756,231.79059499991126,None,230.80723789997865,None,230.80723789997865,None,230.80723789997865,None,232.5072724399739,None,232.5072724399739,None,232.5072724399739,None,,,,,,,,,,,,,,005,2022-05-06_17h24.09.709,Main,2022.1.1,60.2500739533205,
neutral,positive,2,k,k,,,,,,,,,2,4,40,13,,,,,,,,,main,2,2,2,positive,neutral,k,k,1,1.1320402000565082,232.51265669998247,233.52385110000614,233.5071829999797,None,232.51265669998247,None,232.51265669998247,None,232.51265669998247,None,234.64055273992707,None,234.64055273992707,None,234.64055273992707,None,,,,,,,,,,,,,,005,2022-05-06_17h24.09.709,Main,2022.1.1,60.2500739533205,
positive,positive,1,l,j,,,,,,,,,2,5,41,2,,,,,,,,,main,2,2,1,positive,positive,j,j,1,0.697594599914737,234.64481799991336,235.6571508999914,235.6404927999247,None,234.64481799991336,None,234.64481799991336,None,234.64481799991336,None,236.34056954000843,None,236.34056954000843,None,236.34056954000843,None,,,,,,,,,,,,,,005,2022-05-06_17h24.09.709,Main,2022.1.1,60.2500739533205,
negative,neutral,2,j,l,,,,,,,,,2,6,42,12,,,,,,,,,main,2,2,2,neutral,negative,l,l,1,0.7984254999319091,236.3448211000068,237.3571615999099,237.34045519994106,None,236.3448211000068,None,236.3448211000068,None,236.3448211000068,None,238.14045473999576,None,238.14045473999576,None,238.14045473999576,None,,,,,,,,,,,,,,005,2022-05-06_17h24.09.709,Main,2022.1.1,60.2500739533205,
neutral,negative,2,k,k,,,,,,,,,2,7,43,16,,,,,,,,,main,2,2,2,negative,neutral,k,k,1,0.781760299927555,238.14571730000898,239.15710549999494,239.1404324999312,None,238.14571730000898,None,238.14571730000898,None,238.14571730000898,None,239.92375383999897,None,239.92375383999897,None,239.92375383999897,None,,,,,,,,,,,,,,005,2022-05-06_17h24.09.709,Main,2022.1.1,60.2500739533205,
positive,negative,2,l,j,,,,,,,,,2,8,44,14,,,,,,,,,main,2,2,2,negative,positive,j,j,1,0.7651243000291288,239.92900849995203,240.9404020999791,240.92600410000887,None,239.92900849995203,None,239.92900849995203,None,239.92900849995203,None,241.69039693995146,None,241.69039693995146,None,241.69039693995146,None,,,,,,,,,,,,,,005,2022-05-06_17h24.09.709,Main,2022.1.1,60.2500739533205,
negative,positive,2,j,l,,,,,,,,,2,9,45,15,,,,,,,,,main,1,1,2,positive,negative,l,l,1,0.7314173999475315,241.69608309993055,242.70674049993977,242.69006459997036,None,241.69608309993055,None,241.69608309993055,None,241.69608309993055,None,243.4233809399535,None,243.4233809399535,None,243.4233809399535,None,,,,,,,,,,,,,,005,2022-05-06_17h24.09.709,Main,2022.1.1,60.2500739533205,
neutral,neutral,2,k,k,,,,,,,,,2,10,46,10,,,,,,,,,main,2,2,2,neutral,neutral,k,k,1,0.6820117000024766,243.4235685999738,244.42341709998436,244.42341709998436,None,243.4235685999738,None,243.4235685999738,None,243.4235685999738,None,245.10705983996158,None,245.10705983996158,None,245.10705983996158,None,,,,,,,,,,,,,,005,2022-05-06_17h24.09.709,Main,2022.1.1,60.2500739533205,
negative,positive,1,j,l,,,,,,,,,2,11,47,6,,,,,,,,,main,2,2,1,positive,negative,l,l,1,0.7484615000430495,245.11282569996547,246.12595739995595,246.10931219998747,None,245.11282569996547,None,245.11282569996547,None,245.11282569996547,None,246.8570026399917,None,246.8570026399917,None,246.8570026399917,None,,,,,,,,,,,,,,005,2022-05-06_17h24.09.709,Main,2022.1.1,60.2500739533205,
negative,neutral,1,j,l,,,,,,,,,2,12,48,3,,,,,,,,,main,1,1,1,neutral,negative,l,l,1,0.681735199992545,246.8603591999272,247.87590230000205,247.85927999997512,None,246.8603591999272,None,246.8603591999272,None,246.8603591999272,None,248.54030713994288,None,248.54030713994288,None,248.54030713994288,None,,,,,,,,,,,,,,005,2022-05-06_17h24.09.709,Main,2022.1.1,60.2500739533205,
negative,negative,1,j,l,,,,,,,,,2,13,49,0,,,,,,,,,main,1,1,1,negative,negative,l,l,1,0.6496217000531033,248.54377679992467,249.55917749996297,249.542590499972,None,248.54377679992467,None,248.54377679992467,None,248.54377679992467,None,250.19128443995723,None,250.19128443995723,None,250.19128443995723,None,,,,,,,,,,,,,,005,2022-05-06_17h24.09.709,Main,2022.1.1,60.2500739533205,
neutral,negative,1,k,k,,,,,,,,,2,14,50,7,,,,,,,,,main,1,1,1,negative,neutral,k,k,1,0.7130321000004187,250.19723229994997,251.20690479991026,251.1900372999953,None,250.19723229994997,None,250.19723229994997,None,250.19723229994997,None,251.9058977400069,None,251.9058977400069,None,251.9058977400069,None,,,,,,,,,,,,,,005,2022-05-06_17h24.09.709,Main,2022.1.1,60.2500739533205,
neutral,positive,1,k,k,,,,,,,,,2,15,51,4,,,,,,,,,main,1,1,1,positive,neutral,k,k,1,0.8987779000308365,251.92222129995935,252.92317389999516,252.9065084999893,None,251.92222129995935,None,251.92222129995935,None,251.92222129995935,None,253.8064950399217,None,253.8064950399217,None,253.8064950399217,None,,,,,,,,,,,,,,005,2022-05-06_17h24.09.709,Main,2022.1.1,60.2500739533205,
positive,neutral,2,l,j,,,,,,,,,2,16,52,17,,,,,,,,,main,1,1,2,neutral,positive,j,j,1,0.7656699999934062,253.80648529995233,254.80918679991737,254.80918679991737,None,253.80648529995233,None,253.80648529995233,None,253.80648529995233,None,255.57348003991646,None,255.57348003991646,None,255.57348003991646,None,,,,,,,,,,,,,,005,2022-05-06_17h24.09.709,Main,2022.1.1,60.2500739533205,
neutral,neutral,1,k,k,,,,,,,,,2,17,53,1,,,,,,,,,main,2,2,1,neutral,neutral,k,k,1,0.731822400004603,255.57706799998414,256.5923168999143,256.57343879994005,None,255.57706799998414,None,255.57706799998414,None,255.57706799998414,None,257.3068966399529,None,257.3068966399529,None,257.3068966399529,None,,,,,,,,,,,,,,005,2022-05-06_17h24.09.709,Main,2022.1.1,60.2500739533205,
negative,positive,1,j,l,,,,,,,,,3,0,54,6,,,,,,,,,main,2,2,1,positive,negative,l,l,1,0.7148552000289783,257.3129221999552,258.3256111999508,258.309065099922,None,257.3129221999552,None,257.3129221999552,None,257.3129221999552,None,259.0234336399823,None,259.0234336399823,None,259.0234336399823,None,,,,,,,,,,,,,,005,2022-05-06_17h24.09.709,Main,2022.1.1,60.2500739533205,
positive,negative,2,l,j,,,,,,,,,3,1,55,14,,,,,,,,,main,1,1,2,negative,positive,j,j,1,0.7315814000321552,259.0292986999266,260.04232459992636,260.0256919999374,None,259.0292986999266,None,259.0292986999266,None,259.0292986999266,None,260.75670653997224,None,260.75670653997224,None,260.75670653997224,None,,,,,,,,,,,,,,005,2022-05-06_17h24.09.709,Main,2022.1.1,60.2500739533205,
positive,neutral,1,l,j,,,,,,,,,3,2,56,8,,,,,,,,,main,1,1,1,neutral,positive,j,j,1,0.8479044999694452,260.76009180000983,261.77297449996695,261.7563099999679,None,260.76009180000983,None,260.76009180000983,None,260.76009180000983,None,262.6062834399869,None,262.6062834399869,None,262.6062834399869,None,,,,,,,,,,,,,,005,2022-05-06_17h24.09.709,Main,2022.1.1,60.2500739533205,
negative,neutral,2,j,l,,,,,,,,,3,3,57,12,,,,,,,,,main,2,2,2,neutral,negative,l,l,1,0.7490320999640971,262.6070287999464,263.60630629991647,263.60630629991647,None,262.6070287999464,None,262.6070287999464,None,262.6070287999464,None,264.35629493995805,None,264.35629493995805,None,264.35629493995805,None,,,,,,,,,,,,,,005,2022-05-06_17h24.09.709,Main,2022.1.1,60.2500739533205,
negative,negative,2,j,l,,,,,,,,,3,4,58,9,,,,,,,,,main,2,2,2,negative,negative,l,l,1,0.6968826999654993,264.3582090999698,265.37295619992074,265.35629159992095,None,264.3582090999698,None,264.3582090999698,None,264.3582090999698,None,266.0562788399053,None,266.0562788399053,None,266.0562788399053,None,,,,,,,,,,,,,,005,2022-05-06_17h24.09.709,Main,2022.1.1,60.2500739533205,
positive,positive,1,l,j,,,,,,,,,3,5,59,2,,,,,,,,,main,1,1,1,positive,positive,j,j,1,0.9323119999608025,266.0733571999008,267.0754719999386,267.05662309995387,None,266.0733571999008,None,266.0733571999008,None,266.0733571999008,None,267.9899199399748,None,267.9899199399748,None,267.9899199399748,None,,,,,,,,,,,,,,005,2022-05-06_17h24.09.709,Main,2022.1.1,60.2500739533205,
neutral,neutral,1,k,k,,,,,,,,,3,6,60,1,,,,,,,,,main,1,1,1,neutral,neutral,k,k,1,0.6672587000066414,267.9958699999843,269.0065300000133,268.9921670999611,None,267.9958699999843,None,267.9958699999843,None,267.9958699999843,None,269.65891283991516,None,269.65891283991516,None,269.65891283991516,None,,,,,,,,,,,,,,005,2022-05-06_17h24.09.709,Main,2022.1.1,60.2500739533205,
neutral,negative,1,k,k,,,,,,,,,3,7,61,7,,,,,,,,,main,1,1,1,negative,neutral,k,k,1,0.6297143999254331,269.6617828999879,270.675379699911,270.6564797000028,None,269.6617828999879,None,269.6617828999879,None,269.6617828999879,None,271.2897979399073,None,271.2897979399073,None,271.2897979399073,None,,,,,,,,,,,,,,005,2022-05-06_17h24.09.709,Main,2022.1.1,60.2500739533205,
neutral,neutral,2,k,k,,,,,,,,,3,8,62,10,,,,,,,,,main,1,1,2,neutral,neutral,k,k,1,0.6146447999635711,271.30647259997204,272.3086939000059,272.2921304999618,None,271.30647259997204,None,271.30647259997204,None,271.30647259997204,None,272.9064396399423,None,272.9064396399423,None,272.9064396399423,None,,,,,,,,,,,,,,005,2022-05-06_17h24.09.709,Main,2022.1.1,60.2500739533205,
negative,neutral,1,j,l,,,,,,,,,3,9,63,3,,,,,,,,,main,2,2,1,neutral,negative,l,l,1,0.764931199955754,272.9103051999118,273.922736999928,273.90634499990847,None,272.9103051999118,None,272.9103051999118,None,272.9103051999118,None,274.67269113993973,None,274.67269113993973,None,274.67269113993973,None,,,,,,,,,,,,,,005,2022-05-06_17h24.09.709,Main,2022.1.1,60.2500739533205,
positive,positive,2,l,j,,,,,,,,,3,10,64,11,,,,,,,,,main,2,2,2,positive,positive,j,j,1,1.0820537001127377,274.67293509992305,275.6753741999855,275.6753741999855,None,274.67293509992305,None,274.67293509992305,None,274.67293509992305,None,276.75644833998524,None,276.75644833998524,None,276.75644833998524,None,,,,,,,,,,,,,,005,2022-05-06_17h24.09.709,Main,2022.1.1,60.2500739533205,
positive,neutral,2,l,j,,,,,,,,,3,11,65,17,,,,,,,,,main,2,2,2,neutral,positive,j,j,1,0.6650006000418216,276.7602066999534,277.775335000013,277.75634199997876,None,276.7602066999534,None,276.7602066999534,None,276.7602066999534,None,278.4230782399769,None,278.4230782399769,None,278.4230782399769,None,,,,,,,,,,,,,,005,2022-05-06_17h24.09.709,Main,2022.1.1,60.2500739533205,
neutral,negative,2,k,k,,,,,,,,,3,12,66,16,,,,,,,,,main,1,1,2,negative,neutral,k,k,1,0.6172867000568658,278.4263842999935,279.4419326999923,279.42534590000287,None,278.4263842999935,None,278.4263842999935,None,278.4263842999935,None,280.04187524000884,None,280.04187524000884,None,280.04187524000884,None,,,,,,,,,,,,,,005,2022-05-06_17h24.09.709,Main,2022.1.1,60.2500739533205,
neutral,positive,1,k,k,,,,,,,,,3,13,67,4,,,,,,,,,main,2,2,1,positive,neutral,k,k,1,0.5963682000292465,280.045014699921,281.05627339996863,281.0395966999931,None,280.045014699921,None,280.045014699921,None,280.045014699921,None,281.63957953996726,None,281.63957953996726,None,281.63957953996726,None,,,,,,,,,,,,,,005,2022-05-06_17h24.09.709,Main,2022.1.1,60.2500739533205,
positive,negative,1,l,j,,,,,,,,,3,14,68,5,,,,,,,,,main,1,1,1,negative,positive,j,j,1,0.8146090999944136,281.64316739991773,282.66468299995176,282.64211069990415,None,281.64316739991773,None,281.64316739991773,None,281.64316739991773,None,283.4558605400031,None,283.4558605400031,None,283.4558605400031,None,,,,,,,,,,,,,,005,2022-05-06_17h24.09.709,Main,2022.1.1,60.2500739533205,
negative,negative,1,j,l,,,,,,,,,3,15,69,0,,,,,,,,,main,2,2,1,negative,negative,l,l,1,0.7151472999248654,283.45587359997444,284.4558387999423,284.4558387999423,None,283.45587359997444,None,283.45587359997444,None,283.45587359997444,None,285.1725002399995,None,285.1725002399995,None,285.1725002399995,None,,,,,,,,,,,,,,005,2022-05-06_17h24.09.709,Main,2022.1.1,60.2500739533205,
negative,positive,2,j,l,,,,,,,,,3,16,70,15,,,,,,,,,main,1,1,2,positive,negative,l,l,1,0.665057500009425,285.1730850999011,286.1724735999014,286.1724735999014,None,285.1730850999011,None,285.1730850999011,None,285.1730850999011,None,286.83916314000965,None,286.83916314000965,None,286.83916314000965,None,,,,,,,,,,,,,,005,2022-05-06_17h24.09.709,Main,2022.1.1,60.2500739533205,
neutral,positive,2,k,k,,,,,,,,,3,17,71,13,,,,,,,,,main,1,1,2,positive,neutral,k,k,1,1.1322437999770045,286.8424881999381,287.8418193999678,287.8418193999678,None,286.8424881999381,None,286.8424881999381,None,286.8424881999381,None,288.97274533993334,None,288.97274533993334,None,288.97274533993334,None,,,,,,,,,,,,,,005,2022-05-06_17h24.09.709,Main,2022.1.1,60.2500739533205,
positive,neutral,2,l,j,,,,,,,,,4,0,72,17,,,,,,,,,main,1,1,2,neutral,positive,j,j,1,0.7487003999995068,288.976951599936,289.99169339996297,289.9750558999367,None,288.976951599936,None,288.976951599936,None,288.976951599936,None,290.7228606399964,None,290.7228606399964,None,290.7228606399964,None,,,,,,,,,,,,,,005,2022-05-06_17h24.09.709,Main,2022.1.1,60.2500739533205,
neutral,neutral,1,k,k,,,,,,,,,4,1,73,1,,,,,,,,,main,2,2,1,neutral,neutral,k,k,1,0.6136377000948414,290.7294387000147,291.7393543999642,291.72493209992535,None,290.7294387000147,None,290.7294387000147,None,290.7294387000147,None,292.33933493992083,None,292.33933493992083,None,292.33933493992083,None,,,,,,,,,,,,,,005,2022-05-06_17h24.09.709,Main,2022.1.1,60.2500739533205,
negative,positive,1,j,l,,,,,,,,,4,2,74,6,,,,,,,,,main,1,1,1,positive,negative,l,l,1,0.8152241999050602,292.3427458999213,293.35597519995645,293.3416337999515,None,292.3427458999213,None,292.3427458999213,None,292.3427458999213,None,294.15596083990533,None,294.15596083990533,None,294.15596083990533,None,,,,,,,,,,,,,,005,2022-05-06_17h24.09.709,Main,2022.1.1,60.2500739533205,
negative,positive,2,j,l,,,,,,,,,4,3,75,15,,,,,,,,,main,2,2,2,positive,negative,l,l,1,0.7667550999904051,294.1605748999864,295.1722697999794,295.1558497999795,None,294.1605748999864,None,294.1605748999864,None,294.1605748999864,None,295.92225363998443,None,295.92225363998443,None,295.92225363998443,None,,,,,,,,,,,,,,005,2022-05-06_17h24.09.709,Main,2022.1.1,60.2500739533205,
negative,negative,2,j,l,,,,,,,,,4,4,76,9,,,,,,,,,main,1,1,2,negative,negative,l,l,1,1.0131338000064716,295.9242031999165,296.93893870001193,296.92226289992686,None,295.9242031999165,None,295.9242031999165,None,295.9242031999165,None,297.9389066400123,None,297.9389066400123,None,297.9389066400123,None,,,,,,,,,,,,,,005,2022-05-06_17h24.09.709,Main,2022.1.1,60.2500739533205,
positive,positive,2,l,j,,,,,,,,,4,5,77,11,,,,,,,,,main,1,1,2,positive,positive,j,j,1,0.7320939999772236,297.93944649992045,298.93891659996007,298.93891659996007,None,297.93944649992045,None,297.93944649992045,None,297.93944649992045,None,299.67252943998903,None,299.67252943998903,None,299.67252943998903,None,,,,,,,,,,,,,,005,2022-05-06_17h24.09.709,Main,2022.1.1,60.2500739533205,
neutral,negative,1,k,k,,,,,,,,,4,6,78,7,,,,,,,,,main,2,2,1,negative,neutral,k,k,1,0.6486390000209212,299.67606849991716,300.69138179998845,300.6748428000137,None,299.67606849991716,None,299.67606849991716,None,299.67606849991716,None,301.32253243991875,None,301.32253243991875,None,301.32253243991875,None,,,,,,,,,,,,,,005,2022-05-06_17h24.09.709,Main,2022.1.1,60.2500739533205,
neutral,positive,1,k,k,,,,,,,,,4,7,79,4,,,,,,,,,main,1,1,1,positive,neutral,k,k,1,0.7814771999837831,301.3276507999981,302.34144429990556,302.3225005000131,None,301.3276507999981,None,301.3276507999981,None,301.3276507999981,None,303.10578194000993,None,303.10578194000993,None,303.10578194000993,None,,,,,,,,,,,,,,005,2022-05-06_17h24.09.709,Main,2022.1.1,60.2500739533205,
negative,neutral,2,j,l,,,,,,,,,4,8,80,12,,,,,,,,,main,2,2,2,neutral,negative,l,l,1,0.7819280999246985,303.1092382000061,304.12241700000595,304.10805069992784,None,303.1092382000061,None,303.1092382000061,None,303.1092382000061,None,304.88907553997126,None,304.88907553997126,None,304.88907553997126,None,,,,,,,,,,,,,,005,2022-05-06_17h24.09.709,Main,2022.1.1,60.2500739533205,
positive,negative,2,l,j,,,,,,,,,4,9,81,14,,,,,,,,,main,1,1,2,negative,positive,j,j,1,0.6980460000922903,304.8925686000148,305.90800739999395,305.8913467999082,None,304.8925686000148,None,304.8925686000148,None,304.8925686000148,None,306.5886714399909,None,306.5886714399909,None,306.5886714399909,None,,,,,,,,,,,,,,005,2022-05-06_17h24.09.709,Main,2022.1.1,60.2500739533205,
positive,positive,1,l,j,,,,,,,,,4,10,82,2,,,,,,,,,main,2,2,1,positive,positive,j,j,1,0.7983422999968752,306.58889999997336,307.58862529997714,307.58862529997714,None,306.58889999997336,None,306.58889999997336,None,306.58889999997336,None,308.38870273992654,None,308.38870273992654,None,308.38870273992654,None,,,,,,,,,,,,,,005,2022-05-06_17h24.09.709,Main,2022.1.1,60.2500739533205,
neutral,positive,2,k,k,,,,,,,,,4,11,83,13,,,,,,,,,main,2,2,2,positive,neutral,k,k,1,0.6665057999780402,308.3923843000084,309.40790699992795,309.39133189991117,None,308.3923843000084,None,308.3923843000084,None,308.3923843000084,None,310.0568237399799,None,310.0568237399799,None,310.0568237399799,None,,,,,,,,,,,,,,005,2022-05-06_17h24.09.709,Main,2022.1.1,60.2500739533205,
positive,neutral,1,l,j,,,,,,,,,4,12,84,8,,,,,,,,,main,2,2,1,neutral,positive,j,j,1,0.715219600009732,310.06244319991674,311.0745987999253,311.05797909991816,None,310.06244319991674,None,310.06244319991674,None,310.06244319991674,None,311.77224303999685,None,311.77224303999685,None,311.77224303999685,None,,,,,,,,,,,,,,005,2022-05-06_17h24.09.709,Main,2022.1.1,60.2500739533205,
positive,negative,1,l,j,,,,,,,,,4,13,85,5,,,,,,,,,main,2,2,1,negative,positive,j,j,1,0.597428800072521,311.77670019993093,312.79114280000795,312.7721490999684,None,311.77670019993093,None,311.77670019993093,None,311.77670019993093,None,313.37224413998194,None,313.37224413998194,None,313.37224413998194,None,,,,,,,,,,,,,,005,2022-05-06_17h24.09.709,Main,2022.1.1,60.2500739533205,
negative,neutral,1,j,l,,,,,,,,,4,14,86,3,,,,,,,,,main,1,1,1,neutral,negative,l,l,1,0.8173343000235036,313.3759929999942,314.3888896999415,314.3724900999805,None,313.3759929999942,None,313.3759929999942,None,313.3759929999942,None,315.19119703999024,None,315.19119703999024,None,315.19119703999024,None,,,,,,,,,,,,,,005,2022-05-06_17h24.09.709,Main,2022.1.1,60.2500739533205,
neutral,neutral,2,k,k,,,,,,,,,4,15,87,10,,,,,,,,,main,1,1,2,neutral,neutral,k,k,1,1.0956092000706121,315.195474499953,316.205148799927,316.188476499985,None,315.195474499953,None,315.195474499953,None,315.195474499953,None,317.288453939918,None,317.288453939918,None,317.288453939918,None,,,,,,,,,,,,,,005,2022-05-06_17h24.09.709,Main,2022.1.1,60.2500739533205,
neutral,negative,2,k,k,,,,,,,,,4,16,88,16,,,,,,,,,main,1,1,2,negative,neutral,k,k,1,0.6486013000831008,317.2885558999842,318.28846179996617,318.28846179996617,None,317.2885558999842,None,317.2885558999842,None,317.2885558999842,None,318.9384487400181,None,318.9384487400181,None,318.9384487400181,None,,,,,,,,,,,,,,005,2022-05-06_17h24.09.709,Main,2022.1.1,60.2500739533205,
negative,negative,1,j,l,,,,,,,,,4,17,89,0,,,,,,,,,main,1,1,1,negative,negative,l,l,1,0.8357778999488801,318.93921129999217,319.9384512999095,319.9384512999095,None,318.93921129999217,None,318.93921129999217,None,318.93921129999217,None,320.7745352399885,None,320.7745352399885,None,320.7745352399885,None,,,,,,,,,,,,,,005,2022-05-06_17h24.09.709,Main,2022.1.1,60.2500739533205,
neutral,negative,2,k,k,,,,,,,,,5,0,90,16,,,,,,,,,main,2,2,2,negative,neutral,k,k,1,0.6947667999193072,320.7790501000127,321.79092800000217,321.77439769997727,None,320.7790501000127,None,320.7790501000127,None,320.7790501000127,None,322.47205523991727,None,322.47205523991727,None,322.47205523991727,None,,,,,,,,,,,,,,005,2022-05-06_17h24.09.709,Main,2022.1.1,60.2500739533205,
positive,neutral,2,l,j,,,,,,,,,5,1,91,17,,,,,,,,,main,1,1,2,neutral,positive,j,j,1,0.7980534000089392,322.4778816999169,323.4909985999111,323.47201839997433,None,322.4778816999169,None,322.4778816999169,None,322.4778816999169,None,324.2716633400065,None,324.2716633400065,None,324.2716633400065,None,,,,,,,,,,,,,,005,2022-05-06_17h24.09.709,Main,2022.1.1,60.2500739533205,
neutral,positive,1,k,k,,,,,,,,,5,2,92,4,,,,,,,,,main,1,1,1,positive,neutral,k,k,1,0.7155695999972522,324.2752912999131,325.29091969993897,325.27427539997734,None,324.2752912999131,None,324.2752912999131,None,324.2752912999131,None,325.9886193399667,None,325.9886193399667,None,325.9886193399667,None,,,,,,,,,,,,,,005,2022-05-06_17h24.09.709,Main,2022.1.1,60.2500739533205,
positive,negative,1,l,j,,,,,,,,,5,3,93,5,,,,,,,,,main,2,2,1,negative,positive,j,j,1,0.7489586999872699,325.9925079999957,327.0074028999079,326.99091289995704,None,325.9925079999957,None,325.9925079999957,None,325.9925079999957,None,327.73940723991257,None,327.73940723991257,None,327.73940723991257,None,,,,,,,,,,,,,,005,2022-05-06_17h24.09.709,Main,2022.1.1,60.2500739533205,
negative,positive,2,j,l,,,,,,,,,5,4,94,15,,,,,,,,,main,2,2,2,positive,negative,l,l,1,0.7644515999127179,327.7451478999574,328.75485999998637,328.7384138999041,None,327.7451478999574,None,327.7451478999574,None,327.7451478999574,None,329.5052163399174,None,329.5052163399174,None,329.5052163399174,None,,,,,,,,,,,,,,005,2022-05-06_17h24.09.709,Main,2022.1.1,60.2500739533205,
positive,neutral,1,l,j,,,,,,,,,5,5,95,8,,,,,,,,,main,1,1,1,neutral,positive,j,j,1,0.7479438000591472,329.5063009998994,330.52174319990445,330.50486519990955,None,329.5063009998994,None,329.5063009998994,None,329.5063009998994,None,331.2548456400051,None,331.2548456400051,None,331.2548456400051,None,,,,,,,,,,,,,,005,2022-05-06_17h24.09.709,Main,2022.1.1,60.2500739533205,
negative,neutral,2,j,l,,,,,,,,,5,6,96,12,,,,,,,,,main,1,1,2,neutral,negative,l,l,1,0.6144409999251366,331.2581780999899,332.2718873999547,332.25505299994256,None,331.2581780999899,None,331.2581780999899,None,331.2581780999899,None,332.87182034001455,None,332.87182034001455,None,332.87182034001455,None,,,,,,,,,,,,,,005,2022-05-06_17h24.09.709,Main,2022.1.1,60.2500739533205,
positive,positive,2,l,j,,,,,,,,,5,7,97,11,,,,,,,,,main,2,2,2,positive,positive,j,j,1,0.7151528000831604,332.87568439997267,333.8888112999266,333.8722056999104,None,332.87568439997267,None,332.87568439997267,None,332.87568439997267,None,334.58843733995457,None,334.58843733995457,None,334.58843733995457,None,,,,,,,,,,,,,,005,2022-05-06_17h24.09.709,Main,2022.1.1,60.2500739533205,
neutral,negative,1,k,k,,,,,,,,,5,8,98,7,,,,,,,,,main,1,1,1,negative,neutral,k,k,1,0.7650129999965429,334.5920757999411,335.60504639998544,335.5906023000134,None,334.5920757999411,None,334.5920757999411,None,334.5920757999411,None,336.3552084399504,None,336.3552084399504,None,336.3552084399504,None,,,,,,,,,,,,,,005,2022-05-06_17h24.09.709,Main,2022.1.1,60.2500739533205,
negative,neutral,1,j,l,,,,,,,,,5,9,99,3,,,,,,,,,main,1,1,1,neutral,negative,l,l,1,0.6151904000435024,336.3584849999752,337.3740090999054,337.35728100000415,None,336.3584849999752,None,336.3584849999752,None,336.3584849999752,None,337.9718057399965,None,337.9718057399965,None,337.9718057399965,None,,,,,,,,,,,,,,005,2022-05-06_17h24.09.709,Main,2022.1.1,60.2500739533205,
neutral,positive,2,k,k,,,,,,,,,5,10,100,13,,,,,,,,,main,1,1,2,positive,neutral,k,k,1,0.7813193999463692,337.9752698999364,338.988323199912,338.9716453999281,None,337.9752698999364,None,337.9752698999364,None,337.9752698999364,None,339.75462583996125,None,339.75462583996125,None,339.75462583996125,None,,,,,,,,,,,,,,005,2022-05-06_17h24.09.709,Main,2022.1.1,60.2500739533205,
positive,negative,2,l,j,,,,,,,,,5,11,101,14,,,,,,,,,main,1,1,2,negative,positive,j,j,1,0.7651335999835283,339.75460719992407,340.75482349994127,340.75482349994127,None,339.75460719992407,None,339.75460719992407,None,339.75460719992407,None,341.5213096399908,None,341.5213096399908,None,341.5213096399908,None,,,,,,,,,,,,,,005,2022-05-06_17h24.09.709,Main,2022.1.1,60.2500739533205,
negative,positive,1,j,l,,,,,,,,,5,12,102,6,,,,,,,,,main,2,2,1,positive,negative,l,l,1,0.7818795000202954,341.5271736999275,342.5405343999155,342.5239473999245,None,341.5271736999275,None,341.5271736999275,None,341.5271736999275,None,343.3046103400062,None,343.3046103400062,None,343.3046103400062,None,,,,,,,,,,,,,,005,2022-05-06_17h24.09.709,Main,2022.1.1,60.2500739533205,
neutral,neutral,1,k,k,,,,,,,,,5,13,103,1,,,,,,,,,main,2,2,1,neutral,neutral,k,k,1,0.6691431000363082,343.31083679990843,344.3215555999195,344.3048794999486,None,343.31083679990843,None,343.31083679990843,None,343.31083679990843,None,344.9715155399987,None,344.9715155399987,None,344.9715155399987,None,,,,,,,,,,,,,,005,2022-05-06_17h24.09.709,Main,2022.1.1,60.2500739533205,
positive,positive,1,l,j,,,,,,,,,5,14,104,2,,,,,,,,,main,1,1,1,positive,positive,j,j,1,0.6665336999576539,344.98262349993456,345.9903631999623,345.9714849999873,None,344.98262349993456,None,344.98262349993456,None,344.98262349993456,None,346.64039564001143,None,346.64039564001143,None,346.64039564001143,None,,,,,,,,,,,,,,005,2022-05-06_17h24.09.709,Main,2022.1.1,60.2500739533205,
negative,negative,2,j,l,,,,,,,,,5,15,105,9,,,,,,,,,main,2,2,2,negative,negative,l,l,1,0.6762321999995038,346.6498087999644,347.6547946999781,347.64033540000673,None,346.6498087999644,None,346.6498087999644,None,346.6498087999644,None,348.3215323399869,None,348.3215323399869,None,348.3215323399869,None,,,,,,,,,,,,,,005,2022-05-06_17h24.09.709,Main,2022.1.1,60.2500739533205,
negative,negative,1,j,l,,,,,,,,,5,16,106,0,,,,,,,,,main,2,2,1,negative,negative,l,l,1,0.6631155000068247,348.3264615999069,349.33684239990544,349.3205770999193,None,348.3264615999069,None,348.3264615999069,None,348.3264615999069,None,349.98771773997,None,349.98771773997,None,349.98771773997,None,,,,,,,,,,,,,,005,2022-05-06_17h24.09.709,Main,2022.1.1,60.2500739533205,
neutral,neutral,2,k,k,,,,,,,,,5,17,107,10,,,,,,,,,main,1,1,2,neutral,neutral,k,k,1,0.5984770000213757,349.98771209991537,350.9876944000134,350.9876944000134,None,349.98771209991537,None,349.98771209991537,None,349.98771209991537,None,351.5877306399285,None,351.5877306399285,None,351.5877306399285,None,,,,,,,,,,,,,,005,2022-05-06_17h24.09.709,Main,2022.1.1,60.2500739533205,
positive,negative,1,l,j,,,,,,,,,6,0,108,5,,,,,,,,,main,1,1,1,negative,positive,j,j,1,0.7483119000680745,351.5895851999521,352.6043419999769,352.587674099952,None,351.5895851999521,None,351.5895851999521,None,351.5895851999521,None,353.33772463999924,None,353.33772463999924,None,353.33772463999924,None,,,,,,,,,,,,,,005,2022-05-06_17h24.09.709,Main,2022.1.1,60.2500739533205,
neutral,neutral,1,k,k,,,,,,,,,6,1,109,1,,,,,,,,,main,2,2,1,neutral,neutral,k,k,1,0.7361925999866799,353.343297699932,354.3545013999101,354.3403512999648,None,353.343297699932,None,353.343297699932,None,353.343297699932,None,355.0714034399367,None,355.0714034399367,None,355.0714034399367,None,,,,,,,,,,,,,,005,2022-05-06_17h24.09.709,Main,2022.1.1,60.2500739533205,
positive,neutral,1,l,j,,,,,,,,,6,2,110,8,,,,,,,,,main,2,2,1,neutral,positive,j,j,1,0.7770423999754712,355.07915169990156,356.0879531999817,356.07351949997246,None,355.07915169990156,None,355.07915169990156,None,355.07915169990156,None,356.8546255399357,None,356.8546255399357,None,356.8546255399357,None,,,,,,,,,,,,,,005,2022-05-06_17h24.09.709,Main,2022.1.1,60.2500739533205,
negative,negative,1,j,l,,,,,,,,,6,3,111,0,,,,,,,,,main,1,1,1,negative,negative,l,l,1,0.6153624999569729,356.8604186999146,357.87356909993105,357.85694749990944,None,356.8604186999146,None,356.8604186999146,None,356.8604186999146,None,358.47125293997817,None,358.47125293997817,None,358.47125293997817,None,,,,,,,,,,,,,,005,2022-05-06_17h24.09.709,Main,2022.1.1,60.2500739533205,
positive,neutral,2,l,j,,,,,,,,,6,4,112,17,,,,,,,,,main,1,1,2,neutral,positive,j,j,1,0.716146600083448,358.47499989997596,359.4901673999848,359.47120619995985,None,358.47499989997596,None,358.47499989997596,None,358.47499989997596,None,360.1878500399995,None,360.1878500399995,None,360.1878500399995,None,,,,,,,,,,,,,,005,2022-05-06_17h24.09.709,Main,2022.1.1,60.2500739533205,
positive,negative,2,l,j,,,,,,,,,6,5,113,14,,,,,,,,,main,2,2,2,negative,positive,j,j,1,0.7804598000366241,360.19227050000336,361.2041362999007,361.1874686999945,None,360.19227050000336,None,360.19227050000336,None,360.19227050000336,None,361.9710978399613,None,361.9710978399613,None,361.9710978399613,None,,,,,,,,,,,,,,005,2022-05-06_17h24.09.709,Main,2022.1.1,60.2500739533205,
negative,neutral,2,j,l,,,,,,,,,6,6,114,12,,,,,,,,,main,1,1,2,neutral,negative,l,l,1,0.7005893000168726,361.9710782999173,362.97080389992334,362.97080389992334,None,361.9710782999173,None,361.9710782999173,None,361.9710782999173,None,363.67338944001824,None,363.67338944001824,None,363.67338944001824,None,,,,,,,,,,,,,,005,2022-05-06_17h24.09.709,Main,2022.1.1,60.2500739533205,
positive,positive,2,l,j,,,,,,,,,6,7,115,11,,,,,,,,,main,2,2,2,positive,positive,j,j,1,0.6976759999524802,363.6763061999809,364.68998129991814,364.6710973000154,None,363.6763061999809,None,363.6763061999809,None,363.6763061999809,None,365.37123013994426,None,365.37123013994426,None,365.37123013994426,None,,,,,,,,,,,,,,005,2022-05-06_17h24.09.709,Main,2022.1.1,60.2500739533205,
negative,negative,2,j,l,,,,,,,,,6,8,116,9,,,,,,,,,main,2,2,2,negative,negative,l,l,1,1.2304179000202566,365.37555589992553,366.38770949991886,366.37335559993517,None,365.37555589992553,None,365.37555589992553,None,365.37555589992553,None,367.6043501399341,None,367.6043501399341,None,367.6043501399341,None,,,,,,,,,,,,,,005,2022-05-06_17h24.09.709,Main,2022.1.1,60.2500739533205,
neutral,positive,1,k,k,,,,,,,,,6,9,117,4,,,,,,,,,main,2,2,1,positive,neutral,k,k,1,0.7320138999493793,367.60800519993063,368.6231909999624,368.6043135999935,None,367.60800519993063,None,367.60800519993063,None,367.60800519993063,None,369.3377281399095,None,369.3377281399095,None,369.3377281399095,None,,,,,,,,,,,,,,005,2022-05-06_17h24.09.709,Main,2022.1.1,60.2500739533205,
neutral,positive,2,k,k,,,,,,,,,6,10,118,13,,,,,,,,,main,2,2,2,positive,neutral,k,k,1,0.6646332000382245,369.34260500001255,370.3536122000078,370.3358622000087,None,369.34260500001255,None,369.34260500001255,None,369.34260500001255,None,371.00393083990787,None,371.00393083990787,None,371.00393083990787,None,,,,,,,,,,,,,,005,2022-05-06_17h24.09.709,Main,2022.1.1,60.2500739533205,
positive,positive,1,l,j,,,,,,,,,6,11,119,2,,,,,,,,,main,2,2,1,positive,positive,j,j,1,0.7315228000516072,371.00538649992086,372.0205614999868,372.00389970000833,None,371.00538649992086,None,371.00538649992086,None,371.00538649992086,None,372.73725263992094,None,372.73725263992094,None,372.73725263992094,None,,,,,,,,,,,,,,005,2022-05-06_17h24.09.709,Main,2022.1.1,60.2500739533205,
negative,positive,1,j,l,,,,,,,,,6,12,120,6,,,,,,,,,main,2,2,1,positive,negative,l,l,1,0.9485017000697553,372.74058250000235,373.7539132999955,373.73725419992115,None,372.74058250000235,None,372.74058250000235,None,372.74058250000235,None,374.68722963993207,None,374.68722963993207,None,374.68722963993207,None,,,,,,,,,,,,,,005,2022-05-06_17h24.09.709,Main,2022.1.1,60.2500739533205,
negative,positive,2,j,l,,,,,,,,,6,13,121,15,,,,,,,,,main,2,2,2,positive,negative,l,l,1,0.7487923000007868,374.6909498999594,375.7042165999301,375.6898721999023,None,374.6909498999594,None,374.6909498999594,None,374.6909498999594,None,376.43755383995597,None,376.43755383995597,None,376.43755383995597,None,,,,,,,,,,,,,,005,2022-05-06_17h24.09.709,Main,2022.1.1,60.2500739533205,
negative,neutral,1,j,l,,,,,,,,,6,14,122,3,,,,,,,,,main,1,1,1,neutral,negative,l,l,1,0.7660514999879524,376.4421818999108,377.4564737000037,377.4375110999681,None,376.4421818999108,None,376.4421818999108,None,376.4421818999108,None,378.20415993997597,None,378.20415993997597,None,378.20415993997597,None,,,,,,,,,,,,,,005,2022-05-06_17h24.09.709,Main,2022.1.1,60.2500739533205,
neutral,neutral,2,k,k,,,,,,,,,6,15,123,10,,,,,,,,,main,1,1,2,neutral,neutral,k,k,1,1.2304448999930173,378.2085509999888,379.2229834999889,379.2062942999182,None,378.2085509999888,None,378.2085509999888,None,378.2085509999888,None,380.43742173999783,None,380.43742173999783,None,380.43742173999783,None,,,,,,,,,,,,,,005,2022-05-06_17h24.09.709,Main,2022.1.1,60.2500739533205,
neutral,negative,2,k,k,,,,,,,,,6,16,124,16,,,,,,,,,main,2,2,2,negative,neutral,k,k,1,0.6481289999792352,380.44082159991376,381.45629140001256,381.4373787000077,None,380.44082159991376,None,380.44082159991376,None,380.44082159991376,None,382.0870292399428,None,382.0870292399428,None,382.0870292399428,None,,,,,,,,,,,,,,005,2022-05-06_17h24.09.709,Main,2022.1.1,60.2500739533205,
neutral,negative,1,k,k,,,,,,,,,6,17,125,7,,,,,,,,,main,1,1,1,negative,neutral,k,k,1,1.9821268999949098,382.08815799991135,383.1036500999471,383.086991499993,None,382.08815799991135,None,382.08815799991135,None,382.08815799991135,None,385.07158679992426,None,385.07158679992426,None,385.07158679992426,None,,,,,,,,,,,,,,005,2022-05-06_17h24.09.709,Main,2022.1.1,60.2500739533205,
negative,negative,1,j,l,,,,,,,,,7,0,126,0,,,,,,,,,main,2,2,1,negative,negative,l,l,1,0.9538125999970362,386.07159489998594,387.07059689995367,387.0562795000151,None,386.07159489998594,None,386.07159489998594,None,386.07159489998594,None,388.0223930399749,None,388.0223930399749,None,388.0223930399749,None,,,,,,,,,,,,,,005,2022-05-06_17h24.09.709,Main,2022.1.1,60.2500739533205,
positive,negative,1,l,j,,,,,,,,,7,1,127,5,,,,,,,,,main,1,1,1,negative,positive,j,j,1,0.7955698000732809,388.0282530999975,389.0394280999899,389.02059249999,None,388.0282530999975,None,388.0282530999975,None,388.0282530999975,None,389.82055863990684,None,389.82055863990684,None,389.82055863990684,None,,,,,,,,,,,,,,005,2022-05-06_17h24.09.709,Main,2022.1.1,60.2500739533205,
positive,negative,2,l,j,,,,,,,,,7,2,128,14,,,,,,,,,main,2,2,2,negative,positive,j,j,1,0.6917684000218287,389.82433530001435,390.8371955999173,390.8227983999532,None,389.82433530001435,None,389.82433530001435,None,389.82433530001435,None,391.51407893999715,None,391.51407893999715,None,391.51407893999715,None,,,,,,,,,,,,,,005,2022-05-06_17h24.09.709,Main,2022.1.1,60.2500739533205,
positive,positive,2,l,j,,,,,,,,,7,3,129,11,,,,,,,,,main,1,1,2,positive,positive,j,j,1,0.6203703000210226,391.5259606000036,392.5370302000083,392.5037043999182,None,391.5259606000036,None,391.5259606000036,None,391.5259606000036,None,393.13699073992905,None,393.13699073992905,None,393.13699073992905,None,,,,,,,,,,,,,,005,2022-05-06_17h24.09.709,Main,2022.1.1,60.2500739533205,
neutral,positive,1,k,k,,,,,,,,,7,4,130,4,,,,,,,,,main,1,1,1,positive,neutral,k,k,1,0.6654417000245303,393.14239039993845,394.1536650999915,394.13699729996733,None,393.14239039993845,None,393.14239039993845,None,393.14239039993845,None,394.8038941399078,None,394.8038941399078,None,394.8038941399078,None,,,,,,,,,,,,,,005,2022-05-06_17h24.09.709,Main,2022.1.1,60.2500739533205,
positive,neutral,2,l,j,,,,,,,,,7,5,131,17,,,,,,,,,main,2,2,2,neutral,positive,j,j,1,0.6980749999638647,394.807484399993,395.8203241999727,395.8036546999356,None,394.807484399993,None,394.807484399993,None,394.807484399993,None,396.5036459399504,None,396.5036459399504,None,396.5036459399504,None,,,,,,,,,,,,,,005,2022-05-06_17h24.09.709,Main,2022.1.1,60.2500739533205,
negative,neutral,2,j,l,,,,,,,,,7,6,132,12,,,,,,,,,main,2,2,2,neutral,negative,l,l,1,0.7653778000967577,396.50717459991574,397.5203035000013,397.5036348999711,None,396.50717459991574,None,396.50717459991574,None,396.50717459991574,None,398.27033103998986,None,398.27033103998986,None,398.27033103998986,None,,,,,,,,,,,,,,005,2022-05-06_17h24.09.709,Main,2022.1.1,60.2500739533205,
positive,neutral,1,l,j,,,,,,,,,7,7,133,8,,,,,,,,,main,1,1,1,neutral,positive,j,j,1,0.7314145000418648,398.27421409997623,399.2869250999065,399.2702641999349,None,398.27421409997623,None,398.27421409997623,None,398.27421409997623,None,400.0035951399128,None,400.0035951399128,None,400.0035951399128,None,,,,,,,,,,,,,,005,2022-05-06_17h24.09.709,Main,2022.1.1,60.2500739533205,
neutral,positive,2,k,k,,,,,,,,,7,8,134,13,,,,,,,,,main,2,2,2,positive,neutral,k,k,1,0.6151761999353766,400.0070267999545,401.02066899999045,401.0058830999769,None,400.0070267999545,None,400.0070267999545,None,400.0070267999545,None,401.6202129399986,None,401.6202129399986,None,401.6202129399986,None,,,,,,,,,,,,,,005,2022-05-06_17h24.09.709,Main,2022.1.1,60.2500739533205,
neutral,neutral,2,k,k,,,,,,,,,7,9,135,10,,,,,,,,,main,2,2,2,neutral,neutral,k,k,1,0.5813063000096008,401.6248656999087,402.63614189997315,402.6189822999295,None,401.6248656999087,None,401.6248656999087,None,401.6248656999087,None,403.2032328400179,None,403.2032328400179,None,403.2032328400179,None,,,,,,,,,,,,,,005,2022-05-06_17h24.09.709,Main,2022.1.1,60.2500739533205,
negative,positive,2,j,l,,,,,,,,,7,10,136,15,,,,,,,,,main,2,2,2,positive,negative,l,l,1,0.7151505999499932,403.2033368999837,404.2032058999175,404.2032058999175,None,403.2033368999837,None,403.2033368999837,None,403.2033368999837,None,404.9198776399368,None,404.9198776399368,None,404.9198776399368,None,,,,,,,,,,,,,,005,2022-05-06_17h24.09.709,Main,2022.1.1,60.2500739533205,
negative,neutral,1,j,l,,,,,,,,,7,11,137,3,,,,,,,,,main,1,1,1,neutral,negative,l,l,1,0.631999499979429,404.9208557999227,405.91989769996144,405.91989769996144,None,404.9208557999227,None,404.9208557999227,None,404.9208557999227,None,406.55355433999796,None,406.55355433999796,None,406.55355433999796,None,,,,,,,,,,,,,,005,2022-05-06_17h24.09.709,Main,2022.1.1,60.2500739533205,
neutral,negative,1,k,k,,,,,,,,,7,12,138,7,,,,,,,,,main,1,1,1,negative,neutral,k,k,1,0.7151035000570118,406.5572004999267,407.57044459995814,407.55582369992044,None,406.5572004999267,None,406.5572004999267,None,406.5572004999267,None,408.27018513992664,None,408.27018513992664,None,408.27018513992664,None,,,,,,,,,,,,,,005,2022-05-06_17h24.09.709,Main,2022.1.1,60.2500739533205,
negative,positive,1,j,l,,,,,,,,,7,13,139,6,,,,,,,,,main,1,1,1,positive,negative,l,l,1,0.7149876999901608,408.2763509999495,409.2891654999694,409.2724364999449,None,408.2763509999495,None,408.2763509999495,None,408.2763509999495,None,409.986761439906,None,409.986761439906,None,409.986761439906,None,,,,,,,,,,,,,,005,2022-05-06_17h24.09.709,Main,2022.1.1,60.2500739533205,
neutral,neutral,1,k,k,,,,,,,,,7,14,140,1,,,,,,,,,main,2,2,1,neutral,neutral,k,k,1,0.6650750000262633,409.9901670999825,411.00338989996817,410.9867409999715,None,409.9901670999825,None,409.9901670999825,None,409.9901670999825,None,411.6533940399182,None,411.6533940399182,None,411.6533940399182,None,,,,,,,,,,,,,,005,2022-05-06_17h24.09.709,Main,2022.1.1,60.2500739533205,
negative,negative,2,j,l,,,,,,,,,7,15,141,9,,,,,,,,,main,2,2,2,negative,negative,l,l,1,0.6255367000121623,411.65925289993174,412.67003089992795,412.6533411999699,None,411.65925289993174,None,411.65925289993174,None,411.65925289993174,None,413.2806825399981,None,413.2806825399981,None,413.2806825399981,None,,,,,,,,,,,,,,005,2022-05-06_17h24.09.709,Main,2022.1.1,60.2500739533205,
neutral,negative,2,k,k,,,,,,,,,7,16,142,16,,,,,,,,,main,2,2,2,negative,neutral,k,k,1,0.6541959000751376,413.2960286999587,414.30299599992577,414.2696512999246,None,413.2960286999587,None,413.2960286999587,None,413.2960286999587,None,414.93630453998924,None,414.93630453998924,None,414.93630453998924,None,,,,,,,,,,,,,,005,2022-05-06_17h24.09.709,Main,2022.1.1,60.2500739533205,
positive,positive,1,l,j,,,,,,,,,7,17,143,2,,,,,,,,,main,1,1,1,positive,positive,j,j,1,0.6987357001053169,414.93629439990036,415.9363235000055,415.9363235000055,None,414.93629439990036,None,414.93629439990036,None,414.93629439990036,None,416.63659363993213,None,416.63659363993213,None,416.63659363993213,None,,,,,,,,,,,,,,005,2022-05-06_17h24.09.709,Main,2022.1.1,60.2500739533205,
neutral,negative,1,k,k,,,,,,,,,8,0,144,7,,,,,,,,,main,1,1,1,negative,neutral,k,k,1,0.5986033000517637,416.6400554999709,417.655522499932,417.6388420999283,None,416.6400554999709,None,416.6400554999709,None,416.6400554999709,None,418.2365950399195,None,418.2365950399195,None,418.2365950399195,None,,,,,,,,,,,,,,005,2022-05-06_17h24.09.709,Main,2022.1.1,60.2500739533205,
negative,negative,1,j,l,,,,,,,,,8,1,145,0,,,,,,,,,main,2,2,1,negative,negative,l,l,1,0.6830154999624938,418.2402814999223,419.2553807999939,419.2388372999849,None,418.2402814999223,None,418.2402814999223,None,418.2402814999223,None,419.91987284001664,None,419.91987284001664,None,419.91987284001664,None,,,,,,,,,,,,,,005,2022-05-06_17h24.09.709,Main,2022.1.1,60.2500739533205,
neutral,negative,2,k,k,,,,,,,,,8,2,146,16,,,,,,,,,main,1,1,2,negative,neutral,k,k,1,0.6304284000070766,419.9242182999151,420.9365217000013,420.9220984999556,None,419.9242182999151,None,419.9242182999151,None,419.9242182999151,None,421.55316603995163,None,421.55316603995163,None,421.55316603995163,None,,,,,,,,,,,,,,005,2022-05-06_17h24.09.709,Main,2022.1.1,60.2500739533205,
neutral,positive,1,k,k,,,,,,,,,8,3,147,4,,,,,,,,,main,1,1,1,positive,neutral,k,k,1,0.6146506998920813,421.5565848000115,422.57214780000504,422.55553289991803,None,421.5565848000115,None,421.5565848000115,None,421.5565848000115,None,423.16943393993427,None,423.16943393993427,None,423.16943393993427,None,,,,,,,,,,,,,,005,2022-05-06_17h24.09.709,Main,2022.1.1,60.2500739533205,
positive,neutral,2,l,j,,,,,,,,,8,4,148,17,,,,,,,,,main,1,1,2,neutral,positive,j,j,1,0.7150829000165686,423.16941279999446,424.16943899996113,424.16943899996113,None,423.16941279999446,None,423.16941279999446,None,423.16941279999446,None,424.88607433993604,None,424.88607433993604,None,424.88607433993604,None,,,,,,,,,,,,,,005,2022-05-06_17h24.09.709,Main,2022.1.1,60.2500739533205,
neutral,neutral,1,k,k,,,,,,,,,8,5,149,1,,,,,,,,,main,2,2,1,neutral,neutral,k,k,1,0.5822449000552297,424.8860659999773,425.88875759998336,425.88875759998336,None,424.8860659999773,None,424.8860659999773,None,424.8860659999773,None,426.4697483399301,None,426.4697483399301,None,426.4697483399301,None,,,,,,,,,,,,,,005,2022-05-06_17h24.09.709,Main,2022.1.1,60.2500739533205,
neutral,neutral,2,k,k,,,,,,,,,8,6,150,10,,,,,,,,,main,1,1,2,neutral,neutral,k,k,1,0.5986973999533802,426.4732017999049,427.4864099000115,427.4720520999981,None,426.4732017999049,None,426.4732017999049,None,426.4732017999049,None,428.0698780399631,None,428.0698780399631,None,428.0698780399631,None,,,,,,,,,,,,,,005,2022-05-06_17h24.09.709,Main,2022.1.1,60.2500739533205,
negative,positive,2,j,l,,,,,,,,,8,7,151,15,,,,,,,,,main,1,1,2,positive,negative,l,l,1,0.6482261000201106,428.0734320000047,429.08660439995583,429.06988829991315,None,428.0734320000047,None,428.0734320000047,None,428.0734320000047,None,429.7196482399828,None,429.7196482399828,None,429.7196482399828,None,,,,,,,,,,,,,,005,2022-05-06_17h24.09.709,Main,2022.1.1,60.2500739533205,
neutral,positive,2,k,k,,,,,,,,,8,8,152,13,,,,,,,,,main,2,2,2,positive,neutral,k,k,1,0.6817532000131905,429.7233996000141,430.73852149990853,430.7219268999761,None,429.7233996000141,None,429.7233996000141,None,429.7233996000141,None,431.40298443994254,None,431.40298443994254,None,431.40298443994254,None,,,,,,,,,,,,,,005,2022-05-06_17h24.09.709,Main,2022.1.1,60.2500739533205,
positive,positive,2,l,j,,,,,,,,,8,9,153,11,,,,,,,,,main,2,2,2,positive,positive,j,j,1,0.7646585999755189,431.40884119994007,432.4218915000092,432.4052955999505,None,431.40884119994007,None,431.40884119994007,None,431.40884119994007,None,433.16923943996665,None,433.16923943996665,None,433.16923943996665,None,,,,,,,,,,,,,,005,2022-05-06_17h24.09.709,Main,2022.1.1,60.2500739533205,
positive,negative,2,l,j,,,,,,,,,8,10,154,14,,,,,,,,,main,2,2,2,negative,positive,j,j,1,0.6819022999843583,433.1692512999289,434.16921670001466,434.16921670001466,None,433.1692512999289,None,433.1692512999289,None,433.1692512999289,None,434.85280004000526,None,434.85280004000526,None,434.85280004000526,None,,,,,,,,,,,,,,005,2022-05-06_17h24.09.709,Main,2022.1.1,60.2500739533205,
positive,negative,1,l,j,,,,,,,,,8,11,155,5,,,,,,,,,main,2,2,1,negative,positive,j,,0,0.9008099000202492,434.85635789996013,435.8696631999919,435.8553069999907,None,434.85635789996013,None,434.85635789996013,None,434.85635789996013,None,436.7528824999463,None,436.7528824999463,None,436.7528824999463,None,,,,,,,,,,,,,,005,2022-05-06_17h24.09.709,Main,2022.1.1,60.2500739533205,
negative,neutral,2,j,l,,,,,,,,,8,12,156,12,,,,,,,,,main,2,2,2,neutral,negative,l,l,1,0.8387313999701291,437.7534008999355,438.7550786999054,438.73613320000004,None,437.7534008999355,None,437.7534008999355,None,437.7534008999355,None,439.5876833399176,None,439.5876833399176,None,439.5876833399176,None,,,,,,,,,,,,,,005,2022-05-06_17h24.09.709,Main,2022.1.1,60.2500739533205,
negative,neutral,1,j,l,,,,,,,,,8,13,157,3,,,,,,,,,main,2,2,1,neutral,negative,l,l,1,0.7272553000366315,439.5935502999928,440.60277389991097,440.5884721999755,None,439.5935502999928,None,439.5935502999928,None,439.5935502999928,None,441.31937733999223,None,441.31937733999223,None,441.31937733999223,None,,,,,,,,,,,,,,005,2022-05-06_17h24.09.709,Main,2022.1.1,60.2500739533205,
negative,positive,1,j,l,,,,,,,,,8,14,158,6,,,,,,,,,main,2,2,1,positive,negative,l,l,1,0.6686575000640005,441.32255859998986,442.33833419997245,442.31939389999025,None,441.32255859998986,None,441.32255859998986,None,441.32255859998986,None,442.98935163995486,None,442.98935163995486,None,442.98935163995486,None,,,,,,,,,,,,,,005,2022-05-06_17h24.09.709,Main,2022.1.1,60.2500739533205,
positive,neutral,1,l,j,,,,,,,,,8,15,159,8,,,,,,,,,main,2,2,1,neutral,positive,j,j,1,0.7945200999965891,443.0026568999747,444.0024402999552,443.98589279991575,None,443.0026568999747,None,443.0026568999747,None,443.0026568999747,None,444.7856245399104,None,444.7856245399104,None,444.7856245399104,None,,,,,,,,,,,,,,005,2022-05-06_17h24.09.709,Main,2022.1.1,60.2500739533205,
negative,negative,2,j,l,,,,,,,,,8,16,160,9,,,,,,,,,main,1,1,2,negative,negative,l,l,1,0.6825076999375597,444.7856617999496,445.7856506999815,445.7856506999815,None,444.7856617999496,None,444.7856617999496,None,444.7856617999496,None,446.4691329400172,None,446.4691329400172,None,446.4691329400172,None,,,,,,,,,,,,,,005,2022-05-06_17h24.09.709,Main,2022.1.1,60.2500739533205,
positive,positive,1,l,j,,,,,,,,,8,17,161,2,,,,,,,,,main,2,2,1,positive,positive,j,j,1,0.6522528999485075,446.4730114999693,447.4882695999695,447.4716042999644,None,446.4730114999693,None,446.4730114999693,None,446.4730114999693,None,448.11927803998117,None,448.11927803998117,None,448.11927803998117,None,,,,,,,,,,,,,,005,2022-05-06_17h24.09.709,Main,2022.1.1,60.2500739533205,
positive,negative,2,l,j,,,,,,,,,9,0,162,14,,,,,,,,,main,1,1,2,negative,positive,j,j,1,0.5965732000768185,448.1264615999535,449.13824399991427,449.1215994999511,None,448.1264615999535,None,448.1264615999535,None,448.1264615999535,None,449.7216334399651,None,449.7216334399651,None,449.7216334399651,None,,,,,,,,,,,,,,005,2022-05-06_17h24.09.709,Main,2022.1.1,60.2500739533205,
positive,neutral,2,l,j,,,,,,,,,9,1,163,17,,,,,,,,,main,2,2,2,neutral,positive,j,j,1,0.6128728999756277,449.72474819992203,450.73588789999485,450.7215234999312,None,449.72474819992203,None,449.72474819992203,None,449.72474819992203,None,451.3359588399413,None,451.3359588399413,None,451.3359588399413,None,,,,,,,,,,,,,,005,2022-05-06_17h24.09.709,Main,2022.1.1,60.2500739533205,
neutral,negative,1,k,k,,,,,,,,,9,2,164,7,,,,,,,,,main,1,1,1,negative,neutral,k,k,1,0.7009045999730006,451.34178529994097,452.3547275000019,452.3380667999154,None,451.34178529994097,None,451.34178529994097,None,451.34178529994097,None,453.03824423995104,None,453.03824423995104,None,453.03824423995104,None,,,,,,,,,,,,,,005,2022-05-06_17h24.09.709,Main,2022.1.1,60.2500739533205,
negative,negative,2,j,l,,,,,,,,,9,3,165,9,,,,,,,,,main,2,2,2,negative,negative,l,j,0,0.5791169999865815,453.0418377999449,454.05247240001336,454.03802099998575,None,453.0418377999449,None,453.0418377999449,None,453.0418377999449,None,454.6191229999531,None,454.6191229999531,None,454.6191229999531,None,,,,,,,,,,,,,,005,2022-05-06_17h24.09.709,Main,2022.1.1,60.2500739533205,
positive,neutral,1,l,j,,,,,,,,,9,4,166,8,,,,,,,,,main,2,2,1,neutral,positive,j,j,1,0.8200035999761894,455.61872639996,456.61871279997285,456.61871279997285,None,455.61872639996,None,455.61872639996,None,455.61872639996,None,457.4353608399048,None,457.4353608399048,None,457.4353608399048,None,,,,,,,,,,,,,,005,2022-05-06_17h24.09.709,Main,2022.1.1,60.2500739533205,
negative,positive,1,j,l,,,,,,,,,9,5,167,6,,,,,,,,,main,2,2,1,positive,negative,l,l,1,0.7475729999132454,457.43696329998784,458.4520237999968,458.43536020000465,None,457.43696329998784,None,457.43696329998784,None,457.43696329998784,None,459.18537743991476,None,459.18537743991476,None,459.18537743991476,None,,,,,,,,,,,,,,005,2022-05-06_17h24.09.709,Main,2022.1.1,60.2500739533205,
positive,positive,2,l,j,,,,,,,,,9,6,168,11,,,,,,,,,main,2,2,2,positive,positive,j,j,1,0.7321346000535414,459.18890810001176,460.18804529996123,460.18804529996123,None,459.18890810001176,None,459.18890810001176,None,459.18890810001176,None,460.9189669399872,None,460.9189669399872,None,460.9189669399872,None,,,,,,,,,,,,,,005,2022-05-06_17h24.09.709,Main,2022.1.1,60.2500739533205,
positive,negative,1,l,j,,,,,,,,,9,7,169,5,,,,,,,,,main,2,2,1,negative,positive,j,j,1,0.6985250000143424,460.92499590001535,461.93777640000917,461.92131239990704,None,460.92499590001535,None,460.92499590001535,None,460.92499590001535,None,462.6189490399207,None,462.6189490399207,None,462.6189490399207,None,,,,,,,,,,,,,,005,2022-05-06_17h24.09.709,Main,2022.1.1,60.2500739533205,
negative,negative,1,j,l,,,,,,,,,9,8,170,0,,,,,,,,,main,1,1,1,negative,negative,l,l,1,0.7140300000319257,462.6234562000027,463.6377530999016,463.61892389995046,None,462.6234562000027,None,462.6234562000027,None,462.6234562000027,None,464.3355612399406,None,464.3355612399406,None,464.3355612399406,None,,,,,,,,,,,,,,005,2022-05-06_17h24.09.709,Main,2022.1.1,60.2500739533205,
neutral,positive,1,k,k,,,,,,,,,9,9,171,4,,,,,,,,,main,1,1,1,positive,neutral,k,k,1,0.6819274999434128,464.33976969996,465.352197399945,465.3378413999453,None,464.33976969996,None,464.33976969996,None,464.33976969996,None,466.01888423991625,None,466.01888423991625,None,466.01888423991625,None,,,,,,,,,,,,,,005,2022-05-06_17h24.09.709,Main,2022.1.1,60.2500739533205,
neutral,positive,2,k,k,,,,,,,,,9,10,172,13,,,,,,,,,main,2,2,2,positive,neutral,k,k,1,0.7308764000190422,466.02404609997757,467.0351445999695,467.01847419992555,None,466.02404609997757,None,466.02404609997757,None,466.02404609997757,None,467.75179273992546,None,467.75179273992546,None,467.75179273992546,None,,,,,,,,,,,,,,005,2022-05-06_17h24.09.709,Main,2022.1.1,60.2500739533205,
neutral,negative,2,k,k,,,,,,,,,9,11,173,16,,,,,,,,,main,1,1,2,negative,neutral,k,k,1,0.715851700049825,467.7517866999842,468.751823999919,468.751823999919,None,467.7517866999842,None,467.7517866999842,None,467.7517866999842,None,469.4687864399399,None,469.4687864399399,None,469.4687864399399,None,,,,,,,,,,,,,,005,2022-05-06_17h24.09.709,Main,2022.1.1,60.2500739533205,
neutral,neutral,1,k,k,,,,,,,,,9,12,174,1,,,,,,,,,main,1,1,1,neutral,neutral,k,k,1,0.7312517000827938,469.4720561999129,470.48545169993304,470.47111249994487,None,469.4720561999129,None,469.4720561999129,None,469.4720561999129,None,471.2020810399787,None,471.2020810399787,None,471.2020810399787,None,,,,,,,,,,,,,,005,2022-05-06_17h24.09.709,Main,2022.1.1,60.2500739533205,
negative,positive,2,j,l,,,,,,,,,9,13,175,15,,,,,,,,,main,2,2,2,positive,negative,l,l,1,0.748672500019893,471.20602229994256,472.21872809994966,472.1876965999836,None,471.20602229994256,None,471.20602229994256,None,471.20602229994256,None,472.952029039932,None,472.952029039932,None,472.952029039932,None,,,,,,,,,,,,,,005,2022-05-06_17h24.09.709,Main,2022.1.1,60.2500739533205,
negative,neutral,2,j,l,,,,,,,,,9,14,176,12,,,,,,,,,main,2,2,2,neutral,negative,l,l,1,0.6819836999056861,472.9560946999118,473.9686731999973,473.95201589993667,None,472.9560946999118,None,472.9560946999118,None,472.9560946999118,None,474.635324139928,None,474.635324139928,None,474.635324139928,None,,,,,,,,,,,,,,005,2022-05-06_17h24.09.709,Main,2022.1.1,60.2500739533205,
negative,neutral,1,j,l,,,,,,,,,9,15,177,3,,,,,,,,,main,1,1,1,neutral,negative,l,l,1,0.6948292999295518,474.63866419997066,475.65196409996133,475.6375371000031,None,474.63866419997066,None,474.63866419997066,None,474.63866419997066,None,476.328818339936,None,476.328818339936,None,476.328818339936,None,,,,,,,,,,,,,,005,2022-05-06_17h24.09.709,Main,2022.1.1,60.2500739533205,
positive,positive,1,l,j,,,,,,,,,9,16,178,2,,,,,,,,,main,2,2,1,positive,positive,j,j,1,0.700577599927783,476.33464189991355,477.3349143000087,477.3349143000087,None,476.33464189991355,None,476.33464189991355,None,476.33464189991355,None,478.03490713991926,None,478.03490713991926,None,478.03490713991926,None,,,,,,,,,,,,,,005,2022-05-06_17h24.09.709,Main,2022.1.1,60.2500739533205,
neutral,neutral,2,k,k,,,,,,,,,9,17,179,10,,,,,,,,,main,2,2,2,neutral,neutral,k,k,1,0.6983652000781149,478.03506609995384,479.0349135999568,479.0349135999568,None,478.03506609995384,None,478.03506609995384,None,478.03506609995384,None,479.73492123998005,None,479.73492123998005,None,479.73492123998005,None,,,,,,,,,,,,,,005,2022-05-06_17h24.09.709,Main,2022.1.1,60.2500739533205,
negative,negative,2,j,l,,,,,,,,,10,0,180,9,,,,,,,,,main,1,1,2,negative,negative,l,l,1,0.6988769000163302,479.7383313999744,480.75187869998626,480.73756109992974,None,479.7383313999744,None,479.7383313999744,None,479.7383313999744,None,481.4353015399189,None,481.4353015399189,None,481.4353015399189,None,,,,,,,,,,,,,,005,2022-05-06_17h24.09.709,Main,2022.1.1,60.2500739533205,
neutral,negative,2,k,k,,,,,,,,,10,1,181,16,,,,,,,,,main,2,2,2,negative,neutral,k,k,1,0.6981178000569344,481.4392259999877,482.454037199961,482.4373736999696,None,481.4392259999877,None,481.4392259999877,None,481.4392259999877,None,483.1351782399812,None,483.1351782399812,None,483.1351782399812,None,,,,,,,,,,,,,,005,2022-05-06_17h24.09.709,Main,2022.1.1,60.2500739533205,
positive,neutral,2,l,j,,,,,,,,,10,2,182,17,,,,,,,,,main,2,2,2,neutral,positive,j,j,1,0.7318911999464035,483.141197299934,484.1518096999498,484.13747620000504,None,483.141197299934,None,483.141197299934,None,483.141197299934,None,484.868432939949,None,484.868432939949,None,484.868432939949,None,,,,,,,,,,,,,,005,2022-05-06_17h24.09.709,Main,2022.1.1,60.2500739533205,
negative,neutral,1,j,l,,,,,,,,,10,3,183,3,,,,,,,,,main,1,1,1,neutral,negative,l,l,1,0.6649222000269219,484.87448759994004,485.8855661000125,485.8687629000051,None,484.87448759994004,None,484.87448759994004,None,484.87448759994004,None,486.53517603998773,None,486.53517603998773,None,486.53517603998773,None,,,,,,,,,,,,,,005,2022-05-06_17h24.09.709,Main,2022.1.1,60.2500739533205,
positive,negative,2,l,j,,,,,,,,,10,4,184,14,,,,,,,,,main,2,2,2,negative,positive,j,j,1,0.6979036999400705,486.53943749994505,487.55137429991737,487.5346950999228,None,486.53943749994505,None,486.53943749994505,None,486.53943749994505,None,488.23468893995744,None,488.23468893995744,None,488.23468893995744,None,,,,,,,,,,,,,,005,2022-05-06_17h24.09.709,Main,2022.1.1,60.2500739533205,
negative,neutral,2,j,l,,,,,,,,,10,5,185,12,,,,,,,,,main,2,2,2,neutral,negative,l,l,1,0.7157892000395805,488.23467129992787,489.2347003999166,489.2347003999166,None,488.23467129992787,None,488.23467129992787,None,488.23467129992787,None,489.95170204000317,None,489.95170204000317,None,489.95170204000317,None,,,,,,,,,,,,,,005,2022-05-06_17h24.09.709,Main,2022.1.1,60.2500739533205,
negative,positive,1,j,l,,,,,,,,,10,6,186,6,,,,,,,,,main,2,2,1,positive,negative,l,l,1,0.6305748000741005,489.95620759995654,490.9706406999612,490.95401129999664,None,489.95620759995654,None,489.95620759995654,None,489.95620759995654,None,491.5849654399441,None,491.5849654399441,None,491.5849654399441,None,,,,,,,,,,,,,,005,2022-05-06_17h24.09.709,Main,2022.1.1,60.2500739533205,
neutral,positive,1,k,k,,,,,,,,,10,7,187,4,,,,,,,,,main,1,1,1,positive,neutral,k,k,1,0.6994063999736682,491.58863399992697,492.6038498999551,492.58723999990616,None,491.58863399992697,None,491.58863399992697,None,491.58863399992697,None,493.2849435399636,None,493.2849435399636,None,493.2849435399636,None,,,,,,,,,,,,,,005,2022-05-06_17h24.09.709,Main,2022.1.1,60.2500739533205,
neutral,positive,2,k,k,,,,,,,,,10,8,188,13,,,,,,,,,main,2,2,2,positive,neutral,k,k,1,0.646297900006175,493.2905488999095,494.30382499995176,494.287206399953,None,493.2905488999095,None,493.2905488999095,None,493.2905488999095,None,494.9349980399362,None,494.9349980399362,None,494.9349980399362,None,,,,,,,,,,,,,,005,2022-05-06_17h24.09.709,Main,2022.1.1,60.2500739533205,
negative,negative,1,j,l,,,,,,,,,10,9,189,0,,,,,,,,,main,2,2,1,negative,negative,l,l,1,0.6984452999895439,494.93939369998407,495.9538025999209,495.9348858000012,None,494.93939369998407,None,494.93939369998407,None,494.93939369998407,None,496.63484353999377,None,496.63484353999377,None,496.63484353999377,None,,,,,,,,,,,,,,005,2022-05-06_17h24.09.709,Main,2022.1.1,60.2500739533205,
neutral,neutral,1,k,k,,,,,,,,,10,10,190,1,,,,,,,,,main,2,2,1,neutral,neutral,k,k,1,0.7310484999325126,496.63830789993517,497.65111899992917,497.634451199905,None,496.63830789993517,None,496.63830789993517,None,496.63830789993517,None,498.36779814000477,None,498.36779814000477,None,498.36779814000477,None,,,,,,,,,,,,,,005,2022-05-06_17h24.09.709,Main,2022.1.1,60.2500739533205,
negative,positive,2,j,l,,,,,,,,,10,11,191,15,,,,,,,,,main,2,2,2,positive,negative,l,l,1,0.649194199941121,498.3680935999146,499.3678391999565,499.3678391999565,None,498.3680935999146,None,498.3680935999146,None,498.3680935999146,None,500.0181452399935,None,500.0181452399935,None,500.0181452399935,None,,,,,,,,,,,,,,005,2022-05-06_17h24.09.709,Main,2022.1.1,60.2500739533205,
neutral,negative,1,k,k,,,,,,,,,10,12,192,7,,,,,,,,,main,2,2,1,negative,neutral,k,k,1,0.6152686999412253,500.03719669999555,501.0536507999059,501.0181245999411,None,500.03719669999555,None,500.03719669999555,None,500.03719669999555,None,501.63475143999096,None,501.63475143999096,None,501.63475143999096,None,,,,,,,,,,,,,,005,2022-05-06_17h24.09.709,Main,2022.1.1,60.2500739533205,
neutral,neutral,2,k,k,,,,,,,,,10,13,193,10,,,,,,,,,main,1,1,2,neutral,neutral,k,k,1,0.6471316000679508,501.6424279999919,502.65353449992836,502.6369709999999,None,501.6424279999919,None,501.6424279999919,None,501.6424279999919,None,503.2847350400058,None,503.2847350400058,None,503.2847350400058,None,,,,,,,,,,,,,,005,2022-05-06_17h24.09.709,Main,2022.1.1,60.2500739533205,
positive,neutral,1,l,j,,,,,,,,,10,14,194,8,,,,,,,,,main,1,1,1,neutral,positive,j,j,1,0.7987049000803381,503.28778759995475,504.28700419992674,504.27032459992915,None,503.28778759995475,None,503.28778759995475,None,503.28778759995475,None,505.0846904399456,None,505.0846904399456,None,505.0846904399456,None,,,,,,,,,,,,,,005,2022-05-06_17h24.09.709,Main,2022.1.1,60.2500739533205,
positive,negative,1,l,j,,,,,,,,,10,15,195,5,,,,,,,,,main,1,1,1,negative,positive,j,j,1,0.631229699938558,505.088361299946,506.10134009993635,506.08467789995484,None,505.088361299946,None,505.088361299946,None,505.088361299946,None,506.7175707399962,None,506.7175707399962,None,506.7175707399962,None,,,,,,,,,,,,,,005,2022-05-06_17h24.09.709,Main,2022.1.1,60.2500739533205,
positive,positive,1,l,j,,,,,,,,,10,16,196,2,,,,,,,,,main,2,2,1,positive,positive,j,j,1,0.5819774999981746,506.71757829992566,507.71756899997126,507.71756899997126,None,506.71757829992566,None,506.71757829992566,None,506.71757829992566,None,508.30107133995045,None,508.30107133995045,None,508.30107133995045,None,,,,,,,,,,,,,,005,2022-05-06_17h24.09.709,Main,2022.1.1,60.2500739533205,
positive,positive,2,l,j,,,,,,,,,10,17,197,11,,,,,,,,,main,1,1,2,positive,positive,j,j,1,0.6993975000223145,508.3010988999158,509.30122119991574,509.30122119991574,None,508.3010988999158,None,508.3010988999158,None,508.3010988999158,None,510.00094734000743,None,510.00094734000743,None,510.00094734000743,None,,,,,,,,,,,,,,005,2022-05-06_17h24.09.709,Main,2022.1.1,60.2500739533205,
positive,neutral,1,l,j,,,,,,,,,11,0,198,8,,,,,,,,,main,2,2,1,neutral,positive,j,j,1,0.6641916999360546,510.00520129990764,511.0184986999957,511.00358729995787,None,510.00520129990764,None,510.00520129990764,None,510.00520129990764,None,511.66786713999466,None,511.66786713999466,None,511.66786713999466,None,,,,,,,,,,,,,,005,2022-05-06_17h24.09.709,Main,2022.1.1,60.2500739533205,
negative,negative,1,j,l,,,,,,,,,11,1,199,0,,,,,,,,,main,2,2,1,negative,negative,l,l,1,0.6820921000326052,511.6734586999519,512.6845174999908,512.6700985999778,None,511.6734586999519,None,511.6734586999519,None,511.6734586999519,None,513.3511786399991,None,513.3511786399991,None,513.3511786399991,None,,,,,,,,,,,,,,005,2022-05-06_17h24.09.709,Main,2022.1.1,60.2500739533205,
neutral,negative,2,k,k,,,,,,,,,11,2,200,16,,,,,,,,,main,2,2,2,negative,neutral,k,k,1,0.6984658000292256,513.3550178000005,514.3706115999958,514.3514012999367,None,513.3550178000005,None,513.3550178000005,None,513.3550178000005,None,515.0513908399386,None,515.0513908399386,None,515.0513908399386,None,,,,,,,,,,,,,,005,2022-05-06_17h24.09.709,Main,2022.1.1,60.2500739533205,
negative,positive,2,j,l,,,,,,,,,11,3,201,15,,,,,,,,,main,2,2,2,positive,negative,l,l,1,1.231689800042659,515.0574768999359,516.0699463000055,516.0534434999572,None,515.0574768999359,None,515.0574768999359,None,515.0574768999359,None,517.2844975399436,None,517.2844975399436,None,517.2844975399436,None,,,,,,,,,,,,,,005,2022-05-06_17h24.09.709,Main,2022.1.1,60.2500739533205,
neutral,positive,1,k,k,,,,,,,,,11,4,202,4,,,,,,,,,main,2,2,1,positive,neutral,k,k,1,0.7483204000163823,517.2883845999604,518.3006860999158,518.2840086999349,None,517.2883845999604,None,517.2883845999604,None,517.2883845999604,None,519.0342823399347,None,519.0342823399347,None,519.0342823399347,None,,,,,,,,,,,,,,005,2022-05-06_17h24.09.709,Main,2022.1.1,60.2500739533205,
negative,positive,1,j,l,,,,,,,,,11,5,203,6,,,,,,,,,main,1,1,1,positive,negative,l,l,1,0.8314264999935403,519.0356258999091,520.0509492999408,520.0340498998994,None,519.0356258999091,None,519.0356258999091,None,519.0356258999091,None,520.8676733399858,None,520.8676733399858,None,520.8676733399858,None,,,,,,,,,,,,,,005,2022-05-06_17h24.09.709,Main,2022.1.1,60.2500739533205,
positive,neutral,2,l,j,,,,,,,,,11,6,204,17,,,,,,,,,main,1,1,2,neutral,positive,j,j,1,0.8484624000266194,520.8739939999068,521.8866121999454,521.867666099919,None,520.8739939999068,None,520.8739939999068,None,520.8739939999068,None,522.7176127399667,None,522.7176127399667,None,522.7176127399667,None,,,,,,,,,,,,,,005,2022-05-06_17h24.09.709,Main,2022.1.1,60.2500739533205,
negative,negative,2,j,l,,,,,,,,,11,7,205,9,,,,,,,,,main,1,1,2,negative,negative,l,l,1,0.7317851000698283,522.7210336999269,523.7364200999727,523.7198500999948,None,522.7210336999269,None,522.7210336999269,None,522.7210336999269,None,524.4509254399105,None,524.4509254399105,None,524.4509254399105,None,,,,,,,,,,,,,,005,2022-05-06_17h24.09.709,Main,2022.1.1,60.2500739533205,
positive,negative,1,l,j,,,,,,,,,11,8,206,5,,,,,,,,,main,2,2,1,negative,positive,j,j,1,0.748304299893789,524.4699975999538,525.4675449999049,525.4532372999238,None,524.4699975999538,None,524.4699975999538,None,524.4699975999538,None,526.2008620400098,None,526.2008620400098,None,526.2008620400098,None,,,,,,,,,,,,,,005,2022-05-06_17h24.09.709,Main,2022.1.1,60.2500739533205,
neutral,negative,1,k,k,,,,,,,,,11,9,207,7,,,,,,,,,main,1,1,1,negative,neutral,k,k,1,0.7484407000010833,526.2065995999146,527.2197602000087,527.2008378999308,None,526.2065995999146,None,526.2065995999146,None,526.2065995999146,None,527.9508190399152,None,527.9508190399152,None,527.9508190399152,None,,,,,,,,,,,,,,005,2022-05-06_17h24.09.709,Main,2022.1.1,60.2500739533205,
positive,negative,2,l,j,,,,,,,,,11,10,208,14,,,,,,,,,main,1,1,2,negative,positive,j,j,1,0.6980073000304401,527.9565785999876,528.9671097999671,528.9504446999636,None,527.9565785999876,None,527.9565785999876,None,527.9565785999876,None,529.650433139957,None,529.650433139957,None,529.650433139957,None,,,,,,,,,,,,,,005,2022-05-06_17h24.09.709,Main,2022.1.1,60.2500739533205,
positive,positive,2,l,j,,,,,,,,,11,11,209,11,,,,,,,,,main,2,2,2,positive,positive,j,j,1,0.6820904000196606,529.6506105000153,530.6504436999094,530.6504436999094,None,529.6506105000153,None,529.6506105000153,None,529.6506105000153,None,531.3342035399634,None,531.3342035399634,None,531.3342035399634,None,,,,,,,,,,,,,,005,2022-05-06_17h24.09.709,Main,2022.1.1,60.2500739533205,
negative,neutral,2,j,l,,,,,,,,,11,12,210,12,,,,,,,,,main,1,1,2,neutral,negative,l,l,1,0.748107900028117,531.3376292999601,532.350733099971,532.3363840999082,None,531.3376292999601,None,531.3376292999601,None,531.3376292999601,None,533.0838555399911,None,533.0838555399911,None,533.0838555399911,None,,,,,,,,,,,,,,005,2022-05-06_17h24.09.709,Main,2022.1.1,60.2500739533205,
negative,neutral,1,j,l,,,,,,,,,11,13,211,3,,,,,,,,,main,2,2,1,neutral,negative,l,l,1,0.7988210999174044,533.0899837999605,534.102877199999,534.0862541999668,None,533.0899837999605,None,533.0899837999605,None,533.0899837999605,None,534.8840110399411,None,534.8840110399411,None,534.8840110399411,None,,,,,,,,,,,,,,005,2022-05-06_17h24.09.709,Main,2022.1.1,60.2500739533205,
positive,positive,1,l,j,,,,,,,,,11,14,212,2,,,,,,,,,main,1,1,1,positive,positive,j,j,1,0.8316195000661537,534.8876246999716,535.9028180999449,535.8862851999002,None,534.8876246999716,None,534.8876246999716,None,534.8876246999716,None,536.7173889400088,None,536.7173889400088,None,536.7173889400088,None,,,,,,,,,,,,,,005,2022-05-06_17h24.09.709,Main,2022.1.1,60.2500739533205,
neutral,neutral,1,k,k,,,,,,,,,11,15,213,1,,,,,,,,,main,1,1,1,neutral,neutral,k,k,1,0.7235512000042945,536.7234586999984,537.7361983999144,537.7195660999278,None,536.7234586999984,None,536.7234586999984,None,536.7234586999984,None,538.4433582399157,None,538.4433582399157,None,538.4433582399157,None,,,,,,,,,,,,,,005,2022-05-06_17h24.09.709,Main,2022.1.1,60.2500739533205,
neutral,positive,2,k,k,,,,,,,,,11,16,214,13,,,,,,,,,main,2,2,2,positive,neutral,k,k,1,0.6886897999793291,538.4599949999247,539.4668830999872,539.4335497999564,None,538.4599949999247,None,538.4599949999247,None,538.4599949999247,None,540.1335302400054,None,540.1335302400054,None,540.1335302400054,None,,,,,,,,,,,,,,005,2022-05-06_17h24.09.709,Main,2022.1.1,60.2500739533205,
neutral,neutral,2,k,k,,,,,,,,,11,17,215,10,,,,,,,,,main,2,2,2,neutral,neutral,k,k,1,0.6655123000964522,540.1335314000025,541.1362382000079,541.1362382000079,None,540.1335314000025,None,540.1335314000025,None,540.1335314000025,None,541.8006313399761,None,541.8006313399761,None,541.8006313399761,None,,,,,,,,,,,,,,005,2022-05-06_17h24.09.709,Main,2022.1.1,60.2500739533205,
positive,neutral,2,l,j,,,,,,,,,12,0,216,17,,,,,,,,,main,2,2,2,neutral,positive,j,j,1,0.7483403000514954,541.804256399977,542.8194160999265,542.8004931999603,None,541.804256399977,None,541.804256399977,None,541.804256399977,None,543.5505059399526,None,543.5505059399526,None,543.5505059399526,None,,,,,,,,,,,,,,005,2022-05-06_17h24.09.709,Main,2022.1.1,60.2500739533205,
negative,positive,2,j,l,,,,,,,,,12,1,217,15,,,,,,,,,main,1,1,2,positive,negative,l,l,1,0.7335054000141099,543.5541319999611,544.5693588999566,544.5504576999228,None,543.5541319999611,None,543.5541319999611,None,543.5541319999611,None,545.2838879399584,None,545.2838879399584,None,545.2838879399584,None,,,,,,,,,,,,,,005,2022-05-06_17h24.09.709,Main,2022.1.1,60.2500739533205,
negative,negative,2,j,l,,,,,,,,,12,2,218,9,,,,,,,,,main,2,2,2,negative,negative,l,l,1,0.629852999933064,545.2887148999143,546.300415799953,546.2837514999555,None,545.2887148999143,None,545.2887148999143,None,545.2887148999143,None,546.9170841399697,None,546.9170841399697,None,546.9170841399697,None,,,,,,,,,,,,,,005,2022-05-06_17h24.09.709,Main,2022.1.1,60.2500739533205,
negative,negative,1,j,l,,,,,,,,,12,3,219,0,,,,,,,,,main,1,1,1,negative,negative,l,l,1,0.7314058999763802,546.9208061000099,547.9337128999177,547.919339899905,None,546.9208061000099,None,546.9208061000099,None,546.9208061000099,None,548.6500170399319,None,548.6500170399319,None,548.6500170399319,None,,,,,,,,,,,,,,005,2022-05-06_17h24.09.709,Main,2022.1.1,60.2500739533205,
positive,negative,1,l,j,,,,,,,,,12,4,220,5,,,,,,,,,main,1,1,1,negative,positive,j,j,1,0.7522938000038266,548.6502276000101,549.6499988000141,549.6499988000141,None,548.6502276000101,None,548.6502276000101,None,548.6502276000101,None,550.4000633399352,None,550.4000633399352,None,550.4000633399352,None,,,,,,,,,,,,,,005,2022-05-06_17h24.09.709,Main,2022.1.1,60.2500739533205,
neutral,positive,2,k,k,,,,,,,,,12,5,221,13,,,,,,,,,main,1,1,2,positive,neutral,k,k,1,0.6937899000477046,550.4099705999251,551.4169893999351,551.4003225999186,None,550.4099705999251,None,550.4099705999251,None,550.4099705999251,None,552.1004077399499,None,552.1004077399499,None,552.1004077399499,None,,,,,,,,,,,,,,005,2022-05-06_17h24.09.709,Main,2022.1.1,60.2500739533205,
positive,negative,2,l,j,,,,,,,,,12,6,222,14,,,,,,,,,main,1,1,2,negative,positive,j,j,1,0.6994115000125021,552.1037245999323,553.119149099919,553.1002696999349,None,552.1037245999323,None,552.1037245999323,None,552.1037245999323,None,553.8002669399954,None,553.8002669399954,None,553.8002669399954,None,,,,,,,,,,,,,,005,2022-05-06_17h24.09.709,Main,2022.1.1,60.2500739533205,
neutral,negative,2,k,k,,,,,,,,,12,7,223,16,,,,,,,,,main,2,2,2,negative,neutral,k,k,1,0.797241699998267,553.806729999953,554.8191489999881,554.8002388000023,None,553.806729999953,None,553.806729999953,None,553.806729999953,None,555.6002351399162,None,555.6002351399162,None,555.6002351399162,None,,,,,,,,,,,,,,005,2022-05-06_17h24.09.709,Main,2022.1.1,60.2500739533205,
negative,neutral,1,j,l,,,,,,,,,12,8,224,3,,,,,,,,,main,2,2,1,neutral,negative,l,l,1,0.7318491999758407,555.6035928999772,556.616872799932,556.6001961999573,None,555.6035928999772,None,555.6035928999772,None,555.6035928999772,None,557.3335145399557,None,557.3335145399557,None,557.3335145399557,None,,,,,,,,,,,,,,005,2022-05-06_17h24.09.709,Main,2022.1.1,60.2500739533205,
