target,distractor,set,ans1,ans2,rep_loop2.thisRepN,rep_loop2.thisTrialN,rep_loop2.thisN,rep_loop2.thisIndex,flanker_prac_loop.thisRepN,flanker_prac_loop.thisTrialN,flanker_prac_loop.thisN,flanker_prac_loop.thisIndex,flanker_main_loop.thisRepN,flanker_main_loop.thisTrialN,flanker_main_loop.thisN,flanker_main_loop.thisIndex,fl_inst_resp.keys,fl_inst_resp.rt,sound_1.started,sound_1.stopped,image_4.started,image_4.stopped,back_2.started,back_2.stopped,main_prac,fl_cold,fl_colt,fl_set,fl_dcond,fl_tcond,fl_ans,fl_res,fl_corr,fl_rt,fix_fl.started,fix_fl.stopped,targ.started,targ.stopped,j_button.started,j_button.stopped,k_button.started,k_button.stopped,l_button.started,l_button.stopped,j_button2.started,j_button2.stopped,k_button2.started,k_button2.stopped,l_button2.started,l_button2.stopped,mainback.started,mainback.stopped,key_resp.keys,key_resp.rt,mouse_6.x,mouse_6.y,mouse_6.leftButton,mouse_6.midButton,mouse_6.rightButton,mouse_6.started,mouse_6.stopped,text_2.started,text_2.stopped,id*,date,expName,psychopyVersion,frameRate,
,,,,,0,0,0,0,,,,,,,,,space,63.42162170005031,34.1691418599803,None,97.61775870004203,None,,,,,,,,,,,,,,,,,,,,,,,,,,,,,,,,,,,,,,,,,,006,2022-05-06_19h18.11.697,Main,2022.1.1,60.20212261769591,
positive,neutral,1,l,j,,,,,0,0,0,8,,,,,,,,,,,102.74846000003163,None,prac,2,2,1,neutral,positive,l,l,1,1.777485299971886,104.75667599996086,105.76753519999329,105.75092300004326,None,104.75667599996086,None,104.75667599996086,None,104.75667599996086,None,107.53381050005555,None,107.53381050005555,None,107.53381050005555,None,,,,,,,,,,,,,,006,2022-05-06_19h18.11.697,Main,2022.1.1,60.20212261769591,
positive,positive,1,l,j,,,,,0,1,1,2,,,,,,,,,,,,,prac,2,2,1,positive,positive,l,l,1,0.819824600010179,108.5358816999942,109.55076869996265,109.51517679996323,None,108.5358816999942,None,108.5358816999942,None,108.5358816999942,None,110.35064805997536,None,110.35064805997536,None,110.35064805997536,None,,,,,,,,,,,,,,006,2022-05-06_19h18.11.697,Main,2022.1.1,60.20212261769591,
neutral,neutral,2,k,k,,,,,0,2,2,10,,,,,,,,,,,,,prac,2,2,2,neutral,neutral,k,k,1,0.9788872000062838,110.35398430004716,111.36478669999633,111.34811869997066,None,110.35398430004716,None,110.35398430004716,None,110.35398430004716,None,112.33139945997391,None,112.33139945997391,None,112.33139945997391,None,,,,,,,,,,,,,,006,2022-05-06_19h18.11.697,Main,2022.1.1,60.20212261769591,
neutral,negative,2,k,k,,,,,0,3,3,16,,,,,,,,,,,,,prac,2,2,2,negative,neutral,k,k,1,0.8488504999550059,112.33184740005527,113.33143759996165,113.33143759996165,None,112.33184740005527,None,112.33184740005527,None,112.33184740005527,None,114.18140075996052,None,114.18140075996052,None,114.18140075996052,None,,,,,,,,,,,,,,006,2022-05-06_19h18.11.697,Main,2022.1.1,60.20212261769591,
neutral,neutral,1,k,k,,,,,0,4,4,1,,,,,,,,,,,,,prac,2,2,1,neutral,neutral,k,k,1,1.2488253000192344,114.18167459999677,115.18152590002865,115.18152590002865,None,114.18167459999677,None,114.18167459999677,None,114.18167459999677,None,116.43168176000472,None,116.43168176000472,None,116.43168176000472,None,,,,,,,,,,,,,,006,2022-05-06_19h18.11.697,Main,2022.1.1,60.20212261769591,
positive,negative,1,l,j,,,,,0,5,5,5,,,,,,,,,,,,,prac,2,2,1,negative,positive,l,l,1,1.0343239000067115,116.4350892000366,117.45058579999022,117.43398480000906,None,116.4350892000366,None,116.4350892000366,None,116.4350892000366,None,118.46725916001014,None,118.46725916001014,None,118.46725916001014,None,,,,,,,,,,,,,,006,2022-05-06_19h18.11.697,Main,2022.1.1,60.20212261769591,
negative,positive,1,j,l,,,,,0,6,6,6,,,,,,,,,,,,,prac,2,2,1,positive,negative,j,j,1,0.9957582999486476,118.471187200048,119.48383000004105,119.4672714000335,None,118.471187200048,None,118.471187200048,None,118.471187200048,None,120.46460585994646,None,120.46460585994646,None,120.46460585994646,None,,,,,,,,,,,,,,006,2022-05-06_19h18.11.697,Main,2022.1.1,60.20212261769591,
negative,neutral,1,j,l,,,,,0,7,7,3,,,,,,,,,,,,,prac,1,1,1,neutral,negative,j,j,1,0.8824212000472471,120.46824810001999,121.48378310003318,121.45058750000317,None,120.46824810001999,None,120.46824810001999,None,120.46824810001999,None,122.34822646004613,None,122.34822646004613,None,122.34822646004613,None,,,,,,,,,,,,,,006,2022-05-06_19h18.11.697,Main,2022.1.1,60.20212261769591,
positive,neutral,2,l,j,,,,,0,8,8,17,,,,,,,,,,,,,prac,1,1,2,neutral,positive,l,l,1,0.8824173000175506,122.35167390003335,123.36455319996458,123.34789289999753,None,122.35167390003335,None,122.35167390003335,None,122.35167390003335,None,124.23116156004835,None,124.23116156004835,None,124.23116156004835,None,,,,,,,,,,,,,,006,2022-05-06_19h18.11.697,Main,2022.1.1,60.20212261769591,
negative,neutral,2,j,l,,,,,0,9,9,12,,,,,,,,,,,,,prac,2,2,2,neutral,negative,j,j,1,0.9309004000388086,124.23177569999825,125.23121660004836,125.23121660004836,None,124.23177569999825,None,124.23177569999825,None,124.23177569999825,None,126.16448206000496,None,126.16448206000496,None,126.16448206000496,None,,,,,,,,,,,,,,006,2022-05-06_19h18.11.697,Main,2022.1.1,60.20212261769591,
positive,positive,2,l,j,,,,,0,10,10,11,,,,,,,,,,,,,prac,2,2,2,positive,positive,l,l,1,0.8680594000034034,126.16524010000285,127.1645343999844,127.1645343999844,None,126.16524010000285,None,126.16524010000285,None,126.16524010000285,None,128.033656960004,None,128.033656960004,None,128.033656960004,None,,,,,,,,,,,,,,006,2022-05-06_19h18.11.697,Main,2022.1.1,60.20212261769591,
neutral,positive,2,k,k,,,,,0,11,11,13,,,,,,,,,,,,,prac,1,1,2,positive,neutral,k,k,1,0.7800295000197366,128.03649159998167,129.05035839998163,129.03378609998617,None,128.03649159998167,None,128.03649159998167,None,128.03649159998167,None,129.81476505997125,None,129.81476505997125,None,129.81476505997125,None,,,,,,,,,,,,,,006,2022-05-06_19h18.11.697,Main,2022.1.1,60.20212261769591,
negative,negative,2,j,l,,,,,0,12,12,9,,,,,,,,,,,,,prac,2,2,2,negative,negative,j,j,1,0.852511000004597,129.8182699000463,130.833661200013,130.81713660003152,None,129.8182699000463,None,129.8182699000463,None,129.8182699000463,None,131.6647225599736,None,131.6647225599736,None,131.6647225599736,None,,,,,,,,,,,,,,006,2022-05-06_19h18.11.697,Main,2022.1.1,60.20212261769591,
negative,positive,2,j,l,,,,,0,13,13,15,,,,,,,,,,,,,prac,2,2,2,positive,negative,j,j,1,0.7111220000078902,131.6718649000395,132.68358920002356,132.66701259999536,None,131.6718649000395,None,131.6718649000395,None,131.6718649000395,None,133.38132626004517,None,133.38132626004517,None,133.38132626004517,None,,,,,,,,,,,,,,006,2022-05-06_19h18.11.697,Main,2022.1.1,60.20212261769591,
neutral,positive,1,k,k,,,,,0,14,14,4,,,,,,,,,,,,,prac,1,1,1,positive,neutral,k,k,1,0.7308663999428973,133.38542629999574,134.40022099995986,134.38361649995204,None,133.38542629999574,None,133.38542629999574,None,133.38542629999574,None,135.11461845994927,None,135.11461845994927,None,135.11461845994927,None,,,,,,,,,,,,,,006,2022-05-06_19h18.11.697,Main,2022.1.1,60.20212261769591,
positive,negative,2,l,j,,,,,0,15,15,14,,,,,,,,,,,,,prac,1,1,2,negative,positive,l,l,1,1.0642491999315098,135.11862960003782,136.13094719999935,136.1142772999592,None,135.11862960003782,None,135.11862960003782,None,135.11862960003782,None,137.18088535999414,None,137.18088535999414,None,137.18088535999414,None,,,,,,,,,,,,,,006,2022-05-06_19h18.11.697,Main,2022.1.1,60.20212261769591,
negative,negative,1,j,l,,,,,0,16,16,0,,,,,,,,,,,,,prac,2,2,1,negative,negative,j,j,1,0.7656951999524608,137.18093240004964,138.18094820005354,138.18094820005354,None,137.18093240004964,None,137.18093240004964,None,137.18093240004964,None,138.9478990599746,None,138.9478990599746,None,138.9478990599746,None,,,,,,,,,,,,,,006,2022-05-06_19h18.11.697,Main,2022.1.1,60.20212261769591,
neutral,negative,1,k,k,,,,,0,17,17,7,,,,,,,,,,,,,prac,2,2,1,negative,neutral,k,k,1,0.9485915000550449,138.95121500000823,139.9668103000149,139.95020780002233,None,138.95121500000823,None,138.95121500000823,None,138.95121500000823,None,140.89785226003733,None,140.89785226003733,None,140.89785226003733,None,,,,,,,,,,,,,,006,2022-05-06_19h18.11.697,Main,2022.1.1,60.20212261769591,
negative,positive,2,j,l,,,,,1,0,18,15,,,,,,,,,,,,,prac,2,2,2,positive,negative,j,j,1,1.0174917000113055,140.90370779996738,141.91677879996132,141.90021009999327,None,140.90370779996738,None,140.90370779996738,None,140.90370779996738,None,142.91667835996486,None,142.91667835996486,None,142.91667835996486,None,,,,,,,,,,,,,,006,2022-05-06_19h18.11.697,Main,2022.1.1,60.20212261769591,
negative,neutral,2,j,l,,,,,1,1,19,12,,,,,,,,,,,,,prac,1,1,2,neutral,negative,j,j,1,0.7317711999639869,142.9194284999976,143.9333349999506,143.91682300006505,None,142.9194284999976,None,142.9194284999976,None,142.9194284999976,None,144.64995816000737,None,144.64995816000737,None,144.64995816000737,None,,,,,,,,,,,,,,006,2022-05-06_19h18.11.697,Main,2022.1.1,60.20212261769591,
neutral,positive,1,k,k,,,,,1,2,20,4,,,,,,,,,,,,,prac,1,1,1,positive,neutral,k,k,1,0.7462206999771297,144.65270820003934,145.6644227000652,145.6500697999727,None,144.65270820003934,None,144.65270820003934,None,144.65270820003934,None,146.39735495997593,None,146.39735495997593,None,146.39735495997593,None,,,,,,,,,,,,,,006,2022-05-06_19h18.11.697,Main,2022.1.1,60.20212261769591,
neutral,negative,2,k,k,,,,,1,3,21,16,,,,,,,,,,,,,prac,2,2,2,negative,neutral,k,k,1,0.7985100999940187,146.39738209999632,147.39735069999006,147.39735069999006,None,146.39738209999632,None,146.39738209999632,None,146.39738209999632,None,148.19737675995566,None,148.19737675995566,None,148.19737675995566,None,,,,,,,,,,,,,,006,2022-05-06_19h18.11.697,Main,2022.1.1,60.20212261769591,
neutral,neutral,1,k,k,,,,,1,4,22,1,,,,,,,,,,,,,prac,1,1,1,neutral,neutral,k,k,1,0.6491598000284284,148.1997525000479,149.200052900007,149.200052900007,None,148.1997525000479,None,148.1997525000479,None,148.1997525000479,None,149.84764226002153,None,149.84764226002153,None,149.84764226002153,None,,,,,,,,,,,,,,006,2022-05-06_19h18.11.697,Main,2022.1.1,60.20212261769591,
negative,negative,2,j,l,,,,,1,5,23,9,,,,,,,,,,,,,prac,1,1,2,negative,negative,j,j,1,0.8482082999544218,149.85095420002472,150.86652909999248,150.84993839997333,None,149.85095420002472,None,149.85095420002472,None,149.85095420002472,None,151.6976007600315,None,151.6976007600315,None,151.6976007600315,None,,,,,,,,,,,,,,006,2022-05-06_19h18.11.697,Main,2022.1.1,60.20212261769591,
positive,neutral,2,l,j,,,,,1,6,24,17,,,,,,,,,,,,,prac,2,2,2,neutral,positive,l,l,1,0.8647993000922725,151.7015645999927,152.71651090006344,152.6998955999734,None,151.7015645999927,None,151.7015645999927,None,151.7015645999927,None,153.56418765999842,None,153.56418765999842,None,153.56418765999842,None,,,,,,,,,,,,,,006,2022-05-06_19h18.11.697,Main,2022.1.1,60.20212261769591,
positive,negative,1,l,j,,,,,1,7,25,5,,,,,,,,,,,,,prac,2,2,1,negative,positive,l,l,1,0.9321615999797359,153.56754329998512,154.58312780002598,154.5664521000581,None,153.56754329998512,None,153.56754329998512,None,153.56754329998512,None,155.4975059600547,None,155.4975059600547,None,155.4975059600547,None,,,,,,,,,,,,,,006,2022-05-06_19h18.11.697,Main,2022.1.1,60.20212261769591,
negative,positive,1,j,l,,,,,1,8,26,6,,,,,,,,,,,,,prac,2,2,1,positive,negative,j,j,1,0.8850237000733614,155.5010084999958,156.51636670005973,156.49721750000026,None,155.5010084999958,None,155.5010084999958,None,155.5010084999958,None,157.38046606001444,None,157.38046606001444,None,157.38046606001444,None,,,,,,,,,,,,,,006,2022-05-06_19h18.11.697,Main,2022.1.1,60.20212261769591,
negative,neutral,1,j,l,,,,,1,9,27,3,,,,,,,,,,,,,prac,2,2,1,neutral,negative,j,j,1,0.6617660999763757,157.38475960004143,158.39713389996905,158.38047940004617,None,157.38475960004143,None,157.38475960004143,None,157.38475960004143,None,159.04713905998506,None,159.04713905998506,None,159.04713905998506,None,,,,,,,,,,,,,,006,2022-05-06_19h18.11.697,Main,2022.1.1,60.20212261769591,
negative,negative,1,j,l,,,,,1,10,28,0,,,,,,,,,,,,,prac,1,1,1,negative,negative,j,j,1,0.7343773000175133,159.05045229999814,160.0497139999643,160.0497139999643,None,159.05045229999814,None,159.05045229999814,None,159.05045229999814,None,160.7830140599981,None,160.7830140599981,None,160.7830140599981,None,,,,,,,,,,,,,,006,2022-05-06_19h18.11.697,Main,2022.1.1,60.20212261769591,
neutral,neutral,2,k,k,,,,,1,11,29,10,,,,,,,,,,,,,prac,2,2,2,neutral,neutral,k,k,1,0.848307800013572,160.7857238999568,161.7996594000142,161.78314469999168,None,160.7857238999568,None,160.7857238999568,None,160.7857238999568,None,162.63243215996772,None,162.63243215996772,None,162.63243215996772,None,,,,,,,,,,,,,,006,2022-05-06_19h18.11.697,Main,2022.1.1,60.20212261769591,
neutral,negative,1,k,k,,,,,1,12,30,7,,,,,,,,,,,,,prac,1,1,1,negative,neutral,k,k,1,0.6653639998985454,162.63756960001774,163.64961980003864,163.63293399999384,None,162.63756960001774,None,162.63756960001774,None,162.63756960001774,None,164.2994765599724,None,164.2994765599724,None,164.2994765599724,None,,,,,,,,,,,,,,006,2022-05-06_19h18.11.697,Main,2022.1.1,60.20212261769591,
positive,positive,1,l,j,,,,,1,13,31,2,,,,,,,,,,,,,prac,1,1,1,positive,positive,l,l,1,0.9798154999734834,164.30296859994996,165.31626930006314,165.29971829999704,None,164.30296859994996,None,164.30296859994996,None,164.30296859994996,None,166.28057136002462,None,166.28057136002462,None,166.28057136002462,None,,,,,,,,,,,,,,006,2022-05-06_19h18.11.697,Main,2022.1.1,60.20212261769591,
neutral,positive,2,k,k,,,,,1,14,32,13,,,,,,,,,,,,,prac,1,1,2,positive,neutral,k,k,1,0.8649666999699548,166.2845515999943,167.29665400006343,167.27999369997997,None,166.2845515999943,None,166.2845515999943,None,166.2845515999943,None,168.146855960018,None,168.146855960018,None,168.146855960018,None,,,,,,,,,,,,,,006,2022-05-06_19h18.11.697,Main,2022.1.1,60.20212261769591,
positive,neutral,1,l,j,,,,,1,15,33,8,,,,,,,,,,,,,prac,2,2,1,neutral,positive,l,l,1,0.9659849000163376,168.1469092000043,169.1469686999917,169.1469686999917,None,168.1469092000043,None,168.1469092000043,None,168.1469092000043,None,170.11388375994284,None,170.11388375994284,None,170.11388375994284,None,,,,,,,,,,,,,,006,2022-05-06_19h18.11.697,Main,2022.1.1,60.20212261769591,
positive,positive,2,l,j,,,,,1,16,34,11,,,,,,,,,,,,,prac,2,2,2,positive,positive,l,l,1,0.7682506999699399,170.11747789999936,171.13278630003333,171.1161626999965,None,170.11747789999936,None,170.11747789999936,None,170.11747789999936,None,171.88148235995322,None,171.88148235995322,None,171.88148235995322,None,,,,,,,,,,,,,,006,2022-05-06_19h18.11.697,Main,2022.1.1,60.20212261769591,
positive,negative,2,l,j,,,,,1,17,35,14,,,,,,,,,,,,,prac,2,2,2,negative,positive,l,l,1,0.548210599925369,171.8873744000448,172.89945949998219,172.88288170006126,None,171.8873744000448,None,171.8873744000448,None,171.8873744000448,None,173.4327353599947,None,173.4327353599947,None,173.4327353599947,None,,,,,,,,,,,,,,006,2022-05-06_19h18.11.697,Main,2022.1.1,60.20212261769591,
,,,,,,,,,,,,,,,,,,,,,,,,,,,,,,,,,,,,,,,,,,,,,,,,,,,173.43279540003277,None,space,10.695571099990048,,,,,,,,,,006,2022-05-06_19h18.11.697,Main,2022.1.1,60.20212261769591,
,,,,,,,,,,,,,,,,,,,,,,,,,,,,,,,,,,,,,,,,,,,,,,,,,,,,,,,0.78425926,-0.21481481,0,0,0,0.010681660030968487,None,,,006,2022-05-06_19h18.11.697,Main,2022.1.1,60.20212261769591,
neutral,positive,2,k,k,,,,,,,,,0,0,0,13,,,,,,,184.14926600002218,None,main,2,2,2,positive,neutral,k,k,1,0.7286936000455171,186.15572849998716,187.16577960003633,187.14919020002708,None,186.15572849998716,None,186.15572849998716,None,186.15572849998716,None,187.88240796001628,None,187.88240796001628,None,187.88240796001628,None,,,,,,,,,,,,,,006,2022-05-06_19h18.11.697,Main,2022.1.1,60.20212261769591,
negative,negative,2,j,l,,,,,,,,,0,1,1,9,,,,,,,,,main,2,2,2,negative,negative,j,j,1,1.1607804999221116,187.88747590000276,188.89648330002092,188.87982799997553,None,187.88747590000276,None,187.88747590000276,None,187.88747590000276,None,190.04641306004487,None,190.04641306004487,None,190.04641306004487,None,,,,,,,,,,,,,,006,2022-05-06_19h18.11.697,Main,2022.1.1,60.20212261769591,
positive,neutral,1,l,j,,,,,,,,,0,2,2,8,,,,,,,,,main,2,2,1,neutral,positive,l,l,1,0.7652426999993622,190.04647780000232,191.04917310003657,191.04917310003657,None,190.04647780000232,None,190.04647780000232,None,190.04647780000232,None,191.8133724599611,None,191.8133724599611,None,191.8133724599611,None,,,,,,,,,,,,,,006,2022-05-06_19h18.11.697,Main,2022.1.1,60.20212261769591,
neutral,neutral,2,k,k,,,,,,,,,0,3,3,10,,,,,,,,,main,2,2,2,neutral,neutral,k,k,1,0.7482334000524133,191.81661790004,192.83233819995075,192.81561779999174,None,191.81661790004,None,191.81661790004,None,191.81661790004,None,193.563361359993,None,193.563361359993,None,193.563361359993,None,,,,,,,,,,,,,,006,2022-05-06_19h18.11.697,Main,2022.1.1,60.20212261769591,
positive,positive,1,l,j,,,,,,,,,0,4,4,2,,,,,,,,,main,2,2,1,positive,positive,l,l,1,0.8696322999894619,193.5696239999961,194.58233969996218,194.56576320005115,None,193.5696239999961,None,193.5696239999961,None,193.5696239999961,None,195.43332376005128,None,195.43332376005128,None,195.43332376005128,None,,,,,,,,,,,,,,006,2022-05-06_19h18.11.697,Main,2022.1.1,60.20212261769591,
neutral,negative,1,k,k,,,,,,,,,0,5,5,7,,,,,,,,,main,1,1,1,negative,neutral,k,k,1,0.7273630000418052,195.43733490002342,196.4489523000084,196.43236420000903,None,195.43733490002342,None,195.43733490002342,None,195.43733490002342,None,197.16327796003316,None,197.16327796003316,None,197.16327796003316,None,,,,,,,,,,,,,,006,2022-05-06_19h18.11.697,Main,2022.1.1,60.20212261769591,
negative,neutral,2,j,l,,,,,,,,,0,6,6,12,,,,,,,,,main,1,1,2,neutral,negative,j,j,1,0.6978586000623181,197.1689866000088,198.18224860006012,198.16555290005635,None,197.1689866000088,None,197.1689866000088,None,197.1689866000088,None,198.86288946005516,None,198.86288946005516,None,198.86288946005516,None,,,,,,,,,,,,,,006,2022-05-06_19h18.11.697,Main,2022.1.1,60.20212261769591,
neutral,neutral,1,k,k,,,,,,,,,0,7,7,1,,,,,,,,,main,2,2,1,neutral,neutral,k,k,1,0.7320946999825537,198.86294769996312,199.86291200004052,199.86291200004052,None,198.86294769996312,None,198.86294769996312,None,198.86294769996312,None,200.59623195999302,None,200.59623195999302,None,200.59623195999302,None,,,,,,,,,,,,,,006,2022-05-06_19h18.11.697,Main,2022.1.1,60.20212261769591,
negative,negative,1,j,l,,,,,,,,,0,8,8,0,,,,,,,,,main,2,2,1,negative,negative,j,j,1,1.03145970008336,200.59701040002983,201.59623889997602,201.59623889997602,None,200.59701040002983,None,200.59701040002983,None,200.59701040002983,None,202.62954595999327,None,202.62954595999327,None,202.62954595999327,None,,,,,,,,,,,,,,006,2022-05-06_19h18.11.697,Main,2022.1.1,60.20212261769591,
neutral,negative,2,k,k,,,,,,,,,0,9,9,16,,,,,,,,,main,1,1,2,negative,neutral,k,k,1,0.6150564999552444,202.635269899969,203.64884529996198,203.63218940002844,None,202.635269899969,None,202.635269899969,None,202.635269899969,None,204.24649775994476,None,204.24649775994476,None,204.24649775994476,None,,,,,,,,,,,,,,006,2022-05-06_19h18.11.697,Main,2022.1.1,60.20212261769591,
positive,neutral,2,l,j,,,,,,,,,0,10,10,17,,,,,,,,,main,1,1,2,neutral,positive,l,l,1,0.680964200058952,204.25262909999583,205.26540939998813,205.248789699981,None,204.25262909999583,None,204.25262909999583,None,204.25262909999583,None,205.9297674599802,None,205.9297674599802,None,205.9297674599802,None,,,,,,,,,,,,,,006,2022-05-06_19h18.11.697,Main,2022.1.1,60.20212261769591,
positive,negative,2,l,j,,,,,,,,,0,11,11,14,,,,,,,,,main,2,2,2,negative,positive,l,l,1,0.6986057000467554,205.93501330004074,206.94903360004537,206.93206809996627,None,205.93501330004074,None,205.93501330004074,None,205.93501330004074,None,207.62974185997155,None,207.62974185997155,None,207.62974185997155,None,,,,,,,,,,,,,,006,2022-05-06_19h18.11.697,Main,2022.1.1,60.20212261769591,
negative,neutral,1,j,l,,,,,,,,,0,12,12,3,,,,,,,,,main,2,2,1,neutral,negative,j,j,1,0.6816219999454916,207.63538029999472,208.64866820001043,208.63208919996396,None,207.63538029999472,None,207.63538029999472,None,207.63538029999472,None,209.31314145994838,None,209.31314145994838,None,209.31314145994838,None,,,,,,,,,,,,,,006,2022-05-06_19h18.11.697,Main,2022.1.1,60.20212261769591,
negative,positive,1,j,l,,,,,,,,,0,13,13,6,,,,,,,,,main,2,2,1,positive,negative,j,j,1,0.6174442999763414,209.3189984000055,210.33192629995756,210.31527969997842,None,209.3189984000055,None,209.3189984000055,None,209.3189984000055,None,210.93197196000256,None,210.93197196000256,None,210.93197196000256,None,,,,,,,,,,,,,,006,2022-05-06_19h18.11.697,Main,2022.1.1,60.20212261769591,
negative,positive,2,j,l,,,,,,,,,0,14,14,15,,,,,,,,,main,2,2,2,positive,negative,j,j,1,0.6954514000099152,210.9351650000317,211.9459888000274,211.9293245000299,None,210.9351650000317,None,210.9351650000317,None,210.9351650000317,None,212.62925535999238,None,212.62925535999238,None,212.62925535999238,None,,,,,,,,,,,,,,006,2022-05-06_19h18.11.697,Main,2022.1.1,60.20212261769591,
neutral,positive,1,k,k,,,,,,,,,0,15,15,4,,,,,,,,,main,2,2,1,positive,neutral,k,k,1,0.5314158999826759,212.6304223999614,213.6460059999954,213.6293364999583,None,212.6304223999614,None,212.6304223999614,None,212.6304223999614,None,214.1629626599606,None,214.1629626599606,None,214.1629626599606,None,,,,,,,,,,,,,,006,2022-05-06_19h18.11.697,Main,2022.1.1,60.20212261769591,
positive,positive,2,l,j,,,,,,,,,0,16,16,11,,,,,,,,,main,1,1,2,positive,positive,l,l,1,0.7165272999554873,214.16690880001988,215.1819242000347,215.16531479998957,None,214.16690880001988,None,214.16690880001988,None,214.16690880001988,None,215.8810058600502,None,215.8810058600502,None,215.8810058600502,None,,,,,,,,,,,,,,006,2022-05-06_19h18.11.697,Main,2022.1.1,60.20212261769591,
positive,negative,1,l,j,,,,,,,,,0,17,17,5,,,,,,,,,main,2,2,1,negative,positive,l,l,1,0.8801339999772608,215.88640199997462,216.89852429996245,216.8818508000113,None,215.88640199997462,None,215.88640199997462,None,215.88640199997462,None,217.76282595994417,None,217.76282595994417,None,217.76282595994417,None,,,,,,,,,,,,,,006,2022-05-06_19h18.11.697,Main,2022.1.1,60.20212261769591,
neutral,negative,1,k,k,,,,,,,,,1,0,18,7,,,,,,,,,main,1,1,1,negative,neutral,k,k,1,0.8521684999577701,217.76600980001967,218.76516129996162,218.76516129996162,None,217.76600980001967,None,217.76600980001967,None,217.76600980001967,None,219.6127912600059,None,219.6127912600059,None,219.6127912600059,None,,,,,,,,,,,,,,006,2022-05-06_19h18.11.697,Main,2022.1.1,60.20212261769591,
positive,negative,1,l,j,,,,,,,,,1,1,19,5,,,,,,,,,main,1,1,1,negative,positive,l,l,1,0.9143078000051901,219.62004139996134,220.6316995000234,220.61516289995052,None,219.62004139996134,None,219.62004139996134,None,219.62004139996134,None,221.5316489599645,None,221.5316489599645,None,221.5316489599645,None,,,,,,,,,,,,,,006,2022-05-06_19h18.11.697,Main,2022.1.1,60.20212261769591,
neutral,positive,2,k,k,,,,,,,,,1,2,20,13,,,,,,,,,main,1,1,2,positive,neutral,k,k,1,0.8783440999686718,221.5355574999703,222.5457596000051,222.52909710002132,None,221.5355574999703,None,221.5355574999703,None,221.5355574999703,None,223.41236386005767,None,223.41236386005767,None,223.41236386005767,None,,,,,,,,,,,,,,006,2022-05-06_19h18.11.697,Main,2022.1.1,60.20212261769591,
positive,positive,1,l,j,,,,,,,,,1,3,21,2,,,,,,,,,main,1,1,1,positive,positive,l,l,1,0.7325291999150068,223.41241119999904,224.41242129995953,224.41242129995953,None,223.41241119999904,None,223.41241119999904,None,223.41241119999904,None,225.14604546001647,None,225.14604546001647,None,225.14604546001647,None,,,,,,,,,,,,,,006,2022-05-06_19h18.11.697,Main,2022.1.1,60.20212261769591,
negative,neutral,2,j,l,,,,,,,,,1,4,22,12,,,,,,,,,main,2,2,2,neutral,negative,j,j,1,0.8500339000020176,225.15000569995027,226.16496980004013,226.1483643000247,None,225.15000569995027,None,225.15000569995027,None,225.15000569995027,None,226.9981933600502,None,226.9981933600502,None,226.9981933600502,None,,,,,,,,,,,,,,006,2022-05-06_19h18.11.697,Main,2022.1.1,60.20212261769591,
neutral,negative,2,k,k,,,,,,,,,1,5,23,16,,,,,,,,,main,1,1,2,negative,neutral,k,k,1,1.0167571000056341,227.001722099958,228.01484299998265,227.99824810004793,None,227.001722099958,None,227.001722099958,None,227.001722099958,None,229.01258615998086,None,229.01258615998086,None,229.01258615998086,None,,,,,,,,,,,,,,006,2022-05-06_19h18.11.697,Main,2022.1.1,60.20212261769591,
neutral,positive,1,k,k,,,,,,,,,1,6,24,4,,,,,,,,,main,2,2,1,positive,neutral,k,k,1,0.6647039001109079,229.02746500005014,230.03150979999918,230.01489760004915,None,229.02746500005014,None,229.02746500005014,None,229.02746500005014,None,230.68079526000656,None,230.68079526000656,None,230.68079526000656,None,,,,,,,,,,,,,,006,2022-05-06_19h18.11.697,Main,2022.1.1,60.20212261769591,
positive,negative,2,l,j,,,,,,,,,1,7,25,14,,,,,,,,,main,1,1,2,negative,positive,l,l,1,0.6768926999066025,230.68724969995674,231.69820860004984,231.68161219998728,None,230.68724969995674,None,230.68724969995674,None,230.68724969995674,None,232.362533860025,None,232.362533860025,None,232.362533860025,None,,,,,,,,,,,,,,006,2022-05-06_19h18.11.697,Main,2022.1.1,60.20212261769591,
negative,positive,1,j,l,,,,,,,,,1,8,26,6,,,,,,,,,main,1,1,1,positive,negative,j,j,1,0.7646664999192581,232.3657173999818,233.37886579998303,233.36219450004864,None,232.3657173999818,None,232.3657173999818,None,232.3657173999818,None,234.12879495997913,None,234.12879495997913,None,234.12879495997913,None,,,,,,,,,,,,,,006,2022-05-06_19h18.11.697,Main,2022.1.1,60.20212261769591,
negative,negative,1,j,l,,,,,,,,,1,9,27,0,,,,,,,,,main,2,2,1,negative,negative,j,j,1,0.6974475000752136,234.1455204000231,235.14554139995016,235.12887679995038,None,234.1455204000231,None,234.1455204000231,None,234.1455204000231,None,235.82879146002233,None,235.82879146002233,None,235.82879146002233,None,,,,,,,,,,,,,,006,2022-05-06_19h18.11.697,Main,2022.1.1,60.20212261769591,
negative,negative,2,j,l,,,,,,,,,1,10,28,9,,,,,,,,,main,1,1,2,negative,negative,j,k,0,0.8483918999554589,235.832644399954,236.84799529996235,236.8147133999737,None,235.832644399954,None,235.832644399954,None,235.832644399954,None,237.68135690002237,None,237.68135690002237,None,237.68135690002237,None,,,,,,,,,,,,,,006,2022-05-06_19h18.11.697,Main,2022.1.1,60.20212261769591,
negative,neutral,1,j,l,,,,,,,,,1,11,29,3,,,,,,,,,main,2,2,1,neutral,negative,j,j,1,0.8844809000147507,238.6794896000065,239.68130759999622,239.66476379998494,None,238.6794896000065,None,238.6794896000065,None,238.6794896000065,None,240.56231216003653,None,240.56231216003653,None,240.56231216003653,None,,,,,,,,,,,,,,006,2022-05-06_19h18.11.697,Main,2022.1.1,60.20212261769591,
positive,neutral,2,l,j,,,,,,,,,1,12,30,17,,,,,,,,,main,1,1,2,neutral,positive,l,l,1,0.8148488999577239,240.56881670001894,241.5812992999563,241.56462159997318,None,240.56881670001894,None,240.56881670001894,None,240.56881670001894,None,242.3790705599822,None,242.3790705599822,None,242.3790705599822,None,,,,,,,,,,,,,,006,2022-05-06_19h18.11.697,Main,2022.1.1,60.20212261769591,
negative,positive,2,j,l,,,,,,,,,1,13,31,15,,,,,,,,,main,2,2,2,positive,negative,j,j,1,1.014511700021103,242.38492510002106,243.3953024999937,243.37864350003656,None,242.38492510002106,None,242.38492510002106,None,242.38492510002106,None,244.39524906000588,None,244.39524906000588,None,244.39524906000588,None,,,,,,,,,,,,,,006,2022-05-06_19h18.11.697,Main,2022.1.1,60.20212261769591,
neutral,neutral,2,k,k,,,,,,,,,1,14,32,10,,,,,,,,,main,1,1,2,neutral,neutral,k,k,1,0.7851283999625593,244.39529540005606,245.39798520004842,245.39798520004842,None,244.39529540005606,None,244.39529540005606,None,244.39529540005606,None,246.18114265997428,None,246.18114265997428,None,246.18114265997428,None,,,,,,,,,,,,,,006,2022-05-06_19h18.11.697,Main,2022.1.1,60.20212261769591,
positive,positive,2,l,j,,,,,,,,,1,15,33,11,,,,,,,,,main,1,1,2,positive,positive,l,l,1,0.6826913000550121,246.18516019999515,247.197880599997,247.18122779997066,None,246.18516019999515,None,246.18516019999515,None,246.18516019999515,None,247.86220775998663,None,247.86220775998663,None,247.86220775998663,None,,,,,,,,,,,,,,006,2022-05-06_19h18.11.697,Main,2022.1.1,60.20212261769591,
positive,neutral,1,l,j,,,,,,,,,1,16,34,8,,,,,,,,,main,2,2,1,neutral,positive,l,l,1,0.9131316000130028,247.8696029999992,248.8811713999603,248.86453110002913,None,247.8696029999992,None,247.8696029999992,None,247.8696029999992,None,249.7810632600449,None,249.7810632600449,None,249.7810632600449,None,,,,,,,,,,,,,,006,2022-05-06_19h18.11.697,Main,2022.1.1,60.20212261769591,
neutral,neutral,1,k,k,,,,,,,,,1,17,35,1,,,,,,,,,main,2,2,1,neutral,neutral,k,k,1,0.6802644999697804,249.78431070002262,250.79779820004478,250.78113799996208,None,249.78431070002262,None,249.78431070002262,None,249.78431070002262,None,251.46179905999452,None,251.46179905999452,None,251.46179905999452,None,,,,,,,,,,,,,,006,2022-05-06_19h18.11.697,Main,2022.1.1,60.20212261769591,
positive,positive,1,l,j,,,,,,,,,2,0,36,2,,,,,,,,,main,2,2,1,positive,positive,l,l,1,0.7810986000113189,251.46618650003802,252.48101370001677,252.46436870004982,None,251.46618650003802,None,251.46618650003802,None,251.46618650003802,None,253.24540035997052,None,253.24540035997052,None,253.24540035997052,None,,,,,,,,,,,,,,006,2022-05-06_19h18.11.697,Main,2022.1.1,60.20212261769591,
neutral,neutral,2,k,k,,,,,,,,,2,1,37,10,,,,,,,,,main,2,2,2,neutral,neutral,k,k,1,0.6646016000304371,253.24896260001697,254.26174530002754,254.24507429997902,None,253.24896260001697,None,253.24896260001697,None,253.24896260001697,None,254.91169255995192,None,254.91169255995192,None,254.91169255995192,None,,,,,,,,,,,,,,006,2022-05-06_19h18.11.697,Main,2022.1.1,60.20212261769591,
negative,positive,1,j,l,,,,,,,,,2,2,38,6,,,,,,,,,main,2,2,1,positive,negative,j,l,0,0.7490444999421015,254.9128147000447,255.92839410004672,255.91173309995793,None,254.9128147000447,None,254.9128147000447,None,254.9128147000447,None,256.664301999961,None,256.664301999961,None,256.664301999961,None,,,,,,,,,,,,,,006,2022-05-06_19h18.11.697,Main,2022.1.1,60.20212261769591,
neutral,neutral,1,k,k,,,,,,,,,2,3,39,1,,,,,,,,,main,2,2,1,neutral,neutral,k,k,1,0.7206372000509873,257.66260439995676,258.6642282999819,258.64764079998713,None,257.66260439995676,None,257.66260439995676,None,257.66260439995676,None,259.38081716001034,None,259.38081716001034,None,259.38081716001034,None,,,,,,,,,,,,,,006,2022-05-06_19h18.11.697,Main,2022.1.1,60.20212261769591,
neutral,positive,1,k,k,,,,,,,,,2,4,40,4,,,,,,,,,main,2,2,1,positive,neutral,k,k,1,0.678521899972111,259.38525529997423,260.3976026000455,260.3809565999545,None,259.38525529997423,None,259.38525529997423,None,259.38525529997423,None,261.0618891599588,None,261.0618891599588,None,261.0618891599588,None,,,,,,,,,,,,,,006,2022-05-06_19h18.11.697,Main,2022.1.1,60.20212261769591,
positive,positive,2,l,j,,,,,,,,,2,5,41,11,,,,,,,,,main,2,2,2,positive,positive,l,l,1,0.7316842000000179,261.0660060000373,262.0808262999635,262.06417589995544,None,261.0660060000373,None,261.0660060000373,None,261.0660060000373,None,262.7952015600167,None,262.7952015600167,None,262.7952015600167,None,,,,,,,,,,,,,,006,2022-05-06_19h18.11.697,Main,2022.1.1,60.20212261769591,
negative,negative,2,j,l,,,,,,,,,2,6,42,9,,,,,,,,,main,1,1,2,negative,negative,j,j,1,0.7477543000131845,262.81414639996365,263.8116975000594,263.7975895999698,None,262.81414639996365,None,262.81414639996365,None,262.81414639996365,None,264.54477846005466,None,264.54477846005466,None,264.54477846005466,None,,,,,,,,,,,,,,006,2022-05-06_19h18.11.697,Main,2022.1.1,60.20212261769591,
negative,negative,1,j,l,,,,,,,,,2,7,43,0,,,,,,,,,main,2,2,1,negative,negative,j,j,1,0.9476988000096753,264.54543040005956,265.54483480006456,265.54483480006456,None,264.54543040005956,None,264.54543040005956,None,264.54543040005956,None,266.494831459946,None,266.494831459946,None,266.494831459946,None,,,,,,,,,,,,,,006,2022-05-06_19h18.11.697,Main,2022.1.1,60.20212261769591,
positive,negative,2,l,j,,,,,,,,,2,8,44,14,,,,,,,,,main,2,2,2,negative,positive,l,l,1,0.9196198999416083,266.4985448999796,267.5140469999751,267.4807873000391,None,266.4985448999796,None,266.4985448999796,None,266.4985448999796,None,268.41175196005497,None,268.41175196005497,None,268.41175196005497,None,,,,,,,,,,,,,,006,2022-05-06_19h18.11.697,Main,2022.1.1,60.20212261769591,
neutral,negative,1,k,k,,,,,,,,,2,9,45,7,,,,,,,,,main,2,2,1,negative,neutral,k,k,1,0.7609836000483483,268.41931010002736,269.4306287999498,269.41413769999053,None,268.41931010002736,None,268.41931010002736,None,268.41931010002736,None,270.1783525600331,None,270.1783525600331,None,270.1783525600331,None,,,,,,,,,,,,,,006,2022-05-06_19h18.11.697,Main,2022.1.1,60.20212261769591,
negative,neutral,1,j,l,,,,,,,,,2,10,46,3,,,,,,,,,main,1,1,1,neutral,negative,j,l,0,0.885439999983646,270.1839713000227,271.1972263000207,271.1806180999847,None,270.1839713000227,None,270.1839713000227,None,270.1839713000227,None,272.0616905000061,None,272.0616905000061,None,272.0616905000061,None,,,,,,,,,,,,,,006,2022-05-06_19h18.11.697,Main,2022.1.1,60.20212261769591,
negative,positive,2,j,l,,,,,,,,,2,11,47,15,,,,,,,,,main,2,2,2,positive,negative,j,j,1,0.7841620999388397,273.0623823000351,274.0638676000526,274.0472752000205,None,273.0623823000351,None,273.0623823000351,None,273.0623823000351,None,274.8445846600225,None,274.8445846600225,None,274.8445846600225,None,,,,,,,,,,,,,,006,2022-05-06_19h18.11.697,Main,2022.1.1,60.20212261769591,
positive,neutral,1,l,j,,,,,,,,,2,12,48,8,,,,,,,,,main,2,2,1,neutral,positive,l,j,0,0.664669599966146,274.84487460006494,275.84460910002235,275.84460910002235,None,274.84487460006494,None,274.84487460006494,None,274.84487460006494,None,276.5112951999763,None,276.5112951999763,None,276.5112951999763,None,,,,,,,,,,,,,,006,2022-05-06_19h18.11.697,Main,2022.1.1,60.20212261769591,
positive,neutral,2,l,j,,,,,,,,,2,13,49,17,,,,,,,,,main,1,1,2,neutral,positive,l,l,1,1.2197242000838742,277.5112783999648,278.51127000001725,278.4946094000479,None,277.5112783999648,None,277.5112783999648,None,277.5112783999648,None,279.7281992599601,None,279.7281992599601,None,279.7281992599601,None,,,,,,,,,,,,,,006,2022-05-06_19h18.11.697,Main,2022.1.1,60.20212261769591,
neutral,positive,2,k,k,,,,,,,,,2,14,50,13,,,,,,,,,main,2,2,2,positive,neutral,k,k,1,0.731424400000833,279.73222560004797,280.7471142000286,280.7305025999667,None,279.73222560004797,None,279.73222560004797,None,279.73222560004797,None,281.4615784599446,None,281.4615784599446,None,281.4615784599446,None,,,,,,,,,,,,,,006,2022-05-06_19h18.11.697,Main,2022.1.1,60.20212261769591,
neutral,negative,2,k,k,,,,,,,,,2,15,51,16,,,,,,,,,main,1,1,2,negative,neutral,k,k,1,0.6333743999712169,281.46783300000243,282.48040810006205,282.4638077999698,None,281.46783300000243,None,281.46783300000243,None,281.46783300000243,None,283.09688795998227,None,283.09688795998227,None,283.09688795998227,None,,,,,,,,,,,,,,006,2022-05-06_19h18.11.697,Main,2022.1.1,60.20212261769591,
negative,neutral,2,j,l,,,,,,,,,2,16,52,12,,,,,,,,,main,2,2,2,neutral,negative,j,j,1,0.8463954000035301,283.100793599966,284.11374629999045,284.0970692000119,None,283.100793599966,None,283.100793599966,None,283.100793599966,None,284.944730159943,None,284.944730159943,None,284.944730159943,None,,,,,,,,,,,,,,006,2022-05-06_19h18.11.697,Main,2022.1.1,60.20212261769591,
positive,negative,1,l,j,,,,,,,,,2,17,53,5,,,,,,,,,main,1,1,1,negative,positive,l,l,1,0.7813959999475628,284.95070519996807,285.9636498000473,285.94703759998083,None,284.95070519996807,None,284.95070519996807,None,284.95070519996807,None,286.7276651599677,None,286.7276651599677,None,286.7276651599677,None,,,,,,,,,,,,,,006,2022-05-06_19h18.11.697,Main,2022.1.1,60.20212261769591,
neutral,neutral,1,k,k,,,,,,,,,3,0,54,1,,,,,,,,,main,2,2,1,neutral,neutral,k,k,1,0.7651548000285402,286.7277094000019,287.727685400052,287.727685400052,None,286.7277094000019,None,286.7277094000019,None,286.7277094000019,None,288.49432735994924,None,288.49432735994924,None,288.49432735994924,None,,,,,,,,,,,,,,006,2022-05-06_19h18.11.697,Main,2022.1.1,60.20212261769591,
positive,negative,2,l,j,,,,,,,,,3,1,55,14,,,,,,,,,main,2,2,2,negative,positive,l,l,1,0.7648823000490665,288.49467629997525,289.4943455000175,289.4943455000175,None,288.49467629997525,None,288.49467629997525,None,288.49467629997525,None,290.26095886004623,None,290.26095886004623,None,290.26095886004623,None,,,,,,,,,,,,,,006,2022-05-06_19h18.11.697,Main,2022.1.1,60.20212261769591,
neutral,positive,2,k,k,,,,,,,,,3,2,56,13,,,,,,,,,main,2,2,2,positive,neutral,k,k,1,0.6512421000516042,290.2652541999705,291.2802281000186,291.24692720000166,None,290.2652541999705,None,290.2652541999705,None,290.2652541999705,None,291.91363415995147,None,291.91363415995147,None,291.91363415995147,None,,,,,,,,,,,,,,006,2022-05-06_19h18.11.697,Main,2022.1.1,60.20212261769591,
positive,positive,2,l,j,,,,,,,,,3,3,57,11,,,,,,,,,main,1,1,2,positive,positive,l,l,1,0.7482790000503883,291.91703520005103,292.9301756999921,292.9135837999638,None,291.91703520005103,None,291.91703520005103,None,291.91703520005103,None,293.6635098600527,None,293.6635098600527,None,293.6635098600527,None,,,,,,,,,,,,,,006,2022-05-06_19h18.11.697,Main,2022.1.1,60.20212261769591,
neutral,positive,1,k,k,,,,,,,,,3,4,58,4,,,,,,,,,main,2,2,1,positive,neutral,k,k,1,0.7792039000196382,293.6729458000045,294.6800580000272,294.66346860001795,None,293.6729458000045,None,293.6729458000045,None,293.6729458000045,None,295.4445048599737,None,295.4445048599737,None,295.4445048599737,None,,,,,,,,,,,,,,006,2022-05-06_19h18.11.697,Main,2022.1.1,60.20212261769591,
positive,positive,1,l,j,,,,,,,,,3,5,59,2,,,,,,,,,main,2,2,1,positive,positive,l,l,1,0.8152154999552295,295.4501147000119,296.4634690999519,296.44683030003216,None,295.4501147000119,None,295.4501147000119,None,295.4501147000119,None,297.26110265997704,None,297.26110265997704,None,297.26110265997704,None,,,,,,,,,,,,,,006,2022-05-06_19h18.11.697,Main,2022.1.1,60.20212261769591,
neutral,negative,2,k,k,,,,,,,,,3,6,60,16,,,,,,,,,main,1,1,2,negative,neutral,k,k,1,0.7407896000659093,297.26467219996266,298.2776015000418,298.26342520001344,None,297.26467219996266,None,297.26467219996266,None,297.26467219996266,None,299.0037151599536,None,299.0037151599536,None,299.0037151599536,None,,,,,,,,,,,,,,006,2022-05-06_19h18.11.697,Main,2022.1.1,60.20212261769591,
negative,negative,1,j,l,,,,,,,,,3,7,61,0,,,,,,,,,main,1,1,1,negative,negative,j,j,1,0.7889573000138626,299.0196213000454,300.0274124999996,299.9940815999871,None,299.0196213000454,None,299.0196213000454,None,299.0196213000454,None,300.79402896005195,None,300.79402896005195,None,300.79402896005195,None,,,,,,,,,,,,,,006,2022-05-06_19h18.11.697,Main,2022.1.1,60.20212261769591,
positive,neutral,1,l,j,,,,,,,,,3,8,62,8,,,,,,,,,main,2,2,1,neutral,positive,l,l,1,0.8327799999387935,300.7940579999704,301.7940961000277,301.7940961000277,None,300.7940579999704,None,300.7940579999704,None,300.7940579999704,None,302.628562459955,None,302.628562459955,None,302.628562459955,None,,,,,,,,,,,,,,006,2022-05-06_19h18.11.697,Main,2022.1.1,60.20212261769591,
positive,negative,1,l,j,,,,,,,,,3,9,63,5,,,,,,,,,main,1,1,1,negative,positive,l,l,1,0.6162632000632584,302.64661289996,303.64658950001467,303.6300493000308,None,302.64661289996,None,302.64661289996,None,302.64661289996,None,304.2464585599955,None,304.2464585599955,None,304.2464585599955,None,,,,,,,,,,,,,,006,2022-05-06_19h18.11.697,Main,2022.1.1,60.20212261769591,
positive,neutral,2,l,j,,,,,,,,,3,10,64,17,,,,,,,,,main,2,2,2,neutral,positive,l,l,1,0.898457600036636,304.24969159998,305.26321150001604,305.24660169996787,None,304.24969159998,None,304.24969159998,None,304.24969159998,None,306.1465066600358,None,306.1465066600358,None,306.1465066600358,None,,,,,,,,,,,,,,006,2022-05-06_19h18.11.697,Main,2022.1.1,60.20212261769591,
neutral,negative,1,k,k,,,,,,,,,3,11,65,7,,,,,,,,,main,2,2,1,negative,neutral,k,k,1,0.8453196999616921,306.1506449000444,307.1632329999702,307.1466486999998,None,306.1506449000444,None,306.1506449000444,None,306.1506449000444,None,307.99430015997496,None,307.99430015997496,None,307.99430015997496,None,,,,,,,,,,,,,,006,2022-05-06_19h18.11.697,Main,2022.1.1,60.20212261769591,
negative,neutral,1,j,l,,,,,,,,,3,12,66,3,,,,,,,,,main,2,2,1,neutral,negative,j,j,1,1.1148837000364438,307.999841199955,309.0131911999779,308.99657750001643,None,307.999841199955,None,307.999841199955,None,307.999841199955,None,310.11082975997124,None,310.11082975997124,None,310.11082975997124,None,,,,,,,,,,,,,,006,2022-05-06_19h18.11.697,Main,2022.1.1,60.20212261769591,
neutral,neutral,2,k,k,,,,,,,,,3,13,67,10,,,,,,,,,main,2,2,2,neutral,neutral,k,k,1,0.7975406999466941,310.11723269999493,311.1271751000313,311.11050840001553,None,310.11723269999493,None,310.11723269999493,None,310.11723269999493,None,311.91045136004686,None,311.91045136004686,None,311.91045136004686,None,,,,,,,,,,,,,,006,2022-05-06_19h18.11.697,Main,2022.1.1,60.20212261769591,
negative,positive,2,j,l,,,,,,,,,3,14,68,15,,,,,,,,,main,1,1,2,positive,negative,j,j,1,1.0314247000496835,311.91051209997386,312.91050130000804,312.91050130000804,None,311.91051209997386,None,311.91051209997386,None,311.91051209997386,None,313.94378076004796,None,313.94378076004796,None,313.94378076004796,None,,,,,,,,,,,,,,006,2022-05-06_19h18.11.697,Main,2022.1.1,60.20212261769591,
negative,negative,2,j,l,,,,,,,,,3,15,69,9,,,,,,,,,main,2,2,2,negative,negative,j,j,1,0.7488993000006303,313.94416930002626,314.9464465000201,314.9464465000201,None,313.94416930002626,None,313.94416930002626,None,313.94416930002626,None,315.6942069600336,None,315.6942069600336,None,315.6942069600336,None,,,,,,,,,,,,,,006,2022-05-06_19h18.11.697,Main,2022.1.1,60.20212261769591,
negative,neutral,2,j,l,,,,,,,,,3,16,70,12,,,,,,,,,main,2,2,2,neutral,negative,j,j,1,0.6815140000544488,315.7000441000564,316.712943600025,316.6963565000333,None,315.7000441000564,None,315.7000441000564,None,315.7000441000564,None,317.37735615996644,None,317.37735615996644,None,317.37735615996644,None,,,,,,,,,,,,,,006,2022-05-06_19h18.11.697,Main,2022.1.1,60.20212261769591,
negative,positive,1,j,l,,,,,,,,,3,17,71,6,,,,,,,,,main,2,2,1,positive,negative,j,j,1,0.867168000084348,317.38328579999506,318.39624370005913,318.37970070005395,None,317.38328579999506,None,317.38328579999506,None,317.38328579999506,None,319.2462642600294,None,319.2462642600294,None,319.2462642600294,None,,,,,,,,,,,,,,006,2022-05-06_19h18.11.697,Main,2022.1.1,60.20212261769591,
negative,positive,1,j,l,,,,,,,,,4,0,72,6,,,,,,,,,main,1,1,1,positive,negative,j,j,1,0.629619799903594,319.2502997999545,320.262958599953,320.246357099968,None,319.2502997999545,None,319.2502997999545,None,319.2502997999545,None,320.8772631599568,None,320.8772631599568,None,320.8772631599568,None,,,,,,,,,,,,,,006,2022-05-06_19h18.11.697,Main,2022.1.1,60.20212261769591,
negative,neutral,1,j,l,,,,,,,,,4,1,73,3,,,,,,,,,main,1,1,1,neutral,negative,j,j,1,0.6328606000170112,320.8806462000357,321.8962035999866,321.879609500058,None,320.8806462000357,None,320.8806462000357,None,320.8806462000357,None,322.51055876002647,None,322.51055876002647,None,322.51055876002647,None,,,,,,,,,,,,,,006,2022-05-06_19h18.11.697,Main,2022.1.1,60.20212261769591,
positive,negative,1,l,j,,,,,,,,,4,2,74,5,,,,,,,,,main,1,1,1,negative,positive,l,l,1,0.7997244000434875,322.5168333000038,323.5269101000158,323.5102362000616,None,322.5168333000038,None,322.5168333000038,None,322.5168333000038,None,324.3102837599581,None,324.3102837599581,None,324.3102837599581,None,,,,,,,,,,,,,,006,2022-05-06_19h18.11.697,Main,2022.1.1,60.20212261769591,
negative,negative,2,j,l,,,,,,,,,4,3,75,9,,,,,,,,,main,1,1,2,negative,negative,j,l,0,0.5281917999964207,324.3132798000006,325.326892400044,325.31021889997646,None,324.3132798000006,None,324.3132798000006,None,324.3132798000006,None,325.8435854000272,None,325.8435854000272,None,325.8435854000272,None,,,,,,,,,,,,,,006,2022-05-06_19h18.11.697,Main,2022.1.1,60.20212261769591,
negative,positive,2,j,l,,,,,,,,,4,4,76,15,,,,,,,,,main,1,1,2,positive,negative,j,j,1,0.7893407999072224,326.84439440001734,327.84606320003513,327.8294740000274,None,326.84439440001734,None,326.84439440001734,None,326.84439440001734,None,328.6291559600504,None,328.6291559600504,None,328.6291559600504,None,,,,,,,,,,,,,,006,2022-05-06_19h18.11.697,Main,2022.1.1,60.20212261769591,
positive,neutral,1,l,j,,,,,,,,,4,5,77,8,,,,,,,,,main,2,2,1,neutral,positive,l,l,1,0.9952223000582308,328.63528399995994,329.6460806999821,329.6294827000238,None,328.63528399995994,None,328.63528399995994,None,328.63528399995994,None,330.6276559600374,None,330.6276559600374,None,330.6276559600374,None,,,,,,,,,,,,,,006,2022-05-06_19h18.11.697,Main,2022.1.1,60.20212261769591,
neutral,positive,2,k,k,,,,,,,,,4,6,78,13,,,,,,,,,main,2,2,2,positive,neutral,k,k,1,0.796273999963887,330.6339357000543,331.64599190000445,331.62937810004223,None,330.6339357000543,None,330.6339357000543,None,330.6339357000543,None,332.4269911600277,None,332.4269911600277,None,332.4269911600277,None,,,,,,,,,,,,,,006,2022-05-06_19h18.11.697,Main,2022.1.1,60.20212261769591,
negative,neutral,2,j,l,,,,,,,,,4,7,79,12,,,,,,,,,main,2,2,2,neutral,negative,j,j,1,1.0812216000631452,332.4304209999973,333.44304749998264,333.42088009999134,None,332.4304209999973,None,332.4304209999973,None,332.4304209999973,None,334.5099584599957,None,334.5099584599957,None,334.5099584599957,None,,,,,,,,,,,,,,006,2022-05-06_19h18.11.697,Main,2022.1.1,60.20212261769591,
neutral,negative,2,k,k,,,,,,,,,4,8,80,16,,,,,,,,,main,1,1,2,negative,neutral,k,k,1,0.7488215999910608,334.5100100999698,335.5100212000543,335.5100212000543,None,334.5100100999698,None,334.5100100999698,None,334.5100100999698,None,336.2603133600205,None,336.2603133600205,None,336.2603133600205,None,,,,,,,,,,,,,,006,2022-05-06_19h18.11.697,Main,2022.1.1,60.20212261769591,
positive,positive,2,l,j,,,,,,,,,4,9,81,11,,,,,,,,,main,1,1,2,positive,positive,l,l,1,0.7650196000467986,336.26621270005126,337.27927970001474,337.2625794999767,None,336.26621270005126,None,336.26621270005126,None,336.26621270005126,None,338.026919260039,None,338.026919260039,None,338.026919260039,None,,,,,,,,,,,,,,006,2022-05-06_19h18.11.697,Main,2022.1.1,60.20212261769591,
neutral,positive,1,k,k,,,,,,,,,4,10,82,4,,,,,,,,,main,2,2,1,positive,neutral,k,k,1,0.8318538999883458,338.03045329998713,339.04588780004997,339.0292882999638,None,338.03045329998713,None,338.03045329998713,None,338.03045329998713,None,339.86047086003236,None,339.86047086003236,None,339.86047086003236,None,,,,,,,,,,,,,,006,2022-05-06_19h18.11.697,Main,2022.1.1,60.20212261769591,
neutral,neutral,1,k,k,,,,,,,,,4,11,83,1,,,,,,,,,main,2,2,1,neutral,neutral,k,k,1,1.1312565999105573,339.86457990005147,340.8791273999959,340.86250160005875,None,339.86457990005147,None,339.86457990005147,None,339.86457990005147,None,341.99349135998636,None,341.99349135998636,None,341.99349135998636,None,,,,,,,,,,,,,,006,2022-05-06_19h18.11.697,Main,2022.1.1,60.20212261769591,
positive,negative,2,l,j,,,,,,,,,4,12,84,14,,,,,,,,,main,2,2,2,negative,positive,l,l,1,0.7652333000442013,341.9973150000442,343.0123997000046,342.9790982999839,None,341.9973150000442,None,341.9973150000442,None,341.9973150000442,None,343.7601147600217,None,343.7601147600217,None,343.7601147600217,None,,,,,,,,,,,,,,006,2022-05-06_19h18.11.697,Main,2022.1.1,60.20212261769591,
neutral,negative,1,k,k,,,,,,,,,4,13,85,7,,,,,,,,,main,1,1,1,negative,neutral,k,k,1,0.7637847999576479,343.76470589998644,344.7764322999865,344.75979320006445,None,343.76470589998644,None,343.76470589998644,None,343.76470589998644,None,345.5263694600435,None,345.5263694600435,None,345.5263694600435,None,,,,,,,,,,,,,,006,2022-05-06_19h18.11.697,Main,2022.1.1,60.20212261769591,
neutral,neutral,2,k,k,,,,,,,,,4,14,86,10,,,,,,,,,main,1,1,2,neutral,neutral,k,k,1,0.6320136999711394,345.5264072000282,346.52643730002455,346.52643730002455,None,345.5264072000282,None,345.5264072000282,None,345.5264072000282,None,347.160069160047,None,347.160069160047,None,347.160069160047,None,,,,,,,,,,,,,,006,2022-05-06_19h18.11.697,Main,2022.1.1,60.20212261769591,
positive,neutral,2,l,j,,,,,,,,,4,15,87,17,,,,,,,,,main,2,2,2,neutral,positive,l,l,1,0.901949799968861,347.163256800035,348.16238200000953,348.16238200000953,None,347.163256800035,None,347.163256800035,None,347.163256800035,None,349.0599386600079,None,349.0599386600079,None,349.0599386600079,None,,,,,,,,,,,,,,006,2022-05-06_19h18.11.697,Main,2022.1.1,60.20212261769591,
positive,positive,1,l,j,,,,,,,,,4,16,88,2,,,,,,,,,main,2,2,1,positive,positive,l,l,1,1.0947120999917388,349.0667972000083,350.0789858000353,350.0622949999524,None,349.0667972000083,None,349.0667972000083,None,349.0667972000083,None,351.15995335998014,None,351.15995335998014,None,351.15995335998014,None,,,,,,,,,,,,,,006,2022-05-06_19h18.11.697,Main,2022.1.1,60.20212261769591,
negative,negative,1,j,l,,,,,,,,,4,17,89,0,,,,,,,,,main,1,1,1,negative,negative,j,j,1,1.015653100097552,351.1662648000056,352.17888170003425,352.16226710006595,None,351.1662648000056,None,351.1662648000056,None,351.1662648000056,None,353.17626155994367,None,353.17626155994367,None,353.17626155994367,None,,,,,,,,,,,,,,006,2022-05-06_19h18.11.697,Main,2022.1.1,60.20212261769591,
neutral,neutral,2,k,k,,,,,,,,,5,0,90,10,,,,,,,,,main,2,2,2,neutral,neutral,k,k,1,0.8351115999976173,353.18277940002736,354.19554990006145,354.17894789995626,None,353.18277940002736,None,353.18277940002736,None,353.18277940002736,None,355.00984965998214,None,355.00984965998214,None,355.00984965998214,None,,,,,,,,,,,,,,006,2022-05-06_19h18.11.697,Main,2022.1.1,60.20212261769591,
negative,positive,1,j,l,,,,,,,,,5,1,91,6,,,,,,,,,main,2,2,1,positive,negative,j,j,1,1.0275038999971002,355.01704609999433,356.02620419999585,356.00953569996636,None,355.01704609999433,None,355.01704609999433,None,355.01704609999433,None,357.04280236002523,None,357.04280236002523,None,357.04280236002523,None,,,,,,,,,,,,,,006,2022-05-06_19h18.11.697,Main,2022.1.1,60.20212261769591,
positive,positive,2,l,j,,,,,,,,,5,2,92,11,,,,,,,,,main,2,2,2,positive,positive,l,l,1,0.7676072999602184,357.0428855000064,358.045477299951,358.045477299951,None,357.0428855000064,None,357.0428855000064,None,357.0428855000064,None,358.8120770599926,None,358.8120770599926,None,358.8120770599926,None,,,,,,,,,,,,,,006,2022-05-06_19h18.11.697,Main,2022.1.1,60.20212261769591,
negative,negative,2,j,l,,,,,,,,,5,3,93,9,,,,,,,,,main,2,2,2,negative,negative,j,j,1,1.0625032000243664,358.8150189999724,359.8287121000467,359.8121121999575,None,358.8150189999724,None,358.8150189999724,None,358.8150189999724,None,360.8764861599775,None,360.8764861599775,None,360.8764861599775,None,,,,,,,,,,,,,,006,2022-05-06_19h18.11.697,Main,2022.1.1,60.20212261769591,
negative,positive,2,j,l,,,,,,,,,5,4,94,15,,,,,,,,,main,2,2,2,positive,negative,j,j,1,0.7693849999923259,360.88190859998576,361.89529570005834,361.8787837000564,None,360.88190859998576,None,360.88190859998576,None,360.88190859998576,None,362.6453953599557,None,362.6453953599557,None,362.6453953599557,None,,,,,,,,,,,,,,006,2022-05-06_19h18.11.697,Main,2022.1.1,60.20212261769591,
positive,neutral,1,l,j,,,,,,,,,5,5,95,8,,,,,,,,,main,1,1,1,neutral,positive,l,l,1,1.310777400038205,362.6500728999963,363.66193639999256,363.64528349996544,None,362.6500728999963,None,362.6500728999963,None,362.6500728999963,None,364.9596097599715,None,364.9596097599715,None,364.9596097599715,None,,,,,,,,,,,,,,006,2022-05-06_19h18.11.697,Main,2022.1.1,60.20212261769591,
positive,negative,2,l,j,,,,,,,,,5,6,96,14,,,,,,,,,main,1,1,2,negative,positive,l,l,1,0.7979116999777034,364.96299679996446,365.9759874000447,365.95932110003196,None,364.96299679996446,None,364.96299679996446,None,364.96299679996446,None,366.7592588600237,None,366.7592588600237,None,366.7592588600237,None,,,,,,,,,,,,,,006,2022-05-06_19h18.11.697,Main,2022.1.1,60.20212261769591,
neutral,negative,2,k,k,,,,,,,,,5,7,97,16,,,,,,,,,main,1,1,2,negative,neutral,k,k,1,0.748958499985747,366.7596658000257,367.75933569995686,367.75933569995686,None,366.7596658000257,None,366.7596658000257,None,366.7596658000257,None,368.50973036000505,None,368.50973036000505,None,368.50973036000505,None,,,,,,,,,,,,,,006,2022-05-06_19h18.11.697,Main,2022.1.1,60.20212261769591,
positive,negative,1,l,j,,,,,,,,,5,8,98,5,,,,,,,,,main,1,1,1,negative,positive,l,l,1,0.8307285000337288,368.51613640005235,369.5284932999639,369.51190589996986,None,368.51613640005235,None,368.51613640005235,None,368.51613640005235,None,370.34289485996123,None,370.34289485996123,None,370.34289485996123,None,,,,,,,,,,,,,,006,2022-05-06_19h18.11.697,Main,2022.1.1,60.20212261769591,
positive,positive,1,l,j,,,,,,,,,5,9,99,2,,,,,,,,,main,2,2,1,positive,positive,l,l,1,0.8826322000240907,370.3465265999548,371.36179550003726,371.345204000012,None,370.3465265999548,None,370.3465265999548,None,370.3465265999548,None,372.22699655999895,None,372.22699655999895,None,372.22699655999895,None,,,,,,,,,,,,,,006,2022-05-06_19h18.11.697,Main,2022.1.1,60.20212261769591,
neutral,positive,1,k,k,,,,,,,,,5,10,100,4,,,,,,,,,main,2,2,1,positive,neutral,k,k,1,0.7633349999086931,372.23303420003504,373.24515209998935,373.22854909999296,None,372.23303420003504,None,372.23303420003504,None,372.23303420003504,None,373.9928074600175,None,373.9928074600175,None,373.9928074600175,None,,,,,,,,,,,,,,006,2022-05-06_19h18.11.697,Main,2022.1.1,60.20212261769591,
neutral,negative,1,k,k,,,,,,,,,5,11,101,7,,,,,,,,,main,2,2,1,negative,neutral,k,k,1,0.7483378000324592,373.99844160000794,375.0094470999902,374.99509550002404,None,373.99844160000794,None,373.99844160000794,None,373.99844160000794,None,375.7427231599577,None,375.7427231599577,None,375.7427231599577,None,,,,,,,,,,,,,,006,2022-05-06_19h18.11.697,Main,2022.1.1,60.20212261769591,
negative,neutral,2,j,l,,,,,,,,,5,12,102,12,,,,,,,,,main,2,2,2,neutral,negative,j,j,1,0.8481568000279367,375.7483346000081,376.7590872000437,376.74241710000206,None,375.7483346000081,None,375.7483346000081,None,375.7483346000081,None,377.5923545600381,None,377.5923545600381,None,377.5923545600381,None,,,,,,,,,,,,,,006,2022-05-06_19h18.11.697,Main,2022.1.1,60.20212261769591,
positive,neutral,2,l,j,,,,,,,,,5,13,103,17,,,,,,,,,main,1,1,2,neutral,positive,l,l,1,0.8653524999972433,377.5923701999709,378.5923953000456,378.5923953000456,None,377.5923701999709,None,377.5923701999709,None,377.5923701999709,None,379.4593714600196,None,379.4593714600196,None,379.4593714600196,None,,,,,,,,,,,,,,006,2022-05-06_19h18.11.697,Main,2022.1.1,60.20212261769591,
neutral,neutral,1,k,k,,,,,,,,,5,14,104,1,,,,,,,,,main,2,2,1,neutral,neutral,k,k,1,0.8316166000440717,379.46286390000023,380.4783357999986,380.4616680999752,None,379.46286390000023,None,379.46286390000023,None,379.46286390000023,None,381.2927036599722,None,381.2927036599722,None,381.2927036599722,None,,,,,,,,,,,,,,006,2022-05-06_19h18.11.697,Main,2022.1.1,60.20212261769591,
negative,negative,1,j,l,,,,,,,,,5,15,105,0,,,,,,,,,main,1,1,1,negative,negative,j,j,1,1.0190345998853445,381.2984635999892,382.311612599995,382.2949474999914,None,381.2984635999892,None,381.2984635999892,None,381.2984635999892,None,383.30925905995537,None,383.30925905995537,None,383.30925905995537,None,,,,,,,,,,,,,,006,2022-05-06_19h18.11.697,Main,2022.1.1,60.20212261769591,
neutral,positive,2,k,k,,,,,,,,,5,16,106,13,,,,,,,,,main,1,1,2,positive,neutral,k,k,1,0.9276010000612587,383.3162378000561,384.32822480006143,384.3116291000042,None,383.3162378000561,None,383.3162378000561,None,383.3162378000561,None,385.2425375600578,None,385.2425375600578,None,385.2425375600578,None,,,,,,,,,,,,,,006,2022-05-06_19h18.11.697,Main,2022.1.1,60.20212261769591,
negative,neutral,1,j,l,,,,,,,,,5,17,107,3,,,,,,,,,main,2,2,1,neutral,negative,j,j,1,1.0068615999771282,385.248237599968,386.26142910006456,386.2425524999853,None,385.248237599968,None,385.248237599968,None,385.248237599968,None,387.2510124599794,None,387.2510124599794,None,387.2510124599794,None,,,,,,,,,,,,,,006,2022-05-06_19h18.11.697,Main,2022.1.1,60.20212261769591,
neutral,negative,1,k,k,,,,,,,,,6,0,108,7,,,,,,,,,main,2,2,1,negative,neutral,k,k,1,0.8061244999989867,387.26615399995353,388.275507900049,388.24217089999,None,387.26615399995353,None,387.26615399995353,None,387.26615399995353,None,389.0587744599907,None,389.0587744599907,None,389.0587744599907,None,,,,,,,,,,,,,,006,2022-05-06_19h18.11.697,Main,2022.1.1,60.20212261769591,
negative,negative,2,j,l,,,,,,,,,6,1,109,9,,,,,,,,,main,2,2,2,negative,negative,j,j,1,0.9322160000447184,389.0588196000317,390.0614035000326,390.04479319998063,None,389.0588196000317,None,389.0588196000317,None,389.0588196000317,None,390.9924377599964,None,390.9924377599964,None,390.9924377599964,None,,,,,,,,,,,,,,006,2022-05-06_19h18.11.697,Main,2022.1.1,60.20212261769591,
positive,negative,2,l,j,,,,,,,,,6,2,110,14,,,,,,,,,main,1,1,2,negative,positive,l,l,1,0.8345230999402702,390.99841290002223,392.01136260002386,391.9947779000504,None,390.99841290002223,None,390.99841290002223,None,390.99841290002223,None,392.8278642599471,None,392.8278642599471,None,392.8278642599471,None,,,,,,,,,,,,,,006,2022-05-06_19h18.11.697,Main,2022.1.1,60.20212261769591,
positive,negative,1,l,j,,,,,,,,,6,3,111,5,,,,,,,,,main,1,1,1,negative,positive,l,l,1,0.7974550999933854,392.831888500019,393.84470659994986,393.8280660000164,None,392.831888500019,None,392.831888500019,None,392.831888500019,None,394.62786095996853,None,394.62786095996853,None,394.62786095996853,None,,,,,,,,,,,,,,006,2022-05-06_19h18.11.697,Main,2022.1.1,60.20212261769591,
negative,neutral,1,j,l,,,,,,,,,6,4,112,3,,,,,,,,,main,1,1,1,neutral,negative,j,j,1,0.8294338000705466,394.6307373000309,395.64459869998973,395.62798920006026,None,394.6307373000309,None,394.6307373000309,None,394.6307373000309,None,396.45897816005163,None,396.45897816005163,None,396.45897816005163,None,,,,,,,,,,,,,,006,2022-05-06_19h18.11.697,Main,2022.1.1,60.20212261769591,
negative,neutral,2,j,l,,,,,,,,,6,5,113,12,,,,,,,,,main,2,2,2,neutral,negative,j,j,1,0.8314062999561429,396.4757032999769,397.486859900062,397.4647217000602,None,396.4757032999769,None,396.4757032999769,None,396.4757032999769,None,398.29191205999814,None,398.29191205999814,None,398.29191205999814,None,,,,,,,,,,,,,,006,2022-05-06_19h18.11.697,Main,2022.1.1,60.20212261769591,
neutral,positive,2,k,k,,,,,,,,,6,6,114,13,,,,,,,,,main,2,2,2,positive,neutral,k,k,1,0.78125,398.29269230004866,399.291926600039,399.291926600039,None,398.29269230004866,None,398.29269230004866,None,398.29269230004866,None,400.07558186003007,None,400.07558186003007,None,400.07558186003007,None,,,,,,,,,,,,,,006,2022-05-06_19h18.11.697,Main,2022.1.1,60.20212261769591,
neutral,positive,1,k,k,,,,,,,,,6,7,115,4,,,,,,,,,main,1,1,1,positive,neutral,k,k,1,0.6984849000582471,400.08177289995365,401.0944405000191,401.077825400047,None,400.08177289995365,None,400.08177289995365,None,400.08177289995365,None,401.7755298600532,None,401.7755298600532,None,401.7755298600532,None,,,,,,,,,,,,,,006,2022-05-06_19h18.11.697,Main,2022.1.1,60.20212261769591,
negative,positive,2,j,l,,,,,,,,,6,8,116,15,,,,,,,,,main,2,2,2,positive,negative,j,j,1,0.84946850000415,401.7790024999995,402.79451350006275,402.77780669997446,None,401.7790024999995,None,401.7790024999995,None,401.7790024999995,None,403.6263021599734,None,403.6263021599734,None,403.6263021599734,None,,,,,,,,,,,,,,006,2022-05-06_19h18.11.697,Main,2022.1.1,60.20212261769591,
positive,neutral,1,l,j,,,,,,,,,6,9,117,8,,,,,,,,,main,1,1,1,neutral,positive,l,l,1,0.9846385999117047,403.63202330004424,404.64443260000553,404.62772920005955,None,403.63202330004424,None,403.63202330004424,None,403.63202330004424,None,405.6087776599452,None,405.6087776599452,None,405.6087776599452,None,,,,,,,,,,,,,,006,2022-05-06_19h18.11.697,Main,2022.1.1,60.20212261769591,
positive,neutral,2,l,j,,,,,,,,,6,10,118,17,,,,,,,,,main,2,2,2,neutral,positive,l,l,1,1.0125624999636784,405.61610750004184,406.6276694999542,406.61114319995977,None,405.61610750004184,None,405.61610750004184,None,405.61610750004184,None,407.6267128599575,None,407.6267128599575,None,407.6267128599575,None,,,,,,,,,,,,,,006,2022-05-06_19h18.11.697,Main,2022.1.1,60.20212261769591,
negative,positive,1,j,l,,,,,,,,,6,11,119,6,,,,,,,,,main,2,2,1,positive,negative,j,j,1,0.9298502000747249,407.6321779000573,408.6416911999695,408.62505499995314,None,407.6321779000573,None,407.6321779000573,None,407.6321779000573,None,409.55833466001786,None,409.55833466001786,None,409.55833466001786,None,,,,,,,,,,,,,,006,2022-05-06_19h18.11.697,Main,2022.1.1,60.20212261769591,
negative,negative,1,j,l,,,,,,,,,6,12,120,0,,,,,,,,,main,2,2,1,negative,negative,j,j,1,0.731958799995482,409.5583719999995,410.55841609998606,410.55841609998606,None,409.5583719999995,None,409.5583719999995,None,409.5583719999995,None,411.2920071600238,None,411.2920071600238,None,411.2920071600238,None,,,,,,,,,,,,,,006,2022-05-06_19h18.11.697,Main,2022.1.1,60.20212261769591,
neutral,neutral,2,k,k,,,,,,,,,6,13,121,10,,,,,,,,,main,2,2,2,neutral,neutral,k,k,1,0.7483266999479383,411.29561719996855,412.3109127000207,412.29431579995435,None,411.29561719996855,None,411.29561719996855,None,411.29561719996855,None,413.04192725999746,None,413.04192725999746,None,413.04192725999746,None,,,,,,,,,,,,,,006,2022-05-06_19h18.11.697,Main,2022.1.1,60.20212261769591,
neutral,neutral,1,k,k,,,,,,,,,6,14,122,1,,,,,,,,,main,1,1,1,neutral,neutral,k,k,1,0.7315176000120118,413.0456767999567,414.06085849995725,414.0443079000106,None,413.0456767999567,None,413.0456767999567,None,413.0456767999567,None,414.775211059954,None,414.775211059954,None,414.775211059954,None,,,,,,,,,,,,,,006,2022-05-06_19h18.11.697,Main,2022.1.1,60.20212261769591,
neutral,negative,2,k,k,,,,,,,,,6,15,123,16,,,,,,,,,main,2,2,2,negative,neutral,k,k,1,0.6146842000307515,414.7786331999814,415.79415670002345,415.7775331999874,None,414.7786331999814,None,414.7786331999814,None,414.7786331999814,None,416.39155655994546,None,416.39155655994546,None,416.39155655994546,None,,,,,,,,,,,,,,006,2022-05-06_19h18.11.697,Main,2022.1.1,60.20212261769591,
positive,positive,2,l,j,,,,,,,,,6,16,124,11,,,,,,,,,main,2,2,2,positive,positive,l,l,1,0.798911300022155,416.39764179999474,417.4108385000145,417.3942355000181,None,416.39764179999474,None,416.39764179999474,None,416.39764179999474,None,418.19184105994646,None,418.19184105994646,None,418.19184105994646,None,,,,,,,,,,,,,,006,2022-05-06_19h18.11.697,Main,2022.1.1,60.20212261769591,
positive,positive,1,l,j,,,,,,,,,6,17,125,2,,,,,,,,,main,1,1,1,positive,positive,l,l,1,0.8979177000001073,418.1953215999529,419.2081530999858,419.1914940000279,None,418.1953215999529,None,418.1953215999529,None,418.1953215999529,None,420.0914294599788,None,420.0914294599788,None,420.0914294599788,None,,,,,,,,,,,,,,006,2022-05-06_19h18.11.697,Main,2022.1.1,60.20212261769591,
neutral,negative,1,k,k,,,,,,,,,7,0,126,7,,,,,,,,,main,1,1,1,negative,neutral,k,k,1,1.0171147999353707,420.09259670006577,421.10817669995595,421.0915112000657,None,420.09259670006577,None,420.09259670006577,None,420.09259670006577,None,422.1107634600485,None,422.1107634600485,None,422.1107634600485,None,,,,,,,,,,,,,,006,2022-05-06_19h18.11.697,Main,2022.1.1,60.20212261769591,
negative,negative,1,j,l,,,,,,,,,7,1,127,0,,,,,,,,,main,1,1,1,negative,negative,j,j,1,0.6645324999699369,422.11394479998853,423.12728390004486,423.1106727999868,None,422.11394479998853,None,422.11394479998853,None,422.11394479998853,None,423.777275159955,None,423.777275159955,None,423.777275159955,None,,,,,,,,,,,,,,006,2022-05-06_19h18.11.697,Main,2022.1.1,60.20212261769591,
neutral,positive,1,k,k,,,,,,,,,7,2,128,4,,,,,,,,,main,1,1,1,positive,neutral,k,k,1,0.729545500013046,423.780922499951,424.793935899972,424.7773806999903,None,423.780922499951,None,423.780922499951,None,423.780922499951,None,425.508345260052,None,425.508345260052,None,425.508345260052,None,,,,,,,,,,,,,,006,2022-05-06_19h18.11.697,Main,2022.1.1,60.20212261769591,
neutral,negative,2,k,k,,,,,,,,,7,3,129,16,,,,,,,,,main,2,2,2,negative,neutral,k,k,1,0.814966700039804,425.5124774000142,426.52731260005385,426.51064959994983,None,425.5124774000142,None,425.5124774000142,None,425.5124774000142,None,427.324958560057,None,427.324958560057,None,427.324958560057,None,,,,,,,,,,,,,,006,2022-05-06_19h18.11.697,Main,2022.1.1,60.20212261769591,
negative,neutral,2,j,l,,,,,,,,,7,4,130,12,,,,,,,,,main,1,1,2,neutral,negative,j,j,1,0.8315904999617487,427.328341800021,428.343937800033,428.32728349999525,None,427.328341800021,None,427.328341800021,None,427.328341800021,None,429.15821135998704,None,429.15821135998704,None,429.15821135998704,None,,,,,,,,,,,,,,006,2022-05-06_19h18.11.697,Main,2022.1.1,60.20212261769591,
neutral,neutral,1,k,k,,,,,,,,,7,5,131,1,,,,,,,,,main,1,1,1,neutral,neutral,k,k,1,0.6980791999958456,429.1614065000322,430.1745918999659,430.15792819997296,None,429.1614065000322,None,429.1614065000322,None,429.1614065000322,None,430.8578651599819,None,430.8578651599819,None,430.8578651599819,None,,,,,,,,,,,,,,006,2022-05-06_19h18.11.697,Main,2022.1.1,60.20212261769591,
positive,neutral,1,l,j,,,,,,,,,7,6,132,8,,,,,,,,,main,2,2,1,neutral,positive,l,l,1,1.1354284000117332,430.8579143000534,431.85791869997047,431.85791869997047,None,430.8579143000534,None,430.8579143000534,None,430.8579143000534,None,432.9937963599805,None,432.9937963599805,None,432.9937963599805,None,,,,,,,,,,,,,,006,2022-05-06_19h18.11.697,Main,2022.1.1,60.20212261769591,
positive,negative,2,l,j,,,,,,,,,7,7,133,14,,,,,,,,,main,2,2,2,negative,positive,l,l,1,0.9137277000118047,432.99793700000737,434.01043510006275,433.9939067000523,None,432.99793700000737,None,432.99793700000737,None,432.99793700000737,None,434.9103444600478,None,434.9103444600478,None,434.9103444600478,None,,,,,,,,,,,,,,006,2022-05-06_19h18.11.697,Main,2022.1.1,60.20212261769591,
positive,positive,1,l,j,,,,,,,,,7,8,134,2,,,,,,,,,main,2,2,1,positive,positive,l,l,1,0.712940700002946,434.9139895000262,435.9270535999676,435.91040289995726,None,434.9139895000262,None,434.9139895000262,None,434.9139895000262,None,436.6247725599678,None,436.6247725599678,None,436.6247725599678,None,,,,,,,,,,,,,,006,2022-05-06_19h18.11.697,Main,2022.1.1,60.20212261769591,
positive,neutral,2,l,j,,,,,,,,,7,9,135,17,,,,,,,,,main,1,1,2,neutral,positive,l,l,1,0.8014732000883669,436.62862149998546,437.64374069997575,437.62708979996387,None,436.62862149998546,None,436.62862149998546,None,436.62862149998546,None,438.42779455997515,None,438.42779455997515,None,438.42779455997515,None,,,,,,,,,,,,,,006,2022-05-06_19h18.11.697,Main,2022.1.1,60.20212261769591,
negative,positive,2,j,l,,,,,,,,,7,10,136,15,,,,,,,,,main,1,1,2,positive,negative,j,j,1,0.8119227000279352,438.4315663999878,439.44369900005404,439.4270870999899,None,438.4315663999878,None,438.4315663999878,None,438.4315663999878,None,440.2413516599918,None,440.2413516599918,None,440.2413516599918,None,,,,,,,,,,,,,,006,2022-05-06_19h18.11.697,Main,2022.1.1,60.20212261769591,
neutral,neutral,2,k,k,,,,,,,,,7,11,137,10,,,,,,,,,main,1,1,2,neutral,neutral,k,k,1,0.7813574000028893,440.2446781999897,441.2576826000586,441.24101590004284,None,440.2446781999897,None,440.2446781999897,None,440.2446781999897,None,442.0242952599656,None,442.0242952599656,None,442.0242952599656,None,,,,,,,,,,,,,,006,2022-05-06_19h18.11.697,Main,2022.1.1,60.20212261769591,
positive,negative,1,l,j,,,,,,,,,7,12,138,5,,,,,,,,,main,2,2,1,negative,positive,l,l,1,1.0318252000724897,442.02433539996855,443.0243420000188,443.0243420000188,None,442.02433539996855,None,442.02433539996855,None,442.02433539996855,None,444.0576424599858,None,444.0576424599858,None,444.0576424599858,None,,,,,,,,,,,,,,006,2022-05-06_19h18.11.697,Main,2022.1.1,60.20212261769591,
negative,positive,1,j,l,,,,,,,,,7,13,139,6,,,,,,,,,main,2,2,1,positive,negative,j,j,1,0.8485669000074267,444.0607780000428,445.06030150002334,445.06030150002334,None,444.0607780000428,None,444.0607780000428,None,444.0607780000428,None,445.9079038599739,None,445.9079038599739,None,445.9079038599739,None,,,,,,,,,,,,,,006,2022-05-06_19h18.11.697,Main,2022.1.1,60.20212261769591,
positive,positive,2,l,j,,,,,,,,,7,14,140,11,,,,,,,,,main,1,1,2,positive,positive,l,l,1,0.7317082000663504,445.91139699995983,446.92676429997664,446.9101853000466,None,445.91139699995983,None,445.91139699995983,None,445.91139699995983,None,447.64119826001115,None,447.64119826001115,None,447.64119826001115,None,,,,,,,,,,,,,,006,2022-05-06_19h18.11.697,Main,2022.1.1,60.20212261769591,
neutral,positive,2,k,k,,,,,,,,,7,15,141,13,,,,,,,,,main,2,2,2,positive,neutral,k,k,1,0.998359699966386,447.6447576000355,448.66010049998295,448.64352829998825,None,447.6447576000355,None,447.6447576000355,None,447.6447576000355,None,449.6411456599599,None,449.6411456599599,None,449.6411456599599,None,,,,,,,,,,,,,,006,2022-05-06_19h18.11.697,Main,2022.1.1,60.20212261769591,
negative,negative,2,j,l,,,,,,,,,7,16,142,9,,,,,,,,,main,1,1,2,negative,negative,j,j,1,0.9814473000587896,449.6445615000557,450.660074000014,450.6434637999628,None,449.6445615000557,None,449.6445615000557,None,449.6445615000557,None,451.62433496001177,None,451.62433496001177,None,451.62433496001177,None,,,,,,,,,,,,,,006,2022-05-06_19h18.11.697,Main,2022.1.1,60.20212261769591,
negative,neutral,1,j,l,,,,,,,,,7,17,143,3,,,,,,,,,main,2,2,1,neutral,negative,j,j,1,0.8479348999680951,451.6305473999819,452.64047169999685,452.6237890999764,None,451.6305473999819,None,451.6305473999819,None,451.6305473999819,None,453.47404295997694,None,453.47404295997694,None,453.47404295997694,None,,,,,,,,,,,,,,006,2022-05-06_19h18.11.697,Main,2022.1.1,60.20212261769591,
negative,positive,2,j,l,,,,,,,,,8,0,144,15,,,,,,,,,main,2,2,2,positive,negative,j,j,1,0.7660878000315279,453.47438050003257,454.474092700053,454.474092700053,None,453.47438050003257,None,453.47438050003257,None,453.47438050003257,None,455.2406869600527,None,455.2406869600527,None,455.2406869600527,None,,,,,,,,,,,,,,006,2022-05-06_19h18.11.697,Main,2022.1.1,60.20212261769591,
neutral,positive,2,k,k,,,,,,,,,8,1,145,13,,,,,,,,,main,2,2,2,positive,neutral,k,k,1,0.7142384999897331,455.24229219998233,456.25741680001374,456.2407489999896,None,455.24229219998233,None,455.24229219998233,None,455.24229219998233,None,456.95734555996023,None,456.95734555996023,None,456.95734555996023,None,,,,,,,,,,,,,,006,2022-05-06_19h18.11.697,Main,2022.1.1,60.20212261769591,
neutral,neutral,1,k,k,,,,,,,,,8,2,146,1,,,,,,,,,main,2,2,1,neutral,neutral,k,k,1,0.680991500033997,456.976723400061,457.9766109000193,457.9600050000008,None,456.976723400061,None,456.976723400061,None,456.976723400061,None,458.6409807599848,None,458.6409807599848,None,458.6409807599848,None,,,,,,,,,,,,,,006,2022-05-06_19h18.11.697,Main,2022.1.1,60.20212261769591,
negative,neutral,1,j,l,,,,,,,,,8,3,147,3,,,,,,,,,main,2,2,1,neutral,negative,j,j,1,1.0150140000041574,458.64636060001794,459.6599018999841,459.64326779998373,None,458.64636060001794,None,458.64636060001794,None,458.64636060001794,None,460.6575954599539,None,460.6575954599539,None,460.6575954599539,None,,,,,,,,,,,,,,006,2022-05-06_19h18.11.697,Main,2022.1.1,60.20212261769591,
positive,negative,1,l,j,,,,,,,,,8,4,148,5,,,,,,,,,main,2,2,1,negative,positive,l,j,0,0.7977671000408009,460.66174550005235,461.67652450001333,461.6599061000161,None,460.66174550005235,None,460.66174550005235,None,460.66174550005235,None,462.4598026999738,None,462.4598026999738,None,462.4598026999738,None,,,,,,,,,,,,,,006,2022-05-06_19h18.11.697,Main,2022.1.1,60.20212261769591,
neutral,negative,1,k,k,,,,,,,,,8,5,149,7,,,,,,,,,main,1,1,1,negative,neutral,k,k,1,0.6676852999953553,463.45818630000576,464.45975969999563,464.4432407000568,None,463.45818630000576,None,463.45818630000576,None,463.45818630000576,None,465.12379245995544,None,465.12379245995544,None,465.12379245995544,None,,,,,,,,,,,,,,006,2022-05-06_19h18.11.697,Main,2022.1.1,60.20212261769591,
negative,negative,1,j,l,,,,,,,,,8,6,150,0,,,,,,,,,main,1,1,1,negative,negative,j,j,1,0.7978278000373393,465.1242007999681,466.12380659999326,466.12380659999326,None,465.1242007999681,None,465.1242007999681,None,465.1242007999681,None,466.92377916001715,None,466.92377916001715,None,466.92377916001715,None,,,,,,,,,,,,,,006,2022-05-06_19h18.11.697,Main,2022.1.1,60.20212261769591,
neutral,negative,2,k,k,,,,,,,,,8,7,151,16,,,,,,,,,main,2,2,2,negative,neutral,k,k,1,0.8482819999335334,466.92409190000035,467.923801500001,467.923801500001,None,466.92409190000035,None,466.92409190000035,None,466.92409190000035,None,468.7737730599474,None,468.7737730599474,None,468.7737730599474,None,,,,,,,,,,,,,,006,2022-05-06_19h18.11.697,Main,2022.1.1,60.20212261769591,
positive,positive,1,l,j,,,,,,,,,8,8,152,2,,,,,,,,,main,1,1,1,positive,positive,l,l,1,0.9984188999515027,468.77676120004617,469.7763490000507,469.7597444000421,None,468.77676120004617,None,468.77676120004617,None,468.77676120004617,None,470.7737625599839,None,470.7737625599839,None,470.7737625599839,None,,,,,,,,,,,,,,006,2022-05-06_19h18.11.697,Main,2022.1.1,60.20212261769591,
negative,positive,1,j,l,,,,,,,,,8,9,153,6,,,,,,,,,main,2,2,1,positive,negative,j,j,1,0.8323284999933094,470.7930012999568,471.7929601999931,471.77636100002564,None,470.7930012999568,None,470.7930012999568,None,470.7930012999568,None,472.6076746600447,None,472.6076746600447,None,472.6076746600447,None,,,,,,,,,,,,,,006,2022-05-06_19h18.11.697,Main,2022.1.1,60.20212261769591,
positive,positive,2,l,j,,,,,,,,,8,10,154,11,,,,,,,,,main,1,1,2,positive,positive,l,l,1,0.847912700031884,472.61391890002415,473.626231100061,473.60965740005486,None,472.61391890002415,None,472.61391890002415,None,472.61391890002415,None,474.45728335995227,None,474.45728335995227,None,474.45728335995227,None,,,,,,,,,,,,,,006,2022-05-06_19h18.11.697,Main,2022.1.1,60.20212261769591,
negative,negative,2,j,l,,,,,,,,,8,11,155,9,,,,,,,,,main,1,1,2,negative,negative,j,j,1,0.8484011999098584,474.46366799995303,475.47617659997195,475.4595345000271,None,474.46366799995303,None,474.46366799995303,None,474.46366799995303,None,476.30724125995766,None,476.30724125995766,None,476.30724125995766,None,,,,,,,,,,,,,,006,2022-05-06_19h18.11.697,Main,2022.1.1,60.20212261769591,
neutral,positive,1,k,k,,,,,,,,,8,12,156,4,,,,,,,,,main,1,1,1,positive,neutral,k,k,1,0.831242399988696,476.31292289996054,477.3235371999908,477.3068647000473,None,476.31292289996054,None,476.31292289996054,None,476.31292289996054,None,478.1401463600341,None,478.1401463600341,None,478.1401463600341,None,,,,,,,,,,,,,,006,2022-05-06_19h18.11.697,Main,2022.1.1,60.20212261769591,
positive,negative,2,l,j,,,,,,,,,8,13,157,14,,,,,,,,,main,1,1,2,negative,positive,l,l,1,0.8319188000168651,478.1401926999679,479.1402203000616,479.1402203000616,None,478.1401926999679,None,478.1401926999679,None,478.1401926999679,None,479.97350226005074,None,479.97350226005074,None,479.97350226005074,None,,,,,,,,,,,,,,006,2022-05-06_19h18.11.697,Main,2022.1.1,60.20212261769591,
positive,neutral,1,l,j,,,,,,,,,8,14,158,8,,,,,,,,,main,2,2,1,neutral,positive,l,l,1,0.8343032000120729,479.9761217000196,480.9902052000398,480.97354789997917,None,479.9761217000196,None,479.9761217000196,None,479.9761217000196,None,481.809420960024,None,481.809420960024,None,481.809420960024,None,,,,,,,,,,,,,,006,2022-05-06_19h18.11.697,Main,2022.1.1,60.20212261769591,
negative,neutral,2,j,l,,,,,,,,,8,15,159,12,,,,,,,,,main,1,1,2,neutral,negative,j,j,1,0.7813954000594094,481.812393900007,482.82606700004544,482.8094516999554,None,481.812393900007,None,481.812393900007,None,481.812393900007,None,483.5927074600477,None,483.5927074600477,None,483.5927074600477,None,,,,,,,,,,,,,,006,2022-05-06_19h18.11.697,Main,2022.1.1,60.20212261769591,
neutral,neutral,2,k,k,,,,,,,,,8,16,160,10,,,,,,,,,main,2,2,2,neutral,neutral,k,k,1,0.7808207999914885,483.59614439995494,484.6092634999659,484.5926467999816,None,483.59614439995494,None,483.59614439995494,None,483.59614439995494,None,485.37368765997235,None,485.37368765997235,None,485.37368765997235,None,,,,,,,,,,,,,,006,2022-05-06_19h18.11.697,Main,2022.1.1,60.20212261769591,
positive,neutral,2,l,j,,,,,,,,,8,17,161,17,,,,,,,,,main,2,2,2,neutral,positive,l,l,1,0.8306808000197634,485.3780356000643,486.3926894000033,486.37609150004573,None,485.3780356000643,None,485.3780356000643,None,485.3780356000643,None,487.2069774599513,None,487.2069774599513,None,487.2069774599513,None,,,,,,,,,,,,,,006,2022-05-06_19h18.11.697,Main,2022.1.1,60.20212261769591,
positive,negative,1,l,j,,,,,,,,,9,0,162,5,,,,,,,,,main,2,2,1,negative,positive,l,l,1,0.8313994000200182,487.2129342999542,488.225920900004,488.20926809997763,None,487.2129342999542,None,487.2129342999542,None,487.2129342999542,None,489.0402875599684,None,489.0402875599684,None,489.0402875599684,None,,,,,,,,,,,,,,006,2022-05-06_19h18.11.697,Main,2022.1.1,60.20212261769591,
negative,neutral,2,j,l,,,,,,,,,9,1,163,12,,,,,,,,,main,2,2,2,neutral,negative,j,j,1,0.9148806999437511,489.04433159995824,490.0566210000543,490.03995680005755,None,489.04433159995824,None,489.04433159995824,None,489.04433159995824,None,490.9565542599885,None,490.9565542599885,None,490.9565542599885,None,,,,,,,,,,,,,,006,2022-05-06_19h18.11.697,Main,2022.1.1,60.20212261769591,
neutral,positive,2,k,k,,,,,,,,,9,2,164,13,,,,,,,,,main,2,2,2,positive,neutral,k,k,1,0.7818335000192747,490.95687770005316,491.9566347000655,491.9566347000655,None,490.95687770005316,None,490.95687770005316,None,490.95687770005316,None,492.74021126003936,None,492.74021126003936,None,492.74021126003936,None,,,,,,,,,,,,,,006,2022-05-06_19h18.11.697,Main,2022.1.1,60.20212261769591,
positive,negative,2,l,j,,,,,,,,,9,3,165,14,,,,,,,,,main,2,2,2,negative,positive,l,l,1,0.8152338000945747,492.744195300038,493.7591218999587,493.742592100054,None,492.744195300038,None,492.744195300038,None,492.744195300038,None,494.55682755995076,None,494.55682755995076,None,494.55682755995076,None,,,,,,,,,,,,,,006,2022-05-06_19h18.11.697,Main,2022.1.1,60.20212261769591,
positive,positive,2,l,j,,,,,,,,,9,4,166,11,,,,,,,,,main,1,1,2,positive,positive,l,l,1,0.7983430000022054,494.56084629998077,495.5757898000302,495.5592057000613,None,494.56084629998077,None,494.56084629998077,None,494.56084629998077,None,496.35678796004504,None,496.35678796004504,None,496.35678796004504,None,,,,,,,,,,,,,,006,2022-05-06_19h18.11.697,Main,2022.1.1,60.20212261769591,
neutral,neutral,1,k,k,,,,,,,,,9,5,167,1,,,,,,,,,main,1,1,1,neutral,neutral,k,k,1,0.6814694000640884,496.3602003999986,497.3756545999786,497.3590505999746,None,496.3602003999986,None,496.3602003999986,None,496.3602003999986,None,498.0400824600365,None,498.0400824600365,None,498.0400824600365,None,,,,,,,,,,,,,,006,2022-05-06_19h18.11.697,Main,2022.1.1,60.20212261769591,
neutral,neutral,2,k,k,,,,,,,,,9,6,168,10,,,,,,,,,main,1,1,2,neutral,neutral,k,k,1,0.690016100066714,498.0435431000078,499.0590375000611,499.04241049999837,None,498.0435431000078,None,498.0435431000078,None,498.0435431000078,None,499.73050565994345,None,499.73050565994345,None,499.73050565994345,None,,,,,,,,,,,,,,006,2022-05-06_19h18.11.697,Main,2022.1.1,60.20212261769591,
neutral,negative,2,k,k,,,,,,,,,9,7,169,16,,,,,,,,,main,1,1,2,negative,neutral,k,k,1,0.6398661000421271,499.74732720002066,500.75639460003003,500.7230572999688,None,499.74732720002066,None,499.74732720002066,None,499.74732720002066,None,501.3729685599683,None,501.3729685599683,None,501.3729685599683,None,,,,,,,,,,,,,,006,2022-05-06_19h18.11.697,Main,2022.1.1,60.20212261769591,
negative,negative,2,j,l,,,,,,,,,9,8,170,9,,,,,,,,,main,1,1,2,negative,negative,j,j,1,0.8482558999676257,501.3730171000352,502.37311709998176,502.37311709998176,None,501.3730171000352,None,501.3730171000352,None,501.3730171000352,None,503.2229680600576,None,503.2229680600576,None,503.2229680600576,None,,,,,,,,,,,,,,006,2022-05-06_19h18.11.697,Main,2022.1.1,60.20212261769591,
negative,positive,2,j,l,,,,,,,,,9,9,171,15,,,,,,,,,main,2,2,2,positive,negative,j,j,1,0.6675500000128523,503.22618780005723,504.22564670001157,504.22564670001157,None,503.22618780005723,None,503.22618780005723,None,503.22618780005723,None,504.8921716599725,None,504.8921716599725,None,504.8921716599725,None,,,,,,,,,,,,,,006,2022-05-06_19h18.11.697,Main,2022.1.1,60.20212261769591,
positive,neutral,1,l,j,,,,,,,,,9,10,172,8,,,,,,,,,main,1,1,1,neutral,positive,l,l,1,0.729547500028275,504.8959738999838,505.9088675000239,505.8922666000435,None,504.8959738999838,None,504.8959738999838,None,504.8959738999838,None,506.6232681600377,None,506.6232681600377,None,506.6232681600377,None,,,,,,,,,,,,,,006,2022-05-06_19h18.11.697,Main,2022.1.1,60.20212261769591,
neutral,positive,1,k,k,,,,,,,,,9,11,173,4,,,,,,,,,main,2,2,1,positive,neutral,k,k,1,0.615158100030385,506.6276118999813,507.64215369999874,507.60888219997287,None,506.6276118999813,None,506.6276118999813,None,506.6276118999813,None,508.23985936003737,None,508.23985936003737,None,508.23985936003737,None,,,,,,,,,,,,,,006,2022-05-06_19h18.11.697,Main,2022.1.1,60.20212261769591,
positive,positive,1,l,j,,,,,,,,,9,12,174,2,,,,,,,,,main,1,1,1,positive,positive,l,l,1,0.9340193000389263,508.2432620000327,509.25883669999894,509.2422238000436,None,508.2432620000327,None,508.2432620000327,None,508.2432620000327,None,510.17543785995804,None,510.17543785995804,None,510.17543785995804,None,,,,,,,,,,,,,,006,2022-05-06_19h18.11.697,Main,2022.1.1,60.20212261769591,
negative,positive,1,j,l,,,,,,,,,9,13,175,6,,,,,,,,,main,2,2,1,positive,negative,j,j,1,0.8623166000470519,510.1786836000392,511.1898262000177,511.1754446000559,None,510.1786836000392,None,510.1786836000392,None,510.1786836000392,None,512.0394273600541,None,512.0394273600541,None,512.0394273600541,None,,,,,,,,,,,,,,006,2022-05-06_19h18.11.697,Main,2022.1.1,60.20212261769591,
neutral,negative,1,k,k,,,,,,,,,9,14,176,7,,,,,,,,,main,1,1,1,negative,neutral,k,k,1,0.7151378999697044,512.039472799981,513.0394485000288,513.0394485000288,None,512.039472799981,None,512.039472799981,None,512.039472799981,None,513.756116059958,None,513.756116059958,None,513.756116059958,None,,,,,,,,,,,,,,006,2022-05-06_19h18.11.697,Main,2022.1.1,60.20212261769591,
negative,neutral,1,j,l,,,,,,,,,9,15,177,3,,,,,,,,,main,2,2,1,neutral,negative,j,j,1,0.7340902000432834,513.7592923999764,514.7587355000433,514.7587355000433,None,513.7592923999764,None,513.7592923999764,None,513.7592923999764,None,515.4918751600198,None,515.4918751600198,None,515.4918751600198,None,,,,,,,,,,,,,,006,2022-05-06_19h18.11.697,Main,2022.1.1,60.20212261769591,
positive,neutral,2,l,j,,,,,,,,,9,16,178,17,,,,,,,,,main,1,1,2,neutral,positive,l,l,1,0.8165818999987096,515.4948397000553,516.5086591000436,516.4921034000581,None,515.4948397000553,None,515.4948397000553,None,515.4948397000553,None,517.3063402599655,None,517.3063402599655,None,517.3063402599655,None,,,,,,,,,,,,,,006,2022-05-06_19h18.11.697,Main,2022.1.1,60.20212261769591,
negative,negative,1,j,l,,,,,,,,,9,17,179,0,,,,,,,,,main,1,1,1,negative,negative,j,j,1,0.7269974000519142,517.3141114000464,518.3252395000309,518.3086233000504,None,517.3141114000464,None,517.3141114000464,None,517.3141114000464,None,519.0396419600584,None,519.0396419600584,None,519.0396419600584,None,,,,,,,,,,,,,,006,2022-05-06_19h18.11.697,Main,2022.1.1,60.20212261769591,
neutral,positive,2,k,k,,,,,,,,,10,0,180,13,,,,,,,,,main,1,1,2,positive,neutral,k,k,1,0.7140969999600202,519.0457546999678,520.0586071000434,520.0419607000658,None,519.0457546999678,None,519.0457546999678,None,519.0457546999678,None,520.7562693599612,None,520.7562693599612,None,520.7562693599612,None,,,,,,,,,,,,,,006,2022-05-06_19h18.11.697,Main,2022.1.1,60.20212261769591,
negative,positive,1,j,l,,,,,,,,,10,1,181,6,,,,,,,,,main,1,1,1,positive,negative,j,j,1,1.0320637000259012,520.760337100015,521.7751776999794,521.7586449000519,None,520.760337100015,None,520.760337100015,None,520.760337100015,None,522.7895572599955,None,522.7895572599955,None,522.7895572599955,None,,,,,,,,,,,,,,006,2022-05-06_19h18.11.697,Main,2022.1.1,60.20212261769591,
neutral,neutral,2,k,k,,,,,,,,,10,2,182,10,,,,,,,,,main,1,1,2,neutral,neutral,k,k,1,0.7477606000611559,522.7930387000088,523.8058840000303,523.7892107999651,None,522.7930387000088,None,522.7930387000088,None,522.7930387000088,None,524.5391688599484,None,524.5391688599484,None,524.5391688599484,None,,,,,,,,,,,,,,006,2022-05-06_19h18.11.697,Main,2022.1.1,60.20212261769591,
positive,negative,1,l,j,,,,,,,,,10,3,183,5,,,,,,,,,main,1,1,1,negative,positive,l,l,1,0.8487102999351919,524.5392032000236,525.5392345000291,525.5392345000291,None,524.5392032000236,None,524.5392032000236,None,524.5392032000236,None,526.3894701600075,None,526.3894701600075,None,526.3894701600075,None,,,,,,,,,,,,,,006,2022-05-06_19h18.11.697,Main,2022.1.1,60.20212261769591,
positive,neutral,1,l,j,,,,,,,,,10,4,184,8,,,,,,,,,main,2,2,1,neutral,positive,l,l,1,0.6985133000416681,526.3927804999985,527.4059472000226,527.3918000999838,None,526.3927804999985,None,526.3927804999985,None,526.3927804999985,None,528.0894468600163,None,528.0894468600163,None,528.0894468600163,None,,,,,,,,,,,,,,006,2022-05-06_19h18.11.697,Main,2022.1.1,60.20212261769591,
negative,negative,2,j,l,,,,,,,,,10,5,185,9,,,,,,,,,main,2,2,2,negative,negative,j,j,1,0.9982297000242397,528.0928056000266,529.1084090999793,529.0918165000621,None,528.0928056000266,None,528.0928056000266,None,528.0928056000266,None,530.0893995600054,None,530.0893995600054,None,530.0893995600054,None,,,,,,,,,,,,,,006,2022-05-06_19h18.11.697,Main,2022.1.1,60.20212261769591,
negative,neutral,1,j,l,,,,,,,,,10,6,186,3,,,,,,,,,main,2,2,1,neutral,negative,j,j,1,1.183853100053966,530.0952915999806,531.1083095000358,531.0917048000265,None,530.0952915999806,None,530.0952915999806,None,530.0952915999806,None,532.2749002600322,None,532.2749002600322,None,532.2749002600322,None,,,,,,,,,,,,,,006,2022-05-06_19h18.11.697,Main,2022.1.1,60.20212261769591,
positive,neutral,2,l,j,,,,,,,,,10,7,187,17,,,,,,,,,main,1,1,2,neutral,positive,l,l,1,0.7322631999850273,532.2776991999708,533.2915854000021,533.2749803999905,None,532.2776991999708,None,532.2776991999708,None,532.2776991999708,None,534.0082716599572,None,534.0082716599572,None,534.0082716599572,None,,,,,,,,,,,,,,006,2022-05-06_19h18.11.697,Main,2022.1.1,60.20212261769591,
positive,positive,1,l,j,,,,,,,,,10,8,188,2,,,,,,,,,main,1,1,1,positive,positive,l,l,1,0.8120609000325203,534.0119546999922,535.0223099000286,535.0056379999733,None,534.0119546999922,None,534.0119546999922,None,534.0119546999922,None,535.8222546599573,None,535.8222546599573,None,535.8222546599573,None,,,,,,,,,,,,,,006,2022-05-06_19h18.11.697,Main,2022.1.1,60.20212261769591,
negative,negative,1,j,l,,,,,,,,,10,9,189,0,,,,,,,,,main,1,1,1,negative,negative,j,j,1,0.8647741000168025,535.8223582999781,536.8222996999975,536.8222996999975,None,535.8223582999781,None,535.8223582999781,None,535.8223582999781,None,537.6889154600212,None,537.6889154600212,None,537.6889154600212,None,,,,,,,,,,,,,,006,2022-05-06_19h18.11.697,Main,2022.1.1,60.20212261769591,
neutral,positive,1,k,k,,,,,,,,,10,10,190,4,,,,,,,,,main,2,2,1,positive,neutral,k,k,1,0.7511286999797449,537.6923461999977,538.6915882000467,538.6915882000467,None,537.6923461999977,None,537.6923461999977,None,537.6923461999977,None,539.4414923599688,None,539.4414923599688,None,539.4414923599688,None,,,,,,,,,,,,,,006,2022-05-06_19h18.11.697,Main,2022.1.1,60.20212261769591,
negative,neutral,2,j,l,,,,,,,,,10,11,191,12,,,,,,,,,main,2,2,2,neutral,negative,j,j,1,0.7789562999969348,539.4446507999673,540.4581049999688,540.4415358999977,None,539.4446507999673,None,539.4446507999673,None,539.4446507999673,None,541.2221807599999,None,541.2221807599999,None,541.2221807599999,None,,,,,,,,,,,,,,006,2022-05-06_19h18.11.697,Main,2022.1.1,60.20212261769591,
positive,negative,2,l,j,,,,,,,,,10,12,192,14,,,,,,,,,main,2,2,2,negative,positive,l,l,1,0.7177164000459015,541.2255375999957,542.2247949000448,542.2247949000448,None,541.2255375999957,None,541.2255375999957,None,541.2255375999957,None,542.9414053600049,None,542.9414053600049,None,542.9414053600049,None,,,,,,,,,,,,,,006,2022-05-06_19h18.11.697,Main,2022.1.1,60.20212261769591,
negative,positive,2,j,l,,,,,,,,,10,13,193,15,,,,,,,,,main,2,2,2,positive,negative,j,j,1,0.7123449000064284,542.9445446999744,543.958013299969,543.9415073000127,None,542.9445446999744,None,542.9445446999744,None,542.9445446999744,None,544.6554407599615,None,544.6554407599615,None,544.6554407599615,None,,,,,,,,,,,,,,006,2022-05-06_19h18.11.697,Main,2022.1.1,60.20212261769591,
neutral,negative,1,k,k,,,,,,,,,10,14,194,7,,,,,,,,,main,1,1,1,negative,neutral,k,k,1,0.7342610000632703,544.6593201999785,545.674708000035,545.6581132999854,None,544.6593201999785,None,544.6593201999785,None,544.6593201999785,None,546.3912418599939,None,546.3912418599939,None,546.3912418599939,None,,,,,,,,,,,,,,006,2022-05-06_19h18.11.697,Main,2022.1.1,60.20212261769591,
positive,positive,2,l,j,,,,,,,,,10,15,195,11,,,,,,,,,main,2,2,2,positive,positive,l,l,1,0.7125924000283703,546.3943923000479,547.4053682000376,547.3886607000604,None,546.3943923000479,None,546.3943923000479,None,546.3943923000479,None,548.1053092599614,None,548.1053092599614,None,548.1053092599614,None,,,,,,,,,,,,,,006,2022-05-06_19h18.11.697,Main,2022.1.1,60.20212261769591,
neutral,neutral,1,k,k,,,,,,,,,10,16,196,1,,,,,,,,,main,2,2,1,neutral,neutral,k,k,1,0.7662940000882372,548.1053438000381,549.1053812999744,549.1053812999744,None,548.1053438000381,None,548.1053438000381,None,548.1053438000381,None,549.8733645599568,None,549.8733645599568,None,549.8733645599568,None,,,,,,,,,,,,,,006,2022-05-06_19h18.11.697,Main,2022.1.1,60.20212261769591,
neutral,negative,2,k,k,,,,,,,,,10,17,197,16,,,,,,,,,main,2,2,2,negative,neutral,k,k,1,0.7138951999368146,549.8796152999857,550.8912190999836,550.8746384000406,None,549.8796152999857,None,549.8796152999857,None,549.8796152999857,None,551.5889242599951,None,551.5889242599951,None,551.5889242599951,None,,,,,,,,,,,,,,006,2022-05-06_19h18.11.697,Main,2022.1.1,60.20212261769591,
neutral,neutral,1,k,k,,,,,,,,,11,0,198,1,,,,,,,,,main,1,1,1,neutral,neutral,k,k,1,0.7650650000432506,551.594526299974,552.6078104999615,552.5889377000276,None,551.594526299974,None,551.594526299974,None,551.594526299974,None,553.3555430599954,None,553.3555430599954,None,553.3555430599954,None,,,,,,,,,,,,,,006,2022-05-06_19h18.11.697,Main,2022.1.1,60.20212261769591,
neutral,positive,1,k,k,,,,,,,,,11,1,199,4,,,,,,,,,main,2,2,1,positive,neutral,k,k,1,0.7527335999766365,553.3614217999857,554.3745392999845,554.3579311000649,None,553.3614217999857,None,553.3614217999857,None,553.3614217999857,None,555.1055152600165,None,555.1055152600165,None,555.1055152600165,None,,,,,,,,,,,,,,006,2022-05-06_19h18.11.697,Main,2022.1.1,60.20212261769591,
positive,negative,1,l,j,,,,,,,,,11,2,200,5,,,,,,,,,main,2,2,1,negative,positive,l,l,1,0.8775347999762744,555.1132045000559,556.1226572999731,556.1055078000063,None,555.1132045000559,None,555.1132045000559,None,555.1132045000559,None,556.9888070600573,None,556.9888070600573,None,556.9888070600573,None,,,,,,,,,,,,,,006,2022-05-06_19h18.11.697,Main,2022.1.1,60.20212261769591,
negative,negative,1,j,l,,,,,,,,,11,3,201,0,,,,,,,,,main,2,2,1,negative,negative,j,j,1,0.8811525999335572,556.9923786000581,558.0051405000268,557.988471699995,None,556.9923786000581,None,556.9923786000581,None,556.9923786000581,None,558.8717608599691,None,558.8717608599691,None,558.8717608599691,None,,,,,,,,,,,,,,006,2022-05-06_19h18.11.697,Main,2022.1.1,60.20212261769591,
positive,positive,1,l,j,,,,,,,,,11,4,202,2,,,,,,,,,main,1,1,1,positive,positive,l,l,1,1.398722599959001,558.8717978000641,559.8744281999534,559.8744281999534,None,558.8717978000641,None,558.8717978000641,None,558.8717978000641,None,561.2720548600191,None,561.2720548600191,None,561.2720548600191,None,,,,,,,,,,,,,,006,2022-05-06_19h18.11.697,Main,2022.1.1,60.20212261769591,
positive,negative,2,l,j,,,,,,,,,11,5,203,14,,,,,,,,,main,2,2,2,negative,positive,l,l,1,0.7479950000997633,561.2757067000493,562.2910042000003,562.2744187000208,None,561.2757067000493,None,561.2757067000493,None,561.2757067000493,None,563.0217096599517,None,563.0217096599517,None,563.0217096599517,None,,,,,,,,,,,,,,006,2022-05-06_19h18.11.697,Main,2022.1.1,60.20212261769591,
positive,neutral,2,l,j,,,,,,,,,11,6,204,17,,,,,,,,,main,1,1,2,neutral,positive,l,l,1,0.6349902999354526,563.02511399996,564.0244024000131,564.0244024000131,None,563.02511399996,None,563.02511399996,None,563.02511399996,None,564.6575074599823,None,564.6575074599823,None,564.6575074599823,None,,,,,,,,,,,,,,006,2022-05-06_19h18.11.697,Main,2022.1.1,60.20212261769591,
negative,neutral,2,j,l,,,,,,,,,11,7,205,12,,,,,,,,,main,1,1,2,neutral,negative,j,j,1,0.8953137000789866,564.6622787000379,565.6741468999535,565.6575366000179,None,564.6622787000379,None,564.6622787000379,None,564.6622787000379,None,566.5552335600369,None,566.5552335600369,None,566.5552335600369,None,,,,,,,,,,,,,,006,2022-05-06_19h18.11.697,Main,2022.1.1,60.20212261769591,
negative,negative,2,j,l,,,,,,,,,11,8,206,9,,,,,,,,,main,1,1,2,negative,negative,j,j,1,0.9145795999793336,566.5605640000431,567.5741062000161,567.5575393000618,None,566.5605640000431,None,566.5605640000431,None,566.5605640000431,None,568.4715428600321,None,568.4715428600321,None,568.4715428600321,None,,,,,,,,,,,,,,006,2022-05-06_19h18.11.697,Main,2022.1.1,60.20212261769591,
negative,positive,2,j,l,,,,,,,,,11,9,207,15,,,,,,,,,main,2,2,2,positive,negative,j,j,1,0.8316722000017762,568.4715846000472,569.4715238000499,569.4715238000499,None,568.4715846000472,None,568.4715846000472,None,568.4715846000472,None,570.3048815600341,None,570.3048815600341,None,570.3048815600341,None,,,,,,,,,,,,,,006,2022-05-06_19h18.11.697,Main,2022.1.1,60.20212261769591,
positive,positive,2,l,j,,,,,,,,,11,10,208,11,,,,,,,,,main,2,2,2,positive,positive,l,l,1,0.7656309000449255,570.308711700025,571.3241068000207,571.2908377000131,None,570.308711700025,None,570.308711700025,None,570.308711700025,None,572.0718305599876,None,572.0718305599876,None,572.0718305599876,None,,,,,,,,,,,,,,006,2022-05-06_19h18.11.697,Main,2022.1.1,60.20212261769591,
neutral,negative,1,k,k,,,,,,,,,11,11,209,7,,,,,,,,,main,2,2,1,negative,neutral,k,k,1,0.7510742999147624,572.0761783999624,573.0907232000027,573.0741998000303,None,572.0761783999624,None,572.0761783999624,None,572.0761783999624,None,573.8239536599722,None,573.8239536599722,None,573.8239536599722,None,,,,,,,,,,,,,,006,2022-05-06_19h18.11.697,Main,2022.1.1,60.20212261769591,
neutral,neutral,2,k,k,,,,,,,,,11,12,210,10,,,,,,,,,main,2,2,2,neutral,neutral,k,k,1,0.6612375000258908,573.8284969000379,574.8407544000074,574.8240989999613,None,573.8284969000379,None,573.8284969000379,None,573.8284969000379,None,575.4883905600291,None,575.4883905600291,None,575.4883905600291,None,,,,,,,,,,,,,,006,2022-05-06_19h18.11.697,Main,2022.1.1,60.20212261769591,
positive,neutral,1,l,j,,,,,,,,,11,13,211,8,,,,,,,,,main,1,1,1,neutral,positive,l,l,1,0.865081200026907,575.4914844000014,576.4906654000515,576.4906654000515,None,575.4914844000014,None,575.4914844000014,None,575.4914844000014,None,577.3550263600191,None,577.3550263600191,None,577.3550263600191,None,,,,,,,,,,,,,,006,2022-05-06_19h18.11.697,Main,2022.1.1,60.20212261769591,
negative,positive,1,j,l,,,,,,,,,11,14,212,6,,,,,,,,,main,1,1,1,positive,negative,j,j,1,1.398050699965097,577.3585617999779,578.3710046999622,578.353761699982,None,577.3585617999779,None,577.3585617999779,None,577.3585617999779,None,579.7546158599434,None,579.7546158599434,None,579.7546158599434,None,,,,,,,,,,,,,,006,2022-05-06_19h18.11.697,Main,2022.1.1,60.20212261769591,
negative,neutral,1,j,l,,,,,,,,,11,15,213,3,,,,,,,,,main,2,2,1,neutral,negative,j,j,1,0.7836258000461385,579.7713395999745,580.7713636000408,580.7546946000075,None,579.7713395999745,None,579.7713395999745,None,579.7713395999745,None,581.5406338600442,None,581.5406338600442,None,581.5406338600442,None,,,,,,,,,,,,,,006,2022-05-06_19h18.11.697,Main,2022.1.1,60.20212261769591,
neutral,positive,2,k,k,,,,,,,,,11,16,214,13,,,,,,,,,main,1,1,2,positive,neutral,k,k,1,0.8648508000187576,581.5445468999678,582.5571965000127,582.5405312000075,None,581.5445468999678,None,581.5445468999678,None,581.5445468999678,None,583.4071095599793,None,583.4071095599793,None,583.4071095599793,None,,,,,,,,,,,,,,006,2022-05-06_19h18.11.697,Main,2022.1.1,60.20212261769591,
neutral,negative,2,k,k,,,,,,,,,11,17,215,16,,,,,,,,,main,2,2,2,negative,neutral,k,k,1,0.6127193999709561,583.4100711999927,584.4237692999886,584.4071382000111,None,583.4100711999927,None,583.4100711999927,None,583.4100711999927,None,585.0215281599667,None,585.0215281599667,None,585.0215281599667,None,,,,,,,,,,,,,,006,2022-05-06_19h18.11.697,Main,2022.1.1,60.20212261769591,
neutral,negative,2,k,k,,,,,,,,,12,0,216,16,,,,,,,,,main,2,2,2,negative,neutral,k,k,1,0.5672334000701085,585.0247627999634,586.023887700052,586.023887700052,None,585.0247627999634,None,585.0247627999634,None,585.0247627999634,None,586.5903077600524,None,586.5903077600524,None,586.5903077600524,None,,,,,,,,,,,,,,006,2022-05-06_19h18.11.697,Main,2022.1.1,60.20212261769591,
positive,positive,2,l,j,,,,,,,,,12,1,217,11,,,,,,,,,main,1,1,2,positive,positive,l,l,1,0.8326812000013888,586.5934446000028,587.6070616999641,587.5905016000615,None,586.5934446000028,None,586.5934446000028,None,586.5934446000028,None,588.4237063600449,None,588.4237063600449,None,588.4237063600449,None,,,,,,,,,,,,,,006,2022-05-06_19h18.11.697,Main,2022.1.1,60.20212261769591,
positive,neutral,2,l,j,,,,,,,,,12,2,218,17,,,,,,,,,main,2,2,2,neutral,positive,l,l,1,0.6780888000503182,588.4278601000551,589.4377767000115,589.4211100999964,None,588.4278601000551,None,588.4278601000551,None,588.4278601000551,None,590.1043914599577,None,590.1043914599577,None,590.1043914599577,None,,,,,,,,,,,,,,006,2022-05-06_19h18.11.697,Main,2022.1.1,60.20212261769591,
negative,neutral,2,j,l,,,,,,,,,12,3,219,12,,,,,,,,,main,2,2,2,neutral,negative,j,j,1,0.8817806999431923,590.1049652000656,591.104470500024,591.104470500024,None,590.1049652000656,None,590.1049652000656,None,590.1049652000656,None,591.9877499600407,None,591.9877499600407,None,591.9877499600407,None,,,,,,,,,,,,,,006,2022-05-06_19h18.11.697,Main,2022.1.1,60.20212261769591,
positive,negative,2,l,j,,,,,,,,,12,4,220,14,,,,,,,,,main,2,2,2,negative,positive,l,l,1,0.7842475000070408,591.9910982999718,592.9903566000285,592.9903566000285,None,591.9910982999718,None,591.9910982999718,None,591.9910982999718,None,593.7735688600224,None,593.7735688600224,None,593.7735688600224,None,,,,,,,,,,,,,,006,2022-05-06_19h18.11.697,Main,2022.1.1,60.20212261769591,
neutral,positive,2,k,k,,,,,,,,,12,5,221,13,,,,,,,,,main,1,1,2,positive,neutral,k,k,1,0.7647977999877185,593.7765135000227,594.7902691999916,594.7736752000637,None,593.7765135000227,None,593.7765135000227,None,593.7765135000227,None,595.5401098600123,None,595.5401098600123,None,595.5401098600123,None,,,,,,,,,,,,,,006,2022-05-06_19h18.11.697,Main,2022.1.1,60.20212261769591,
neutral,neutral,2,k,k,,,,,,,,,12,6,222,10,,,,,,,,,main,2,2,2,neutral,neutral,k,k,1,0.9629310000455007,595.5427997000515,596.556884199963,596.5402547999984,None,595.5427997000515,None,595.5427997000515,None,595.5427997000515,None,597.5045587599743,None,597.5045587599743,None,597.5045587599743,None,,,,,,,,,,,,,,006,2022-05-06_19h18.11.697,Main,2022.1.1,60.20212261769591,
neutral,positive,1,k,k,,,,,,,,,12,7,223,4,,,,,,,,,main,1,1,1,positive,neutral,k,k,1,0.8318973999703303,597.5076279999921,598.5068996000336,598.5068996000336,None,597.5076279999921,None,597.5076279999921,None,597.5076279999921,None,599.33788395999,None,599.33788395999,None,599.33788395999,None,,,,,,,,,,,,,,006,2022-05-06_19h18.11.697,Main,2022.1.1,60.20212261769591,
negative,neutral,1,j,l,,,,,,,,,12,8,224,3,,,,,,,,,main,2,2,1,neutral,negative,j,j,1,1.0476795999566093,599.3507095000241,600.3542148000561,600.3375479000388,None,599.3507095000241,None,599.3507095000241,None,599.3507095000241,None,601.3875436600065,None,601.3875436600065,None,601.3875436600065,None,,,,,,,,,,,,,,006,2022-05-06_19h18.11.697,Main,2022.1.1,60.20212261769591,
