target,distractor,set,ans1,ans2,rep_loop2.thisRepN,rep_loop2.thisTrialN,rep_loop2.thisN,rep_loop2.thisIndex,flanker_prac_loop.thisRepN,flanker_prac_loop.thisTrialN,flanker_prac_loop.thisN,flanker_prac_loop.thisIndex,flanker_main_loop.thisRepN,flanker_main_loop.thisTrialN,flanker_main_loop.thisN,flanker_main_loop.thisIndex,fl_inst_resp.keys,fl_inst_resp.rt,sound_1.started,sound_1.stopped,image_4.started,image_4.stopped,back_2.started,back_2.stopped,main_prac,fl_cold,fl_colt,fl_set,fl_dcond,fl_tcond,fl_ans,fl_res,fl_corr,fl_rt,fix_fl.started,fix_fl.stopped,targ.started,targ.stopped,j_button.started,j_button.stopped,k_button.started,k_button.stopped,l_button.started,l_button.stopped,j_button2.started,j_button2.stopped,k_button2.started,k_button2.stopped,l_button2.started,l_button2.stopped,mainback.started,mainback.stopped,key_resp.keys,key_resp.rt,mouse_6.x,mouse_6.y,mouse_6.leftButton,mouse_6.midButton,mouse_6.rightButton,mouse_6.started,mouse_6.stopped,text_2.started,text_2.stopped,id*,date,expName,psychopyVersion,frameRate,
,,,,,0,0,0,0,,,,,,,,,space,53.670316600007936,16.796221589983908,None,70.49186509998981,None,,,,,,,,,,,,,,,,,,,,,,,,,,,,,,,,,,,,,,,,,,007,2022-05-09_13h32.45.648,Main,2022.1.1,60.120324838481615,
negative,positive,1,j,l,,,,,0,0,0,6,,,,,,,,,,,74.491902400041,None,prac,1,1,1,positive,negative,l,l,1,1.9022463000146672,76.52940110000782,77.54202860000078,77.50867970008403,None,76.52940110000782,None,76.52940110000782,None,76.52940110000782,None,79.42816960008349,None,79.42816960008349,None,79.42816960008349,None,,,,,,,,,,,,,,007,2022-05-09_13h32.45.648,Main,2022.1.1,60.120324838481615,
neutral,negative,1,k,k,,,,,0,1,1,7,,,,,,,,,,,,,prac,1,1,1,negative,neutral,k,k,1,1.0500659000827,80.45516980008688,81.45861229998991,81.42809870000929,None,80.45516980008688,None,80.45516980008688,None,80.45516980008688,None,82.49208538999082,None,82.49208538999082,None,82.49208538999082,None,,,,,,,,,,,,,,007,2022-05-09_13h32.45.648,Main,2022.1.1,60.120324838481615,
positive,positive,2,l,j,,,,,0,2,2,11,,,,,,,,,,,,,prac,2,2,2,positive,positive,j,j,1,1.0147545000072569,82.5133565000724,83.52523630007636,83.49187660007738,None,82.5133565000724,None,82.5133565000724,None,82.5133565000724,None,84.50849769004853,None,84.50849769004853,None,84.50849769004853,None,,,,,,,,,,,,,,007,2022-05-09_13h32.45.648,Main,2022.1.1,60.120324838481615,
positive,neutral,1,l,j,,,,,0,3,3,8,,,,,,,,,,,,,prac,2,2,1,neutral,positive,j,j,1,0.9152449999237433,84.51756379997823,85.52518750005402,85.51134560001083,None,84.51756379997823,None,84.51756379997823,None,84.51756379997823,None,86.42514539005933,None,86.42514539005933,None,86.42514539005933,None,,,,,,,,,,,,,,007,2022-05-09_13h32.45.648,Main,2022.1.1,60.120324838481615,
positive,negative,1,l,j,,,,,0,4,4,5,,,,,,,,,,,,,prac,1,1,1,negative,positive,j,j,1,0.8054042999865487,86.43030650005676,87.44453940005042,87.42798829998355,None,86.43030650005676,None,86.43030650005676,None,86.43030650005676,None,88.22854239001171,None,88.22854239001171,None,88.22854239001171,None,,,,,,,,,,,,,,007,2022-05-09_13h32.45.648,Main,2022.1.1,60.120324838481615,
neutral,neutral,1,k,k,,,,,0,5,5,1,,,,,,,,,,,,,prac,2,2,1,neutral,neutral,k,k,1,0.7918749999953434,88.23418889997993,89.24452389997896,89.22539210005198,None,88.23418889997993,None,88.23418889997993,None,88.23418889997993,None,90.0250507900142,None,90.0250507900142,None,90.0250507900142,None,,,,,,,,,,,,,,007,2022-05-09_13h32.45.648,Main,2022.1.1,60.120324838481615,
positive,positive,1,l,j,,,,,0,6,6,2,,,,,,,,,,,,,prac,2,2,1,positive,positive,j,j,1,0.79919529997278,90.03104470006656,91.0417279000394,91.0278964000754,None,90.03104470006656,None,90.03104470006656,None,90.03104470006656,None,91.82523149003973,None,91.82523149003973,None,91.82523149003973,None,,,,,,,,,,,,,,007,2022-05-09_13h32.45.648,Main,2022.1.1,60.120324838481615,
neutral,neutral,2,k,k,,,,,0,7,7,10,,,,,,,,,,,,,prac,2,2,2,neutral,neutral,k,k,1,0.8653633000794798,91.83575610001571,92.8444592000451,92.8278660000069,None,91.83575610001571,None,91.83575610001571,None,91.83575610001571,None,93.6916397900437,None,93.6916397900437,None,93.6916397900437,None,,,,,,,,,,,,,,007,2022-05-09_13h32.45.648,Main,2022.1.1,60.120324838481615,
negative,positive,2,j,l,,,,,0,8,8,15,,,,,,,,,,,,,prac,2,2,2,positive,negative,l,l,1,1.2818931000074372,93.70152320002671,94.70859950000886,94.67499179998413,None,93.70152320002671,None,93.70152320002671,None,93.70152320002671,None,95.97492709007346,None,95.97492709007346,None,95.97492709007346,None,,,,,,,,,,,,,,007,2022-05-09_13h32.45.648,Main,2022.1.1,60.120324838481615,
negative,neutral,1,j,l,,,,,0,9,9,3,,,,,,,,,,,,,prac,1,1,1,neutral,negative,l,l,1,0.7830451000481844,95.98356680001598,96.99160389997996,96.97492080007214,None,95.98356680001598,None,95.98356680001598,None,95.98356680001598,None,97.75832178998971,None,97.75832178998971,None,97.75832178998971,None,,,,,,,,,,,,,,007,2022-05-09_13h32.45.648,Main,2022.1.1,60.120324838481615,
negative,negative,2,j,l,,,,,0,10,10,9,,,,,,,,,,,,,prac,1,1,2,negative,negative,l,l,1,0.7309791001025587,97.76970499998424,98.77766920009162,98.75826670008246,None,97.76970499998424,None,97.76970499998424,None,97.76970499998424,None,99.49152199000818,None,99.49152199000818,None,99.49152199000818,None,,,,,,,,,,,,,,007,2022-05-09_13h32.45.648,Main,2022.1.1,60.120324838481615,
negative,negative,1,j,l,,,,,0,11,11,0,,,,,,,,,,,,,prac,1,1,1,negative,negative,l,l,1,0.6316304000793025,99.50258139998186,100.50818960007746,100.49150880007073,None,99.50258139998186,None,99.50258139998186,None,99.50258139998186,None,101.12479739004047,None,101.12479739004047,None,101.12479739004047,None,,,,,,,,,,,,,,007,2022-05-09_13h32.45.648,Main,2022.1.1,60.120324838481615,
neutral,negative,2,k,k,,,,,0,12,12,16,,,,,,,,,,,,,prac,2,2,2,negative,neutral,k,k,1,1.0317216999828815,101.14129840000533,102.14148420002311,102.1248233000515,None,101.14129840000533,None,101.14129840000533,None,101.14129840000533,None,103.15811978998826,None,103.15811978998826,None,103.15811978998826,None,,,,,,,,,,,,,,007,2022-05-09_13h32.45.648,Main,2022.1.1,60.120324838481615,
neutral,positive,2,k,k,,,,,0,13,13,13,,,,,,,,,,,,,prac,1,1,2,positive,neutral,k,k,1,0.7144077999982983,103.17402030003723,104.17476930003613,104.1581025000196,None,103.17402030003723,None,103.17402030003723,None,103.17402030003723,None,104.87473529003327,None,104.87473529003327,None,104.87473529003327,None,,,,,,,,,,,,,,007,2022-05-09_13h32.45.648,Main,2022.1.1,60.120324838481615,
negative,neutral,2,j,l,,,,,0,14,14,12,,,,,,,,,,,,,prac,2,2,2,neutral,negative,l,l,1,0.8494428000412881,104.88060140004382,105.89139890007209,105.87473440007307,None,104.88060140004382,None,104.88060140004382,None,104.88060140004382,None,106.72469599005998,None,106.72469599005998,None,106.72469599005998,None,,,,,,,,,,,,,,007,2022-05-09_13h32.45.648,Main,2022.1.1,60.120324838481615,
neutral,positive,1,k,k,,,,,0,15,15,4,,,,,,,,,,,,,prac,2,2,1,positive,neutral,k,k,1,0.9151444000890478,106.72848809999414,107.74140250007622,107.7247191000497,None,106.72848809999414,None,106.72848809999414,None,106.72848809999414,None,108.64135769006097,None,108.64135769006097,None,108.64135769006097,None,,,,,,,,,,,,,,007,2022-05-09_13h32.45.648,Main,2022.1.1,60.120324838481615,
positive,neutral,2,l,j,,,,,0,16,16,17,,,,,,,,,,,,,prac,2,2,2,neutral,positive,j,j,1,0.9478765999665484,108.64523620007094,109.658016600064,109.64135260006879,None,108.64523620007094,None,108.64523620007094,None,108.64523620007094,None,110.59141299008624,None,110.59141299008624,None,110.59141299008624,None,,,,,,,,,,,,,,007,2022-05-09_13h32.45.648,Main,2022.1.1,60.120324838481615,
positive,negative,2,l,j,,,,,0,17,17,14,,,,,,,,,,,,,prac,1,1,2,negative,positive,j,j,1,0.7643627000506967,110.59731360001024,111.60842080006842,111.59136810002383,None,110.59731360001024,None,110.59731360001024,None,110.59731360001024,None,112.35793209002586,None,112.35793209002586,None,112.35793209002586,None,,,,,,,,,,,,,,007,2022-05-09_13h32.45.648,Main,2022.1.1,60.120324838481615,
positive,neutral,1,l,j,,,,,1,0,18,8,,,,,,,,,,,,,prac,2,2,1,neutral,positive,j,j,1,0.7487900999840349,112.36067960003857,113.35794040001929,113.35794040001929,None,112.36067960003857,None,112.36067960003857,None,112.36067960003857,None,114.10788319000275,None,114.10788319000275,None,114.10788319000275,None,,,,,,,,,,,,,,007,2022-05-09_13h32.45.648,Main,2022.1.1,60.120324838481615,
neutral,negative,1,k,k,,,,,1,1,19,7,,,,,,,,,,,,,prac,2,2,1,negative,neutral,k,k,1,0.8482299000024796,114.12130110000726,115.12454580003396,115.1078845000593,None,114.12130110000726,None,114.12130110000726,None,114.12130110000726,None,115.95784759005764,None,115.95784759005764,None,115.95784759005764,None,,,,,,,,,,,,,,007,2022-05-09_13h32.45.648,Main,2022.1.1,60.120324838481615,
positive,positive,1,l,j,,,,,1,2,20,2,,,,,,,,,,,,,prac,1,1,1,positive,positive,j,j,1,1.0819613999919966,115.96057730005123,116.97725800005719,116.95784639997873,None,115.96057730005123,None,115.96057730005123,None,115.96057730005123,None,118.04113709003431,None,118.04113709003431,None,118.04113709003431,None,,,,,,,,,,,,,,007,2022-05-09_13h32.45.648,Main,2022.1.1,60.120324838481615,
neutral,neutral,1,k,k,,,,,1,3,21,1,,,,,,,,,,,,,prac,1,1,1,neutral,neutral,k,k,1,0.7319522000616416,118.04706760006957,119.05814470001496,119.04115090006962,None,118.04706760006957,None,118.04706760006957,None,118.04706760006957,None,119.77442589002894,None,119.77442589002894,None,119.77442589002894,None,,,,,,,,,,,,,,007,2022-05-09_13h32.45.648,Main,2022.1.1,60.120324838481615,
negative,positive,1,j,l,,,,,1,4,22,6,,,,,,,,,,,,,prac,2,2,1,positive,negative,l,k,0,0.8310975000495091,119.78052330005448,120.79391560005024,120.77445010002702,None,119.78052330005448,None,119.78052330005448,None,119.78052330005448,None,121.60776729998179,None,121.60776729998179,None,121.60776729998179,None,,,,,,,,,,,,,,007,2022-05-09_13h32.45.648,Main,2022.1.1,60.120324838481615,
positive,negative,2,l,j,,,,,1,5,23,14,,,,,,,,,,,,,prac,2,2,2,negative,positive,j,j,1,1.6535272999899462,122.6077616000548,123.60772440000437,123.59105739998631,None,122.6077616000548,None,122.6077616000548,None,122.6077616000548,None,125.25767910003196,None,125.25767910003196,None,125.25767910003196,None,,,,,,,,,,,,,,007,2022-05-09_13h32.45.648,Main,2022.1.1,60.120324838481615,
neutral,positive,2,k,k,,,,,1,6,24,13,,,,,,,,,,,,,prac,2,2,2,positive,neutral,k,k,1,0.8535888999467716,126.25798490003217,127.25769390002824,127.24098190001678,None,126.25798490003217,None,126.25798490003217,None,126.25798490003217,None,128.10758129003224,None,128.10758129003224,None,128.10758129003224,None,,,,,,,,,,,,,,007,2022-05-09_13h32.45.648,Main,2022.1.1,60.120324838481615,
positive,neutral,2,l,j,,,,,1,7,25,17,,,,,,,,,,,,,prac,2,2,2,neutral,positive,j,l,0,1.0818480999441817,128.11060870008077,129.10761350009125,129.09385549998842,None,128.11060870008077,None,128.11060870008077,None,128.11060870008077,None,130.1908942000009,None,130.1908942000009,None,130.1908942000009,None,,,,,,,,,,,,,,007,2022-05-09_13h32.45.648,Main,2022.1.1,60.120324838481615,
neutral,neutral,2,k,k,,,,,1,8,26,10,,,,,,,,,,,,,prac,1,1,2,neutral,neutral,k,k,1,0.9702979000285268,131.20189120003488,132.2079653000692,132.17711659998167,None,131.20189120003488,None,131.20189120003488,None,131.20189120003488,None,133.1576029900112,None,133.1576029900112,None,133.1576029900112,None,,,,,,,,,,,,,,007,2022-05-09_13h32.45.648,Main,2022.1.1,60.120324838481615,
positive,negative,1,l,j,,,,,1,9,27,5,,,,,,,,,,,,,prac,2,2,1,negative,positive,j,j,1,0.7984734000638127,133.1630047999788,134.1742064000573,134.15747320000082,None,133.1630047999788,None,133.1630047999788,None,133.1630047999788,None,134.95749339003814,None,134.95749339003814,None,134.95749339003814,None,,,,,,,,,,,,,,007,2022-05-09_13h32.45.648,Main,2022.1.1,60.120324838481615,
negative,neutral,2,j,l,,,,,1,10,28,12,,,,,,,,,,,,,prac,1,1,2,neutral,negative,l,l,1,1.3485318999737501,134.96030480007175,135.9740996999899,135.9407675000839,None,134.96030480007175,None,134.96030480007175,None,134.96030480007175,None,137.30737829006975,None,137.30737829006975,None,137.30737829006975,None,,,,,,,,,,,,,,007,2022-05-09_13h32.45.648,Main,2022.1.1,60.120324838481615,
negative,negative,1,j,l,,,,,1,11,29,0,,,,,,,,,,,,,prac,2,2,1,negative,negative,l,l,1,0.8823474999517202,137.3098623000551,138.30738400004338,138.30738400004338,None,137.3098623000551,None,137.3098623000551,None,137.3098623000551,None,139.19067329001845,None,139.19067329001845,None,139.19067329001845,None,,,,,,,,,,,,,,007,2022-05-09_13h32.45.648,Main,2022.1.1,60.120324838481615,
neutral,negative,2,k,k,,,,,1,12,30,16,,,,,,,,,,,,,prac,1,1,2,negative,neutral,k,k,1,0.9319345999974757,139.19384980003815,140.2102260000538,140.1907186000608,None,139.19384980003815,None,139.19384980003815,None,139.19384980003815,None,141.12395789005095,None,141.12395789005095,None,141.12395789005095,None,,,,,,,,,,,,,,007,2022-05-09_13h32.45.648,Main,2022.1.1,60.120324838481615,
negative,negative,2,j,l,,,,,1,13,31,9,,,,,,,,,,,,,prac,2,2,2,negative,negative,l,l,1,1.397492100019008,141.13037390005775,142.14061920007225,142.12402840005234,None,141.13037390005775,None,141.13037390005775,None,141.13037390005775,None,143.5239977900288,None,143.5239977900288,None,143.5239977900288,None,,,,,,,,,,,,,,007,2022-05-09_13h32.45.648,Main,2022.1.1,60.120324838481615,
negative,positive,2,j,l,,,,,1,14,32,15,,,,,,,,,,,,,prac,2,2,2,positive,negative,l,l,1,0.8990942999953404,143.52957590005826,144.5405877000885,144.52391910005827,None,143.52957590005826,None,143.52957590005826,None,143.52957590005826,None,145.42397428998956,None,145.42397428998956,None,145.42397428998956,None,,,,,,,,,,,,,,007,2022-05-09_13h32.45.648,Main,2022.1.1,60.120324838481615,
positive,positive,2,l,j,,,,,1,15,33,11,,,,,,,,,,,,,prac,2,2,2,positive,positive,j,j,1,0.8482336000306532,145.42929980007466,146.44060510001145,146.42389139998704,None,145.42929980007466,None,145.42929980007466,None,145.42929980007466,None,147.2738562899991,None,147.2738562899991,None,147.2738562899991,None,,,,,,,,,,,,,,007,2022-05-09_13h32.45.648,Main,2022.1.1,60.120324838481615,
neutral,positive,1,k,k,,,,,1,16,34,4,,,,,,,,,,,,,prac,1,1,1,positive,neutral,k,k,1,0.8149122999748215,147.27978320000693,148.2905171000166,148.27385090000462,None,147.27978320000693,None,147.27978320000693,None,147.27978320000693,None,149.09061039002844,None,149.09061039002844,None,149.09061039002844,None,,,,,,,,,,,,,,007,2022-05-09_13h32.45.648,Main,2022.1.1,60.120324838481615,
negative,neutral,1,j,l,,,,,1,17,35,3,,,,,,,,,,,,,prac,1,1,1,neutral,negative,l,l,1,0.9813353999052197,149.09783650003374,150.10999590007123,150.09341670002323,None,149.09783650003374,None,149.09783650003374,None,149.09783650003374,None,151.07375299007398,None,151.07375299007398,None,151.07375299007398,None,,,,,,,,,,,,,,007,2022-05-09_13h32.45.648,Main,2022.1.1,60.120324838481615,
,,,,,,,,,,,,,,,,,,,,,,,,,,,,,,,,,,,,,,,,,,,,,,,,,,,151.07378790003713,None,space,7.822017900063656,,,,,,,,,,007,2022-05-09_13h32.45.648,Main,2022.1.1,60.120324838481615,
,,,,,,,,,,,,,,,,,,,,,,,,,,,,,,,,,,,,,,,,,,,,,,,,,,,,,,,0.041666668,-0.08796296,0,0,0,0.011200689943507314,None,,,007,2022-05-09_13h32.45.648,Main,2022.1.1,60.120324838481615,
neutral,neutral,2,k,k,,,,,,,,,0,0,0,10,,,,,,,158.92360179999378,None,main,2,2,2,neutral,neutral,k,k,1,1.288950699963607,160.93722429999616,161.9402199999895,161.92354730004445,None,160.93722429999616,None,160.93722429999616,None,160.93722429999616,None,163.2234933899832,None,163.2234933899832,None,163.2234933899832,None,,,,,,,,,,,,,,007,2022-05-09_13h32.45.648,Main,2022.1.1,60.120324838481615,
positive,negative,2,l,j,,,,,,,,,0,1,1,14,,,,,,,,,main,1,1,2,negative,positive,j,j,1,1.0637330999597907,163.22772189998068,164.24019809998572,164.2263946000021,None,163.22772189998068,None,163.22772189998068,None,163.22772189998068,None,165.2901469900622,None,165.2901469900622,None,165.2901469900622,None,,,,,,,,,,,,,,007,2022-05-09_13h32.45.648,Main,2022.1.1,60.120324838481615,
negative,positive,2,j,l,,,,,,,,,0,2,2,15,,,,,,,,,main,1,1,2,positive,negative,l,l,1,0.9650012999773026,165.29627799999435,166.3070986000821,166.29014619998634,None,165.29627799999435,None,165.29627799999435,None,165.29627799999435,None,167.25676308999536,None,167.25676308999536,None,167.25676308999536,None,,,,,,,,,,,,,,007,2022-05-09_13h32.45.648,Main,2022.1.1,60.120324838481615,
neutral,neutral,1,k,k,,,,,,,,,0,3,3,1,,,,,,,,,main,1,1,1,neutral,neutral,k,k,1,0.7541048000566661,167.26237730006687,168.27343170007225,168.2596733000828,None,167.26237730006687,None,167.26237730006687,None,167.26237730006687,None,169.0123656900483,None,169.0123656900483,None,169.0123656900483,None,,,,,,,,,,,,,,007,2022-05-09_13h32.45.648,Main,2022.1.1,60.120324838481615,
neutral,negative,2,k,k,,,,,,,,,0,4,4,16,,,,,,,,,main,1,1,2,negative,neutral,k,k,1,1.0427472000010312,169.01593009999488,170.0233788000187,170.00671069999225,None,169.01593009999488,None,169.01593009999488,None,169.01593009999488,None,171.05666889002313,None,171.05666889002313,None,171.05666889002313,None,,,,,,,,,,,,,,007,2022-05-09_13h32.45.648,Main,2022.1.1,60.120324838481615,
positive,positive,1,l,j,,,,,,,,,0,5,5,2,,,,,,,,,main,2,2,1,positive,positive,j,j,1,0.8652083999477327,171.05984010000248,172.0733515000902,172.0595565000549,None,171.05984010000248,None,171.05984010000248,None,171.05984010000248,None,172.92329889008542,None,172.92329889008542,None,172.92329889008542,None,,,,,,,,,,,,,,007,2022-05-09_13h32.45.648,Main,2022.1.1,60.120324838481615,
positive,negative,1,l,j,,,,,,,,,0,6,6,5,,,,,,,,,main,1,1,1,negative,positive,j,j,1,0.7695478999521583,172.9283918000292,173.93996900005732,173.92616060003638,None,172.9283918000292,None,172.9283918000292,None,172.9283918000292,None,174.69337849001167,None,174.69337849001167,None,174.69337849001167,None,,,,,,,,,,,,,,007,2022-05-09_13h32.45.648,Main,2022.1.1,60.120324838481615,
negative,neutral,1,j,l,,,,,,,,,0,7,7,3,,,,,,,,,main,2,2,1,neutral,negative,l,l,1,0.9443374000256881,174.69795820000581,175.70705770002678,175.6900138000492,None,174.69795820000581,None,174.69795820000581,None,174.69795820000581,None,176.64019729007268,None,176.64019729007268,None,176.64019729007268,None,,,,,,,,,,,,,,007,2022-05-09_13h32.45.648,Main,2022.1.1,60.120324838481615,
positive,neutral,1,l,j,,,,,,,,,0,8,8,8,,,,,,,,,main,1,1,1,neutral,positive,j,j,1,0.8812430000398308,176.64550270000473,177.65690800000448,177.63991390005685,None,176.64550270000473,None,176.64550270000473,None,176.64550270000473,None,178.52319999000756,None,178.52319999000756,None,178.52319999000756,None,,,,,,,,,,,,,,007,2022-05-09_13h32.45.648,Main,2022.1.1,60.120324838481615,
negative,negative,1,j,l,,,,,,,,,0,9,9,0,,,,,,,,,main,2,2,1,negative,negative,l,l,1,0.8993417000165209,178.52869750000536,179.53984770004172,179.52605380001478,None,178.52869750000536,None,178.52869750000536,None,178.52869750000536,None,180.42313579000765,None,180.42313579000765,None,180.42313579000765,None,,,,,,,,,,,,,,007,2022-05-09_13h32.45.648,Main,2022.1.1,60.120324838481615,
positive,positive,2,l,j,,,,,,,,,0,10,10,11,,,,,,,,,main,2,2,2,positive,positive,j,j,1,0.9307005000300705,180.4292019000277,181.43990390002728,181.42318050004542,None,180.4292019000277,None,180.4292019000277,None,180.4292019000277,None,182.35643799005774,None,182.35643799005774,None,182.35643799005774,None,,,,,,,,,,,,,,007,2022-05-09_13h32.45.648,Main,2022.1.1,60.120324838481615,
negative,neutral,2,j,l,,,,,,,,,0,11,11,12,,,,,,,,,main,1,1,2,neutral,negative,l,l,1,0.8652810000348836,182.3622475999873,183.37310600001365,183.3593018000247,None,182.3622475999873,None,182.3622475999873,None,182.3622475999873,None,184.2231194900465,None,184.2231194900465,None,184.2231194900465,None,,,,,,,,,,,,,,007,2022-05-09_13h32.45.648,Main,2022.1.1,60.120324838481615,
positive,neutral,2,l,j,,,,,,,,,0,12,12,17,,,,,,,,,main,2,2,2,neutral,positive,j,j,1,1.0980425000889227,184.22913930006325,185.23982670006808,185.22598770004697,None,184.22913930006325,None,184.22913930006325,None,184.22913930006325,None,186.32301669005537,None,186.32301669005537,None,186.32301669005537,None,,,,,,,,,,,,,,007,2022-05-09_13h32.45.648,Main,2022.1.1,60.120324838481615,
neutral,negative,1,k,k,,,,,,,,,0,13,13,7,,,,,,,,,main,2,2,1,negative,neutral,k,k,1,0.848647000035271,186.3290044000605,187.33970580005553,187.32306000008248,None,186.3290044000605,None,186.3290044000605,None,186.3290044000605,None,188.17298229000298,None,188.17298229000298,None,188.17298229000298,None,,,,,,,,,,,,,,007,2022-05-09_13h32.45.648,Main,2022.1.1,60.120324838481615,
neutral,positive,2,k,k,,,,,,,,,0,14,14,13,,,,,,,,,main,2,2,2,positive,neutral,k,j,0,0.8482990000629798,188.17843780003022,189.18964860006236,189.1729692000663,None,188.17843780003022,None,188.17843780003022,None,188.17843780003022,None,190.02296550001483,None,190.02296550001483,None,190.02296550001483,None,,,,,,,,,,,,,,007,2022-05-09_13h32.45.648,Main,2022.1.1,60.120324838481615,
negative,positive,1,j,l,,,,,,,,,0,15,15,6,,,,,,,,,main,2,2,1,positive,negative,l,l,1,1.0207549000624567,191.02300150005613,192.02294579998124,192.00625850004144,None,191.02300150005613,None,191.02300150005613,None,191.02300150005613,None,193.0396338899969,None,193.0396338899969,None,193.0396338899969,None,,,,,,,,,,,,,,007,2022-05-09_13h32.45.648,Main,2022.1.1,60.120324838481615,
neutral,positive,1,k,k,,,,,,,,,0,16,16,4,,,,,,,,,main,2,2,1,positive,neutral,k,k,1,0.9469154999824241,193.04569940001238,194.0562610999914,194.04244210000616,None,193.04569940001238,None,193.04569940001238,None,193.04569940001238,None,194.98950539001962,None,194.98950539001962,None,194.98950539001962,None,,,,,,,,,,,,,,007,2022-05-09_13h32.45.648,Main,2022.1.1,60.120324838481615,
negative,negative,2,j,l,,,,,,,,,0,17,17,9,,,,,,,,,main,1,1,2,negative,negative,l,l,1,1.3985029000323266,194.99557260004804,196.00622610002756,195.98951620003209,None,194.99557260004804,None,194.99557260004804,None,194.99557260004804,None,197.38946099005406,None,197.38946099005406,None,197.38946099005406,None,,,,,,,,,,,,,,007,2022-05-09_13h32.45.648,Main,2022.1.1,60.120324838481615,
negative,negative,1,j,l,,,,,,,,,1,0,18,0,,,,,,,,,main,2,2,1,negative,negative,l,l,1,0.8813065000576898,197.39778850006405,198.40612420008983,198.38947210006882,None,197.39778850006405,None,197.39778850006405,None,197.39778850006405,None,199.2727941900608,None,199.2727941900608,None,199.2727941900608,None,,,,,,,,,,,,,,007,2022-05-09_13h32.45.648,Main,2022.1.1,60.120324838481615,
neutral,neutral,1,k,k,,,,,,,,,1,1,19,1,,,,,,,,,main,1,1,1,neutral,neutral,k,k,1,1.1648126000072807,199.27856090001296,200.2894263000926,200.27281560003757,None,199.27856090001296,None,199.27856090001296,None,199.27856090001296,None,201.43937509002862,None,201.43937509002862,None,201.43937509002862,None,,,,,,,,,,,,,,007,2022-05-09_13h32.45.648,Main,2022.1.1,60.120324838481615,
negative,negative,2,j,l,,,,,,,,,1,2,20,9,,,,,,,,,main,1,1,2,negative,negative,l,j,0,1.031309499987401,201.4424029000802,202.45609140000306,202.43937480007298,None,201.4424029000802,None,201.4424029000802,None,201.4424029000802,None,203.472688900074,None,203.472688900074,None,203.472688900074,None,,,,,,,,,,,,,,007,2022-05-09_13h32.45.648,Main,2022.1.1,60.120324838481615,
positive,negative,2,l,j,,,,,,,,,1,3,21,14,,,,,,,,,main,2,2,2,negative,positive,j,j,1,0.919387900037691,204.47588270006236,205.48932689998765,205.45599639997818,None,204.47588270006236,None,204.47588270006236,None,204.47588270006236,None,206.38927049000048,None,206.38927049000048,None,206.38927049000048,None,,,,,,,,,,,,,,007,2022-05-09_13h32.45.648,Main,2022.1.1,60.120324838481615,
neutral,neutral,2,k,k,,,,,,,,,1,4,22,10,,,,,,,,,main,2,2,2,neutral,neutral,k,k,1,0.8317514000227675,206.3944886000827,207.40595410007518,207.38928080000915,None,206.3944886000827,None,206.3944886000827,None,206.3944886000827,None,208.2226361899753,None,208.2226361899753,None,208.2226361899753,None,,,,,,,,,,,,,,007,2022-05-09_13h32.45.648,Main,2022.1.1,60.120324838481615,
negative,neutral,1,j,l,,,,,,,,,1,5,23,3,,,,,,,,,main,2,2,1,neutral,negative,l,l,1,0.9650428999448195,208.2280955000315,209.2392476000823,209.22256610007025,None,208.2280955000315,None,208.2280955000315,None,208.2280955000315,None,210.1891740900115,None,210.1891740900115,None,210.1891740900115,None,,,,,,,,,,,,,,007,2022-05-09_13h32.45.648,Main,2022.1.1,60.120324838481615,
neutral,negative,1,k,k,,,,,,,,,1,6,24,7,,,,,,,,,main,2,2,1,negative,neutral,k,k,1,1.2650639999192208,210.19459490000736,211.2087028999813,211.19203740009107,None,210.19459490000736,None,210.19459490000736,None,210.19459490000736,None,212.45588539001764,None,212.45588539001764,None,212.45588539001764,None,,,,,,,,,,,,,,007,2022-05-09_13h32.45.648,Main,2022.1.1,60.120324838481615,
positive,positive,2,l,j,,,,,,,,,1,7,25,11,,,,,,,,,main,1,1,2,positive,positive,j,j,1,1.1992152999155223,212.46102260006592,213.47252090007532,213.4558041000273,None,212.46102260006592,None,212.46102260006592,None,212.46102260006592,None,214.65574908998096,None,214.65574908998096,None,214.65574908998096,None,,,,,,,,,,,,,,007,2022-05-09_13h32.45.648,Main,2022.1.1,60.120324838481615,
negative,positive,2,j,l,,,,,,,,,1,8,26,15,,,,,,,,,main,1,1,2,positive,negative,l,l,1,1.2644265999551862,214.6725112000713,215.67246150004212,215.65577150008176,None,214.6725112000713,None,214.6725112000713,None,214.6725112000713,None,216.92237899006577,None,216.92237899006577,None,216.92237899006577,None,,,,,,,,,,,,,,007,2022-05-09_13h32.45.648,Main,2022.1.1,60.120324838481615,
neutral,negative,2,k,k,,,,,,,,,1,9,27,16,,,,,,,,,main,2,2,2,negative,neutral,k,l,0,-0.23056899989023805,216.9275830000406,None,None,None,216.9275830000406,None,216.9275830000406,None,216.9275830000406,None,217.6959040000802,None,217.6959040000802,None,217.6959040000802,None,,,,,,,,,,,,,,007,2022-05-09_13h32.45.648,Main,2022.1.1,60.120324838481615,
positive,positive,1,l,j,,,,,,,,,1,10,28,2,,,,,,,,,main,2,2,1,positive,positive,j,j,1,1.4363732000347227,220.7059242000105,221.70570880000014,221.68898259999696,None,220.7059242000105,None,220.7059242000105,None,220.7059242000105,None,223.13890218999003,None,223.13890218999003,None,223.13890218999003,None,,,,,,,,,,,,,,007,2022-05-09_13h32.45.648,Main,2022.1.1,60.120324838481615,
neutral,positive,1,k,k,,,,,,,,,1,11,29,4,,,,,,,,,main,2,2,1,positive,neutral,k,k,1,0.7982789999805391,223.14239430008456,224.15537839999888,224.14177260000724,None,223.14239430008456,None,223.14239430008456,None,223.14239430008456,None,224.93886069006984,None,224.93886069006984,None,224.93886069006984,None,,,,,,,,,,,,,,007,2022-05-09_13h32.45.648,Main,2022.1.1,60.120324838481615,
positive,neutral,1,l,j,,,,,,,,,1,12,30,8,,,,,,,,,main,1,1,1,neutral,positive,j,j,1,0.9317093000281602,224.94205060007516,225.9555338000646,225.93893170007505,None,224.94205060007516,None,224.94205060007516,None,224.94205060007516,None,226.87217628998914,None,226.87217628998914,None,226.87217628998914,None,,,,,,,,,,,,,,007,2022-05-09_13h32.45.648,Main,2022.1.1,60.120324838481615,
negative,positive,1,j,l,,,,,,,,,1,13,31,6,,,,,,,,,main,2,2,1,positive,negative,l,l,1,1.0320440999930725,226.87575510004535,227.88884840009268,227.8721844999818,None,226.87575510004535,None,226.87575510004535,None,226.87575510004535,None,228.905466490041,None,228.905466490041,None,228.905466490041,None,,,,,,,,,,,,,,007,2022-05-09_13h32.45.648,Main,2022.1.1,60.120324838481615,
negative,neutral,2,j,l,,,,,,,,,1,14,32,12,,,,,,,,,main,2,2,2,neutral,negative,l,l,1,0.9313850000035018,228.91143630002625,229.92211889999453,229.90832220006268,None,228.91143630002625,None,228.91143630002625,None,228.91143630002625,None,230.83874179000267,None,230.83874179000267,None,230.83874179000267,None,,,,,,,,,,,,,,007,2022-05-09_13h32.45.648,Main,2022.1.1,60.120324838481615,
positive,neutral,2,l,j,,,,,,,,,1,15,33,17,,,,,,,,,main,2,2,2,neutral,positive,j,j,1,0.8144659999525174,230.84735880000517,231.85540430003311,231.8387465000851,None,230.84735880000517,None,230.84735880000517,None,230.84735880000517,None,232.65536728998413,None,232.65536728998413,None,232.65536728998413,None,,,,,,,,,,,,,,007,2022-05-09_13h32.45.648,Main,2022.1.1,60.120324838481615,
neutral,positive,2,k,k,,,,,,,,,1,16,34,13,,,,,,,,,main,1,1,2,positive,neutral,k,k,1,0.7816967000253499,232.66042239998933,233.67203860008158,233.65823629999068,None,232.66042239998933,None,232.66042239998933,None,232.66042239998933,None,234.438674490049,None,234.438674490049,None,234.438674490049,None,,,,,,,,,,,,,,007,2022-05-09_13h32.45.648,Main,2022.1.1,60.120324838481615,
positive,negative,1,l,j,,,,,,,,,1,17,35,5,,,,,,,,,main,1,1,1,negative,positive,j,j,1,0.9317508999956772,234.44470019999426,235.4582051000325,235.4386850000592,None,234.44470019999426,None,234.44470019999426,None,234.44470019999426,None,236.37195139002287,None,236.37195139002287,None,236.37195139002287,None,,,,,,,,,,,,,,007,2022-05-09_13h32.45.648,Main,2022.1.1,60.120324838481615,
positive,positive,1,l,j,,,,,,,,,2,0,36,2,,,,,,,,,main,1,1,1,positive,positive,j,j,1,0.6983103000093251,236.37738489999902,237.38862900005188,237.35813170007896,None,236.37738489999902,None,236.37738489999902,None,236.37738489999902,None,238.07191069001564,None,238.07191069001564,None,238.07191069001564,None,,,,,,,,,,,,,,007,2022-05-09_13h32.45.648,Main,2022.1.1,60.120324838481615,
positive,neutral,2,l,j,,,,,,,,,2,1,37,17,,,,,,,,,main,2,2,2,neutral,positive,j,j,1,0.7524596999865025,238.07531049998943,239.08857590006664,239.07217830000445,None,238.07531049998943,None,238.07531049998943,None,238.07531049998943,None,239.82201408998807,None,239.82201408998807,None,239.82201408998807,None,,,,,,,,,,,,,,007,2022-05-09_13h32.45.648,Main,2022.1.1,60.120324838481615,
positive,neutral,1,l,j,,,,,,,,,2,2,38,8,,,,,,,,,main,1,1,1,neutral,positive,j,j,1,0.8431496999692172,239.83345050003845,240.83854919997975,240.82193710003048,None,239.83345050003845,None,239.83345050003845,None,239.83345050003845,None,241.67183959003304,None,241.67183959003304,None,241.67183959003304,None,,,,,,,,,,,,,,007,2022-05-09_13h32.45.648,Main,2022.1.1,60.120324838481615,
negative,neutral,1,j,l,,,,,,,,,2,3,39,3,,,,,,,,,main,1,1,1,neutral,negative,l,l,1,0.8651958999689668,241.6769975000061,242.69126950006466,242.67187399999239,None,241.6769975000061,None,241.6769975000061,None,241.6769975000061,None,243.53846729007782,None,243.53846729007782,None,243.53846729007782,None,,,,,,,,,,,,,,007,2022-05-09_13h32.45.648,Main,2022.1.1,60.120324838481615,
negative,negative,2,j,l,,,,,,,,,2,4,40,9,,,,,,,,,main,2,2,2,negative,negative,l,l,1,0.9012776999734342,243.54374019999523,244.555128899985,244.53847720008343,None,243.54374019999523,None,243.54374019999523,None,243.54374019999523,None,245.4383570900769,None,245.4383570900769,None,245.4383570900769,None,,,,,,,,,,,,,,007,2022-05-09_13h32.45.648,Main,2022.1.1,60.120324838481615,
neutral,negative,1,k,k,,,,,,,,,2,5,41,7,,,,,,,,,main,2,2,1,negative,neutral,k,k,1,0.8339898000704125,245.44639050005935,246.45509310008492,246.43842969997786,None,245.44639050005935,None,245.44639050005935,None,245.44639050005935,None,247.2749154900317,None,247.2749154900317,None,247.2749154900317,None,,,,,,,,,,,,,,007,2022-05-09_13h32.45.648,Main,2022.1.1,60.120324838481615,
neutral,neutral,1,k,k,,,,,,,,,2,6,42,1,,,,,,,,,main,1,1,1,neutral,neutral,k,k,1,0.7091297000879422,247.2804099000059,248.288418799988,248.27174950006884,None,247.2804099000059,None,247.2804099000059,None,247.2804099000059,None,248.98835428998572,None,248.98835428998572,None,248.98835428998572,None,,,,,,,,,,,,,,007,2022-05-09_13h32.45.648,Main,2022.1.1,60.120324838481615,
neutral,positive,2,k,k,,,,,,,,,2,7,43,13,,,,,,,,,main,1,1,2,positive,neutral,k,k,1,0.6896138000302017,248.99439610005356,250.00501970003825,249.99122329999227,None,248.99439610005356,None,248.99439610005356,None,248.99439610005356,None,250.6773805900826,None,250.6773805900826,None,250.6773805900826,None,,,,,,,,,,,,,,007,2022-05-09_13h32.45.648,Main,2022.1.1,60.120324838481615,
positive,positive,2,l,j,,,,,,,,,2,8,44,11,,,,,,,,,main,2,2,2,positive,positive,j,l,0,1.1240069000050426,250.68379360006656,251.69121050008107,251.67198580002878,None,250.68379360006656,None,250.68379360006656,None,250.68379360006656,None,252.80500520009082,None,252.80500520009082,None,252.80500520009082,None,,,,,,,,,,,,,,007,2022-05-09_13h32.45.648,Main,2022.1.1,60.120324838481615,
positive,negative,2,l,j,,,,,,,,,2,9,45,14,,,,,,,,,main,2,2,2,negative,positive,j,j,1,0.9027919999789447,253.80856680008583,254.80520410009194,254.79120149998926,None,253.80856680008583,None,253.80856680008583,None,253.80856680008583,None,255.7048831900698,None,255.7048831900698,None,255.7048831900698,None,,,,,,,,,,,,,,007,2022-05-09_13h32.45.648,Main,2022.1.1,60.120324838481615,
neutral,positive,1,k,k,,,,,,,,,2,10,46,4,,,,,,,,,main,1,1,1,positive,neutral,k,k,1,0.964804399991408,255.71050590008963,256.7215559000615,256.70489150006324,None,255.71050590008963,None,255.71050590008963,None,255.71050590008963,None,257.67152708998185,None,257.67152708998185,None,257.67152708998185,None,,,,,,,,,,,,,,007,2022-05-09_13h32.45.648,Main,2022.1.1,60.120324838481615,
negative,negative,1,j,l,,,,,,,,,2,11,47,0,,,,,,,,,main,1,1,1,negative,negative,l,l,1,0.9986056999769062,257.6765729000326,258.6881843000883,258.67150880000554,None,257.6765729000326,None,257.6765729000326,None,257.6765729000326,None,259.6714508899837,None,259.6714508899837,None,259.6714508899837,None,,,,,,,,,,,,,,007,2022-05-09_13h32.45.648,Main,2022.1.1,60.120324838481615,
positive,negative,1,l,j,,,,,,,,,2,12,48,5,,,,,,,,,main,2,2,1,negative,positive,j,j,1,0.898186800070107,259.6747978000203,260.68818240007386,260.6714649000205,None,259.6747978000203,None,259.6747978000203,None,259.6747978000203,None,261.57143649001375,None,261.57143649001375,None,261.57143649001375,None,,,,,,,,,,,,,,007,2022-05-09_13h32.45.648,Main,2022.1.1,60.120324838481615,
neutral,neutral,2,k,k,,,,,,,,,2,13,49,10,,,,,,,,,main,2,2,2,neutral,neutral,k,k,1,0.715243799961172,261.57685710000806,262.5880938000046,262.57434080005623,None,261.57685710000806,None,261.57685710000806,None,261.57685710000806,None,263.2880448900047,None,263.2880448900047,None,263.2880448900047,None,,,,,,,,,,,,,,007,2022-05-09_13h32.45.648,Main,2022.1.1,60.120324838481615,
negative,positive,2,j,l,,,,,,,,,2,14,50,15,,,,,,,,,main,2,2,2,positive,negative,l,l,1,1.1983157999347895,263.2940329000121,264.30473189998884,264.2909303000197,None,263.2940329000121,None,263.2940329000121,None,263.2940329000121,None,265.4880120900576,None,265.4880120900576,None,265.4880120900576,None,,,,,,,,,,,,,,007,2022-05-09_13h32.45.648,Main,2022.1.1,60.120324838481615,
negative,positive,1,j,l,,,,,,,,,2,15,51,6,,,,,,,,,main,2,2,1,positive,negative,l,l,1,1.0317666999762878,265.49362640001345,266.507466900046,266.4880611000117,None,265.49362640001345,None,265.49362640001345,None,265.49362640001345,None,267.5213021899923,None,267.5213021899923,None,267.5213021899923,None,,,,,,,,,,,,,,007,2022-05-09_13h32.45.648,Main,2022.1.1,60.120324838481615,
negative,neutral,2,j,l,,,,,,,,,2,16,52,12,,,,,,,,,main,2,2,2,neutral,negative,l,l,1,0.8481822999892756,267.5270901999902,268.53799950005487,268.5213235000847,None,267.5270901999902,None,267.5270901999902,None,267.5270901999902,None,269.3712833900587,None,269.3712833900587,None,269.3712833900587,None,,,,,,,,,,,,,,007,2022-05-09_13h32.45.648,Main,2022.1.1,60.120324838481615,
neutral,negative,2,k,k,,,,,,,,,2,17,53,16,,,,,,,,,main,1,1,2,negative,neutral,k,k,1,0.7022337999660522,269.38810069998726,270.3879195000045,270.3712527999887,None,269.38810069998726,None,269.38810069998726,None,269.38810069998726,None,271.07131309000545,None,271.07131309000545,None,271.07131309000545,None,,,,,,,,,,,,,,007,2022-05-09_13h32.45.648,Main,2022.1.1,60.120324838481615,
negative,positive,1,j,l,,,,,,,,,3,0,54,6,,,,,,,,,main,1,1,1,positive,negative,l,l,1,0.7602097999770194,271.08091520005837,272.087881000014,272.05454560008366,None,271.08091520005837,None,271.08091520005837,None,271.08091520005837,None,272.8378530899878,None,272.8378530899878,None,272.8378530899878,None,,,,,,,,,,,,,,007,2022-05-09_13h32.45.648,Main,2022.1.1,60.120324838481615,
negative,positive,2,j,l,,,,,,,,,3,1,55,15,,,,,,,,,main,1,1,2,positive,negative,l,l,1,1.0141787000466138,272.84420270007104,273.85454109997954,273.84070050006267,None,272.84420270007104,None,272.84420270007104,None,272.84420270007104,None,274.854471089982,None,274.854471089982,None,274.854471089982,None,,,,,,,,,,,,,,007,2022-05-09_13h32.45.648,Main,2022.1.1,60.120324838481615,
neutral,neutral,2,k,k,,,,,,,,,3,2,56,10,,,,,,,,,main,2,2,2,neutral,neutral,k,k,1,0.7314206999726593,274.8602448999882,275.8739384000655,275.85451189999003,None,274.8602448999882,None,274.8602448999882,None,274.8602448999882,None,276.58785218998094,None,276.58785218998094,None,276.58785218998094,None,,,,,,,,,,,,,,007,2022-05-09_13h32.45.648,Main,2022.1.1,60.120324838481615,
positive,positive,1,l,j,,,,,,,,,3,3,57,2,,,,,,,,,main,1,1,1,positive,positive,j,l,0,0.831065500038676,276.59688169998117,277.60443110007327,277.5907312000636,None,276.59688169998117,None,276.59688169998117,None,276.59688169998117,None,278.42109479999635,None,278.42109479999635,None,278.42109479999635,None,,,,,,,,,,,,,,007,2022-05-09_13h32.45.648,Main,2022.1.1,60.120324838481615,
negative,neutral,2,j,l,,,,,,,,,3,4,58,12,,,,,,,,,main,2,2,2,neutral,negative,l,l,1,1.1039481000043452,279.4247381000314,280.4210422000615,280.40731010003947,None,279.4247381000314,None,279.4247381000314,None,279.4247381000314,None,281.52099889001113,None,281.52099889001113,None,281.52099889001113,None,,,,,,,,,,,,,,007,2022-05-09_13h32.45.648,Main,2022.1.1,60.120324838481615,
negative,negative,2,j,l,,,,,,,,,3,5,59,9,,,,,,,,,main,1,1,2,negative,negative,l,l,1,0.8969441000372171,281.52711340005044,282.53768180008046,282.523839600035,None,281.52711340005044,None,281.52711340005044,None,281.52711340005044,None,283.420966290019,None,283.420966290019,None,283.420966290019,None,,,,,,,,,,,,,,007,2022-05-09_13h32.45.648,Main,2022.1.1,60.120324838481615,
positive,negative,1,l,j,,,,,,,,,3,6,60,5,,,,,,,,,main,1,1,1,negative,positive,j,l,0,0.8653814001008868,283.4261207000818,284.4404338999884,284.42391490004957,None,283.4261207000818,None,283.4261207000818,None,283.4261207000818,None,285.2876136000268,None,285.2876136000268,None,285.2876136000268,None,,,,,,,,,,,,,,007,2022-05-09_13h32.45.648,Main,2022.1.1,60.120324838481615,
positive,positive,2,l,j,,,,,,,,,3,7,61,11,,,,,,,,,main,1,1,2,positive,positive,j,j,1,0.8033493999391794,286.2875958000077,287.2875676000258,287.2708970999811,None,286.2875958000077,None,286.2875958000077,None,286.2875958000077,None,288.0875453899731,None,288.0875453899731,None,288.0875453899731,None,,,,,,,,,,,,,,007,2022-05-09_13h32.45.648,Main,2022.1.1,60.120324838481615,
positive,neutral,1,l,j,,,,,,,,,3,8,62,8,,,,,,,,,main,2,2,1,neutral,positive,j,j,1,0.9813462999882177,288.093306499999,289.10699640004896,289.0875331000425,None,288.093306499999,None,288.093306499999,None,288.093306499999,None,290.0708735900349,None,290.0708735900349,None,290.0708735900349,None,,,,,,,,,,,,,,007,2022-05-09_13h32.45.648,Main,2022.1.1,60.120324838481615,
neutral,negative,2,k,k,,,,,,,,,3,9,63,16,,,,,,,,,main,2,2,2,negative,neutral,k,k,1,0.8315168000990525,290.0763535000151,291.08748980006203,291.0570986000821,None,290.0763535000151,None,290.0763535000151,None,290.0763535000151,None,291.9041369900457,None,291.9041369900457,None,291.9041369900457,None,,,,,,,,,,,,,,007,2022-05-09_13h32.45.648,Main,2022.1.1,60.120324838481615,
positive,neutral,2,l,j,,,,,,,,,3,10,64,17,,,,,,,,,main,2,2,2,neutral,positive,j,j,1,0.7809808000456542,291.9081788000185,292.92080269998405,292.9041427000193,None,291.9081788000185,None,291.9081788000185,None,291.9081788000185,None,293.6874355900451,None,293.6874355900451,None,293.6874355900451,None,,,,,,,,,,,,,,007,2022-05-09_13h32.45.648,Main,2022.1.1,60.120324838481615,
neutral,positive,2,k,k,,,,,,,,,3,11,65,13,,,,,,,,,main,1,1,2,positive,neutral,k,k,1,0.814968099934049,293.69280890002847,294.7068872000091,294.69026800000574,None,293.69280890002847,None,293.69280890002847,None,293.69280890002847,None,295.5040513900691,None,295.5040513900691,None,295.5040513900691,None,,,,,,,,,,,,,,007,2022-05-09_13h32.45.648,Main,2022.1.1,60.120324838481615,
negative,neutral,1,j,l,,,,,,,,,3,12,66,3,,,,,,,,,main,1,1,1,neutral,negative,l,l,1,0.6990773000288755,295.5093760000309,296.52104390005115,296.5040579000488,None,295.5093760000309,None,295.5093760000309,None,295.5093760000309,None,297.2046226900653,None,297.2046226900653,None,297.2046226900653,None,,,,,,,,,,,,,,007,2022-05-09_13h32.45.648,Main,2022.1.1,60.120324838481615,
neutral,positive,1,k,k,,,,,,,,,3,13,67,4,,,,,,,,,main,2,2,1,positive,neutral,k,k,1,0.7647188999690115,297.2108881000895,298.22071830008645,298.2040039000567,None,297.2108881000895,None,297.2108881000895,None,297.2108881000895,None,298.97061729008567,None,298.97061729008567,None,298.97061729008567,None,,,,,,,,,,,,,,007,2022-05-09_13h32.45.648,Main,2022.1.1,60.120324838481615,
neutral,negative,1,k,k,,,,,,,,,3,14,68,7,,,,,,,,,main,2,2,1,negative,neutral,k,k,1,0.648409100016579,298.9738342000637,299.99016960000154,299.9734714999795,None,298.9738342000637,None,298.9738342000637,None,298.9738342000637,None,300.6205930900411,None,300.6205930900411,None,300.6205930900411,None,,,,,,,,,,,,,,007,2022-05-09_13h32.45.648,Main,2022.1.1,60.120324838481615,
negative,negative,1,j,l,,,,,,,,,3,15,69,0,,,,,,,,,main,1,1,1,negative,negative,l,l,1,0.8483059999998659,300.6260109000141,301.63725760008674,301.62355930008925,None,300.6260109000141,None,300.6260109000141,None,300.6260109000141,None,302.4705922900117,None,302.4705922900117,None,302.4705922900117,None,,,,,,,,,,,,,,007,2022-05-09_13h32.45.648,Main,2022.1.1,60.120324838481615,
positive,negative,2,l,j,,,,,,,,,3,16,70,14,,,,,,,,,main,2,2,2,negative,positive,j,j,1,0.765029100002721,302.4759525000118,303.48728510004,303.47087090008426,None,302.4759525000118,None,302.4759525000118,None,302.4759525000118,None,304.2372661900823,None,304.2372661900823,None,304.2372661900823,None,,,,,,,,,,,,,,007,2022-05-09_13h32.45.648,Main,2022.1.1,60.120324838481615,
neutral,neutral,1,k,k,,,,,,,,,3,17,71,1,,,,,,,,,main,1,1,1,neutral,neutral,k,k,1,1.2483177999965847,304.24186240008567,305.25382510002237,305.23717580002267,None,304.24186240008567,None,304.24186240008567,None,304.24186240008567,None,306.4871443900862,None,306.4871443900862,None,306.4871443900862,None,,,,,,,,,,,,,,007,2022-05-09_13h32.45.648,Main,2022.1.1,60.120324838481615,
neutral,neutral,1,k,k,,,,,,,,,4,0,72,1,,,,,,,,,main,1,1,1,neutral,neutral,k,k,1,0.9154334000777453,306.49283030000515,307.5038291000528,307.48995690001175,None,306.49283030000515,None,306.49283030000515,None,306.49283030000515,None,308.40377129005503,None,308.40377129005503,None,308.40377129005503,None,,,,,,,,,,,,,,007,2022-05-09_13h32.45.648,Main,2022.1.1,60.120324838481615,
neutral,negative,1,k,k,,,,,,,,,4,1,73,7,,,,,,,,,main,1,1,1,negative,neutral,k,k,1,1.032007799949497,308.40935430000536,309.4206214000005,309.40407370007597,None,308.40935430000536,None,308.40935430000536,None,308.40935430000536,None,310.4374231900671,None,310.4374231900671,None,310.4374231900671,None,,,,,,,,,,,,,,007,2022-05-09_13h32.45.648,Main,2022.1.1,60.120324838481615,
neutral,negative,2,k,k,,,,,,,,,4,2,74,16,,,,,,,,,main,1,1,2,negative,neutral,k,k,1,0.8812074000015855,310.4403493000427,311.437050400069,311.437050400069,None,310.4403493000427,None,310.4403493000427,None,310.4403493000427,None,312.320355890051,None,312.320355890051,None,312.320355890051,None,,,,,,,,,,,,,,007,2022-05-09_13h32.45.648,Main,2022.1.1,60.120324838481615,
neutral,positive,2,k,k,,,,,,,,,4,3,75,13,,,,,,,,,main,1,1,2,positive,neutral,k,k,1,1.0522544999839738,312.3261789000826,313.3398261000402,313.3206804000074,None,312.3261789000826,None,312.3261789000826,None,312.3261789000826,None,314.37294529002395,None,314.37294529002395,None,314.37294529002395,None,,,,,,,,,,,,,,007,2022-05-09_13h32.45.648,Main,2022.1.1,60.120324838481615,
negative,positive,1,j,l,,,,,,,,,4,4,76,6,,,,,,,,,main,1,1,1,positive,negative,l,l,1,1.06491669989191,314.37752139999066,315.3869878000114,315.37048280006275,None,314.37752139999066,None,314.37752139999066,None,314.37752139999066,None,316.43742429007546,None,316.43742429007546,None,316.43742429007546,None,,,,,,,,,,,,,,007,2022-05-09_13h32.45.648,Main,2022.1.1,60.120324838481615,
neutral,neutral,2,k,k,,,,,,,,,4,5,77,10,,,,,,,,,main,2,2,2,neutral,neutral,k,k,1,0.9116579000838101,316.4435395000037,317.453589700046,317.4369215000188,None,316.4435395000037,None,316.4435395000037,None,316.4435395000037,None,318.35354649004296,None,318.35354649004296,None,318.35354649004296,None,,,,,,,,,,,,,,007,2022-05-09_13h32.45.648,Main,2022.1.1,60.120324838481615,
positive,positive,1,l,j,,,,,,,,,4,6,78,2,,,,,,,,,main,2,2,1,positive,positive,j,k,0,0.46505070000421256,318.3586022000527,319.3702290999936,319.35356850002427,None,318.3586022000527,None,318.3586022000527,None,318.3586022000527,None,319.8202129000565,None,319.8202129000565,None,319.8202129000565,None,,,,,,,,,,,,,,007,2022-05-09_13h32.45.648,Main,2022.1.1,60.120324838481615,
negative,negative,2,j,l,,,,,,,,,4,7,79,9,,,,,,,,,main,1,1,2,negative,negative,l,j,0,1.9577492999378592,320.82341190008447,321.8368386999937,321.8035644000629,None,320.82341190008447,None,320.82341190008447,None,320.82341190008447,None,323.77736539999023,None,323.77736539999023,None,323.77736539999023,None,,,,,,,,,,,,,,007,2022-05-09_13h32.45.648,Main,2022.1.1,60.120324838481615,
negative,neutral,2,j,l,,,,,,,,,4,8,80,12,,,,,,,,,main,2,2,2,neutral,negative,l,l,1,1.0735136000439525,324.7917866000207,325.8034328999929,325.7867506000912,None,324.7917866000207,None,324.7917866000207,None,324.7917866000207,None,326.85348179001596,None,326.85348179001596,None,326.85348179001596,None,,,,,,,,,,,,,,007,2022-05-09_13h32.45.648,Main,2022.1.1,60.120324838481615,
negative,negative,1,j,l,,,,,,,,,4,9,81,0,,,,,,,,,main,1,1,1,negative,negative,l,l,1,1.177293400047347,326.8612350000767,327.87003930006176,327.85621970007196,None,326.8612350000767,None,326.8612350000767,None,326.8612350000767,None,329.0366324900766,None,329.0366324900766,None,329.0366324900766,None,,,,,,,,,,,,,,007,2022-05-09_13h32.45.648,Main,2022.1.1,60.120324838481615,
negative,positive,2,j,l,,,,,,,,,4,10,82,15,,,,,,,,,main,2,2,2,positive,negative,l,l,1,0.7816301999846473,329.0483448000159,330.0533136000158,330.0395691000158,None,329.0483448000159,None,329.0483448000159,None,329.0483448000159,None,330.8202920900309,None,330.8202920900309,None,330.8202920900309,None,,,,,,,,,,,,,,007,2022-05-09_13h32.45.648,Main,2022.1.1,60.120324838481615,
positive,neutral,2,l,j,,,,,,,,,4,11,83,17,,,,,,,,,main,1,1,2,neutral,positive,j,l,0,0.9311152000445873,330.82372190000024,331.8366012000479,331.8199348000344,None,330.82372190000024,None,330.82372190000024,None,330.82372190000024,None,332.75326110003516,None,332.75326110003516,None,332.75326110003516,None,,,,,,,,,,,,,,007,2022-05-09_13h32.45.648,Main,2022.1.1,60.120324838481615,
positive,negative,2,l,j,,,,,,,,,4,12,84,14,,,,,,,,,main,1,1,2,negative,positive,j,j,1,0.8034625999862328,333.75323010003194,334.75323660008144,334.7366490000859,None,333.75323010003194,None,333.75323010003194,None,333.75323010003194,None,335.55319059008036,None,335.55319059008036,None,335.55319059008036,None,,,,,,,,,,,,,,007,2022-05-09_13h32.45.648,Main,2022.1.1,60.120324838481615,
neutral,positive,1,k,k,,,,,,,,,4,13,85,4,,,,,,,,,main,2,2,1,positive,neutral,k,k,1,0.7148264000425115,335.5587937000673,336.5702626000857,336.5534676000243,None,335.5587937000673,None,335.5587937000673,None,335.5587937000673,None,337.2698095900356,None,337.2698095900356,None,337.2698095900356,None,,,,,,,,,,,,,,007,2022-05-09_13h32.45.648,Main,2022.1.1,60.120324838481615,
positive,positive,2,l,j,,,,,,,,,4,14,86,11,,,,,,,,,main,1,1,2,positive,positive,j,j,1,0.8323618000140414,337.27316340000834,338.2864727000706,338.26981680002064,None,337.27316340000834,None,337.27316340000834,None,337.27316340000834,None,339.1030940899742,None,339.1030940899742,None,339.1030940899742,None,,,,,,,,,,,,,,007,2022-05-09_13h32.45.648,Main,2022.1.1,60.120324838481615,
positive,neutral,1,l,j,,,,,,,,,4,15,87,8,,,,,,,,,main,2,2,1,neutral,positive,j,j,1,1.114298600004986,339.113632600056,340.11976939998567,340.1030991000589,None,339.113632600056,None,339.113632600056,None,339.113632600056,None,341.2197783899843,None,341.2197783899843,None,341.2197783899843,None,,,,,,,,,,,,,,007,2022-05-09_13h32.45.648,Main,2022.1.1,60.120324838481615,
positive,negative,1,l,j,,,,,,,,,4,16,88,5,,,,,,,,,main,2,2,1,negative,positive,j,j,1,0.6989123000530526,341.225004500011,342.23640410008375,342.2197314000223,None,341.225004500011,None,341.225004500011,None,341.225004500011,None,342.9199735900271,None,342.9199735900271,None,342.9199735900271,None,,,,,,,,,,,,,,007,2022-05-09_13h32.45.648,Main,2022.1.1,60.120324838481615,
negative,neutral,1,j,l,,,,,,,,,4,17,89,3,,,,,,,,,main,1,1,1,neutral,negative,l,l,1,1.0645370000274852,342.925495200092,343.93634620006196,343.9197118000593,None,342.925495200092,None,342.925495200092,None,342.925495200092,None,344.98630548998483,None,344.98630548998483,None,344.98630548998483,None,,,,,,,,,,,,,,007,2022-05-09_13h32.45.648,Main,2022.1.1,60.120324838481615,
neutral,positive,1,k,k,,,,,,,,,5,0,90,4,,,,,,,,,main,2,2,1,positive,neutral,k,k,1,0.6978524000151083,344.9960979000898,346.0058323000558,345.98922910005786,None,344.9960979000898,None,344.9960979000898,None,344.9960979000898,None,346.68628409000814,None,346.68628409000814,None,346.68628409000814,None,,,,,,,,,,,,,,007,2022-05-09_13h32.45.648,Main,2022.1.1,60.120324838481615,
positive,neutral,2,l,j,,,,,,,,,5,1,91,17,,,,,,,,,main,2,2,2,neutral,positive,j,j,1,1.0657516999635845,346.69163870008197,347.7032239000546,347.6862890000921,None,346.69163870008197,None,346.69163870008197,None,346.69163870008197,None,348.7528921899735,None,348.7528921899735,None,348.7528921899735,None,,,,,,,,,,,,,,007,2022-05-09_13h32.45.648,Main,2022.1.1,60.120324838481615,
neutral,positive,2,k,k,,,,,,,,,5,2,92,13,,,,,,,,,main,2,2,2,positive,neutral,k,k,1,0.732153799966909,348.7589253000915,349.7696317000082,349.7531844000332,None,348.7589253000915,None,348.7589253000915,None,348.7589253000915,None,350.48618799002145,None,350.48618799002145,None,350.48618799002145,None,,,,,,,,,,,,,,007,2022-05-09_13h32.45.648,Main,2022.1.1,60.120324838481615,
neutral,neutral,1,k,k,,,,,,,,,5,3,93,1,,,,,,,,,main,1,1,1,neutral,neutral,k,k,1,0.763923899969086,350.49021850002464,351.50284770003054,351.4861907000886,None,350.49021850002464,None,350.49021850002464,None,350.49021850002464,None,352.25288719005187,None,352.25288719005187,None,352.25288719005187,None,,,,,,,,,,,,,,007,2022-05-09_13h32.45.648,Main,2022.1.1,60.120324838481615,
negative,neutral,1,j,l,,,,,,,,,5,4,94,3,,,,,,,,,main,1,1,1,neutral,negative,l,l,1,0.9148867001058534,352.25815340003464,353.26948220003396,353.25569920009,None,352.25815340003464,None,352.25815340003464,None,352.25815340003464,None,354.1694408900454,None,354.1694408900454,None,354.1694408900454,None,,,,,,,,,,,,,,007,2022-05-09_13h32.45.648,Main,2022.1.1,60.120324838481615,
positive,negative,1,l,j,,,,,,,,,5,5,95,5,,,,,,,,,main,2,2,1,negative,positive,j,l,0,0.7986935999942943,354.1755037000403,355.186111100018,355.16949540004134,None,354.1755037000403,None,354.1755037000403,None,354.1755037000403,None,355.9694317000685,None,355.9694317000685,None,355.9694317000685,None,,,,,,,,,,,,,,007,2022-05-09_13h32.45.648,Main,2022.1.1,60.120324838481615,
negative,neutral,2,j,l,,,,,,,,,5,6,96,12,,,,,,,,,main,2,2,2,neutral,negative,l,l,1,1.0024219000479206,356.97094959998503,357.9721003000159,357.955532800057,None,356.97094959998503,None,356.97094959998503,None,356.97094959998503,None,358.96931309005015,None,358.96931309005015,None,358.96931309005015,None,,,,,,,,,,,,,,007,2022-05-09_13h32.45.648,Main,2022.1.1,60.120324838481615,
negative,positive,2,j,l,,,,,,,,,5,7,97,15,,,,,,,,,main,1,1,2,positive,negative,l,l,1,1.4321903999662027,358.9748702000361,359.98599760001525,359.9693381000543,None,358.9748702000361,None,358.9748702000361,None,358.9748702000361,None,361.4026213900303,None,361.4026213900303,None,361.4026213900303,None,,,,,,,,,,,,,,007,2022-05-09_13h32.45.648,Main,2022.1.1,60.120324838481615,
neutral,negative,2,k,k,,,,,,,,,5,8,98,16,,,,,,,,,main,1,1,2,negative,neutral,k,k,1,0.88080349995289,361.40860870003235,362.4222297000233,362.40291639999487,None,361.40860870003235,None,361.40860870003235,None,361.40860870003235,None,363.2859160899767,None,363.2859160899767,None,363.2859160899767,None,,,,,,,,,,,,,,007,2022-05-09_13h32.45.648,Main,2022.1.1,60.120324838481615,
positive,positive,2,l,j,,,,,,,,,5,9,99,11,,,,,,,,,main,1,1,2,positive,positive,j,j,1,1.6153656000969931,363.2910478999838,364.3027970000403,364.285929900012,None,363.2910478999838,None,363.2910478999838,None,363.2910478999838,None,365.90255240001716,None,365.90255240001716,None,365.90255240001716,None,,,,,,,,,,,,,,007,2022-05-09_13h32.45.648,Main,2022.1.1,60.120324838481615,
neutral,negative,1,k,k,,,,,,,,,5,10,100,7,,,,,,,,,main,1,1,1,negative,neutral,k,k,1,0.8356477000052109,366.9094507000409,367.9191848000046,367.90252090001013,None,366.9094507000409,None,366.9094507000409,None,366.9094507000409,None,368.7357787900488,None,368.7357787900488,None,368.7357787900488,None,,,,,,,,,,,,,,007,2022-05-09_13h32.45.648,Main,2022.1.1,60.120324838481615,
negative,positive,1,j,l,,,,,,,,,5,11,101,6,,,,,,,,,main,2,2,1,positive,negative,l,l,1,1.0150879999855533,368.7393084000796,369.7524636000162,369.7358172000386,None,368.7393084000796,None,368.7393084000796,None,368.7393084000796,None,370.75243678999834,None,370.75243678999834,None,370.75243678999834,None,,,,,,,,,,,,,,007,2022-05-09_13h32.45.648,Main,2022.1.1,60.120324838481615,
neutral,neutral,2,k,k,,,,,,,,,5,12,102,10,,,,,,,,,main,1,1,2,neutral,neutral,k,k,1,1.3146170999389142,370.75798310001846,371.7694932000013,371.7527180000907,None,370.75798310001846,None,370.75798310001846,None,370.75798310001846,None,373.06903709002074,None,373.06903709002074,None,373.06903709002074,None,,,,,,,,,,,,,,007,2022-05-09_13h32.45.648,Main,2022.1.1,60.120324838481615,
negative,negative,2,j,l,,,,,,,,,5,13,103,9,,,,,,,,,main,2,2,2,negative,negative,l,l,1,1.7192652999656275,373.0749098000815,374.08571100002155,374.06904880004004,None,373.0749098000815,None,373.0749098000815,None,373.0749098000815,None,375.78974260005634,None,375.78974260005634,None,375.78974260005634,None,,,,,,,,,,,,,,007,2022-05-09_13h32.45.648,Main,2022.1.1,60.120324838481615,
negative,negative,1,j,l,,,,,,,,,5,14,104,0,,,,,,,,,main,2,2,1,negative,negative,l,l,1,-0.5827118000015616,376.80348640005104,None,None,None,376.80348640005104,None,376.80348640005104,None,376.80348640005104,None,377.21896690002177,None,377.21896690002177,None,377.21896690002177,None,,,,,,,,,,,,,,007,2022-05-09_13h32.45.648,Main,2022.1.1,60.120324838481615,
positive,positive,1,l,j,,,,,,,,,5,15,105,2,,,,,,,,,main,1,1,1,positive,positive,j,j,1,0.9528614999726415,380.21987640007865,381.2356739999959,381.20222109998576,None,380.21987640007865,None,380.21987640007865,None,380.21987640007865,None,382.1688489900786,None,382.1688489900786,None,382.1688489900786,None,,,,,,,,,,,,,,007,2022-05-09_13h32.45.648,Main,2022.1.1,60.120324838481615,
positive,negative,2,l,j,,,,,,,,,5,16,106,14,,,,,,,,,main,2,2,2,negative,positive,j,j,1,0.7485094999428838,382.1724201000761,383.16885060002096,383.16885060002096,None,382.1724201000761,None,382.1724201000761,None,382.1724201000761,None,383.91909249007006,None,383.91909249007006,None,383.91909249007006,None,,,,,,,,,,,,,,007,2022-05-09_13h32.45.648,Main,2022.1.1,60.120324838481615,
positive,neutral,1,l,j,,,,,,,,,5,17,107,8,,,,,,,,,main,2,2,1,neutral,positive,j,j,1,0.831402900046669,383.9225743000861,384.9359617000446,384.9217228000052,None,383.9225743000861,None,383.9225743000861,None,383.9225743000861,None,385.75213719004535,None,385.75213719004535,None,385.75213719004535,None,,,,,,,,,,,,,,007,2022-05-09_13h32.45.648,Main,2022.1.1,60.120324838481615,
positive,neutral,1,l,j,,,,,,,,,6,0,108,8,,,,,,,,,main,2,2,1,neutral,positive,j,j,1,0.6210908000357449,385.75543960009236,386.76904759998433,386.7354621000122,None,385.75543960009236,None,385.75543960009236,None,385.75543960009236,None,387.3710044900305,None,387.3710044900305,None,387.3710044900305,None,,,,,,,,,,,,,,007,2022-05-09_13h32.45.648,Main,2022.1.1,60.120324838481615,
neutral,positive,1,k,k,,,,,,,,,6,1,109,4,,,,,,,,,main,2,2,1,positive,neutral,k,k,1,0.7414385000010952,387.3787498000311,388.38540590007324,388.3687307999935,None,387.3787498000311,None,387.3787498000311,None,387.3787498000311,None,389.1187025900814,None,389.1187025900814,None,389.1187025900814,None,,,,,,,,,,,,,,007,2022-05-09_13h32.45.648,Main,2022.1.1,60.120324838481615,
neutral,negative,2,k,k,,,,,,,,,6,2,110,16,,,,,,,,,main,2,2,2,negative,neutral,k,k,1,0.7149073999607936,389.123883399996,390.1353795999894,390.1215275999857,None,389.123883399996,None,389.123883399996,None,389.123883399996,None,390.8353320900002,None,390.8353320900002,None,390.8353320900002,None,,,,,,,,,,,,,,007,2022-05-09_13h32.45.648,Main,2022.1.1,60.120324838481615,
positive,negative,2,l,j,,,,,,,,,6,3,111,14,,,,,,,,,main,1,1,2,negative,positive,j,j,1,0.7824192999396473,390.840257700067,391.8549114000052,391.81868600007147,None,390.840257700067,None,390.840257700067,None,390.840257700067,None,392.6186434899806,None,392.6186434899806,None,392.6186434899806,None,,,,,,,,,,,,,,007,2022-05-09_13h32.45.648,Main,2022.1.1,60.120324838481615,
neutral,neutral,2,k,k,,,,,,,,,6,4,112,10,,,,,,,,,main,2,2,2,neutral,neutral,k,k,1,0.8145959000103176,392.6247454000404,393.63529980008025,393.6186191000743,None,392.6247454000404,None,392.6247454000404,None,392.6247454000404,None,394.4353406900424,None,394.4353406900424,None,394.4353406900424,None,,,,,,,,,,,,,,007,2022-05-09_13h32.45.648,Main,2022.1.1,60.120324838481615,
positive,positive,1,l,j,,,,,,,,,6,5,113,2,,,,,,,,,main,2,2,1,positive,positive,j,j,1,1.0981129999272525,394.44091820006724,395.45191890001297,395.43525700003374,None,394.44091820006724,None,394.44091820006724,None,394.44091820006724,None,396.53520579003964,None,396.53520579003964,None,396.53520579003964,None,,,,,,,,,,,,,,007,2022-05-09_13h32.45.648,Main,2022.1.1,60.120324838481615,
negative,positive,1,j,l,,,,,,,,,6,6,114,6,,,,,,,,,main,1,1,1,positive,negative,l,l,1,1.0330748999258503,396.54108670004643,397.5518915000139,397.53521040000487,None,396.54108670004643,None,396.54108670004643,None,396.54108670004643,None,398.56851939003684,None,398.56851939003684,None,398.56851939003684,None,,,,,,,,,,,,,,007,2022-05-09_13h32.45.648,Main,2022.1.1,60.120324838481615,
negative,negative,2,j,l,,,,,,,,,6,7,115,9,,,,,,,,,main,2,2,2,negative,negative,l,l,1,1.0805640000617132,398.5744007000467,399.58515729999635,399.5684934000019,None,398.5744007000467,None,398.5744007000467,None,398.5744007000467,None,400.6518169900752,None,400.6518169900752,None,400.6518169900752,None,,,,,,,,,,,,,,007,2022-05-09_13h32.45.648,Main,2022.1.1,60.120324838481615,
positive,neutral,2,l,j,,,,,,,,,6,8,116,17,,,,,,,,,main,2,2,2,neutral,positive,j,l,0,0.965298300026916,400.6571810999885,401.6688114000717,401.6520724000875,None,400.6571810999885,None,400.6571810999885,None,400.6571810999885,None,402.61846080003306,None,402.61846080003306,None,402.61846080003306,None,,,,,,,,,,,,,,007,2022-05-09_13h32.45.648,Main,2022.1.1,60.120324838481615,
neutral,neutral,1,k,k,,,,,,,,,6,9,117,1,,,,,,,,,main,1,1,1,neutral,neutral,k,k,1,0.7366702000144869,403.6187047000276,404.6186755000381,404.6020622000797,None,403.6187047000276,None,403.6187047000276,None,403.6187047000276,None,405.35168878998377,None,405.35168878998377,None,405.35168878998377,None,,,,,,,,,,,,,,007,2022-05-09_13h32.45.648,Main,2022.1.1,60.120324838481615,
negative,neutral,2,j,l,,,,,,,,,6,10,118,12,,,,,,,,,main,1,1,2,neutral,negative,l,l,1,1.286408600048162,405.3577199000865,406.3683633999899,406.35169330006465,None,405.3577199000865,None,405.3577199000865,None,405.3577199000865,None,407.63995429008503,None,407.63995429008503,None,407.63995429008503,None,,,,,,,,,,,,,,007,2022-05-09_13h32.45.648,Main,2022.1.1,60.120324838481615,
negative,negative,1,j,l,,,,,,,,,6,11,119,0,,,,,,,,,main,1,1,1,negative,negative,l,l,1,0.8933844000566751,407.64274070004467,408.651634400012,408.6349758000579,None,407.64274070004467,None,407.64274070004467,None,407.64274070004467,None,409.5349289900274,None,409.5349289900274,None,409.5349289900274,None,,,,,,,,,,,,,,007,2022-05-09_13h32.45.648,Main,2022.1.1,60.120324838481615,
negative,neutral,1,j,l,,,,,,,,,6,12,120,3,,,,,,,,,main,2,2,1,neutral,negative,l,l,1,0.9151985000353307,409.54019950004295,410.551617500023,410.5211243000813,None,409.54019950004295,None,409.54019950004295,None,409.54019950004295,None,411.45170109005414,None,411.45170109005414,None,411.45170109005414,None,,,,,,,,,,,,,,007,2022-05-09_13h32.45.648,Main,2022.1.1,60.120324838481615,
neutral,positive,2,k,k,,,,,,,,,6,13,121,13,,,,,,,,,main,1,1,2,positive,neutral,k,k,1,0.8307072999887168,411.45761759998277,412.4686094999779,412.4517452000873,None,411.45761759998277,None,411.45761759998277,None,411.45761759998277,None,413.2848550900468,None,413.2848550900468,None,413.2848550900468,None,,,,,,,,,,,,,,007,2022-05-09_13h32.45.648,Main,2022.1.1,60.120324838481615,
negative,positive,2,j,l,,,,,,,,,6,14,122,15,,,,,,,,,main,1,1,2,positive,negative,l,l,1,0.9152864000061527,413.2909515000647,414.3018100000918,414.2686457000673,None,413.2909515000647,None,413.2909515000647,None,413.2909515000647,None,415.2014696900384,None,415.2014696900384,None,415.2014696900384,None,,,,,,,,,,,,,,007,2022-05-09_13h32.45.648,Main,2022.1.1,60.120324838481615,
neutral,negative,1,k,k,,,,,,,,,6,15,123,7,,,,,,,,,main,1,1,1,negative,neutral,k,k,1,0.9313515000976622,415.20698610006366,416.2181557000149,416.2014673000667,None,415.20698610006366,None,415.20698610006366,None,415.20698610006366,None,417.1347637900268,None,417.1347637900268,None,417.1347637900268,None,,,,,,,,,,,,,,007,2022-05-09_13h32.45.648,Main,2022.1.1,60.120324838481615,
positive,positive,2,l,j,,,,,,,,,6,16,124,11,,,,,,,,,main,1,1,2,positive,positive,j,j,1,1.131756899994798,417.1411024000263,418.15143580001313,418.1347807000857,None,417.1411024000263,None,417.1411024000263,None,417.1411024000263,None,419.2680540900561,None,419.2680540900561,None,419.2680540900561,None,,,,,,,,,,,,,,007,2022-05-09_13h32.45.648,Main,2022.1.1,60.120324838481615,
positive,negative,1,l,j,,,,,,,,,6,17,125,5,,,,,,,,,main,2,2,1,negative,positive,j,j,1,1.3816621999721974,419.27125320001505,420.28474630007986,420.26806550007313,None,419.27125320001505,None,419.27125320001505,None,419.27125320001505,None,421.6513338900055,None,421.6513338900055,None,421.6513338900055,None,,,,,,,,,,,,,,007,2022-05-09_13h32.45.648,Main,2022.1.1,60.120324838481615,
neutral,negative,2,k,k,,,,,,,,,7,0,126,16,,,,,,,,,main,2,2,2,negative,neutral,k,k,1,1.3147156999912113,421.6574221000774,422.6683667000616,422.65162330004387,None,421.6574221000774,None,421.6574221000774,None,421.6574221000774,None,423.96797809001293,None,423.96797809001293,None,423.96797809001293,None,,,,,,,,,,,,,,007,2022-05-09_13h32.45.648,Main,2022.1.1,60.120324838481615,
neutral,positive,1,k,k,,,,,,,,,7,1,127,4,,,,,,,,,main,1,1,1,positive,neutral,k,k,1,0.8185668999794871,423.97353710001335,424.9846099000424,424.96794600004796,None,423.97353710001335,None,423.97353710001335,None,423.97353710001335,None,425.78457108997975,None,425.78457108997975,None,425.78457108997975,None,,,,,,,,,,,,,,007,2022-05-09_13h32.45.648,Main,2022.1.1,60.120324838481615,
neutral,negative,1,k,k,,,,,,,,,7,2,128,7,,,,,,,,,main,1,1,1,negative,neutral,k,k,1,0.7102362000150606,425.7929569000844,426.8016266000923,426.7846016000258,None,425.7929569000844,None,425.7929569000844,None,425.7929569000844,None,427.50122029004854,None,427.50122029004854,None,427.50122029004854,None,,,,,,,,,,,,,,007,2022-05-09_13h32.45.648,Main,2022.1.1,60.120324838481615,
negative,negative,1,j,l,,,,,,,,,7,3,129,0,,,,,,,,,main,2,2,1,negative,negative,l,l,1,0.9985033000120893,427.50662130001,428.51789180003107,428.50123200006783,None,427.50662130001,None,427.50662130001,None,427.50662130001,None,429.5011657899828,None,429.5011657899828,None,429.5011657899828,None,,,,,,,,,,,,,,007,2022-05-09_13h32.45.648,Main,2022.1.1,60.120324838481615,
negative,negative,2,j,l,,,,,,,,,7,4,130,9,,,,,,,,,main,1,1,2,negative,negative,l,l,1,1.1316604999592528,429.50646180007607,430.5178583000088,430.50407200003974,None,429.50646180007607,None,429.50646180007607,None,429.50646180007607,None,431.6344494900783,None,431.6344494900783,None,431.6344494900783,None,,,,,,,,,,,,,,007,2022-05-09_13h32.45.648,Main,2022.1.1,60.120324838481615,
positive,neutral,1,l,j,,,,,,,,,7,5,131,8,,,,,,,,,main,1,1,1,neutral,positive,j,j,1,0.8826091999653727,431.6397074999986,432.6512950999895,432.63448250002693,None,431.6397074999986,None,431.6397074999986,None,431.6397074999986,None,433.5179387899931,None,433.5179387899931,None,433.5179387899931,None,,,,,,,,,,,,,,007,2022-05-09_13h32.45.648,Main,2022.1.1,60.120324838481615,
negative,positive,2,j,l,,,,,,,,,7,6,132,15,,,,,,,,,main,1,1,2,positive,negative,l,l,1,1.6640873999567702,433.52368420001585,434.53726790007204,434.51782589999493,None,433.52368420001585,None,433.52368420001585,None,433.52368420001585,None,436.18438460002653,None,436.18438460002653,None,436.18438460002653,None,,,,,,,,,,,,,,007,2022-05-09_13h32.45.648,Main,2022.1.1,60.120324838481615,
positive,positive,1,l,j,,,,,,,,,7,7,133,2,,,,,,,,,main,2,2,1,positive,positive,j,j,1,0.9832948000403121,437.1884147999808,438.2010043000337,438.17051990004256,None,437.1884147999808,None,437.1884147999808,None,437.1884147999808,None,439.1676527900505,None,439.1676527900505,None,439.1676527900505,None,,,,,,,,,,,,,,007,2022-05-09_13h32.45.648,Main,2022.1.1,60.120324838481615,
negative,neutral,2,j,l,,,,,,,,,7,8,134,12,,,,,,,,,main,2,2,2,neutral,negative,l,l,1,0.7982795999851078,439.173249399988,440.184309400036,440.1676286000293,None,439.173249399988,None,439.173249399988,None,439.173249399988,None,440.96761139001467,None,440.96761139001467,None,440.96761139001467,None,,,,,,,,,,,,,,007,2022-05-09_13h32.45.648,Main,2022.1.1,60.120324838481615,
neutral,neutral,2,k,k,,,,,,,,,7,9,135,10,,,,,,,,,main,1,1,2,neutral,neutral,k,k,1,0.7646892999764532,440.97274510003626,441.98708840005565,441.96783059998415,None,440.97274510003626,None,440.97274510003626,None,440.97274510003626,None,442.73422059005827,None,442.73422059005827,None,442.73422059005827,None,,,,,,,,,,,,,,007,2022-05-09_13h32.45.648,Main,2022.1.1,60.120324838481615,
neutral,positive,2,k,k,,,,,,,,,7,10,136,13,,,,,,,,,main,1,1,2,positive,neutral,k,k,1,0.7490240000188351,442.74042030004784,443.7537177000195,443.7342327000806,None,442.74042030004784,None,442.74042030004784,None,442.74042030004784,None,444.4841840900132,None,444.4841840900132,None,444.4841840900132,None,,,,,,,,,,,,,,007,2022-05-09_13h32.45.648,Main,2022.1.1,60.120324838481615,
positive,negative,2,l,j,,,,,,,,,7,11,137,14,,,,,,,,,main,2,2,2,negative,positive,j,l,0,0.3970885999733582,444.490554900025,445.50085389998276,445.4870603000745,None,444.490554900025,None,444.490554900025,None,444.490554900025,None,445.88418500008993,None,445.88418500008993,None,445.88418500008993,None,,,,,,,,,,,,,,007,2022-05-09_13h32.45.648,Main,2022.1.1,60.120324838481615,
negative,positive,1,j,l,,,,,,,,,7,12,138,6,,,,,,,,,main,2,2,1,positive,negative,l,l,1,0.9167391000082716,446.89235860004555,447.90114470000844,447.8841491000494,None,446.89235860004555,None,446.89235860004555,None,446.89235860004555,None,448.8007664900157,None,448.8007664900157,None,448.8007664900157,None,,,,,,,,,,,,,,007,2022-05-09_13h32.45.648,Main,2022.1.1,60.120324838481615,
neutral,neutral,1,k,k,,,,,,,,,7,13,139,1,,,,,,,,,main,1,1,1,neutral,neutral,k,k,1,1.1845457999734208,448.81752570008393,449.81745910004247,449.8007375000743,None,448.81752570008393,None,448.81752570008393,None,448.81752570008393,None,450.98748128997397,None,450.98748128997397,None,450.98748128997397,None,,,,,,,,,,,,,,007,2022-05-09_13h32.45.648,Main,2022.1.1,60.120324838481615,
positive,positive,2,l,j,,,,,,,,,7,14,140,11,,,,,,,,,main,2,2,2,positive,positive,j,j,1,0.7784724999219179,450.9913161000004,452.00069540005643,451.98402590001933,None,450.9913161000004,None,450.9913161000004,None,450.9913161000004,None,452.7673338900437,None,452.7673338900437,None,452.7673338900437,None,,,,,,,,,,,,,,007,2022-05-09_13h32.45.648,Main,2022.1.1,60.120324838481615,
positive,neutral,2,l,j,,,,,,,,,7,15,141,17,,,,,,,,,main,2,2,2,neutral,positive,j,j,1,1.133095399942249,452.77077350008767,453.7673509999877,453.7673509999877,None,452.77077350008767,None,452.77077350008767,None,452.77077350008767,None,454.90063259002056,None,454.90063259002056,None,454.90063259002056,None,,,,,,,,,,,,,,007,2022-05-09_13h32.45.648,Main,2022.1.1,60.120324838481615,
negative,neutral,1,j,l,,,,,,,,,7,16,142,3,,,,,,,,,main,1,1,1,neutral,negative,l,l,1,0.8304532000329345,454.90671590005513,455.9176893000258,455.90094490000047,None,454.90671590005513,None,454.90671590005513,None,454.90671590005513,None,456.73398469000824,None,456.73398469000824,None,456.73398469000824,None,,,,,,,,,,,,,,007,2022-05-09_13h32.45.648,Main,2022.1.1,60.120324838481615,
positive,negative,1,l,j,,,,,,,,,7,17,143,5,,,,,,,,,main,1,1,1,negative,positive,j,l,0,0.9654137999750674,456.73906819999684,457.7506463000318,457.7339171000058,None,456.73906819999684,None,456.73906819999684,None,456.73906819999684,None,458.7007052000845,None,458.7007052000845,None,458.7007052000845,None,,,,,,,,,,,,,,007,2022-05-09_13h32.45.648,Main,2022.1.1,60.120324838481615,
negative,positive,2,j,l,,,,,,,,,8,0,144,15,,,,,,,,,main,1,1,2,positive,negative,l,l,1,1.0534531000303105,459.70055260008667,460.70366380002815,460.6838602999924,None,459.70055260008667,None,459.70055260008667,None,459.70055260008667,None,461.75047119004887,None,461.75047119004887,None,461.75047119004887,None,,,,,,,,,,,,,,007,2022-05-09_13h32.45.648,Main,2022.1.1,60.120324838481615,
neutral,positive,2,k,k,,,,,,,,,8,1,145,13,,,,,,,,,main,2,2,2,positive,neutral,k,k,1,0.8690619999542832,461.7562922000652,462.76717980008107,462.7505041999975,None,461.7562922000652,None,461.7562922000652,None,461.7562922000652,None,463.6171944900067,None,463.6171944900067,None,463.6171944900067,None,,,,,,,,,,,,,,007,2022-05-09_13h32.45.648,Main,2022.1.1,60.120324838481615,
neutral,neutral,2,k,k,,,,,,,,,8,2,146,10,,,,,,,,,main,2,2,2,neutral,neutral,k,k,1,0.6604664999758825,463.6244554000441,464.63378500007093,464.6173824000871,None,463.6244554000441,None,463.6244554000441,None,463.6244554000441,None,465.28373589002297,None,465.28373589002297,None,465.28373589002297,None,,,,,,,,,,,,,,007,2022-05-09_13h32.45.648,Main,2022.1.1,60.120324838481615,
positive,positive,1,l,j,,,,,,,,,8,3,147,2,,,,,,,,,main,1,1,1,positive,positive,j,j,1,1.0142348998924717,465.28961109998636,466.30047970009036,466.2837529000826,None,465.28961109998636,None,465.28961109998636,None,465.28961109998636,None,467.30013999001824,None,467.30013999001824,None,467.30013999001824,None,,,,,,,,,,,,,,007,2022-05-09_13h32.45.648,Main,2022.1.1,60.120324838481615,
positive,neutral,2,l,j,,,,,,,,,8,4,148,17,,,,,,,,,main,2,2,2,neutral,positive,j,k,0,1.28175199998077,467.3058552000439,468.3170482000569,468.30036720004864,None,467.3058552000439,None,467.3058552000439,None,467.3058552000439,None,469.5837291000644,None,469.5837291000644,None,469.5837291000644,None,,,,,,,,,,,,,,007,2022-05-09_13h32.45.648,Main,2022.1.1,60.120324838481615,
neutral,negative,1,k,k,,,,,,,,,8,5,149,7,,,,,,,,,main,1,1,1,negative,neutral,k,k,1,1.0532901000697166,470.58992589998525,471.60308010003064,471.586487499997,None,470.58992589998525,None,470.58992589998525,None,470.58992589998525,None,472.6341391900438,None,472.6341391900438,None,472.6341391900438,None,,,,,,,,,,,,,,007,2022-05-09_13h32.45.648,Main,2022.1.1,60.120324838481615,
negative,negative,1,j,l,,,,,,,,,8,6,150,0,,,,,,,,,main,2,2,1,negative,negative,l,k,0,0.1975826999405399,472.6397112000268,473.65024280000944,473.63359630003106,None,472.6397112000268,None,472.6397112000268,None,472.6397112000268,None,473.8335901000537,None,473.8335901000537,None,473.8335901000537,None,,,,,,,,,,,,,,007,2022-05-09_13h32.45.648,Main,2022.1.1,60.120324838481615,
positive,negative,1,l,j,,,,,,,,,8,7,151,5,,,,,,,,,main,1,1,1,negative,positive,j,j,1,0.9498401000164449,474.8390132000204,475.85053470009007,475.83361070009414,None,474.8390132000204,None,474.8390132000204,None,474.8390132000204,None,476.7835042900057,None,476.7835042900057,None,476.7835042900057,None,,,,,,,,,,,,,,007,2022-05-09_13h32.45.648,Main,2022.1.1,60.120324838481615,
positive,positive,2,l,j,,,,,,,,,8,8,152,11,,,,,,,,,main,2,2,2,positive,positive,j,j,1,0.7480512000620365,476.7912250000518,477.80017539998516,477.7834949999815,None,476.7912250000518,None,476.7912250000518,None,476.7912250000518,None,478.53354189005915,None,478.53354189005915,None,478.53354189005915,None,,,,,,,,,,,,,,007,2022-05-09_13h32.45.648,Main,2022.1.1,60.120324838481615,
negative,positive,1,j,l,,,,,,,,,8,9,153,6,,,,,,,,,main,1,1,1,positive,negative,l,l,1,1.1988320000236854,478.53887689998373,479.55295959999785,479.5335545000853,None,478.53887689998373,None,478.53887689998373,None,478.53887689998373,None,480.73387089007304,None,480.73387089007304,None,480.73387089007304,None,,,,,,,,,,,,,,007,2022-05-09_13h32.45.648,Main,2022.1.1,60.120324838481615,
positive,neutral,1,l,j,,,,,,,,,8,10,154,8,,,,,,,,,main,2,2,1,neutral,positive,j,j,1,1.214303100015968,480.73949090007227,481.75295140000526,481.73340180004016,None,480.73949090007227,None,480.73949090007227,None,480.73949090007227,None,482.9498667900567,None,482.9498667900567,None,482.9498667900567,None,,,,,,,,,,,,,,007,2022-05-09_13h32.45.648,Main,2022.1.1,60.120324838481615,
negative,neutral,1,j,l,,,,,,,,,8,11,155,3,,,,,,,,,main,2,2,1,neutral,negative,l,l,1,0.9987171998945996,482.9562093000859,483.96671170007903,483.95004240004346,None,482.9562093000859,None,482.9562093000859,None,482.9562093000859,None,484.9501371900202,None,484.9501371900202,None,484.9501371900202,None,,,,,,,,,,,,,,007,2022-05-09_13h32.45.648,Main,2022.1.1,60.120324838481615,
negative,negative,2,j,l,,,,,,,,,8,12,156,9,,,,,,,,,main,2,2,2,negative,negative,l,l,1,8.863980500027537,484.955892900005,485.9694050999824,485.9500055999961,None,484.955892900005,None,484.955892900005,None,484.955892900005,None,494.8164598000003,None,494.8164598000003,None,494.8164598000003,None,,,,,,,,,,,,,,007,2022-05-09_13h32.45.648,Main,2022.1.1,60.120324838481615,
neutral,negative,2,k,k,,,,,,,,,8,13,157,16,,,,,,,,,main,2,2,2,negative,neutral,k,k,1,0.7708601000485942,495.81645190005656,496.8164785000263,496.8001386000542,None,495.81645190005656,None,495.81645190005656,None,495.81645190005656,None,497.5830515899812,None,497.5830515899812,None,497.5830515899812,None,,,,,,,,,,,,,,007,2022-05-09_13h32.45.648,Main,2022.1.1,60.120324838481615,
neutral,positive,1,k,k,,,,,,,,,8,14,158,4,,,,,,,,,main,2,2,1,positive,neutral,k,k,1,0.8474497999995947,497.5873561000917,498.602902200073,498.58306239999365,None,497.5873561000917,None,497.5873561000917,None,497.5873561000917,None,499.43306549006377,None,499.43306549006377,None,499.43306549006377,None,,,,,,,,,,,,,,007,2022-05-09_13h32.45.648,Main,2022.1.1,60.120324838481615,
negative,neutral,2,j,l,,,,,,,,,8,15,159,12,,,,,,,,,main,2,2,2,neutral,negative,l,l,1,1.0983440999407321,499.436523500015,500.4358646000037,500.4358646000037,None,499.436523500015,None,499.436523500015,None,499.436523500015,None,501.533042389981,None,501.533042389981,None,501.533042389981,None,,,,,,,,,,,,,,007,2022-05-09_13h32.45.648,Main,2022.1.1,60.120324838481615,
positive,negative,2,l,j,,,,,,,,,8,16,160,14,,,,,,,,,main,1,1,2,negative,positive,j,j,1,1.0142785999923944,501.5392462000018,502.55275310005527,502.5329781000037,None,501.5392462000018,None,501.5392462000018,None,501.5392462000018,None,503.54959948997714,None,503.54959948997714,None,503.54959948997714,None,,,,,,,,,,,,,,007,2022-05-09_13h32.45.648,Main,2022.1.1,60.120324838481615,
neutral,neutral,1,k,k,,,,,,,,,8,17,161,1,,,,,,,,,main,1,1,1,neutral,neutral,k,k,1,0.781488100066781,503.555168800056,504.56631140003446,504.5495789999841,None,503.555168800056,None,503.555168800056,None,503.555168800056,None,505.33287639004413,None,505.33287639004413,None,505.33287639004413,None,,,,,,,,,,,,,,007,2022-05-09_13h32.45.648,Main,2022.1.1,60.120324838481615,
positive,positive,1,l,j,,,,,,,,,9,0,162,2,,,,,,,,,main,2,2,1,positive,positive,j,j,1,1.2485963000217453,505.336149699986,506.3495433999924,506.33288030000404,None,505.336149699986,None,505.336149699986,None,505.336149699986,None,507.5828562900075,None,507.5828562900075,None,507.5828562900075,None,,,,,,,,,,,,,,007,2022-05-09_13h32.45.648,Main,2022.1.1,60.120324838481615,
positive,positive,2,l,j,,,,,,,,,9,1,163,11,,,,,,,,,main,1,1,2,positive,positive,j,j,1,0.7649094000225887,507.58628980000503,508.59980690001976,508.5857572000241,None,507.58628980000503,None,507.58628980000503,None,507.58628980000503,None,509.3494630900328,None,509.3494630900328,None,509.3494630900328,None,,,,,,,,,,,,,,007,2022-05-09_13h32.45.648,Main,2022.1.1,60.120324838481615,
positive,negative,2,l,j,,,,,,,,,9,2,164,14,,,,,,,,,main,1,1,2,negative,positive,j,j,1,0.7984496999997646,509.35290639998857,510.3495457000099,510.3495457000099,None,509.35290639998857,None,509.35290639998857,None,509.35290639998857,None,511.1494301900617,None,511.1494301900617,None,511.1494301900617,None,,,,,,,,,,,,,,007,2022-05-09_13h32.45.648,Main,2022.1.1,60.120324838481615,
neutral,neutral,1,k,k,,,,,,,,,9,3,165,1,,,,,,,,,main,2,2,1,neutral,neutral,k,k,1,0.8817912000231445,511.1523101000348,512.1660903000738,512.1494413000764,None,511.1523101000348,None,511.1523101000348,None,511.1523101000348,None,513.0327233899967,None,513.0327233899967,None,513.0327233899967,None,,,,,,,,,,,,,,007,2022-05-09_13h32.45.648,Main,2022.1.1,60.120324838481615,
negative,positive,1,j,l,,,,,,,,,9,4,166,6,,,,,,,,,main,1,1,1,positive,negative,l,l,1,1.2310927000362426,513.0420968000544,514.049391800072,514.0327174999984,None,513.0420968000544,None,513.0420968000544,None,513.0420968000544,None,515.2660810900503,None,515.2660810900503,None,515.2660810900503,None,,,,,,,,,,,,,,007,2022-05-09_13h32.45.648,Main,2022.1.1,60.120324838481615,
positive,negative,1,l,j,,,,,,,,,9,5,167,5,,,,,,,,,main,1,1,1,negative,positive,j,j,1,1.0987057000165805,515.2711930000223,516.2826631000498,516.2660654999781,None,515.2711930000223,None,515.2711930000223,None,515.2711930000223,None,517.3659870900098,None,517.3659870900098,None,517.3659870900098,None,,,,,,,,,,,,,,007,2022-05-09_13h32.45.648,Main,2022.1.1,60.120324838481615,
neutral,positive,2,k,k,,,,,,,,,9,6,168,13,,,,,,,,,main,2,2,2,positive,neutral,k,k,1,0.7983648999361321,517.3693807000527,518.3826260000933,518.365948599996,None,517.3693807000527,None,517.3693807000527,None,517.3693807000527,None,519.1660005900427,None,519.1660005900427,None,519.1660005900427,None,,,,,,,,,,,,,,007,2022-05-09_13h32.45.648,Main,2022.1.1,60.120324838481615,
neutral,negative,2,k,k,,,,,,,,,9,7,169,16,,,,,,,,,main,2,2,2,negative,neutral,k,k,1,0.7160794000374153,519.1722176000476,520.1825846000575,520.1659588000039,None,519.1722176000476,None,519.1722176000476,None,519.1722176000476,None,520.8825678900699,None,520.8825678900699,None,520.8825678900699,None,,,,,,,,,,,,,,007,2022-05-09_13h32.45.648,Main,2022.1.1,60.120324838481615,
negative,neutral,2,j,l,,,,,,,,,9,8,170,12,,,,,,,,,main,2,2,2,neutral,negative,l,l,1,0.9814950000727549,520.8867007000372,521.8992586000822,521.8825471000746,None,520.8867007000372,None,520.8867007000372,None,520.8867007000372,None,522.8660143899848,None,522.8660143899848,None,522.8660143899848,None,,,,,,,,,,,,,,007,2022-05-09_13h32.45.648,Main,2022.1.1,60.120324838481615,
negative,negative,2,j,l,,,,,,,,,9,9,171,9,,,,,,,,,main,1,1,2,negative,negative,l,l,1,0.8139598000561818,522.8721936000511,523.8825161000714,523.8661292000907,None,522.8721936000511,None,522.8721936000511,None,522.8721936000511,None,524.6825243900181,None,524.6825243900181,None,524.6825243900181,None,,,,,,,,,,,,,,007,2022-05-09_13h32.45.648,Main,2022.1.1,60.120324838481615,
positive,neutral,1,l,j,,,,,,,,,9,10,172,8,,,,,,,,,main,2,2,1,neutral,positive,j,j,1,0.8495616000145674,524.6939882000443,525.7019080000464,525.6824765000492,None,524.6939882000443,None,524.6939882000443,None,524.6939882000443,None,526.5344958899892,None,526.5344958899892,None,526.5344958899892,None,,,,,,,,,,,,,,007,2022-05-09_13h32.45.648,Main,2022.1.1,60.120324838481615,
negative,negative,1,j,l,,,,,,,,,9,11,173,0,,,,,,,,,main,2,2,1,negative,negative,l,l,1,0.8718388000270352,526.5397328999825,527.5500704000005,527.5353507000254,None,526.5397328999825,None,526.5397328999825,None,526.5397328999825,None,528.4048518900178,None,528.4048518900178,None,528.4048518900178,None,,,,,,,,,,,,,,007,2022-05-09_13h32.45.648,Main,2022.1.1,60.120324838481615,
neutral,positive,1,k,k,,,,,,,,,9,12,174,4,,,,,,,,,main,2,2,1,positive,neutral,k,k,1,0.7734208999900147,528.4108232000144,529.4157494000392,529.3994819000363,None,528.4108232000144,None,528.4108232000144,None,528.4108232000144,None,530.1823478900711,None,530.1823478900711,None,530.1823478900711,None,,,,,,,,,,,,,,007,2022-05-09_13h32.45.648,Main,2022.1.1,60.120324838481615,
positive,neutral,2,l,j,,,,,,,,,9,13,175,17,,,,,,,,,main,2,2,2,neutral,positive,j,j,1,0.8315388000337407,530.185973900021,531.1990213000681,531.1824180000694,None,530.185973900021,None,530.185973900021,None,530.185973900021,None,532.0156427899725,None,532.0156427899725,None,532.0156427899725,None,,,,,,,,,,,,,,007,2022-05-09_13h32.45.648,Main,2022.1.1,60.120324838481615,
neutral,negative,1,k,k,,,,,,,,,9,14,176,7,,,,,,,,,main,1,1,1,negative,neutral,k,k,1,0.7142508999677375,532.0196908999933,533.03231280006,533.0156522000907,None,532.0196908999933,None,532.0196908999933,None,532.0196908999933,None,533.732272990013,None,533.732272990013,None,533.732272990013,None,,,,,,,,,,,,,,007,2022-05-09_13h32.45.648,Main,2022.1.1,60.120324838481615,
neutral,neutral,2,k,k,,,,,,,,,9,15,177,10,,,,,,,,,main,2,2,2,neutral,neutral,k,k,1,0.5817348000127822,533.7384611000307,534.7489478000207,534.7351587000303,None,533.7384611000307,None,533.7384611000307,None,533.7384611000307,None,535.3155804900103,None,535.3155804900103,None,535.3155804900103,None,,,,,,,,,,,,,,007,2022-05-09_13h32.45.648,Main,2022.1.1,60.120324838481615,
negative,neutral,1,j,l,,,,,,,,,9,16,178,3,,,,,,,,,main,1,1,1,neutral,negative,l,l,1,1.0150353000499308,535.3189326000866,536.315600699978,536.315600699978,None,535.3189326000866,None,535.3189326000866,None,535.3189326000866,None,537.332208790083,None,537.332208790083,None,537.332208790083,None,,,,,,,,,,,,,,007,2022-05-09_13h32.45.648,Main,2022.1.1,60.120324838481615,
negative,positive,2,j,l,,,,,,,,,9,17,179,15,,,,,,,,,main,2,2,2,positive,negative,l,l,1,1.0816914000315592,537.3380731000798,538.3488777000457,538.3322191000916,None,537.3380731000798,None,537.3380731000798,None,537.3380731000798,None,539.4155127900536,None,539.4155127900536,None,539.4155127900536,None,,,,,,,,,,,,,,007,2022-05-09_13h32.45.648,Main,2022.1.1,60.120324838481615,
negative,positive,2,j,l,,,,,,,,,10,0,180,15,,,,,,,,,main,1,1,2,positive,negative,l,l,1,0.8486343000549823,539.4213667000877,540.4322158000432,540.401697000023,None,539.4213667000877,None,539.4213667000877,None,539.4213667000877,None,541.265483090037,None,541.265483090037,None,541.265483090037,None,,,,,,,,,,,,,,007,2022-05-09_13h32.45.648,Main,2022.1.1,60.120324838481615,
negative,negative,1,j,l,,,,,,,,,10,1,181,0,,,,,,,,,main,1,1,1,negative,negative,l,l,1,0.931888599996455,541.2711255000904,542.2849843000295,542.2654444000218,None,541.2711255000904,None,541.2711255000904,None,541.2711255000904,None,543.1987417899887,None,543.1987417899887,None,543.1987417899887,None,,,,,,,,,,,,,,007,2022-05-09_13h32.45.648,Main,2022.1.1,60.120324838481615,
neutral,positive,2,k,k,,,,,,,,,10,2,182,13,,,,,,,,,main,1,1,2,positive,neutral,k,k,1,0.7815398999955505,543.2044499000767,544.2182818000438,544.1987458000658,None,543.2044499000767,None,543.2044499000767,None,543.2044499000767,None,544.9820328900474,None,544.9820328900474,None,544.9820328900474,None,,,,,,,,,,,,,,007,2022-05-09_13h32.45.648,Main,2022.1.1,60.120324838481615,
positive,positive,2,l,j,,,,,,,,,10,3,183,11,,,,,,,,,main,2,2,2,positive,positive,j,j,1,0.733770800055936,544.985548100085,545.9820290000644,545.9820290000644,None,544.985548100085,None,544.985548100085,None,544.985548100085,None,546.7175082900445,None,546.7175082900445,None,546.7175082900445,None,,,,,,,,,,,,,,007,2022-05-09_13h32.45.648,Main,2022.1.1,60.120324838481615,
positive,neutral,1,l,j,,,,,,,,,10,4,184,8,,,,,,,,,main,2,2,1,neutral,positive,j,j,1,0.8294742000289261,546.7227928000502,547.731998900068,547.7153916000389,None,546.7227928000502,None,546.7227928000502,None,546.7227928000502,None,548.5486411900143,None,548.5486411900143,None,548.5486411900143,None,,,,,,,,,,,,,,007,2022-05-09_13h32.45.648,Main,2022.1.1,60.120324838481615,
positive,negative,1,l,j,,,,,,,,,10,5,185,5,,,,,,,,,main,2,2,1,negative,positive,j,j,1,0.7151634000474587,548.5518314000219,549.5490075000562,549.5490075000562,None,548.5518314000219,None,548.5518314000219,None,548.5518314000219,None,550.2652522900258,None,550.2652522900258,None,550.2652522900258,None,,,,,,,,,,,,,,007,2022-05-09_13h32.45.648,Main,2022.1.1,60.120324838481615,
neutral,neutral,1,k,k,,,,,,,,,10,6,186,1,,,,,,,,,main,2,2,1,neutral,neutral,k,k,1,0.7482321999268606,550.2705606999807,551.2819229000015,551.265263200039,None,550.2705606999807,None,550.2705606999807,None,550.2705606999807,None,552.015214190085,None,552.015214190085,None,552.015214190085,None,,,,,,,,,,,,,,007,2022-05-09_13h32.45.648,Main,2022.1.1,60.120324838481615,
neutral,positive,1,k,k,,,,,,,,,10,7,187,4,,,,,,,,,main,2,2,1,positive,neutral,k,k,1,0.6820724999997765,552.0200475000311,553.0346778000239,553.0152118999977,None,552.0200475000311,None,552.0200475000311,None,552.0200475000311,None,553.6985392900766,None,553.6985392900766,None,553.6985392900766,None,,,,,,,,,,,,,,007,2022-05-09_13h32.45.648,Main,2022.1.1,60.120324838481615,
negative,neutral,2,j,l,,,,,,,,,10,8,188,12,,,,,,,,,main,2,2,2,neutral,negative,l,l,1,0.7817173999501392,553.7019354000222,554.715394900064,554.6988010000205,None,553.7019354000222,None,553.7019354000222,None,553.7019354000222,None,555.4818528900738,None,555.4818528900738,None,555.4818528900738,None,,,,,,,,,,,,,,007,2022-05-09_13h32.45.648,Main,2022.1.1,60.120324838481615,
negative,negative,2,j,l,,,,,,,,,10,9,189,9,,,,,,,,,main,2,2,2,negative,negative,l,l,1,0.7313922999892384,555.4869336000411,556.4987647000235,556.4847056000726,None,555.4869336000411,None,555.4869336000411,None,555.4869336000411,None,557.2151122900774,None,557.2151122900774,None,557.2151122900774,None,,,,,,,,,,,,,,007,2022-05-09_13h32.45.648,Main,2022.1.1,60.120324838481615,
neutral,neutral,2,k,k,,,,,,,,,10,10,190,10,,,,,,,,,main,1,1,2,neutral,neutral,k,k,1,0.7033670999808237,557.2206794000231,558.2317839000607,558.2151193000609,None,557.2206794000231,None,557.2206794000231,None,557.2206794000231,None,558.9185464899871,None,558.9185464899871,None,558.9185464899871,None,,,,,,,,,,,,,,007,2022-05-09_13h32.45.648,Main,2022.1.1,60.120324838481615,
neutral,negative,1,k,k,,,,,,,,,10,11,191,7,,,,,,,,,main,2,2,1,negative,neutral,k,k,1,0.6814245999557897,558.9220898000058,559.931734999991,559.9151113000698,None,558.9220898000058,None,558.9220898000058,None,558.9220898000058,None,560.5983643900487,None,560.5983643900487,None,560.5983643900487,None,,,,,,,,,,,,,,007,2022-05-09_13h32.45.648,Main,2022.1.1,60.120324838481615,
negative,positive,1,j,l,,,,,,,,,10,12,192,6,,,,,,,,,main,1,1,1,positive,negative,l,l,1,0.7775480999844149,560.6054332000203,561.6153224000009,561.5983932000818,None,560.6054332000203,None,560.6054332000203,None,560.6054332000203,None,562.3816747900215,None,562.3816747900215,None,562.3816747900215,None,,,,,,,,,,,,,,007,2022-05-09_13h32.45.648,Main,2022.1.1,60.120324838481615,
positive,neutral,2,l,j,,,,,,,,,10,13,193,17,,,,,,,,,main,2,2,2,neutral,positive,j,j,1,0.848422999959439,562.3866548000369,563.4012037999928,563.3816702000331,None,562.3866548000369,None,562.3866548000369,None,562.3866548000369,None,564.2316213900573,None,564.2316213900573,None,564.2316213900573,None,,,,,,,,,,,,,,007,2022-05-09_13h32.45.648,Main,2022.1.1,60.120324838481615,
positive,positive,1,l,j,,,,,,,,,10,14,194,2,,,,,,,,,main,2,2,1,positive,positive,j,j,1,0.7808767999522388,564.2393256999785,565.2482803000603,565.234605900012,None,564.2393256999785,None,564.2393256999785,None,564.2393256999785,None,566.0146595900529,None,566.0146595900529,None,566.0146595900529,None,,,,,,,,,,,,,,007,2022-05-09_13h32.45.648,Main,2022.1.1,60.120324838481615,
negative,neutral,1,j,l,,,,,,,,,10,15,195,3,,,,,,,,,main,2,2,1,neutral,negative,l,l,1,0.8150570000289008,566.0200988000724,567.0315833000932,567.0149241000181,None,566.0200988000724,None,566.0200988000724,None,566.0200988000724,None,567.8315418900107,None,567.8315418900107,None,567.8315418900107,None,,,,,,,,,,,,,,007,2022-05-09_13h32.45.648,Main,2022.1.1,60.120324838481615,
neutral,negative,2,k,k,,,,,,,,,10,16,196,16,,,,,,,,,main,2,2,2,negative,neutral,k,k,1,0.7659137999871746,567.8375705999788,568.8482454000041,568.8315625999821,None,567.8375705999788,None,567.8375705999788,None,567.8375705999788,None,569.5981661900529,None,569.5981661900529,None,569.5981661900529,None,,,,,,,,,,,,,,007,2022-05-09_13h32.45.648,Main,2022.1.1,60.120324838481615,
positive,negative,2,l,j,,,,,,,,,10,17,197,14,,,,,,,,,main,2,2,2,negative,positive,j,j,1,1.1309142000973225,569.6040664000902,570.6177027000813,570.6011143000796,None,569.6040664000902,None,569.6040664000902,None,569.6040664000902,None,571.7314820900443,None,571.7314820900443,None,571.7314820900443,None,,,,,,,,,,,,,,007,2022-05-09_13h32.45.648,Main,2022.1.1,60.120324838481615,
negative,neutral,1,j,l,,,,,,,,,11,0,198,3,,,,,,,,,main,1,1,1,neutral,negative,l,j,0,0.8982835999922827,571.7345540000824,572.7481413000496,572.7314759000437,None,571.7345540000824,None,571.7345540000824,None,571.7345540000824,None,573.6314421000425,None,573.6314421000425,None,573.6314421000425,None,,,,,,,,,,,,,,007,2022-05-09_13h32.45.648,Main,2022.1.1,60.120324838481615,
neutral,negative,2,k,k,,,,,,,,,11,1,199,16,,,,,,,,,main,1,1,2,negative,neutral,k,k,1,0.8526427999604493,574.6330117000034,575.6485056000529,575.6147851999849,None,574.6330117000034,None,574.6330117000034,None,574.6330117000034,None,576.4813597900444,None,576.4813597900444,None,576.4813597900444,None,,,,,,,,,,,,,,007,2022-05-09_13h32.45.648,Main,2022.1.1,60.120324838481615,
neutral,positive,2,k,k,,,,,,,,,11,2,200,13,,,,,,,,,main,2,2,2,positive,neutral,k,k,1,0.998334699892439,576.4865615000017,577.4980547000887,577.4813732000766,None,576.4865615000017,None,576.4865615000017,None,576.4865615000017,None,578.4813071899931,None,578.4813071899931,None,578.4813071899931,None,,,,,,,,,,,,,,007,2022-05-09_13h32.45.648,Main,2022.1.1,60.120324838481615,
neutral,negative,1,k,k,,,,,,,,,11,3,201,7,,,,,,,,,main,1,1,1,negative,neutral,k,k,1,1.1811709000030532,578.4874777999939,579.4983237000415,579.4813339000102,None,578.4874777999939,None,578.4874777999939,None,578.4874777999939,None,580.6645956900553,None,580.6645956900553,None,580.6645956900553,None,,,,,,,,,,,,,,007,2022-05-09_13h32.45.648,Main,2022.1.1,60.120324838481615,
negative,neutral,2,j,l,,,,,,,,,11,4,202,12,,,,,,,,,main,2,2,2,neutral,negative,l,l,1,0.99855620006565,580.6697162000928,581.684205000056,581.6675734000746,None,580.6697162000928,None,580.6697162000928,None,580.6697162000928,None,582.6645397899789,None,582.6645397899789,None,582.6645397899789,None,,,,,,,,,,,,,,007,2022-05-09_13h32.45.648,Main,2022.1.1,60.120324838481615,
negative,positive,2,j,l,,,,,,,,,11,5,203,15,,,,,,,,,main,1,1,2,positive,negative,l,l,1,1.049077299889177,582.6698495000601,583.6812338000163,583.664571100031,None,582.6698495000601,None,582.6698495000601,None,582.6698495000601,None,584.7145003900747,None,584.7145003900747,None,584.7145003900747,None,,,,,,,,,,,,,,007,2022-05-09_13h32.45.648,Main,2022.1.1,60.120324838481615,
positive,positive,2,l,j,,,,,,,,,11,6,204,11,,,,,,,,,main,2,2,2,positive,positive,j,j,1,1.2168930999469012,584.7205925000599,585.7311941999942,585.7145204000408,None,584.7205925000599,None,584.7205925000599,None,584.7205925000599,None,586.9339011900244,None,586.9339011900244,None,586.9339011900244,None,,,,,,,,,,,,,,007,2022-05-09_13h32.45.648,Main,2022.1.1,60.120324838481615,
positive,neutral,1,l,j,,,,,,,,,11,7,205,8,,,,,,,,,main,1,1,1,neutral,positive,j,j,1,1.0116837000241503,586.9407338000601,587.9478576000547,587.9311510000844,None,586.9407338000601,None,586.9407338000601,None,586.9407338000601,None,588.9478427900118,None,588.9478427900118,None,588.9478427900118,None,,,,,,,,,,,,,,007,2022-05-09_13h32.45.648,Main,2022.1.1,60.120324838481615,
neutral,neutral,2,k,k,,,,,,,,,11,8,206,10,,,,,,,,,main,2,2,2,neutral,neutral,k,k,1,0.9314954999135807,588.953581299982,589.9713055000175,589.9713055000175,None,588.953581299982,None,588.953581299982,None,588.953581299982,None,590.881056290085,None,590.881056290085,None,590.881056290085,None,,,,,,,,,,,,,,007,2022-05-09_13h32.45.648,Main,2022.1.1,60.120324838481615,
positive,negative,1,l,j,,,,,,,,,11,9,207,5,,,,,,,,,main,1,1,1,negative,positive,j,j,1,1.2984852000372484,590.8864929000847,591.8982156000566,591.8810574000236,None,590.8864929000847,None,590.8864929000847,None,590.8864929000847,None,593.1811066900497,None,593.1811066900497,None,593.1811066900497,None,,,,,,,,,,,,,,007,2022-05-09_13h32.45.648,Main,2022.1.1,60.120324838481615,
negative,negative,1,j,l,,,,,,,,,11,10,208,0,,,,,,,,,main,1,1,1,negative,negative,l,l,1,0.8982710000127554,593.1863699000096,594.1976704000263,594.18099360005,None,593.1863699000096,None,593.1863699000096,None,593.1863699000096,None,595.0809607900097,None,595.0809607900097,None,595.0809607900097,None,,,,,,,,,,,,,,007,2022-05-09_13h32.45.648,Main,2022.1.1,60.120324838481615,
negative,negative,2,j,l,,,,,,,,,11,11,209,9,,,,,,,,,main,1,1,2,negative,negative,l,l,1,1.265022800071165,595.0861101000337,596.097620000015,596.0809687000001,None,595.0861101000337,None,595.0861101000337,None,595.0861101000337,None,597.347648890072,None,597.347648890072,None,597.347648890072,None,,,,,,,,,,,,,,007,2022-05-09_13h32.45.648,Main,2022.1.1,60.120324838481615,
negative,positive,1,j,l,,,,,,,,,11,12,210,6,,,,,,,,,main,1,1,1,positive,negative,l,l,1,0.9157127999933437,597.353597600013,598.3642294000601,598.3475694999797,None,597.353597600013,None,597.353597600013,None,597.353597600013,None,599.2646065899986,None,599.2646065899986,None,599.2646065899986,None,,,,,,,,,,,,,,007,2022-05-09_13h32.45.648,Main,2022.1.1,60.120324838481615,
positive,neutral,2,l,j,,,,,,,,,11,13,211,17,,,,,,,,,main,1,1,2,neutral,positive,j,j,1,1.1007585000479594,599.2702084000921,600.2808545000153,600.2642026999965,None,599.2702084000921,None,599.2702084000921,None,599.2702084000921,None,601.3665053899982,None,601.3665053899982,None,601.3665053899982,None,,,,,,,,,,,,,,007,2022-05-09_13h32.45.648,Main,2022.1.1,60.120324838481615,
positive,negative,2,l,j,,,,,,,,,11,14,212,14,,,,,,,,,main,2,2,2,negative,positive,j,j,1,1.1619911000598222,601.3715283999918,602.3808139000321,602.3641612000065,None,601.3715283999918,None,601.3715283999918,None,601.3715283999918,None,603.5308304900187,None,603.5308304900187,None,603.5308304900187,None,,,,,,,,,,,,,,007,2022-05-09_13h32.45.648,Main,2022.1.1,60.120324838481615,
neutral,positive,1,k,k,,,,,,,,,11,15,213,4,,,,,,,,,main,1,1,1,positive,neutral,k,k,1,0.9983320999890566,603.5336821000092,604.5336251000408,604.517049600021,None,603.5336821000092,None,603.5336821000092,None,603.5336821000092,None,605.530765689991,None,605.530765689991,None,605.530765689991,None,,,,,,,,,,,,,,007,2022-05-09_13h32.45.648,Main,2022.1.1,60.120324838481615,
neutral,neutral,1,k,k,,,,,,,,,11,16,214,1,,,,,,,,,main,1,1,1,neutral,neutral,k,k,1,1.0484856999246404,605.5363219000865,606.5474068000913,606.5336098000407,None,605.5363219000865,None,605.5363219000865,None,605.5363219000865,None,607.5806977899862,None,607.5806977899862,None,607.5806977899862,None,,,,,,,,,,,,,,007,2022-05-09_13h32.45.648,Main,2022.1.1,60.120324838481615,
positive,positive,1,l,j,,,,,,,,,11,17,215,2,,,,,,,,,main,2,2,1,positive,positive,j,j,1,0.9819180000340566,607.5861901000608,608.5973787000403,608.5807251000078,None,607.5861901000608,None,607.5861901000608,None,607.5861901000608,None,609.5639839900774,None,609.5639839900774,None,609.5639839900774,None,,,,,,,,,,,,,,007,2022-05-09_13h32.45.648,Main,2022.1.1,60.120324838481615,
negative,neutral,2,j,l,,,,,,,,,12,0,216,12,,,,,,,,,main,1,1,2,neutral,negative,l,l,1,0.898200000054203,609.5671596000902,610.580643900088,610.5639796000905,None,609.5671596000902,None,609.5671596000902,None,609.5671596000902,None,611.4639393899939,None,611.4639393899939,None,611.4639393899939,None,,,,,,,,,,,,,,007,2022-05-09_13h32.45.648,Main,2022.1.1,60.120324838481615,
negative,neutral,1,j,l,,,,,,,,,12,1,217,3,,,,,,,,,main,1,1,1,neutral,negative,l,l,1,0.8818358000135049,611.4687318999786,612.4833962999983,612.4472769000567,None,611.4687318999786,None,611.4687318999786,None,611.4687318999786,None,613.3472278900095,None,613.3472278900095,None,613.3472278900095,None,,,,,,,,,,,,,,007,2022-05-09_13h32.45.648,Main,2022.1.1,60.120324838481615,
positive,neutral,1,l,j,,,,,,,,,12,2,218,8,,,,,,,,,main,2,2,1,neutral,positive,j,l,0,1.0816897000186145,613.3531529000029,614.363960799994,614.3472993000178,None,613.3531529000029,None,613.3531529000029,None,613.3531529000029,None,615.4305698000826,None,615.4305698000826,None,615.4305698000826,None,,,,,,,,,,,,,,007,2022-05-09_13h32.45.648,Main,2022.1.1,60.120324838481615,
positive,negative,2,l,j,,,,,,,,,12,3,219,14,,,,,,,,,main,1,1,2,negative,positive,j,j,1,0.8866135999560356,616.4305270999903,617.4305017000297,617.4138252000557,None,616.4305270999903,None,616.4305270999903,None,616.4305270999903,None,618.3137876899797,None,618.3137876899797,None,618.3137876899797,None,,,,,,,,,,,,,,007,2022-05-09_13h32.45.648,Main,2022.1.1,60.120324838481615,
neutral,positive,1,k,k,,,,,,,,,12,4,220,4,,,,,,,,,main,2,2,1,positive,neutral,k,k,1,0.8481720000272617,618.3173405000707,619.3304542000405,619.313797299983,None,618.3173405000707,None,618.3173405000707,None,618.3173405000707,None,620.1637541900506,None,620.1637541900506,None,620.1637541900506,None,,,,,,,,,,,,,,007,2022-05-09_13h32.45.648,Main,2022.1.1,60.120324838481615,
positive,negative,1,l,j,,,,,,,,,12,5,221,5,,,,,,,,,main,2,2,1,negative,positive,j,k,0,1.0977553999982774,620.1697303000838,621.1804110000376,621.1666017000098,None,620.1697303000838,None,620.1697303000838,None,620.1697303000838,None,622.2637506000465,None,622.2637506000465,None,622.2637506000465,None,,,,,,,,,,,,,,007,2022-05-09_13h32.45.648,Main,2022.1.1,60.120324838481615,
neutral,negative,1,k,k,,,,,,,,,12,6,222,7,,,,,,,,,main,1,1,1,negative,neutral,k,k,1,0.9865680000511929,623.2666475999868,624.2803325999994,624.2470149000874,None,623.2666475999868,None,623.2666475999868,None,623.2666475999868,None,625.2470155900461,None,625.2470155900461,None,625.2470155900461,None,,,,,,,,,,,,,,007,2022-05-09_13h32.45.648,Main,2022.1.1,60.120324838481615,
neutral,positive,2,k,k,,,,,,,,,12,7,223,13,,,,,,,,,main,2,2,2,positive,neutral,k,k,1,0.7685103999683633,625.2526361000491,626.2639121999964,626.2473235999933,None,625.2526361000491,None,625.2526361000491,None,625.2526361000491,None,627.0136628900306,None,627.0136628900306,None,627.0136628900306,None,,,,,,,,,,,,,,007,2022-05-09_13h32.45.648,Main,2022.1.1,60.120324838481615,
