target,distractor,set,ans1,ans2,rep_loop2.thisRepN,rep_loop2.thisTrialN,rep_loop2.thisN,rep_loop2.thisIndex,flanker_prac_loop.thisRepN,flanker_prac_loop.thisTrialN,flanker_prac_loop.thisN,flanker_prac_loop.thisIndex,flanker_main_loop.thisRepN,flanker_main_loop.thisTrialN,flanker_main_loop.thisN,flanker_main_loop.thisIndex,fl_inst_resp.keys,fl_inst_resp.rt,sound_1.started,sound_1.stopped,image_4.started,image_4.stopped,back_2.started,back_2.stopped,main_prac,fl_cold,fl_colt,fl_set,fl_dcond,fl_tcond,fl_ans,fl_res,fl_corr,fl_rt,fix_fl.started,fix_fl.stopped,targ.started,targ.stopped,j_button.started,j_button.stopped,k_button.started,k_button.stopped,l_button.started,l_button.stopped,j_button2.started,j_button2.stopped,k_button2.started,k_button2.stopped,l_button2.started,l_button2.stopped,mainback.started,mainback.stopped,key_resp.keys,key_resp.rt,mouse_6.x,mouse_6.y,mouse_6.leftButton,mouse_6.midButton,mouse_6.rightButton,mouse_6.started,mouse_6.stopped,text_2.started,text_2.stopped,id*,date,expName,psychopyVersion,frameRate,
,,,,,0,0,0,0,,,,,,,,,space,60.03986909997184,16.509203429950865,None,76.57742200000212,None,,,,,,,,,,,,,,,,,,,,,,,,,,,,,,,,,,,,,,,,,,008,2022-05-09_15h26.10.121,Main,2022.1.1,60.17603896578809,
negative,positive,1,j,l,,,,,0,0,0,6,,,,,,,,,,,98.67695310001727,None,prac,2,2,1,positive,negative,j,j,1,3.075596100068651,100.68418069998734,101.69066179997753,101.65730780002195,None,100.68418069998734,None,100.68418069998734,None,100.68418069998734,None,104.75740380003117,None,104.75740380003117,None,104.75740380003117,None,,,,,,,,,,,,,,008,2022-05-09_15h26.10.121,Main,2022.1.1,60.17603896578809,
negative,positive,2,j,l,,,,,0,1,1,15,,,,,,,,,,,,,prac,1,1,2,positive,negative,j,j,1,1.0527788000181317,105.76135079993401,106.77388430002611,106.74062589998357,None,105.76135079993401,None,105.76135079993401,None,105.76135079993401,None,107.8071896300302,None,107.8071896300302,None,107.8071896300302,None,,,,,,,,,,,,,,008,2022-05-09_15h26.10.121,Main,2022.1.1,60.17603896578809,
negative,neutral,2,j,l,,,,,0,2,2,12,,,,,,,,,,,,,prac,2,2,2,neutral,negative,j,j,1,0.6817977000027895,107.81121419998817,108.82388749998063,108.80718070000876,None,107.81121419998817,None,107.81121419998817,None,107.81121419998817,None,109.49048553003232,None,109.49048553003232,None,109.49048553003232,None,,,,,,,,,,,,,,008,2022-05-09_15h26.10.121,Main,2022.1.1,60.17603896578809,
neutral,neutral,1,k,k,,,,,0,3,3,1,,,,,,,,,,,,,prac,2,2,1,neutral,neutral,k,k,1,1.0152080999687314,109.49363799998537,110.50730439997278,110.49048539996147,None,109.49363799998537,None,109.49363799998537,None,109.49363799998537,None,111.50713173000841,None,111.50713173000841,None,111.50713173000841,None,,,,,,,,,,,,,,008,2022-05-09_15h26.10.121,Main,2022.1.1,60.17603896578809,
negative,negative,1,j,l,,,,,0,4,4,0,,,,,,,,,,,,,prac,1,1,1,negative,negative,j,j,1,0.797807399998419,111.5238049000036,112.5238859000383,112.50711140001658,None,111.5238049000036,None,111.5238049000036,None,111.5238049000036,None,113.30706182998838,None,113.30706182998838,None,113.30706182998838,None,,,,,,,,,,,,,,008,2022-05-09_15h26.10.121,Main,2022.1.1,60.17603896578809,
positive,positive,1,l,j,,,,,0,5,5,2,,,,,,,,,,,,,prac,1,1,1,positive,positive,l,l,1,0.9182761000702158,113.31230879994109,114.32374060002621,114.3070758000249,None,113.31230879994109,None,113.31230879994109,None,113.31230879994109,None,115.22347482995829,None,115.22347482995829,None,115.22347482995829,None,,,,,,,,,,,,,,008,2022-05-09_15h26.10.121,Main,2022.1.1,60.17603896578809,
neutral,negative,2,k,k,,,,,0,6,6,16,,,,,,,,,,,,,prac,2,2,2,negative,neutral,k,k,1,0.8272181000793353,115.23143629997503,116.24038370000198,116.22369649994653,None,115.23143629997503,None,115.23143629997503,None,115.23143629997503,None,117.05698282996892,None,117.05698282996892,None,117.05698282996892,None,,,,,,,,,,,,,,008,2022-05-09_15h26.10.121,Main,2022.1.1,60.17603896578809,
neutral,neutral,2,k,k,,,,,0,7,7,10,,,,,,,,,,,,,prac,2,2,2,neutral,neutral,k,k,1,0.6497197999851778,117.06055779999588,118.07366759993602,118.05700070003513,None,117.06055779999588,None,117.06055779999588,None,117.06055779999588,None,118.70703762994381,None,118.70703762994381,None,118.70703762994381,None,,,,,,,,,,,,,,008,2022-05-09_15h26.10.121,Main,2022.1.1,60.17603896578809,
negative,negative,2,j,l,,,,,0,8,8,9,,,,,,,,,,,,,prac,1,1,2,negative,negative,j,j,1,0.7639932000311092,118.7109754999401,119.72636550001334,119.70692110003438,None,118.7109754999401,None,118.7109754999401,None,118.7109754999401,None,120.4736065300298,None,120.4736065300298,None,120.4736065300298,None,,,,,,,,,,,,,,008,2022-05-09_15h26.10.121,Main,2022.1.1,60.17603896578809,
positive,negative,2,l,j,,,,,0,9,9,14,,,,,,,,,,,,,prac,2,2,2,negative,positive,l,l,1,0.8154605000745505,120.47670310002286,121.49026530003175,121.4736049999483,None,120.47670310002286,None,120.47670310002286,None,120.47670310002286,None,122.29020593004535,None,122.29020593004535,None,122.29020593004535,None,,,,,,,,,,,,,,008,2022-05-09_15h26.10.121,Main,2022.1.1,60.17603896578809,
positive,neutral,1,l,j,,,,,0,10,10,8,,,,,,,,,,,,,prac,1,1,1,neutral,positive,l,l,1,0.8487438999582082,122.29329099995084,123.30685850000009,123.29019430000335,None,122.29329099995084,None,122.29329099995084,None,122.29329099995084,None,124.14017253000057,None,124.14017253000057,None,124.14017253000057,None,,,,,,,,,,,,,,008,2022-05-09_15h26.10.121,Main,2022.1.1,60.17603896578809,
positive,neutral,2,l,j,,,,,0,11,11,17,,,,,,,,,,,,,prac,2,2,2,neutral,positive,l,l,1,0.664293700014241,124.14418189995922,125.15693389996886,125.14018280000892,None,124.14418189995922,None,124.14418189995922,None,124.14418189995922,None,125.8068033299991,None,125.8068033299991,None,125.8068033299991,None,,,,,,,,,,,,,,008,2022-05-09_15h26.10.121,Main,2022.1.1,60.17603896578809,
neutral,positive,2,k,k,,,,,0,12,12,13,,,,,,,,,,,,,prac,1,1,2,positive,neutral,k,k,1,0.7653465999756008,125.80970879993401,126.8235480999574,126.80679099995177,None,125.80970879993401,None,125.80970879993401,None,125.80970879993401,None,127.57342212999939,None,127.57342212999939,None,127.57342212999939,None,,,,,,,,,,,,,,008,2022-05-09_15h26.10.121,Main,2022.1.1,60.17603896578809,
negative,neutral,1,j,l,,,,,0,13,13,3,,,,,,,,,,,,,prac,2,2,1,neutral,negative,j,j,1,0.715153899975121,127.5901136000175,128.59016319992952,128.5734562999569,None,127.5901136000175,None,127.5901136000175,None,127.5901136000175,None,129.2900650300202,None,129.2900650300202,None,129.2900650300202,None,,,,,,,,,,,,,,008,2022-05-09_15h26.10.121,Main,2022.1.1,60.17603896578809,
positive,positive,2,l,j,,,,,0,14,14,11,,,,,,,,,,,,,prac,1,1,2,positive,positive,l,l,1,0.8156765999738127,129.2938077999279,130.3067342999857,130.2900670999661,None,129.2938077999279,None,129.2938077999279,None,129.2938077999279,None,131.10670963003068,None,131.10670963003068,None,131.10670963003068,None,,,,,,,,,,,,,,008,2022-05-09_15h26.10.121,Main,2022.1.1,60.17603896578809,
neutral,negative,1,k,k,,,,,0,15,15,7,,,,,,,,,,,,,prac,2,2,1,negative,neutral,k,k,1,0.6831938999239355,131.11037020001095,132.10669269994833,132.10669269994833,None,131.11037020001095,None,131.11037020001095,None,131.11037020001095,None,132.79007262996166,None,132.79007262996166,None,132.79007262996166,None,,,,,,,,,,,,,,008,2022-05-09_15h26.10.121,Main,2022.1.1,60.17603896578809,
positive,negative,1,l,j,,,,,0,16,16,5,,,,,,,,,,,,,prac,1,1,1,negative,positive,l,l,1,0.8303132000146434,132.79463979997672,133.809507100028,133.7899673000211,None,132.79463979997672,None,132.79463979997672,None,132.79463979997672,None,134.62332943003858,None,134.62332943003858,None,134.62332943003858,None,,,,,,,,,,,,,,008,2022-05-09_15h26.10.121,Main,2022.1.1,60.17603896578809,
neutral,positive,1,k,k,,,,,0,17,17,4,,,,,,,,,,,,,prac,2,2,1,positive,neutral,k,k,1,0.7484681999776512,134.62661979999393,135.6399276999291,135.62326329993084,None,134.62661979999393,None,134.62661979999393,None,134.62661979999393,None,136.3732411299483,None,136.3732411299483,None,136.3732411299483,None,,,,,,,,,,,,,,008,2022-05-09_15h26.10.121,Main,2022.1.1,60.17603896578809,
negative,negative,2,j,l,,,,,1,0,18,9,,,,,,,,,,,,,prac,2,2,2,negative,negative,j,j,1,0.7817507999716327,136.37640910001937,137.3899707000237,137.37323100003414,None,136.37640910001937,None,136.37640910001937,None,136.37640910001937,None,138.15665623001988,None,138.15665623001988,None,138.15665623001988,None,,,,,,,,,,,,,,008,2022-05-09_15h26.10.121,Main,2022.1.1,60.17603896578809,
neutral,negative,2,k,k,,,,,1,1,19,16,,,,,,,,,,,,,prac,2,2,2,negative,neutral,k,k,1,0.7987530999816954,138.16128240001854,139.17332599998917,139.15655279997736,None,138.16128240001854,None,138.16128240001854,None,138.16128240001854,None,139.9565065299743,None,139.9565065299743,None,139.9565065299743,None,,,,,,,,,,,,,,008,2022-05-09_15h26.10.121,Main,2022.1.1,60.17603896578809,
neutral,positive,1,k,k,,,,,1,2,20,4,,,,,,,,,,,,,prac,1,1,1,positive,neutral,k,k,1,0.6976597000611946,139.97323979996145,140.97315859992523,140.95649529993534,None,139.97323979996145,None,139.97323979996145,None,139.97323979996145,None,141.6564843299915,None,141.6564843299915,None,141.6564843299915,None,,,,,,,,,,,,,,008,2022-05-09_15h26.10.121,Main,2022.1.1,60.17603896578809,
neutral,positive,2,k,k,,,,,1,3,21,13,,,,,,,,,,,,,prac,2,2,2,positive,neutral,k,k,1,0.6322274999693036,141.66046399995685,142.6731359999394,142.64266150002368,None,141.66046399995685,None,141.66046399995685,None,141.66046399995685,None,143.2897817299585,None,143.2897817299585,None,143.2897817299585,None,,,,,,,,,,,,,,008,2022-05-09_15h26.10.121,Main,2022.1.1,60.17603896578809,
negative,positive,1,j,l,,,,,1,4,22,6,,,,,,,,,,,,,prac,2,2,1,positive,negative,j,j,1,0.8654406999703497,143.29296659992542,144.28977060003672,144.27604010002688,None,143.29296659992542,None,143.29296659992542,None,143.29296659992542,None,145.15641423003981,None,145.15641423003981,None,145.15641423003981,None,,,,,,,,,,,,,,008,2022-05-09_15h26.10.121,Main,2022.1.1,60.17603896578809,
positive,positive,2,l,j,,,,,1,5,23,11,,,,,,,,,,,,,prac,2,2,2,positive,positive,l,l,1,0.764353199978359,145.16269419994205,146.17306760000065,146.15640440001152,None,145.16269419994205,None,145.16269419994205,None,145.16269419994205,None,146.92301303000423,None,146.92301303000423,None,146.92301303000423,None,,,,,,,,,,,,,,008,2022-05-09_15h26.10.121,Main,2022.1.1,60.17603896578809,
positive,neutral,2,l,j,,,,,1,6,24,17,,,,,,,,,,,,,prac,2,2,2,neutral,positive,l,l,1,0.7655263999477029,146.92840119998436,147.93967140000314,147.92301979998592,None,146.92840119998436,None,146.92840119998436,None,146.92840119998436,None,148.68966613003286,None,148.68966613003286,None,148.68966613003286,None,,,,,,,,,,,,,,008,2022-05-09_15h26.10.121,Main,2022.1.1,60.17603896578809,
positive,positive,1,l,j,,,,,1,7,25,2,,,,,,,,,,,,,prac,1,1,1,positive,positive,l,l,1,0.7817119000246748,148.6930767999729,149.7063160999678,149.68964909994975,None,148.6930767999729,None,148.6930767999729,None,148.6930767999729,None,150.47293712993851,None,150.47293712993851,None,150.47293712993851,None,,,,,,,,,,,,,,008,2022-05-09_15h26.10.121,Main,2022.1.1,60.17603896578809,
negative,negative,1,j,l,,,,,1,8,26,0,,,,,,,,,,,,,prac,1,1,1,negative,negative,j,j,1,0.8151472000172362,150.47860179992858,151.489644199959,151.47305529995356,None,150.47860179992858,None,150.47860179992858,None,150.47860179992858,None,152.2895801299368,None,152.2895801299368,None,152.2895801299368,None,,,,,,,,,,,,,,008,2022-05-09_15h26.10.121,Main,2022.1.1,60.17603896578809,
neutral,neutral,2,k,k,,,,,1,9,27,10,,,,,,,,,,,,,prac,1,1,2,neutral,neutral,k,k,1,0.6487302000168711,152.2923769999761,153.30625110003166,153.29249539994635,None,152.2923769999761,None,152.2923769999761,None,152.2923769999761,None,153.93954533004435,None,153.93954533004435,None,153.93954533004435,None,,,,,,,,,,,,,,008,2022-05-09_15h26.10.121,Main,2022.1.1,60.17603896578809,
positive,neutral,1,l,j,,,,,1,10,28,8,,,,,,,,,,,,,prac,2,2,1,neutral,positive,l,l,1,0.7987353000789881,153.94469569996,154.95619109994732,154.939593099989,None,153.94469569996,None,153.94469569996,None,153.94469569996,None,155.73954913000344,None,155.73954913000344,None,155.73954913000344,None,,,,,,,,,,,,,,008,2022-05-09_15h26.10.121,Main,2022.1.1,60.17603896578809,
negative,neutral,2,j,l,,,,,1,11,29,12,,,,,,,,,,,,,prac,1,1,2,neutral,negative,j,j,1,0.7651091999141499,155.74448530003428,156.7562678999966,156.73946529999375,None,155.74448530003428,None,155.74448530003428,None,155.74448530003428,None,157.50613262996777,None,157.50613262996777,None,157.50613262996777,None,,,,,,,,,,,,,,008,2022-05-09_15h26.10.121,Main,2022.1.1,60.17603896578809,
neutral,neutral,1,k,k,,,,,1,12,30,1,,,,,,,,,,,,,prac,2,2,1,neutral,neutral,k,k,1,0.6476734000025317,157.52292280003894,158.52280070004053,158.50612619996537,None,157.52292280003894,None,157.52292280003894,None,157.52292280003894,None,159.15610122998478,None,159.15610122998478,None,159.15610122998478,None,,,,,,,,,,,,,,008,2022-05-09_15h26.10.121,Main,2022.1.1,60.17603896578809,
negative,positive,2,j,l,,,,,1,13,31,15,,,,,,,,,,,,,prac,1,1,2,positive,negative,j,j,1,0.8488683000905439,159.15900680003688,160.17276680003852,160.15614169999026,None,159.15900680003688,None,159.15900680003688,None,159.15900680003688,None,161.0061788299703,None,161.0061788299703,None,161.0061788299703,None,,,,,,,,,,,,,,008,2022-05-09_15h26.10.121,Main,2022.1.1,60.17603896578809,
negative,neutral,1,j,l,,,,,1,14,32,3,,,,,,,,,,,,,prac,1,1,1,neutral,negative,j,j,1,0.7159151999512687,161.00948320003226,162.02270520001184,162.0060418000212,None,161.00948320003226,None,161.00948320003226,None,161.00948320003226,None,162.7226655299659,None,162.7226655299659,None,162.7226655299659,None,,,,,,,,,,,,,,008,2022-05-09_15h26.10.121,Main,2022.1.1,60.17603896578809,
positive,negative,1,l,j,,,,,1,15,33,5,,,,,,,,,,,,,prac,2,2,1,negative,positive,l,l,1,0.7477761999471113,162.72669709997717,163.7421486999374,163.72272600000724,None,162.72669709997717,None,162.72669709997717,None,162.72669709997717,None,164.4727519300417,None,164.4727519300417,None,164.4727519300417,None,,,,,,,,,,,,,,008,2022-05-09_15h26.10.121,Main,2022.1.1,60.17603896578809,
neutral,negative,1,k,k,,,,,1,16,34,7,,,,,,,,,,,,,prac,2,2,1,negative,neutral,k,k,1,0.6818120999960229,164.47810830001254,165.489317700034,165.47266189998481,None,164.47810830001254,None,164.47810830001254,None,164.47810830001254,None,166.15593462999678,None,166.15593462999678,None,166.15593462999678,None,,,,,,,,,,,,,,008,2022-05-09_15h26.10.121,Main,2022.1.1,60.17603896578809,
positive,negative,2,l,j,,,,,1,17,35,14,,,,,,,,,,,,,prac,2,2,2,negative,positive,l,l,1,0.7820446999976411,166.16021210001782,167.17261140001938,167.15594149997924,None,166.16021210001782,None,166.16021210001782,None,166.16021210001782,None,167.93932102996624,None,167.93932102996624,None,167.93932102996624,None,,,,,,,,,,,,,,008,2022-05-09_15h26.10.121,Main,2022.1.1,60.17603896578809,
,,,,,,,,,,,,,,,,,,,,,,,,,,,,,,,,,,,,,,,,,,,,,,,,,,,167.9392467000289,None,space,18.221219699946232,,,,,,,,,,008,2022-05-09_15h26.10.121,Main,2022.1.1,60.17603896578809,
,,,,,,,,,,,,,,,,,,,,,,,,,,,,,,,,,,,,,,,,,,,,,,,,,,,,,,,0.055555556,-0.087037034,0,0,0,0.010969229973852634,None,,,008,2022-05-09_15h26.10.121,Main,2022.1.1,60.17603896578809,
positive,negative,2,l,j,,,,,,,,,0,0,0,14,,,,,,,186.18886110000312,None,main,1,1,2,negative,positive,l,l,1,0.8102052999893203,188.2002900999505,189.20820629992522,189.1917559999274,None,188.2002900999505,None,188.2002900999505,None,188.2002900999505,None,190.0054166299873,None,190.0054166299873,None,190.0054166299873,None,,,,,,,,,,,,,,008,2022-05-09_15h26.10.121,Main,2022.1.1,60.17603896578809,
negative,neutral,1,j,l,,,,,,,,,0,1,1,3,,,,,,,,,main,2,2,1,neutral,negative,j,j,1,0.7306273999856785,190.00949850003235,191.02206490002573,191.00833700003568,None,190.00949850003235,None,190.00949850003235,None,190.00949850003235,None,191.7387296300498,None,191.7387296300498,None,191.7387296300498,None,,,,,,,,,,,,,,008,2022-05-09_15h26.10.121,Main,2022.1.1,60.17603896578809,
positive,positive,1,l,j,,,,,,,,,0,2,2,2,,,,,,,,,main,1,1,1,positive,positive,l,l,1,0.9484592999797314,191.7419574999949,192.7553902999498,192.73881979996804,None,191.7419574999949,None,191.7419574999949,None,191.7419574999949,None,193.6886932299589,None,193.6886932299589,None,193.6886932299589,None,,,,,,,,,,,,,,008,2022-05-09_15h26.10.121,Main,2022.1.1,60.17603896578809,
neutral,neutral,1,k,k,,,,,,,,,0,3,3,1,,,,,,,,,main,2,2,1,neutral,neutral,k,k,1,0.6814925000071526,193.6920906000305,194.70533000002615,194.68867820000742,None,193.6920906000305,None,193.6920906000305,None,193.6920906000305,None,195.37198612993816,None,195.37198612993816,None,195.37198612993816,None,,,,,,,,,,,,,,008,2022-05-09_15h26.10.121,Main,2022.1.1,60.17603896578809,
neutral,negative,2,k,k,,,,,,,,,0,4,4,16,,,,,,,,,main,1,1,2,negative,neutral,k,k,1,0.6690517000388354,195.37516759999562,196.38864939997438,196.3749155999394,None,195.37516759999562,None,195.37516759999562,None,195.37516759999562,None,197.03968593004393,None,197.03968593004393,None,197.03968593004393,None,,,,,,,,,,,,,,008,2022-05-09_15h26.10.121,Main,2022.1.1,60.17603896578809,
negative,neutral,2,j,l,,,,,,,,,0,5,5,12,,,,,,,,,main,1,1,2,neutral,negative,j,j,1,0.7609352000290528,197.04547330003697,198.05530260002706,198.0385845999699,None,197.04547330003697,None,197.04547330003697,None,197.04547330003697,None,198.80525422996143,None,198.80525422996143,None,198.80525422996143,None,,,,,,,,,,,,,,008,2022-05-09_15h26.10.121,Main,2022.1.1,60.17603896578809,
positive,neutral,2,l,j,,,,,,,,,0,6,6,17,,,,,,,,,main,2,2,2,neutral,positive,l,l,1,0.6651445999741554,198.80870619998313,199.82199740002397,199.80817319999915,None,198.80870619998313,None,198.80870619998313,None,198.80870619998313,None,200.47187733001775,None,200.47187733001775,None,200.47187733001775,None,,,,,,,,,,,,,,008,2022-05-09_15h26.10.121,Main,2022.1.1,60.17603896578809,
negative,positive,1,j,l,,,,,,,,,0,7,7,6,,,,,,,,,main,2,2,1,positive,negative,j,j,1,0.7484162000473589,200.4759171999758,201.48856800002977,201.4718616999453,None,200.4759171999758,None,200.4759171999758,None,200.4759171999758,None,202.22185063004727,None,202.22185063004727,None,202.22185063004727,None,,,,,,,,,,,,,,008,2022-05-09_15h26.10.121,Main,2022.1.1,60.17603896578809,
positive,positive,2,l,j,,,,,,,,,0,8,8,11,,,,,,,,,main,1,1,2,positive,positive,l,l,1,0.6807096999837086,202.2258713999763,203.23849789996166,203.22182919993065,None,202.2258713999763,None,202.2258713999763,None,202.2258713999763,None,203.90511463003932,None,203.90511463003932,None,203.90511463003932,None,,,,,,,,,,,,,,008,2022-05-09_15h26.10.121,Main,2022.1.1,60.17603896578809,
neutral,positive,1,k,k,,,,,,,,,0,9,9,4,,,,,,,,,main,1,1,1,positive,neutral,k,k,1,0.6984221999300644,203.91020649997517,204.92190229997505,204.90802750003058,None,203.91020649997517,None,203.91020649997517,None,203.91020649997517,None,205.60513293001569,None,205.60513293001569,None,205.60513293001569,None,,,,,,,,,,,,,,008,2022-05-09_15h26.10.121,Main,2022.1.1,60.17603896578809,
positive,neutral,1,l,j,,,,,,,,,0,10,10,8,,,,,,,,,main,2,2,1,neutral,positive,l,l,1,0.7318832000019029,205.60788569995202,206.62465030001476,206.60509199998342,None,205.60788569995202,None,205.60788569995202,None,205.60788569995202,None,207.33840603000718,None,207.33840603000718,None,207.33840603000718,None,,,,,,,,,,,,,,008,2022-05-09_15h26.10.121,Main,2022.1.1,60.17603896578809,
neutral,negative,1,k,k,,,,,,,,,0,11,11,7,,,,,,,,,main,2,2,1,negative,neutral,k,k,1,0.6650452999165282,207.34363290003967,208.3550588999642,208.33858470001724,None,207.34363290003967,None,207.34363290003967,None,207.34363290003967,None,209.00500402998878,None,209.00500402998878,None,209.00500402998878,None,,,,,,,,,,,,,,008,2022-05-09_15h26.10.121,Main,2022.1.1,60.17603896578809,
negative,positive,2,j,l,,,,,,,,,0,12,12,15,,,,,,,,,main,2,2,2,positive,negative,j,j,1,0.7317517000483349,209.0104938999284,210.02167389995884,210.00500070001,None,209.0104938999284,None,209.0104938999284,None,209.0104938999284,None,210.73833053003764,None,210.73833053003764,None,210.73833053003764,None,,,,,,,,,,,,,,008,2022-05-09_15h26.10.121,Main,2022.1.1,60.17603896578809,
neutral,neutral,2,k,k,,,,,,,,,0,13,13,10,,,,,,,,,main,1,1,2,neutral,neutral,k,k,1,0.5816159000387415,210.74161759996787,211.75497649994213,211.73836720001418,None,210.74161759996787,None,210.74161759996787,None,210.74161759996787,None,212.32162233003183,None,212.32162233003183,None,212.32162233003183,None,,,,,,,,,,,,,,008,2022-05-09_15h26.10.121,Main,2022.1.1,60.17603896578809,
neutral,positive,2,k,k,,,,,,,,,0,14,14,13,,,,,,,,,main,2,2,2,positive,neutral,k,k,1,0.5816740998998284,212.32568949996494,213.3411774999695,213.32162279996555,None,212.32568949996494,None,212.32568949996494,None,212.32568949996494,None,213.90489693001146,None,213.90489693001146,None,213.90489693001146,None,,,,,,,,,,,,,,008,2022-05-09_15h26.10.121,Main,2022.1.1,60.17603896578809,
negative,negative,2,j,l,,,,,,,,,0,15,15,9,,,,,,,,,main,2,2,2,negative,negative,j,j,1,0.7650609998963773,213.90814820001833,214.9215512999799,214.9048759000143,None,213.90814820001833,None,213.90814820001833,None,213.90814820001833,None,215.67167093002936,None,215.67167093002936,None,215.67167093002936,None,,,,,,,,,,,,,,008,2022-05-09_15h26.10.121,Main,2022.1.1,60.17603896578809,
positive,negative,1,l,j,,,,,,,,,0,16,16,5,,,,,,,,,main,2,2,1,negative,positive,l,l,1,0.6819367000134662,215.67527509992942,216.6909544999944,216.67154000001028,None,215.67527509992942,None,215.67527509992942,None,215.67527509992942,None,217.35490072999383,None,217.35490072999383,None,217.35490072999383,None,,,,,,,,,,,,,,008,2022-05-09_15h26.10.121,Main,2022.1.1,60.17603896578809,
negative,negative,1,j,l,,,,,,,,,0,17,17,0,,,,,,,,,main,1,1,1,negative,negative,j,j,1,0.7148558999178931,217.36057379993144,218.37150320003275,218.35483690002002,None,217.36057379993144,None,217.36057379993144,None,217.36057379993144,None,219.07154052999104,None,219.07154052999104,None,219.07154052999104,None,,,,,,,,,,,,,,008,2022-05-09_15h26.10.121,Main,2022.1.1,60.17603896578809,
neutral,neutral,2,k,k,,,,,,,,,1,0,18,10,,,,,,,,,main,2,2,2,neutral,neutral,k,k,1,0.5650108000263572,219.07703539996874,220.08811769995373,220.07147149997763,None,219.07703539996874,None,219.07703539996874,None,219.07703539996874,None,220.63811213002774,None,220.63811213002774,None,220.63811213002774,None,,,,,,,,,,,,,,008,2022-05-09_15h26.10.121,Main,2022.1.1,60.17603896578809,
neutral,negative,2,k,k,,,,,,,,,1,1,19,16,,,,,,,,,main,1,1,2,negative,neutral,k,k,1,0.5983652999857441,220.64145510003436,221.65480929997284,221.6380808999529,None,220.64145510003436,None,220.64145510003436,None,220.64145510003436,None,222.23806392998668,None,222.23806392998668,None,222.23806392998668,None,,,,,,,,,,,,,,008,2022-05-09_15h26.10.121,Main,2022.1.1,60.17603896578809,
negative,neutral,1,j,l,,,,,,,,,1,2,20,3,,,,,,,,,main,2,2,1,neutral,negative,j,j,1,0.6648572999984026,222.24160800001118,223.25473009992857,223.23806919995695,None,222.24160800001118,None,222.24160800001118,None,222.24160800001118,None,223.90477983005113,None,223.90477983005113,None,223.90477983005113,None,,,,,,,,,,,,,,008,2022-05-09_15h26.10.121,Main,2022.1.1,60.17603896578809,
neutral,neutral,1,k,k,,,,,,,,,1,3,21,1,,,,,,,,,main,2,2,1,neutral,neutral,k,k,1,0.5816882000071928,223.9213652999606,224.92139759997372,224.90480619994923,None,223.9213652999606,None,223.9213652999606,None,223.9213652999606,None,225.48801103004953,None,225.48801103004953,None,225.48801103004953,None,,,,,,,,,,,,,,008,2022-05-09_15h26.10.121,Main,2022.1.1,60.17603896578809,
neutral,negative,1,k,k,,,,,,,,,1,4,22,7,,,,,,,,,main,2,2,1,negative,neutral,k,k,1,0.5824214000022039,225.49355130002368,226.5046967000235,226.48799469997175,None,225.49355130002368,None,225.49355130002368,None,225.49355130002368,None,227.07128022998805,None,227.07128022998805,None,227.07128022998805,None,,,,,,,,,,,,,,008,2022-05-09_15h26.10.121,Main,2022.1.1,60.17603896578809,
negative,negative,1,j,l,,,,,,,,,1,5,23,0,,,,,,,,,main,2,2,1,negative,negative,j,j,1,0.7474160999991,227.07530469994526,228.08794759993907,228.07126909994986,None,227.07530469994526,None,227.07530469994526,None,227.07530469994526,None,228.8212563300389,None,228.8212563300389,None,228.8212563300389,None,,,,,,,,,,,,,,008,2022-05-09_15h26.10.121,Main,2022.1.1,60.17603896578809,
negative,positive,1,j,l,,,,,,,,,1,6,24,6,,,,,,,,,main,2,2,1,positive,negative,j,j,1,0.6818548999726772,228.8274054999929,229.83792670001276,229.82130740000866,None,228.8274054999929,None,228.8274054999929,None,228.8274054999929,None,230.5045587299741,None,230.5045587299741,None,230.5045587299741,None,,,,,,,,,,,,,,008,2022-05-09_15h26.10.121,Main,2022.1.1,60.17603896578809,
negative,negative,2,j,l,,,,,,,,,1,7,25,9,,,,,,,,,main,2,2,2,negative,negative,j,j,1,0.781533099943772,230.50782589998562,231.52122039999813,231.50454450002871,None,230.50782589998562,None,230.50782589998562,None,230.50782589998562,None,232.28784042996122,None,232.28784042996122,None,232.28784042996122,None,,,,,,,,,,,,,,008,2022-05-09_15h26.10.121,Main,2022.1.1,60.17603896578809,
negative,neutral,2,j,l,,,,,,,,,1,8,26,12,,,,,,,,,main,2,2,2,neutral,negative,j,j,1,0.631728500011377,232.29375720000826,233.30451499996707,233.28785750002135,None,232.29375720000826,None,232.29375720000826,None,232.29375720000826,None,233.9211585299694,None,233.9211585299694,None,233.9211585299694,None,,,,,,,,,,,,,,008,2022-05-09_15h26.10.121,Main,2022.1.1,60.17603896578809,
positive,negative,1,l,j,,,,,,,,,1,9,27,5,,,,,,,,,main,2,2,1,negative,positive,l,l,1,0.7652301000198349,233.9247623999836,234.9377889999887,234.921152099967,None,233.9247623999836,None,233.9247623999836,None,233.9247623999836,None,235.68778233000776,None,235.68778233000776,None,235.68778233000776,None,,,,,,,,,,,,,,008,2022-05-09_15h26.10.121,Main,2022.1.1,60.17603896578809,
neutral,positive,2,k,k,,,,,,,,,1,10,28,13,,,,,,,,,main,2,2,2,positive,neutral,k,k,1,0.581523499917239,235.69365149992518,236.7044307999313,236.6877814999316,None,235.69365149992518,None,235.69365149992518,None,235.69365149992518,None,237.27108112993884,None,237.27108112993884,None,237.27108112993884,None,,,,,,,,,,,,,,008,2022-05-09_15h26.10.121,Main,2022.1.1,60.17603896578809,
positive,neutral,2,l,j,,,,,,,,,1,11,29,17,,,,,,,,,main,1,1,2,neutral,positive,l,l,1,0.8308157999999821,237.2751152999699,238.28779520001262,238.27105889993254,None,237.2751152999699,None,237.2751152999699,None,237.2751152999699,None,239.1043730300502,None,239.1043730300502,None,239.1043730300502,None,,,,,,,,,,,,,,008,2022-05-09_15h26.10.121,Main,2022.1.1,60.17603896578809,
negative,positive,2,j,l,,,,,,,,,1,12,30,15,,,,,,,,,main,2,2,2,positive,negative,j,j,1,0.6819141999585554,239.10999809997156,240.12101579993032,240.10438999999315,None,239.10999809997156,None,239.10999809997156,None,239.10999809997156,None,240.7876643300173,None,240.7876643300173,None,240.7876643300173,None,,,,,,,,,,,,,,008,2022-05-09_15h26.10.121,Main,2022.1.1,60.17603896578809,
positive,negative,2,l,j,,,,,,,,,1,13,31,14,,,,,,,,,main,2,2,2,negative,positive,l,l,1,0.7646611999953166,240.7934126999462,241.80433239997365,241.78765389998443,None,240.7934126999462,None,240.7934126999462,None,240.7934126999462,None,242.55427862998332,None,242.55427862998332,None,242.55427862998332,None,,,,,,,,,,,,,,008,2022-05-09_15h26.10.121,Main,2022.1.1,60.17603896578809,
positive,positive,1,l,j,,,,,,,,,1,14,32,2,,,,,,,,,main,2,2,1,positive,positive,l,l,1,0.6484102999093011,242.5576653999742,243.5709591000341,243.5542909000069,None,242.5576653999742,None,242.5576653999742,None,242.5576653999742,None,244.20426072998671,None,244.20426072998671,None,244.20426072998671,None,,,,,,,,,,,,,,008,2022-05-09_15h26.10.121,Main,2022.1.1,60.17603896578809,
positive,positive,2,l,j,,,,,,,,,1,15,33,11,,,,,,,,,main,1,1,2,positive,positive,l,l,1,0.6973683000542223,244.20828729995992,245.22090089996345,245.20423499995377,None,244.20828729995992,None,244.20828729995992,None,244.20828729995992,None,245.90422962993617,None,245.90422962993617,None,245.90422962993617,None,,,,,,,,,,,,,,008,2022-05-09_15h26.10.121,Main,2022.1.1,60.17603896578809,
positive,neutral,1,l,j,,,,,,,,,1,16,34,8,,,,,,,,,main,2,2,1,neutral,positive,l,l,1,0.6485151000088081,245.9081767000025,246.9209021999268,246.90423600003123,None,245.9081767000025,None,245.9081767000025,None,245.9081767000025,None,247.55419882995776,None,247.55419882995776,None,247.55419882995776,None,,,,,,,,,,,,,,008,2022-05-09_15h26.10.121,Main,2022.1.1,60.17603896578809,
neutral,positive,1,k,k,,,,,,,,,1,17,35,4,,,,,,,,,main,2,2,1,positive,neutral,k,k,1,0.6984863999532536,247.55765860003885,248.5708389999345,248.55417040002067,None,247.55765860003885,None,247.55765860003885,None,247.55765860003885,None,249.25413993004477,None,249.25413993004477,None,249.25413993004477,None,,,,,,,,,,,,,,008,2022-05-09_15h26.10.121,Main,2022.1.1,60.17603896578809,
negative,negative,2,j,l,,,,,,,,,2,0,36,9,,,,,,,,,main,2,2,2,negative,negative,j,j,1,0.8312407000921667,249.257610199973,250.27081599994563,250.25413399992976,None,249.257610199973,None,249.257610199973,None,249.257610199973,None,251.0874311300344,None,251.0874311300344,None,251.0874311300344,None,,,,,,,,,,,,,,008,2022-05-09_15h26.10.121,Main,2022.1.1,60.17603896578809,
neutral,neutral,1,k,k,,,,,,,,,2,1,37,1,,,,,,,,,main,1,1,1,neutral,neutral,k,k,1,0.7658709000097588,251.09101850003935,252.10415140003897,252.09035379998386,None,251.09101850003935,None,251.09101850003935,None,251.09101850003935,None,252.8540656300378,None,252.8540656300378,None,252.8540656300378,None,,,,,,,,,,,,,,008,2022-05-09_15h26.10.121,Main,2022.1.1,60.17603896578809,
neutral,negative,2,k,k,,,,,,,,,2,2,38,16,,,,,,,,,main,2,2,2,negative,neutral,k,k,1,0.6476074999663979,252.8580788000254,253.870722200023,253.85405189997982,None,252.8580788000254,None,252.8580788000254,None,252.8580788000254,None,254.50405372997048,None,254.50405372997048,None,254.50405372997048,None,,,,,,,,,,,,,,008,2022-05-09_15h26.10.121,Main,2022.1.1,60.17603896578809,
neutral,positive,2,k,k,,,,,,,,,2,3,39,13,,,,,,,,,main,2,2,2,positive,neutral,k,k,1,0.5984305999008939,254.50709149998147,255.52070079999976,255.5040487999795,None,254.50709149998147,None,254.50709149998147,None,254.50709149998147,None,256.1040011300123,None,256.1040011300123,None,256.1040011300123,None,,,,,,,,,,,,,,008,2022-05-09_15h26.10.121,Main,2022.1.1,60.17603896578809,
negative,positive,2,j,l,,,,,,,,,2,4,40,15,,,,,,,,,main,1,1,2,positive,negative,j,j,1,0.6982875000685453,256.1074164999882,257.12065139994957,257.10398919996805,None,256.1074164999882,None,256.1074164999882,None,256.1074164999882,None,257.80396493003934,None,257.80396493003934,None,257.80396493003934,None,,,,,,,,,,,,,,008,2022-05-09_15h26.10.121,Main,2022.1.1,60.17603896578809,
positive,neutral,2,l,j,,,,,,,,,2,5,41,17,,,,,,,,,main,2,2,2,neutral,positive,l,l,1,0.7817578000249341,257.80735100002494,258.82063420000486,258.80407319997903,None,257.80735100002494,None,257.80735100002494,None,257.80735100002494,None,259.587281929946,None,259.587281929946,None,259.587281929946,None,,,,,,,,,,,,,,008,2022-05-09_15h26.10.121,Main,2022.1.1,60.17603896578809,
positive,negative,1,l,j,,,,,,,,,2,6,42,5,,,,,,,,,main,2,2,1,negative,positive,l,l,1,0.8647382999770343,259.5929647999583,260.6039197000209,260.5872584999306,None,259.5929647999583,None,259.5929647999583,None,259.5929647999583,None,261.4538679300225,None,261.4538679300225,None,261.4538679300225,None,,,,,,,,,,,,,,008,2022-05-09_15h26.10.121,Main,2022.1.1,60.17603896578809,
positive,neutral,1,l,j,,,,,,,,,2,7,43,8,,,,,,,,,main,1,1,1,neutral,positive,l,l,1,0.5984212000621483,261.45760009996593,262.45681999996305,262.45681999996305,None,261.45760009996593,None,261.45760009996593,None,261.45760009996593,None,263.0538414300303,None,263.0538414300303,None,263.0538414300303,None,,,,,,,,,,,,,,008,2022-05-09_15h26.10.121,Main,2022.1.1,60.17603896578809,
positive,positive,2,l,j,,,,,,,,,2,8,44,11,,,,,,,,,main,2,2,2,positive,positive,l,l,1,0.6494904999854043,263.0594241999788,264.0704841000261,264.0538956000237,None,263.0594241999788,None,263.0594241999788,None,263.0594241999788,None,264.70382513004586,None,264.70382513004586,None,264.70382513004586,None,,,,,,,,,,,,,,008,2022-05-09_15h26.10.121,Main,2022.1.1,60.17603896578809,
neutral,positive,1,k,k,,,,,,,,,2,9,45,4,,,,,,,,,main,2,2,1,positive,neutral,k,k,1,0.6805275999940932,264.70809920004103,265.7204613999929,265.7038045999361,None,264.70809920004103,None,264.70809920004103,None,264.70809920004103,None,266.38719353001795,None,266.38719353001795,None,266.38719353001795,None,,,,,,,,,,,,,,008,2022-05-09_15h26.10.121,Main,2022.1.1,60.17603896578809,
positive,negative,2,l,j,,,,,,,,,2,10,46,14,,,,,,,,,main,2,2,2,negative,positive,l,l,1,1.048468100023456,266.3932042999659,267.4038529000245,267.3871235999977,None,266.3932042999659,None,266.3932042999659,None,266.3932042999659,None,268.43706793003946,None,268.43706793003946,None,268.43706793003946,None,,,,,,,,,,,,,,008,2022-05-09_15h26.10.121,Main,2022.1.1,60.17603896578809,
negative,positive,1,j,l,,,,,,,,,2,11,47,6,,,,,,,,,main,2,2,1,positive,negative,j,j,1,0.7483674000250176,268.4537382000126,269.4537534000119,269.4370662999572,None,268.4537382000126,None,268.4537382000126,None,268.4537382000126,None,270.1871728300233,None,270.1871728300233,None,270.1871728300233,None,,,,,,,,,,,,,,008,2022-05-09_15h26.10.121,Main,2022.1.1,60.17603896578809,
positive,positive,1,l,j,,,,,,,,,2,12,48,2,,,,,,,,,main,2,2,1,positive,positive,l,l,1,0.6483337000245228,270.1904892999446,271.2036774000153,271.18700599996373,None,270.1904892999446,None,270.1904892999446,None,270.1904892999446,None,271.83698973004937,None,271.83698973004937,None,271.83698973004937,None,,,,,,,,,,,,,,008,2022-05-09_15h26.10.121,Main,2022.1.1,60.17603896578809,
negative,neutral,1,j,l,,,,,,,,,2,13,49,3,,,,,,,,,main,2,2,1,neutral,negative,j,j,1,0.8482514000497758,271.8409751999425,272.8536648999434,272.8369894999778,None,271.8409751999425,None,271.8409751999425,None,271.8409751999425,None,273.6869540299871,None,273.6869540299871,None,273.6869540299871,None,,,,,,,,,,,,,,008,2022-05-09_15h26.10.121,Main,2022.1.1,60.17603896578809,
negative,neutral,2,j,l,,,,,,,,,2,14,50,12,,,,,,,,,main,1,1,2,neutral,negative,j,j,1,0.7483306999783963,273.6903929000255,274.70360939996317,274.68981210002676,None,273.6903929000255,None,273.6903929000255,None,273.6903929000255,None,275.4369346299558,None,275.4369346299558,None,275.4369346299558,None,,,,,,,,,,,,,,008,2022-05-09_15h26.10.121,Main,2022.1.1,60.17603896578809,
neutral,neutral,2,k,k,,,,,,,,,2,15,51,10,,,,,,,,,main,2,2,2,neutral,neutral,k,k,1,0.6650395999895409,275.4407004000386,276.43688359996304,276.43688359996304,None,275.4407004000386,None,275.4407004000386,None,275.4407004000386,None,277.1035316300462,None,277.1035316300462,None,277.1035316300462,None,,,,,,,,,,,,,,008,2022-05-09_15h26.10.121,Main,2022.1.1,60.17603896578809,
negative,negative,1,j,l,,,,,,,,,2,16,52,0,,,,,,,,,main,1,1,1,negative,negative,j,j,1,0.7317777000134811,277.106875199941,278.12307099998,278.1035181999905,None,277.106875199941,None,277.106875199941,None,277.106875199941,None,278.83686273001365,None,278.83686273001365,None,278.83686273001365,None,,,,,,,,,,,,,,008,2022-05-09_15h26.10.121,Main,2022.1.1,60.17603896578809,
neutral,negative,1,k,k,,,,,,,,,2,17,53,7,,,,,,,,,main,2,2,1,negative,neutral,k,k,1,0.7984540000325069,278.8403230999829,279.8535694000311,279.8368838999886,None,278.8403230999829,None,278.8403230999829,None,278.8403230999829,None,280.63681812995344,None,280.63681812995344,None,280.63681812995344,None,,,,,,,,,,,,,,008,2022-05-09_15h26.10.121,Main,2022.1.1,60.17603896578809,
negative,positive,1,j,l,,,,,,,,,3,0,54,6,,,,,,,,,main,2,2,1,positive,negative,j,j,1,0.7309593000682071,280.640810700017,281.6534658999881,281.63680740003474,None,280.640810700017,None,280.640810700017,None,280.640810700017,None,282.37022163000654,None,282.37022163000654,None,282.37022163000654,None,,,,,,,,,,,,,,008,2022-05-09_15h26.10.121,Main,2022.1.1,60.17603896578809,
neutral,positive,1,k,k,,,,,,,,,3,1,55,4,,,,,,,,,main,2,2,1,positive,neutral,k,k,1,0.8480279999785125,282.3736636999529,283.3896573999664,283.37008299992885,None,282.3736636999529,None,282.3736636999529,None,282.3736636999529,None,284.2200324299396,None,284.2200324299396,None,284.2200324299396,None,,,,,,,,,,,,,,008,2022-05-09_15h26.10.121,Main,2022.1.1,60.17603896578809,
positive,positive,2,l,j,,,,,,,,,3,2,56,11,,,,,,,,,main,2,2,2,positive,positive,l,l,1,1.4664101999951527,284.23679859994445,285.2367052999325,285.2200303999707,None,284.23679859994445,None,284.23679859994445,None,284.23679859994445,None,286.68677583002716,None,286.68677583002716,None,286.68677583002716,None,,,,,,,,,,,,,,008,2022-05-09_15h26.10.121,Main,2022.1.1,60.17603896578809,
negative,negative,1,j,l,,,,,,,,,3,3,57,0,,,,,,,,,main,1,1,1,negative,negative,j,j,1,0.6846168999327347,286.69076239992864,287.7061407000292,287.6866486000363,None,286.69076239992864,None,286.69076239992864,None,286.69076239992864,None,288.3712238299544,None,288.3712238299544,None,288.3712238299544,None,,,,,,,,,,,,,,008,2022-05-09_15h26.10.121,Main,2022.1.1,60.17603896578809,
positive,neutral,2,l,j,,,,,,,,,3,4,58,17,,,,,,,,,main,2,2,2,neutral,positive,l,l,1,0.6441271000076085,288.37850590003654,289.38662879995536,289.3699625999434,None,288.37850590003654,None,288.37850590003654,None,288.37850590003654,None,290.01991783004485,None,290.01991783004485,None,290.01991783004485,None,,,,,,,,,,,,,,008,2022-05-09_15h26.10.121,Main,2022.1.1,60.17603896578809,
negative,negative,2,j,l,,,,,,,,,3,5,59,9,,,,,,,,,main,2,2,2,negative,negative,j,j,1,0.8144521999638528,290.02377630001865,291.03661009995267,291.01993660000153,None,290.02377630001865,None,290.02377630001865,None,290.02377630001865,None,291.8365769300493,None,291.8365769300493,None,291.8365769300493,None,,,,,,,,,,,,,,008,2022-05-09_15h26.10.121,Main,2022.1.1,60.17603896578809,
positive,negative,1,l,j,,,,,,,,,3,6,60,5,,,,,,,,,main,1,1,1,negative,positive,l,l,1,0.8151004000101238,291.8426805000054,292.853224499966,292.83670029998757,None,291.8426805000054,None,291.8426805000054,None,291.8426805000054,None,293.65318102998424,None,293.65318102998424,None,293.65318102998424,None,,,,,,,,,,,,,,008,2022-05-09_15h26.10.121,Main,2022.1.1,60.17603896578809,
positive,neutral,1,l,j,,,,,,,,,3,7,61,8,,,,,,,,,main,1,1,1,neutral,positive,l,l,1,0.6983251000056043,293.658596699941,294.66985109995585,294.6561381999636,None,293.658596699941,None,293.658596699941,None,293.658596699941,None,295.3531331300386,None,295.3531331300386,None,295.3531331300386,None,,,,,,,,,,,,,,008,2022-05-09_15h26.10.121,Main,2022.1.1,60.17603896578809,
negative,neutral,2,j,l,,,,,,,,,3,8,62,12,,,,,,,,,main,2,2,2,neutral,negative,j,j,1,0.7984896999550983,295.35858520003967,296.36983979993965,296.35606270004064,None,295.35858520003967,None,295.35858520003967,None,295.35858520003967,None,297.1532178300316,None,297.1532178300316,None,297.1532178300316,None,,,,,,,,,,,,,,008,2022-05-09_15h26.10.121,Main,2022.1.1,60.17603896578809,
negative,positive,2,j,l,,,,,,,,,3,9,63,15,,,,,,,,,main,1,1,2,positive,negative,j,j,1,0.5980121999746189,297.1566885999637,298.1697477999842,298.15315140003804,None,297.1566885999637,None,297.1566885999637,None,297.1566885999637,None,298.753075329971,None,298.753075329971,None,298.753075329971,None,,,,,,,,,,,,,,008,2022-05-09_15h26.10.121,Main,2022.1.1,60.17603896578809,
neutral,negative,1,k,k,,,,,,,,,3,10,64,7,,,,,,,,,main,2,2,1,negative,neutral,k,k,1,0.7485051000257954,298.75697250000667,299.76974290004,299.75306599994656,None,298.75697250000667,None,298.75697250000667,None,298.75697250000667,None,300.50302502993725,None,300.50302502993725,None,300.50302502993725,None,,,,,,,,,,,,,,008,2022-05-09_15h26.10.121,Main,2022.1.1,60.17603896578809,
positive,positive,1,l,j,,,,,,,,,3,11,65,2,,,,,,,,,main,2,2,1,positive,positive,l,l,1,0.6802571000298485,300.5078649999341,301.51969929994084,301.50307999993674,None,300.5078649999341,None,300.5078649999341,None,300.5078649999341,None,302.18635152993954,None,302.18635152993954,None,302.18635152993954,None,,,,,,,,,,,,,,008,2022-05-09_15h26.10.121,Main,2022.1.1,60.17603896578809,
neutral,neutral,1,k,k,,,,,,,,,3,12,66,1,,,,,,,,,main,2,2,1,neutral,neutral,k,k,1,0.6484740000450984,302.18944729992654,303.20297530002426,303.18632859992795,None,302.18944729992654,None,302.18944729992654,None,302.18944729992654,None,303.836282330018,None,303.836282330018,None,303.836282330018,None,,,,,,,,,,,,,,008,2022-05-09_15h26.10.121,Main,2022.1.1,60.17603896578809,
negative,neutral,1,j,l,,,,,,,,,3,13,67,3,,,,,,,,,main,2,2,1,neutral,negative,j,j,1,0.7482754000229761,303.83979619992897,304.8529481999576,304.836335400003,None,303.83979619992897,None,303.83979619992897,None,303.83979619992897,None,305.58625832995165,None,305.58625832995165,None,305.58625832995165,None,,,,,,,,,,,,,,008,2022-05-09_15h26.10.121,Main,2022.1.1,60.17603896578809,
positive,negative,2,l,j,,,,,,,,,3,14,68,14,,,,,,,,,main,2,2,2,negative,positive,l,l,1,0.7317371999379247,305.5895325000165,306.6029130000388,306.58624630002305,None,305.5895325000165,None,305.5895325000165,None,305.5895325000165,None,307.3195333299576,None,307.3195333299576,None,307.3195333299576,None,,,,,,,,,,,,,,008,2022-05-09_15h26.10.121,Main,2022.1.1,60.17603896578809,
neutral,negative,2,k,k,,,,,,,,,3,15,69,16,,,,,,,,,main,1,1,2,negative,neutral,k,k,1,0.7150339999934658,307.32487190002576,308.33619950001594,308.3195293999743,None,307.32487190002576,None,307.32487190002576,None,307.32487190002576,None,309.0361879299511,None,309.0361879299511,None,309.0361879299511,None,,,,,,,,,,,,,,008,2022-05-09_15h26.10.121,Main,2022.1.1,60.17603896578809,
neutral,neutral,2,k,k,,,,,,,,,3,16,70,10,,,,,,,,,main,1,1,2,neutral,neutral,k,k,1,0.7149210999486968,309.0416819000384,310.0528249000199,310.0362091999268,None,309.0416819000384,None,309.0416819000384,None,309.0416819000384,None,310.7528220300213,None,310.7528220300213,None,310.7528220300213,None,,,,,,,,,,,,,,008,2022-05-09_15h26.10.121,Main,2022.1.1,60.17603896578809,
neutral,positive,2,k,k,,,,,,,,,3,17,71,13,,,,,,,,,main,2,2,2,positive,neutral,k,k,1,0.6651281999656931,310.75833600002807,311.7694782000035,311.75281249999534,None,310.75833600002807,None,310.75833600002807,None,310.75833600002807,None,312.41944422995437,None,312.41944422995437,None,312.41944422995437,None,,,,,,,,,,,,,,008,2022-05-09_15h26.10.121,Main,2022.1.1,60.17603896578809,
neutral,negative,1,k,k,,,,,,,,,4,0,72,7,,,,,,,,,main,2,2,1,negative,neutral,k,k,1,0.6650182999437675,312.42291199998,313.4360922999913,313.4194134999998,None,312.42291199998,None,312.42291199998,None,312.42291199998,None,314.0860678300145,None,314.0860678300145,None,314.0860678300145,None,,,,,,,,,,,,,,008,2022-05-09_15h26.10.121,Main,2022.1.1,60.17603896578809,
positive,neutral,1,l,j,,,,,,,,,4,1,73,8,,,,,,,,,main,2,2,1,neutral,positive,l,l,1,0.7482047999510542,314.09010959998704,315.10275369999,315.0860820999369,None,314.09010959998704,None,314.09010959998704,None,314.09010959998704,None,315.8360981300124,None,315.8360981300124,None,315.8360981300124,None,,,,,,,,,,,,,,008,2022-05-09_15h26.10.121,Main,2022.1.1,60.17603896578809,
negative,negative,2,j,l,,,,,,,,,4,2,74,9,,,,,,,,,main,1,1,2,negative,negative,j,j,1,0.8140599000034854,315.8421567999758,316.85269510000944,316.83900769997854,None,315.8421567999758,None,315.8421567999758,None,315.8421567999758,None,317.65265942997064,None,317.65265942997064,None,317.65265942997064,None,,,,,,,,,,,,,,008,2022-05-09_15h26.10.121,Main,2022.1.1,60.17603896578809,
positive,positive,2,l,j,,,,,,,,,4,3,75,11,,,,,,,,,main,1,1,2,positive,positive,l,l,1,0.8153494999278337,317.6558773999568,318.6693003999535,318.65559969993774,None,317.6558773999568,None,317.6558773999568,None,317.6558773999568,None,319.4694099299726,None,319.4694099299726,None,319.4694099299726,None,,,,,,,,,,,,,,008,2022-05-09_15h26.10.121,Main,2022.1.1,60.17603896578809,
negative,positive,2,j,l,,,,,,,,,4,4,76,15,,,,,,,,,main,2,2,2,positive,negative,j,j,1,0.7647898000432178,319.4728272999637,320.48593760002404,320.4722240000265,None,319.4728272999637,None,319.4728272999637,None,319.4728272999637,None,321.23592973003394,None,321.23592973003394,None,321.23592973003394,None,,,,,,,,,,,,,,008,2022-05-09_15h26.10.121,Main,2022.1.1,60.17603896578809,
neutral,negative,2,k,k,,,,,,,,,4,5,77,16,,,,,,,,,main,1,1,2,negative,neutral,k,k,1,0.748140599927865,321.2388341999613,322.25259049993474,322.23592100001406,None,321.2388341999613,None,321.2388341999613,None,321.2388341999613,None,322.9858939299942,None,322.9858939299942,None,322.9858939299942,None,,,,,,,,,,,,,,008,2022-05-09_15h26.10.121,Main,2022.1.1,60.17603896578809,
positive,neutral,2,l,j,,,,,,,,,4,6,78,17,,,,,,,,,main,1,1,2,neutral,positive,l,l,1,0.7485530000412837,322.98985320003703,324.00257779995445,323.9858769000275,None,322.98985320003703,None,322.98985320003703,None,322.98985320003703,None,324.73592863002557,None,324.73592863002557,None,324.73592863002557,None,,,,,,,,,,,,,,008,2022-05-09_15h26.10.121,Main,2022.1.1,60.17603896578809,
neutral,neutral,2,k,k,,,,,,,,,4,7,79,10,,,,,,,,,main,1,1,2,neutral,neutral,k,k,1,0.7975425999611616,324.73983500001486,325.7525181999663,325.73583379993215,None,324.73983500001486,None,324.73983500001486,None,324.73983500001486,None,326.53581243000224,None,326.53581243000224,None,326.53581243000224,None,,,,,,,,,,,,,,008,2022-05-09_15h26.10.121,Main,2022.1.1,60.17603896578809,
neutral,neutral,1,k,k,,,,,,,,,4,8,80,1,,,,,,,,,main,1,1,1,neutral,neutral,k,k,1,0.698286100057885,326.5390063000377,327.5524660999654,327.5357959000394,None,326.5390063000377,None,326.5390063000377,None,326.5390063000377,None,328.2357834299677,None,328.2357834299677,None,328.2357834299677,None,,,,,,,,,,,,,,008,2022-05-09_15h26.10.121,Main,2022.1.1,60.17603896578809,
positive,positive,1,l,j,,,,,,,,,4,9,81,2,,,,,,,,,main,2,2,1,positive,positive,l,l,1,0.6986634000204504,328.239465199993,329.25244870001916,329.23578909994103,None,328.239465199993,None,328.239465199993,None,328.239465199993,None,329.9357570299529,None,329.9357570299529,None,329.9357570299529,None,,,,,,,,,,,,,,008,2022-05-09_15h26.10.121,Main,2022.1.1,60.17603896578809,
negative,positive,1,j,l,,,,,,,,,4,10,82,6,,,,,,,,,main,2,2,1,positive,negative,j,j,1,0.9141470999456942,329.9401128999889,330.9552609999664,330.93571180000436,None,329.9401128999889,None,329.9401128999889,None,329.9401128999889,None,331.8524917300441,None,331.8524917300441,None,331.8524917300441,None,,,,,,,,,,,,,,008,2022-05-09_15h26.10.121,Main,2022.1.1,60.17603896578809,
neutral,positive,1,k,k,,,,,,,,,4,11,83,4,,,,,,,,,main,2,2,1,positive,neutral,k,k,1,0.7647441000444815,331.85563519992866,332.8719277000055,332.85236469993833,None,331.85563519992866,None,331.85563519992866,None,331.85563519992866,None,333.61898253000106,None,333.61898253000106,None,333.61898253000106,None,,,,,,,,,,,,,,008,2022-05-09_15h26.10.121,Main,2022.1.1,60.17603896578809,
positive,negative,2,l,j,,,,,,,,,4,12,84,14,,,,,,,,,main,2,2,2,negative,positive,l,l,1,0.7658138999249786,333.6229100000346,334.6356472999323,334.61896510003135,None,333.6229100000346,None,333.6229100000346,None,333.6229100000346,None,335.38560443002496,None,335.38560443002496,None,335.38560443002496,None,,,,,,,,,,,,,,008,2022-05-09_15h26.10.121,Main,2022.1.1,60.17603896578809,
neutral,positive,2,k,k,,,,,,,,,4,13,85,13,,,,,,,,,main,1,1,2,positive,neutral,k,k,1,0.7320661999983713,335.389622699935,336.40515749994665,336.3855969000142,None,335.389622699935,None,335.389622699935,None,335.389622699935,None,337.11897452994015,None,337.11897452994015,None,337.11897452994015,None,,,,,,,,,,,,,,008,2022-05-09_15h26.10.121,Main,2022.1.1,60.17603896578809,
negative,neutral,1,j,l,,,,,,,,,4,14,86,3,,,,,,,,,main,2,2,1,neutral,negative,j,j,1,0.8971691000042483,337.12507619999815,338.1355509000132,338.1189397999551,None,337.12507619999815,None,337.12507619999815,None,337.12507619999815,None,339.0188853299827,None,339.0188853299827,None,339.0188853299827,None,,,,,,,,,,,,,,008,2022-05-09_15h26.10.121,Main,2022.1.1,60.17603896578809,
negative,negative,1,j,l,,,,,,,,,4,15,87,0,,,,,,,,,main,1,1,1,negative,negative,j,j,1,0.615134899970144,339.02226120000705,340.035646299948,340.0188624999719,None,339.02226120000705,None,339.02226120000705,None,339.02226120000705,None,340.6354884299566,None,340.6354884299566,None,340.6354884299566,None,,,,,,,,,,,,,,008,2022-05-09_15h26.10.121,Main,2022.1.1,60.17603896578809,
negative,neutral,2,j,l,,,,,,,,,4,16,88,12,,,,,,,,,main,2,2,2,neutral,negative,j,j,1,0.6983189999591559,340.6390712999273,341.65215370000806,341.6384879000252,None,340.6390712999273,None,340.6390712999273,None,340.6390712999273,None,342.33547003000274,None,342.33547003000274,None,342.33547003000274,None,,,,,,,,,,,,,,008,2022-05-09_15h26.10.121,Main,2022.1.1,60.17603896578809,
positive,negative,1,l,j,,,,,,,,,4,17,89,5,,,,,,,,,main,2,2,1,negative,positive,l,l,1,0.8649444000329822,342.33905770001,343.3521412999835,343.3354627999943,None,342.33905770001,None,342.33905770001,None,342.33905770001,None,344.2020834299386,None,344.2020834299386,None,344.2020834299386,None,,,,,,,,,,,,,,008,2022-05-09_15h26.10.121,Main,2022.1.1,60.17603896578809,
positive,positive,1,l,j,,,,,,,,,5,0,90,2,,,,,,,,,main,1,1,1,positive,positive,l,l,1,0.6487833000719547,344.20709059992805,345.21875739993993,345.20210260001477,None,344.20709059992805,None,344.20709059992805,None,344.20709059992805,None,345.85204583002485,None,345.85204583002485,None,345.85204583002485,None,,,,,,,,,,,,,,008,2022-05-09_15h26.10.121,Main,2022.1.1,60.17603896578809,
positive,negative,2,l,j,,,,,,,,,5,1,91,14,,,,,,,,,main,1,1,2,negative,positive,l,l,1,0.9812770000426099,345.86318949994165,346.8686984999804,346.8520411000354,None,345.86318949994165,None,345.86318949994165,None,345.86318949994165,None,347.835353530047,None,347.835353530047,None,347.835353530047,None,,,,,,,,,,,,,,008,2022-05-09_15h26.10.121,Main,2022.1.1,60.17603896578809,
negative,positive,2,j,l,,,,,,,,,5,2,92,15,,,,,,,,,main,2,2,2,positive,negative,j,j,1,0.8822654000250623,347.84148579998873,348.8520098000299,348.835335199954,None,347.84148579998873,None,347.84148579998873,None,347.84148579998873,None,349.7186407299363,None,349.7186407299363,None,349.7186407299363,None,,,,,,,,,,,,,,008,2022-05-09_15h26.10.121,Main,2022.1.1,60.17603896578809,
neutral,negative,1,k,k,,,,,,,,,5,3,93,7,,,,,,,,,main,2,2,1,negative,neutral,k,k,1,0.6808877000585198,349.7227853999939,350.73816519998945,350.7215981000336,None,349.7227853999939,None,349.7227853999939,None,349.7227853999939,None,351.40191042997174,None,351.40191042997174,None,351.40191042997174,None,,,,,,,,,,,,,,008,2022-05-09_15h26.10.121,Main,2022.1.1,60.17603896578809,
positive,neutral,1,l,j,,,,,,,,,5,4,94,8,,,,,,,,,main,2,2,1,neutral,positive,l,l,1,0.7984790999908,351.4078870000085,352.41856859996915,352.4019031999633,None,351.4078870000085,None,351.4078870000085,None,351.4078870000085,None,353.2019146300503,None,353.2019146300503,None,353.2019146300503,None,,,,,,,,,,,,,,008,2022-05-09_15h26.10.121,Main,2022.1.1,60.17603896578809,
negative,neutral,1,j,l,,,,,,,,,5,5,95,3,,,,,,,,,main,2,2,1,neutral,negative,j,j,1,0.7483222000300884,353.2073393999599,354.2185534000164,354.20187989994884,None,353.2073393999599,None,353.2073393999599,None,353.2073393999599,None,354.9519029299612,None,354.9519029299612,None,354.9519029299612,None,,,,,,,,,,,,,,008,2022-05-09_15h26.10.121,Main,2022.1.1,60.17603896578809,
positive,neutral,2,l,j,,,,,,,,,5,6,96,17,,,,,,,,,main,1,1,2,neutral,positive,l,l,1,0.8650457001058385,354.95504020003136,355.9712923000334,355.95189100003336,None,354.95504020003136,None,354.95504020003136,None,354.95504020003136,None,356.81848923004,None,356.81848923004,None,356.81848923004,None,,,,,,,,,,,,,,008,2022-05-09_15h26.10.121,Main,2022.1.1,60.17603896578809,
negative,positive,1,j,l,,,,,,,,,5,7,97,6,,,,,,,,,main,2,2,1,positive,negative,j,j,1,0.831718000001274,356.82373970001936,357.8351496999385,357.8019198999973,None,356.82373970001936,None,356.82373970001936,None,356.82373970001936,None,358.65175952998686,None,358.65175952998686,None,358.65175952998686,None,,,,,,,,,,,,,,008,2022-05-09_15h26.10.121,Main,2022.1.1,60.17603896578809,
neutral,neutral,1,k,k,,,,,,,,,5,8,98,1,,,,,,,,,main,2,2,1,neutral,neutral,k,k,1,1.048432799987495,358.6570764000062,359.66841929999646,359.65176379994955,None,358.6570764000062,None,358.6570764000062,None,358.6570764000062,None,360.70180733004815,None,360.70180733004815,None,360.70180733004815,None,,,,,,,,,,,,,,008,2022-05-09_15h26.10.121,Main,2022.1.1,60.17603896578809,
neutral,positive,1,k,k,,,,,,,,,5,9,99,4,,,,,,,,,main,2,2,1,positive,neutral,k,k,1,0.5647741000866517,360.705189100001,361.7213059000205,361.7017016999889,None,360.705189100001,None,360.705189100001,None,360.705189100001,None,362.2683371299994,None,362.2683371299994,None,362.2683371299994,None,,,,,,,,,,,,,,008,2022-05-09_15h26.10.121,Main,2022.1.1,60.17603896578809,
neutral,neutral,2,k,k,,,,,,,,,5,10,100,10,,,,,,,,,main,2,2,2,neutral,neutral,k,k,1,0.6986044999212027,362.2850995999761,363.28508209995925,363.26843850000296,None,362.2850995999761,None,362.2850995999761,None,362.2850995999761,None,363.9683318300289,None,363.9683318300289,None,363.9683318300289,None,,,,,,,,,,,,,,008,2022-05-09_15h26.10.121,Main,2022.1.1,60.17603896578809,
negative,neutral,2,j,l,,,,,,,,,5,11,101,12,,,,,,,,,main,2,2,2,neutral,negative,j,j,1,0.8985017999075353,363.9735535000218,364.9879202999873,364.9683197999839,None,363.9735535000218,None,363.9735535000218,None,363.9735535000218,None,365.8684200300253,None,365.8684200300253,None,365.8684200300253,None,,,,,,,,,,,,,,008,2022-05-09_15h26.10.121,Main,2022.1.1,60.17603896578809,
positive,positive,2,l,j,,,,,,,,,5,12,102,11,,,,,,,,,main,1,1,2,positive,positive,l,l,1,0.7815659999614581,365.8850206999341,366.88494579994585,366.8682818999514,None,365.8850206999341,None,365.8850206999341,None,365.8850206999341,None,367.6515749299782,None,367.6515749299782,None,367.6515749299782,None,,,,,,,,,,,,,,008,2022-05-09_15h26.10.121,Main,2022.1.1,60.17603896578809,
negative,negative,2,j,l,,,,,,,,,5,13,103,9,,,,,,,,,main,2,2,2,negative,negative,j,j,1,0.731502200011164,367.65483899996616,368.6683062999509,368.6515769000398,None,367.65483899996616,None,367.65483899996616,None,367.65483899996616,None,369.38489392996996,None,369.38489392996996,None,369.38489392996996,None,,,,,,,,,,,,,,008,2022-05-09_15h26.10.121,Main,2022.1.1,60.17603896578809,
neutral,negative,2,k,k,,,,,,,,,5,14,104,16,,,,,,,,,main,2,2,2,negative,neutral,k,k,1,0.7317953000310808,369.3880069999723,370.40153169992846,370.38490619999357,None,369.3880069999723,None,369.3880069999723,None,369.3880069999723,None,371.11818492998134,None,371.11818492998134,None,371.11818492998134,None,,,,,,,,,,,,,,008,2022-05-09_15h26.10.121,Main,2022.1.1,60.17603896578809,
positive,negative,1,l,j,,,,,,,,,5,15,105,5,,,,,,,,,main,2,2,1,negative,positive,l,l,1,0.7651165999704972,371.12369559996296,372.13482709997334,372.1181716999272,None,371.12369559996296,None,371.12369559996296,None,371.12369559996296,None,372.8847838299465,None,372.8847838299465,None,372.8847838299465,None,,,,,,,,,,,,,,008,2022-05-09_15h26.10.121,Main,2022.1.1,60.17603896578809,
negative,negative,1,j,l,,,,,,,,,5,16,106,0,,,,,,,,,main,2,2,1,negative,negative,j,j,1,0.7147672999417409,372.8901732999366,373.9014914999716,373.88479419995565,None,372.8901732999366,None,372.8901732999366,None,372.8901732999366,None,374.60141603000227,None,374.60141603000227,None,374.60141603000227,None,,,,,,,,,,,,,,008,2022-05-09_15h26.10.121,Main,2022.1.1,60.17603896578809,
neutral,positive,2,k,k,,,,,,,,,5,17,107,13,,,,,,,,,main,2,2,2,positive,neutral,k,k,1,0.7317865999648347,374.6066456999397,375.6180728999898,375.60141180001665,None,374.6066456999397,None,374.6066456999397,None,374.6066456999397,None,376.3347514300025,None,376.3347514300025,None,376.3347514300025,None,,,,,,,,,,,,,,008,2022-05-09_15h26.10.121,Main,2022.1.1,60.17603896578809,
neutral,negative,1,k,k,,,,,,,,,6,0,108,7,,,,,,,,,main,1,1,1,negative,neutral,k,k,1,0.7483424000674859,376.3407697000075,377.35138899995945,377.33496949996334,None,376.3407697000075,None,376.3407697000075,None,376.3407697000075,None,378.084686929977,None,378.084686929977,None,378.084686929977,None,,,,,,,,,,,,,,008,2022-05-09_15h26.10.121,Main,2022.1.1,60.17603896578809,
negative,negative,2,j,l,,,,,,,,,6,1,109,9,,,,,,,,,main,2,2,2,negative,negative,j,j,1,0.8640755000524223,378.09084259998053,379.1042309999466,379.08468720002566,None,378.09084259998053,None,378.09084259998053,None,378.09084259998053,None,379.9512934299768,None,379.9512934299768,None,379.9512934299768,None,,,,,,,,,,,,,,008,2022-05-09_15h26.10.121,Main,2022.1.1,60.17603896578809,
neutral,negative,2,k,k,,,,,,,,,6,2,110,16,,,,,,,,,main,2,2,2,negative,neutral,k,k,1,0.7483187000034377,379.9545725999633,380.9680347000249,380.9542733000126,None,379.9545725999633,None,379.9545725999633,None,379.9545725999633,None,381.70126472999107,None,381.70126472999107,None,381.70126472999107,None,,,,,,,,,,,,,,008,2022-05-09_15h26.10.121,Main,2022.1.1,60.17603896578809,
positive,neutral,2,l,j,,,,,,,,,6,3,111,17,,,,,,,,,main,1,1,2,neutral,positive,l,l,1,1.1651106000645086,381.7044460999314,382.70123799995054,382.70123799995054,None,381.7044460999314,None,381.7044460999314,None,381.7044460999314,None,383.8679079299676,None,383.8679079299676,None,383.8679079299676,None,,,,,,,,,,,,,,008,2022-05-09_15h26.10.121,Main,2022.1.1,60.17603896578809,
neutral,positive,1,k,k,,,,,,,,,6,4,112,4,,,,,,,,,main,1,1,1,positive,neutral,k,k,1,0.765045200008899,383.8712392000016,384.8845524999779,384.8678930000169,None,383.8712392000016,None,383.8712392000016,None,383.8712392000016,None,385.6345068300492,None,385.6345068300492,None,385.6345068300492,None,,,,,,,,,,,,,,008,2022-05-09_15h26.10.121,Main,2022.1.1,60.17603896578809,
positive,negative,2,l,j,,,,,,,,,6,5,113,14,,,,,,,,,main,1,1,2,negative,positive,l,l,1,0.89846099994611,385.6399744999362,386.6511703999713,386.6344983000308,None,385.6399744999362,None,385.6399744999362,None,385.6399744999362,None,387.53452312996376,None,387.53452312996376,None,387.53452312996376,None,,,,,,,,,,,,,,008,2022-05-09_15h26.10.121,Main,2022.1.1,60.17603896578809,
neutral,neutral,1,k,k,,,,,,,,,6,6,114,1,,,,,,,,,main,2,2,1,neutral,neutral,k,k,1,0.7982740999432281,387.54005559999496,388.55113020003773,388.53445030003786,None,387.54005559999496,None,387.54005559999496,None,387.54005559999496,None,389.3344527299399,None,389.3344527299399,None,389.3344527299399,None,,,,,,,,,,,,,,008,2022-05-09_15h26.10.121,Main,2022.1.1,60.17603896578809,
negative,negative,1,j,l,,,,,,,,,6,7,115,0,,,,,,,,,main,2,2,1,negative,negative,j,j,1,0.8314450000179932,389.3405808999669,390.3511924999766,390.33734169998206,None,389.3405808999669,None,389.3405808999669,None,389.3405808999669,None,391.1677492299699,None,391.1677492299699,None,391.1677492299699,None,,,,,,,,,,,,,,008,2022-05-09_15h26.10.121,Main,2022.1.1,60.17603896578809,
negative,positive,1,j,l,,,,,,,,,6,8,116,6,,,,,,,,,main,2,2,1,positive,negative,j,j,1,0.8649665999691933,391.1730753999436,392.18438689992763,392.16773220000323,None,391.1730753999436,None,391.1730753999436,None,391.1730753999436,None,393.03435113005105,None,393.03435113005105,None,393.03435113005105,None,,,,,,,,,,,,,,008,2022-05-09_15h26.10.121,Main,2022.1.1,60.17603896578809,
positive,positive,1,l,j,,,,,,,,,6,9,117,2,,,,,,,,,main,1,1,1,positive,positive,l,l,1,0.9154145000502467,393.05119269993156,394.051003200002,394.03434040001594,None,393.05119269993156,None,393.05119269993156,None,393.05119269993156,None,394.950966830051,None,394.950966830051,None,394.950966830051,None,,,,,,,,,,,,,,008,2022-05-09_15h26.10.121,Main,2022.1.1,60.17603896578809,
positive,neutral,1,l,j,,,,,,,,,6,10,118,8,,,,,,,,,main,1,1,1,neutral,positive,l,l,1,1.2980483999708667,394.9566918000346,395.96764589997474,395.9509796999628,None,394.9566918000346,None,394.9566918000346,None,394.9566918000346,None,397.2510552299558,None,397.2510552299558,None,397.2510552299558,None,,,,,,,,,,,,,,008,2022-05-09_15h26.10.121,Main,2022.1.1,60.17603896578809,
positive,positive,2,l,j,,,,,,,,,6,11,119,11,,,,,,,,,main,1,1,2,positive,positive,l,l,1,0.6648326000431553,397.25449990003835,398.2676647999324,398.2509380999254,None,397.25449990003835,None,397.25449990003835,None,397.25449990003835,None,398.91760633004594,None,398.91760633004594,None,398.91760633004594,None,,,,,,,,,,,,,,008,2022-05-09_15h26.10.121,Main,2022.1.1,60.17603896578809,
positive,negative,1,l,j,,,,,,,,,6,12,120,5,,,,,,,,,main,2,2,1,negative,positive,l,l,1,0.9320275000063702,398.92412159999367,399.93422779999673,399.9175501000136,None,398.92412159999367,None,398.92412159999367,None,398.92412159999367,None,400.85104872999943,None,400.85104872999943,None,400.85104872999943,None,,,,,,,,,,,,,,008,2022-05-09_15h26.10.121,Main,2022.1.1,60.17603896578809,
negative,neutral,2,j,l,,,,,,,,,6,13,121,12,,,,,,,,,main,1,1,2,neutral,negative,j,j,1,0.7822290000040084,400.8541215999285,401.86750269995537,401.8508298000088,None,400.8541215999285,None,400.8541215999285,None,400.8541215999285,None,402.6341329299961,None,402.6341329299961,None,402.6341329299961,None,,,,,,,,,,,,,,008,2022-05-09_15h26.10.121,Main,2022.1.1,60.17603896578809,
neutral,neutral,2,k,k,,,,,,,,,6,14,122,10,,,,,,,,,main,1,1,2,neutral,neutral,k,k,1,0.8141693000216037,402.6381553999381,403.650795500027,403.634116500034,None,402.6381553999381,None,402.6381553999381,None,402.6381553999381,None,404.45077032995175,None,404.45077032995175,None,404.45077032995175,None,,,,,,,,,,,,,,008,2022-05-09_15h26.10.121,Main,2022.1.1,60.17603896578809,
negative,neutral,1,j,l,,,,,,,,,6,15,123,3,,,,,,,,,main,1,1,1,neutral,negative,j,j,1,1.0149287999374792,404.4562242999673,405.4674938999815,405.450781499967,None,404.4562242999673,None,404.4562242999673,None,404.4562242999673,None,406.46739713001296,None,406.46739713001296,None,406.46739713001296,None,,,,,,,,,,,,,,008,2022-05-09_15h26.10.121,Main,2022.1.1,60.17603896578809,
neutral,positive,2,k,k,,,,,,,,,6,16,124,13,,,,,,,,,main,2,2,2,positive,neutral,k,k,1,1.08173810003791,406.4708040000405,407.4840568000218,407.46739050000906,None,406.4708040000405,None,406.4708040000405,None,406.4708040000405,None,408.55068973001323,None,408.55068973001323,None,408.55068973001323,None,,,,,,,,,,,,,,008,2022-05-09_15h26.10.121,Main,2022.1.1,60.17603896578809,
negative,positive,2,j,l,,,,,,,,,6,17,125,15,,,,,,,,,main,2,2,2,positive,negative,j,j,1,0.9149831000249833,408.556539400015,409.57007130002603,409.5506672000047,None,408.556539400015,None,408.556539400015,None,408.556539400015,None,410.46732033001024,None,410.46732033001024,None,410.46732033001024,None,,,,,,,,,,,,,,008,2022-05-09_15h26.10.121,Main,2022.1.1,60.17603896578809,
neutral,negative,1,k,k,,,,,,,,,7,0,126,7,,,,,,,,,main,1,1,1,negative,neutral,k,k,1,1.281791500048712,410.47255619999487,411.4840407000156,411.46734319999814,None,410.47255619999487,None,410.47255619999487,None,410.47255619999487,None,412.7507346299593,None,412.7507346299593,None,412.7507346299593,None,,,,,,,,,,,,,,008,2022-05-09_15h26.10.121,Main,2022.1.1,60.17603896578809,
positive,neutral,2,l,j,,,,,,,,,7,1,127,17,,,,,,,,,main,2,2,2,neutral,positive,l,l,1,0.7987389999907464,412.7556869999971,413.76726420002524,413.75057969999034,None,412.7556869999971,None,412.7556869999971,None,412.7556869999971,None,414.5505734299426,None,414.5505734299426,None,414.5505734299426,None,,,,,,,,,,,,,,008,2022-05-09_15h26.10.121,Main,2022.1.1,60.17603896578809,
neutral,neutral,2,k,k,,,,,,,,,7,2,128,10,,,,,,,,,main,2,2,2,neutral,neutral,k,k,1,1.1147161000408232,414.55648549995385,415.5671898999717,415.55054359999485,None,414.55648549995385,None,414.55648549995385,None,414.55648549995385,None,416.66715612999394,None,416.66715612999394,None,416.66715612999394,None,,,,,,,,,,,,,,008,2022-05-09_15h26.10.121,Main,2022.1.1,60.17603896578809,
negative,negative,1,j,l,,,,,,,,,7,3,129,0,,,,,,,,,main,2,2,1,negative,negative,j,j,1,1.0650997000047937,416.67255319992546,417.6838155000005,417.66723150003236,None,416.67255319992546,None,416.67255319992546,None,416.67255319992546,None,418.73381352998547,None,418.73381352998547,None,418.73381352998547,None,,,,,,,,,,,,,,008,2022-05-09_15h26.10.121,Main,2022.1.1,60.17603896578809,
neutral,neutral,1,k,k,,,,,,,,,7,4,130,1,,,,,,,,,main,1,1,1,neutral,neutral,k,k,1,1.0808121000882238,418.75053910003044,419.7504548999714,419.733770599938,None,418.75053910003044,None,418.75053910003044,None,418.75053910003044,None,420.8170506300288,None,420.8170506300288,None,420.8170506300288,None,,,,,,,,,,,,,,008,2022-05-09_15h26.10.121,Main,2022.1.1,60.17603896578809,
positive,positive,2,l,j,,,,,,,,,7,5,131,11,,,,,,,,,main,2,2,2,positive,positive,l,l,1,0.8485760999610648,420.82021119992714,421.83372759993654,421.81707420002203,None,420.82021119992714,None,420.82021119992714,None,420.82021119992714,None,422.66710253005147,None,422.66710253005147,None,422.66710253005147,None,,,,,,,,,,,,,,008,2022-05-09_15h26.10.121,Main,2022.1.1,60.17603896578809,
negative,neutral,2,j,l,,,,,,,,,7,6,132,12,,,,,,,,,main,1,1,2,neutral,negative,j,j,1,0.8651473999489099,422.6707869999809,423.6836955000181,423.6670180000365,None,422.6707869999809,None,422.6707869999809,None,422.6707869999809,None,424.5337122299592,None,424.5337122299592,None,424.5337122299592,None,,,,,,,,,,,,,,008,2022-05-09_15h26.10.121,Main,2022.1.1,60.17603896578809,
negative,positive,2,j,l,,,,,,,,,7,7,133,15,,,,,,,,,main,2,2,2,positive,negative,j,j,1,0.964935600059107,424.537729499978,425.55030839995015,425.53660749993287,None,424.537729499978,None,424.537729499978,None,424.537729499978,None,426.5002943299827,None,426.5002943299827,None,426.5002943299827,None,,,,,,,,,,,,,,008,2022-05-09_15h26.10.121,Main,2022.1.1,60.17603896578809,
negative,negative,2,j,l,,,,,,,,,7,8,134,9,,,,,,,,,main,2,2,2,negative,negative,j,j,1,0.715038700029254,426.503890199936,427.51695680001285,427.50029280001763,None,426.503890199936,None,426.503890199936,None,426.503890199936,None,428.2169915299513,None,428.2169915299513,None,428.2169915299513,None,,,,,,,,,,,,,,008,2022-05-09_15h26.10.121,Main,2022.1.1,60.17603896578809,
neutral,positive,2,k,k,,,,,,,,,7,9,135,13,,,,,,,,,main,1,1,2,positive,neutral,k,k,1,0.7478444000007585,428.22070920001715,429.2335751999635,429.2168956999667,None,428.22070920001715,None,428.22070920001715,None,428.22070920001715,None,429.96688772997584,None,429.96688772997584,None,429.96688772997584,None,,,,,,,,,,,,,,008,2022-05-09_15h26.10.121,Main,2022.1.1,60.17603896578809,
neutral,negative,2,k,k,,,,,,,,,7,10,136,16,,,,,,,,,main,1,1,2,negative,neutral,k,k,1,0.6314772999612615,429.9701130000176,430.98352729994804,430.9668646999635,None,429.9701130000176,None,429.9701130000176,None,429.9701130000176,None,431.6002007299452,None,431.6002007299452,None,431.6002007299452,None,,,,,,,,,,,,,,008,2022-05-09_15h26.10.121,Main,2022.1.1,60.17603896578809,
negative,positive,1,j,l,,,,,,,,,7,11,137,6,,,,,,,,,main,2,2,1,positive,negative,j,j,1,0.8985924998996779,431.604186499957,432.61684579995926,432.60017019999214,None,431.604186499957,None,431.604186499957,None,431.604186499957,None,433.50016163002,None,433.50016163002,None,433.50016163002,None,,,,,,,,,,,,,,008,2022-05-09_15h26.10.121,Main,2022.1.1,60.17603896578809,
positive,positive,1,l,j,,,,,,,,,7,12,138,2,,,,,,,,,main,2,2,1,positive,positive,l,l,1,0.8317350000143051,433.50617459998466,434.51679329993203,434.5001463999506,None,433.50617459998466,None,433.50617459998466,None,433.50617459998466,None,435.33346803000893,None,435.33346803000893,None,435.33346803000893,None,,,,,,,,,,,,,,008,2022-05-09_15h26.10.121,Main,2022.1.1,60.17603896578809,
positive,negative,1,l,j,,,,,,,,,7,13,139,5,,,,,,,,,main,1,1,1,negative,positive,l,l,1,0.7486550000030547,435.33748739992734,436.3501144000329,436.3334404999623,None,435.33748739992734,None,435.33748739992734,None,435.33748739992734,None,437.08341852998126,None,437.08341852998126,None,437.08341852998126,None,,,,,,,,,,,,,,008,2022-05-09_15h26.10.121,Main,2022.1.1,60.17603896578809,
negative,neutral,1,j,l,,,,,,,,,7,14,140,3,,,,,,,,,main,1,1,1,neutral,negative,j,l,0,-0.16953910002484918,437.0895691999467,None,None,None,437.0895691999467,None,437.0895691999467,None,437.0895691999467,None,437.91671040002257,None,437.91671040002257,None,437.91671040002257,None,,,,,,,,,,,,,,008,2022-05-09_15h26.10.121,Main,2022.1.1,60.17603896578809,
positive,neutral,1,l,j,,,,,,,,,7,15,141,8,,,,,,,,,main,1,1,1,neutral,positive,l,l,1,0.8665022999048233,440.92271750001237,441.9332894999534,441.91663330001757,None,440.92271750001237,None,440.92271750001237,None,440.92271750001237,None,442.7832620300236,None,442.7832620300236,None,442.7832620300236,None,,,,,,,,,,,,,,008,2022-05-09_15h26.10.121,Main,2022.1.1,60.17603896578809,
neutral,positive,1,k,k,,,,,,,,,7,16,142,4,,,,,,,,,main,2,2,1,positive,neutral,k,k,1,0.7649325000820681,442.78693489998113,443.78334710001945,443.78334710001945,None,442.78693489998113,None,442.78693489998113,None,442.78693489998113,None,444.5498781300033,None,444.5498781300033,None,444.5498781300033,None,,,,,,,,,,,,,,008,2022-05-09_15h26.10.121,Main,2022.1.1,60.17603896578809,
positive,negative,2,l,j,,,,,,,,,7,17,143,14,,,,,,,,,main,1,1,2,negative,positive,l,l,1,0.7815738000208512,444.55340019997675,445.56657090003137,445.5499020999996,None,444.55340019997675,None,444.55340019997675,None,444.55340019997675,None,446.3332109300303,None,446.3332109300303,None,446.3332109300303,None,,,,,,,,,,,,,,008,2022-05-09_15h26.10.121,Main,2022.1.1,60.17603896578809,
positive,positive,1,l,j,,,,,,,,,8,0,144,2,,,,,,,,,main,1,1,1,positive,positive,l,l,1,0.7150027999887243,446.3365296999691,447.3498620999744,447.3331962999655,None,446.3365296999691,None,446.3365296999691,None,446.3365296999691,None,448.04982113003496,None,448.04982113003496,None,448.04982113003496,None,,,,,,,,,,,,,,008,2022-05-09_15h26.10.121,Main,2022.1.1,60.17603896578809,
positive,neutral,2,l,j,,,,,,,,,8,1,145,17,,,,,,,,,main,1,1,2,neutral,positive,l,l,1,0.6482595999259502,448.053768999991,449.06647369998973,449.04982770001516,None,448.053768999991,None,448.053768999991,None,448.053768999991,None,449.6998018300277,None,449.6998018300277,None,449.6998018300277,None,,,,,,,,,,,,,,008,2022-05-09_15h26.10.121,Main,2022.1.1,60.17603896578809,
negative,positive,2,j,l,,,,,,,,,8,2,146,15,,,,,,,,,main,2,2,2,positive,negative,j,j,1,0.7817700000014156,449.7032540999353,450.69978699996136,450.6859882000135,None,449.7032540999353,None,449.7032540999353,None,449.7032540999353,None,451.4830849300255,None,451.4830849300255,None,451.4830849300255,None,,,,,,,,,,,,,,008,2022-05-09_15h26.10.121,Main,2022.1.1,60.17603896578809,
neutral,positive,2,k,k,,,,,,,,,8,3,147,13,,,,,,,,,main,1,1,2,positive,neutral,k,k,1,0.7649549000198022,451.48653859994374,452.499727300019,452.4831283999374,None,451.48653859994374,None,451.48653859994374,None,451.48653859994374,None,453.24973353001985,None,453.24973353001985,None,453.24973353001985,None,,,,,,,,,,,,,,008,2022-05-09_15h26.10.121,Main,2022.1.1,60.17603896578809,
positive,negative,1,l,j,,,,,,,,,8,4,148,5,,,,,,,,,main,1,1,1,negative,positive,l,l,1,0.7815684000961483,453.2530773000326,454.26644010003656,454.2497133000288,None,453.2530773000326,None,453.2530773000326,None,453.2530773000326,None,455.0330120299826,None,455.0330120299826,None,455.0330120299826,None,,,,,,,,,,,,,,008,2022-05-09_15h26.10.121,Main,2022.1.1,60.17603896578809,
positive,neutral,1,l,j,,,,,,,,,8,5,149,8,,,,,,,,,main,2,2,1,neutral,positive,l,l,1,0.6485357000492513,455.0369834000012,456.04965749999974,456.03307879995555,None,455.0369834000012,None,455.0369834000012,None,455.0369834000012,None,456.68301942994583,None,456.68301942994583,None,456.68301942994583,None,,,,,,,,,,,,,,008,2022-05-09_15h26.10.121,Main,2022.1.1,60.17603896578809,
neutral,neutral,1,k,k,,,,,,,,,8,6,150,1,,,,,,,,,main,2,2,1,neutral,neutral,k,k,1,0.7481814000057057,456.6864202999277,457.6859509999631,457.6859509999631,None,456.6864202999277,None,456.6864202999277,None,456.6864202999277,None,458.4329176299856,None,458.4329176299856,None,458.4329176299856,None,,,,,,,,,,,,,,008,2022-05-09_15h26.10.121,Main,2022.1.1,60.17603896578809,
negative,positive,1,j,l,,,,,,,,,8,7,151,6,,,,,,,,,main,2,2,1,positive,negative,j,j,1,1.2148986000102013,458.4363261000253,459.4495784000028,459.43291269999463,None,458.4363261000253,None,458.4363261000253,None,458.4363261000253,None,460.6495639300323,None,460.6495639300323,None,460.6495639300323,None,,,,,,,,,,,,,,008,2022-05-09_15h26.10.121,Main,2022.1.1,60.17603896578809,
neutral,positive,1,k,k,,,,,,,,,8,8,152,4,,,,,,,,,main,1,1,1,positive,neutral,k,k,1,0.8318598000332713,460.6524862999795,461.66623440000694,461.6495590999257,None,460.6524862999795,None,460.6524862999795,None,460.6524862999795,None,462.48286903001133,None,462.48286903001133,None,462.48286903001133,None,,,,,,,,,,,,,,008,2022-05-09_15h26.10.121,Main,2022.1.1,60.17603896578809,
negative,negative,1,j,l,,,,,,,,,8,9,153,0,,,,,,,,,main,1,1,1,negative,negative,j,j,1,1.0483703999780118,462.4884229999734,463.49952089996077,463.48285130003933,None,462.4884229999734,None,462.4884229999734,None,462.4884229999734,None,464.53279952999435,None,464.53279952999435,None,464.53279952999435,None,,,,,,,,,,,,,,008,2022-05-09_15h26.10.121,Main,2022.1.1,60.17603896578809,
positive,positive,2,l,j,,,,,,,,,8,10,154,11,,,,,,,,,main,1,1,2,positive,positive,l,l,1,0.8150512999854982,464.53834079997614,465.5494712999789,465.5328071999829,None,464.53834079997614,None,464.53834079997614,None,464.53834079997614,None,466.3494384299614,None,466.3494384299614,None,466.3494384299614,None,,,,,,,,,,,,,,008,2022-05-09_15h26.10.121,Main,2022.1.1,60.17603896578809,
negative,negative,2,j,l,,,,,,,,,8,11,155,9,,,,,,,,,main,1,1,2,negative,negative,j,j,1,0.9316181999165565,466.3524007999804,467.36610430001747,467.35240919992793,None,466.3524007999804,None,466.3524007999804,None,466.3524007999804,None,468.28274283002827,None,468.28274283002827,None,468.28274283002827,None,,,,,,,,,,,,,,008,2022-05-09_15h26.10.121,Main,2022.1.1,60.17603896578809,
negative,neutral,2,j,l,,,,,,,,,8,12,156,12,,,,,,,,,main,2,2,2,neutral,negative,j,j,1,1.348188899923116,468.28612970001996,469.2827032000059,469.2827032000059,None,468.28612970001996,None,468.28612970001996,None,468.28612970001996,None,470.632653730025,None,470.632653730025,None,470.632653730025,None,,,,,,,,,,,,,,008,2022-05-09_15h26.10.121,Main,2022.1.1,60.17603896578809,
negative,neutral,1,j,l,,,,,,,,,8,13,157,3,,,,,,,,,main,2,2,1,neutral,negative,j,j,1,0.8643236999632791,470.63667789998,471.64930199994706,471.63267289998475,None,470.63667789998,None,470.63667789998,None,470.63667789998,None,472.49930513001743,None,472.49930513001743,None,472.49930513001743,None,,,,,,,,,,,,,,008,2022-05-09_15h26.10.121,Main,2022.1.1,60.17603896578809,
positive,negative,2,l,j,,,,,,,,,8,14,158,14,,,,,,,,,main,2,2,2,negative,positive,l,l,1,0.7483820000197738,472.5026167000178,473.5159618000034,473.4993213999551,None,472.5026167000178,None,472.5026167000178,None,472.5026167000178,None,474.2492605300271,None,474.2492605300271,None,474.2492605300271,None,,,,,,,,,,,,,,008,2022-05-09_15h26.10.121,Main,2022.1.1,60.17603896578809,
neutral,neutral,2,k,k,,,,,,,,,8,15,159,10,,,,,,,,,main,2,2,2,neutral,neutral,k,k,1,0.7649803999811411,474.25527630001307,475.2659274999751,475.2492731999373,None,474.25527630001307,None,474.25527630001307,None,474.25527630001307,None,476.0158699299558,None,476.0158699299558,None,476.0158699299558,None,,,,,,,,,,,,,,008,2022-05-09_15h26.10.121,Main,2022.1.1,60.17603896578809,
neutral,negative,1,k,k,,,,,,,,,8,16,160,7,,,,,,,,,main,1,1,1,negative,neutral,k,k,1,0.8161198999732733,476.0189124000026,477.03253259998746,477.01584999996703,None,476.0189124000026,None,476.0189124000026,None,476.0189124000026,None,477.83252543004926,None,477.83252543004926,None,477.83252543004926,None,,,,,,,,,,,,,,008,2022-05-09_15h26.10.121,Main,2022.1.1,60.17603896578809,
neutral,negative,2,k,k,,,,,,,,,8,17,161,16,,,,,,,,,main,1,1,2,negative,neutral,k,k,1,0.7136898000026122,477.836530999979,478.84917349996977,478.8325148000149,None,477.836530999979,None,477.836530999979,None,477.836530999979,None,479.54915033004943,None,479.54915033004943,None,479.54915033004943,None,,,,,,,,,,,,,,008,2022-05-09_15h26.10.121,Main,2022.1.1,60.17603896578809,
positive,negative,1,l,j,,,,,,,,,9,0,162,5,,,,,,,,,main,1,1,1,negative,positive,l,l,1,0.9311532999854535,479.5658765999833,480.56578699999955,480.55207500001416,None,479.5658765999833,None,479.5658765999833,None,479.5658765999833,None,481.48243142993886,None,481.48243142993886,None,481.48243142993886,None,,,,,,,,,,,,,,008,2022-05-09_15h26.10.121,Main,2022.1.1,60.17603896578809,
negative,positive,2,j,l,,,,,,,,,9,1,163,15,,,,,,,,,main,1,1,2,positive,negative,j,j,1,1.1483004000037909,481.4857355999993,482.4990719000343,482.48242250003386,None,481.4857355999993,None,481.4857355999993,None,481.4857355999993,None,483.63246873001333,None,483.63246873001333,None,483.63246873001333,None,,,,,,,,,,,,,,008,2022-05-09_15h26.10.121,Main,2022.1.1,60.17603896578809,
positive,neutral,2,l,j,,,,,,,,,9,2,164,17,,,,,,,,,main,2,2,2,neutral,positive,l,l,1,0.8827368000056595,483.6358765999321,484.6491262000054,484.6323739000363,None,483.6358765999321,None,483.6358765999321,None,483.6358765999321,None,485.51577562993623,None,485.51577562993623,None,485.51577562993623,None,,,,,,,,,,,,,,008,2022-05-09_15h26.10.121,Main,2022.1.1,60.17603896578809,
positive,neutral,1,l,j,,,,,,,,,9,3,165,8,,,,,,,,,main,1,1,1,neutral,positive,l,l,1,0.8306159999920055,485.5197736999253,486.5323382000206,486.515693299938,None,485.5197736999253,None,485.5197736999253,None,485.5197736999253,None,487.3489759300486,None,487.3489759300486,None,487.3489759300486,None,,,,,,,,,,,,,,008,2022-05-09_15h26.10.121,Main,2022.1.1,60.17603896578809,
neutral,positive,2,k,k,,,,,,,,,9,4,166,13,,,,,,,,,main,2,2,2,positive,neutral,k,k,1,0.9316653000423685,487.3529463999439,488.36564019997604,488.34897119994275,None,487.3529463999439,None,487.3529463999439,None,487.3529463999439,None,489.2823676299653,None,489.2823676299653,None,489.2823676299653,None,,,,,,,,,,,,,,008,2022-05-09_15h26.10.121,Main,2022.1.1,60.17603896578809,
negative,neutral,1,j,l,,,,,,,,,9,5,167,3,,,,,,,,,main,2,2,1,neutral,negative,j,j,1,0.7815376000944525,489.2878861000063,490.29892870003823,490.2822474000277,None,489.2878861000063,None,489.2878861000063,None,489.2878861000063,None,491.06567673004463,None,491.06567673004463,None,491.06567673004463,None,,,,,,,,,,,,,,008,2022-05-09_15h26.10.121,Main,2022.1.1,60.17603896578809,
positive,positive,1,l,j,,,,,,,,,9,6,168,2,,,,,,,,,main,1,1,1,positive,positive,l,l,1,0.7484582000179216,491.06887119996827,492.0655226999661,492.0655226999661,None,491.06887119996827,None,491.06887119996827,None,491.06887119996827,None,492.81551442997295,None,492.81551442997295,None,492.81551442997295,None,,,,,,,,,,,,,,008,2022-05-09_15h26.10.121,Main,2022.1.1,60.17603896578809,
negative,neutral,2,j,l,,,,,,,,,9,7,169,12,,,,,,,,,main,2,2,2,neutral,negative,j,j,1,0.9324546999996528,492.8188578999834,493.8321858999552,493.8156063000206,None,492.8188578999834,None,492.8188578999834,None,492.8188578999834,None,494.7497098299558,None,494.7497098299558,None,494.7497098299558,None,,,,,,,,,,,,,,008,2022-05-09_15h26.10.121,Main,2022.1.1,60.17603896578809,
neutral,negative,1,k,k,,,,,,,,,9,8,170,7,,,,,,,,,main,2,2,1,negative,neutral,k,k,1,0.8521733999950811,494.75570139999036,495.765475400025,495.74890879995655,None,494.75570139999036,None,494.75570139999036,None,494.75570139999036,None,496.60127272995885,None,496.60127272995885,None,496.60127272995885,None,,,,,,,,,,,,,,008,2022-05-09_15h26.10.121,Main,2022.1.1,60.17603896578809,
positive,negative,2,l,j,,,,,,,,,9,9,171,14,,,,,,,,,main,2,2,2,negative,positive,l,l,1,0.9267279000487179,496.60667270002887,497.61543539993,497.59876710001845,None,496.60667270002887,None,496.60667270002887,None,496.60667270002887,None,498.5320762299583,None,498.5320762299583,None,498.5320762299583,None,,,,,,,,,,,,,,008,2022-05-09_15h26.10.121,Main,2022.1.1,60.17603896578809,
negative,positive,1,j,l,,,,,,,,,9,10,172,6,,,,,,,,,main,1,1,1,positive,negative,j,j,1,0.8486817999510095,498.5355498000281,499.5487282000249,499.5320634000236,None,498.5355498000281,None,498.5355498000281,None,498.5355498000281,None,500.38200963001,None,500.38200963001,None,500.38200963001,None,,,,,,,,,,,,,,008,2022-05-09_15h26.10.121,Main,2022.1.1,60.17603896578809,
neutral,negative,2,k,k,,,,,,,,,9,11,173,16,,,,,,,,,main,2,2,2,negative,neutral,k,k,1,0.7644885999616235,500.3880448000273,501.3986848000204,501.3820224000374,None,500.3880448000273,None,500.3880448000273,None,500.3880448000273,None,502.1486459300271,None,502.1486459300271,None,502.1486459300271,None,,,,,,,,,,,,,,008,2022-05-09_15h26.10.121,Main,2022.1.1,60.17603896578809,
negative,negative,1,j,l,,,,,,,,,9,12,174,0,,,,,,,,,main,1,1,1,negative,negative,j,j,1,0.8648993000388145,502.1520081999479,503.1653112999629,503.1486341999844,None,502.1520081999479,None,502.1520081999479,None,502.1520081999479,None,504.01533752997636,None,504.01533752997636,None,504.01533752997636,None,,,,,,,,,,,,,,008,2022-05-09_15h26.10.121,Main,2022.1.1,60.17603896578809,
negative,negative,2,j,l,,,,,,,,,9,13,175,9,,,,,,,,,main,2,2,2,negative,negative,j,j,1,0.9650614999700338,504.01817149994895,505.03193910000846,505.01525900000706,None,504.01817149994895,None,504.01817149994895,None,504.01817149994895,None,505.98189203002255,None,505.98189203002255,None,505.98189203002255,None,,,,,,,,,,,,,,008,2022-05-09_15h26.10.121,Main,2022.1.1,60.17603896578809,
neutral,neutral,2,k,k,,,,,,,,,9,14,176,10,,,,,,,,,main,1,1,2,neutral,neutral,k,k,1,0.7316180999623612,505.9847260999959,506.9985657000216,506.98188590002246,None,505.9847260999959,None,505.9847260999959,None,505.9847260999959,None,507.7152984299813,None,507.7152984299813,None,507.7152984299813,None,,,,,,,,,,,,,,008,2022-05-09_15h26.10.121,Main,2022.1.1,60.17603896578809,
positive,positive,2,l,j,,,,,,,,,9,15,177,11,,,,,,,,,main,2,2,2,positive,positive,l,l,1,0.7651651999913156,507.71832610003185,508.7318492999766,508.7151826999616,None,507.71832610003185,None,507.71832610003185,None,507.71832610003185,None,509.4818406299804,None,509.4818406299804,None,509.4818406299804,None,,,,,,,,,,,,,,008,2022-05-09_15h26.10.121,Main,2022.1.1,60.17603896578809,
neutral,positive,1,k,k,,,,,,,,,9,16,178,4,,,,,,,,,main,2,2,1,positive,neutral,k,k,1,0.7808440000517294,509.485886999988,510.49847260001116,510.48197229998186,None,509.485886999988,None,509.485886999988,None,509.485886999988,None,511.2651165300398,None,511.2651165300398,None,511.2651165300398,None,,,,,,,,,,,,,,008,2022-05-09_15h26.10.121,Main,2022.1.1,60.17603896578809,
neutral,neutral,1,k,k,,,,,,,,,9,17,179,1,,,,,,,,,main,2,2,1,neutral,neutral,k,k,1,1.3149785000132397,511.26843099994585,512.2818083999446,512.2651106999256,None,511.26843099994585,None,511.26843099994585,None,511.26843099994585,None,513.5817569300183,None,513.5817569300183,None,513.5817569300183,None,,,,,,,,,,,,,,008,2022-05-09_15h26.10.121,Main,2022.1.1,60.17603896578809,
negative,neutral,2,j,l,,,,,,,,,10,0,180,12,,,,,,,,,main,2,2,2,neutral,negative,j,j,1,0.7483037000056356,513.5872804999817,514.5985060000094,514.5817312999861,None,513.5872804999817,None,513.5872804999817,None,513.5872804999817,None,515.3316938300035,None,515.3316938300035,None,515.3316938300035,None,,,,,,,,,,,,,,008,2022-05-09_15h26.10.121,Main,2022.1.1,60.17603896578809,
neutral,negative,1,k,k,,,,,,,,,10,1,181,7,,,,,,,,,main,2,2,1,negative,neutral,k,k,1,0.9150963999563828,515.3349863999756,516.3483567000367,516.331756999949,None,515.3349863999756,None,515.3349863999756,None,515.3349863999756,None,517.248332829948,None,517.248332829948,None,517.248332829948,None,,,,,,,,,,,,,,008,2022-05-09_15h26.10.121,Main,2022.1.1,60.17603896578809,
positive,neutral,1,l,j,,,,,,,,,10,2,182,8,,,,,,,,,main,1,1,1,neutral,positive,l,l,1,0.8316663999576122,517.2516879999312,518.2678762000287,518.2483882999513,None,517.2516879999312,None,517.2516879999312,None,517.2516879999312,None,519.0816149299848,None,519.0816149299848,None,519.0816149299848,None,,,,,,,,,,,,,,008,2022-05-09_15h26.10.121,Main,2022.1.1,60.17603896578809,
negative,negative,1,j,l,,,,,,,,,10,3,183,0,,,,,,,,,main,2,2,1,negative,negative,j,j,1,1.2648771000094712,519.0851527999621,520.1011558999307,520.0816385999788,None,519.0851527999621,None,519.0851527999621,None,519.0851527999621,None,521.3482326299767,None,521.3482326299767,None,521.3482326299767,None,,,,,,,,,,,,,,008,2022-05-09_15h26.10.121,Main,2022.1.1,60.17603896578809,
neutral,negative,2,k,k,,,,,,,,,10,4,184,16,,,,,,,,,main,2,2,2,negative,neutral,k,k,1,0.8817050999496132,521.351220499957,522.3648972000228,522.3482248999644,None,521.351220499957,None,521.351220499957,None,521.351220499957,None,523.2315174299641,None,523.2315174299641,None,523.2315174299641,None,,,,,,,,,,,,,,008,2022-05-09_15h26.10.121,Main,2022.1.1,60.17603896578809,
positive,positive,2,l,j,,,,,,,,,10,5,185,11,,,,,,,,,main,1,1,2,positive,positive,l,l,1,0.899142500013113,523.2371088999789,524.2509787000017,524.2315155999968,None,523.2371088999789,None,523.2371088999789,None,523.2371088999789,None,525.1315089300391,None,525.1315089300391,None,525.1315089300391,None,,,,,,,,,,,,,,008,2022-05-09_15h26.10.121,Main,2022.1.1,60.17603896578809,
neutral,positive,2,k,k,,,,,,,,,10,6,186,13,,,,,,,,,main,2,2,2,positive,neutral,k,k,1,0.9640740000177175,525.1357902999735,526.1481369000394,526.1314574999269,None,525.1357902999735,None,525.1357902999735,None,525.1357902999735,None,527.0981000300147,None,527.0981000300147,None,527.0981000300147,None,,,,,,,,,,,,,,008,2022-05-09_15h26.10.121,Main,2022.1.1,60.17603896578809,
neutral,positive,1,k,k,,,,,,,,,10,7,187,4,,,,,,,,,main,2,2,1,positive,neutral,k,k,1,1.3476865999400616,527.1042897999287,528.114761600038,528.0980841999408,None,527.1042897999287,None,527.1042897999287,None,527.1042897999287,None,529.4480528299813,None,529.4480528299813,None,529.4480528299813,None,,,,,,,,,,,,,,008,2022-05-09_15h26.10.121,Main,2022.1.1,60.17603896578809,
neutral,neutral,2,k,k,,,,,,,,,10,8,188,10,,,,,,,,,main,1,1,2,neutral,neutral,k,k,1,0.8991790999425575,529.4537705000257,530.4647397999652,530.4480594999623,None,529.4537705000257,None,529.4537705000257,None,529.4537705000257,None,531.3480030299746,None,531.3480030299746,None,531.3480030299746,None,,,,,,,,,,,,,,008,2022-05-09_15h26.10.121,Main,2022.1.1,60.17603896578809,
positive,positive,1,l,j,,,,,,,,,10,9,189,2,,,,,,,,,main,2,2,1,positive,positive,l,l,1,1.2486792000709102,531.3540775999427,532.3646998000331,532.3480008000042,None,531.3540775999427,None,531.3540775999427,None,531.3540775999427,None,533.5981198300491,None,533.5981198300491,None,533.5981198300491,None,,,,,,,,,,,,,,008,2022-05-09_15h26.10.121,Main,2022.1.1,60.17603896578809,
positive,neutral,2,l,j,,,,,,,,,10,10,190,17,,,,,,,,,main,1,1,2,neutral,positive,l,k,0,1.1801615000003949,533.6021712999791,534.6146287999582,534.5979633999523,None,533.6021712999791,None,533.6021712999791,None,533.6021712999791,None,535.7812708999263,None,535.7812708999263,None,535.7812708999263,None,,,,,,,,,,,,,,008,2022-05-09_15h26.10.121,Main,2022.1.1,60.17603896578809,
negative,neutral,1,j,l,,,,,,,,,10,11,191,3,,,,,,,,,main,2,2,1,neutral,negative,j,j,1,0.8366421000100672,536.7812554999255,537.7812264999375,537.7646068999311,None,536.7812554999255,None,536.7812554999255,None,536.7812554999255,None,538.6145252299378,None,538.6145252299378,None,538.6145252299378,None,,,,,,,,,,,,,,008,2022-05-09_15h26.10.121,Main,2022.1.1,60.17603896578809,
negative,negative,2,j,l,,,,,,,,,10,12,192,9,,,,,,,,,main,1,1,2,negative,negative,j,j,1,0.731643500039354,538.6176679999335,539.6144862000365,539.6144862000365,None,538.6176679999335,None,538.6176679999335,None,538.6176679999335,None,540.3478840299998,None,540.3478840299998,None,540.3478840299998,None,,,,,,,,,,,,,,008,2022-05-09_15h26.10.121,Main,2022.1.1,60.17603896578809,
positive,negative,1,l,j,,,,,,,,,10,13,193,5,,,,,,,,,main,1,1,1,negative,positive,l,l,1,0.9318773999111727,540.3511114999419,541.3644643999869,541.347796899965,None,540.3511114999419,None,540.3511114999419,None,540.3511114999419,None,542.2811019299901,None,542.2811019299901,None,542.2811019299901,None,,,,,,,,,,,,,,008,2022-05-09_15h26.10.121,Main,2022.1.1,60.17603896578809,
positive,negative,2,l,j,,,,,,,,,10,14,194,14,,,,,,,,,main,2,2,2,negative,positive,l,l,1,0.6981387999840081,542.2846902000019,543.2810754999518,543.2810754999518,None,542.2846902000019,None,542.2846902000019,None,542.2846902000019,None,543.9810805300134,None,543.9810805300134,None,543.9810805300134,None,,,,,,,,,,,,,,008,2022-05-09_15h26.10.121,Main,2022.1.1,60.17603896578809,
negative,positive,1,j,l,,,,,,,,,10,15,195,6,,,,,,,,,main,1,1,1,positive,negative,j,j,1,0.8149479000130668,543.9844847000204,544.9977978999959,544.9810460000299,None,543.9844847000204,None,543.9844847000204,None,543.9844847000204,None,545.7977144299424,None,545.7977144299424,None,545.7977144299424,None,,,,,,,,,,,,,,008,2022-05-09_15h26.10.121,Main,2022.1.1,60.17603896578809,
neutral,neutral,1,k,k,,,,,,,,,10,16,196,1,,,,,,,,,main,2,2,1,neutral,neutral,k,k,1,0.6817224000114948,545.8009445000207,546.8172281000298,546.7976801999612,None,545.8009445000207,None,545.8009445000207,None,545.8009445000207,None,547.4809776300448,None,547.4809776300448,None,547.4809776300448,None,,,,,,,,,,,,,,008,2022-05-09_15h26.10.121,Main,2022.1.1,60.17603896578809,
negative,positive,2,j,l,,,,,,,,,10,17,197,15,,,,,,,,,main,2,2,2,positive,negative,j,j,1,0.815013200044632,547.4899454999249,548.4976261999691,548.4809709000401,None,547.4899454999249,None,547.4899454999249,None,547.4899454999249,None,549.2976886299788,None,549.2976886299788,None,549.2976886299788,None,,,,,,,,,,,,,,008,2022-05-09_15h26.10.121,Main,2022.1.1,60.17603896578809,
positive,negative,2,l,j,,,,,,,,,11,0,198,14,,,,,,,,,main,2,2,2,negative,positive,l,l,1,0.7814735999563709,549.3009455000283,550.297586599947,550.297586599947,None,549.3009455000283,None,549.3009455000283,None,549.3009455000283,None,551.0808998300112,None,551.0808998300112,None,551.0808998300112,None,,,,,,,,,,,,,,008,2022-05-09_15h26.10.121,Main,2022.1.1,60.17603896578809,
negative,negative,2,j,l,,,,,,,,,11,1,199,9,,,,,,,,,main,2,2,2,negative,negative,j,j,1,0.8816998000256717,551.0838393999729,552.0976910999743,552.0809616999468,None,551.0838393999729,None,551.0838393999729,None,551.0838393999729,None,552.9641968299751,None,552.9641968299751,None,552.9641968299751,None,,,,,,,,,,,,,,008,2022-05-09_15h26.10.121,Main,2022.1.1,60.17603896578809,
positive,neutral,2,l,j,,,,,,,,,11,2,200,17,,,,,,,,,main,2,2,2,neutral,positive,l,l,1,0.848528099944815,552.9674815000035,553.9808732999954,553.9642022999469,None,552.9674815000035,None,552.9674815000035,None,552.9674815000035,None,554.8142866299371,None,554.8142866299371,None,554.8142866299371,None,,,,,,,,,,,,,,008,2022-05-09_15h26.10.121,Main,2022.1.1,60.17603896578809,
negative,positive,2,j,l,,,,,,,,,11,3,201,15,,,,,,,,,main,2,2,2,positive,negative,j,j,1,0.9649213999509811,554.8181513999589,555.8308250999544,555.8141628999729,None,554.8181513999589,None,554.8181513999589,None,554.8181513999589,None,556.7808012300287,None,556.7808012300287,None,556.7808012300287,None,,,,,,,,,,,,,,008,2022-05-09_15h26.10.121,Main,2022.1.1,60.17603896578809,
negative,neutral,2,j,l,,,,,,,,,11,4,202,12,,,,,,,,,main,2,2,2,neutral,negative,j,j,1,0.7984647999983281,556.7846898999996,557.7974502999568,557.7837545999791,None,556.7846898999996,None,556.7846898999996,None,556.7846898999996,None,558.5807637300226,None,558.5807637300226,None,558.5807637300226,None,,,,,,,,,,,,,,008,2022-05-09_15h26.10.121,Main,2022.1.1,60.17603896578809,
negative,neutral,1,j,l,,,,,,,,,11,5,203,3,,,,,,,,,main,1,1,1,neutral,negative,j,j,1,1.381573999999091,558.5842950999504,559.6001927999314,559.5807505999692,None,558.5842950999504,None,558.5842950999504,None,558.5842950999504,None,560.9640038300189,None,560.9640038300189,None,560.9640038300189,None,,,,,,,,,,,,,,008,2022-05-09_15h26.10.121,Main,2022.1.1,60.17603896578809,
positive,positive,2,l,j,,,,,,,,,11,6,204,11,,,,,,,,,main,1,1,2,positive,positive,l,l,1,0.8486276000039652,560.9691348000197,561.9806742999936,561.9639994000318,None,560.9691348000197,None,560.9691348000197,None,560.9691348000197,None,562.814004930004,None,562.814004930004,None,562.814004930004,None,,,,,,,,,,,,,,008,2022-05-09_15h26.10.121,Main,2022.1.1,60.17603896578809,
neutral,positive,2,k,k,,,,,,,,,11,7,205,13,,,,,,,,,main,2,2,2,positive,neutral,k,k,1,1.098355400026776,562.8196279000258,563.8334545999533,563.8139633999672,None,562.8196279000258,None,562.8196279000258,None,562.8196279000258,None,564.9139583299751,None,564.9139583299751,None,564.9139583299751,None,,,,,,,,,,,,,,008,2022-05-09_15h26.10.121,Main,2022.1.1,60.17603896578809,
positive,positive,1,l,j,,,,,,,,,11,8,206,2,,,,,,,,,main,1,1,1,positive,positive,l,l,1,0.9816430000355467,564.9194699999643,565.9305788000347,565.9139262000099,None,564.9194699999643,None,564.9194699999643,None,564.9194699999643,None,566.8972462299629,None,566.8972462299629,None,566.8972462299629,None,,,,,,,,,,,,,,008,2022-05-09_15h26.10.121,Main,2022.1.1,60.17603896578809,
negative,negative,1,j,l,,,,,,,,,11,9,207,0,,,,,,,,,main,1,1,1,negative,negative,j,j,1,0.7981400000862777,566.9006029999582,567.9138950000051,567.8805608999683,None,566.9006029999582,None,566.9006029999582,None,566.9006029999582,None,568.6972202300443,None,568.6972202300443,None,568.6972202300443,None,,,,,,,,,,,,,,008,2022-05-09_15h26.10.121,Main,2022.1.1,60.17603896578809,
negative,positive,1,j,l,,,,,,,,,11,10,208,6,,,,,,,,,main,2,2,1,positive,negative,j,j,1,0.9152330000652,568.7012014000211,569.7139093999285,569.6971974000335,None,568.7012014000211,None,568.7012014000211,None,568.7012014000211,None,570.6138263299712,None,570.6138263299712,None,570.6138263299712,None,,,,,,,,,,,,,,008,2022-05-09_15h26.10.121,Main,2022.1.1,60.17603896578809,
positive,neutral,1,l,j,,,,,,,,,11,11,209,8,,,,,,,,,main,2,2,1,neutral,positive,l,l,1,0.7815444000298157,570.6192056,571.6304677999578,571.6138100000098,None,570.6192056,None,570.6192056,None,570.6192056,None,572.39710562994,None,572.39710562994,None,572.39710562994,None,,,,,,,,,,,,,,008,2022-05-09_15h26.10.121,Main,2022.1.1,60.17603896578809,
positive,negative,1,l,j,,,,,,,,,11,12,210,5,,,,,,,,,main,2,2,1,negative,positive,l,j,0,0.9319535000249743,572.4009191000368,573.4138519000262,573.3970985999331,None,572.4009191000368,None,572.4009191000368,None,572.4009191000368,None,574.3303923000349,None,574.3303923000349,None,574.3303923000349,None,,,,,,,,,,,,,,008,2022-05-09_15h26.10.121,Main,2022.1.1,60.17603896578809,
neutral,neutral,2,k,k,,,,,,,,,11,13,211,10,,,,,,,,,main,2,2,2,neutral,neutral,k,k,1,0.8171149000991136,575.3361486999784,576.3470272999257,576.3333344999701,None,575.3361486999784,None,575.3361486999784,None,575.3361486999784,None,577.1469948300277,None,577.1469948300277,None,577.1469948300277,None,,,,,,,,,,,,,,008,2022-05-09_15h26.10.121,Main,2022.1.1,60.17603896578809,
neutral,positive,1,k,k,,,,,,,,,11,14,212,4,,,,,,,,,main,2,2,1,positive,neutral,k,k,1,0.8473784000379965,577.1510785999708,578.1636749999598,578.1499458999606,None,577.1510785999708,None,577.1510785999708,None,577.1510785999708,None,578.996978829999,None,578.996978829999,None,578.996978829999,None,,,,,,,,,,,,,,008,2022-05-09_15h26.10.121,Main,2022.1.1,60.17603896578809,
neutral,neutral,1,k,k,,,,,,,,,11,15,213,1,,,,,,,,,main,1,1,1,neutral,neutral,k,k,1,0.7482285000151023,579.0001735999249,579.9969687999692,579.9833209000062,None,579.0001735999249,None,579.0001735999249,None,579.0001735999249,None,580.7469105299446,None,580.7469105299446,None,580.7469105299446,None,,,,,,,,,,,,,,008,2022-05-09_15h26.10.121,Main,2022.1.1,60.17603896578809,
neutral,negative,1,k,k,,,,,,,,,11,16,214,7,,,,,,,,,main,1,1,1,negative,neutral,k,k,1,0.5649157000007108,580.7501421000343,581.7635804000311,581.746927500004,None,580.7501421000343,None,580.7501421000343,None,580.7501421000343,None,582.3136399300187,None,582.3136399300187,None,582.3136399300187,None,,,,,,,,,,,,,,008,2022-05-09_15h26.10.121,Main,2022.1.1,60.17603896578809,
neutral,negative,2,k,k,,,,,,,,,11,17,215,16,,,,,,,,,main,2,2,2,negative,neutral,k,k,1,0.7985163000412285,582.3302996000275,583.3302024999866,583.3136492000194,None,582.3302996000275,None,582.3302996000275,None,582.3302996000275,None,584.1135389299947,None,584.1135389299947,None,584.1135389299947,None,,,,,,,,,,,,,,008,2022-05-09_15h26.10.121,Main,2022.1.1,60.17603896578809,
positive,positive,2,l,j,,,,,,,,,12,0,216,11,,,,,,,,,main,1,1,2,positive,positive,l,l,1,0.6648896000115201,584.1303159999661,585.1301561000291,585.113505300018,None,584.1303159999661,None,584.1303159999661,None,584.1303159999661,None,585.7801513299695,None,585.7801513299695,None,585.7801513299695,None,,,,,,,,,,,,,,008,2022-05-09_15h26.10.121,Main,2022.1.1,60.17603896578809,
positive,neutral,2,l,j,,,,,,,,,12,1,217,17,,,,,,,,,main,1,1,2,neutral,positive,l,l,1,1.0484310999745503,585.7862616999773,586.7968220999464,586.7802081999835,None,585.7862616999773,None,585.7862616999773,None,585.7862616999773,None,587.8300970299518,None,587.8300970299518,None,587.8300970299518,None,,,,,,,,,,,,,,008,2022-05-09_15h26.10.121,Main,2022.1.1,60.17603896578809,
negative,positive,1,j,l,,,,,,,,,12,2,218,6,,,,,,,,,main,1,1,1,positive,negative,j,j,1,0.981637499993667,587.8355936999433,588.8467885999708,588.8301011000294,None,587.8355936999433,None,587.8355936999433,None,587.8355936999433,None,589.8133810300263,None,589.8133810300263,None,589.8133810300263,None,,,,,,,,,,,,,,008,2022-05-09_15h26.10.121,Main,2022.1.1,60.17603896578809,
neutral,neutral,1,k,k,,,,,,,,,12,3,219,1,,,,,,,,,main,2,2,1,neutral,neutral,k,k,1,0.8483608999522403,589.8165568000404,590.8163293999387,590.8163293999387,None,589.8165568000404,None,589.8165568000404,None,589.8165568000404,None,591.6633454299648,None,591.6633454299648,None,591.6633454299648,None,,,,,,,,,,,,,,008,2022-05-09_15h26.10.121,Main,2022.1.1,60.17603896578809,
neutral,negative,2,k,k,,,,,,,,,12,4,220,16,,,,,,,,,main,1,1,2,negative,neutral,k,k,1,0.96505880006589,591.6690718999598,592.6800359999761,592.6633548999671,None,591.6690718999598,None,591.6690718999598,None,591.6690718999598,None,593.6299921300146,None,593.6299921300146,None,593.6299921300146,None,,,,,,,,,,,,,,008,2022-05-09_15h26.10.121,Main,2022.1.1,60.17603896578809,
neutral,negative,1,k,k,,,,,,,,,12,5,221,7,,,,,,,,,main,2,2,1,negative,neutral,k,k,1,1.299326999927871,593.6356989999767,594.6466398999328,594.6300390999531,None,593.6356989999767,None,593.6356989999767,None,593.6356989999767,None,595.9299509299802,None,595.9299509299802,None,595.9299509299802,None,,,,,,,,,,,,,,008,2022-05-09_15h26.10.121,Main,2022.1.1,60.17603896578809,
positive,neutral,1,l,j,,,,,,,,,12,6,222,8,,,,,,,,,main,2,2,1,neutral,positive,l,l,1,0.8640364001039416,595.9339887000388,596.94659279997,596.9328744999366,None,595.9339887000388,None,595.9339887000388,None,595.9339887000388,None,597.7965604300028,None,597.7965604300028,None,597.7965604300028,None,,,,,,,,,,,,,,008,2022-05-09_15h26.10.121,Main,2022.1.1,60.17603896578809,
neutral,positive,2,k,k,,,,,,,,,12,7,223,13,,,,,,,,,main,2,2,2,positive,neutral,k,k,1,0.8142233999678865,597.8132423999486,598.8132105999393,598.7966111999704,None,597.8132423999486,None,597.8132423999486,None,597.8132423999486,None,599.6131846299744,None,599.6131846299744,None,599.6131846299744,None,,,,,,,,,,,,,,008,2022-05-09_15h26.10.121,Main,2022.1.1,60.17603896578809,
neutral,positive,1,k,k,,,,,,,,,12,8,224,4,,,,,,,,,main,1,1,1,positive,neutral,k,k,1,0.9984213999705389,599.6171162000392,600.6298522999277,600.613178199972,None,599.6171162000392,None,599.6171162000392,None,599.6171162000392,None,601.6131241299794,None,601.6131241299794,None,601.6131241299794,None,,,,,,,,,,,,,,008,2022-05-09_15h26.10.121,Main,2022.1.1,60.17603896578809,
