target,distractor,set,ans1,ans2,rep_loop2.thisRepN,rep_loop2.thisTrialN,rep_loop2.thisN,rep_loop2.thisIndex,flanker_prac_loop.thisRepN,flanker_prac_loop.thisTrialN,flanker_prac_loop.thisN,flanker_prac_loop.thisIndex,flanker_main_loop.thisRepN,flanker_main_loop.thisTrialN,flanker_main_loop.thisN,flanker_main_loop.thisIndex,fl_inst_resp.keys,fl_inst_resp.rt,sound_1.started,sound_1.stopped,image_4.started,image_4.stopped,back_2.started,back_2.stopped,main_prac,fl_cold,fl_colt,fl_set,fl_dcond,fl_tcond,fl_ans,fl_res,fl_corr,fl_rt,fix_fl.started,fix_fl.stopped,targ.started,targ.stopped,j_button.started,j_button.stopped,k_button.started,k_button.stopped,l_button.started,l_button.stopped,j_button2.started,j_button2.stopped,k_button2.started,k_button2.stopped,l_button2.started,l_button2.stopped,mainback.started,mainback.stopped,key_resp.keys,key_resp.rt,mouse_6.x,mouse_6.y,mouse_6.leftButton,mouse_6.midButton,mouse_6.rightButton,mouse_6.started,mouse_6.stopped,text_2.started,text_2.stopped,id*,date,expName,psychopyVersion,frameRate,
,,,,,0,0,0,0,,,,,,,,,space,62.95544030005112,29.648331690137276,None,92.63247650000267,None,,,,,,,,,,,,,,,,,,,,,,,,,,,,,,,,,,,,,,,,,,009,2022-05-10_10h42.34.396,Main,2022.1.1,61.14861557084941,
neutral,neutral,1,k,k,,,,,0,0,0,1,,,,,,,,,,,99.14652070007287,None,prac,1,1,1,neutral,neutral,k,k,1,1.5840327001642436,101.18330839998089,102.18225440010428,102.16565700015053,None,101.18330839998089,None,101.18330839998089,None,101.18330839998089,None,103.7631371000316,None,103.7631371000316,None,103.7631371000316,None,,,,,,,,,,,,,,009,2022-05-10_10h42.34.396,Main,2022.1.1,61.14861557084941,
neutral,negative,2,k,k,,,,,0,1,1,16,,,,,,,,,,,,,prac,1,1,2,negative,neutral,k,k,1,0.7514232001267374,104.76553540001623,105.76549799996428,105.74896929995157,None,104.76553540001623,None,104.76553540001623,None,104.76553540001623,None,106.51332149005029,None,106.51332149005029,None,106.51332149005029,None,,,,,,,,,,,,,,009,2022-05-10_10h42.34.396,Main,2022.1.1,61.14861557084941,
positive,negative,1,l,j,,,,,0,2,2,5,,,,,,,,,,,,,prac,1,1,1,negative,positive,j,j,1,0.8642933000810444,106.52845570002683,107.52954010013491,107.5128890001215,None,106.52845570002683,None,106.52845570002683,None,106.52845570002683,None,108.37959089016076,None,108.37959089016076,None,108.37959089016076,None,,,,,,,,,,,,,,009,2022-05-10_10h42.34.396,Main,2022.1.1,61.14861557084941,
neutral,positive,2,k,k,,,,,0,3,3,13,,,,,,,,,,,,,prac,2,2,2,positive,neutral,k,k,1,0.7014967000577599,108.38731120014563,109.39623700012453,109.37956120003946,None,108.38731120014563,None,108.38731120014563,None,108.38731120014563,None,110.08222409014124,None,110.08222409014124,None,110.08222409014124,None,,,,,,,,,,,,,,009,2022-05-10_10h42.34.396,Main,2022.1.1,61.14861557084941,
positive,positive,2,l,j,,,,,0,4,4,11,,,,,,,,,,,,,prac,1,1,2,positive,positive,j,j,1,0.8152103000320494,110.08699079998769,111.09876050008461,111.08209319994785,None,110.08699079998769,None,110.08699079998769,None,110.08699079998769,None,111.89877549002412,None,111.89877549002412,None,111.89877549002412,None,,,,,,,,,,,,,,009,2022-05-10_10h42.34.396,Main,2022.1.1,61.14861557084941,
negative,positive,1,j,l,,,,,0,5,5,6,,,,,,,,,,,,,prac,2,2,1,positive,negative,l,l,1,0.6822637999430299,111.91282920003869,112.91541530005634,112.89879589993507,None,111.91282920003869,None,111.91282920003869,None,111.91282920003869,None,113.58207808996085,None,113.58207808996085,None,113.58207808996085,None,,,,,,,,,,,,,,009,2022-05-10_10h42.34.396,Main,2022.1.1,61.14861557084941,
positive,neutral,1,l,j,,,,,0,6,6,8,,,,,,,,,,,,,prac,1,1,1,neutral,positive,j,j,1,0.9297309999819845,113.58479050011374,114.59868200006895,114.58203859999776,None,113.58479050011374,None,113.58479050011374,None,113.58479050011374,None,115.51313659015577,None,115.51313659015577,None,115.51313659015577,None,,,,,,,,,,,,,,009,2022-05-10_10h42.34.396,Main,2022.1.1,61.14861557084941,
neutral,negative,1,k,k,,,,,0,7,7,7,,,,,,,,,,,,,prac,2,2,1,negative,neutral,k,k,1,0.6328304000198841,115.52634160011075,116.53192980005406,116.51528330007568,None,115.52634160011075,None,115.52634160011075,None,115.52634160011075,None,117.14643309011589,None,117.14643309011589,None,117.14643309011589,None,,,,,,,,,,,,,,009,2022-05-10_10h42.34.396,Main,2022.1.1,61.14861557084941,
negative,neutral,2,j,l,,,,,0,8,8,12,,,,,,,,,,,,,prac,2,2,2,neutral,negative,l,l,1,0.7974826998542994,117.16099729994312,118.16266610007733,118.14599200012162,None,117.16099729994312,None,117.16099729994312,None,117.16099729994312,None,118.94603699005674,None,118.94603699005674,None,118.94603699005674,None,,,,,,,,,,,,,,009,2022-05-10_10h42.34.396,Main,2022.1.1,61.14861557084941,
positive,neutral,2,l,j,,,,,0,9,9,17,,,,,,,,,,,,,prac,2,2,2,neutral,positive,j,l,0,0.5985244999174029,118.94628780009225,119.9460372000467,119.9460372000467,None,118.94628780009225,None,118.94628780009225,None,118.94628780009225,None,120.54855170007795,None,120.54855170007795,None,120.54855170007795,None,,,,,,,,,,,,,,009,2022-05-10_10h42.34.396,Main,2022.1.1,61.14861557084941,
positive,negative,2,l,j,,,,,0,10,10,14,,,,,,,,,,,,,prac,2,2,2,negative,positive,j,j,1,0.767954200040549,121.55600530002266,122.56523160007782,122.54854790004902,None,121.55600530002266,None,121.55600530002266,None,121.55600530002266,None,123.31306139009538,None,123.31306139009538,None,123.31306139009538,None,,,,,,,,,,,,,,009,2022-05-10_10h42.34.396,Main,2022.1.1,61.14861557084941,
neutral,positive,1,k,k,,,,,0,11,11,4,,,,,,,,,,,,,prac,1,1,1,positive,neutral,k,k,1,0.848305000225082,123.32418110012077,124.33179199998267,124.29856200003996,None,123.32418110012077,None,123.32418110012077,None,123.32418110012077,None,125.1629035901511,None,125.1629035901511,None,125.1629035901511,None,,,,,,,,,,,,,,009,2022-05-10_10h42.34.396,Main,2022.1.1,61.14861557084941,
negative,negative,1,j,l,,,,,0,12,12,0,,,,,,,,,,,,,prac,1,1,1,negative,negative,l,l,1,1.300067299976945,125.16560850013047,126.1628395000007,126.1628395000007,None,125.16560850013047,None,125.16560850013047,None,125.16560850013047,None,127.46286639014724,None,127.46286639014724,None,127.46286639014724,None,,,,,,,,,,,,,,009,2022-05-10_10h42.34.396,Main,2022.1.1,61.14861557084941,
positive,positive,1,l,j,,,,,0,13,13,2,,,,,,,,,,,,,prac,2,2,1,positive,positive,j,j,1,1.04730340000242,127.46680769999512,128.47911830013618,128.46244890009984,None,127.46680769999512,None,127.46680769999512,None,127.46680769999512,None,129.5125379900215,None,129.5125379900215,None,129.5125379900215,None,,,,,,,,,,,,,,009,2022-05-10_10h42.34.396,Main,2022.1.1,61.14861557084941,
negative,neutral,1,j,l,,,,,0,14,14,3,,,,,,,,,,,,,prac,1,1,1,neutral,negative,l,l,1,0.7825219000224024,129.51532780006528,130.51500879996456,130.49836930003949,None,129.51532780006528,None,129.51532780006528,None,129.51532780006528,None,131.2961897901492,None,131.2961897901492,None,131.2961897901492,None,,,,,,,,,,,,,,009,2022-05-10_10h42.34.396,Main,2022.1.1,61.14861557084941,
negative,positive,2,j,l,,,,,0,15,15,15,,,,,,,,,,,,,prac,2,2,2,positive,negative,l,j,0,0.7175282998941839,131.2993165999651,132.2983385999687,132.2983385999687,None,131.2993165999651,None,131.2993165999651,None,131.2993165999651,None,133.0149761000648,None,133.0149761000648,None,133.0149761000648,None,,,,,,,,,,,,,,009,2022-05-10_10h42.34.396,Main,2022.1.1,61.14861557084941,
neutral,neutral,2,k,k,,,,,0,16,16,10,,,,,,,,,,,,,prac,1,1,2,neutral,neutral,k,k,1,0.8344084999989718,134.02058909996413,135.03149210009724,135.01493329997174,None,134.02058909996413,None,134.02058909996413,None,134.02058909996413,None,135.84604679003823,None,135.84604679003823,None,135.84604679003823,None,,,,,,,,,,,,,,009,2022-05-10_10h42.34.396,Main,2022.1.1,61.14861557084941,
negative,negative,2,j,l,,,,,0,17,17,9,,,,,,,,,,,,,prac,1,1,2,negative,negative,l,l,1,0.7665843998547643,135.86270259995945,136.86260400013998,136.83159140008502,None,135.86270259995945,None,135.86270259995945,None,135.86270259995945,None,137.61267198997083,None,137.61267198997083,None,137.61267198997083,None,,,,,,,,,,,,,,009,2022-05-10_10h42.34.396,Main,2022.1.1,61.14861557084941,
positive,neutral,1,l,j,,,,,1,0,18,8,,,,,,,,,,,,,prac,2,2,1,neutral,positive,j,j,1,1.2800614999141544,137.61875890009105,138.62890830007382,138.61222500004806,None,137.61875890009105,None,137.61875890009105,None,137.61875890009105,None,139.89561039002146,None,139.89561039002146,None,139.89561039002146,None,,,,,,,,,,,,,,009,2022-05-10_10h42.34.396,Main,2022.1.1,61.14861557084941,
neutral,positive,1,k,k,,,,,1,1,19,4,,,,,,,,,,,,,prac,1,1,1,positive,neutral,k,k,1,0.7318573000375181,139.9008500999771,140.91247430001386,140.89592929999344,None,139.9008500999771,None,139.9008500999771,None,139.9008500999771,None,141.6292054900201,None,141.6292054900201,None,141.6292054900201,None,,,,,,,,,,,,,,009,2022-05-10_10h42.34.396,Main,2022.1.1,61.14861557084941,
positive,negative,1,l,j,,,,,1,2,20,5,,,,,,,,,,,,,prac,2,2,1,negative,positive,j,j,1,0.734205599874258,141.63543529994786,142.64807410002686,142.6147793000564,None,141.63543529994786,None,141.63543529994786,None,141.63543529994786,None,143.36477509003598,None,143.36477509003598,None,143.36477509003598,None,,,,,,,,,,,,,,009,2022-05-10_10h42.34.396,Main,2022.1.1,61.14861557084941,
negative,positive,1,j,l,,,,,1,3,21,6,,,,,,,,,,,,,prac,2,2,1,positive,negative,l,l,1,0.7464453000575304,143.3677364999894,144.381810199935,144.3628682999406,None,143.3677364999894,None,143.3677364999894,None,143.3677364999894,None,145.11251589006278,None,145.11251589006278,None,145.11251589006278,None,,,,,,,,,,,,,,009,2022-05-10_10h42.34.396,Main,2022.1.1,61.14861557084941,
positive,neutral,2,l,j,,,,,1,4,22,17,,,,,,,,,,,,,prac,2,2,2,neutral,positive,j,j,1,0.8483977001160383,145.11801120010205,146.13159080012701,146.112784500001,None,145.11801120010205,None,145.11801120010205,None,145.11801120010205,None,146.96250398994889,None,146.96250398994889,None,146.96250398994889,None,,,,,,,,,,,,,,009,2022-05-10_10h42.34.396,Main,2022.1.1,61.14861557084941,
positive,positive,2,l,j,,,,,1,5,23,11,,,,,,,,,,,,,prac,1,1,2,positive,positive,j,j,1,0.6499557001516223,146.98143750010058,147.97933949995786,147.96485140011646,None,146.98143750010058,None,146.98143750010058,None,146.98143750010058,None,148.6146042901324,None,148.6146042901324,None,148.6146042901324,None,,,,,,,,,,,,,,009,2022-05-10_10h42.34.396,Main,2022.1.1,61.14861557084941,
neutral,neutral,1,k,k,,,,,1,6,24,1,,,,,,,,,,,,,prac,1,1,1,neutral,neutral,k,k,1,0.6463049999438226,148.61678349995054,149.62900990014896,149.61206030007452,None,148.61678349995054,None,148.61678349995054,None,148.61678349995054,None,150.26206819016951,None,150.26206819016951,None,150.26206819016951,None,,,,,,,,,,,,,,009,2022-05-10_10h42.34.396,Main,2022.1.1,61.14861557084941,
neutral,negative,2,k,k,,,,,1,7,25,16,,,,,,,,,,,,,prac,1,1,2,negative,neutral,k,k,1,0.7657478000037372,150.26202190015465,151.26201639999636,151.26201639999636,None,150.26202190015465,None,150.26202190015465,None,150.26202190015465,None,152.028773890133,None,152.028773890133,None,152.028773890133,None,,,,,,,,,,,,,,009,2022-05-10_10h42.34.396,Main,2022.1.1,61.14861557084941,
positive,positive,1,l,j,,,,,1,8,26,2,,,,,,,,,,,,,prac,2,2,1,positive,positive,j,j,1,1.381727600004524,152.03260509995744,153.04790570004843,153.0312300999649,None,152.03260509995744,None,152.03260509995744,None,152.03260509995744,None,154.41232709006871,None,154.41232709006871,None,154.41232709006871,None,,,,,,,,,,,,,,009,2022-05-10_10h42.34.396,Main,2022.1.1,61.14861557084941,
negative,neutral,1,j,l,,,,,1,9,27,3,,,,,,,,,,,,,prac,2,2,1,neutral,negative,l,l,1,0.7812443000730127,154.4184684001375,155.43110190005973,155.41447850014083,None,154.4184684001375,None,154.4184684001375,None,154.4184684001375,None,156.19558779012877,None,156.19558779012877,None,156.19558779012877,None,,,,,,,,,,,,,,009,2022-05-10_10h42.34.396,Main,2022.1.1,61.14861557084941,
neutral,negative,1,k,k,,,,,1,10,28,7,,,,,,,,,,,,,prac,1,1,1,negative,neutral,k,k,1,0.7079725998919457,156.20051710004918,157.21440310007893,157.19778889999725,None,156.20051710004918,None,156.20051710004918,None,156.20051710004918,None,157.900100989989,None,157.900100989989,None,157.900100989989,None,,,,,,,,,,,,,,009,2022-05-10_10h42.34.396,Main,2022.1.1,61.14861557084941,
neutral,neutral,2,k,k,,,,,1,11,29,10,,,,,,,,,,,,,prac,2,2,2,neutral,neutral,k,k,1,0.6386321000754833,157.90903570014052,158.91197880008258,158.91197880008258,None,157.90903570014052,None,157.90903570014052,None,157.90903570014052,None,159.54520468998234,None,159.54520468998234,None,159.54520468998234,None,,,,,,,,,,,,,,009,2022-05-10_10h42.34.396,Main,2022.1.1,61.14861557084941,
negative,negative,1,j,l,,,,,1,12,30,0,,,,,,,,,,,,,prac,1,1,1,negative,negative,l,l,1,1.0824092999100685,159.54513680003583,160.54510360001586,160.54510360001586,None,159.54513680003583,None,159.54513680003583,None,159.54513680003583,None,161.62854069008026,None,161.62854069008026,None,161.62854069008026,None,,,,,,,,,,,,,,009,2022-05-10_10h42.34.396,Main,2022.1.1,61.14861557084941,
negative,positive,2,j,l,,,,,1,13,31,15,,,,,,,,,,,,,prac,1,1,2,positive,negative,l,l,1,1.048810200067237,161.62885019998066,162.62846389994957,162.62846389994957,None,161.62885019998066,None,161.62885019998066,None,161.62885019998066,None,163.6788643901469,None,163.6788643901469,None,163.6788643901469,None,,,,,,,,,,,,,,009,2022-05-10_10h42.34.396,Main,2022.1.1,61.14861557084941,
negative,neutral,2,j,l,,,,,1,14,32,12,,,,,,,,,,,,,prac,2,2,2,neutral,negative,l,l,1,0.7401632000692189,163.68445080006495,164.697606400121,164.68100540013984,None,163.68445080006495,None,163.68445080006495,None,163.68445080006495,None,165.4157955900533,None,165.4157955900533,None,165.4157955900533,None,,,,,,,,,,,,,,009,2022-05-10_10h42.34.396,Main,2022.1.1,61.14861557084941,
positive,negative,2,l,j,,,,,1,15,33,14,,,,,,,,,,,,,prac,1,1,2,negative,positive,j,j,1,1.3892079999204725,165.42467370000668,166.4309487999417,166.41428510006517,None,165.42467370000668,None,165.42467370000668,None,165.42467370000668,None,167.81204339002724,None,167.81204339002724,None,167.81204339002724,None,,,,,,,,,,,,,,009,2022-05-10_10h42.34.396,Main,2022.1.1,61.14861557084941,
neutral,positive,2,k,k,,,,,1,16,34,13,,,,,,,,,,,,,prac,1,1,2,positive,neutral,k,k,1,0.7647508999798447,167.81808130000718,168.83087370009162,168.8141793999821,None,167.81808130000718,None,167.81808130000718,None,167.81808130000718,None,169.57867409011814,None,169.57867409011814,None,169.57867409011814,None,,,,,,,,,,,,,,009,2022-05-10_10h42.34.396,Main,2022.1.1,61.14861557084941,
negative,negative,2,j,l,,,,,1,17,35,9,,,,,,,,,,,,,prac,2,2,2,negative,negative,l,l,1,0.7485478001181036,169.58383000013418,170.59458800009452,170.57794660003856,None,169.58383000013418,None,169.58383000013418,None,169.58383000013418,None,171.32827979002613,None,171.32827979002613,None,171.32827979002613,None,,,,,,,,,,,,,,009,2022-05-10_10h42.34.396,Main,2022.1.1,61.14861557084941,
,,,,,,,,,,,,,,,,,,,,,,,,,,,,,,,,,,,,,,,,,,,,,,,,,,,171.3282302999869,None,space,8.117768399883062,,,,,,,,,,009,2022-05-10_10h42.34.396,Main,2022.1.1,61.14861557084941,
,,,,,,,,,,,,,,,,,,,,,,,,,,,,,,,,,,,,,,,,,,,,,,,,,,,,,,,0.5833333,-0.20185184,0,0,0,0.011086389888077974,None,,,009,2022-05-10_10h42.34.396,Main,2022.1.1,61.14861557084941,
negative,negative,1,j,l,,,,,,,,,0,0,0,0,,,,,,,179.46433049999177,None,main,2,2,1,negative,negative,l,l,1,0.8090035999193788,181.4855635999702,182.49467330006883,182.47823220002465,None,181.4855635999702,None,181.4855635999702,None,181.4855635999702,None,183.29473799003753,None,183.29473799003753,None,183.29473799003753,None,,,,,,,,,,,,,,009,2022-05-10_10h42.34.396,Main,2022.1.1,61.14861557084941,
negative,positive,2,j,l,,,,,,,,,0,1,1,15,,,,,,,,,main,1,1,2,positive,negative,l,l,1,0.8482783001381904,183.30109270010144,184.31384110008366,184.29725469998084,None,183.30109270010144,None,183.30109270010144,None,183.30109270010144,None,185.14543488996568,None,185.14543488996568,None,185.14543488996568,None,,,,,,,,,,,,,,009,2022-05-10_10h42.34.396,Main,2022.1.1,61.14861557084941,
positive,neutral,2,l,j,,,,,,,,,0,2,2,17,,,,,,,,,main,2,2,2,neutral,positive,j,j,1,0.747339199995622,185.15183240012266,186.16378870001063,186.14723769994453,None,185.15183240012266,None,185.15183240012266,None,185.15183240012266,None,186.89500659008044,None,186.89500659008044,None,186.89500659008044,None,,,,,,,,,,,,,,009,2022-05-10_10h42.34.396,Main,2022.1.1,61.14861557084941,
negative,neutral,2,j,l,,,,,,,,,0,3,3,12,,,,,,,,,main,1,1,2,neutral,negative,l,l,1,0.7650897998828441,186.8983303999994,187.897174899932,187.897174899932,None,186.8983303999994,None,186.8983303999994,None,186.8983303999994,None,188.6617687901249,None,188.6617687901249,None,188.6617687901249,None,,,,,,,,,,,,,,009,2022-05-10_10h42.34.396,Main,2022.1.1,61.14861557084941,
positive,neutral,1,l,j,,,,,,,,,0,4,4,8,,,,,,,,,main,2,2,1,neutral,positive,j,j,1,0.8171999000478536,188.66783950012177,189.67845840007067,189.6640228999313,None,188.66783950012177,None,188.66783950012177,None,188.66783950012177,None,190.48061499001923,None,190.48061499001923,None,190.48061499001923,None,,,,,,,,,,,,,,009,2022-05-10_10h42.34.396,Main,2022.1.1,61.14861557084941,
neutral,positive,1,k,k,,,,,,,,,0,5,5,4,,,,,,,,,main,1,1,1,positive,neutral,k,k,1,0.5956834000535309,190.48350680014119,191.4944685001392,191.47780480002984,None,190.48350680014119,None,190.48350680014119,None,190.48350680014119,None,192.07787069005425,None,192.07787069005425,None,192.07787069005425,None,,,,,,,,,,,,,,009,2022-05-10_10h42.34.396,Main,2022.1.1,61.14861557084941,
positive,positive,2,l,j,,,,,,,,,0,6,6,11,,,,,,,,,main,1,1,2,positive,positive,j,j,1,0.750945899868384,192.0777668999508,193.07834130013362,193.07834130013362,None,192.0777668999508,None,192.0777668999508,None,192.0777668999508,None,193.83044558998662,None,193.83044558998662,None,193.83044558998662,None,,,,,,,,,,,,,,009,2022-05-10_10h42.34.396,Main,2022.1.1,61.14861557084941,
neutral,positive,2,k,k,,,,,,,,,0,7,7,13,,,,,,,,,main,1,1,2,positive,neutral,k,k,1,0.712875499855727,193.83324409998022,194.84704710007645,194.8304445000831,None,193.83324409998022,None,193.83324409998022,None,193.83324409998022,None,195.54479999004397,None,195.54479999004397,None,195.54479999004397,None,,,,,,,,,,,,,,009,2022-05-10_10h42.34.396,Main,2022.1.1,61.14861557084941,
neutral,neutral,1,k,k,,,,,,,,,0,8,8,1,,,,,,,,,main,1,1,1,neutral,neutral,k,k,1,0.7983959000557661,195.54774629999883,196.54701979993843,196.53035379992798,None,195.54774629999883,None,195.54774629999883,None,195.54774629999883,None,197.3447467901511,None,197.3447467901511,None,197.3447467901511,None,,,,,,,,,,,,,,009,2022-05-10_10h42.34.396,Main,2022.1.1,61.14861557084941,
negative,neutral,1,j,l,,,,,,,,,0,9,9,3,,,,,,,,,main,2,2,1,neutral,negative,l,l,1,0.715404000133276,197.3480569999665,198.3635237000417,198.34698830009438,None,197.3480569999665,None,197.3480569999665,None,197.3480569999665,None,199.06139598998706,None,199.06139598998706,None,199.06139598998706,None,,,,,,,,,,,,,,009,2022-05-10_10h42.34.396,Main,2022.1.1,61.14861557084941,
neutral,negative,1,k,k,,,,,,,,,0,10,10,7,,,,,,,,,main,2,2,1,negative,neutral,k,k,1,0.7171440999954939,199.06516420003027,200.07825040002353,200.06215020013042,None,199.06516420003027,None,199.06516420003027,None,199.06516420003027,None,200.78031088996212,None,200.78031088996212,None,200.78031088996212,None,,,,,,,,,,,,,,009,2022-05-10_10h42.34.396,Main,2022.1.1,61.14861557084941,
negative,positive,1,j,l,,,,,,,,,0,11,11,6,,,,,,,,,main,2,2,1,positive,negative,l,l,1,0.8124063999857754,200.78342420002446,201.79426919994876,201.77782430010848,None,200.78342420002446,None,200.78342420002446,None,200.78342420002446,None,202.59431559012737,None,202.59431559012737,None,202.59431559012737,None,,,,,,,,,,,,,,009,2022-05-10_10h42.34.396,Main,2022.1.1,61.14861557084941,
positive,negative,2,l,j,,,,,,,,,0,12,12,14,,,,,,,,,main,2,2,2,negative,positive,j,j,1,0.6982042000163347,202.59425950003788,203.59425950003788,203.59425950003788,None,202.59425950003788,None,202.59425950003788,None,202.59425950003788,None,204.29431619008537,None,204.29431619008537,None,204.29431619008537,None,,,,,,,,,,,,,,009,2022-05-10_10h42.34.396,Main,2022.1.1,61.14861557084941,
negative,negative,2,j,l,,,,,,,,,0,13,13,9,,,,,,,,,main,2,2,2,negative,negative,l,l,1,0.8322314999531955,204.29742760001682,205.2968453001231,205.2968453001231,None,204.29742760001682,None,204.29742760001682,None,204.29742760001682,None,206.12819239010568,None,206.12819239010568,None,206.12819239010568,None,,,,,,,,,,,,,,009,2022-05-10_10h42.34.396,Main,2022.1.1,61.14861557084941,
positive,positive,1,l,j,,,,,,,,,0,14,14,2,,,,,,,,,main,1,1,1,positive,positive,j,j,1,0.7825547999236733,206.1339879001025,207.1468156001065,207.1281157999765,None,206.1339879001025,None,206.1339879001025,None,206.1339879001025,None,207.91122738996054,None,207.91122738996054,None,207.91122738996054,None,,,,,,,,,,,,,,009,2022-05-10_10h42.34.396,Main,2022.1.1,61.14861557084941,
neutral,negative,2,k,k,,,,,,,,,0,15,15,16,,,,,,,,,main,2,2,2,negative,neutral,k,k,1,0.5993360001593828,207.91548730013892,208.92998120002449,208.9134279000573,None,207.91548730013892,None,207.91548730013892,None,207.91548730013892,None,209.51333039000164,None,209.51333039000164,None,209.51333039000164,None,,,,,,,,,,,,,,009,2022-05-10_10h42.34.396,Main,2022.1.1,61.14861557084941,
positive,negative,1,l,j,,,,,,,,,0,16,16,5,,,,,,,,,main,1,1,1,negative,positive,j,l,0,0.8629018999636173,209.52123400010169,210.52999970014207,210.51345279999077,None,209.52123400010169,None,209.52123400010169,None,209.52123400010169,None,211.37772059999406,None,211.37772059999406,None,211.37772059999406,None,,,,,,,,,,,,,,009,2022-05-10_10h42.34.396,Main,2022.1.1,61.14861557084941,
neutral,neutral,2,k,k,,,,,,,,,0,17,17,10,,,,,,,,,main,1,1,2,neutral,neutral,k,k,1,0.7038169999141246,212.38008909998462,213.39402320003137,213.36069200001657,None,212.38008909998462,None,212.38008909998462,None,212.38008909998462,None,214.07738979000132,None,214.07738979000132,None,214.07738979000132,None,,,,,,,,,,,,,,009,2022-05-10_10h42.34.396,Main,2022.1.1,61.14861557084941,
positive,neutral,2,l,j,,,,,,,,,1,0,18,17,,,,,,,,,main,1,1,2,neutral,positive,j,j,1,0.8140475999098271,214.07822240004316,215.07736669993028,215.07736669993028,None,214.07822240004316,None,214.07822240004316,None,214.07822240004316,None,215.89437029000837,None,215.89437029000837,None,215.89437029000837,None,,,,,,,,,,,,,,009,2022-05-10_10h42.34.396,Main,2022.1.1,61.14861557084941,
neutral,positive,1,k,k,,,,,,,,,1,1,19,4,,,,,,,,,main,1,1,1,positive,neutral,k,k,1,0.6317515000700951,215.89756830013357,216.89652650011703,216.89652650011703,None,215.89756830013357,None,215.89756830013357,None,215.89756830013357,None,217.52766909010242,None,217.52766909010242,None,217.52766909010242,None,,,,,,,,,,,,,,009,2022-05-10_10h42.34.396,Main,2022.1.1,61.14861557084941,
positive,neutral,1,l,j,,,,,,,,,1,2,20,8,,,,,,,,,main,2,2,1,neutral,positive,j,j,1,0.8474842999130487,217.53170090005733,218.54650250007398,218.52983990008943,None,217.53170090005733,None,217.53170090005733,None,217.53170090005733,None,219.37761679014656,None,219.37761679014656,None,219.37761679014656,None,,,,,,,,,,,,,,009,2022-05-10_10h42.34.396,Main,2022.1.1,61.14861557084941,
neutral,negative,1,k,k,,,,,,,,,1,3,21,7,,,,,,,,,main,2,2,1,negative,neutral,k,k,1,1.2151134999003261,219.38096010009758,220.39641340007074,220.37984660011716,None,219.38096010009758,None,219.38096010009758,None,219.38096010009758,None,221.5942396901315,None,221.5942396901315,None,221.5942396901315,None,,,,,,,,,,,,,,009,2022-05-10_10h42.34.396,Main,2022.1.1,61.14861557084941,
negative,neutral,2,j,l,,,,,,,,,1,4,22,12,,,,,,,,,main,1,1,2,neutral,negative,l,l,1,0.8314175000414252,221.59759190003388,222.6102132999804,222.5935060000047,None,221.59759190003388,None,221.59759190003388,None,221.59759190003388,None,223.42718829007353,None,223.42718829007353,None,223.42718829007353,None,,,,,,,,,,,,,,009,2022-05-10_10h42.34.396,Main,2022.1.1,61.14861557084941,
negative,negative,2,j,l,,,,,,,,,1,5,23,9,,,,,,,,,main,2,2,2,negative,negative,l,l,1,0.6320335001219064,223.4271233000327,224.42713050008751,224.42713050008751,None,223.4271233000327,None,223.4271233000327,None,223.4271233000327,None,225.06052779012825,None,225.06052779012825,None,225.06052779012825,None,,,,,,,,,,,,,,009,2022-05-10_10h42.34.396,Main,2022.1.1,61.14861557084941,
negative,neutral,1,j,l,,,,,,,,,1,6,24,3,,,,,,,,,main,1,1,1,neutral,negative,l,l,1,0.7675689000170678,225.0622749000322,226.07714390009642,226.06046269997023,None,225.0622749000322,None,225.0622749000322,None,225.0622749000322,None,226.82983789013232,None,226.82983789013232,None,226.82983789013232,None,,,,,,,,,,,,,,009,2022-05-10_10h42.34.396,Main,2022.1.1,61.14861557084941,
positive,negative,2,l,j,,,,,,,,,1,7,25,14,,,,,,,,,main,1,1,2,negative,positive,j,j,1,0.6303936999756843,226.83378490014002,227.84628310007975,227.82971150008962,None,226.83378490014002,None,226.83378490014002,None,226.83378490014002,None,228.46079529009293,None,228.46079529009293,None,228.46079529009293,None,,,,,,,,,,,,,,009,2022-05-10_10h42.34.396,Main,2022.1.1,61.14861557084941,
neutral,neutral,2,k,k,,,,,,,,,1,8,26,10,,,,,,,,,main,1,1,2,neutral,neutral,k,k,1,0.5305864999536425,228.4668585001491,229.4795756000094,229.46300480002537,None,228.4668585001491,None,228.4668585001491,None,228.4668585001491,None,229.99405858993995,None,229.99405858993995,None,229.99405858993995,None,,,,,,,,,,,,,,009,2022-05-10_10h42.34.396,Main,2022.1.1,61.14861557084941,
neutral,negative,2,k,k,,,,,,,,,1,9,27,16,,,,,,,,,main,2,2,2,negative,neutral,k,k,1,0.5486632999964058,229.99734090012498,231.01285500009544,230.99632750009187,None,229.99734090012498,None,229.99734090012498,None,229.99734090012498,None,231.54404148997273,None,231.54404148997273,None,231.54404148997273,None,,,,,,,,,,,,,,009,2022-05-10_10h42.34.396,Main,2022.1.1,61.14861557084941,
positive,positive,1,l,j,,,,,,,,,1,10,28,2,,,,,,,,,main,2,2,1,positive,positive,j,l,0,0.7321166000328958,231.54745210008696,232.56284689996392,232.54628719994798,None,231.54745210008696,None,231.54745210008696,None,231.54745210008696,None,233.27739259996451,None,233.27739259996451,None,233.27739259996451,None,,,,,,,,,,,,,,009,2022-05-10_10h42.34.396,Main,2022.1.1,61.14861557084941,
neutral,neutral,1,k,k,,,,,,,,,1,11,29,1,,,,,,,,,main,2,2,1,neutral,neutral,k,k,1,0.6527932998724282,234.27915920014493,235.29353699996136,235.2768643000163,None,234.27915920014493,None,234.27915920014493,None,234.27915920014493,None,235.92698179001454,None,235.92698179001454,None,235.92698179001454,None,,,,,,,,,,,,,,009,2022-05-10_10h42.34.396,Main,2022.1.1,61.14861557084941,
negative,positive,1,j,l,,,,,,,,,1,12,30,6,,,,,,,,,main,2,2,1,positive,negative,l,l,1,0.7653434001840651,235.93060800014064,236.94606430013664,236.92948610009626,None,235.93060800014064,None,235.93060800014064,None,235.93060800014064,None,237.69391289006452,None,237.69391289006452,None,237.69391289006452,None,,,,,,,,,,,,,,009,2022-05-10_10h42.34.396,Main,2022.1.1,61.14861557084941,
neutral,positive,2,k,k,,,,,,,,,1,13,31,13,,,,,,,,,main,1,1,2,positive,neutral,k,k,1,0.716910099843517,237.70007320004515,238.7127781000454,238.69608140015043,None,237.70007320004515,None,237.70007320004515,None,237.70007320004515,None,239.4127904901048,None,239.4127904901048,None,239.4127904901048,None,,,,,,,,,,,,,,009,2022-05-10_10h42.34.396,Main,2022.1.1,61.14861557084941,
positive,positive,2,l,j,,,,,,,,,1,14,32,11,,,,,,,,,main,2,2,2,positive,positive,j,j,1,1.1962027000263333,239.41581859998405,240.42932420014404,240.41279210010543,None,239.41581859998405,None,239.41581859998405,None,239.41581859998405,None,241.6104834899539,None,241.6104834899539,None,241.6104834899539,None,,,,,,,,,,,,,,009,2022-05-10_10h42.34.396,Main,2022.1.1,61.14861557084941,
positive,negative,1,l,j,,,,,,,,,1,15,33,5,,,,,,,,,main,1,1,1,negative,positive,j,j,1,0.9840164000634104,241.61381120001897,242.62925689993426,242.61266270000488,None,241.61381120001897,None,241.61381120001897,None,241.61381120001897,None,243.5960949899396,None,243.5960949899396,None,243.5960949899396,None,,,,,,,,,,,,,,009,2022-05-10_10h42.34.396,Main,2022.1.1,61.14861557084941,
negative,positive,2,j,l,,,,,,,,,1,16,34,15,,,,,,,,,main,2,2,2,positive,negative,l,l,1,1.0790433001238853,243.5991833000444,244.61002010013908,244.59334679995663,None,243.5991833000444,None,243.5991833000444,None,243.5991833000444,None,245.67672339014243,None,245.67672339014243,None,245.67672339014243,None,,,,,,,,,,,,,,009,2022-05-10_10h42.34.396,Main,2022.1.1,61.14861557084941,
negative,negative,1,j,l,,,,,,,,,1,17,35,0,,,,,,,,,main,2,2,1,negative,negative,l,l,1,0.8487463002093136,245.67665540007874,246.67668780009262,246.67668780009262,None,245.67665540007874,None,245.67665540007874,None,245.67665540007874,None,247.52674019013065,None,247.52674019013065,None,247.52674019013065,None,,,,,,,,,,,,,,009,2022-05-10_10h42.34.396,Main,2022.1.1,61.14861557084941,
positive,neutral,2,l,j,,,,,,,,,2,0,36,17,,,,,,,,,main,1,1,2,neutral,positive,j,j,1,0.7002359998878092,247.53328300011344,248.54590389993973,248.52697270014323,None,247.53328300011344,None,247.53328300011344,None,247.53328300011344,None,249.2292223901255,None,249.2292223901255,None,249.2292223901255,None,,,,,,,,,,,,,,009,2022-05-10_10h42.34.396,Main,2022.1.1,61.14861557084941,
neutral,neutral,2,k,k,,,,,,,,,2,1,37,10,,,,,,,,,main,1,1,2,neutral,neutral,k,k,1,0.6955615000333637,249.23266159999184,250.2435729999561,250.22918989998288,None,249.23266159999184,None,249.23266159999184,None,249.23266159999184,None,250.92694258994888,None,250.92694258994888,None,250.92694258994888,None,,,,,,,,,,,,,,009,2022-05-10_10h42.34.396,Main,2022.1.1,61.14861557084941,
positive,positive,1,l,j,,,,,,,,,2,2,38,2,,,,,,,,,main,1,1,1,positive,positive,j,j,1,0.6840478000231087,250.9309052999597,251.94569820002653,251.92917770007625,None,250.9309052999597,None,250.9309052999597,None,250.9309052999597,None,252.61258969015907,None,252.61258969015907,None,252.61258969015907,None,,,,,,,,,,,,,,009,2022-05-10_10h42.34.396,Main,2022.1.1,61.14861557084941,
negative,neutral,2,j,l,,,,,,,,,2,3,39,12,,,,,,,,,main,1,1,2,neutral,negative,l,l,1,0.8544586000498384,252.6152067000512,253.62905739992857,253.6101512000896,None,252.6152067000512,None,252.6152067000512,None,252.6152067000512,None,254.4686980899656,None,254.4686980899656,None,254.4686980899656,None,,,,,,,,,,,,,,009,2022-05-10_10h42.34.396,Main,2022.1.1,61.14861557084941,
negative,neutral,1,j,l,,,,,,,,,2,4,40,3,,,,,,,,,main,2,2,1,neutral,negative,l,l,1,0.80660460004583,254.48361070011742,255.49310960015282,255.45977570000105,None,254.48361070011742,None,254.48361070011742,None,254.48361070011742,None,256.2765071899863,None,256.2765071899863,None,256.2765071899863,None,,,,,,,,,,,,,,009,2022-05-10_10h42.34.396,Main,2022.1.1,61.14861557084941,
negative,positive,2,j,l,,,,,,,,,2,5,41,15,,,,,,,,,main,1,1,2,positive,negative,l,l,1,0.7839871000032872,256.2764669000171,257.2790093999356,257.2790093999356,None,256.2764669000171,None,256.2764669000171,None,256.2764669000171,None,258.06237358998044,None,258.06237358998044,None,258.06237358998044,None,,,,,,,,,,,,,,009,2022-05-10_10h42.34.396,Main,2022.1.1,61.14861557084941,
positive,positive,2,l,j,,,,,,,,,2,6,42,11,,,,,,,,,main,2,2,2,positive,positive,j,j,1,1.0293546998873353,258.06537720002234,259.07902549998835,259.06236870004795,None,258.06537720002234,None,258.06537720002234,None,258.06537720002234,None,260.0934401899809,None,260.0934401899809,None,260.0934401899809,None,,,,,,,,,,,,,,009,2022-05-10_10h42.34.396,Main,2022.1.1,61.14861557084941,
negative,positive,1,j,l,,,,,,,,,2,7,43,6,,,,,,,,,main,1,1,1,positive,negative,l,l,1,0.7317938001360744,260.0971888001077,261.1122930001002,261.0789602000732,None,260.0971888001077,None,260.0971888001077,None,260.0971888001077,None,261.8267249900615,None,261.8267249900615,None,261.8267249900615,None,,,,,,,,,,,,,,009,2022-05-10_10h42.34.396,Main,2022.1.1,61.14861557084941,
positive,negative,2,l,j,,,,,,,,,2,8,44,14,,,,,,,,,main,1,1,2,negative,positive,j,j,1,1.11508830008097,261.8306396000553,262.8455622999463,262.812264499953,None,261.8306396000553,None,261.8306396000553,None,261.8306396000553,None,263.94336209006144,None,263.94336209006144,None,263.94336209006144,None,,,,,,,,,,,,,,009,2022-05-10_10h42.34.396,Main,2022.1.1,61.14861557084941,
neutral,positive,2,k,k,,,,,,,,,2,9,45,13,,,,,,,,,main,1,1,2,positive,neutral,k,k,1,0.7148164000827819,263.9464974999428,264.94557260000147,264.94557260000147,None,263.9464974999428,None,263.9464974999428,None,263.9464974999428,None,265.65963778996377,None,265.65963778996377,None,265.65963778996377,None,,,,,,,,,,,,,,009,2022-05-10_10h42.34.396,Main,2022.1.1,61.14861557084941,
neutral,positive,1,k,k,,,,,,,,,2,10,46,4,,,,,,,,,main,2,2,1,positive,neutral,k,k,1,0.6818134000059217,265.65960399992764,266.6595421000384,266.6595421000384,None,265.65960399992764,None,265.65960399992764,None,265.65960399992764,None,267.3429388900055,None,267.3429388900055,None,267.3429388900055,None,,,,,,,,,,,,,,009,2022-05-10_10h42.34.396,Main,2022.1.1,61.14861557084941,
neutral,neutral,1,k,k,,,,,,,,,2,11,47,1,,,,,,,,,main,2,2,1,neutral,neutral,k,k,1,0.5487712000031024,267.3482393999584,268.3620854001492,268.3455608000513,None,267.3482393999584,None,267.3482393999584,None,267.3482393999584,None,268.8932608899428,None,268.8932608899428,None,268.8932608899428,None,,,,,,,,,,,,,,009,2022-05-10_10h42.34.396,Main,2022.1.1,61.14861557084941,
neutral,negative,1,k,k,,,,,,,,,2,12,48,7,,,,,,,,,main,1,1,1,negative,neutral,k,k,1,0.5816386002115905,268.89640590013005,269.895528400084,269.895528400084,None,268.89640590013005,None,268.89640590013005,None,268.89640590013005,None,270.4765464901226,None,270.4765464901226,None,270.4765464901226,None,,,,,,,,,,,,,,009,2022-05-10_10h42.34.396,Main,2022.1.1,61.14861557084941,
positive,neutral,1,l,j,,,,,,,,,2,13,49,8,,,,,,,,,main,1,1,1,neutral,positive,j,j,1,0.681792699964717,270.4802262999583,271.49538550013676,271.4621101000812,None,270.4802262999583,None,270.4802262999583,None,270.4802262999583,None,272.1598481901689,None,272.1598481901689,None,272.1598481901689,None,,,,,,,,,,,,,,009,2022-05-10_10h42.34.396,Main,2022.1.1,61.14861557084941,
neutral,negative,2,k,k,,,,,,,,,2,14,50,16,,,,,,,,,main,1,1,2,negative,neutral,k,k,1,0.7982282999437302,272.1629137999844,273.16199639998376,273.16199639998376,None,272.1629137999844,None,272.1629137999844,None,272.1629137999844,None,273.9597954901634,None,273.9597954901634,None,273.9597954901634,None,,,,,,,,,,,,,,009,2022-05-10_10h42.34.396,Main,2022.1.1,61.14861557084941,
negative,negative,1,j,l,,,,,,,,,2,15,51,0,,,,,,,,,main,1,1,1,negative,negative,l,l,1,0.815229499945417,273.9657475000713,274.9786005001515,274.95971229998395,None,273.9657475000713,None,273.9657475000713,None,273.9657475000713,None,275.776416989998,None,275.776416989998,None,275.776416989998,None,,,,,,,,,,,,,,009,2022-05-10_10h42.34.396,Main,2022.1.1,61.14861557084941,
negative,negative,2,j,l,,,,,,,,,2,16,52,9,,,,,,,,,main,1,1,2,negative,negative,l,j,0,0.7144776000641286,275.78185630007647,276.79267580015585,276.7760000000708,None,275.78185630007647,None,275.78185630007647,None,275.78185630007647,None,277.49264660011977,None,277.49264660011977,None,277.49264660011977,None,,,,,,,,,,,,,,009,2022-05-10_10h42.34.396,Main,2022.1.1,61.14861557084941,
positive,negative,1,l,j,,,,,,,,,2,17,53,5,,,,,,,,,main,2,2,1,negative,positive,j,j,1,0.9028026999440044,278.4933156000916,279.4952402000781,279.47863469994627,None,278.4933156000916,None,278.4933156000916,None,278.4933156000916,None,280.39299999016805,None,280.39299999016805,None,280.39299999016805,None,,,,,,,,,,,,,,009,2022-05-10_10h42.34.396,Main,2022.1.1,61.14861557084941,
positive,neutral,2,l,j,,,,,,,,,3,0,54,17,,,,,,,,,main,2,2,2,neutral,positive,j,j,1,0.7659173000138253,280.3969878000207,281.4118346001487,281.395224200096,None,280.3969878000207,None,280.3969878000207,None,280.3969878000207,None,282.1596247900976,None,282.1596247900976,None,282.1596247900976,None,,,,,,,,,,,,,,009,2022-05-10_10h42.34.396,Main,2022.1.1,61.14861557084941,
positive,neutral,1,l,j,,,,,,,,,3,1,55,8,,,,,,,,,main,2,2,1,neutral,positive,j,j,1,0.6807416998781264,282.16651360015385,283.1784345000051,283.16182280005887,None,282.16651360015385,None,282.16651360015385,None,282.16651360015385,None,283.842928790045,None,283.842928790045,None,283.842928790045,None,,,,,,,,,,,,,,009,2022-05-10_10h42.34.396,Main,2022.1.1,61.14861557084941,
neutral,neutral,1,k,k,,,,,,,,,3,2,56,1,,,,,,,,,main,2,2,1,neutral,neutral,k,k,1,0.73142070020549,283.8489836000372,284.86176400003023,284.8451764001511,None,283.8489836000372,None,283.8489836000372,None,283.8489836000372,None,285.57621699015147,None,285.57621699015147,None,285.57621699015147,None,,,,,,,,,,,,,,009,2022-05-10_10h42.34.396,Main,2022.1.1,61.14861557084941,
positive,negative,2,l,j,,,,,,,,,3,3,57,14,,,,,,,,,main,2,2,2,negative,positive,j,j,1,0.8650136000942439,285.59293149993755,286.59252219996415,286.575510900002,None,285.59293149993755,None,285.59293149993755,None,285.59293149993755,None,287.4425225900719,None,287.4425225900719,None,287.4425225900719,None,,,,,,,,,,,,,,009,2022-05-10_10h42.34.396,Main,2022.1.1,61.14861557084941,
neutral,positive,2,k,k,,,,,,,,,3,4,58,13,,,,,,,,,main,2,2,2,positive,neutral,k,j,0,0.598135800100863,287.4425816000439,288.442423600005,288.442423600005,None,287.4425816000439,None,287.4425816000439,None,287.4425816000439,None,289.0424713001121,None,289.0424713001121,None,289.0424713001121,None,,,,,,,,,,,,,,009,2022-05-10_10h42.34.396,Main,2022.1.1,61.14861557084941,
negative,neutral,2,j,l,,,,,,,,,3,5,59,12,,,,,,,,,main,2,2,2,neutral,negative,l,l,1,1.417963800020516,290.04342160001397,291.0449725999497,291.0283977999352,None,290.04342160001397,None,290.04342160001397,None,290.04342160001397,None,292.45942018998323,None,292.45942018998323,None,292.45942018998323,None,,,,,,,,,,,,,,009,2022-05-10_10h42.34.396,Main,2022.1.1,61.14861557084941,
negative,neutral,1,j,l,,,,,,,,,3,6,60,3,,,,,,,,,main,2,2,1,neutral,negative,l,l,1,0.8139663999900222,292.4639193001203,293.4782492001541,293.4616149000358,None,292.4639193001203,None,292.4639193001203,None,292.4639193001203,None,294.2760860901559,None,294.2760860901559,None,294.2760860901559,None,,,,,,,,,,,,,,009,2022-05-10_10h42.34.396,Main,2022.1.1,61.14861557084941,
negative,negative,1,j,l,,,,,,,,,3,7,61,0,,,,,,,,,main,1,1,1,negative,negative,l,l,1,0.7815254998859018,294.28178500011563,295.29478600015864,295.27593470015563,None,294.28178500011563,None,294.28178500011563,None,294.28178500011563,None,296.0593246901641,None,296.0593246901641,None,296.0593246901641,None,,,,,,,,,,,,,,009,2022-05-10_10h42.34.396,Main,2022.1.1,61.14861557084941,
negative,positive,1,j,l,,,,,,,,,3,8,62,6,,,,,,,,,main,2,2,1,positive,negative,l,l,1,0.6979684000834823,296.0650683999993,297.07556729996577,297.0588937001303,None,296.0650683999993,None,296.0650683999993,None,296.0650683999993,None,297.75895538998304,None,297.75895538998304,None,297.75895538998304,None,,,,,,,,,,,,,,009,2022-05-10_10h42.34.396,Main,2022.1.1,61.14861557084941,
positive,positive,1,l,j,,,,,,,,,3,9,63,2,,,,,,,,,main,1,1,1,positive,positive,j,j,1,1.1152071000542492,297.7588758999482,298.758868600009,298.758868600009,None,297.7588758999482,None,297.7588758999482,None,297.7588758999482,None,299.8759453899926,None,299.8759453899926,None,299.8759453899926,None,,,,,,,,,,,,,,009,2022-05-10_10h42.34.396,Main,2022.1.1,61.14861557084941,
positive,negative,1,l,j,,,,,,,,,3,10,64,5,,,,,,,,,main,2,2,1,negative,positive,j,j,1,0.7488841000013053,299.8948324001394,300.8947729000356,300.8781964001246,None,299.8948324001394,None,299.8948324001394,None,299.8948324001394,None,301.6258793899557,None,301.6258793899557,None,301.6258793899557,None,,,,,,,,,,,,,,009,2022-05-10_10h42.34.396,Main,2022.1.1,61.14861557084941,
neutral,negative,2,k,k,,,,,,,,,3,11,65,16,,,,,,,,,main,1,1,2,negative,neutral,k,k,1,0.6474228000734001,301.64251819998026,302.6447419000324,302.62814110005274,None,301.64251819998026,None,301.64251819998026,None,301.64251819998026,None,303.27584788997194,None,303.27584788997194,None,303.27584788997194,None,,,,,,,,,,,,,,009,2022-05-10_10h42.34.396,Main,2022.1.1,61.14861557084941,
negative,negative,2,j,l,,,,,,,,,3,12,66,9,,,,,,,,,main,2,2,2,negative,negative,l,l,1,0.8155422999989241,303.278867200017,304.27575989998877,304.27575989998877,None,303.278867200017,None,303.278867200017,None,303.278867200017,None,305.092474990082,None,305.092474990082,None,305.092474990082,None,,,,,,,,,,,,,,009,2022-05-10_10h42.34.396,Main,2022.1.1,61.14861557084941,
negative,positive,2,j,l,,,,,,,,,3,13,67,15,,,,,,,,,main,1,1,2,positive,negative,l,l,1,0.6810296999756247,305.0985272999387,306.1113188001327,306.0946915000677,None,305.0985272999387,None,305.0985272999387,None,305.0985272999387,None,306.77575999011754,None,306.77575999011754,None,306.77575999011754,None,,,,,,,,,,,,,,009,2022-05-10_10h42.34.396,Main,2022.1.1,61.14861557084941,
neutral,positive,1,k,k,,,,,,,,,3,14,68,4,,,,,,,,,main,1,1,1,positive,neutral,k,k,1,0.6648638001643121,306.7945871001575,307.8090502000414,307.77497599995695,None,306.7945871001575,None,306.7945871001575,None,306.7945871001575,None,308.4420632899506,None,308.4420632899506,None,308.4420632899506,None,,,,,,,,,,,,,,009,2022-05-10_10h42.34.396,Main,2022.1.1,61.14861557084941,
positive,positive,2,l,j,,,,,,,,,3,15,69,11,,,,,,,,,main,1,1,2,positive,positive,j,j,1,0.7650035999249667,308.4419935999904,309.4419657001272,309.4419657001272,None,308.4419935999904,None,308.4419935999904,None,308.4419935999904,None,310.20874558996877,None,310.20874558996877,None,310.20874558996877,None,,,,,,,,,,,,,,009,2022-05-10_10h42.34.396,Main,2022.1.1,61.14861557084941,
neutral,negative,1,k,k,,,,,,,,,3,16,70,7,,,,,,,,,main,2,2,1,negative,neutral,k,k,1,0.6347196998540312,310.21248019998893,311.22792039997876,311.19464540015906,None,310.21248019998893,None,310.21248019998893,None,310.21248019998893,None,311.84473888997456,None,311.84473888997456,None,311.84473888997456,None,,,,,,,,,,,,,,009,2022-05-10_10h42.34.396,Main,2022.1.1,61.14861557084941,
neutral,neutral,2,k,k,,,,,,,,,3,17,71,10,,,,,,,,,main,1,1,2,neutral,neutral,k,k,1,0.5145552000030875,311.84847530000843,312.8593015000224,312.8446031999774,None,311.84847530000843,None,311.84847530000843,None,311.84847530000843,None,313.3611689901678,None,313.3611689901678,None,313.3611689901678,None,,,,,,,,,,,,,,009,2022-05-10_10h42.34.396,Main,2022.1.1,61.14861557084941,
positive,positive,1,l,j,,,,,,,,,4,0,72,2,,,,,,,,,main,2,2,1,positive,positive,j,l,0,0.7464028999675065,313.36415640008636,314.3755258000456,314.361133800121,None,313.36415640008636,None,313.36415640008636,None,313.36415640008636,None,315.11114839999937,None,315.11114839999937,None,315.11114839999937,None,,,,,,,,,,,,,,009,2022-05-10_10h42.34.396,Main,2022.1.1,61.14861557084941,
neutral,positive,1,k,k,,,,,,,,,4,1,73,4,,,,,,,,,main,1,1,1,positive,neutral,k,k,1,0.717921300092712,316.1087491000071,317.11108219996095,317.09435250004753,None,316.1087491000071,None,316.1087491000071,None,316.1087491000071,None,317.8255286901491,None,317.8255286901491,None,317.8255286901491,None,,,,,,,,,,,,,,009,2022-05-10_10h42.34.396,Main,2022.1.1,61.14861557084941,
neutral,negative,2,k,k,,,,,,,,,4,2,74,16,,,,,,,,,main,2,2,2,negative,neutral,k,k,1,0.547870900016278,317.82891090004705,318.8417770001106,318.82511800015345,None,317.82891090004705,None,317.82891090004705,None,317.82891090004705,None,319.3751600899501,None,319.3751600899501,None,319.3751600899501,None,,,,,,,,,,,,,,009,2022-05-10_10h42.34.396,Main,2022.1.1,61.14861557084941,
negative,positive,1,j,l,,,,,,,,,4,3,75,6,,,,,,,,,main,2,2,1,positive,negative,l,l,1,1.2161064001265913,319.37510880012996,320.3751326999627,320.3751326999627,None,319.37510880012996,None,319.37510880012996,None,319.37510880012996,None,321.5921344901668,None,321.5921344901668,None,321.5921344901668,None,,,,,,,,,,,,,,009,2022-05-10_10h42.34.396,Main,2022.1.1,61.14861557084941,
neutral,negative,1,k,k,,,,,,,,,4,4,76,7,,,,,,,,,main,1,1,1,negative,neutral,k,k,1,0.7475606000516564,321.5961430000607,322.61092750006355,322.59438970009796,None,321.5961430000607,None,321.5961430000607,None,321.5961430000607,None,323.34208909005395,None,323.34208909005395,None,323.34208909005395,None,,,,,,,,,,,,,,009,2022-05-10_10h42.34.396,Main,2022.1.1,61.14861557084941,
positive,neutral,2,l,j,,,,,,,,,4,5,77,17,,,,,,,,,main,1,1,2,neutral,positive,j,j,1,0.6837351000867784,323.3452900000848,324.3442647000775,324.3442647000775,None,323.3452900000848,None,323.3452900000848,None,323.3452900000848,None,325.02763638996987,None,325.02763638996987,None,325.02763638996987,None,,,,,,,,,,,,,,009,2022-05-10_10h42.34.396,Main,2022.1.1,61.14861557084941,
positive,negative,2,l,j,,,,,,,,,4,6,78,14,,,,,,,,,main,2,2,2,negative,positive,j,j,1,0.7128655000124127,325.031191600021,326.0441559001338,326.02765770000406,None,325.031191600021,None,325.031191600021,None,325.031191600021,None,326.74202668995133,None,326.74202668995133,None,326.74202668995133,None,,,,,,,,,,,,,,009,2022-05-10_10h42.34.396,Main,2022.1.1,61.14861557084941,
positive,positive,2,l,j,,,,,,,,,4,7,79,11,,,,,,,,,main,2,2,2,positive,positive,j,j,1,0.5486855001654476,326.75867400015704,327.7608501999639,327.744260400068,None,326.75867400015704,None,326.75867400015704,None,326.75867400015704,None,328.2919710900402,None,328.2919710900402,None,328.2919710900402,None,,,,,,,,,,,,,,009,2022-05-10_10h42.34.396,Main,2022.1.1,61.14861557084941,
positive,neutral,1,l,j,,,,,,,,,4,8,80,8,,,,,,,,,main,1,1,1,neutral,positive,j,j,1,0.8645293998997658,328.29523740010336,329.3082049000077,329.2915412001312,None,328.29523740010336,None,328.29523740010336,None,328.29523740010336,None,330.158282590122,None,330.158282590122,None,330.158282590122,None,,,,,,,,,,,,,,009,2022-05-10_10h42.34.396,Main,2022.1.1,61.14861557084941,
negative,negative,1,j,l,,,,,,,,,4,9,81,0,,,,,,,,,main,1,1,1,negative,negative,l,l,1,1.3679835998918861,330.15821960009634,331.1582399001345,331.1582399001345,None,330.15821960009634,None,330.15821960009634,None,330.15821960009634,None,332.5274401901057,None,332.5274401901057,None,332.5274401901057,None,,,,,,,,,,,,,,009,2022-05-10_10h42.34.396,Main,2022.1.1,61.14861557084941,
neutral,positive,2,k,k,,,,,,,,,4,10,82,13,,,,,,,,,main,1,1,2,positive,neutral,k,k,1,0.7150761999655515,332.53065770003013,333.54411950008944,333.5275360001251,None,332.53065770003013,None,332.53065770003013,None,332.53065770003013,None,334.2444331899984,None,334.2444331899984,None,334.2444331899984,None,,,,,,,,,,,,,,009,2022-05-10_10h42.34.396,Main,2022.1.1,61.14861557084941,
negative,negative,2,j,l,,,,,,,,,4,11,83,9,,,,,,,,,main,2,2,2,negative,negative,l,l,1,1.0291190999560058,334.2473440000322,335.2587220000569,335.244087100029,None,334.2473440000322,None,334.2473440000322,None,334.2473440000322,None,336.27517579009293,None,336.27517579009293,None,336.27517579009293,None,,,,,,,,,,,,,,009,2022-05-10_10h42.34.396,Main,2022.1.1,61.14861557084941,
negative,neutral,1,j,l,,,,,,,,,4,12,84,3,,,,,,,,,main,2,2,1,neutral,negative,l,l,1,0.9153370000422001,336.27872750000097,337.2939558001235,337.27506950008683,None,336.27872750000097,None,336.27872750000097,None,336.27872750000097,None,338.19177709009966,None,338.19177709009966,None,338.19177709009966,None,,,,,,,,,,,,,,009,2022-05-10_10h42.34.396,Main,2022.1.1,61.14861557084941,
negative,positive,2,j,l,,,,,,,,,4,13,85,15,,,,,,,,,main,2,2,2,positive,negative,l,l,1,1.0965366999153048,338.2033719001338,339.2077053000685,339.19101800001226,None,338.2033719001338,None,338.2033719001338,None,338.2033719001338,None,340.29140049011914,None,340.29140049011914,None,340.29140049011914,None,,,,,,,,,,,,,,009,2022-05-10_10h42.34.396,Main,2022.1.1,61.14861557084941,
positive,negative,1,l,j,,,,,,,,,4,14,86,5,,,,,,,,,main,1,1,1,negative,positive,j,j,1,1.3175170000176877,340.29261859995313,341.3080188999884,341.29133790009655,None,340.29261859995313,None,340.29261859995313,None,340.29261859995313,None,342.6106799901696,None,342.6106799901696,None,342.6106799901696,None,,,,,,,,,,,,,,009,2022-05-10_10h42.34.396,Main,2022.1.1,61.14861557084941,
neutral,neutral,2,k,k,,,,,,,,,4,15,87,10,,,,,,,,,main,2,2,2,neutral,neutral,k,k,1,0.6623010998591781,342.61375800007954,343.6272986000404,343.61065319995396,None,342.61375800007954,None,342.61375800007954,None,342.61375800007954,None,344.27468748998365,None,344.27468748998365,None,344.27468748998365,None,,,,,,,,,,,,,,009,2022-05-10_10h42.34.396,Main,2022.1.1,61.14861557084941,
negative,neutral,2,j,l,,,,,,,,,4,16,88,12,,,,,,,,,main,1,1,2,neutral,negative,l,l,1,0.9324923001695424,344.27890369994566,345.291560200043,345.2772137001157,None,344.27890369994566,None,344.27890369994566,None,344.27890369994566,None,346.2087266899413,None,346.2087266899413,None,346.2087266899413,None,,,,,,,,,,,,,,009,2022-05-10_10h42.34.396,Main,2022.1.1,61.14861557084941,
neutral,neutral,1,k,k,,,,,,,,,4,17,89,1,,,,,,,,,main,2,2,1,neutral,neutral,k,k,1,0.6373882000334561,346.2119750001002,347.2270676000044,347.2084465001244,None,346.2119750001002,None,346.2119750001002,None,346.2119750001002,None,347.84376799014865,None,347.84376799014865,None,347.84376799014865,None,,,,,,,,,,,,,,009,2022-05-10_10h42.34.396,Main,2022.1.1,61.14861557084941,
positive,positive,2,l,j,,,,,,,,,5,0,90,11,,,,,,,,,main,2,2,2,positive,positive,j,j,1,0.9114255998283625,347.85068450006656,348.8583657001145,348.84372609993443,None,347.85068450006656,None,347.85068450006656,None,347.85068450006656,None,349.7604495899519,None,349.7604495899519,None,349.7604495899519,None,,,,,,,,,,,,,,009,2022-05-10_10h42.34.396,Main,2022.1.1,61.14861557084941,
negative,neutral,1,j,l,,,,,,,,,5,1,91,3,,,,,,,,,main,2,2,1,neutral,negative,l,l,1,0.828900899970904,349.7635695999488,350.77444770000875,350.7580242000986,None,349.7635695999488,None,349.7635695999488,None,349.7635695999488,None,351.5911587900715,None,351.5911587900715,None,351.5911587900715,None,,,,,,,,,,,,,,009,2022-05-10_10h42.34.396,Main,2022.1.1,61.14861557084941,
negative,positive,1,j,l,,,,,,,,,5,2,92,6,,,,,,,,,main,2,2,1,positive,negative,l,l,1,0.6489134000148624,351.5912226000801,352.5911282999441,352.5911282999441,None,351.5912226000801,None,351.5912226000801,None,351.5912226000801,None,353.24151439012496,None,353.24151439012496,None,353.24151439012496,None,,,,,,,,,,,,,,009,2022-05-10_10h42.34.396,Main,2022.1.1,61.14861557084941,
positive,negative,1,l,j,,,,,,,,,5,3,93,5,,,,,,,,,main,1,1,1,negative,positive,j,j,1,0.8304121000692248,353.24756760010496,354.2603647999931,354.24375370005146,None,353.24756760010496,None,353.24756760010496,None,353.24756760010496,None,355.0744880901417,None,355.0744880901417,None,355.0744880901417,None,,,,,,,,,,,,,,009,2022-05-10_10h42.34.396,Main,2022.1.1,61.14861557084941,
neutral,positive,2,k,k,,,,,,,,,5,4,94,13,,,,,,,,,main,2,2,2,positive,neutral,k,k,1,0.7153733999002725,355.0807721000165,356.0917170001194,356.0769748000894,None,355.0807721000165,None,355.0807721000165,None,355.0807721000165,None,356.79139238994105,None,356.79139238994105,None,356.79139238994105,None,,,,,,,,,,,,,,009,2022-05-10_10h42.34.396,Main,2022.1.1,61.14861557084941,
neutral,negative,2,k,k,,,,,,,,,5,5,95,16,,,,,,,,,main,1,1,2,negative,neutral,k,k,1,0.7707859999500215,356.79706920008175,357.8105067999568,357.79362010001205,None,356.79706920008175,None,356.79706920008175,None,356.79706920008175,None,358.5637785899686,None,358.5637785899686,None,358.5637785899686,None,,,,,,,,,,,,,,009,2022-05-10_10h42.34.396,Main,2022.1.1,61.14861557084941,
neutral,neutral,1,k,k,,,,,,,,,5,6,96,1,,,,,,,,,main,1,1,1,neutral,neutral,k,k,1,1.058685999829322,358.56667570001446,359.5766927001532,359.56016080011614,None,358.56667570001446,None,358.56667570001446,None,358.56667570001446,None,360.62429229009433,None,360.62429229009433,None,360.62429229009433,None,,,,,,,,,,,,,,009,2022-05-10_10h42.34.396,Main,2022.1.1,61.14861557084941,
positive,neutral,2,l,j,,,,,,,,,5,7,97,17,,,,,,,,,main,2,2,2,neutral,positive,j,j,1,0.7488480999600142,360.6253838001285,361.6244173999876,361.6244173999876,None,360.6253838001285,None,360.6253838001285,None,360.6253838001285,None,362.37428009000143,None,362.37428009000143,None,362.37428009000143,None,,,,,,,,,,,,,,009,2022-05-10_10h42.34.396,Main,2022.1.1,61.14861557084941,
negative,neutral,2,j,l,,,,,,,,,5,8,98,12,,,,,,,,,main,2,2,2,neutral,negative,l,l,1,0.7477206001058221,362.3784392999951,363.39337590010837,363.3768450000789,None,362.3784392999951,None,362.3784392999951,None,362.3784392999951,None,364.12459079015537,None,364.12459079015537,None,364.12459079015537,None,,,,,,,,,,,,,,009,2022-05-10_10h42.34.396,Main,2022.1.1,61.14861557084941,
positive,positive,1,l,j,,,,,,,,,5,9,99,2,,,,,,,,,main,2,2,1,positive,positive,j,j,1,0.8149025000166148,364.13063030014746,365.14343259995803,365.12679830007255,None,364.13063030014746,None,364.13063030014746,None,364.13063030014746,None,365.94118099010086,None,365.94118099010086,None,365.94118099010086,None,,,,,,,,,,,,,,009,2022-05-10_10h42.34.396,Main,2022.1.1,61.14861557084941,
negative,negative,2,j,l,,,,,,,,,5,10,100,9,,,,,,,,,main,1,1,2,negative,negative,l,l,1,0.7486235999967903,365.9445132999681,366.943474000087,366.943474000087,None,365.9445132999681,None,365.9445132999681,None,365.9445132999681,None,367.6911593901692,None,367.6911593901692,None,367.6911593901692,None,,,,,,,,,,,,,,009,2022-05-10_10h42.34.396,Main,2022.1.1,61.14861557084941,
neutral,neutral,2,k,k,,,,,,,,,5,11,101,10,,,,,,,,,main,1,1,2,neutral,neutral,k,k,1,0.6480781999416649,367.69457420008257,368.7080049000215,368.6936242999509,None,367.69457420008257,None,367.69457420008257,None,367.69457420008257,None,369.3410985900788,None,369.3410985900788,None,369.3410985900788,None,,,,,,,,,,,,,,009,2022-05-10_10h42.34.396,Main,2022.1.1,61.14861557084941,
positive,neutral,1,l,j,,,,,,,,,5,12,102,8,,,,,,,,,main,2,2,1,neutral,positive,j,j,1,0.7818371001631021,369.34679610002786,370.3598482001107,370.3410247999709,None,369.34679610002786,None,369.34679610002786,None,369.34679610002786,None,371.1244305900997,None,371.1244305900997,None,371.1244305900997,None,,,,,,,,,,,,,,009,2022-05-10_10h42.34.396,Main,2022.1.1,61.14861557084941,
negative,negative,1,j,l,,,,,,,,,5,13,103,0,,,,,,,,,main,1,1,1,negative,negative,l,k,0,0.6184688999783248,371.1402551000938,372.1406626000535,372.12399630015716,None,371.1402551000938,None,371.1402551000938,None,371.1402551000938,None,372.7406155001372,None,372.7406155001372,None,372.7406155001372,None,,,,,,,,,,,,,,009,2022-05-10_10h42.34.396,Main,2022.1.1,61.14861557084941,
negative,positive,2,j,l,,,,,,,,,5,14,104,15,,,,,,,,,main,1,1,2,positive,negative,l,l,1,1.1529604000970721,373.7428180000279,374.75994869996794,374.72451430000365,None,373.7428180000279,None,373.7428180000279,None,373.7428180000279,None,375.8909839899512,None,375.8909839899512,None,375.8909839899512,None,,,,,,,,,,,,,,009,2022-05-10_10h42.34.396,Main,2022.1.1,61.14861557084941,
positive,negative,2,l,j,,,,,,,,,5,15,105,14,,,,,,,,,main,2,2,2,negative,positive,j,j,1,0.8351239999756217,375.8944183001295,376.9097933000885,376.8932038999628,None,375.8944183001295,None,375.8944183001295,None,375.8944183001295,None,377.7264765899396,None,377.7264765899396,None,377.7264765899396,None,,,,,,,,,,,,,,009,2022-05-10_10h42.34.396,Main,2022.1.1,61.14861557084941,
neutral,positive,1,k,k,,,,,,,,,5,16,106,4,,,,,,,,,main,2,2,1,positive,neutral,k,k,1,0.7002138001844287,377.73116480000317,378.74310089997016,378.72652880009264,None,377.73116480000317,None,377.73116480000317,None,377.73116480000317,None,379.4275183901424,None,379.4275183901424,None,379.4275183901424,None,,,,,,,,,,,,,,009,2022-05-10_10h42.34.396,Main,2022.1.1,61.14861557084941,
neutral,negative,1,k,k,,,,,,,,,5,17,107,7,,,,,,,,,main,2,2,1,negative,neutral,k,k,1,0.5931714999023825,379.43391370004974,380.4430261000525,380.4241285000462,None,379.43391370004974,None,379.43391370004974,None,379.43391370004974,None,381.024476990127,None,381.024476990127,None,381.024476990127,None,,,,,,,,,,,,,,009,2022-05-10_10h42.34.396,Main,2022.1.1,61.14861557084941,
negative,negative,2,j,l,,,,,,,,,6,0,108,9,,,,,,,,,main,1,1,2,negative,negative,l,l,1,1.0309033000376076,381.0302418000065,382.04043600009754,382.02376829995774,None,381.0302418000065,None,381.0302418000065,None,381.0302418000065,None,383.0571401899448,None,383.0571401899448,None,383.0571401899448,None,,,,,,,,,,,,,,009,2022-05-10_10h42.34.396,Main,2022.1.1,61.14861557084941,
neutral,negative,2,k,k,,,,,,,,,6,1,109,16,,,,,,,,,main,1,1,2,negative,neutral,k,k,1,0.6320501000154763,383.0570720001124,384.05710750003345,384.05710750003345,None,383.0570720001124,None,383.0570720001124,None,383.0570720001124,None,384.69080459002873,None,384.69080459002873,None,384.69080459002873,None,,,,,,,,,,,,,,009,2022-05-10_10h42.34.396,Main,2022.1.1,61.14861557084941,
neutral,neutral,2,k,k,,,,,,,,,6,2,110,10,,,,,,,,,main,2,2,2,neutral,neutral,k,k,1,0.6174367999192327,384.6943550000433,385.70966519997455,385.69305370002985,None,384.6943550000433,None,384.6943550000433,None,384.6943550000433,None,386.3096604901599,None,386.3096604901599,None,386.3096604901599,None,,,,,,,,,,,,,,009,2022-05-10_10h42.34.396,Main,2022.1.1,61.14861557084941,
negative,negative,1,j,l,,,,,,,,,6,3,111,0,,,,,,,,,main,1,1,1,negative,negative,l,l,1,0.7795273000374436,386.3123707000632,387.3261605000589,387.3096050999593,None,386.3123707000632,None,386.3123707000632,None,386.3123707000632,None,388.0907070900081,None,388.0907070900081,None,388.0907070900081,None,,,,,,,,,,,,,,009,2022-05-10_10h42.34.396,Main,2022.1.1,61.14861557084941,
positive,neutral,2,l,j,,,,,,,,,6,4,112,17,,,,,,,,,main,2,2,2,neutral,positive,j,j,1,0.680713500129059,388.0968710000161,389.109586100094,389.09297600016,None,388.0968710000161,None,388.0968710000161,None,388.0968710000161,None,389.7743577901507,None,389.7743577901507,None,389.7743577901507,None,,,,,,,,,,,,,,009,2022-05-10_10h42.34.396,Main,2022.1.1,61.14861557084941,
neutral,positive,2,k,k,,,,,,,,,6,5,113,13,,,,,,,,,main,2,2,2,positive,neutral,k,k,1,0.6653310998808593,389.77759870002046,390.84937770012766,390.77624449995346,None,389.77759870002046,None,389.77759870002046,None,389.77759870002046,None,391.4402897900669,None,391.4402897900669,None,391.4402897900669,None,,,,,,,,,,,,,,009,2022-05-10_10h42.34.396,Main,2022.1.1,61.14861557084941,
negative,positive,1,j,l,,,,,,,,,6,6,114,6,,,,,,,,,main,2,2,1,positive,negative,l,l,1,0.7477790999691933,391.44138390012085,392.4568735000212,392.44021539995447,None,391.44138390012085,None,391.44138390012085,None,391.44138390012085,None,393.19061469009614,None,393.19061469009614,None,393.19061469009614,None,,,,,,,,,,,,,,009,2022-05-10_10h42.34.396,Main,2022.1.1,61.14861557084941,
negative,positive,2,j,l,,,,,,,,,6,7,115,15,,,,,,,,,main,1,1,2,positive,negative,l,l,1,0.8673702999949455,393.19457680010237,394.20755819999613,394.1928692001384,None,393.19457680010237,None,393.19457680010237,None,393.19457680010237,None,395.0596689901082,None,395.0596689901082,None,395.0596689901082,None,,,,,,,,,,,,,,009,2022-05-10_10h42.34.396,Main,2022.1.1,61.14861557084941,
negative,neutral,2,j,l,,,,,,,,,6,8,116,12,,,,,,,,,main,1,1,2,neutral,negative,l,l,1,1.2626910000108182,395.06355650001206,396.07642220007256,396.0595108999405,None,395.06355650001206,None,395.06355650001206,None,395.06355650001206,None,397.3238729899982,None,397.3238729899982,None,397.3238729899982,None,,,,,,,,,,,,,,009,2022-05-10_10h42.34.396,Main,2022.1.1,61.14861557084941,
neutral,positive,1,k,k,,,,,,,,,6,9,117,4,,,,,,,,,main,1,1,1,positive,neutral,k,k,1,0.6654054999817163,397.32957369997166,398.34043770004064,398.3260030001402,None,397.32957369997166,None,397.32957369997166,None,397.32957369997166,None,398.9909416900715,None,398.9909416900715,None,398.9909416900715,None,,,,,,,,,,,,,,009,2022-05-10_10h42.34.396,Main,2022.1.1,61.14861557084941,
positive,negative,2,l,j,,,,,,,,,6,10,118,14,,,,,,,,,main,2,2,2,negative,positive,j,j,1,0.7500360999256372,398.9967412999831,400.00933389994316,399.99266530014575,None,398.9967412999831,None,398.9967412999831,None,398.9967412999831,None,400.7427424900467,None,400.7427424900467,None,400.7427424900467,None,,,,,,,,,,,,,,009,2022-05-10_10h42.34.396,Main,2022.1.1,61.14861557084941,
positive,negative,1,l,j,,,,,,,,,6,11,119,5,,,,,,,,,main,2,2,1,negative,positive,j,j,1,0.9462644997984171,400.7460014000535,401.7566738999449,401.7400134000927,None,400.7460014000535,None,400.7460014000535,None,400.7460014000535,None,402.69006198996215,None,402.69006198996215,None,402.69006198996215,None,,,,,,,,,,,,,,009,2022-05-10_10h42.34.396,Main,2022.1.1,61.14861557084941,
positive,positive,2,l,j,,,,,,,,,6,12,120,11,,,,,,,,,main,2,2,2,positive,positive,j,j,1,0.6984248999506235,402.6903315000236,403.690013299929,403.690013299929,None,402.6903315000236,None,402.6903315000236,None,402.6903315000236,None,404.3903964900179,None,404.3903964900179,None,404.3903964900179,None,,,,,,,,,,,,,,009,2022-05-10_10h42.34.396,Main,2022.1.1,61.14861557084941,
positive,neutral,1,l,j,,,,,,,,,6,13,121,8,,,,,,,,,main,1,1,1,neutral,positive,j,j,1,0.6827242998406291,404.3943789000623,405.40922389994375,405.39039590000175,None,404.3943789000623,None,404.3943789000623,None,404.3943789000623,None,406.07597329004204,None,406.07597329004204,None,406.07597329004204,None,,,,,,,,,,,,,,009,2022-05-10_10h42.34.396,Main,2022.1.1,61.14861557084941,
neutral,neutral,1,k,k,,,,,,,,,6,14,122,1,,,,,,,,,main,1,1,1,neutral,neutral,k,k,1,0.696324700023979,406.078065500129,407.09251710004173,407.07591850007884,None,406.078065500129,None,406.078065500129,None,406.078065500129,None,407.7736296900781,None,407.7736296900781,None,407.7736296900781,None,,,,,,,,,,,,,,009,2022-05-10_10h42.34.396,Main,2022.1.1,61.14861557084941,
positive,positive,1,l,j,,,,,,,,,6,15,123,2,,,,,,,,,main,1,1,1,positive,positive,j,j,1,0.698490200098604,407.77655449998565,408.7924749001395,408.7568829001393,None,407.77655449998565,None,407.77655449998565,None,407.77655449998565,None,409.47358209013476,None,409.47358209013476,None,409.47358209013476,None,,,,,,,,,,,,,,009,2022-05-10_10h42.34.396,Main,2022.1.1,61.14861557084941,
neutral,negative,1,k,k,,,,,,,,,6,16,124,7,,,,,,,,,main,2,2,1,negative,neutral,k,k,1,0.6653692000545561,409.4768314999528,410.4757248000242,410.4757248000242,None,409.4768314999528,None,409.4768314999528,None,409.4768314999528,None,411.140212590131,None,411.140212590131,None,411.140212590131,None,,,,,,,,,,,,,,009,2022-05-10_10h42.34.396,Main,2022.1.1,61.14861557084941,
negative,neutral,1,j,l,,,,,,,,,6,17,125,3,,,,,,,,,main,2,2,1,neutral,negative,l,l,1,0.931190200150013,411.14601269993,412.15646150009707,412.1397971000988,None,411.14601269993,None,411.14601269993,None,411.14601269993,None,413.0731651899638,None,413.0731651899638,None,413.0731651899638,None,,,,,,,,,,,,,,009,2022-05-10_10h42.34.396,Main,2022.1.1,61.14861557084941,
neutral,negative,2,k,k,,,,,,,,,7,0,126,16,,,,,,,,,main,2,2,2,negative,neutral,k,k,1,0.6652836001012474,413.0730882999487,414.07314019999467,414.07314019999467,None,413.0730882999487,None,413.0730882999487,None,413.0730882999487,None,414.74016199007167,None,414.74016199007167,None,414.74016199007167,None,,,,,,,,,,,,,,009,2022-05-10_10h42.34.396,Main,2022.1.1,61.14861557084941,
negative,positive,1,j,l,,,,,,,,,7,1,127,6,,,,,,,,,main,1,1,1,positive,negative,l,l,1,0.7485258998349309,414.7445712001063,415.75893729995005,415.7423398999963,None,414.7445712001063,None,414.7445712001063,None,414.7445712001063,None,416.4901111901505,None,416.4901111901505,None,416.4901111901505,None,,,,,,,,,,,,,,009,2022-05-10_10h42.34.396,Main,2022.1.1,61.14861557084941,
positive,neutral,2,l,j,,,,,,,,,7,2,128,17,,,,,,,,,main,1,1,2,neutral,positive,j,j,1,0.6995077999308705,416.49406190006994,417.50899889995344,417.4923789999448,None,416.49406190006994,None,416.49406190006994,None,416.49406190006994,None,418.19229298995344,None,418.19229298995344,None,418.19229298995344,None,,,,,,,,,,,,,,009,2022-05-10_10h42.34.396,Main,2022.1.1,61.14861557084941,
neutral,positive,2,k,k,,,,,,,,,7,3,129,13,,,,,,,,,main,2,2,2,positive,neutral,k,k,1,0.5799563000909984,418.19626290001906,419.2089228001423,419.19235050003044,None,418.19626290001906,None,418.19626290001906,None,418.19626290001906,None,419.7733781901421,None,419.7733781901421,None,419.7733781901421,None,,,,,,,,,,,,,,009,2022-05-10_10h42.34.396,Main,2022.1.1,61.14861557084941,
positive,negative,1,l,j,,,,,,,,,7,4,130,5,,,,,,,,,main,1,1,1,negative,positive,j,j,1,0.6480912999249995,419.7790866999421,420.7921553000342,420.77552010002546,None,419.7790866999421,None,419.7790866999421,None,419.7790866999421,None,421.42333199016286,None,421.42333199016286,None,421.42333199016286,None,,,,,,,,,,,,,,009,2022-05-10_10h42.34.396,Main,2022.1.1,61.14861557084941,
negative,neutral,1,j,l,,,,,,,,,7,5,131,3,,,,,,,,,main,2,2,1,neutral,negative,l,k,0,0.6804845000151545,421.4294036999345,422.44215280003846,422.4255250999704,None,421.4294036999345,None,421.4294036999345,None,421.4294036999345,None,423.10622900002636,None,423.10622900002636,None,423.10622900002636,None,,,,,,,,,,,,,,009,2022-05-10_10h42.34.396,Main,2022.1.1,61.14861557084941,
negative,negative,1,j,l,,,,,,,,,7,6,132,0,,,,,,,,,main,1,1,1,negative,negative,l,l,1,0.7709451001137495,424.1074548999313,425.1228831000626,425.10624090000056,None,424.1074548999313,None,424.1074548999313,None,424.1074548999313,None,425.87325939002915,None,425.87325939002915,None,425.87325939002915,None,,,,,,,,,,,,,,009,2022-05-10_10h42.34.396,Main,2022.1.1,61.14861557084941,
positive,neutral,1,l,j,,,,,,,,,7,7,133,8,,,,,,,,,main,2,2,1,neutral,positive,j,l,0,0.7468648999929428,425.8795658000745,426.89210950001143,426.87545290007256,None,425.8795658000745,None,425.8795658000745,None,425.8795658000745,None,427.623156900052,None,427.623156900052,None,427.623156900052,None,,,,,,,,,,,,,,009,2022-05-10_10h42.34.396,Main,2022.1.1,61.14861557084941,
positive,positive,2,l,j,,,,,,,,,7,8,134,11,,,,,,,,,main,1,1,2,positive,positive,j,j,1,1.0011990999337286,428.62348629999906,429.6253591000568,429.6086599000264,None,428.62348629999906,None,428.62348629999906,None,428.62348629999906,None,430.62312409004664,None,430.62312409004664,None,430.62312409004664,None,,,,,,,,,,,,,,009,2022-05-10_10h42.34.396,Main,2022.1.1,61.14861557084941,
negative,positive,2,j,l,,,,,,,,,7,9,135,15,,,,,,,,,main,1,1,2,positive,negative,l,l,1,0.8315041000023484,430.62653700006194,431.6419659999665,431.6253555000294,None,430.62653700006194,None,430.62653700006194,None,430.62653700006194,None,432.4564270901261,None,432.4564270901261,None,432.4564270901261,None,,,,,,,,,,,,,,009,2022-05-10_10h42.34.396,Main,2022.1.1,61.14861557084941,
positive,negative,2,l,j,,,,,,,,,7,10,136,14,,,,,,,,,main,2,2,2,negative,positive,j,j,1,0.7812131999526173,432.4617314999923,433.4726798001211,433.4560118999798,None,432.4617314999923,None,432.4617314999923,None,432.4617314999923,None,434.2393784900429,None,434.2393784900429,None,434.2393784900429,None,,,,,,,,,,,,,,009,2022-05-10_10h42.34.396,Main,2022.1.1,61.14861557084941,
positive,positive,1,l,j,,,,,,,,,7,11,137,2,,,,,,,,,main,1,1,1,positive,positive,j,j,1,0.8314952000509948,434.2463523000479,435.2560213000979,435.23934660013765,None,434.2463523000479,None,434.2463523000479,None,434.2463523000479,None,436.07304158995396,None,436.07304158995396,None,436.07304158995396,None,,,,,,,,,,,,,,009,2022-05-10_10h42.34.396,Main,2022.1.1,61.14861557084941,
neutral,neutral,1,k,k,,,,,,,,,7,12,138,1,,,,,,,,,main,2,2,1,neutral,neutral,k,k,1,0.7318707001395524,436.0761939000804,437.07518910011277,437.05862829997204,None,436.0761939000804,None,436.0761939000804,None,436.0761939000804,None,437.8063278901624,None,437.8063278901624,None,437.8063278901624,None,,,,,,,,,,,,,,009,2022-05-10_10h42.34.396,Main,2022.1.1,61.14861557084941,
negative,neutral,2,j,l,,,,,,,,,7,13,139,12,,,,,,,,,main,1,1,2,neutral,negative,l,j,0,0.6982972000259906,437.80966660007834,438.82518359995447,438.8085316000506,None,437.80966660007834,None,437.80966660007834,None,437.80966660007834,None,439.5062297999393,None,439.5062297999393,None,439.5062297999393,None,,,,,,,,,,,,,,009,2022-05-10_10h42.34.396,Main,2022.1.1,61.14861557084941,
neutral,positive,1,k,k,,,,,,,,,7,14,140,4,,,,,,,,,main,1,1,1,positive,neutral,k,k,1,0.7344814001116902,440.506591900019,441.50846619997174,441.4918029999826,None,440.506591900019,None,440.506591900019,None,440.506591900019,None,442.23956289005,None,442.23956289005,None,442.23956289005,None,,,,,,,,,,,,,,009,2022-05-10_10h42.34.396,Main,2022.1.1,61.14861557084941,
neutral,negative,1,k,k,,,,,,,,,7,15,141,7,,,,,,,,,main,2,2,1,negative,neutral,k,k,1,0.6173807000741363,442.24338859994896,443.258328899974,443.2417739001103,None,442.24338859994896,None,442.24338859994896,None,442.24338859994896,None,443.8587695900584,None,443.8587695900584,None,443.8587695900584,None,,,,,,,,,,,,,,009,2022-05-10_10h42.34.396,Main,2022.1.1,61.14861557084941,
negative,negative,2,j,l,,,,,,,,,7,16,142,9,,,,,,,,,main,2,2,2,negative,negative,l,l,1,0.828718600096181,443.8581594999414,444.8724239000585,444.8557426999323,None,443.8581594999414,None,443.8581594999414,None,443.8581594999414,None,445.6891992900288,None,445.6891992900288,None,445.6891992900288,None,,,,,,,,,,,,,,009,2022-05-10_10h42.34.396,Main,2022.1.1,61.14861557084941,
neutral,neutral,2,k,k,,,,,,,,,7,17,143,10,,,,,,,,,main,1,1,2,neutral,neutral,k,k,1,0.6653195000253618,445.69444300001487,446.7083330999594,446.6750390001107,None,445.69444300001487,None,445.69444300001487,None,445.69444300001487,None,447.3561426899629,None,447.3561426899629,None,447.3561426899629,None,,,,,,,,,,,,,,009,2022-05-10_10h42.34.396,Main,2022.1.1,61.14861557084941,
positive,neutral,1,l,j,,,,,,,,,8,0,144,8,,,,,,,,,main,1,1,1,neutral,positive,j,j,1,1.215028200065717,447.3620917999651,448.3749263000209,448.35827070008963,None,447.3620917999651,None,447.3620917999651,None,447.3620917999651,None,449.5727421900025,None,449.5727421900025,None,449.5727421900025,None,,,,,,,,,,,,,,009,2022-05-10_10h42.34.396,Main,2022.1.1,61.14861557084941,
negative,positive,2,j,l,,,,,,,,,8,1,145,15,,,,,,,,,main,1,1,2,positive,negative,l,l,1,0.6489589000120759,449.5764260001015,450.5897178000305,450.55826530000195,None,449.5764260001015,None,449.5764260001015,None,449.5764260001015,None,451.22270388996697,None,451.22270388996697,None,451.22270388996697,None,,,,,,,,,,,,,,009,2022-05-10_10h42.34.396,Main,2022.1.1,61.14861557084941,
negative,negative,1,j,l,,,,,,,,,8,2,146,0,,,,,,,,,main,1,1,1,negative,negative,l,l,1,1.4315601999405771,451.2286764001474,452.24150150013156,452.2249010000378,None,451.2286764001474,None,451.2286764001474,None,451.2286764001474,None,453.65598148994616,None,453.65598148994616,None,453.65598148994616,None,,,,,,,,,,,,,,009,2022-05-10_10h42.34.396,Main,2022.1.1,61.14861557084941,
neutral,neutral,1,k,k,,,,,,,,,8,3,147,1,,,,,,,,,main,2,2,1,neutral,neutral,k,k,1,1.1982300002127886,453.6614747000858,454.67180519993417,454.6496687999461,None,453.6614747000858,None,453.6614747000858,None,453.6614747000858,None,455.8555946899811,None,455.8555946899811,None,455.8555946899811,None,,,,,,,,,,,,,,009,2022-05-10_10h42.34.396,Main,2022.1.1,61.14861557084941,
positive,positive,2,l,j,,,,,,,,,8,4,148,11,,,,,,,,,main,1,1,2,positive,positive,j,j,1,0.7818761998787522,455.8555382001214,456.85555500001647,456.85555500001647,None,455.8555382001214,None,455.8555382001214,None,455.8555382001214,None,457.63924658999315,None,457.63924658999315,None,457.63924658999315,None,,,,,,,,,,,,,,009,2022-05-10_10h42.34.396,Main,2022.1.1,61.14861557084941,
negative,neutral,1,j,l,,,,,,,,,8,5,149,3,,,,,,,,,main,1,1,1,neutral,negative,l,l,1,0.7319495000410825,457.64488529996015,458.658101500012,458.64149320009165,None,457.64488529996015,None,457.64488529996015,None,457.64488529996015,None,459.3726185900392,None,459.3726185900392,None,459.3726185900392,None,,,,,,,,,,,,,,009,2022-05-10_10h42.34.396,Main,2022.1.1,61.14861557084941,
neutral,neutral,2,k,k,,,,,,,,,8,6,150,10,,,,,,,,,main,2,2,2,neutral,neutral,k,k,1,0.6314335998613387,459.37840569997206,460.3890967001207,460.3722397000529,None,459.37840569997206,None,459.37840569997206,None,459.37840569997206,None,461.0059944901383,None,461.0059944901383,None,461.0059944901383,None,,,,,,,,,,,,,,009,2022-05-10_10h42.34.396,Main,2022.1.1,61.14861557084941,
neutral,positive,1,k,k,,,,,,,,,8,7,151,4,,,,,,,,,main,2,2,1,positive,neutral,k,k,1,0.7815666999667883,461.0121131001506,462.02461310010403,462.00573800015263,None,461.0121131001506,None,461.0121131001506,None,461.0121131001506,None,462.78910939001946,None,462.78910939001946,None,462.78910939001946,None,,,,,,,,,,,,,,009,2022-05-10_10h42.34.396,Main,2022.1.1,61.14861557084941,
negative,neutral,2,j,l,,,,,,,,,8,8,152,12,,,,,,,,,main,1,1,2,neutral,negative,l,l,1,0.8317402999382466,462.7950242999941,463.8078720001504,463.79132060008124,None,462.7950242999941,None,462.7950242999941,None,462.7950242999941,None,464.622389890044,None,464.622389890044,None,464.622389890044,None,,,,,,,,,,,,,,009,2022-05-10_10h42.34.396,Main,2022.1.1,61.14861557084941,
negative,negative,2,j,l,,,,,,,,,8,9,153,9,,,,,,,,,main,2,2,2,negative,negative,l,l,1,0.6814539001788944,464.62769390014,465.6386566001456,465.6219856000971,None,464.62769390014,None,464.62769390014,None,464.62769390014,None,466.30535168994686,None,466.30535168994686,None,466.30535168994686,None,,,,,,,,,,,,,,009,2022-05-10_10h42.34.396,Main,2022.1.1,61.14861557084941,
neutral,negative,2,k,k,,,,,,,,,8,10,154,16,,,,,,,,,main,1,1,2,negative,neutral,k,k,1,0.7321723999921232,466.3053002001252,467.3053220999427,467.3053220999427,None,466.3053002001252,None,466.3053002001252,None,466.3053002001252,None,468.03905308994,None,468.03905308994,None,468.03905308994,None,,,,,,,,,,,,,,009,2022-05-10_10h42.34.396,Main,2022.1.1,61.14861557084941,
neutral,positive,2,k,k,,,,,,,,,8,11,155,13,,,,,,,,,main,2,2,2,positive,neutral,k,k,1,0.7339328997768462,468.04266800009646,469.05787819996476,469.0387508000713,None,468.04266800009646,None,468.04266800009646,None,468.04266800009646,None,469.77453799012585,None,469.77453799012585,None,469.77453799012585,None,,,,,,,,,,,,,,009,2022-05-10_10h42.34.396,Main,2022.1.1,61.14861557084941,
positive,positive,1,l,j,,,,,,,,,8,12,156,2,,,,,,,,,main,1,1,1,positive,positive,j,j,1,0.7626861999742687,469.7776560001075,470.7910855000373,470.77457040012814,None,469.7776560001075,None,469.7776560001075,None,469.7776560001075,None,471.53892779003365,None,471.53892779003365,None,471.53892779003365,None,,,,,,,,,,,,,,009,2022-05-10_10h42.34.396,Main,2022.1.1,61.14861557084941,
positive,neutral,2,l,j,,,,,,,,,8,13,157,17,,,,,,,,,main,1,1,2,neutral,positive,j,j,1,0.7321928997989744,471.5444344000425,472.5577454001177,472.5411855999846,None,471.5444344000425,None,471.5444344000425,None,471.5444344000425,None,473.2722496900475,None,473.2722496900475,None,473.2722496900475,None,,,,,,,,,,,,,,009,2022-05-10_10h42.34.396,Main,2022.1.1,61.14861557084941,
positive,negative,1,l,j,,,,,,,,,8,14,158,5,,,,,,,,,main,2,2,1,negative,positive,j,j,1,0.681265200022608,473.27850350015797,474.29101809998974,474.274439800065,None,473.27850350015797,None,473.27850350015797,None,473.27850350015797,None,474.95552199010274,None,474.95552199010274,None,474.95552199010274,None,,,,,,,,,,,,,,009,2022-05-10_10h42.34.396,Main,2022.1.1,61.14861557084941,
negative,positive,1,j,l,,,,,,,,,8,15,159,6,,,,,,,,,main,1,1,1,positive,negative,l,j,0,0.514734499854967,474.9609849001281,475.9717707999516,475.95508139999583,None,474.9609849001281,None,474.9609849001281,None,474.9609849001281,None,476.4717556000687,None,476.4717556000687,None,476.4717556000687,None,,,,,,,,,,,,,,009,2022-05-10_10h42.34.396,Main,2022.1.1,61.14861557084941,
positive,negative,2,l,j,,,,,,,,,8,16,160,14,,,,,,,,,main,2,2,2,negative,positive,j,j,1,0.7721624998375773,477.47771809995174,478.491020699963,478.45775560010225,None,477.47771809995174,None,477.47771809995174,None,477.47771809995174,None,479.2410210899776,None,479.2410210899776,None,479.2410210899776,None,,,,,,,,,,,,,,009,2022-05-10_10h42.34.396,Main,2022.1.1,61.14861557084941,
neutral,negative,1,k,k,,,,,,,,,8,17,161,7,,,,,,,,,main,2,2,1,negative,neutral,k,k,1,0.6289690998382866,479.2444776999764,480.257594200084,480.2410373999737,None,479.2444776999764,None,479.2444776999764,None,479.2444776999764,None,480.8720778899966,None,480.8720778899966,None,480.8720778899966,None,,,,,,,,,,,,,,009,2022-05-10_10h42.34.396,Main,2022.1.1,61.14861557084941,
negative,negative,2,j,l,,,,,,,,,9,0,162,9,,,,,,,,,main,2,2,2,negative,negative,l,l,1,0.7817212000954896,480.87520190002397,481.8742313000839,481.8742313000839,None,480.87520190002397,None,480.87520190002397,None,480.87520190002397,None,482.6553674901603,None,482.6553674901603,None,482.6553674901603,None,,,,,,,,,,,,,,009,2022-05-10_10h42.34.396,Main,2022.1.1,61.14861557084941,
neutral,positive,2,k,k,,,,,,,,,9,1,163,13,,,,,,,,,main,1,1,2,positive,neutral,k,k,1,0.6650207000784576,482.65881880000234,483.67424169997685,483.65751609997824,None,482.65881880000234,None,482.65881880000234,None,482.65881880000234,None,484.3219972900348,None,484.3219972900348,None,484.3219972900348,None,,,,,,,,,,,,,,009,2022-05-10_10h42.34.396,Main,2022.1.1,61.14861557084941,
positive,negative,2,l,j,,,,,,,,,9,2,164,14,,,,,,,,,main,1,1,2,negative,positive,j,j,1,0.7377912001684308,484.32512960000895,485.32423290004954,485.32423290004954,None,484.32512960000895,None,484.32512960000895,None,484.32512960000895,None,486.0614048901713,None,486.0614048901713,None,486.0614048901713,None,,,,,,,,,,,,,,009,2022-05-10_10h42.34.396,Main,2022.1.1,61.14861557084941,
neutral,negative,1,k,k,,,,,,,,,9,3,165,7,,,,,,,,,main,2,2,1,negative,neutral,k,k,1,0.5254108000081033,486.0776021000929,487.08818550012074,487.0548509999644,None,486.0776021000929,None,486.0776021000929,None,486.0776021000929,None,487.5882424901007,None,487.5882424901007,None,487.5882424901007,None,,,,,,,,,,,,,,009,2022-05-10_10h42.34.396,Main,2022.1.1,61.14861557084941,
positive,neutral,1,l,j,,,,,,,,,9,4,166,8,,,,,,,,,main,1,1,1,neutral,positive,j,j,1,0.7654613999184221,487.58817719994113,488.58821570011787,488.58821570011787,None,487.58817719994113,None,487.58817719994113,None,487.58817719994113,None,489.3552337901434,None,489.3552337901434,None,489.3552337901434,None,,,,,,,,,,,,,,009,2022-05-10_10h42.34.396,Main,2022.1.1,61.14861557084941,
neutral,positive,1,k,k,,,,,,,,,9,5,167,4,,,,,,,,,main,1,1,1,positive,neutral,k,k,1,0.6149335000663996,489.3584910000209,490.3575166000519,490.3575166000519,None,489.3584910000209,None,489.3584910000209,None,489.3584910000209,None,490.97186799000485,None,490.97186799000485,None,490.97186799000485,None,,,,,,,,,,,,,,009,2022-05-10_10h42.34.396,Main,2022.1.1,61.14861557084941,
negative,positive,1,j,l,,,,,,,,,9,6,168,6,,,,,,,,,main,2,2,1,positive,negative,l,l,1,0.8144698000978678,490.97582920012064,491.990753200138,491.9741212001536,None,490.97582920012064,None,490.97582920012064,None,490.97582920012064,None,492.788491690089,None,492.788491690089,None,492.788491690089,None,,,,,,,,,,,,,,009,2022-05-10_10h42.34.396,Main,2022.1.1,61.14861557084941,
neutral,negative,2,k,k,,,,,,,,,9,7,169,16,,,,,,,,,main,2,2,2,negative,neutral,k,k,1,0.6658830000087619,492.7945679000113,493.80506639997475,493.7906764000654,None,492.7945679000113,None,492.7945679000113,None,492.7945679000113,None,494.4550855900394,None,494.4550855900394,None,494.4550855900394,None,,,,,,,,,,,,,,009,2022-05-10_10h42.34.396,Main,2022.1.1,61.14861557084941,
positive,negative,1,l,j,,,,,,,,,9,8,170,5,,,,,,,,,main,1,1,1,negative,positive,j,j,1,1.096966499928385,494.45908210007474,495.47388319997117,495.45720970002003,None,494.45908210007474,None,494.45908210007474,None,494.45908210007474,None,496.5546964900801,None,496.5546964900801,None,496.5546964900801,None,,,,,,,,,,,,,,009,2022-05-10_10h42.34.396,Main,2022.1.1,61.14861557084941,
negative,negative,1,j,l,,,,,,,,,9,9,171,0,,,,,,,,,main,2,2,1,negative,negative,l,j,0,0.5689012999646366,496.55463399994187,497.55487799993716,497.55487799993716,None,496.55463399994187,None,496.55463399994187,None,496.55463399994187,None,498.1217285001185,None,498.1217285001185,None,498.1217285001185,None,,,,,,,,,,,,,,009,2022-05-10_10h42.34.396,Main,2022.1.1,61.14861557084941,
positive,positive,1,l,j,,,,,,,,,9,10,172,2,,,,,,,,,main,1,1,1,positive,positive,j,j,1,1.0011674999259412,499.1221895001363,500.12382660014555,500.1072812001221,None,499.1221895001363,None,499.1221895001363,None,499.1221895001363,None,501.1216429900611,None,501.1216429900611,None,501.1216429900611,None,,,,,,,,,,,,,,009,2022-05-10_10h42.34.396,Main,2022.1.1,61.14861557084941,
negative,positive,2,j,l,,,,,,,,,9,11,173,15,,,,,,,,,main,2,2,2,positive,negative,l,l,1,0.7314359000883996,501.1277524000034,502.1404307000339,502.1238865000196,None,501.1277524000034,None,501.1277524000034,None,501.1277524000034,None,502.85492809002756,None,502.85492809002756,None,502.85492809002756,None,,,,,,,,,,,,,,009,2022-05-10_10h42.34.396,Main,2022.1.1,61.14861557084941,
neutral,neutral,1,k,k,,,,,,,,,9,12,174,1,,,,,,,,,main,1,1,1,neutral,neutral,k,k,1,0.514980300096795,502.85810109996237,503.85717880004086,503.85717880004086,None,502.85810109996237,None,502.85810109996237,None,502.85810109996237,None,504.3716411900474,None,504.3716411900474,None,504.3716411900474,None,,,,,,,,,,,,,,009,2022-05-10_10h42.34.396,Main,2022.1.1,61.14861557084941,
positive,positive,2,l,j,,,,,,,,,9,13,175,11,,,,,,,,,main,2,2,2,positive,positive,j,j,1,0.9152779998257756,504.3749240001198,505.3881340001244,505.3737654001452,None,504.3749240001198,None,504.3749240001198,None,504.3749240001198,None,506.2882583900588,None,506.2882583900588,None,506.2882583900588,None,,,,,,,,,,,,,,009,2022-05-10_10h42.34.396,Main,2022.1.1,61.14861557084941,
neutral,neutral,2,k,k,,,,,,,,,9,14,176,10,,,,,,,,,main,2,2,2,neutral,neutral,k,k,1,0.5311817000620067,506.29430130007677,507.30357900005765,507.28741950006224,None,506.29430130007677,None,506.29430130007677,None,506.29430130007677,None,507.82113999014257,None,507.82113999014257,None,507.82113999014257,None,,,,,,,,,,,,,,009,2022-05-10_10h42.34.396,Main,2022.1.1,61.14861557084941,
negative,neutral,1,j,l,,,,,,,,,9,15,177,3,,,,,,,,,main,1,1,1,neutral,negative,l,l,1,0.7151858999859542,507.821070099948,508.8210496001411,508.8210496001411,None,507.821070099948,None,507.821070099948,None,507.821070099948,None,509.53783208995594,None,509.53783208995594,None,509.53783208995594,None,,,,,,,,,,,,,,009,2022-05-10_10h42.34.396,Main,2022.1.1,61.14861557084941,
negative,neutral,2,j,l,,,,,,,,,9,16,178,12,,,,,,,,,main,2,2,2,neutral,negative,l,l,1,0.8817592000123113,509.54338899999857,510.5569482999854,510.5403468001168,None,509.54338899999857,None,509.54338899999857,None,509.54338899999857,None,511.4214076900622,None,511.4214076900622,None,511.4214076900622,None,,,,,,,,,,,,,,009,2022-05-10_10h42.34.396,Main,2022.1.1,61.14861557084941,
positive,neutral,2,l,j,,,,,,,,,9,17,179,17,,,,,,,,,main,2,2,2,neutral,positive,j,j,1,0.7318621999584138,511.42533609992824,512.4402586000506,512.423591400031,None,511.42533609992824,None,511.42533609992824,None,511.42533609992824,None,513.1547144900775,None,513.1547144900775,None,513.1547144900775,None,,,,,,,,,,,,,,009,2022-05-10_10h42.34.396,Main,2022.1.1,61.14861557084941,
neutral,positive,2,k,k,,,,,,,,,10,0,180,13,,,,,,,,,main,2,2,2,positive,neutral,k,k,1,0.632392399944365,513.1713457000442,514.1734911999665,514.156887399964,None,513.1713457000442,None,513.1713457000442,None,513.1713457000442,None,514.7881186900428,None,514.7881186900428,None,514.7881186900428,None,,,,,,,,,,,,,,009,2022-05-10_10h42.34.396,Main,2022.1.1,61.14861557084941,
positive,negative,2,l,j,,,,,,,,,10,1,181,14,,,,,,,,,main,1,1,2,negative,positive,j,j,1,0.865294799907133,514.7939867000096,515.8067757000681,515.7902627000585,None,514.7939867000096,None,514.7939867000096,None,514.7939867000096,None,516.654628390004,None,516.654628390004,None,516.654628390004,None,,,,,,,,,,,,,,009,2022-05-10_10h42.34.396,Main,2022.1.1,61.14861557084941,
neutral,negative,2,k,k,,,,,,,,,10,2,182,16,,,,,,,,,main,1,1,2,negative,neutral,k,l,0,0.5807856000028551,516.6585281000007,517.6708655999973,517.6541967999656,None,516.6585281000007,None,516.6585281000007,None,516.6585281000007,None,518.2375283001456,None,518.2375283001456,None,518.2375283001456,None,,,,,,,,,,,,,,009,2022-05-10_10h42.34.396,Main,2022.1.1,61.14861557084941,
negative,neutral,1,j,l,,,,,,,,,10,3,183,3,,,,,,,,,main,1,1,1,neutral,negative,l,l,1,0.755513499956578,519.237524600001,520.240100099938,520.2235062001273,None,519.237524600001,None,519.237524600001,None,519.237524600001,None,520.9902639901499,None,520.9902639901499,None,520.9902639901499,None,,,,,,,,,,,,,,009,2022-05-10_10h42.34.396,Main,2022.1.1,61.14861557084941,
positive,neutral,2,l,j,,,,,,,,,10,4,184,17,,,,,,,,,main,2,2,2,neutral,positive,j,j,1,0.6478180000558496,520.9940953000914,522.0066955001093,521.9901485000737,None,520.9940953000914,None,520.9940953000914,None,520.9940953000914,None,522.640044990019,None,522.640044990019,None,522.640044990019,None,,,,,,,,,,,,,,009,2022-05-10_10h42.34.396,Main,2022.1.1,61.14861557084941,
neutral,neutral,2,k,k,,,,,,,,,10,5,185,10,,,,,,,,,main,2,2,2,neutral,neutral,k,k,1,0.5629014000296593,522.6432229999918,523.656698100036,523.6401085001417,None,522.6432229999918,None,522.6432229999918,None,522.6432229999918,None,524.2044973899843,None,524.2044973899843,None,524.2044973899843,None,,,,,,,,,,,,,,009,2022-05-10_10h42.34.396,Main,2022.1.1,61.14861557084941,
negative,negative,2,j,l,,,,,,,,,10,6,186,9,,,,,,,,,main,1,1,2,negative,negative,l,l,1,0.6815444999374449,524.2076860000379,525.2046272000298,525.2046272000298,None,524.2076860000379,None,524.2076860000379,None,524.2076860000379,None,525.8877700900426,None,525.8877700900426,None,525.8877700900426,None,,,,,,,,,,,,,,009,2022-05-10_10h42.34.396,Main,2022.1.1,61.14861557084941,
negative,neutral,2,j,l,,,,,,,,,10,7,187,12,,,,,,,,,main,2,2,2,neutral,negative,l,l,1,0.6983008000534028,525.8911764000077,526.9065807999577,526.8900028001517,None,525.8911764000077,None,525.8911764000077,None,525.8911764000077,None,527.5877155901632,None,527.5877155901632,None,527.5877155901632,None,,,,,,,,,,,,,,009,2022-05-10_10h42.34.396,Main,2022.1.1,61.14861557084941,
positive,positive,2,l,j,,,,,,,,,10,8,188,11,,,,,,,,,main,1,1,2,positive,positive,j,j,1,0.9478551999200135,527.5934987999499,528.6039658000227,528.587291300064,None,527.5934987999499,None,527.5934987999499,None,527.5934987999499,None,529.537325989944,None,529.537325989944,None,529.537325989944,None,,,,,,,,,,,,,,009,2022-05-10_10h42.34.396,Main,2022.1.1,61.14861557084941,
neutral,positive,1,k,k,,,,,,,,,10,9,189,4,,,,,,,,,main,2,2,1,positive,neutral,k,k,1,0.5490133001003414,529.537292700028,530.5373813000042,530.5373813000042,None,529.537292700028,None,529.537292700028,None,529.537292700028,None,531.0876940901159,None,531.0876940901159,None,531.0876940901159,None,,,,,,,,,,,,,,009,2022-05-10_10h42.34.396,Main,2022.1.1,61.14861557084941,
negative,negative,1,j,l,,,,,,,,,10,10,190,0,,,,,,,,,main,1,1,1,negative,negative,l,l,1,0.7489336000289768,531.0910694000777,532.1045313000213,532.089914200129,None,531.0910694000777,None,531.0910694000777,None,531.0910694000777,None,532.8380208900431,None,532.8380208900431,None,532.8380208900431,None,,,,,,,,,,,,,,009,2022-05-10_10h42.34.396,Main,2022.1.1,61.14861557084941,
positive,positive,1,l,j,,,,,,,,,10,11,191,2,,,,,,,,,main,1,1,1,positive,positive,j,j,1,0.780870100017637,532.856826600153,533.8565261999611,533.8399110001046,None,532.856826600153,None,532.856826600153,None,532.856826600153,None,534.620921590156,None,534.620921590156,None,534.620921590156,None,,,,,,,,,,,,,,009,2022-05-10_10h42.34.396,Main,2022.1.1,61.14861557084941,
negative,positive,2,j,l,,,,,,,,,10,12,192,15,,,,,,,,,main,2,2,2,positive,negative,l,l,1,0.5985959998797625,534.6239974000491,535.6231933000963,535.6231933000963,None,534.6239974000491,None,534.6239974000491,None,534.6239974000491,None,536.2208709900966,None,536.2208709900966,None,536.2208709900966,None,,,,,,,,,,,,,,009,2022-05-10_10h42.34.396,Main,2022.1.1,61.14861557084941,
positive,neutral,1,l,j,,,,,,,,,10,13,193,8,,,,,,,,,main,1,1,1,neutral,positive,j,j,1,0.631373800104484,536.2243482000194,537.2379706001375,537.2210770000238,None,536.2243482000194,None,536.2243482000194,None,536.2243482000194,None,537.8542059900007,None,537.8542059900007,None,537.8542059900007,None,,,,,,,,,,,,,,009,2022-05-10_10h42.34.396,Main,2022.1.1,61.14861557084941,
negative,positive,1,j,l,,,,,,,,,10,14,194,6,,,,,,,,,main,2,2,1,positive,negative,l,l,1,0.698249600129202,537.8605182999745,538.8704389000777,538.8540521999821,None,537.8605182999745,None,537.8605182999745,None,537.8605182999745,None,539.5537923900644,None,539.5537923900644,None,539.5537923900644,None,,,,,,,,,,,,,,009,2022-05-10_10h42.34.396,Main,2022.1.1,61.14861557084941,
neutral,negative,1,k,k,,,,,,,,,10,15,195,7,,,,,,,,,main,1,1,1,negative,neutral,k,k,1,0.5482950999867171,539.5537582000252,540.5537155000493,540.5537155000493,None,539.5537582000252,None,539.5537582000252,None,539.5537582000252,None,541.1038475900656,None,541.1038475900656,None,541.1038475900656,None,,,,,,,,,,,,,,009,2022-05-10_10h42.34.396,Main,2022.1.1,61.14861557084941,
positive,negative,1,l,j,,,,,,,,,10,16,196,5,,,,,,,,,main,2,2,1,negative,positive,j,j,1,0.6321037001907825,541.1071020001546,542.1064385001082,542.1064385001082,None,541.1071020001546,None,541.1071020001546,None,541.1071020001546,None,542.7374129900942,None,542.7374129900942,None,542.7374129900942,None,,,,,,,,,,,,,,009,2022-05-10_10h42.34.396,Main,2022.1.1,61.14861557084941,
neutral,neutral,1,k,k,,,,,,,,,10,17,197,1,,,,,,,,,main,2,2,1,neutral,neutral,k,k,1,0.531350800069049,542.7427525001112,543.756587699987,543.739634900121,None,542.7427525001112,None,542.7427525001112,None,542.7427525001112,None,544.2705148901092,None,544.2705148901092,None,544.2705148901092,None,,,,,,,,,,,,,,009,2022-05-10_10h42.34.396,Main,2022.1.1,61.14861557084941,
neutral,positive,2,k,k,,,,,,,,,11,0,198,13,,,,,,,,,main,1,1,2,positive,neutral,k,k,1,0.84774210001342,544.2873669001274,545.2895837000106,545.2711251999717,None,544.2873669001274,None,544.2873669001274,None,544.2873669001274,None,546.1206805899507,None,546.1206805899507,None,546.1206805899507,None,,,,,,,,,,,,,,009,2022-05-10_10h42.34.396,Main,2022.1.1,61.14861557084941,
negative,neutral,2,j,l,,,,,,,,,11,1,199,12,,,,,,,,,main,2,2,2,neutral,negative,l,l,1,0.6819585999473929,546.1262427000329,547.1395239999983,547.1228935001418,None,546.1262427000329,None,546.1262427000329,None,546.1262427000329,None,547.8040720899822,None,547.8040720899822,None,547.8040720899822,None,,,,,,,,,,,,,,009,2022-05-10_10h42.34.396,Main,2022.1.1,61.14861557084941,
negative,positive,1,j,l,,,,,,,,,11,2,200,6,,,,,,,,,main,1,1,1,positive,negative,l,l,1,0.7724766999017447,547.8098077999894,548.8227737001143,548.8061589000281,None,547.8098077999894,None,547.8098077999894,None,547.8098077999894,None,549.5780910901027,None,549.5780910901027,None,549.5780910901027,None,,,,,,,,,,,,,,009,2022-05-10_10h42.34.396,Main,2022.1.1,61.14861557084941,
positive,negative,1,l,j,,,,,,,,,11,3,201,5,,,,,,,,,main,2,2,1,negative,positive,j,l,0,0.6237007998861372,549.5940054999664,550.603522800142,550.5704038001131,None,549.5940054999664,None,549.5940054999664,None,549.5940054999664,None,551.2035402001347,None,551.2035402001347,None,551.2035402001347,None,,,,,,,,,,,,,,009,2022-05-10_10h42.34.396,Main,2022.1.1,61.14861557084941,
positive,neutral,2,l,j,,,,,,,,,11,4,202,17,,,,,,,,,main,2,2,2,neutral,positive,j,j,1,0.6863283000420779,552.208805100061,553.2227142001502,553.1894680999685,None,552.208805100061,None,552.208805100061,None,552.208805100061,None,553.8872767901281,None,553.8872767901281,None,553.8872767901281,None,,,,,,,,,,,,,,009,2022-05-10_10h42.34.396,Main,2022.1.1,61.14861557084941,
neutral,negative,2,k,k,,,,,,,,,11,5,203,16,,,,,,,,,main,1,1,2,negative,neutral,k,k,1,0.714549400145188,553.8928137000185,554.9060635000933,554.8894144999795,None,553.8928137000185,None,553.8928137000185,None,553.8928137000185,None,555.6038231901126,None,555.6038231901126,None,555.6038231901126,None,,,,,,,,,,,,,,009,2022-05-10_10h42.34.396,Main,2022.1.1,61.14861557084941,
neutral,positive,1,k,k,,,,,,,,,11,6,204,4,,,,,,,,,main,2,2,1,positive,neutral,k,k,1,0.5352877001278102,555.6089006999973,556.6226791001391,556.5893266999628,None,555.6089006999973,None,555.6089006999973,None,555.6089006999973,None,557.139346889942,None,557.139346889942,None,557.139346889942,None,,,,,,,,,,,,,,009,2022-05-10_10h42.34.396,Main,2022.1.1,61.14861557084941,
neutral,neutral,1,k,k,,,,,,,,,11,7,205,1,,,,,,,,,main,1,1,1,neutral,neutral,k,k,1,0.5114505998790264,557.1433594000991,558.1559778000228,558.1393347999547,None,557.1433594000991,None,557.1433594000991,None,557.1433594000991,None,558.6537347899517,None,558.6537347899517,None,558.6537347899517,None,,,,,,,,,,,,,,009,2022-05-10_10h42.34.396,Main,2022.1.1,61.14861557084941,
negative,positive,2,j,l,,,,,,,,,11,8,206,15,,,,,,,,,main,2,2,2,positive,negative,l,l,1,0.731939900200814,558.6569046999793,559.6559810999315,559.6559810999315,None,558.6569046999793,None,558.6569046999793,None,558.6569046999793,None,560.386928290152,None,560.386928290152,None,560.386928290152,None,,,,,,,,,,,,,,009,2022-05-10_10h42.34.396,Main,2022.1.1,61.14861557084941,
negative,neutral,1,j,l,,,,,,,,,11,9,207,3,,,,,,,,,main,1,1,1,neutral,negative,l,l,1,0.9649145998992026,560.3868909000885,561.3866282999516,561.3866282999516,None,560.3868909000885,None,560.3868909000885,None,560.3868909000885,None,562.3533876899397,None,562.3533876899397,None,562.3533876899397,None,,,,,,,,,,,,,,009,2022-05-10_10h42.34.396,Main,2022.1.1,61.14861557084941,
positive,positive,2,l,j,,,,,,,,,11,10,208,11,,,,,,,,,main,1,1,2,positive,positive,j,j,1,0.6671033999882638,562.3590019999538,563.3724730000831,563.3558501000516,None,562.3590019999538,None,562.3590019999538,None,562.3590019999538,None,564.0225186900003,None,564.0225186900003,None,564.0225186900003,None,,,,,,,,,,,,,,009,2022-05-10_10h42.34.396,Main,2022.1.1,61.14861557084941,
positive,negative,2,l,j,,,,,,,,,11,11,209,14,,,,,,,,,main,2,2,2,negative,positive,j,j,1,0.6463101000990719,564.0261125001125,565.0391543000005,565.0224938001484,None,564.0261125001125,None,564.0261125001125,None,564.0261125001125,None,565.670256490144,None,565.670256490144,None,565.670256490144,None,,,,,,,,,,,,,,009,2022-05-10_10h42.34.396,Main,2022.1.1,61.14861557084941,
neutral,negative,1,k,k,,,,,,,,,11,12,210,7,,,,,,,,,main,2,2,1,negative,neutral,k,k,1,0.6152197001501918,565.6734104000498,566.6723885000683,566.6558201001026,None,565.6734104000498,None,565.6734104000498,None,565.6734104000498,None,567.286833690037,None,567.286833690037,None,567.286833690037,None,,,,,,,,,,,,,,009,2022-05-10_10h42.34.396,Main,2022.1.1,61.14861557084941,
negative,negative,1,j,l,,,,,,,,,11,13,211,0,,,,,,,,,main,2,2,1,negative,negative,l,l,1,0.7817591999191791,567.2930241001304,568.3057186999358,568.2890157001093,None,567.2930241001304,None,567.2930241001304,None,567.2930241001304,None,569.0701677899575,None,569.0701677899575,None,569.0701677899575,None,,,,,,,,,,,,,,009,2022-05-10_10h42.34.396,Main,2022.1.1,61.14861557084941,
positive,positive,1,l,j,,,,,,,,,11,14,212,2,,,,,,,,,main,1,1,1,positive,positive,j,j,1,0.6313460001256317,569.0758726000786,570.0889749999624,570.0723015000112,None,569.0758726000786,None,569.0758726000786,None,569.0758726000786,None,570.7034673900577,None,570.7034673900577,None,570.7034673900577,None,,,,,,,,,,,,,,009,2022-05-10_10h42.34.396,Main,2022.1.1,61.14861557084941,
positive,neutral,1,l,j,,,,,,,,,11,15,213,8,,,,,,,,,main,1,1,1,neutral,positive,j,j,1,0.5807120001409203,570.7095872000791,571.719720199937,571.7030553999357,None,570.7095872000791,None,570.7095872000791,None,570.7095872000791,None,572.2864219900454,None,572.2864219900454,None,572.2864219900454,None,,,,,,,,,,,,,,009,2022-05-10_10h42.34.396,Main,2022.1.1,61.14861557084941,
neutral,neutral,2,k,k,,,,,,,,,11,16,214,10,,,,,,,,,main,1,1,2,neutral,neutral,k,k,1,0.6983592000324279,572.2863652000669,573.2863934999332,573.2863934999332,None,572.2863652000669,None,572.2863652000669,None,572.2863652000669,None,573.9864449899411,None,573.9864449899411,None,573.9864449899411,None,,,,,,,,,,,,,,009,2022-05-10_10h42.34.396,Main,2022.1.1,61.14861557084941,
negative,negative,2,j,l,,,,,,,,,11,17,215,9,,,,,,,,,main,2,2,2,negative,negative,l,l,1,0.666632300009951,573.9917806999292,575.0056251999922,574.9723239000887,None,573.9917806999292,None,573.9917806999292,None,573.9917806999292,None,575.6534233901417,None,575.6534233901417,None,575.6534233901417,None,,,,,,,,,,,,,,009,2022-05-10_10h42.34.396,Main,2022.1.1,61.14861557084941,
negative,neutral,2,j,l,,,,,,,,,12,0,216,12,,,,,,,,,main,1,1,2,neutral,negative,l,j,0,0.5641241001430899,575.6595839001238,576.6702958000824,576.6535933001433,None,575.6595839001238,None,575.6595839001238,None,575.6595839001238,None,577.2226028000005,None,577.2226028000005,None,577.2226028000005,None,,,,,,,,,,,,,,009,2022-05-10_10h42.34.396,Main,2022.1.1,61.14861557084941,
negative,negative,2,j,l,,,,,,,,,12,1,217,9,,,,,,,,,main,1,1,2,negative,negative,l,l,1,0.7173139001242816,578.2388919000514,579.2559142000973,579.2200881000608,None,578.2388919000514,None,578.2388919000514,None,578.2388919000514,None,579.9533155900659,None,579.9533155900659,None,579.9533155900659,None,,,,,,,,,,,,,,009,2022-05-10_10h42.34.396,Main,2022.1.1,61.14861557084941,
neutral,neutral,2,k,k,,,,,,,,,12,2,218,10,,,,,,,,,main,2,2,2,neutral,neutral,k,k,1,0.6139422999694943,579.95947110001,580.9721179001499,580.9555886001326,None,579.95947110001,None,579.95947110001,None,579.95947110001,None,581.5692864901154,None,581.5692864901154,None,581.5692864901154,None,,,,,,,,,,,,,,009,2022-05-10_10h42.34.396,Main,2022.1.1,61.14861557084941,
positive,negative,1,l,j,,,,,,,,,12,3,219,5,,,,,,,,,main,1,1,1,negative,positive,j,j,1,0.865294500021264,581.5806714000646,582.586148600094,582.5694796000607,None,581.5806714000646,None,581.5806714000646,None,581.5806714000646,None,583.436197489989,None,583.436197489989,None,583.436197489989,None,,,,,,,,,,,,,,009,2022-05-10_10h42.34.396,Main,2022.1.1,61.14861557084941,
negative,positive,1,j,l,,,,,,,,,12,4,220,6,,,,,,,,,main,2,2,1,positive,negative,l,l,1,0.7325080998707563,583.4361360999756,584.4386424000841,584.4221725000534,None,583.4361360999756,None,583.4361360999756,None,583.4361360999756,None,585.1698725901311,None,585.1698725901311,None,585.1698725901311,None,,,,,,,,,,,,,,009,2022-05-10_10h42.34.396,Main,2022.1.1,61.14861557084941,
positive,neutral,1,l,j,,,,,,,,,12,5,221,8,,,,,,,,,main,2,2,1,neutral,positive,j,j,1,0.7148897999431938,585.173397900071,586.1886708000675,586.1720849999692,None,585.173397900071,None,585.173397900071,None,585.173397900071,None,586.8864576900611,None,586.8864576900611,None,586.8864576900611,None,,,,,,,,,,,,,,009,2022-05-10_10h42.34.396,Main,2022.1.1,61.14861557084941,
neutral,negative,1,k,k,,,,,,,,,12,6,222,7,,,,,,,,,main,1,1,1,negative,neutral,k,k,1,0.6515833002049476,586.8901520001236,587.9051858000457,587.8887056000531,None,586.8901520001236,None,586.8901520001236,None,586.8901520001236,None,588.5386637901189,None,588.5386637901189,None,588.5386637901189,None,,,,,,,,,,,,,,009,2022-05-10_10h42.34.396,Main,2022.1.1,61.14861557084941,
negative,negative,1,j,l,,,,,,,,,12,7,223,0,,,,,,,,,main,1,1,1,negative,negative,l,l,1,0.6950767000671476,588.5425716000609,589.5552632000763,589.5386316999793,None,588.5425716000609,None,588.5425716000609,None,588.5425716000609,None,590.2363820900442,None,590.2363820900442,None,590.2363820900442,None,,,,,,,,,,,,,,009,2022-05-10_10h42.34.396,Main,2022.1.1,61.14861557084941,
