target,distractor,set,ans1,ans2,rep_loop2.thisRepN,rep_loop2.thisTrialN,rep_loop2.thisN,rep_loop2.thisIndex,flanker_prac_loop.thisRepN,flanker_prac_loop.thisTrialN,flanker_prac_loop.thisN,flanker_prac_loop.thisIndex,flanker_main_loop.thisRepN,flanker_main_loop.thisTrialN,flanker_main_loop.thisN,flanker_main_loop.thisIndex,fl_inst_resp.keys,fl_inst_resp.rt,sound_1.started,sound_1.stopped,image_4.started,image_4.stopped,back_2.started,back_2.stopped,main_prac,fl_cold,fl_colt,fl_set,fl_dcond,fl_tcond,fl_ans,fl_res,fl_corr,fl_rt,fix_fl.started,fix_fl.stopped,targ.started,targ.stopped,j_button.started,j_button.stopped,k_button.started,k_button.stopped,l_button.started,l_button.stopped,j_button2.started,j_button2.stopped,k_button2.started,k_button2.stopped,l_button2.started,l_button2.stopped,mainback.started,mainback.stopped,key_resp.keys,key_resp.rt,mouse_6.x,mouse_6.y,mouse_6.leftButton,mouse_6.midButton,mouse_6.rightButton,mouse_6.started,mouse_6.stopped,text_2.started,text_2.stopped,id*,date,expName,psychopyVersion,frameRate,
,,,,,0,0,0,0,,,,,,,,,space,56.72480169986375,19.998663110053165,None,76.74980670004152,None,,,,,,,,,,,,,,,,,,,,,,,,,,,,,,,,,,,,,,,,,,010,2022-05-10_19h32.13.107,Main,2022.1.1,61.10243462420419,
positive,neutral,1,l,j,,,,,0,0,0,8,,,,,,,,,,,84.38303659996018,None,prac,2,2,1,neutral,positive,l,l,1,8.172281800070778,86.39291490009055,87.39953249995597,87.3663504999131,None,86.39291490009055,None,86.39291490009055,None,86.39291490009055,None,95.56344729987904,None,95.56344729987904,None,95.56344729987904,None,,,,,,,,,,,,,,010,2022-05-10_19h32.13.107,Main,2022.1.1,61.10243462420419,
positive,negative,2,l,j,,,,,0,1,1,14,,,,,,,,,,,,,prac,2,2,2,negative,positive,l,l,1,0.9860260998830199,96.56998390005901,97.5826032999903,97.5660518000368,None,96.56998390005901,None,96.56998390005901,None,96.56998390005901,None,98.54677710994147,None,98.54677710994147,None,98.54677710994147,None,,,,,,,,,,,,,,010,2022-05-10_19h32.13.107,Main,2022.1.1,61.10243462420419,
negative,negative,1,j,l,,,,,0,2,2,0,,,,,,,,,,,,,prac,2,2,1,negative,negative,j,j,1,1.2484779998194426,98.55315739987418,99.56592119997367,99.54938169987872,None,98.55315739987418,None,98.55315739987418,None,98.55315739987418,None,100.79699081005529,None,100.79699081005529,None,100.79699081005529,None,,,,,,,,,,,,,,010,2022-05-10_19h32.13.107,Main,2022.1.1,61.10243462420419,
neutral,positive,2,k,k,,,,,0,3,3,13,,,,,,,,,,,,,prac,2,2,2,positive,neutral,k,k,1,0.8819065999705344,100.80026899999939,101.79939619987272,101.79939619987272,None,100.80026899999939,None,100.80026899999939,None,100.80026899999939,None,102.68032011003234,None,102.68032011003234,None,102.68032011003234,None,,,,,,,,,,,,,,010,2022-05-10_19h32.13.107,Main,2022.1.1,61.10243462420419,
negative,neutral,1,j,l,,,,,0,4,4,3,,,,,,,,,,,,,prac,2,2,1,neutral,negative,j,j,1,1.0652958999853581,102.68424399988726,103.69913369999267,103.66357710002922,None,102.68424399988726,None,102.68424399988726,None,102.68424399988726,None,104.74691101009958,None,104.74691101009958,None,104.74691101009958,None,,,,,,,,,,,,,,010,2022-05-10_19h32.13.107,Main,2022.1.1,61.10243462420419,
negative,neutral,2,j,l,,,,,0,5,5,12,,,,,,,,,,,,,prac,1,1,2,neutral,negative,j,j,1,0.8649163998197764,104.74996470008045,105.7632353999652,105.74656390002929,None,104.74996470008045,None,104.74996470008045,None,104.74996470008045,None,106.61321610989981,None,106.61321610989981,None,106.61321610989981,None,,,,,,,,,,,,,,010,2022-05-10_19h32.13.107,Main,2022.1.1,61.10243462420419,
positive,neutral,2,l,j,,,,,0,6,6,17,,,,,,,,,,,,,prac,2,2,2,neutral,positive,l,j,0,0.6680215999949723,106.61322310008109,107.61324739991687,107.61324739991687,None,106.61322310008109,None,106.61322310008109,None,106.61322310008109,None,108.27995150000788,None,108.27995150000788,None,108.27995150000788,None,,,,,,,,,,,,,,010,2022-05-10_19h32.13.107,Main,2022.1.1,61.10243462420419,
neutral,negative,1,k,k,,,,,0,7,7,7,,,,,,,,,,,,,prac,2,2,1,negative,neutral,k,k,1,0.8202217998914421,109.28049869998358,110.28233990003355,110.26577649987303,None,109.28049869998358,None,109.28049869998358,None,109.28049869998358,None,111.09903821009212,None,111.09903821009212,None,111.09903821009212,None,,,,,,,,,,,,,,010,2022-05-10_19h32.13.107,Main,2022.1.1,61.10243462420419,
neutral,negative,2,k,k,,,,,0,8,8,16,,,,,,,,,,,,,prac,1,1,2,negative,neutral,k,k,1,0.6807972998358309,111.10289709991775,112.11561740003526,112.09911189996637,None,111.10289709991775,None,111.10289709991775,None,111.10289709991775,None,112.7823748100549,None,112.7823748100549,None,112.7823748100549,None,,,,,,,,,,,,,,010,2022-05-10_19h32.13.107,Main,2022.1.1,61.10243462420419,
negative,positive,2,j,l,,,,,0,9,9,15,,,,,,,,,,,,,prac,1,1,2,positive,negative,j,j,1,0.8963963999412954,112.78624819987454,113.79893859988078,113.78233240009286,None,112.78624819987454,None,112.78624819987454,None,112.78624819987454,None,114.68006590995938,None,114.68006590995938,None,114.68006590995938,None,,,,,,,,,,,,,,010,2022-05-10_19h32.13.107,Main,2022.1.1,61.10243462420419,
negative,positive,1,j,l,,,,,0,10,10,6,,,,,,,,,,,,,prac,2,2,1,positive,negative,j,j,1,1.0651030999142677,114.68547090003267,115.69635850004852,115.67969279992394,None,114.68547090003267,None,114.68547090003267,None,114.68547090003267,None,116.74634060994723,None,116.74634060994723,None,116.74634060994723,None,,,,,,,,,,,,,,010,2022-05-10_19h32.13.107,Main,2022.1.1,61.10243462420419,
neutral,neutral,1,k,k,,,,,0,11,11,1,,,,,,,,,,,,,prac,2,2,1,neutral,neutral,k,k,1,0.9989590998739004,116.74641759996302,117.7463388000615,117.7463388000615,None,116.74641759996302,None,116.74641759996302,None,116.74641759996302,None,118.74676491003484,None,118.74676491003484,None,118.74676491003484,None,,,,,,,,,,,,,,010,2022-05-10_19h32.13.107,Main,2022.1.1,61.10243462420419,
negative,negative,2,j,l,,,,,0,12,12,9,,,,,,,,,,,,,prac,2,2,2,negative,negative,j,j,1,0.7819302000571042,118.75289250002243,119.76550090010278,119.74894060008228,None,118.75289250002243,None,118.75289250002243,None,118.75289250002243,None,120.5299645099789,None,120.5299645099789,None,120.5299645099789,None,,,,,,,,,,,,,,010,2022-05-10_19h32.13.107,Main,2022.1.1,61.10243462420419,
positive,positive,1,l,j,,,,,0,13,13,2,,,,,,,,,,,,,prac,2,2,1,positive,positive,l,l,1,0.8512981999665499,120.53569329995662,121.54884759988636,121.51548229996115,None,120.53569329995662,None,120.53569329995662,None,120.53569329995662,None,122.38208370991052,None,122.38208370991052,None,122.38208370991052,None,,,,,,,,,,,,,,010,2022-05-10_19h32.13.107,Main,2022.1.1,61.10243462420419,
positive,positive,2,l,j,,,,,0,14,14,11,,,,,,,,,,,,,prac,1,1,2,positive,positive,l,l,1,0.9295869001653045,122.38537629996426,123.39874020009302,123.38216789998114,None,122.38537629996426,None,122.38537629996426,None,122.38537629996426,None,124.31316861007363,None,124.31316861007363,None,124.31316861007363,None,,,,,,,,,,,,,,010,2022-05-10_19h32.13.107,Main,2022.1.1,61.10243462420419,
neutral,neutral,2,k,k,,,,,0,15,15,10,,,,,,,,,,,,,prac,1,1,2,neutral,neutral,k,k,1,0.9018832000438124,124.31632039998658,125.31546539999545,125.31546539999545,None,124.31632039998658,None,124.31632039998658,None,124.31632039998658,None,126.21550641008653,None,126.21550641008653,None,126.21550641008653,None,,,,,,,,,,,,,,010,2022-05-10_19h32.13.107,Main,2022.1.1,61.10243462420419,
positive,negative,1,l,j,,,,,0,16,16,5,,,,,,,,,,,,,prac,2,2,1,negative,positive,l,l,1,1.4119667001068592,126.21928739990108,127.22943400009535,127.21277059987187,None,126.21928739990108,None,126.21928739990108,None,126.21928739990108,None,128.62947800997645,None,128.62947800997645,None,128.62947800997645,None,,,,,,,,,,,,,,010,2022-05-10_19h32.13.107,Main,2022.1.1,61.10243462420419,
neutral,positive,1,k,k,,,,,0,17,17,4,,,,,,,,,,,,,prac,2,2,1,positive,neutral,k,k,1,0.784228099975735,128.63238979992457,129.63200260000303,129.6153517998755,None,128.63238979992457,None,128.63238979992457,None,128.63238979992457,None,130.41527280989104,None,130.41527280989104,None,130.41527280989104,None,,,,,,,,,,,,,,010,2022-05-10_19h32.13.107,Main,2022.1.1,61.10243462420419,
negative,neutral,2,j,l,,,,,1,0,18,12,,,,,,,,,,,,,prac,1,1,2,neutral,negative,j,j,1,0.6785250999964774,130.41968950000592,131.43201730004512,131.41541190003045,None,130.41968950000592,None,130.41968950000592,None,130.41968950000592,None,132.09634960987606,None,132.09634960987606,None,132.09634960987606,None,,,,,,,,,,,,,,010,2022-05-10_19h32.13.107,Main,2022.1.1,61.10243462420419,
negative,positive,1,j,l,,,,,1,1,19,6,,,,,,,,,,,,,prac,1,1,1,positive,negative,j,j,1,0.5487643999513239,132.09918790007941,133.09853249997832,133.08194170007482,None,132.09918790007941,None,132.09918790007941,None,132.09918790007941,None,133.64633730994538,None,133.64633730994538,None,133.64633730994538,None,,,,,,,,,,,,,,010,2022-05-10_19h32.13.107,Main,2022.1.1,61.10243462420419,
neutral,positive,1,k,k,,,,,1,2,20,4,,,,,,,,,,,,,prac,1,1,1,positive,neutral,k,k,1,0.6154670999385417,133.6490909999702,134.64846819988452,134.63196379994042,None,133.6490909999702,None,133.6490909999702,None,133.6490909999702,None,135.2629315099679,None,135.2629315099679,None,135.2629315099679,None,,,,,,,,,,,,,,010,2022-05-10_19h32.13.107,Main,2022.1.1,61.10243462420419,
positive,positive,2,l,j,,,,,1,3,21,11,,,,,,,,,,,,,prac,2,2,2,positive,positive,l,l,1,0.731888499809429,135.26584889995866,136.26515530003235,136.24848369997926,None,135.26584889995866,None,135.26584889995866,None,135.26584889995866,None,136.99590580989607,None,136.99590580989607,None,136.99590580989607,None,,,,,,,,,,,,,,010,2022-05-10_19h32.13.107,Main,2022.1.1,61.10243462420419,
negative,neutral,1,j,l,,,,,1,4,22,3,,,,,,,,,,,,,prac,2,2,1,neutral,negative,j,j,1,0.7319924000184983,136.99591540009715,137.99589130003005,137.99589130003005,None,136.99591540009715,None,136.99591540009715,None,136.99591540009715,None,138.72926721009426,None,138.72926721009426,None,138.72926721009426,None,,,,,,,,,,,,,,010,2022-05-10_19h32.13.107,Main,2022.1.1,61.10243462420419,
negative,positive,2,j,l,,,,,1,5,23,15,,,,,,,,,,,,,prac,1,1,2,positive,negative,j,j,1,0.6510614999569952,138.73231430002488,139.7317502000369,139.7151170000434,None,138.73231430002488,None,138.73231430002488,None,138.73231430002488,None,140.381808709912,None,140.381808709912,None,140.381808709912,None,,,,,,,,,,,,,,010,2022-05-10_19h32.13.107,Main,2022.1.1,61.10243462420419,
neutral,negative,1,k,k,,,,,1,6,24,7,,,,,,,,,,,,,prac,2,2,1,negative,neutral,k,k,1,0.6631649001501501,140.3849879000336,141.39837400009856,141.3817859000992,None,140.3849879000336,None,140.3849879000336,None,140.3849879000336,None,142.04615020994098,None,142.04615020994098,None,142.04615020994098,None,,,,,,,,,,,,,,010,2022-05-10_19h32.13.107,Main,2022.1.1,61.10243462420419,
negative,negative,2,j,l,,,,,1,7,25,9,,,,,,,,,,,,,prac,2,2,2,negative,negative,j,j,1,0.798467299900949,142.05160779994912,143.06495049991645,143.03174349991605,None,142.05160779994912,None,142.05160779994912,None,142.05160779994912,None,143.84610241008923,None,143.84610241008923,None,143.84610241008923,None,,,,,,,,,,,,,,010,2022-05-10_19h32.13.107,Main,2022.1.1,61.10243462420419,
neutral,positive,2,k,k,,,,,1,8,26,13,,,,,,,,,,,,,prac,1,1,2,positive,neutral,k,k,1,0.7320598000660539,143.8495368999429,144.86500860005617,144.84836379997432,None,143.8495368999429,None,143.8495368999429,None,143.8495368999429,None,145.57940721008927,None,145.57940721008927,None,145.57940721008927,None,,,,,,,,,,,,,,010,2022-05-10_19h32.13.107,Main,2022.1.1,61.10243462420419,
positive,neutral,2,l,j,,,,,1,9,27,17,,,,,,,,,,,,,prac,2,2,2,neutral,positive,l,l,1,0.6983018999453634,145.5825924000237,146.58169479994103,146.58169479994103,None,145.5825924000237,None,145.5825924000237,None,145.5825924000237,None,147.27901041004807,None,147.27901041004807,None,147.27901041004807,None,,,,,,,,,,,,,,010,2022-05-10_19h32.13.107,Main,2022.1.1,61.10243462420419,
positive,positive,1,l,j,,,,,1,10,28,2,,,,,,,,,,,,,prac,1,1,1,positive,positive,l,l,1,0.9490820001810789,147.27900619991124,148.27899500005879,148.27899500005879,None,147.27900619991124,None,147.27900619991124,None,147.27900619991124,None,149.22899680989795,None,149.22899680989795,None,149.22899680989795,None,,,,,,,,,,,,,,010,2022-05-10_19h32.13.107,Main,2022.1.1,61.10243462420419,
neutral,neutral,2,k,k,,,,,1,11,29,10,,,,,,,,,,,,,prac,2,2,2,neutral,neutral,k,k,1,0.7485944000072777,149.2294355998747,150.22899869992398,150.22899869992398,None,149.2294355998747,None,149.2294355998747,None,149.2294355998747,None,150.97936951005832,None,150.97936951005832,None,150.97936951005832,None,,,,,,,,,,,,,,010,2022-05-10_19h32.13.107,Main,2022.1.1,61.10243462420419,
neutral,neutral,1,k,k,,,,,1,12,30,1,,,,,,,,,,,,,prac,2,2,1,neutral,neutral,k,k,1,0.8320098000112921,150.98229350009933,151.98148870002478,151.964925999986,None,150.98229350009933,None,150.98229350009933,None,150.98229350009933,None,152.81260151006282,None,152.81260151006282,None,152.81260151006282,None,,,,,,,,,,,,,,010,2022-05-10_19h32.13.107,Main,2022.1.1,61.10243462420419,
negative,negative,1,j,l,,,,,1,13,31,0,,,,,,,,,,,,,prac,2,2,1,negative,negative,j,j,1,0.7486711998935789,152.81558869988658,153.81479349988513,153.79816169990227,None,152.81558869988658,None,152.81558869988658,None,152.81558869988658,None,154.56255370993168,None,154.56255370993168,None,154.56255370993168,None,,,,,,,,,,,,,,010,2022-05-10_19h32.13.107,Main,2022.1.1,61.10243462420419,
positive,negative,2,l,j,,,,,1,14,32,14,,,,,,,,,,,,,prac,2,2,2,negative,positive,l,l,1,0.8823031999636441,154.56767640006728,155.58149020001292,155.54824799997732,None,154.56767640006728,None,154.56767640006728,None,154.56767640006728,None,156.44583270987496,None,156.44583270987496,None,156.44583270987496,None,,,,,,,,,,,,,,010,2022-05-10_19h32.13.107,Main,2022.1.1,61.10243462420419,
positive,neutral,1,l,j,,,,,1,15,33,8,,,,,,,,,,,,,prac,1,1,1,neutral,positive,l,l,1,0.8317666999064386,156.4491506998893,157.4647333000321,157.44807909987867,None,156.4491506998893,None,156.4491506998893,None,156.4491506998893,None,158.27913870997727,None,158.27913870997727,None,158.27913870997727,None,,,,,,,,,,,,,,010,2022-05-10_19h32.13.107,Main,2022.1.1,61.10243462420419,
neutral,negative,2,k,k,,,,,1,16,34,16,,,,,,,,,,,,,prac,1,1,2,negative,neutral,k,k,1,0.7816599998623133,158.28213960002176,159.29541820008308,159.27875810000114,None,158.28213960002176,None,158.28213960002176,None,158.28213960002176,None,160.06235011001118,None,160.06235011001118,None,160.06235011001118,None,,,,,,,,,,,,,,010,2022-05-10_19h32.13.107,Main,2022.1.1,61.10243462420419,
positive,negative,1,l,j,,,,,1,17,35,5,,,,,,,,,,,,,prac,2,2,1,negative,positive,l,l,1,0.8655890000518411,160.0624776999466,161.062099999981,161.062099999981,None,160.0624776999466,None,160.0624776999466,None,160.0624776999466,None,161.92875430998393,None,161.92875430998393,None,161.92875430998393,None,,,,,,,,,,,,,,010,2022-05-10_19h32.13.107,Main,2022.1.1,61.10243462420419,
,,,,,,,,,,,,,,,,,,,,,,,,,,,,,,,,,,,,,,,,,,,,,,,,,,,161.928772599902,None,space,7.011382000055164,,,,,,,,,,010,2022-05-10_19h32.13.107,Main,2022.1.1,61.10243462420419,
,,,,,,,,,,,,,,,,,,,,,,,,,,,,,,,,,,,,,,,,,,,,,,,,,,,,,,,-0.050925925,-0.06574074,0,0,0,0.010863109957426786,None,,,010,2022-05-10_19h32.13.107,Main,2022.1.1,61.10243462420419,
positive,negative,1,l,j,,,,,,,,,0,0,0,5,,,,,,,168.96455559995957,None,main,2,2,1,negative,positive,l,l,1,1.0584213000256568,170.98783149989322,171.9952318998985,171.97855870006606,None,170.98783149989322,None,170.98783149989322,None,170.98783149989322,None,173.04551380998456,None,173.04551380998456,None,173.04551380998456,None,,,,,,,,,,,,,,010,2022-05-10_19h32.13.107,Main,2022.1.1,61.10243462420419,
negative,neutral,1,j,l,,,,,,,,,0,1,1,3,,,,,,,,,main,2,2,1,neutral,negative,j,j,1,0.8305394998751581,173.05170399998315,174.06432110001333,174.0478177999612,None,173.05170399998315,None,173.05170399998315,None,173.05170399998315,None,174.87880500997417,None,174.87880500997417,None,174.87880500997417,None,,,,,,,,,,,,,,010,2022-05-10_19h32.13.107,Main,2022.1.1,61.10243462420419,
negative,neutral,2,j,l,,,,,,,,,0,2,2,12,,,,,,,,,main,2,2,2,neutral,negative,j,j,1,1.1314669998828322,174.88219349994324,175.8976437000092,175.88103329995647,None,174.88219349994324,None,174.88219349994324,None,174.88219349994324,None,177.0120666100178,None,177.0120666100178,None,177.0120666100178,None,,,,,,,,,,,,,,010,2022-05-10_19h32.13.107,Main,2022.1.1,61.10243462420419,
neutral,positive,1,k,k,,,,,,,,,0,3,3,4,,,,,,,,,main,1,1,1,positive,neutral,k,k,1,0.6675080000422895,177.01603810000233,178.03089799988084,177.9977001999505,None,177.01603810000233,None,177.01603810000233,None,177.01603810000233,None,178.68101690998301,None,178.68101690998301,None,178.68101690998301,None,,,,,,,,,,,,,,010,2022-05-10_19h32.13.107,Main,2022.1.1,61.10243462420419,
negative,positive,1,j,l,,,,,,,,,0,4,4,6,,,,,,,,,main,1,1,1,positive,negative,j,j,1,0.6626934998203069,178.6838688000571,179.69752170005813,179.6809564998839,None,178.6838688000571,None,178.6838688000571,None,178.6838688000571,None,180.34533650996164,None,180.34533650996164,None,180.34533650996164,None,,,,,,,,,,,,,,010,2022-05-10_19h32.13.107,Main,2022.1.1,61.10243462420419,
positive,negative,2,l,j,,,,,,,,,0,5,5,14,,,,,,,,,main,2,2,2,negative,positive,l,l,1,0.8478467999957502,180.34863039990887,181.36162430001423,181.34495609998703,None,180.34863039990887,None,180.34863039990887,None,180.34863039990887,None,182.19492941009813,None,182.19492941009813,None,182.19492941009813,None,,,,,,,,,,,,,,010,2022-05-10_19h32.13.107,Main,2022.1.1,61.10243462420419,
negative,positive,2,j,l,,,,,,,,,0,6,6,15,,,,,,,,,main,2,2,2,positive,negative,j,j,1,0.8321119002066553,182.19521189993247,183.19496380002238,183.19496380002238,None,182.19521189993247,None,182.19521189993247,None,182.19521189993247,None,184.02859491002746,None,184.02859491002746,None,184.02859491002746,None,,,,,,,,,,,,,,010,2022-05-10_19h32.13.107,Main,2022.1.1,61.10243462420419,
positive,neutral,1,l,j,,,,,,,,,0,7,7,8,,,,,,,,,main,2,2,1,neutral,positive,l,l,1,0.7174231000244617,184.03418609988876,185.04751499998383,185.03089080005884,None,184.03418609988876,None,184.03418609988876,None,184.03418609988876,None,185.747515309928,None,185.747515309928,None,185.747515309928,None,,,,,,,,,,,,,,010,2022-05-10_19h32.13.107,Main,2022.1.1,61.10243462420419,
positive,neutral,2,l,j,,,,,,,,,0,8,8,17,,,,,,,,,main,1,1,2,neutral,positive,l,l,1,0.762505599996075,185.750468299957,186.7641328999307,186.7475276000332,None,185.750468299957,None,185.750468299957,None,185.750468299957,None,187.51184780998156,None,187.51184780998156,None,187.51184780998156,None,,,,,,,,,,,,,,010,2022-05-10_19h32.13.107,Main,2022.1.1,61.10243462420419,
positive,positive,2,l,j,,,,,,,,,0,9,9,11,,,,,,,,,main,1,1,2,positive,positive,l,l,1,0.7152553000487387,187.51517069991678,188.53070269990712,188.51415239996277,None,187.51517069991678,None,187.51517069991678,None,187.51517069991678,None,189.22845870987513,None,189.22845870987513,None,189.22845870987513,None,,,,,,,,,,,,,,010,2022-05-10_19h32.13.107,Main,2022.1.1,61.10243462420419,
neutral,neutral,2,k,k,,,,,,,,,0,10,10,10,,,,,,,,,main,1,1,2,neutral,neutral,k,k,1,0.6981718000024557,189.2317377999425,190.24735639989376,190.22843970009126,None,189.2317377999425,None,189.2317377999425,None,189.2317377999425,None,190.928452409897,None,190.928452409897,None,190.928452409897,None,,,,,,,,,,,,,,010,2022-05-10_19h32.13.107,Main,2022.1.1,61.10243462420419,
positive,positive,1,l,j,,,,,,,,,0,11,11,2,,,,,,,,,main,2,2,1,positive,positive,l,l,1,0.8483251000288874,190.93159310007468,191.9447498000227,191.92809029994532,None,190.93159310007468,None,190.93159310007468,None,190.93159310007468,None,192.77806690996513,None,192.77806690996513,None,192.77806690996513,None,,,,,,,,,,,,,,010,2022-05-10_19h32.13.107,Main,2022.1.1,61.10243462420419,
neutral,negative,2,k,k,,,,,,,,,0,12,12,16,,,,,,,,,main,2,2,2,negative,neutral,k,k,1,0.7507693998049945,192.7780736000277,193.78068750002421,193.78068750002421,None,192.7780736000277,None,192.7780736000277,None,192.7780736000277,None,194.53064351002686,None,194.53064351002686,None,194.53064351002686,None,,,,,,,,,,,,,,010,2022-05-10_19h32.13.107,Main,2022.1.1,61.10243462420419,
negative,negative,1,j,l,,,,,,,,,0,13,13,0,,,,,,,,,main,2,2,1,negative,negative,j,j,1,0.7294966999907047,194.53331269999035,195.5472715999931,195.53070040000603,None,194.53331269999035,None,194.53331269999035,None,194.53331269999035,None,196.26167270992883,None,196.26167270992883,None,196.26167270992883,None,,,,,,,,,,,,,,010,2022-05-10_19h32.13.107,Main,2022.1.1,61.10243462420419,
neutral,positive,2,k,k,,,,,,,,,0,14,14,13,,,,,,,,,main,1,1,2,positive,neutral,k,k,1,0.798982199979946,196.26486369990744,197.2638745000586,197.2638745000586,None,196.26486369990744,None,196.26486369990744,None,196.26486369990744,None,198.06162780998275,None,198.06162780998275,None,198.06162780998275,None,,,,,,,,,,,,,,010,2022-05-10_19h32.13.107,Main,2022.1.1,61.10243462420419,
negative,negative,2,j,l,,,,,,,,,0,15,15,9,,,,,,,,,main,2,2,2,negative,negative,j,j,1,1.0643511000089347,198.06550809997134,199.08050979999825,199.06394120003097,None,198.06550809997134,None,198.06550809997134,None,198.06550809997134,None,200.12829901007936,None,200.12829901007936,None,200.12829901007936,None,,,,,,,,,,,,,,010,2022-05-10_19h32.13.107,Main,2022.1.1,61.10243462420419,
neutral,neutral,1,k,k,,,,,,,,,0,16,16,1,,,,,,,,,main,1,1,1,neutral,neutral,k,k,1,0.6671082999091595,200.13141950010322,201.13047170010395,201.13047170010395,None,200.13141950010322,None,200.13141950010322,None,200.13141950010322,None,201.7970658099279,None,201.7970658099279,None,201.7970658099279,None,,,,,,,,,,,,,,010,2022-05-10_19h32.13.107,Main,2022.1.1,61.10243462420419,
neutral,negative,1,k,k,,,,,,,,,0,17,17,7,,,,,,,,,main,2,2,1,negative,neutral,k,k,1,0.6626768000423908,201.7998210999649,202.81119000003673,202.79452280001715,None,201.7998210999649,None,201.7998210999649,None,201.7998210999649,None,203.46116161006503,None,203.46116161006503,None,203.46116161006503,None,,,,,,,,,,,,,,010,2022-05-10_19h32.13.107,Main,2022.1.1,61.10243462420419,
positive,negative,1,l,j,,,,,,,,,1,0,18,5,,,,,,,,,main,2,2,1,negative,positive,l,l,1,0.848722199909389,203.46115239989012,204.46117569995113,204.46117569995113,None,203.46115239989012,None,203.46115239989012,None,203.46115239989012,None,205.3114955100231,None,205.3114955100231,None,205.3114955100231,None,,,,,,,,,,,,,,010,2022-05-10_19h32.13.107,Main,2022.1.1,61.10243462420419,
neutral,negative,1,k,k,,,,,,,,,1,1,19,7,,,,,,,,,main,1,1,1,negative,neutral,k,k,1,1.4981631999835372,205.31546259997413,206.3303125000093,206.31378279998899,None,205.31546259997413,None,205.31546259997413,None,205.31546259997413,None,207.8114254100714,None,207.8114254100714,None,207.8114254100714,None,,,,,,,,,,,,,,010,2022-05-10_19h32.13.107,Main,2022.1.1,61.10243462420419,
positive,negative,2,l,j,,,,,,,,,1,2,20,14,,,,,,,,,main,1,1,2,negative,positive,l,l,1,0.7985287001356483,207.81761229992844,208.83033080003224,208.81363409990445,None,207.81761229992844,None,207.81761229992844,None,207.81761229992844,None,209.6113707100507,None,209.6113707100507,None,209.6113707100507,None,,,,,,,,,,,,,,010,2022-05-10_19h32.13.107,Main,2022.1.1,61.10243462420419,
positive,neutral,2,l,j,,,,,,,,,1,3,21,17,,,,,,,,,main,2,2,2,neutral,positive,l,l,1,0.6652174000628293,209.61466469988227,210.61370850005187,210.61370850005187,None,209.61466469988227,None,209.61466469988227,None,209.61466469988227,None,211.27799351010472,None,211.27799351010472,None,211.27799351010472,None,,,,,,,,,,,,,,010,2022-05-10_19h32.13.107,Main,2022.1.1,61.10243462420419,
positive,positive,2,l,j,,,,,,,,,1,4,22,11,,,,,,,,,main,2,2,2,positive,positive,l,l,1,0.6854882999323308,211.2815249999985,212.29393270006403,212.27661819988862,None,211.2815249999985,None,211.2815249999985,None,211.2815249999985,None,212.96097001000308,None,212.96097001000308,None,212.96097001000308,None,,,,,,,,,,,,,,010,2022-05-10_19h32.13.107,Main,2022.1.1,61.10243462420419,
neutral,positive,1,k,k,,,,,,,,,1,5,23,4,,,,,,,,,main,1,1,1,positive,neutral,k,k,1,0.7441979998257011,212.96478020003997,213.9776190998964,213.9609586999286,None,212.96478020003997,None,212.96478020003997,None,212.96478020003997,None,214.7109829099849,None,214.7109829099849,None,214.7109829099849,None,,,,,,,,,,,,,,010,2022-05-10_19h32.13.107,Main,2022.1.1,61.10243462420419,
positive,neutral,1,l,j,,,,,,,,,1,6,24,8,,,,,,,,,main,1,1,1,neutral,positive,l,l,1,0.7153131999075413,214.7161916999612,215.73019469995052,215.69689220003784,None,214.7161916999612,None,214.7161916999612,None,214.7161916999612,None,216.4278980100993,None,216.4278980100993,None,216.4278980100993,None,,,,,,,,,,,,,,010,2022-05-10_19h32.13.107,Main,2022.1.1,61.10243462420419,
neutral,positive,2,k,k,,,,,,,,,1,7,25,13,,,,,,,,,main,1,1,2,positive,neutral,k,k,1,0.6819954998791218,216.4311615000479,217.44675630005077,217.43021730007604,None,216.4311615000479,None,216.4311615000479,None,216.4311615000479,None,218.11119950991124,None,218.11119950991124,None,218.11119950991124,None,,,,,,,,,,,,,,010,2022-05-10_19h32.13.107,Main,2022.1.1,61.10243462420419,
negative,positive,2,j,l,,,,,,,,,1,8,26,15,,,,,,,,,main,2,2,2,positive,negative,j,j,1,0.9981619999743998,218.11484610009938,219.13010070007294,219.11349050002173,None,218.11484610009938,None,218.11484610009938,None,218.11484610009938,None,220.11114601008595,None,220.11114601008595,None,220.11114601008595,None,,,,,,,,,,,,,,010,2022-05-10_19h32.13.107,Main,2022.1.1,61.10243462420419,
negative,positive,1,j,l,,,,,,,,,1,9,27,6,,,,,,,,,main,2,2,1,positive,negative,j,j,1,0.6149377999827266,220.11454380000941,221.13011309993453,221.11350019997917,None,220.11454380000941,None,220.11454380000941,None,220.11454380000941,None,221.72778051006608,None,221.72778051006608,None,221.72778051006608,None,,,,,,,,,,,,,,010,2022-05-10_19h32.13.107,Main,2022.1.1,61.10243462420419,
negative,negative,2,j,l,,,,,,,,,1,10,28,9,,,,,,,,,main,1,1,2,negative,negative,j,j,1,0.7479182998649776,221.7306293998845,222.72995100007392,222.71330940001644,None,221.7306293998845,None,221.7306293998845,None,221.7306293998845,None,223.47740321010352,None,223.47740321010352,None,223.47740321010352,None,,,,,,,,,,,,,,010,2022-05-10_19h32.13.107,Main,2022.1.1,61.10243462420419,
neutral,neutral,2,k,k,,,,,,,,,1,11,29,10,,,,,,,,,main,1,1,2,neutral,neutral,k,k,1,0.6818104998674244,223.4773973999545,224.4773822000716,224.4773822000716,None,223.4773973999545,None,223.4773973999545,None,223.4773973999545,None,225.1607496099081,None,225.1607496099081,None,225.1607496099081,None,,,,,,,,,,,,,,010,2022-05-10_19h32.13.107,Main,2022.1.1,61.10243462420419,
negative,neutral,2,j,l,,,,,,,,,1,12,30,12,,,,,,,,,main,2,2,2,neutral,negative,j,j,1,0.8987754001282156,225.16367059992626,226.163275500061,226.14668309991248,None,225.16367059992626,None,225.16367059992626,None,225.16367059992626,None,227.0610194100067,None,227.0610194100067,None,227.0610194100067,None,,,,,,,,,,,,,,010,2022-05-10_19h32.13.107,Main,2022.1.1,61.10243462420419,
positive,positive,1,l,j,,,,,,,,,1,13,31,2,,,,,,,,,main,1,1,1,positive,positive,l,l,1,0.8816847999114543,227.06456450000405,228.07985910004936,228.0633427000139,None,227.06456450000405,None,227.06456450000405,None,227.06456450000405,None,228.94441331001,None,228.94441331001,None,228.94441331001,None,,,,,,,,,,,,,,010,2022-05-10_19h32.13.107,Main,2022.1.1,61.10243462420419,
negative,negative,1,j,l,,,,,,,,,1,14,32,0,,,,,,,,,main,1,1,1,negative,negative,j,j,1,0.8306683001574129,228.94837359990925,229.96317430003546,229.94664349989034,None,228.94837359990925,None,228.94837359990925,None,228.94837359990925,None,230.7776339099277,None,230.7776339099277,None,230.7776339099277,None,,,,,,,,,,,,,,010,2022-05-10_19h32.13.107,Main,2022.1.1,61.10243462420419,
neutral,neutral,1,k,k,,,,,,,,,1,15,33,1,,,,,,,,,main,2,2,1,neutral,neutral,k,k,1,0.6172935001086444,230.78067240002565,231.77983719995245,231.7631641998887,None,230.78067240002565,None,230.78067240002565,None,230.78067240002565,None,232.39651301000268,None,232.39651301000268,None,232.39651301000268,None,,,,,,,,,,,,,,010,2022-05-10_19h32.13.107,Main,2022.1.1,61.10243462420419,
negative,neutral,1,j,l,,,,,,,,,1,16,34,3,,,,,,,,,main,2,2,1,neutral,negative,j,j,1,0.76389340008609,232.4001368000172,233.40982179995626,233.39291570009664,None,232.4001368000172,None,232.4001368000172,None,232.4001368000172,None,234.16052781008185,None,234.16052781008185,None,234.16052781008185,None,,,,,,,,,,,,,,010,2022-05-10_19h32.13.107,Main,2022.1.1,61.10243462420419,
neutral,negative,2,k,k,,,,,,,,,1,17,35,16,,,,,,,,,main,1,1,2,negative,neutral,k,k,1,0.6637652001809329,234.17720349994488,235.17717069992796,235.16050180001184,None,234.17720349994488,None,234.17720349994488,None,234.17720349994488,None,235.82719661002048,None,235.82719661002048,None,235.82719661002048,None,,,,,,,,,,,,,,010,2022-05-10_19h32.13.107,Main,2022.1.1,61.10243462420419,
neutral,positive,2,k,k,,,,,,,,,2,0,36,13,,,,,,,,,main,2,2,2,positive,neutral,k,k,1,0.5653784000314772,235.83109220000915,236.84633459988981,236.813136999961,None,235.83109220000915,None,235.83109220000915,None,235.83109220000915,None,237.39413350992837,None,237.39413350992837,None,237.39413350992837,None,,,,,,,,,,,,,,010,2022-05-10_19h32.13.107,Main,2022.1.1,61.10243462420419,
positive,neutral,2,l,j,,,,,,,,,2,1,37,17,,,,,,,,,main,1,1,2,neutral,positive,l,l,1,0.7984258001670241,237.3972726999782,238.39632939989679,238.37975249998271,None,237.3972726999782,None,237.3972726999782,None,237.3972726999782,None,239.19408071003855,None,239.19408071003855,None,239.19408071003855,None,,,,,,,,,,,,,,010,2022-05-10_19h32.13.107,Main,2022.1.1,61.10243462420419,
neutral,negative,1,k,k,,,,,,,,,2,2,38,7,,,,,,,,,main,2,2,1,negative,neutral,k,k,1,0.648384400177747,239.19746499997564,240.213030599989,240.1964288998861,None,239.19746499997564,None,239.19746499997564,None,239.19746499997564,None,240.84405390997418,None,240.84405390997418,None,240.84405390997418,None,,,,,,,,,,,,,,010,2022-05-10_19h32.13.107,Main,2022.1.1,61.10243462420419,
negative,neutral,1,j,l,,,,,,,,,2,3,39,3,,,,,,,,,main,1,1,1,neutral,negative,j,j,1,0.8147980000358075,240.84731279988773,241.84631599998102,241.84631599998102,None,240.84731279988773,None,240.84731279988773,None,240.84731279988773,None,242.6606684099883,None,242.6606684099883,None,242.6606684099883,None,,,,,,,,,,,,,,010,2022-05-10_19h32.13.107,Main,2022.1.1,61.10243462420419,
negative,negative,1,j,l,,,,,,,,,2,4,40,0,,,,,,,,,main,1,1,1,negative,negative,j,j,1,0.8480799999088049,242.66613160003908,243.6795369000174,243.64620269997977,None,242.66613160003908,None,242.66613160003908,None,242.66613160003908,None,244.51029290989973,None,244.51029290989973,None,244.51029290989973,None,,,,,,,,,,,,,,010,2022-05-10_19h32.13.107,Main,2022.1.1,61.10243462420419,
neutral,neutral,1,k,k,,,,,,,,,2,5,41,1,,,,,,,,,main,2,2,1,neutral,neutral,k,k,1,0.7488814999815077,244.51140010007657,245.52695239987224,245.5102647000458,None,244.51140010007657,None,244.51140010007657,None,244.51140010007657,None,246.26030891002156,None,246.26030891002156,None,246.26030891002156,None,,,,,,,,,,,,,,010,2022-05-10_19h32.13.107,Main,2022.1.1,61.10243462420419,
neutral,negative,2,k,k,,,,,,,,,2,6,42,16,,,,,,,,,main,1,1,2,negative,neutral,k,k,1,0.5975162999238819,246.26678829989396,247.2795068998821,247.2629154000897,None,246.26678829989396,None,246.26678829989396,None,246.26678829989396,None,247.86058821002953,None,247.86058821002953,None,247.86058821002953,None,,,,,,,,,,,,,,010,2022-05-10_19h32.13.107,Main,2022.1.1,61.10243462420419,
negative,positive,1,j,l,,,,,,,,,2,7,43,6,,,,,,,,,main,1,1,1,positive,negative,j,j,1,0.8819174999371171,247.8661762000993,248.8794223999139,248.86281479988247,None,247.8661762000993,None,247.8661762000993,None,247.8661762000993,None,249.74386990987696,None,249.74386990987696,None,249.74386990987696,None,,,,,,,,,,,,,,010,2022-05-10_19h32.13.107,Main,2022.1.1,61.10243462420419,
positive,negative,2,l,j,,,,,,,,,2,8,44,14,,,,,,,,,main,2,2,2,negative,positive,l,l,1,0.9148870999924839,249.7472407000605,250.76273879990913,250.74613510002382,None,249.7472407000605,None,249.7472407000605,None,249.7472407000605,None,251.6606156100519,None,251.6606156100519,None,251.6606156100519,None,,,,,,,,,,,,,,010,2022-05-10_19h32.13.107,Main,2022.1.1,61.10243462420419,
positive,positive,2,l,j,,,,,,,,,2,9,45,11,,,,,,,,,main,2,2,2,positive,positive,l,l,1,0.8175266999751329,251.66658030007966,252.6793939000927,252.66277029993944,None,251.66658030007966,None,251.66658030007966,None,251.66658030007966,None,253.47943100994453,None,253.47943100994453,None,253.47943100994453,None,,,,,,,,,,,,,,010,2022-05-10_19h32.13.107,Main,2022.1.1,61.10243462420419,
negative,negative,2,j,l,,,,,,,,,2,10,46,9,,,,,,,,,main,2,2,2,negative,negative,j,j,1,0.7455909999553114,253.48223600001074,254.48788890009746,254.46579480008222,None,253.48223600001074,None,253.48223600001074,None,253.48223600001074,None,255.2267450099811,None,255.2267450099811,None,255.2267450099811,None,,,,,,,,,,,,,,010,2022-05-10_19h32.13.107,Main,2022.1.1,61.10243462420419,
neutral,positive,1,k,k,,,,,,,,,2,11,47,4,,,,,,,,,main,2,2,1,positive,neutral,k,k,1,0.6652430000249296,255.2267253000755,256.2267179999035,256.2267179999035,None,255.2267253000755,None,255.2267253000755,None,255.2267253000755,None,256.8934122099075,None,256.8934122099075,None,256.8934122099075,None,,,,,,,,,,,,,,010,2022-05-10_19h32.13.107,Main,2022.1.1,61.10243462420419,
negative,positive,2,j,l,,,,,,,,,2,12,48,15,,,,,,,,,main,2,2,2,positive,negative,j,j,1,0.6665121999103576,256.8976612999104,257.91265129996464,257.89605579990894,None,256.8976612999104,None,256.8976612999104,None,256.8976612999104,None,258.5625636098906,None,258.5625636098906,None,258.5625636098906,None,,,,,,,,,,,,,,010,2022-05-10_19h32.13.107,Main,2022.1.1,61.10243462420419,
negative,neutral,2,j,l,,,,,,,,,2,13,49,12,,,,,,,,,main,2,2,2,neutral,negative,j,j,1,0.7128481999970973,258.5653585998807,259.57920969999395,259.56258959998377,None,258.5653585998807,None,258.5653585998807,None,258.5653585998807,None,260.27708961009046,None,260.27708961009046,None,260.27708961009046,None,,,,,,,,,,,,,,010,2022-05-10_19h32.13.107,Main,2022.1.1,61.10243462420419,
positive,neutral,1,l,j,,,,,,,,,2,14,50,8,,,,,,,,,main,1,1,1,neutral,positive,l,l,1,0.9650729999411851,260.2823085000273,261.29360900004394,261.2791997001041,None,260.2823085000273,None,260.2823085000273,None,260.2823085000273,None,262.243578010099,None,262.243578010099,None,262.243578010099,None,,,,,,,,,,,,,,010,2022-05-10_19h32.13.107,Main,2022.1.1,61.10243462420419,
positive,positive,1,l,j,,,,,,,,,2,15,51,2,,,,,,,,,main,2,2,1,positive,positive,l,l,1,0.8149915998801589,262.2491327000316,263.2602283000015,263.24587109987624,None,262.2491327000316,None,262.2491327000316,None,262.2491327000316,None,264.0602403100114,None,264.0602403100114,None,264.0602403100114,None,,,,,,,,,,,,,,010,2022-05-10_19h32.13.107,Main,2022.1.1,61.10243462420419,
neutral,neutral,2,k,k,,,,,,,,,2,16,52,10,,,,,,,,,main,2,2,2,neutral,neutral,k,k,1,0.7307837000116706,264.0662730000913,265.0790677999612,265.0624788000714,None,264.0662730000913,None,264.0662730000913,None,264.0662730000913,None,265.7931662100367,None,265.7931662100367,None,265.7931662100367,None,,,,,,,,,,,,,,010,2022-05-10_19h32.13.107,Main,2022.1.1,61.10243462420419,
positive,negative,1,l,j,,,,,,,,,2,17,53,5,,,,,,,,,main,1,1,1,negative,positive,l,l,1,0.8973596999421716,265.7943869000301,266.8098297000397,266.79316779994406,None,265.7943869000301,None,265.7943869000301,None,265.7943869000301,None,267.69318001004865,None,267.69318001004865,None,267.69318001004865,None,,,,,,,,,,,,,,010,2022-05-10_19h32.13.107,Main,2022.1.1,61.10243462420419,
neutral,negative,2,k,k,,,,,,,,,3,0,54,16,,,,,,,,,main,1,1,2,negative,neutral,k,k,1,0.717566000064835,267.6960161998868,268.695649900008,268.6791256000288,None,267.6960161998868,None,267.6960161998868,None,267.6960161998868,None,269.41231011003254,None,269.41231011003254,None,269.41231011003254,None,,,,,,,,,,,,,,010,2022-05-10_19h32.13.107,Main,2022.1.1,61.10243462420419,
positive,negative,2,l,j,,,,,,,,,3,1,55,14,,,,,,,,,main,1,1,2,negative,positive,l,l,1,0.8627952998504043,269.4151075000409,270.42896319995634,270.41238039988093,None,269.4151075000409,None,269.4151075000409,None,269.4151075000409,None,271.2764582099393,None,271.2764582099393,None,271.2764582099393,None,,,,,,,,,,,,,,010,2022-05-10_19h32.13.107,Main,2022.1.1,61.10243462420419,
neutral,neutral,2,k,k,,,,,,,,,3,2,56,10,,,,,,,,,main,2,2,2,neutral,neutral,k,k,1,0.6344178998842835,271.28285890002735,272.2933837000746,272.2789729000069,None,271.28285890002735,None,271.28285890002735,None,271.28285890002735,None,272.91264851004814,None,272.91264851004814,None,272.91264851004814,None,,,,,,,,,,,,,,010,2022-05-10_19h32.13.107,Main,2022.1.1,61.10243462420419,
positive,neutral,2,l,j,,,,,,,,,3,3,57,17,,,,,,,,,main,2,2,2,neutral,positive,l,l,1,0.7791941999457777,272.9155464998912,273.92887210007757,273.9123327000998,None,272.9155464998912,None,272.9155464998912,None,272.9155464998912,None,274.69343820991924,None,274.69343820991924,None,274.69343820991924,None,,,,,,,,,,,,,,010,2022-05-10_19h32.13.107,Main,2022.1.1,61.10243462420419,
negative,neutral,1,j,l,,,,,,,,,3,4,58,3,,,,,,,,,main,2,2,1,neutral,negative,j,j,1,0.7636535000056028,274.6995782998856,275.7091029000003,275.6930380000267,None,274.6995782998856,None,274.6995782998856,None,274.6995782998856,None,276.4596163100563,None,276.4596163100563,None,276.4596163100563,None,,,,,,,,,,,,,,010,2022-05-10_19h32.13.107,Main,2022.1.1,61.10243462420419,
positive,positive,2,l,j,,,,,,,,,3,5,59,11,,,,,,,,,main,1,1,2,positive,positive,l,l,1,0.8151145000010729,276.4596037999727,277.4595927000046,277.4595927000046,None,276.4596037999727,None,276.4596037999727,None,276.4596037999727,None,278.27628410989416,None,278.27628410989416,None,278.27628410989416,None,,,,,,,,,,,,,,010,2022-05-10_19h32.13.107,Main,2022.1.1,61.10243462420419,
positive,neutral,1,l,j,,,,,,,,,3,6,60,8,,,,,,,,,main,1,1,1,neutral,positive,l,l,1,0.9652635001111776,278.28189949993975,279.2954388000071,279.26224069995806,None,278.28189949993975,None,278.28189949993975,None,278.28189949993975,None,280.2432237100787,None,280.2432237100787,None,280.2432237100787,None,,,,,,,,,,,,,,010,2022-05-10_19h32.13.107,Main,2022.1.1,61.10243462420419,
negative,positive,1,j,l,,,,,,,,,3,7,61,6,,,,,,,,,main,2,2,1,positive,negative,j,j,1,1.0318848001770675,280.2463704000693,281.24551249993965,281.24551249993965,None,280.2463704000693,None,280.2463704000693,None,280.2463704000693,None,282.2765238099731,None,282.2765238099731,None,282.2765238099731,None,,,,,,,,,,,,,,010,2022-05-10_19h32.13.107,Main,2022.1.1,61.10243462420419,
neutral,neutral,1,k,k,,,,,,,,,3,8,62,1,,,,,,,,,main,1,1,1,neutral,neutral,k,k,1,0.7481777998618782,282.2796479999088,283.27879499993287,283.27879499993287,None,282.2796479999088,None,282.2796479999088,None,282.2796479999088,None,284.02644850998183,None,284.02644850998183,None,284.02644850998183,None,,,,,,,,,,,,,,010,2022-05-10_19h32.13.107,Main,2022.1.1,61.10243462420419,
negative,negative,2,j,l,,,,,,,,,3,9,63,9,,,,,,,,,main,1,1,2,negative,negative,j,j,1,1.064918699907139,284.02948169992305,285.0264260000549,285.0264260000549,None,284.02948169992305,None,284.02948169992305,None,284.02948169992305,None,286.09307250995187,None,286.09307250995187,None,286.09307250995187,None,,,,,,,,,,,,,,010,2022-05-10_19h32.13.107,Main,2022.1.1,61.10243462420419,
negative,neutral,2,j,l,,,,,,,,,3,10,64,12,,,,,,,,,main,1,1,2,neutral,negative,j,j,1,0.9343838000204414,286.0970588000491,287.10940019995905,287.09273879998364,None,286.0970588000491,None,286.0970588000491,None,286.0970588000491,None,288.0260382100008,None,288.0260382100008,None,288.0260382100008,None,,,,,,,,,,,,,,010,2022-05-10_19h32.13.107,Main,2022.1.1,61.10243462420419,
negative,negative,1,j,l,,,,,,,,,3,11,65,0,,,,,,,,,main,1,1,1,negative,negative,j,j,1,0.7449032999575138,288.029098500032,289.0427488000132,289.026075999951,None,288.029098500032,None,288.029098500032,None,288.029098500032,None,289.77639320991,None,289.77639320991,None,289.77639320991,None,,,,,,,,,,,,,,010,2022-05-10_19h32.13.107,Main,2022.1.1,61.10243462420419,
neutral,negative,1,k,k,,,,,,,,,3,12,66,7,,,,,,,,,main,1,1,1,negative,neutral,k,k,1,0.6006259999703616,289.78034249995835,290.7952119000256,290.7619546998758,None,289.78034249995835,None,289.78034249995835,None,289.78034249995835,None,291.37852940997107,None,291.37852940997107,None,291.37852940997107,None,,,,,,,,,,,,,,010,2022-05-10_19h32.13.107,Main,2022.1.1,61.10243462420419,
positive,negative,1,l,j,,,,,,,,,3,13,67,5,,,,,,,,,main,2,2,1,negative,positive,l,l,1,0.8150845000054687,291.38147890008986,292.3951600000728,292.3785498000216,None,291.38147890008986,None,291.38147890008986,None,291.38147890008986,None,293.1951529100537,None,293.1951529100537,None,293.1951529100537,None,,,,,,,,,,,,,,010,2022-05-10_19h32.13.107,Main,2022.1.1,61.10243462420419,
neutral,positive,2,k,k,,,,,,,,,3,14,68,13,,,,,,,,,main,1,1,2,positive,neutral,k,k,1,0.9148492000531405,293.1979918999132,294.2118535998743,294.19518740009516,None,293.1979918999132,None,293.1979918999132,None,293.1979918999132,None,295.1117864100728,None,295.1117864100728,None,295.1117864100728,None,,,,,,,,,,,,,,010,2022-05-10_19h32.13.107,Main,2022.1.1,61.10243462420419,
negative,positive,2,j,l,,,,,,,,,3,15,69,15,,,,,,,,,main,1,1,2,positive,negative,j,j,1,0.8593665000516921,295.1149025000632,296.12843340006657,296.1118544000201,None,295.1149025000632,None,295.1149025000632,None,295.1149025000632,None,296.9695945098996,None,296.9695945098996,None,296.9695945098996,None,,,,,,,,,,,,,,010,2022-05-10_19h32.13.107,Main,2022.1.1,61.10243462420419,
neutral,positive,1,k,k,,,,,,,,,3,16,70,4,,,,,,,,,main,2,2,1,positive,neutral,k,k,1,0.7351507002022117,296.97367780003697,297.9758222999517,297.9758222999517,None,296.97367780003697,None,296.97367780003697,None,296.97367780003697,None,298.70913870991205,None,298.70913870991205,None,298.70913870991205,None,,,,,,,,,,,,,,010,2022-05-10_19h32.13.107,Main,2022.1.1,61.10243462420419,
positive,positive,1,l,j,,,,,,,,,3,17,71,2,,,,,,,,,main,1,1,1,positive,positive,l,l,1,0.830904700094834,298.7258075000718,299.7283357998822,299.71180330007337,None,298.7258075000718,None,298.7258075000718,None,298.7258075000718,None,300.5427776101045,None,300.5427776101045,None,300.5427776101045,None,,,,,,,,,,,,,,010,2022-05-10_19h32.13.107,Main,2022.1.1,61.10243462420419,
negative,positive,1,j,l,,,,,,,,,4,0,72,6,,,,,,,,,main,2,2,1,positive,negative,j,j,1,0.8315763000864536,300.54605940007605,301.56164070009254,301.5450661999639,None,300.54605940007605,None,300.54605940007605,None,300.54605940007605,None,302.3760833100881,None,302.3760833100881,None,302.3760833100881,None,,,,,,,,,,,,,,010,2022-05-10_19h32.13.107,Main,2022.1.1,61.10243462420419,
negative,positive,2,j,l,,,,,,,,,4,1,73,15,,,,,,,,,main,2,2,2,positive,negative,j,j,1,1.415159200085327,302.38226670003496,303.39498410001397,303.3616464000661,None,302.38226670003496,None,302.38226670003496,None,302.38226670003496,None,304.7926863099914,None,304.7926863099914,None,304.7926863099914,None,,,,,,,,,,,,,,010,2022-05-10_19h32.13.107,Main,2022.1.1,61.10243462420419,
neutral,neutral,2,k,k,,,,,,,,,4,2,74,10,,,,,,,,,main,2,2,2,neutral,neutral,k,k,1,0.6983509000856429,304.79617389990017,305.81153870001435,305.7949512999039,None,304.79617389990017,None,304.79617389990017,None,304.79617389990017,None,306.4926701100543,None,306.4926701100543,None,306.4926701100543,None,,,,,,,,,,,,,,010,2022-05-10_19h32.13.107,Main,2022.1.1,61.10243462420419,
neutral,positive,1,k,k,,,,,,,,,4,3,75,4,,,,,,,,,main,1,1,1,positive,neutral,k,k,1,0.6483672000467777,306.4958031999413,307.4949336000718,307.4949336000718,None,306.4958031999413,None,306.4958031999413,None,306.4958031999413,None,308.14228820996357,None,308.14228820996357,None,308.14228820996357,None,,,,,,,,,,,,,,010,2022-05-10_19h32.13.107,Main,2022.1.1,61.10243462420419,
neutral,neutral,1,k,k,,,,,,,,,4,4,76,1,,,,,,,,,main,2,2,1,neutral,neutral,k,k,1,0.6982929999940097,308.1422751999926,309.14226390002295,309.14226390002295,None,308.1422751999926,None,308.1422751999926,None,308.1422751999926,None,309.8422954099718,None,309.8422954099718,None,309.8422954099718,None,,,,,,,,,,,,,,010,2022-05-10_19h32.13.107,Main,2022.1.1,61.10243462420419,
neutral,negative,2,k,k,,,,,,,,,4,5,77,16,,,,,,,,,main,1,1,2,negative,neutral,k,k,1,0.5811103000305593,309.84639399987645,310.8614530998748,310.84486970002763,None,309.84639399987645,None,309.84639399987645,None,309.84639399987645,None,311.42590250992214,None,311.42590250992214,None,311.42590250992214,None,,,,,,,,,,,,,,010,2022-05-10_19h32.13.107,Main,2022.1.1,61.10243462420419,
negative,negative,1,j,l,,,,,,,,,4,6,78,0,,,,,,,,,main,2,2,1,negative,negative,j,j,1,0.7983978998381644,311.4291999998968,312.4281321999151,312.4281321999151,None,311.4291999998968,None,311.4291999998968,None,311.4291999998968,None,313.22584540988316,None,313.22584540988316,None,313.22584540988316,None,,,,,,,,,,,,,,010,2022-05-10_19h32.13.107,Main,2022.1.1,61.10243462420419,
positive,positive,2,l,j,,,,,,,,,4,7,79,11,,,,,,,,,main,1,1,2,positive,positive,l,l,1,0.8151254998520017,313.231437999988,314.24470010004006,314.22814649995416,None,313.231437999988,None,313.231437999988,None,313.231437999988,None,315.04246830996124,None,315.04246830996124,None,315.04246830996124,None,,,,,,,,,,,,,,010,2022-05-10_19h32.13.107,Main,2022.1.1,61.10243462420419,
positive,neutral,2,l,j,,,,,,,,,4,8,80,17,,,,,,,,,main,2,2,2,neutral,positive,l,l,1,0.7486189999617636,315.04679680010304,316.0613166000694,316.0448282000143,None,315.04679680010304,None,315.04679680010304,None,315.04679680010304,None,316.79244940993374,None,316.79244940993374,None,316.79244940993374,None,,,,,,,,,,,,,,010,2022-05-10_19h32.13.107,Main,2022.1.1,61.10243462420419,
positive,negative,2,l,j,,,,,,,,,4,9,81,14,,,,,,,,,main,2,2,2,negative,positive,l,l,1,0.6799550000578165,316.79657809995115,317.8113402000163,317.7947221000213,None,316.79657809995115,None,316.79657809995115,None,316.79657809995115,None,318.475394609943,None,318.475394609943,None,318.475394609943,None,,,,,,,,,,,,,,010,2022-05-10_19h32.13.107,Main,2022.1.1,61.10243462420419,
negative,negative,2,j,l,,,,,,,,,4,10,82,9,,,,,,,,,main,2,2,2,negative,negative,j,j,1,1.7486017998307943,318.4756807000376,319.47536709997803,319.47536709997803,None,318.4756807000376,None,318.4756807000376,None,318.4756807000376,None,321.2279046000913,None,321.2279046000913,None,321.2279046000913,None,,,,,,,,,,,,,,010,2022-05-10_19h32.13.107,Main,2022.1.1,61.10243462420419,
negative,neutral,1,j,l,,,,,,,,,4,11,83,3,,,,,,,,,main,1,1,1,neutral,negative,j,j,1,0.7008918998762965,322.22621880006045,323.22789720003493,323.21131539996713,None,322.22621880006045,None,322.22621880006045,None,322.22621880006045,None,323.9256183100864,None,323.9256183100864,None,323.9256183100864,None,,,,,,,,,,,,,,010,2022-05-10_19h32.13.107,Main,2022.1.1,61.10243462420419,
positive,positive,1,l,j,,,,,,,,,4,12,84,2,,,,,,,,,main,2,2,1,positive,positive,l,l,1,1.08171910000965,323.9302461000625,324.94456960004754,324.927976799896,None,323.9302461000625,None,323.9302461000625,None,323.9302461000625,None,326.0089227099437,None,326.0089227099437,None,326.0089227099437,None,,,,,,,,,,,,,,010,2022-05-10_19h32.13.107,Main,2022.1.1,61.10243462420419,
neutral,negative,1,k,k,,,,,,,,,4,13,85,7,,,,,,,,,main,1,1,1,negative,neutral,k,k,1,0.7149002000223845,326.0128281998914,327.02781870006584,327.01122500002384,None,326.0128281998914,None,326.0128281998914,None,326.0128281998914,None,327.72553401007315,None,327.72553401007315,None,327.72553401007315,None,,,,,,,,,,,,,,010,2022-05-10_19h32.13.107,Main,2022.1.1,61.10243462420419,
positive,neutral,1,l,j,,,,,,,,,4,14,86,8,,,,,,,,,main,1,1,1,neutral,positive,l,l,1,0.9322074002120644,327.7287264999468,328.7278040999081,328.7278040999081,None,327.7287264999468,None,327.7287264999468,None,327.7287264999468,None,329.6584829099942,None,329.6584829099942,None,329.6584829099942,None,,,,,,,,,,,,,,010,2022-05-10_19h32.13.107,Main,2022.1.1,61.10243462420419,
positive,negative,1,l,j,,,,,,,,,4,15,87,5,,,,,,,,,main,2,2,1,negative,positive,l,l,1,0.9475076000671834,329.65988679998554,330.67510999995284,330.658434699988,None,329.65988679998554,None,329.65988679998554,None,329.65988679998554,None,331.6085132100619,None,331.6085132100619,None,331.6085132100619,None,,,,,,,,,,,,,,010,2022-05-10_19h32.13.107,Main,2022.1.1,61.10243462420419,
neutral,positive,2,k,k,,,,,,,,,4,16,88,13,,,,,,,,,main,1,1,2,positive,neutral,k,k,1,0.7008625001180917,331.61261459998786,332.62764349998906,332.59443569998257,None,331.61261459998786,None,331.61261459998786,None,331.61261459998786,None,333.3109534099698,None,333.3109534099698,None,333.3109534099698,None,,,,,,,,,,,,,,010,2022-05-10_19h32.13.107,Main,2022.1.1,61.10243462420419,
negative,neutral,2,j,l,,,,,,,,,4,17,89,12,,,,,,,,,main,1,1,2,neutral,negative,j,j,1,0.5626691000070423,333.3136481998954,334.327672699932,334.3110225000419,None,333.3136481998954,None,333.3136481998954,None,333.3136481998954,None,334.87538490989243,None,334.87538490989243,None,334.87538490989243,None,,,,,,,,,,,,,,010,2022-05-10_19h32.13.107,Main,2022.1.1,61.10243462420419,
negative,negative,1,j,l,,,,,,,,,5,0,90,0,,,,,,,,,main,2,2,1,negative,negative,j,j,1,0.581812399905175,334.8786506000906,335.89421289996244,335.8776585001033,None,334.8786506000906,None,334.8786506000906,None,334.8786506000906,None,336.4586982099339,None,336.4586982099339,None,336.4586982099339,None,,,,,,,,,,,,,,010,2022-05-10_19h32.13.107,Main,2022.1.1,61.10243462420419,
positive,positive,1,l,j,,,,,,,,,5,1,91,2,,,,,,,,,main,1,1,1,positive,positive,l,l,1,0.7650178999174386,336.462306200061,337.47753360006027,337.4609546000138,None,336.462306200061,None,336.462306200061,None,336.462306200061,None,338.2253406099975,None,338.2253406099975,None,338.2253406099975,None,,,,,,,,,,,,,,010,2022-05-10_19h32.13.107,Main,2022.1.1,61.10243462420419,
neutral,negative,1,k,k,,,,,,,,,5,2,92,7,,,,,,,,,main,1,1,1,negative,neutral,k,k,1,0.5981453999411315,338.2281851998996,339.24066430004314,339.2246367998887,None,338.2281851998996,None,338.2281851998996,None,338.2281851998996,None,339.82492211004717,None,339.82492211004717,None,339.82492211004717,None,,,,,,,,,,,,,,010,2022-05-10_19h32.13.107,Main,2022.1.1,61.10243462420419,
neutral,neutral,1,k,k,,,,,,,,,5,3,93,1,,,,,,,,,main,1,1,1,neutral,neutral,k,k,1,0.5815598000772297,339.82491820002906,340.824904799927,340.824904799927,None,339.82491820002906,None,339.82491820002906,None,339.82491820002906,None,341.40828630989415,None,341.40828630989415,None,341.40828630989415,None,,,,,,,,,,,,,,010,2022-05-10_19h32.13.107,Main,2022.1.1,61.10243462420419,
positive,negative,1,l,j,,,,,,,,,5,4,94,5,,,,,,,,,main,2,2,1,negative,positive,l,j,0,0.6154658000450581,341.4114379999228,342.4107425000984,342.39419430005364,None,341.4114379999228,None,341.4114379999228,None,341.4114379999228,None,343.02744239987805,None,343.02744239987805,None,343.02744239987805,None,,,,,,,,,,,,,,010,2022-05-10_19h32.13.107,Main,2022.1.1,61.10243462420419,
negative,positive,2,j,l,,,,,,,,,5,5,95,15,,,,,,,,,main,2,2,2,positive,negative,j,j,1,0.7844239000696689,344.02549659996293,345.02741859992966,345.01082680001855,None,344.02549659996293,None,344.02549659996293,None,344.02549659996293,None,345.8084784099832,None,345.8084784099832,None,345.8084784099832,None,,,,,,,,,,,,,,010,2022-05-10_19h32.13.107,Main,2022.1.1,61.10243462420419,
negative,negative,2,j,l,,,,,,,,,5,6,96,9,,,,,,,,,main,2,2,2,negative,negative,j,j,1,0.6646028999239206,345.8119944999926,346.8273531999439,346.81071570003405,None,345.8119944999926,None,345.8119944999926,None,345.8119944999926,None,347.47509801001286,None,347.47509801001286,None,347.47509801001286,None,,,,,,,,,,,,,,010,2022-05-10_19h32.13.107,Main,2022.1.1,61.10243462420419,
positive,neutral,1,l,j,,,,,,,,,5,7,97,8,,,,,,,,,main,1,1,1,neutral,positive,l,l,1,0.6651846999302506,347.4781460000668,348.47740369988605,348.47740369988605,None,347.4781460000668,None,347.4781460000668,None,347.4781460000668,None,349.1417284098919,None,349.1417284098919,None,349.1417284098919,None,,,,,,,,,,,,,,010,2022-05-10_19h32.13.107,Main,2022.1.1,61.10243462420419,
neutral,neutral,2,k,k,,,,,,,,,5,8,98,10,,,,,,,,,main,2,2,2,neutral,neutral,k,k,1,0.6832246999256313,349.14860330009833,350.1521616000682,350.14138450007886,None,349.14860330009833,None,349.14860330009833,None,349.14860330009833,None,350.8246843100991,None,350.8246843100991,None,350.8246843100991,None,,,,,,,,,,,,,,010,2022-05-10_19h32.13.107,Main,2022.1.1,61.10243462420419,
positive,negative,2,l,j,,,,,,,,,5,9,99,14,,,,,,,,,main,2,2,2,negative,positive,l,l,1,0.7800457999110222,350.8268482000567,351.84133669990115,351.8246615000535,None,350.8268482000567,None,350.8268482000567,None,350.8268482000567,None,352.60806171,None,352.60806171,None,352.60806171,None,,,,,,,,,,,,,,010,2022-05-10_19h32.13.107,Main,2022.1.1,61.10243462420419,
negative,positive,1,j,l,,,,,,,,,5,10,100,6,,,,,,,,,main,1,1,1,positive,negative,j,j,1,0.7318959000986069,352.6147286000196,353.6272138999775,353.61057409993373,None,352.6147286000196,None,352.6147286000196,None,352.6147286000196,None,354.34163801008833,None,354.34163801008833,None,354.34163801008833,None,,,,,,,,,,,,,,010,2022-05-10_19h32.13.107,Main,2022.1.1,61.10243462420419,
positive,positive,2,l,j,,,,,,,,,5,11,101,11,,,,,,,,,main,2,2,2,positive,positive,l,l,1,0.630592199973762,354.345745800063,355.3605084998999,355.34387460001744,None,354.345745800063,None,354.345745800063,None,354.345745800063,None,355.974719809927,None,355.974719809927,None,355.974719809927,None,,,,,,,,,,,,,,010,2022-05-10_19h32.13.107,Main,2022.1.1,61.10243462420419,
negative,neutral,1,j,l,,,,,,,,,5,12,102,3,,,,,,,,,main,2,2,1,neutral,negative,j,j,1,0.7482932000420988,355.9809367998969,356.99376189988106,356.9771730999928,None,355.9809367998969,None,355.9809367998969,None,355.9809367998969,None,357.72489980990065,None,357.72489980990065,None,357.72489980990065,None,,,,,,,,,,,,,,010,2022-05-10_19h32.13.107,Main,2022.1.1,61.10243462420419,
neutral,positive,1,k,k,,,,,,,,,5,13,103,4,,,,,,,,,main,1,1,1,positive,neutral,k,k,1,0.7650734998751432,357.72804560000077,358.72711610002443,358.7105819999706,None,357.72804560000077,None,357.72804560000077,None,357.72804560000077,None,359.49151990991083,None,359.49151990991083,None,359.49151990991083,None,,,,,,,,,,,,,,010,2022-05-10_19h32.13.107,Main,2022.1.1,61.10243462420419,
positive,neutral,2,l,j,,,,,,,,,5,14,104,17,,,,,,,,,main,2,2,2,neutral,positive,l,l,1,0.7982114001642913,359.4956123000011,360.5078302999027,360.4911726999562,None,359.4956123000011,None,359.4956123000011,None,359.4956123000011,None,361.29115810999645,None,361.29115810999645,None,361.29115810999645,None,,,,,,,,,,,,,,010,2022-05-10_19h32.13.107,Main,2022.1.1,61.10243462420419,
neutral,positive,2,k,k,,,,,,,,,5,15,105,13,,,,,,,,,main,2,2,2,positive,neutral,k,k,1,0.8653207002207637,361.29116040002555,362.29115940001793,362.29115940001793,None,361.29116040002555,None,361.29116040002555,None,361.29116040002555,None,363.1581305101048,None,363.1581305101048,None,363.1581305101048,None,,,,,,,,,,,,,,010,2022-05-10_19h32.13.107,Main,2022.1.1,61.10243462420419,
negative,neutral,2,j,l,,,,,,,,,5,16,106,12,,,,,,,,,main,1,1,2,neutral,negative,j,j,1,0.6647530000191182,363.1639602999203,364.1769715999253,364.1603844000492,None,363.1639602999203,None,363.1639602999203,None,363.1639602999203,None,364.8247399100568,None,364.8247399100568,None,364.8247399100568,None,,,,,,,,,,,,,,010,2022-05-10_19h32.13.107,Main,2022.1.1,61.10243462420419,
neutral,negative,2,k,k,,,,,,,,,5,17,107,16,,,,,,,,,main,1,1,2,negative,neutral,k,k,1,0.6984431999735534,364.8277908999007,365.8269891999662,365.8269891999662,None,364.8277908999007,None,364.8277908999007,None,364.8277908999007,None,366.5247073099948,None,366.5247073099948,None,366.5247073099948,None,,,,,,,,,,,,,,010,2022-05-10_19h32.13.107,Main,2022.1.1,61.10243462420419,
neutral,positive,1,k,k,,,,,,,,,6,0,108,4,,,,,,,,,main,2,2,1,positive,neutral,k,k,1,0.5839758000802249,366.52800050005317,367.54353530006483,367.5269448000472,None,366.52800050005317,None,366.52800050005317,None,366.52800050005317,None,368.11021600998936,None,368.11021600998936,None,368.11021600998936,None,,,,,,,,,,,,,,010,2022-05-10_19h32.13.107,Main,2022.1.1,61.10243462420419,
positive,positive,2,l,j,,,,,,,,,6,1,109,11,,,,,,,,,main,2,2,2,positive,positive,l,l,1,0.6152757999952883,368.112928400049,369.12688099988736,369.11023800005205,None,368.112928400049,None,368.112928400049,None,368.112928400049,None,369.7269577100873,None,369.7269577100873,None,369.7269577100873,None,,,,,,,,,,,,,,010,2022-05-10_19h32.13.107,Main,2022.1.1,61.10243462420419,
negative,positive,2,j,l,,,,,,,,,6,2,110,15,,,,,,,,,main,2,2,2,positive,negative,j,j,1,0.8124353000894189,369.72998659987934,370.7409459000919,370.7076032999903,None,369.72998659987934,None,369.72998659987934,None,369.72998659987934,None,371.54092531008644,None,371.54092531008644,None,371.54092531008644,None,,,,,,,,,,,,,,010,2022-05-10_19h32.13.107,Main,2022.1.1,61.10243462420419,
negative,positive,1,j,l,,,,,,,,,6,3,111,6,,,,,,,,,main,1,1,1,positive,negative,j,j,1,0.9982815000694245,371.54111459990963,372.54116120003164,372.54116120003164,None,371.54111459990963,None,371.54111459990963,None,371.54111459990963,None,373.5409326100256,None,373.5409326100256,None,373.5409326100256,None,,,,,,,,,,,,,,010,2022-05-10_19h32.13.107,Main,2022.1.1,61.10243462420419,
positive,negative,2,l,j,,,,,,,,,6,4,112,14,,,,,,,,,main,1,1,2,negative,positive,l,l,1,1.9488649000413716,373.54644789989106,374.56012269994244,374.5435355999507,None,373.54644789989106,None,373.54644789989106,None,373.54644789989106,None,376.49124670005403,None,376.49124670005403,None,376.49124670005403,None,,,,,,,,,,,,,,010,2022-05-10_19h32.13.107,Main,2022.1.1,61.10243462420419,
positive,positive,1,l,j,,,,,,,,,6,5,113,2,,,,,,,,,main,2,2,1,positive,positive,l,l,1,0.8344980999827385,377.4917429999914,378.49334909999743,378.47675830009393,None,377.4917429999914,None,377.4917429999914,None,377.4917429999914,None,379.3244131098967,None,379.3244131098967,None,379.3244131098967,None,,,,,,,,,,,,,,010,2022-05-10_19h32.13.107,Main,2022.1.1,61.10243462420419,
positive,neutral,2,l,j,,,,,,,,,6,6,114,17,,,,,,,,,main,2,2,2,neutral,positive,l,l,1,0.71465909993276,379.33107000007294,380.3432811999228,380.32669460005127,None,379.33107000007294,None,379.33107000007294,None,379.33107000007294,None,381.0410643099807,None,381.0410643099807,None,381.0410643099807,None,,,,,,,,,,,,,,010,2022-05-10_19h32.13.107,Main,2022.1.1,61.10243462420419,
neutral,positive,2,k,k,,,,,,,,,6,7,115,13,,,,,,,,,main,2,2,2,positive,neutral,k,k,1,0.6981707999948412,381.04662730009295,382.0570260998793,382.0400477000512,None,381.04662730009295,None,381.04662730009295,None,381.04662730009295,None,382.7406996100675,None,382.7406996100675,None,382.7406996100675,None,,,,,,,,,,,,,,010,2022-05-10_19h32.13.107,Main,2022.1.1,61.10243462420419,
neutral,neutral,1,k,k,,,,,,,,,6,8,116,1,,,,,,,,,main,1,1,1,neutral,neutral,k,k,1,0.8314720001071692,382.7406792000402,383.740668799961,383.740668799961,None,382.7406792000402,None,382.7406792000402,None,382.7406792000402,None,384.5740487099159,None,384.5740487099159,None,384.5740487099159,None,,,,,,,,,,,,,,010,2022-05-10_19h32.13.107,Main,2022.1.1,61.10243462420419,
positive,neutral,1,l,j,,,,,,,,,6,9,117,8,,,,,,,,,main,1,1,1,neutral,positive,l,l,1,0.8319558999501169,384.57800709991716,385.59322110004723,385.5599462999962,None,384.57800709991716,None,384.57800709991716,None,384.57800709991716,None,386.4076410099864,None,386.4076410099864,None,386.4076410099864,None,,,,,,,,,,,,,,010,2022-05-10_19h32.13.107,Main,2022.1.1,61.10243462420419,
negative,negative,2,j,l,,,,,,,,,6,10,118,9,,,,,,,,,main,2,2,2,negative,negative,j,j,1,0.848632900044322,386.4130217998754,387.4265654999763,387.4074218000751,None,386.4130217998754,None,386.4130217998754,None,386.4130217998754,None,388.2575908099301,None,388.2575908099301,None,388.2575908099301,None,,,,,,,,,,,,,,010,2022-05-10_19h32.13.107,Main,2022.1.1,61.10243462420419,
negative,neutral,1,j,l,,,,,,,,,6,11,119,3,,,,,,,,,main,1,1,1,neutral,negative,j,j,1,0.714874800061807,388.2630427000113,389.2764880999457,389.2598538000602,None,388.2630427000113,None,388.2630427000113,None,388.2630427000113,None,389.97420411007477,None,389.97420411007477,None,389.97420411007477,None,,,,,,,,,,,,,,010,2022-05-10_19h32.13.107,Main,2022.1.1,61.10243462420419,
neutral,neutral,2,k,k,,,,,,,,,6,12,120,10,,,,,,,,,main,1,1,2,neutral,neutral,k,k,1,0.74838209990412,389.97919390001334,390.9930414000992,390.9598324999679,None,389.97919390001334,None,389.97919390001334,None,389.97919390001334,None,391.72415030989794,None,391.72415030989794,None,391.72415030989794,None,,,,,,,,,,,,,,010,2022-05-10_19h32.13.107,Main,2022.1.1,61.10243462420419,
positive,negative,1,l,j,,,,,,,,,6,13,121,5,,,,,,,,,main,2,2,1,negative,positive,l,l,1,0.8314890000037849,391.7294042999856,392.7404728999827,392.7238125000149,None,391.7294042999856,None,391.7294042999856,None,391.7294042999856,None,393.55712460991924,None,393.55712460991924,None,393.55712460991924,None,,,,,,,,,,,,,,010,2022-05-10_19h32.13.107,Main,2022.1.1,61.10243462420419,
neutral,negative,2,k,k,,,,,,,,,6,14,122,16,,,,,,,,,main,2,2,2,negative,neutral,k,k,1,0.6998562999069691,393.55713149998337,394.55712980008684,394.55712980008684,None,393.55713149998337,None,393.55713149998337,None,393.55713149998337,None,395.2574524100404,None,395.2574524100404,None,395.2574524100404,None,,,,,,,,,,,,,,010,2022-05-10_19h32.13.107,Main,2022.1.1,61.10243462420419,
negative,negative,1,j,l,,,,,,,,,6,15,123,0,,,,,,,,,main,2,2,1,negative,negative,j,j,1,0.8304944999981672,395.26372610009275,396.27628570003435,396.2596593000926,None,395.26372610009275,None,395.26372610009275,None,395.26372610009275,None,397.09080541003493,None,397.09080541003493,None,397.09080541003493,None,,,,,,,,,,,,,,010,2022-05-10_19h32.13.107,Main,2022.1.1,61.10243462420419,
negative,neutral,2,j,l,,,,,,,,,6,16,124,12,,,,,,,,,main,1,1,2,neutral,negative,j,j,1,0.7985061001963913,397.0961358998902,398.10963000007905,398.07629620004445,None,397.0961358998902,None,397.0961358998902,None,397.0961358998902,None,398.8907886099536,None,398.8907886099536,None,398.8907886099536,None,,,,,,,,,,,,,,010,2022-05-10_19h32.13.107,Main,2022.1.1,61.10243462420419,
neutral,negative,1,k,k,,,,,,,,,6,17,125,7,,,,,,,,,main,2,2,1,negative,neutral,k,k,1,0.6839040000922978,398.8962473999709,399.90945059992373,399.8906680000946,None,398.8962473999709,None,398.8962473999709,None,398.8962473999709,None,400.5761895099189,None,400.5761895099189,None,400.5761895099189,None,,,,,,,,,,,,,,010,2022-05-10_19h32.13.107,Main,2022.1.1,61.10243462420419,
neutral,neutral,2,k,k,,,,,,,,,7,0,126,10,,,,,,,,,main,2,2,2,neutral,neutral,k,k,1,0.679459200007841,400.5801895998884,401.59281069994904,401.5762076000683,None,400.5801895998884,None,400.5801895998884,None,400.5801895998884,None,402.25728491004554,None,402.25728491004554,None,402.25728491004554,None,,,,,,,,,,,,,,010,2022-05-10_19h32.13.107,Main,2022.1.1,61.10243462420419,
positive,positive,2,l,j,,,,,,,,,7,1,127,11,,,,,,,,,main,1,1,2,positive,positive,l,l,1,0.7980601000599563,402.26312549994327,403.27267459989525,403.25669860001653,None,402.26312549994327,None,402.26312549994327,None,402.26312549994327,None,404.0568916100077,None,404.0568916100077,None,404.0568916100077,None,,,,,,,,,,,,,,010,2022-05-10_19h32.13.107,Main,2022.1.1,61.10243462420419,
neutral,positive,2,k,k,,,,,,,,,7,2,128,13,,,,,,,,,main,1,1,2,positive,neutral,k,k,1,0.7651819998864084,404.05688109993935,405.05686070001684,405.05686070001684,None,404.05688109993935,None,404.05688109993935,None,404.05688109993935,None,405.823591109924,None,405.823591109924,None,405.823591109924,None,,,,,,,,,,,,,,010,2022-05-10_19h32.13.107,Main,2022.1.1,61.10243462420419,
negative,negative,2,j,l,,,,,,,,,7,3,129,9,,,,,,,,,main,2,2,2,negative,negative,j,j,1,0.6983925001695752,405.8263443999458,406.8261263000313,406.8094897000119,None,405.8263443999458,None,405.8263443999458,None,405.8263443999458,None,407.52381670996544,None,407.52381670996544,None,407.52381670996544,None,,,,,,,,,,,,,,010,2022-05-10_19h32.13.107,Main,2022.1.1,61.10243462420419,
negative,neutral,2,j,l,,,,,,,,,7,4,130,12,,,,,,,,,main,2,2,2,neutral,negative,j,j,1,0.7986758998595178,407.5288770000916,408.54265789990313,408.50940819992684,None,407.5288770000916,None,407.5288770000916,None,407.5288770000916,None,409.32379120993426,None,409.32379120993426,None,409.32379120993426,None,,,,,,,,,,,,,,010,2022-05-10_19h32.13.107,Main,2022.1.1,61.10243462420419,
positive,neutral,2,l,j,,,,,,,,,7,5,131,17,,,,,,,,,main,2,2,2,neutral,positive,l,l,1,0.8807059000246227,409.33006100007333,410.342629800085,410.3260242000688,None,409.33006100007333,None,409.33006100007333,None,409.33006100007333,None,411.2067813098896,None,411.2067813098896,None,411.2067813098896,None,,,,,,,,,,,,,,010,2022-05-10_19h32.13.107,Main,2022.1.1,61.10243462420419,
negative,positive,2,j,l,,,,,,,,,7,6,132,15,,,,,,,,,main,2,2,2,positive,negative,j,j,1,0.8495396000798792,411.2102359000128,412.20709479996003,412.20709479996003,None,411.2102359000128,None,411.2102359000128,None,411.2102359000128,None,413.0571173099801,None,413.0571173099801,None,413.0571173099801,None,,,,,,,,,,,,,,010,2022-05-10_19h32.13.107,Main,2022.1.1,61.10243462420419,
neutral,neutral,1,k,k,,,,,,,,,7,7,133,1,,,,,,,,,main,1,1,1,neutral,neutral,k,k,1,0.7474235999397933,413.06304270005785,414.06242590001784,414.06242590001784,None,413.06304270005785,None,413.06304270005785,None,413.06304270005785,None,414.8066790100187,None,414.8066790100187,None,414.8066790100187,None,,,,,,,,,,,,,,010,2022-05-10_19h32.13.107,Main,2022.1.1,61.10243462420419,
neutral,negative,2,k,k,,,,,,,,,7,8,134,16,,,,,,,,,main,2,2,2,negative,neutral,k,k,1,0.6480785999447107,414.80675769993104,415.8066495999228,415.8066495999228,None,414.80675769993104,None,414.80675769993104,None,414.80675769993104,None,416.45668211006557,None,416.45668211006557,None,416.45668211006557,None,,,,,,,,,,,,,,010,2022-05-10_19h32.13.107,Main,2022.1.1,61.10243462420419,
negative,negative,1,j,l,,,,,,,,,7,9,135,0,,,,,,,,,main,2,2,1,negative,negative,j,j,1,0.8486706998664886,416.4616735999007,417.4737430999521,417.44267800007947,None,416.4616735999007,None,416.4616735999007,None,416.4616735999007,None,418.30696061006745,None,418.30696061006745,None,418.30696061006745,None,,,,,,,,,,,,,,010,2022-05-10_19h32.13.107,Main,2022.1.1,61.10243462420419,
positive,negative,1,l,j,,,,,,,,,7,10,136,5,,,,,,,,,main,1,1,1,negative,positive,l,l,1,0.9160133001860231,418.3124879000243,419.3257832999807,419.30924510001205,None,418.3124879000243,None,418.3124879000243,None,418.3124879000243,None,420.2235556099098,None,420.2235556099098,None,420.2235556099098,None,,,,,,,,,,,,,,010,2022-05-10_19h32.13.107,Main,2022.1.1,61.10243462420419,
positive,positive,1,l,j,,,,,,,,,7,11,137,2,,,,,,,,,main,2,2,1,positive,positive,l,l,1,0.7142265001311898,420.22763610002585,421.2424405000638,421.225823600078,None,420.22763610002585,None,420.22763610002585,None,420.22763610002585,None,421.94019691003484,None,421.94019691003484,None,421.94019691003484,None,,,,,,,,,,,,,,010,2022-05-10_19h32.13.107,Main,2022.1.1,61.10243462420419,
neutral,negative,1,k,k,,,,,,,,,7,12,138,7,,,,,,,,,main,2,2,1,negative,neutral,k,k,1,0.6307990001514554,421.94455299992114,422.9590088000987,422.9425178999081,None,421.94455299992114,None,421.94455299992114,None,421.94455299992114,None,423.5735753100365,None,423.5735753100365,None,423.5735753100365,None,,,,,,,,,,,,,,010,2022-05-10_19h32.13.107,Main,2022.1.1,61.10243462420419,
negative,neutral,1,j,l,,,,,,,,,7,13,139,3,,,,,,,,,main,1,1,1,neutral,negative,j,j,1,0.8810541001148522,423.5791636998765,424.5897931000218,424.5731321000494,None,423.5791636998765,None,423.5791636998765,None,423.5791636998765,None,425.4564448100049,None,425.4564448100049,None,425.4564448100049,None,,,,,,,,,,,,,,010,2022-05-10_19h32.13.107,Main,2022.1.1,61.10243462420419,
positive,negative,2,l,j,,,,,,,,,7,14,140,14,,,,,,,,,main,1,1,2,negative,positive,l,l,1,0.7988227000460029,425.4564483000431,426.4564743998926,426.4564743998926,None,425.4564483000431,None,425.4564483000431,None,425.4564483000431,None,427.25675210994666,None,427.25675210994666,None,427.25675210994666,None,,,,,,,,,,,,,,010,2022-05-10_19h32.13.107,Main,2022.1.1,61.10243462420419,
negative,positive,1,j,l,,,,,,,,,7,15,141,6,,,,,,,,,main,2,2,1,positive,negative,j,j,1,0.8985274999868125,427.2603652998805,428.27563109993935,428.2590026999824,None,427.2603652998805,None,427.2603652998805,None,427.2603652998805,None,429.1566999099217,None,429.1566999099217,None,429.1566999099217,None,,,,,,,,,,,,,,010,2022-05-10_19h32.13.107,Main,2022.1.1,61.10243462420419,
neutral,positive,1,k,k,,,,,,,,,7,16,142,4,,,,,,,,,main,1,1,1,positive,neutral,k,k,1,0.5984682999551296,429.16242619999684,430.17560669989325,430.1589305999223,None,429.16242619999684,None,429.16242619999684,None,429.16242619999684,None,430.75668281000105,None,430.75668281000105,None,430.75668281000105,None,,,,,,,,,,,,,,010,2022-05-10_19h32.13.107,Main,2022.1.1,61.10243462420419,
positive,neutral,1,l,j,,,,,,,,,7,17,143,8,,,,,,,,,main,2,2,1,neutral,positive,l,l,1,0.8315043000038713,430.7626461000182,431.77556640002877,431.75888089998625,None,430.7626461000182,None,430.7626461000182,None,430.7626461000182,None,432.58994821002705,None,432.58994821002705,None,432.58994821002705,None,,,,,,,,,,,,,,010,2022-05-10_19h32.13.107,Main,2022.1.1,61.10243462420419,
negative,positive,2,j,l,,,,,,,,,8,0,144,15,,,,,,,,,main,1,1,2,positive,negative,j,j,1,0.9140443000942469,432.594083199976,433.6088221000973,433.59220439987257,None,432.594083199976,None,432.594083199976,None,432.594083199976,None,434.5065821100492,None,434.5065821100492,None,434.5065821100492,None,,,,,,,,,,,,,,010,2022-05-10_19h32.13.107,Main,2022.1.1,61.10243462420419,
neutral,positive,1,k,k,,,,,,,,,8,1,145,4,,,,,,,,,main,1,1,1,positive,neutral,k,k,1,0.7148477002047002,434.51175669999793,435.5228967999574,435.5062243998982,None,434.51175669999793,None,434.51175669999793,None,434.51175669999793,None,436.22285431004127,None,436.22285431004127,None,436.22285431004127,None,,,,,,,,,,,,,,010,2022-05-10_19h32.13.107,Main,2022.1.1,61.10243462420419,
positive,negative,2,l,j,,,,,,,,,8,2,146,14,,,,,,,,,main,2,2,2,negative,positive,l,l,1,0.9653380000963807,436.2228635000065,437.22289160010405,437.22289160010405,None,436.2228635000065,None,436.2228635000065,None,436.2228635000065,None,438.18985281009225,None,438.18985281009225,None,438.18985281009225,None,,,,,,,,,,,,,,010,2022-05-10_19h32.13.107,Main,2022.1.1,61.10243462420419,
negative,neutral,2,j,l,,,,,,,,,8,3,147,12,,,,,,,,,main,2,2,2,neutral,negative,j,j,1,0.817217499949038,438.1954198998865,439.2088232000824,439.1921469999943,None,438.1954198998865,None,438.1954198998865,None,438.1954198998865,None,440.00878780996425,None,440.00878780996425,None,440.00878780996425,None,,,,,,,,,,,,,,010,2022-05-10_19h32.13.107,Main,2022.1.1,61.10243462420419,
positive,positive,2,l,j,,,,,,,,,8,4,148,11,,,,,,,,,main,2,2,2,positive,positive,l,l,1,0.812908299965784,440.01269840006717,441.0253337000031,441.0087228999473,None,440.01269840006717,None,440.01269840006717,None,440.01269840006717,None,441.82279461002906,None,441.82279461002906,None,441.82279461002906,None,,,,,,,,,,,,,,010,2022-05-10_19h32.13.107,Main,2022.1.1,61.10243462420419,
neutral,neutral,2,k,k,,,,,,,,,8,5,149,10,,,,,,,,,main,2,2,2,neutral,neutral,k,k,1,0.6983839001040906,441.82884619990364,442.8420223998837,442.8253973000683,None,441.82884619990364,None,441.82884619990364,None,441.82884619990364,None,443.5231017098762,None,443.5231017098762,None,443.5231017098762,None,,,,,,,,,,,,,,010,2022-05-10_19h32.13.107,Main,2022.1.1,61.10243462420419,
neutral,positive,2,k,k,,,,,,,,,8,6,150,13,,,,,,,,,main,2,2,2,positive,neutral,k,k,1,0.6152415000833571,443.52872990001924,444.5419594999403,444.5253693999257,None,443.52872990001924,None,443.52872990001924,None,443.52872990001924,None,445.13969561001284,None,445.13969561001284,None,445.13969561001284,None,,,,,,,,,,,,,,010,2022-05-10_19h32.13.107,Main,2022.1.1,61.10243462420419,
neutral,neutral,1,k,k,,,,,,,,,8,7,151,1,,,,,,,,,main,1,1,1,neutral,neutral,k,k,1,0.7977825000416487,445.14266959996894,446.1559856000822,446.1393180999439,None,445.14266959996894,None,445.14266959996894,None,445.14266959996894,None,446.93932161000555,None,446.93932161000555,None,446.93932161000555,None,,,,,,,,,,,,,,010,2022-05-10_19h32.13.107,Main,2022.1.1,61.10243462420419,
neutral,negative,2,k,k,,,,,,,,,8,8,152,16,,,,,,,,,main,1,1,2,negative,neutral,k,k,1,0.5317923000548035,446.9397277000826,447.9393277000636,447.9393277000636,None,446.9397277000826,None,446.9397277000826,None,446.9397277000826,None,448.47266440987585,None,448.47266440987585,None,448.47266440987585,None,,,,,,,,,,,,,,010,2022-05-10_19h32.13.107,Main,2022.1.1,61.10243462420419,
positive,negative,1,l,j,,,,,,,,,8,9,153,5,,,,,,,,,main,2,2,1,negative,positive,l,l,1,0.7160537000745535,448.47891049995087,449.4918495998718,449.45860860007815,None,448.47891049995087,None,448.47891049995087,None,448.47891049995087,None,450.1901022098958,None,450.1901022098958,None,450.1901022098958,None,,,,,,,,,,,,,,010,2022-05-10_19h32.13.107,Main,2022.1.1,61.10243462420419,
negative,negative,2,j,l,,,,,,,,,8,10,154,9,,,,,,,,,main,1,1,2,negative,negative,j,k,0,0.5811869997996837,450.19601069996133,451.20847869990394,451.1918846999761,None,450.19601069996133,None,450.19601069996133,None,450.19601069996133,None,451.7751493998803,None,451.7751493998803,None,451.7751493998803,None,,,,,,,,,,,,,,010,2022-05-10_19h32.13.107,Main,2022.1.1,61.10243462420419,
negative,neutral,1,j,l,,,,,,,,,8,11,155,3,,,,,,,,,main,1,1,1,neutral,negative,j,j,1,0.7675941998604685,452.773101599887,453.7750629000366,453.7584516000934,None,452.773101599887,None,452.773101599887,None,452.773101599887,None,454.53947270996866,None,454.53947270996866,None,454.53947270996866,None,,,,,,,,,,,,,,010,2022-05-10_19h32.13.107,Main,2022.1.1,61.10243462420419,
positive,neutral,1,l,j,,,,,,,,,8,12,156,8,,,,,,,,,main,1,1,1,neutral,positive,l,j,0,0.5811926000751555,454.54472770006396,455.55840369989164,455.5417297000531,None,454.54472770006396,None,454.54472770006396,None,454.54472770006396,None,456.1224436000921,None,456.1224436000921,None,456.1224436000921,None,,,,,,,,,,,,,,010,2022-05-10_19h32.13.107,Main,2022.1.1,61.10243462420419,
neutral,negative,1,k,k,,,,,,,,,8,13,157,7,,,,,,,,,main,2,2,1,negative,neutral,k,k,1,0.7363724999595433,457.12347749993205,458.13909969991073,458.122449999908,None,457.12347749993205,None,457.12347749993205,None,457.12347749993205,None,458.85608961000105,None,458.85608961000105,None,458.85608961000105,None,,,,,,,,,,,,,,010,2022-05-10_19h32.13.107,Main,2022.1.1,61.10243462420419,
negative,positive,1,j,l,,,,,,,,,8,14,158,6,,,,,,,,,main,1,1,1,positive,negative,j,j,1,0.7334947001654655,458.85992540000007,459.8749545000028,459.8583740000613,None,458.85992540000007,None,458.85992540000007,None,458.85992540000007,None,460.5917327099945,None,460.5917327099945,None,460.5917327099945,None,,,,,,,,,,,,,,010,2022-05-10_19h32.13.107,Main,2022.1.1,61.10243462420419,
negative,negative,1,j,l,,,,,,,,,8,15,159,0,,,,,,,,,main,1,1,1,negative,negative,j,j,1,0.731582400156185,460.5955960000865,461.608214299893,461.59160889987834,None,460.5955960000865,None,460.5955960000865,None,460.5955960000865,None,462.3248958099633,None,462.3248958099633,None,462.3248958099633,None,,,,,,,,,,,,,,010,2022-05-10_19h32.13.107,Main,2022.1.1,61.10243462420419,
positive,positive,1,l,j,,,,,,,,,8,16,160,2,,,,,,,,,main,2,2,1,positive,positive,l,l,1,0.6818666001781821,462.3279351000674,463.3414942000527,463.32492780010216,None,462.3279351000674,None,462.3279351000674,None,462.3279351000674,None,464.00828820988534,None,464.00828820988534,None,464.00828820988534,None,,,,,,,,,,,,,,010,2022-05-10_19h32.13.107,Main,2022.1.1,61.10243462420419,
positive,neutral,2,l,j,,,,,,,,,8,17,161,17,,,,,,,,,main,1,1,2,neutral,positive,l,l,1,0.74585279985331,464.012326200027,465.02486269990914,465.00827029999346,None,464.012326200027,None,464.012326200027,None,464.012326200027,None,465.7556100099813,None,465.7556100099813,None,465.7556100099813,None,,,,,,,,,,,,,,010,2022-05-10_19h32.13.107,Main,2022.1.1,61.10243462420419,
positive,neutral,2,l,j,,,,,,,,,9,0,162,17,,,,,,,,,main,1,1,2,neutral,positive,l,l,1,0.5806162999942899,465.75987680000253,466.7722346999217,466.7555954998825,None,465.75987680000253,None,465.75987680000253,None,465.75987680000253,None,467.33887260998597,None,467.33887260998597,None,467.33887260998597,None,,,,,,,,,,,,,,010,2022-05-10_19h32.13.107,Main,2022.1.1,61.10243462420419,
negative,neutral,1,j,l,,,,,,,,,9,1,163,3,,,,,,,,,main,1,1,1,neutral,negative,j,j,1,0.748503299895674,467.33885889989324,468.33888659998775,468.33888659998775,None,467.33885889989324,None,467.33885889989324,None,467.33885889989324,None,469.089190210076,None,469.089190210076,None,469.089190210076,None,,,,,,,,,,,,,,010,2022-05-10_19h32.13.107,Main,2022.1.1,61.10243462420419,
neutral,positive,2,k,k,,,,,,,,,9,2,164,13,,,,,,,,,main,1,1,2,positive,neutral,k,k,1,0.6317702999804169,469.0947082999628,470.1080869999714,470.0914507000707,None,469.0947082999628,None,469.0947082999628,None,469.0947082999628,None,470.7224835100118,None,470.7224835100118,None,470.7224835100118,None,,,,,,,,,,,,,,010,2022-05-10_19h32.13.107,Main,2022.1.1,61.10243462420419,
negative,positive,2,j,l,,,,,,,,,9,3,165,15,,,,,,,,,main,2,2,2,positive,negative,j,j,1,0.7650229998398572,470.72813900001347,471.7412846998777,471.72478180006146,None,470.72813900001347,None,470.72813900001347,None,470.72813900001347,None,472.4890986099839,None,472.4890986099839,None,472.4890986099839,None,,,,,,,,,,,,,,010,2022-05-10_19h32.13.107,Main,2022.1.1,61.10243462420419,
negative,positive,1,j,l,,,,,,,,,9,4,166,6,,,,,,,,,main,1,1,1,positive,negative,j,j,1,0.6481671999208629,472.4923936999403,473.5079031998757,473.49133230000734,None,472.4923936999403,None,472.4923936999403,None,472.4923936999403,None,474.13876440990714,None,474.13876440990714,None,474.13876440990714,None,,,,,,,,,,,,,,010,2022-05-10_19h32.13.107,Main,2022.1.1,61.10243462420419,
neutral,negative,1,k,k,,,,,,,,,9,5,167,7,,,,,,,,,main,2,2,1,negative,neutral,k,k,1,0.7313174000009894,474.1450147998985,475.1579352999106,475.1412994998973,None,474.1450147998985,None,474.1450147998985,None,474.1450147998985,None,475.8724705100525,None,475.8724705100525,None,475.8724705100525,None,,,,,,,,,,,,,,010,2022-05-10_19h32.13.107,Main,2022.1.1,61.10243462420419,
negative,negative,1,j,l,,,,,,,,,9,6,168,0,,,,,,,,,main,2,2,1,negative,negative,j,j,1,0.6968437999021262,475.8786746999249,476.89132079994306,476.8746446000878,None,475.8786746999249,None,475.8786746999249,None,475.8786746999249,None,477.5719974100124,None,477.5719974100124,None,477.5719974100124,None,,,,,,,,,,,,,,010,2022-05-10_19h32.13.107,Main,2022.1.1,61.10243462420419,
neutral,neutral,1,k,k,,,,,,,,,9,7,169,1,,,,,,,,,main,1,1,1,neutral,neutral,k,k,1,0.5650935000739992,477.5719995999243,478.57195040001534,478.57195040001534,None,477.5719995999243,None,477.5719995999243,None,477.5719995999243,None,479.1386744099203,None,479.1386744099203,None,479.1386744099203,None,,,,,,,,,,,,,,010,2022-05-10_19h32.13.107,Main,2022.1.1,61.10243462420419,
neutral,positive,1,k,k,,,,,,,,,9,8,170,4,,,,,,,,,main,1,1,1,positive,neutral,k,k,1,0.5986981000751257,479.1440159000922,480.1578808000777,480.1245426000096,None,479.1440159000922,None,479.1440159000922,None,479.1440159000922,None,480.73895130991,None,480.73895130991,None,480.73895130991,None,,,,,,,,,,,,,,010,2022-05-10_19h32.13.107,Main,2022.1.1,61.10243462420419,
positive,negative,2,l,j,,,,,,,,,9,9,171,14,,,,,,,,,main,1,1,2,negative,positive,l,l,1,0.7340815998613834,480.7441728000995,481.75781779992394,481.7411972999107,None,480.7441728000995,None,480.7441728000995,None,480.7441728000995,None,482.47449181005356,None,482.47449181005356,None,482.47449181005356,None,,,,,,,,,,,,,,010,2022-05-10_19h32.13.107,Main,2022.1.1,61.10243462420419,
positive,positive,1,l,j,,,,,,,,,9,10,172,2,,,,,,,,,main,1,1,1,positive,positive,l,l,1,0.7796999998390675,482.47755479998887,483.49116700002924,483.4745714000892,None,482.47755479998887,None,482.47755479998887,None,482.47755479998887,None,484.2555605099536,None,484.2555605099536,None,484.2555605099536,None,,,,,,,,,,,,,,010,2022-05-10_19h32.13.107,Main,2022.1.1,61.10243462420419,
positive,positive,2,l,j,,,,,,,,,9,11,173,11,,,,,,,,,main,2,2,2,positive,positive,l,l,1,0.864821300143376,484.25981409987435,485.2743448999245,485.2577621000819,None,484.25981409987435,None,484.25981409987435,None,484.25981409987435,None,486.1221305100247,None,486.1221305100247,None,486.1221305100247,None,,,,,,,,,,,,,,010,2022-05-10_19h32.13.107,Main,2022.1.1,61.10243462420419,
positive,negative,1,l,j,,,,,,,,,9,12,174,5,,,,,,,,,main,1,1,1,negative,positive,l,l,1,0.8146647000685334,486.1276636000257,487.1409199000336,487.1244155999739,None,486.1276636000257,None,486.1276636000257,None,486.1276636000257,None,487.9384436100721,None,487.9384436100721,None,487.9384436100721,None,,,,,,,,,,,,,,010,2022-05-10_19h32.13.107,Main,2022.1.1,61.10243462420419,
positive,neutral,1,l,j,,,,,,,,,9,13,175,8,,,,,,,,,main,2,2,1,neutral,positive,l,l,1,0.6483646999113262,487.9389700999018,488.9384139999747,488.9384139999747,None,487.9389700999018,None,487.9389700999018,None,487.9389700999018,None,489.58844240996984,None,489.58844240996984,None,489.58844240996984,None,,,,,,,,,,,,,,010,2022-05-10_19h32.13.107,Main,2022.1.1,61.10243462420419,
negative,negative,2,j,l,,,,,,,,,9,14,176,9,,,,,,,,,main,1,1,2,negative,negative,j,j,1,0.8651619998272508,489.59374619997106,490.60756899998523,490.5910525000654,None,489.59374619997106,None,489.59374619997106,None,489.59374619997106,None,491.45538770998826,None,491.45538770998826,None,491.45538770998826,None,,,,,,,,,,,,,,010,2022-05-10_19h32.13.107,Main,2022.1.1,61.10243462420419,
negative,neutral,2,j,l,,,,,,,,,9,15,177,12,,,,,,,,,main,2,2,2,neutral,negative,j,j,1,0.7808150998316705,491.46167259989306,492.4741992999334,492.457625299925,None,491.46167259989306,None,491.46167259989306,None,491.46167259989306,None,493.23865710999814,None,493.23865710999814,None,493.23865710999814,None,,,,,,,,,,,,,,010,2022-05-10_19h32.13.107,Main,2022.1.1,61.10243462420419,
neutral,negative,2,k,k,,,,,,,,,9,16,178,16,,,,,,,,,main,1,1,2,negative,neutral,k,k,1,0.6650898999068886,493.2416920000687,494.2408272998873,494.2243009998929,None,493.2416920000687,None,493.2416920000687,None,493.2416920000687,None,494.90531311007214,None,494.90531311007214,None,494.90531311007214,None,,,,,,,,,,,,,,010,2022-05-10_19h32.13.107,Main,2022.1.1,61.10243462420419,
neutral,neutral,2,k,k,,,,,,,,,9,17,179,10,,,,,,,,,main,1,1,2,neutral,neutral,k,k,1,0.5820184999611229,494.9092172998935,495.9241933999583,495.9075432000682,None,494.9092172998935,None,494.9092172998935,None,494.9092172998935,None,496.4885934100952,None,496.4885934100952,None,496.4885934100952,None,,,,,,,,,,,,,,010,2022-05-10_19h32.13.107,Main,2022.1.1,61.10243462420419,
negative,negative,1,j,l,,,,,,,,,10,0,180,0,,,,,,,,,main,2,2,1,negative,negative,j,j,1,0.7790107999462634,496.49205020000227,497.5074726000894,497.4907909000758,None,496.49205020000227,None,496.49205020000227,None,496.49205020000227,None,498.2651971099898,None,498.2651971099898,None,498.2651971099898,None,,,,,,,,,,,,,,010,2022-05-10_19h32.13.107,Main,2022.1.1,61.10243462420419,
neutral,negative,2,k,k,,,,,,,,,10,1,181,16,,,,,,,,,main,2,2,2,negative,neutral,k,k,1,0.583850699942559,498.2688092000317,499.27150849998,499.27150849998,None,498.2688092000317,None,498.2688092000317,None,498.2688092000317,None,499.85484170992856,None,499.85484170992856,None,499.85484170992856,None,,,,,,,,,,,,,,010,2022-05-10_19h32.13.107,Main,2022.1.1,61.10243462420419,
negative,negative,2,j,l,,,,,,,,,10,2,182,9,,,,,,,,,main,2,2,2,negative,negative,j,j,1,0.6821781999897212,499.8554225000553,500.8548890000675,500.8548890000675,None,499.8554225000553,None,499.8554225000553,None,499.8554225000553,None,501.53850411004385,None,501.53850411004385,None,501.53850411004385,None,,,,,,,,,,,,,,010,2022-05-10_19h32.13.107,Main,2022.1.1,61.10243462420419,
neutral,positive,1,k,k,,,,,,,,,10,3,183,4,,,,,,,,,main,1,1,1,positive,neutral,k,k,1,0.5985905001871288,501.54142299992964,502.5407288998831,502.5407288998831,None,501.54142299992964,None,501.54142299992964,None,501.54142299992964,None,503.13856230988165,None,503.13856230988165,None,503.13856230988165,None,,,,,,,,,,,,,,010,2022-05-10_19h32.13.107,Main,2022.1.1,61.10243462420419,
positive,neutral,1,l,j,,,,,,,,,10,4,184,8,,,,,,,,,main,1,1,1,neutral,positive,l,l,1,0.7483337998855859,503.1438013999723,504.15509589994326,504.14064070000313,None,503.1438013999723,None,503.1438013999723,None,503.1438013999723,None,504.8884166100528,None,504.8884166100528,None,504.8884166100528,None,,,,,,,,,,,,,,010,2022-05-10_19h32.13.107,Main,2022.1.1,61.10243462420419,
positive,positive,1,l,j,,,,,,,,,10,5,185,2,,,,,,,,,main,2,2,1,positive,positive,l,l,1,0.7339641998987645,504.8919897999149,505.9072507000528,505.89067790005356,None,504.8919897999149,None,504.8919897999149,None,504.8919897999149,None,506.62395070991477,None,506.62395070991477,None,506.62395070991477,None,,,,,,,,,,,,,,010,2022-05-10_19h32.13.107,Main,2022.1.1,61.10243462420419,
negative,neutral,1,j,l,,,,,,,,,10,6,186,3,,,,,,,,,main,1,1,1,neutral,negative,j,j,1,0.6982605000957847,506.626730900025,507.6406195999589,507.6239455998875,None,506.626730900025,None,506.626730900025,None,506.626730900025,None,508.32389810993334,None,508.32389810993334,None,508.32389810993334,None,,,,,,,,,,,,,,010,2022-05-10_19h32.13.107,Main,2022.1.1,61.10243462420419,
neutral,negative,1,k,k,,,,,,,,,10,7,187,7,,,,,,,,,main,2,2,1,negative,neutral,k,k,1,0.49608419998548925,508.3336777999066,509.3379816999659,509.3213043001015,None,508.3336777999066,None,508.3336777999066,None,508.3336777999066,None,509.8212998100556,None,509.8212998100556,None,509.8212998100556,None,,,,,,,,,,,,,,010,2022-05-10_19h32.13.107,Main,2022.1.1,61.10243462420419,
neutral,neutral,1,k,k,,,,,,,,,10,8,188,1,,,,,,,,,main,2,2,1,neutral,neutral,k,k,1,0.5486231001559645,509.8212979999371,510.82131240004674,510.82131240004674,None,509.8212979999371,None,509.8212979999371,None,509.8212979999371,None,511.3716117100324,None,511.3716117100324,None,511.3716117100324,None,,,,,,,,,,,,,,010,2022-05-10_19h32.13.107,Main,2022.1.1,61.10243462420419,
positive,negative,2,l,j,,,,,,,,,10,9,189,14,,,,,,,,,main,2,2,2,negative,positive,l,l,1,0.8666940999682993,511.37472740001976,512.3739116000943,512.3739116000943,None,511.37472740001976,None,511.37472740001976,None,511.37472740001976,None,513.2397729098797,None,513.2397729098797,None,513.2397729098797,None,,,,,,,,,,,,,,010,2022-05-10_19h32.13.107,Main,2022.1.1,61.10243462420419,
positive,neutral,2,l,j,,,,,,,,,10,10,190,17,,,,,,,,,main,1,1,2,neutral,positive,l,l,1,0.696874599903822,513.2451464999467,514.2570944000036,514.2404672000557,None,513.2451464999467,None,513.2451464999467,None,513.2451464999467,None,514.938189309882,None,514.938189309882,None,514.938189309882,None,,,,,,,,,,,,,,010,2022-05-10_19h32.13.107,Main,2022.1.1,61.10243462420419,
negative,positive,2,j,l,,,,,,,,,10,11,191,15,,,,,,,,,main,2,2,2,positive,negative,j,j,1,0.7328854999504983,514.9425188000314,515.9571598998737,515.9405485000461,None,514.9425188000314,None,514.9425188000314,None,514.9425188000314,None,516.673774609901,None,516.673774609901,None,516.673774609901,None,,,,,,,,,,,,,,010,2022-05-10_19h32.13.107,Main,2022.1.1,61.10243462420419,
positive,negative,1,l,j,,,,,,,,,10,12,192,5,,,,,,,,,main,1,1,1,negative,positive,l,l,1,0.8452709999401122,516.6775241999421,517.6904017999768,517.6738028000109,None,516.6775241999421,None,516.6775241999421,None,516.6775241999421,None,518.5214725100435,None,518.5214725100435,None,518.5214725100435,None,,,,,,,,,,,,,,010,2022-05-10_19h32.13.107,Main,2022.1.1,61.10243462420419,
negative,neutral,2,j,l,,,,,,,,,10,13,193,12,,,,,,,,,main,2,2,2,neutral,negative,j,j,1,0.7314971999730915,518.524605399929,519.5377599000931,519.521098600002,None,518.524605399929,None,518.524605399929,None,518.524605399929,None,520.2543829100672,None,520.2543829100672,None,520.2543829100672,None,,,,,,,,,,,,,,010,2022-05-10_19h32.13.107,Main,2022.1.1,61.10243462420419,
neutral,neutral,2,k,k,,,,,,,,,10,14,194,10,,,,,,,,,main,2,2,2,neutral,neutral,k,k,1,0.5317152000498027,520.2543909000233,521.2544140999671,521.2544140999671,None,520.2543909000233,None,520.2543909000233,None,520.2543909000233,None,521.7877752099652,None,521.7877752099652,None,521.7877752099652,None,,,,,,,,,,,,,,010,2022-05-10_19h32.13.107,Main,2022.1.1,61.10243462420419,
neutral,positive,2,k,k,,,,,,,,,10,15,195,13,,,,,,,,,main,1,1,2,positive,neutral,k,k,1,0.583016499876976,521.7907431998756,522.7902347000781,522.7737102999818,None,521.7907431998756,None,521.7907431998756,None,521.7907431998756,None,523.3721712099854,None,523.3721712099854,None,523.3721712099854,None,,,,,,,,,,,,,,010,2022-05-10_19h32.13.107,Main,2022.1.1,61.10243462420419,
negative,positive,1,j,l,,,,,,,,,10,16,196,6,,,,,,,,,main,1,1,1,positive,negative,j,j,1,0.8638838001061231,523.3781624999829,524.3902273999993,524.3736576000229,None,523.3781624999829,None,523.3781624999829,None,523.3781624999829,None,525.2379688099958,None,525.2379688099958,None,525.2379688099958,None,,,,,,,,,,,,,,010,2022-05-10_19h32.13.107,Main,2022.1.1,61.10243462420419,
positive,positive,2,l,j,,,,,,,,,10,17,197,11,,,,,,,,,main,2,2,2,positive,positive,l,l,1,0.815091600175947,525.2412797000725,526.256861400092,526.2402307000011,None,525.2412797000725,None,525.2412797000725,None,525.2412797000725,None,527.0545936099719,None,527.0545936099719,None,527.0545936099719,None,,,,,,,,,,,,,,010,2022-05-10_19h32.13.107,Main,2022.1.1,61.10243462420419,
negative,neutral,2,j,l,,,,,,,,,11,0,198,12,,,,,,,,,main,2,2,2,neutral,negative,j,j,1,0.8141836000140756,527.0607849999797,528.0733998999931,528.056895100046,None,527.0607849999797,None,527.0607849999797,None,527.0607849999797,None,528.8712696101051,None,528.8712696101051,None,528.8712696101051,None,,,,,,,,,,,,,,010,2022-05-10_19h32.13.107,Main,2022.1.1,61.10243462420419,
neutral,positive,1,k,k,,,,,,,,,11,1,199,4,,,,,,,,,main,2,2,1,positive,neutral,k,k,1,0.8151455000042915,528.8766377998982,529.8875412999187,529.87087600003,None,528.8766377998982,None,528.8766377998982,None,528.8766377998982,None,530.6875063100364,None,530.6875063100364,None,530.6875063100364,None,,,,,,,,,,,,,,010,2022-05-10_19h32.13.107,Main,2022.1.1,61.10243462420419,
positive,positive,2,l,j,,,,,,,,,11,2,200,11,,,,,,,,,main,1,1,2,positive,positive,l,l,1,0.931865300051868,530.6875070999376,531.6875358000398,531.6875358000398,None,530.6875070999376,None,530.6875070999376,None,530.6875070999376,None,532.6211635098792,None,532.6211635098792,None,532.6211635098792,None,,,,,,,,,,,,,,010,2022-05-10_19h32.13.107,Main,2022.1.1,61.10243462420419,
positive,positive,1,l,j,,,,,,,,,11,3,201,2,,,,,,,,,main,2,2,1,positive,positive,l,l,1,0.8647600000258535,532.6248661000282,533.6400144998915,533.6234575998969,None,532.6248661000282,None,532.6248661000282,None,532.6248661000282,None,534.487504009949,None,534.487504009949,None,534.487504009949,None,,,,,,,,,,,,,,010,2022-05-10_19h32.13.107,Main,2022.1.1,61.10243462420419,
positive,negative,2,l,j,,,,,,,,,11,4,202,14,,,,,,,,,main,2,2,2,negative,positive,l,l,1,0.8144318000413477,534.491749699926,535.5066430000588,535.490118799964,None,534.491749699926,None,534.491749699926,None,534.491749699926,None,536.3043973099906,None,536.3043973099906,None,536.3043973099906,None,,,,,,,,,,,,,,010,2022-05-10_19h32.13.107,Main,2022.1.1,61.10243462420419,
neutral,neutral,2,k,k,,,,,,,,,11,5,203,10,,,,,,,,,main,2,2,2,neutral,neutral,k,k,1,0.6983803999610245,536.3077616000082,537.3231963999569,537.3066459000111,None,536.3077616000082,None,536.3077616000082,None,536.3077616000082,None,538.0043794099241,None,538.0043794099241,None,538.0043794099241,None,,,,,,,,,,,,,,010,2022-05-10_19h32.13.107,Main,2022.1.1,61.10243462420419,
neutral,neutral,1,k,k,,,,,,,,,11,6,204,1,,,,,,,,,main,2,2,1,neutral,neutral,k,k,1,0.5982943999115378,538.0077508999966,539.0233006000053,539.0067092999816,None,538.0077508999966,None,538.0077508999966,None,538.0077508999966,None,539.604335409915,None,539.604335409915,None,539.604335409915,None,,,,,,,,,,,,,,010,2022-05-10_19h32.13.107,Main,2022.1.1,61.10243462420419,
negative,positive,1,j,l,,,,,,,,,11,7,205,6,,,,,,,,,main,1,1,1,positive,negative,j,j,1,0.7180611998774111,539.6074624999892,540.6206334000453,540.5873151998967,None,539.6074624999892,None,539.6074624999892,None,539.6074624999892,None,541.3205935099162,None,541.3205935099162,None,541.3205935099162,None,,,,,,,,,,,,,,010,2022-05-10_19h32.13.107,Main,2022.1.1,61.10243462420419,
neutral,negative,2,k,k,,,,,,,,,11,8,206,16,,,,,,,,,main,1,1,2,negative,neutral,k,k,1,0.695114100119099,541.3233932999428,542.3372426000424,542.3205832999665,None,541.3233932999428,None,541.3233932999428,None,541.3233932999428,None,543.0206240099855,None,543.0206240099855,None,543.0206240099855,None,,,,,,,,,,,,,,010,2022-05-10_19h32.13.107,Main,2022.1.1,61.10243462420419,
neutral,negative,1,k,k,,,,,,,,,11,9,207,7,,,,,,,,,main,1,1,1,negative,neutral,k,k,1,0.5818960000760853,543.0237131000031,544.0231699999422,544.0065929000266,None,543.0237131000031,None,543.0237131000031,None,543.0237131000031,None,544.6042454099282,None,544.6042454099282,None,544.6042454099282,None,,,,,,,,,,,,,,010,2022-05-10_19h32.13.107,Main,2022.1.1,61.10243462420419,
negative,positive,2,j,l,,,,,,,,,11,10,208,15,,,,,,,,,main,2,2,2,positive,negative,j,j,1,0.9152057999745011,544.6231098999269,545.6231251000427,545.5898285000585,None,544.6231098999269,None,544.6231098999269,None,544.6231098999269,None,546.5208405098878,None,546.5208405098878,None,546.5208405098878,None,,,,,,,,,,,,,,010,2022-05-10_19h32.13.107,Main,2022.1.1,61.10243462420419,
negative,negative,2,j,l,,,,,,,,,11,11,209,9,,,,,,,,,main,1,1,2,negative,negative,j,k,0,0.7149630000349134,546.5261238000821,547.5397431999445,547.5230857999995,None,546.5261238000821,None,546.5261238000821,None,546.5261238000821,None,548.2374620998744,None,548.2374620998744,None,548.2374620998744,None,,,,,,,,,,,,,,010,2022-05-10_19h32.13.107,Main,2022.1.1,61.10243462420419,
positive,neutral,2,l,j,,,,,,,,,11,12,210,17,,,,,,,,,main,1,1,2,neutral,positive,l,l,1,0.8511170998681337,549.2377931000665,550.2396022998728,550.2230529000517,None,549.2377931000665,None,549.2377931000665,None,549.2377931000665,None,551.0874270099215,None,551.0874270099215,None,551.0874270099215,None,,,,,,,,,,,,,,010,2022-05-10_19h32.13.107,Main,2022.1.1,61.10243462420419,
positive,neutral,1,l,j,,,,,,,,,11,13,211,8,,,,,,,,,main,1,1,1,neutral,positive,l,l,1,0.9814073999878019,551.0908323000185,552.1037250000518,552.0870673998725,None,551.0908323000185,None,551.0908323000185,None,551.0908323000185,None,553.0703862100839,None,553.0703862100839,None,553.0703862100839,None,,,,,,,,,,,,,,010,2022-05-10_19h32.13.107,Main,2022.1.1,61.10243462420419,
positive,negative,1,l,j,,,,,,,,,11,14,212,5,,,,,,,,,main,2,2,1,negative,positive,l,l,1,0.7654475001618266,553.070463999873,554.0730151000898,554.0730151000898,None,553.070463999873,None,553.070463999873,None,553.070463999873,None,554.8373473098967,None,554.8373473098967,None,554.8373473098967,None,,,,,,,,,,,,,,010,2022-05-10_19h32.13.107,Main,2022.1.1,61.10243462420419,
negative,neutral,1,j,l,,,,,,,,,11,15,213,3,,,,,,,,,main,1,1,1,neutral,negative,j,j,1,0.8049503001384437,554.840973299928,555.8562346999533,555.8396497999784,None,554.840973299928,None,554.840973299928,None,554.840973299928,None,556.6433409099467,None,556.6433409099467,None,556.6433409099467,None,,,,,,,,,,,,,,010,2022-05-10_19h32.13.107,Main,2022.1.1,61.10243462420419,
neutral,positive,2,k,k,,,,,,,,,11,16,214,13,,,,,,,,,main,2,2,2,positive,neutral,k,k,1,0.6093711999710649,556.6473818998784,557.6562471000943,557.6395990001038,None,556.6473818998784,None,556.6473818998784,None,556.6473818998784,None,558.2539530099369,None,558.2539530099369,None,558.2539530099369,None,,,,,,,,,,,,,,010,2022-05-10_19h32.13.107,Main,2022.1.1,61.10243462420419,
negative,negative,1,j,l,,,,,,,,,11,17,215,0,,,,,,,,,main,1,1,1,negative,negative,j,j,1,0.7806166000664234,558.2579916000832,559.2727928000968,559.2562211998738,None,558.2579916000832,None,558.2579916000832,None,558.2579916000832,None,560.0373489100951,None,560.0373489100951,None,560.0373489100951,None,,,,,,,,,,,,,,010,2022-05-10_19h32.13.107,Main,2022.1.1,61.10243462420419,
neutral,negative,1,k,k,,,,,,,,,12,0,216,7,,,,,,,,,main,2,2,1,negative,neutral,k,k,1,0.517095800023526,560.0429620000068,561.0561486999504,561.0395382998977,None,560.0429620000068,None,560.0429620000068,None,560.0429620000068,None,561.5559569099918,None,561.5559569099918,None,561.5559569099918,None,,,,,,,,,,,,,,010,2022-05-10_19h32.13.107,Main,2022.1.1,61.10243462420419,
neutral,neutral,2,k,k,,,,,,,,,12,1,217,10,,,,,,,,,main,2,2,2,neutral,neutral,k,k,1,0.7126100000459701,561.5590015000198,562.5701599998865,562.5534918000922,None,561.5590015000198,None,561.5590015000198,None,561.5590015000198,None,563.2701547100208,None,563.2701547100208,None,563.2701547100208,None,,,,,,,,,,,,,,010,2022-05-10_19h32.13.107,Main,2022.1.1,61.10243462420419,
positive,negative,2,l,j,,,,,,,,,12,2,218,14,,,,,,,,,main,1,1,2,negative,positive,l,l,1,0.8485166998580098,563.2701598999556,564.2701860999223,564.2701860999223,None,563.2701598999556,None,563.2701598999556,None,563.2701598999556,None,565.1204669099301,None,565.1204669099301,None,565.1204669099301,None,,,,,,,,,,,,,,010,2022-05-10_19h32.13.107,Main,2022.1.1,61.10243462420419,
neutral,negative,2,k,k,,,,,,,,,12,3,219,16,,,,,,,,,main,1,1,2,negative,neutral,k,k,1,0.6672265001107007,565.1231885999441,566.1226303998847,566.1060641000513,None,565.1231885999441,None,565.1231885999441,None,565.1231885999441,None,566.7892406099476,None,566.7892406099476,None,566.7892406099476,None,,,,,,,,,,,,,,010,2022-05-10_19h32.13.107,Main,2022.1.1,61.10243462420419,
positive,positive,1,l,j,,,,,,,,,12,4,220,2,,,,,,,,,main,2,2,1,positive,positive,l,l,1,0.7965102000162005,566.7920937999152,567.8060051000211,567.7893733000383,None,566.7920937999152,None,566.7920937999152,None,566.7920937999152,None,568.5871584099717,None,568.5871584099717,None,568.5871584099717,None,,,,,,,,,,,,,,010,2022-05-10_19h32.13.107,Main,2022.1.1,61.10243462420419,
negative,neutral,2,j,l,,,,,,,,,12,5,221,12,,,,,,,,,main,1,1,2,neutral,negative,j,j,1,0.7672374001704156,568.5932634999044,569.6058942999225,569.5893898999784,None,568.5932634999044,None,568.5932634999044,None,568.5932634999044,None,570.3560414100997,None,570.3560414100997,None,570.3560414100997,None,,,,,,,,,,,,,,010,2022-05-10_19h32.13.107,Main,2022.1.1,61.10243462420419,
neutral,positive,2,k,k,,,,,,,,,12,6,222,13,,,,,,,,,main,1,1,2,positive,neutral,k,k,1,0.5616958001628518,570.3598199000116,571.3724384999368,571.355893000029,None,570.3598199000116,None,570.3598199000116,None,570.3598199000116,None,571.9200891098939,None,571.9200891098939,None,571.9200891098939,None,,,,,,,,,,,,,,010,2022-05-10_19h32.13.107,Main,2022.1.1,61.10243462420419,
positive,negative,1,l,j,,,,,,,,,12,7,223,5,,,,,,,,,main,2,2,1,negative,positive,l,l,1,0.7150780998636037,571.9261203000788,572.936597699998,572.9199369000271,None,571.9261203000788,None,571.9261203000788,None,571.9261203000788,None,573.6366013100836,None,573.6366013100836,None,573.6366013100836,None,,,,,,,,,,,,,,010,2022-05-10_19h32.13.107,Main,2022.1.1,61.10243462420419,
