target,distractor,set,ans1,ans2,rep_loop2.thisRepN,rep_loop2.thisTrialN,rep_loop2.thisN,rep_loop2.thisIndex,flanker_prac_loop.thisRepN,flanker_prac_loop.thisTrialN,flanker_prac_loop.thisN,flanker_prac_loop.thisIndex,flanker_main_loop.thisRepN,flanker_main_loop.thisTrialN,flanker_main_loop.thisN,flanker_main_loop.thisIndex,fl_inst_resp.keys,fl_inst_resp.rt,sound_1.started,sound_1.stopped,image_4.started,image_4.stopped,back_2.started,back_2.stopped,main_prac,fl_cold,fl_colt,fl_set,fl_dcond,fl_tcond,fl_ans,fl_res,fl_corr,fl_rt,fix_fl.started,fix_fl.stopped,targ.started,targ.stopped,j_button.started,j_button.stopped,k_button.started,k_button.stopped,l_button.started,l_button.stopped,j_button2.started,j_button2.stopped,k_button2.started,k_button2.stopped,l_button2.started,l_button2.stopped,mainback.started,mainback.stopped,key_resp.keys,key_resp.rt,mouse_6.x,mouse_6.y,mouse_6.leftButton,mouse_6.midButton,mouse_6.rightButton,mouse_6.started,mouse_6.stopped,text_2.started,text_2.stopped,id*,date,expName,psychopyVersion,frameRate,
,,,,,0,0,0,0,,,,,,,,,space,59.09394249995239,17.9837359998608,None,77.09648509998806,None,,,,,,,,,,,,,,,,,,,,,,,,,,,,,,,,,,,,,,,,,,011,2022-05-11_13h47.24.989,Main,2022.1.1,61.41370670627083,
negative,positive,2,j,l,,,,,0,0,0,15,,,,,,,,,,,83.06568869994953,None,prac,1,1,2,positive,negative,l,l,1,1.9703189998399466,85.09922860004008,86.1129687000066,86.0796264000237,None,85.09922860004008,None,85.09922860004008,None,85.09922860004008,None,88.06434979988262,None,88.06434979988262,None,88.06434979988262,None,,,,,,,,,,,,,,011,2022-05-11_13h47.24.989,Main,2022.1.1,61.41370670627083,
positive,negative,1,l,j,,,,,0,1,1,5,,,,,,,,,,,,,prac,1,1,1,negative,positive,j,j,1,1.7701735999435186,89.06535549997352,90.06542399991304,90.04884049994871,None,89.06535549997352,None,89.06535549997352,None,89.06535549997352,None,91.83205999992788,None,91.83205999992788,None,91.83205999992788,None,,,,,,,,,,,,,,011,2022-05-11_13h47.24.989,Main,2022.1.1,61.41370670627083,
neutral,positive,2,k,k,,,,,0,2,2,13,,,,,,,,,,,,,prac,2,2,2,positive,neutral,k,k,1,0.7516892999410629,92.85786099988036,93.86343050003052,93.84675559983589,None,92.85786099988036,None,92.85786099988036,None,92.85786099988036,None,94.59673679999541,None,94.59673679999541,None,94.59673679999541,None,,,,,,,,,,,,,,011,2022-05-11_13h47.24.989,Main,2022.1.1,61.41370670627083,
neutral,positive,1,k,k,,,,,0,3,3,4,,,,,,,,,,,,,prac,2,2,1,positive,neutral,k,k,1,0.8487935001030564,94.61043759994209,95.61339790001512,95.59675180003978,None,94.61043759994209,None,94.61043759994209,None,94.61043759994209,None,96.44605989994015,None,96.44605989994015,None,96.44605989994015,None,,,,,,,,,,,,,,011,2022-05-11_13h47.24.989,Main,2022.1.1,61.41370670627083,
negative,neutral,2,j,l,,,,,0,4,4,12,,,,,,,,,,,,,prac,2,2,2,neutral,negative,l,l,1,2.017904599895701,96.45113209984265,97.46311270003207,97.44629239989445,None,96.45113209984265,None,96.45113209984265,None,96.45113209984265,None,99.46532760001719,None,99.46532760001719,None,99.46532760001719,None,,,,,,,,,,,,,,011,2022-05-11_13h47.24.989,Main,2022.1.1,61.41370670627083,
positive,positive,2,l,j,,,,,0,5,5,11,,,,,,,,,,,,,prac,1,1,2,positive,positive,j,j,1,0.9703836999833584,100.4633523998782,101.46525619993918,101.44858710002154,None,100.4633523998782,None,100.4633523998782,None,100.4633523998782,None,102.43177129987161,None,102.43177129987161,None,102.43177129987161,None,,,,,,,,,,,,,,011,2022-05-11_13h47.24.989,Main,2022.1.1,61.41370670627083,
positive,negative,2,l,j,,,,,0,6,6,14,,,,,,,,,,,,,prac,2,2,2,negative,positive,j,j,1,0.8645365999545902,102.45029189996421,103.46520279999822,103.43186969985254,None,102.45029189996421,None,102.45029189996421,None,102.45029189996421,None,104.29842700001318,None,104.29842700001318,None,104.29842700001318,None,,,,,,,,,,,,,,011,2022-05-11_13h47.24.989,Main,2022.1.1,61.41370670627083,
negative,negative,1,j,l,,,,,0,7,7,0,,,,,,,,,,,,,prac,2,2,1,negative,negative,l,l,1,0.8528084999416023,104.31547279981896,105.31510489992797,105.2985206998419,None,104.31547279981896,None,104.31547279981896,None,104.31547279981896,None,106.15132220003288,None,106.15132220003288,None,106.15132220003288,None,,,,,,,,,,,,,,011,2022-05-11_13h47.24.989,Main,2022.1.1,61.41370670627083,
neutral,neutral,1,k,k,,,,,0,8,8,1,,,,,,,,,,,,,prac,2,2,1,neutral,neutral,k,k,1,0.558956699911505,106.1590718999505,107.16250510001555,107.14583859988488,None,106.1590718999505,None,106.1590718999505,None,106.1590718999505,None,107.71249679995235,None,107.71249679995235,None,107.71249679995235,None,,,,,,,,,,,,,,011,2022-05-11_13h47.24.989,Main,2022.1.1,61.41370670627083,
neutral,neutral,2,k,k,,,,,0,9,9,10,,,,,,,,,,,,,prac,2,2,2,neutral,neutral,k,k,1,0.518063300056383,107.71249730000272,108.71510199992917,108.69850549986586,None,107.71249730000272,None,107.71249730000272,None,107.71249730000272,None,109.2317010998493,None,109.2317010998493,None,109.2317010998493,None,,,,,,,,,,,,,,011,2022-05-11_13h47.24.989,Main,2022.1.1,61.41370670627083,
negative,positive,1,j,l,,,,,0,10,10,6,,,,,,,,,,,,,prac,1,1,1,positive,negative,l,l,1,0.8130501999985427,109.24759059981443,110.24833830003627,110.23175989999436,None,109.24759059981443,None,109.24759059981443,None,109.24759059981443,None,111.04611079983879,None,111.04611079983879,None,111.04611079983879,None,,,,,,,,,,,,,,011,2022-05-11_13h47.24.989,Main,2022.1.1,61.41370670627083,
positive,neutral,1,l,j,,,,,0,11,11,8,,,,,,,,,,,,,prac,2,2,1,neutral,positive,j,j,1,0.9487826998811215,111.0650390998926,112.06496339989826,112.04842889984138,None,111.0650390998926,None,111.0650390998926,None,111.0650390998926,None,112.99607909990009,None,112.99607909990009,None,112.99607909990009,None,,,,,,,,,,,,,,011,2022-05-11_13h47.24.989,Main,2022.1.1,61.41370670627083,
positive,positive,1,l,j,,,,,0,12,12,2,,,,,,,,,,,,,prac,1,1,1,positive,positive,j,j,1,0.48158479994162917,112.99907010002062,113.99822419998236,113.99822419998236,None,112.99907010002062,None,112.99907010002062,None,112.99907010002062,None,114.47941249988507,None,114.47941249988507,None,114.47941249988507,None,,,,,,,,,,,,,,011,2022-05-11_13h47.24.989,Main,2022.1.1,61.41370670627083,
negative,negative,2,j,l,,,,,0,13,13,9,,,,,,,,,,,,,prac,2,2,2,negative,negative,l,l,1,0.6654910000506788,114.48311359994113,115.49825969990343,115.46493180003017,None,114.48311359994113,None,114.48311359994113,None,114.48311359994113,None,116.14598690003622,None,116.14598690003622,None,116.14598690003622,None,,,,,,,,,,,,,,011,2022-05-11_13h47.24.989,Main,2022.1.1,61.41370670627083,
neutral,negative,1,k,k,,,,,0,14,14,7,,,,,,,,,,,,,prac,1,1,1,negative,neutral,k,k,1,0.6151068999897689,116.16000579996035,117.16229929984547,117.14562730002217,None,116.16000579996035,None,116.16000579996035,None,116.16000579996035,None,117.76227179991547,None,117.76227179991547,None,117.76227179991547,None,,,,,,,,,,,,,,011,2022-05-11_13h47.24.989,Main,2022.1.1,61.41370670627083,
negative,neutral,1,j,l,,,,,0,15,15,3,,,,,,,,,,,,,prac,1,1,1,neutral,negative,l,l,1,0.8320152000524104,117.7690429999493,118.7789252998773,118.76226509991102,None,117.7690429999493,None,117.7690429999493,None,117.7690429999493,None,119.59561539983842,None,119.59561539983842,None,119.59561539983842,None,,,,,,,,,,,,,,011,2022-05-11_13h47.24.989,Main,2022.1.1,61.41370670627083,
positive,neutral,2,l,j,,,,,0,16,16,17,,,,,,,,,,,,,prac,2,2,2,neutral,positive,j,j,1,1.6849748000968248,119.59833760000765,120.5981930999551,120.58161200000905,None,119.59833760000765,None,119.59833760000765,None,119.59833760000765,None,122.2814457998611,None,122.2814457998611,None,122.2814457998611,None,,,,,,,,,,,,,,011,2022-05-11_13h47.24.989,Main,2022.1.1,61.41370670627083,
neutral,negative,2,k,k,,,,,0,17,17,16,,,,,,,,,,,,,prac,2,2,2,negative,neutral,k,k,1,0.8868658998981118,123.27913379995152,124.28143349988386,124.26474469993263,None,123.27913379995152,None,123.27913379995152,None,123.27913379995152,None,125.16461709986906,None,125.16461709986906,None,125.16461709986906,None,,,,,,,,,,,,,,011,2022-05-11_13h47.24.989,Main,2022.1.1,61.41370670627083,
neutral,negative,1,k,k,,,,,1,0,18,7,,,,,,,,,,,,,prac,1,1,1,negative,neutral,k,k,1,0.6785629000514746,125.16861119982786,126.18138169986196,126.16472809994593,None,125.16861119982786,None,125.16861119982786,None,125.16861119982786,None,126.84579189990181,None,126.84579189990181,None,126.84579189990181,None,,,,,,,,,,,,,,011,2022-05-11_13h47.24.989,Main,2022.1.1,61.41370670627083,
negative,negative,1,j,l,,,,,1,1,19,0,,,,,,,,,,,,,prac,2,2,1,negative,negative,l,l,1,1.0152026999276131,126.85190330003388,127.86207379982807,127.84540260001086,None,126.85190330003388,None,126.85190330003388,None,126.85190330003388,None,128.86204670004082,None,128.86204670004082,None,128.86204670004082,None,,,,,,,,,,,,,,011,2022-05-11_13h47.24.989,Main,2022.1.1,61.41370670627083,
positive,negative,2,l,j,,,,,1,2,20,14,,,,,,,,,,,,,prac,1,1,2,negative,positive,j,j,1,0.697799599962309,128.87748739984818,129.87889779987745,129.86467529996298,None,128.87748739984818,None,128.87748739984818,None,128.87748739984818,None,130.56237240002957,None,130.56237240002957,None,130.56237240002957,None,,,,,,,,,,,,,,011,2022-05-11_13h47.24.989,Main,2022.1.1,61.41370670627083,
neutral,neutral,2,k,k,,,,,1,3,21,10,,,,,,,,,,,,,prac,1,1,2,neutral,neutral,k,k,1,0.6511222999542952,130.56869889982045,131.58122369996272,131.56461360002868,None,130.56869889982045,None,130.56869889982045,None,130.56869889982045,None,132.21455119999592,None,132.21455119999592,None,132.21455119999592,None,,,,,,,,,,,,,,011,2022-05-11_13h47.24.989,Main,2022.1.1,61.41370670627083,
positive,positive,2,l,j,,,,,1,4,22,11,,,,,,,,,,,,,prac,1,1,2,positive,positive,j,j,1,0.8665728999767452,132.21697680000216,133.2312453999184,133.21465489990078,None,132.21697680000216,None,132.21697680000216,None,132.21697680000216,None,134.082146699843,None,134.082146699843,None,134.082146699843,None,,,,,,,,,,,,,,011,2022-05-11_13h47.24.989,Main,2022.1.1,61.41370670627083,
neutral,positive,2,k,k,,,,,1,5,23,13,,,,,,,,,,,,,prac,2,2,2,positive,neutral,k,k,1,0.678558399900794,134.08574349991977,135.09784039994702,135.08121429989114,None,134.08574349991977,None,134.08574349991977,None,134.08574349991977,None,135.76223429997918,None,135.76223429997918,None,135.76223429997918,None,,,,,,,,,,,,,,011,2022-05-11_13h47.24.989,Main,2022.1.1,61.41370670627083,
positive,neutral,1,l,j,,,,,1,6,24,8,,,,,,,,,,,,,prac,2,2,1,neutral,positive,j,j,1,0.881612999830395,135.76616450003348,136.77888849982992,136.76452269987203,None,135.76616450003348,None,135.76616450003348,None,135.76616450003348,None,137.64525670006407,None,137.64525670006407,None,137.64525670006407,None,,,,,,,,,,,,,,011,2022-05-11_13h47.24.989,Main,2022.1.1,61.41370670627083,
positive,negative,1,l,j,,,,,1,7,25,5,,,,,,,,,,,,,prac,1,1,1,negative,positive,j,j,1,0.615621899953112,137.65062129986472,138.6618349000346,138.64517289982177,None,137.65062129986472,None,137.65062129986472,None,137.65062129986472,None,139.26182820003015,None,139.26182820003015,None,139.26182820003015,None,,,,,,,,,,,,,,011,2022-05-11_13h47.24.989,Main,2022.1.1,61.41370670627083,
negative,positive,1,j,l,,,,,1,8,26,6,,,,,,,,,,,,,prac,1,1,1,positive,negative,l,l,1,0.7982972001191229,139.26213749987073,140.26185350003652,140.26185350003652,None,139.26213749987073,None,139.26213749987073,None,139.26213749987073,None,141.0621580999112,None,141.0621580999112,None,141.0621580999112,None,,,,,,,,,,,,,,011,2022-05-11_13h47.24.989,Main,2022.1.1,61.41370670627083,
negative,neutral,2,j,l,,,,,1,9,27,12,,,,,,,,,,,,,prac,2,2,2,neutral,negative,l,l,1,0.6654154998250306,141.06532309995964,142.06440489995293,142.06440489995293,None,141.06532309995964,None,141.06532309995964,None,141.06532309995964,None,142.7287895000307,None,142.7287895000307,None,142.7287895000307,None,,,,,,,,,,,,,,011,2022-05-11_13h47.24.989,Main,2022.1.1,61.41370670627083,
positive,neutral,2,l,j,,,,,1,10,28,17,,,,,,,,,,,,,prac,1,1,2,neutral,positive,j,j,1,0.7647444999311119,142.7327454998158,143.74774120002985,143.73112239991315,None,142.7327454998158,None,142.7327454998158,None,142.7327454998158,None,144.4957701999927,None,144.4957701999927,None,144.4957701999927,None,,,,,,,,,,,,,,011,2022-05-11_13h47.24.989,Main,2022.1.1,61.41370670627083,
neutral,positive,1,k,k,,,,,1,11,29,4,,,,,,,,,,,,,prac,1,1,1,positive,neutral,k,k,1,0.6483825000468642,144.50132339983247,145.51425849995576,145.48104640003294,None,144.50132339983247,None,144.50132339983247,None,144.50132339983247,None,146.14536120004487,None,146.14536120004487,None,146.14536120004487,None,,,,,,,,,,,,,,011,2022-05-11_13h47.24.989,Main,2022.1.1,61.41370670627083,
negative,neutral,1,j,l,,,,,1,12,30,3,,,,,,,,,,,,,prac,1,1,1,neutral,negative,l,l,1,0.7830805000849068,146.14801259990782,147.14758330001496,147.13101469981484,None,146.14801259990782,None,146.14801259990782,None,146.14801259990782,None,147.9286582000321,None,147.9286582000321,None,147.9286582000321,None,,,,,,,,,,,,,,011,2022-05-11_13h47.24.989,Main,2022.1.1,61.41370670627083,
negative,positive,2,j,l,,,,,1,13,31,15,,,,,,,,,,,,,prac,2,2,2,positive,negative,l,l,1,0.6141115000937134,147.93273500003852,148.9449440999888,148.92829239997081,None,147.93273500003852,None,147.93273500003852,None,147.93273500003852,None,149.54494349991438,None,149.54494349991438,None,149.54494349991438,None,,,,,,,,,,,,,,011,2022-05-11_13h47.24.989,Main,2022.1.1,61.41370670627083,
neutral,neutral,1,k,k,,,,,1,14,32,1,,,,,,,,,,,,,prac,2,2,1,neutral,neutral,k,k,1,0.7511789998970926,149.54494059993885,150.54496830003336,150.54496830003336,None,149.54494059993885,None,149.54494059993885,None,149.54494059993885,None,151.29742859986146,None,151.29742859986146,None,151.29742859986146,None,,,,,,,,,,,,,,011,2022-05-11_13h47.24.989,Main,2022.1.1,61.41370670627083,
positive,positive,1,l,j,,,,,1,15,33,2,,,,,,,,,,,,,prac,2,2,1,positive,positive,j,j,1,0.6654589998070151,151.3001017998904,152.31416369997896,152.29759109998122,None,151.3001017998904,None,151.3001017998904,None,151.3001017998904,None,152.9641105999006,None,152.9641105999006,None,152.9641105999006,None,,,,,,,,,,,,,,011,2022-05-11_13h47.24.989,Main,2022.1.1,61.41370670627083,
negative,negative,2,j,l,,,,,1,16,34,9,,,,,,,,,,,,,prac,1,1,2,negative,negative,l,l,1,0.732066199881956,152.9664330999367,153.9785336998757,153.96416189987212,None,152.9664330999367,None,152.9664330999367,None,152.9664330999367,None,154.69740529994016,None,154.69740529994016,None,154.69740529994016,None,,,,,,,,,,,,,,011,2022-05-11_13h47.24.989,Main,2022.1.1,61.41370670627083,
neutral,negative,2,k,k,,,,,1,17,35,16,,,,,,,,,,,,,prac,1,1,2,negative,neutral,k,k,1,0.6984553001821041,154.70795749989338,155.71411499986425,155.6974919999484,None,154.70795749989338,None,154.70795749989338,None,154.70795749989338,None,156.3973726998782,None,156.3973726998782,None,156.3973726998782,None,,,,,,,,,,,,,,011,2022-05-11_13h47.24.989,Main,2022.1.1,61.41370670627083,
,,,,,,,,,,,,,,,,,,,,,,,,,,,,,,,,,,,,,,,,,,,,,,,,,,,156.39735709992237,None,space,4.911427699960768,,,,,,,,,,011,2022-05-11_13h47.24.989,Main,2022.1.1,61.41370670627083,
,,,,,,,,,,,,,,,,,,,,,,,,,,,,,,,,,,,,,,,,,,,,,,,,,,,,,,,0.17222223,-0.072222225,0,0,0,0.011280899867415428,None,,,011,2022-05-11_13h47.24.989,Main,2022.1.1,61.41370670627083,
positive,positive,2,l,j,,,,,,,,,0,0,0,11,,,,,,,161.32812980003655,None,main,2,2,2,positive,positive,j,j,1,1.0454039999749511,163.33465750003234,164.3475702998694,164.33068179991096,None,163.33465750003234,None,163.33465750003234,None,163.33465750003234,None,165.37849039987196,None,165.37849039987196,None,165.37849039987196,None,,,,,,,,,,,,,,011,2022-05-11_13h47.24.989,Main,2022.1.1,61.41370670627083,
neutral,negative,1,k,k,,,,,,,,,0,1,1,7,,,,,,,,,main,1,1,1,negative,neutral,k,k,1,0.6468974000308663,165.38272699993104,166.39512209990062,166.38073159987107,None,165.38272699993104,None,165.38272699993104,None,165.38272699993104,None,167.02822979988997,None,167.02822979988997,None,167.02822979988997,None,,,,,,,,,,,,,,011,2022-05-11_13h47.24.989,Main,2022.1.1,61.41370670627083,
negative,neutral,2,j,l,,,,,,,,,0,2,2,12,,,,,,,,,main,2,2,2,neutral,negative,l,l,1,0.681729800067842,167.0319540000055,168.04706549993716,168.02821179991588,None,167.0319540000055,None,167.0319540000055,None,167.0319540000055,None,168.71153990000022,None,168.71153990000022,None,168.71153990000022,None,,,,,,,,,,,,,,011,2022-05-11_13h47.24.989,Main,2022.1.1,61.41370670627083,
negative,positive,2,j,l,,,,,,,,,0,3,3,15,,,,,,,,,main,2,2,2,positive,negative,l,l,1,0.614037600113079,168.71556699997745,169.7308332999237,169.71383149991743,None,168.71556699997745,None,168.71556699997745,None,168.71556699997745,None,170.32784529991915,None,170.32784529991915,None,170.32784529991915,None,,,,,,,,,,,,,,011,2022-05-11_13h47.24.989,Main,2022.1.1,61.41370670627083,
negative,positive,1,j,l,,,,,,,,,0,4,4,6,,,,,,,,,main,2,2,1,positive,negative,l,l,1,0.5817299000918865,170.3287448999472,171.32825369993225,171.32825369993225,None,170.3287448999472,None,170.3287448999472,None,170.3287448999472,None,171.91136239988265,None,171.91136239988265,None,171.91136239988265,None,,,,,,,,,,,,,,011,2022-05-11_13h47.24.989,Main,2022.1.1,61.41370670627083,
positive,neutral,1,l,j,,,,,,,,,0,5,5,8,,,,,,,,,main,2,2,1,neutral,positive,j,j,1,0.48351469985209405,171.91270320001058,172.91375609999523,172.91375609999523,None,171.91270320001058,None,171.91270320001058,None,171.91270320001058,None,173.39732749999968,None,173.39732749999968,None,173.39732749999968,None,,,,,,,,,,,,,,011,2022-05-11_13h47.24.989,Main,2022.1.1,61.41370670627083,
negative,negative,2,j,l,,,,,,,,,0,6,6,9,,,,,,,,,main,1,1,2,negative,negative,l,,0,0.7509101999457926,173.40179659985006,174.4137524999678,174.39510899991728,None,173.40179659985006,None,173.40179659985006,None,173.40179659985006,None,175.14798099990003,None,175.14798099990003,None,175.14798099990003,None,,,,,,,,,,,,,,011,2022-05-11_13h47.24.989,Main,2022.1.1,61.41370670627083,
positive,positive,1,l,j,,,,,,,,,0,7,7,2,,,,,,,,,main,2,2,1,positive,positive,j,j,1,0.9867157998960465,176.16324939997867,177.16167569998652,177.14698089985177,None,176.16324939997867,None,176.16324939997867,None,176.16324939997867,None,178.14681439993439,None,178.14681439993439,None,178.14681439993439,None,,,,,,,,,,,,,,011,2022-05-11_13h47.24.989,Main,2022.1.1,61.41370670627083,
positive,negative,2,l,j,,,,,,,,,0,8,8,14,,,,,,,,,main,1,1,2,negative,positive,j,j,1,0.7980045999865979,178.1501853999216,179.16353349993005,179.14693099982105,None,178.1501853999216,None,178.1501853999216,None,178.1501853999216,None,179.9469259998994,None,179.9469259998994,None,179.9469259998994,None,,,,,,,,,,,,,,011,2022-05-11_13h47.24.989,Main,2022.1.1,61.41370670627083,
negative,neutral,1,j,l,,,,,,,,,0,9,9,3,,,,,,,,,main,2,2,1,neutral,negative,l,l,1,0.6125539999920875,179.9499045999255,180.9609578999225,180.94451239984483,None,179.9499045999255,None,179.9499045999255,None,179.9499045999255,None,181.5609148999909,None,181.5609148999909,None,181.5609148999909,None,,,,,,,,,,,,,,011,2022-05-11_13h47.24.989,Main,2022.1.1,61.41370670627083,
neutral,neutral,1,k,k,,,,,,,,,0,10,10,1,,,,,,,,,main,1,1,1,neutral,neutral,k,k,1,0.7144407001323998,181.56167729990557,182.56098089995794,182.56098089995794,None,181.56167729990557,None,181.56167729990557,None,181.56167729990557,None,183.27794649994468,None,183.27794649994468,None,183.27794649994468,None,,,,,,,,,,,,,,011,2022-05-11_13h47.24.989,Main,2022.1.1,61.41370670627083,
positive,negative,1,l,j,,,,,,,,,0,11,11,5,,,,,,,,,main,1,1,1,negative,positive,j,j,1,0.6838324000127614,183.28200939996168,184.29716169997118,184.28021009988151,None,183.28200939996168,None,183.28200939996168,None,183.28200939996168,None,184.96340239986313,None,184.96340239986313,None,184.96340239986313,None,,,,,,,,,,,,,,011,2022-05-11_13h47.24.989,Main,2022.1.1,61.41370670627083,
neutral,negative,2,k,k,,,,,,,,,0,12,12,16,,,,,,,,,main,1,1,2,negative,neutral,k,k,1,0.42995329992845654,184.96575489989482,185.9801385998726,185.96147309988737,None,184.96575489989482,None,184.96575489989482,None,184.96575489989482,None,186.3947794999229,None,186.3947794999229,None,186.3947794999229,None,,,,,,,,,,,,,,011,2022-05-11_13h47.24.989,Main,2022.1.1,61.41370670627083,
positive,neutral,2,l,j,,,,,,,,,0,13,13,17,,,,,,,,,main,2,2,2,neutral,positive,j,j,1,0.6501344998832792,186.39840529998764,187.41345330001786,187.3949498999864,None,186.39840529998764,None,186.39840529998764,None,186.39840529998764,None,188.0465118999826,None,188.0465118999826,None,188.0465118999826,None,,,,,,,,,,,,,,011,2022-05-11_13h47.24.989,Main,2022.1.1,61.41370670627083,
neutral,neutral,2,k,k,,,,,,,,,0,14,14,10,,,,,,,,,main,2,2,2,neutral,neutral,k,k,1,0.614939299877733,188.04960569995455,189.06329339998774,189.0444245999679,None,188.04960569995455,None,188.04960569995455,None,188.04960569995455,None,189.6632245998597,None,189.6632245998597,None,189.6632245998597,None,,,,,,,,,,,,,,011,2022-05-11_13h47.24.989,Main,2022.1.1,61.41370670627083,
neutral,positive,1,k,k,,,,,,,,,0,15,15,4,,,,,,,,,main,2,2,1,positive,neutral,k,k,1,0.6126681000459939,189.66695289989002,190.67704380000941,190.65976760000922,None,189.66695289989002,None,189.66695289989002,None,189.66695289989002,None,191.27737810004038,None,191.27737810004038,None,191.27737810004038,None,,,,,,,,,,,,,,011,2022-05-11_13h47.24.989,Main,2022.1.1,61.41370670627083,
negative,negative,1,j,l,,,,,,,,,0,16,16,0,,,,,,,,,main,2,2,1,negative,negative,l,l,1,0.598469799850136,191.27737719984725,192.2773734999355,192.2773734999355,None,191.27737719984725,None,191.27737719984725,None,191.27737719984725,None,192.8774146000622,None,192.8774146000622,None,192.8774146000622,None,,,,,,,,,,,,,,011,2022-05-11_13h47.24.989,Main,2022.1.1,61.41370670627083,
neutral,positive,2,k,k,,,,,,,,,0,17,17,13,,,,,,,,,main,1,1,2,positive,neutral,k,k,1,0.6174843998160213,192.88168719992973,193.89655529987067,193.86327910004184,None,192.88168719992973,None,192.88168719992973,None,192.88168719992973,None,194.49650339998772,None,194.49650339998772,None,194.49650339998772,None,,,,,,,,,,,,,,011,2022-05-11_13h47.24.989,Main,2022.1.1,61.41370670627083,
negative,neutral,1,j,l,,,,,,,,,1,0,18,3,,,,,,,,,main,2,2,1,neutral,negative,l,l,1,0.6818220999557525,194.50602249987423,195.5132063999772,195.4965984998271,None,194.50602249987423,None,194.50602249987423,None,194.50602249987423,None,196.17978369987105,None,196.17978369987105,None,196.17978369987105,None,,,,,,,,,,,,,,011,2022-05-11_13h47.24.989,Main,2022.1.1,61.41370670627083,
negative,negative,2,j,l,,,,,,,,,1,1,19,9,,,,,,,,,main,2,2,2,negative,negative,l,l,1,0.7485400000587106,196.18292890000157,197.19649309990928,197.17989449994639,None,196.18292890000157,None,196.18292890000157,None,196.18292890000157,None,197.92983450002504,None,197.92983450002504,None,197.92983450002504,None,,,,,,,,,,,,,,011,2022-05-11_13h47.24.989,Main,2022.1.1,61.41370670627083,
neutral,negative,1,k,k,,,,,,,,,1,2,20,7,,,,,,,,,main,2,2,1,negative,neutral,k,k,1,0.6291545000858605,197.93299259990454,198.9464324999135,198.92989619984291,None,197.93299259990454,None,197.93299259990454,None,197.93299259990454,None,199.56088249997703,None,199.56088249997703,None,199.56088249997703,None,,,,,,,,,,,,,,011,2022-05-11_13h47.24.989,Main,2022.1.1,61.41370670627083,
negative,negative,1,j,l,,,,,,,,,1,3,21,0,,,,,,,,,main,2,2,1,negative,negative,l,l,1,0.6176311001181602,199.56484589981847,200.57978239981458,200.5631335999351,None,199.56484589981847,None,199.56484589981847,None,199.56484589981847,None,201.1797725000186,None,201.1797725000186,None,201.1797725000186,None,,,,,,,,,,,,,,011,2022-05-11_13h47.24.989,Main,2022.1.1,61.41370670627083,
neutral,positive,1,k,k,,,,,,,,,1,4,22,4,,,,,,,,,main,2,2,1,positive,neutral,k,k,1,0.6291946000419557,201.18304609996267,202.19381579989567,202.1771515000146,None,201.18304609996267,None,201.18304609996267,None,201.18304609996267,None,202.81044940005523,None,202.81044940005523,None,202.81044940005523,None,,,,,,,,,,,,,,011,2022-05-11_13h47.24.989,Main,2022.1.1,61.41370670627083,
negative,positive,1,j,l,,,,,,,,,1,5,23,6,,,,,,,,,main,2,2,1,positive,negative,l,l,1,0.6652176999486983,202.8104693000205,203.81051569990814,203.81051569990814,None,202.8104693000205,None,202.8104693000205,None,202.8104693000205,None,204.47717529984658,None,204.47717529984658,None,204.47717529984658,None,,,,,,,,,,,,,,011,2022-05-11_13h47.24.989,Main,2022.1.1,61.41370670627083,
positive,positive,2,l,j,,,,,,,,,1,6,24,11,,,,,,,,,main,1,1,2,positive,positive,j,j,1,0.8149460998829454,204.48119720001705,205.49634459987283,205.47967979987152,None,204.48119720001705,None,204.48119720001705,None,204.48119720001705,None,206.29410039989745,None,206.29410039989745,None,206.29410039989745,None,,,,,,,,,,,,,,011,2022-05-11_13h47.24.989,Main,2022.1.1,61.41370670627083,
positive,neutral,2,l,j,,,,,,,,,1,7,25,17,,,,,,,,,main,1,1,2,neutral,positive,j,j,1,0.6008041999302804,206.2974834998604,207.3130460998509,207.29673459986225,None,206.2974834998604,None,206.2974834998604,None,206.2974834998604,None,207.89627029986588,None,207.89627029986588,None,207.89627029986588,None,,,,,,,,,,,,,,011,2022-05-11_13h47.24.989,Main,2022.1.1,61.41370670627083,
positive,negative,2,l,j,,,,,,,,,1,8,26,14,,,,,,,,,main,1,1,2,negative,positive,j,j,1,0.5957661001011729,207.89950689999387,208.91293310001493,208.8963528999593,None,207.89950689999387,None,207.89950689999387,None,207.89950689999387,None,209.49400040002075,None,209.49400040002075,None,209.49400040002075,None,,,,,,,,,,,,,,011,2022-05-11_13h47.24.989,Main,2022.1.1,61.41370670627083,
negative,positive,2,j,l,,,,,,,,,1,9,27,15,,,,,,,,,main,2,2,2,positive,negative,l,l,1,0.7485962999053299,209.49732139986008,210.51288809999824,210.4962680998724,None,209.49732139986008,None,209.49732139986008,None,209.49732139986008,None,211.2439481998561,None,211.2439481998561,None,211.2439481998561,None,,,,,,,,,,,,,,011,2022-05-11_13h47.24.989,Main,2022.1.1,61.41370670627083,
positive,positive,1,l,j,,,,,,,,,1,10,28,2,,,,,,,,,main,1,1,1,positive,positive,j,j,1,0.6826487998478115,211.2472390998155,212.26025389996357,212.24359530000947,None,211.2472390998155,None,211.2472390998155,None,211.2472390998155,None,212.92691409990658,None,212.92691409990658,None,212.92691409990658,None,,,,,,,,,,,,,,011,2022-05-11_13h47.24.989,Main,2022.1.1,61.41370670627083,
neutral,negative,2,k,k,,,,,,,,,1,11,29,16,,,,,,,,,main,1,1,2,negative,neutral,k,k,1,0.6164037000853568,212.92787060001865,213.9269446998369,213.9269446998369,None,212.92787060001865,None,212.92787060001865,None,212.92787060001865,None,214.54613560002764,None,214.54613560002764,None,214.54613560002764,None,,,,,,,,,,,,,,011,2022-05-11_13h47.24.989,Main,2022.1.1,61.41370670627083,
positive,neutral,1,l,j,,,,,,,,,1,12,30,8,,,,,,,,,main,1,1,1,neutral,positive,j,j,1,0.7317256999667734,214.54878770001233,215.56276159989648,215.54615979990922,None,214.54878770001233,None,214.54878770001233,None,214.54878770001233,None,216.2793543998385,None,216.2793543998385,None,216.2793543998385,None,,,,,,,,,,,,,,011,2022-05-11_13h47.24.989,Main,2022.1.1,61.41370670627083,
neutral,neutral,1,k,k,,,,,,,,,1,13,31,1,,,,,,,,,main,2,2,1,neutral,neutral,k,k,1,0.6319722000043839,216.28178910003044,217.2961202999577,217.27944049984217,None,216.28178910003044,None,216.28178910003044,None,216.28178910003044,None,217.9127350999741,None,217.9127350999741,None,217.9127350999741,None,,,,,,,,,,,,,,011,2022-05-11_13h47.24.989,Main,2022.1.1,61.41370670627083,
neutral,neutral,2,k,k,,,,,,,,,1,14,32,10,,,,,,,,,main,1,1,2,neutral,neutral,k,k,1,0.6645413998048753,217.9158367998898,218.9293479998596,218.9104940998368,None,217.9158367998898,None,217.9158367998898,None,217.9158367998898,None,219.57893759997097,None,219.57893759997097,None,219.57893759997097,None,,,,,,,,,,,,,,011,2022-05-11_13h47.24.989,Main,2022.1.1,61.41370670627083,
positive,negative,1,l,j,,,,,,,,,1,15,33,5,,,,,,,,,main,2,2,1,negative,positive,j,j,1,0.7495130999013782,219.58398110000417,220.5959770998452,220.57937629986554,None,219.58398110000417,None,219.58398110000417,None,219.58398110000417,None,221.32925129991492,None,221.32925129991492,None,221.32925129991492,None,,,,,,,,,,,,,,011,2022-05-11_13h47.24.989,Main,2022.1.1,61.41370670627083,
neutral,positive,2,k,k,,,,,,,,,1,16,34,13,,,,,,,,,main,2,2,2,positive,neutral,k,k,1,0.5780611000955105,221.3337373000104,222.34337110002525,222.3267091999296,None,221.3337373000104,None,221.3337373000104,None,221.3337373000104,None,222.9100139998598,None,222.9100139998598,None,222.9100139998598,None,,,,,,,,,,,,,,011,2022-05-11_13h47.24.989,Main,2022.1.1,61.41370670627083,
negative,neutral,2,j,l,,,,,,,,,1,17,35,12,,,,,,,,,main,1,1,2,neutral,negative,l,l,1,0.5315936000552028,222.9100353999529,223.91001489991322,223.91001489991322,None,222.9100353999529,None,222.9100353999529,None,222.9100353999529,None,224.4433656999143,None,224.4433656999143,None,224.4433656999143,None,,,,,,,,,,,,,,011,2022-05-11_13h47.24.989,Main,2022.1.1,61.41370670627083,
neutral,negative,2,k,k,,,,,,,,,2,0,36,16,,,,,,,,,main,1,1,2,negative,neutral,k,k,1,0.6341391999740154,224.443495699903,225.443366299849,225.443366299849,None,224.443495699903,None,224.443495699903,None,224.443495699903,None,226.07917910006364,None,226.07917910006364,None,226.07917910006364,None,,,,,,,,,,,,,,011,2022-05-11_13h47.24.989,Main,2022.1.1,61.41370670627083,
neutral,neutral,1,k,k,,,,,,,,,2,1,37,1,,,,,,,,,main,1,1,1,neutral,neutral,k,k,1,0.5462642998900265,226.0818125999067,227.0936575999949,227.0791986999102,None,226.0818125999067,None,226.0818125999067,None,226.0818125999067,None,227.62696299988312,None,227.62696299988312,None,227.62696299988312,None,,,,,,,,,,,,,,011,2022-05-11_13h47.24.989,Main,2022.1.1,61.41370670627083,
neutral,positive,1,k,k,,,,,,,,,2,2,38,4,,,,,,,,,main,1,1,1,positive,neutral,k,k,1,0.5006534999702126,227.63043079990894,228.6438054998871,228.62926089996472,None,227.63043079990894,None,227.63043079990894,None,227.63043079990894,None,229.12913159986493,None,229.12913159986493,None,229.12913159986493,None,,,,,,,,,,,,,,011,2022-05-11_13h47.24.989,Main,2022.1.1,61.41370670627083,
negative,negative,1,j,l,,,,,,,,,2,3,39,0,,,,,,,,,main,2,2,1,negative,negative,l,l,1,0.6963196001015604,229.13206700002775,230.14581130002625,230.12921709986404,None,229.13206700002775,None,229.13206700002775,None,229.13206700002775,None,230.82691030001735,None,230.82691030001735,None,230.82691030001735,None,,,,,,,,,,,,,,011,2022-05-11_13h47.24.989,Main,2022.1.1,61.41370670627083,
neutral,neutral,2,k,k,,,,,,,,,2,4,40,10,,,,,,,,,main,2,2,2,neutral,neutral,k,k,1,0.601394500117749,230.83069760003127,231.84578599990346,231.82920779986307,None,230.83069760003127,None,230.83069760003127,None,230.83069760003127,None,232.42910799996463,None,232.42910799996463,None,232.42910799996463,None,,,,,,,,,,,,,,011,2022-05-11_13h47.24.989,Main,2022.1.1,61.41370670627083,
neutral,negative,1,k,k,,,,,,,,,2,5,41,7,,,,,,,,,main,2,2,1,negative,neutral,k,k,1,0.5282811000943184,232.4329917000141,233.44568569981493,233.42915489990264,None,232.4329917000141,None,232.4329917000141,None,232.4329917000141,None,233.95980350004976,None,233.95980350004976,None,233.95980350004976,None,,,,,,,,,,,,,,011,2022-05-11_13h47.24.989,Main,2022.1.1,61.41370670627083,
negative,negative,2,j,l,,,,,,,,,2,6,42,9,,,,,,,,,main,1,1,2,negative,negative,l,k,0,0.49860600009560585,233.9599850999657,234.95979440002702,234.95979440002702,None,233.9599850999657,None,233.9599850999657,None,233.9599850999657,None,235.46029979991727,None,235.46029979991727,None,235.46029979991727,None,,,,,,,,,,,,,,011,2022-05-11_13h47.24.989,Main,2022.1.1,61.41370670627083,
positive,neutral,2,l,j,,,,,,,,,2,7,43,17,,,,,,,,,main,2,2,2,neutral,positive,j,j,1,0.7199423001147807,236.4611948998645,237.46231319988146,237.4457310999278,None,236.4611948998645,None,236.4611948998645,None,236.4611948998645,None,238.17896389991512,None,238.17896389991512,None,238.17896389991512,None,,,,,,,,,,,,,,011,2022-05-11_13h47.24.989,Main,2022.1.1,61.41370670627083,
positive,positive,1,l,j,,,,,,,,,2,8,44,2,,,,,,,,,main,2,2,1,positive,positive,j,j,1,0.678863100009039,238.182582099922,239.19561449997127,239.1789716000203,None,238.182582099922,None,238.182582099922,None,238.182582099922,None,239.85971599987244,None,239.85971599987244,None,239.85971599987244,None,,,,,,,,,,,,,,011,2022-05-11_13h47.24.989,Main,2022.1.1,61.41370670627083,
positive,positive,2,l,j,,,,,,,,,2,9,45,11,,,,,,,,,main,2,2,2,positive,positive,j,j,1,0.4840762000530958,239.86338669992983,240.87890299991705,240.8623355999589,None,239.86338669992983,None,239.86338669992983,None,239.86338669992983,None,241.3454590000445,None,241.3454590000445,None,241.3454590000445,None,,,,,,,,,,,,,,011,2022-05-11_13h47.24.989,Main,2022.1.1,61.41370670627083,
negative,positive,2,j,l,,,,,,,,,2,10,46,15,,,,,,,,,main,2,2,2,positive,negative,l,l,1,0.6797749998513609,241.348631599918,242.3622665000148,242.34577949997038,None,241.348631599918,None,241.348631599918,None,241.348631599918,None,243.02662700002548,None,243.02662700002548,None,243.02662700002548,None,,,,,,,,,,,,,,011,2022-05-11_13h47.24.989,Main,2022.1.1,61.41370670627083,
positive,negative,2,l,j,,,,,,,,,2,11,47,14,,,,,,,,,main,2,2,2,negative,positive,j,j,1,0.6142945000901818,243.0304380999878,244.0429161998909,244.0262479998637,None,243.0304380999878,None,243.0304380999878,None,243.0304380999878,None,244.64291209990625,None,244.64291209990625,None,244.64291209990625,None,,,,,,,,,,,,,,011,2022-05-11_13h47.24.989,Main,2022.1.1,61.41370670627083,
positive,negative,1,l,j,,,,,,,,,2,12,48,5,,,,,,,,,main,2,2,1,negative,positive,j,j,1,0.6484863001387566,244.6429226999171,245.64334279997274,245.64334279997274,None,244.6429226999171,None,244.6429226999171,None,244.6429226999171,None,246.29293219984976,None,246.29293219984976,None,246.29293219984976,None,,,,,,,,,,,,,,011,2022-05-11_13h47.24.989,Main,2022.1.1,61.41370670627083,
negative,neutral,2,j,l,,,,,,,,,2,13,49,12,,,,,,,,,main,2,2,2,neutral,negative,l,l,1,0.6679086000658572,246.29630569997244,247.29544649994932,247.29544649994932,None,246.29630569997244,None,246.29630569997244,None,246.29630569997244,None,247.96229649994058,None,247.96229649994058,None,247.96229649994058,None,,,,,,,,,,,,,,011,2022-05-11_13h47.24.989,Main,2022.1.1,61.41370670627083,
positive,neutral,1,l,j,,,,,,,,,2,14,50,8,,,,,,,,,main,2,2,1,neutral,positive,j,j,1,0.6124042000155896,247.96561279986054,248.97910689981654,248.9600727998186,None,247.96561279986054,None,247.96561279986054,None,247.96561279986054,None,249.57632149995771,None,249.57632149995771,None,249.57632149995771,None,,,,,,,,,,,,,,011,2022-05-11_13h47.24.989,Main,2022.1.1,61.41370670627083,
negative,positive,1,j,l,,,,,,,,,2,15,51,6,,,,,,,,,main,2,2,1,positive,negative,l,l,1,0.7811189999338239,249.58321029995568,250.5955425000284,250.57919279998168,None,249.58321029995568,None,249.58321029995568,None,249.58321029995568,None,251.35978809983936,None,251.35978809983936,None,251.35978809983936,None,,,,,,,,,,,,,,011,2022-05-11_13h47.24.989,Main,2022.1.1,61.41370670627083,
neutral,positive,2,k,k,,,,,,,,,2,16,52,13,,,,,,,,,main,1,1,2,positive,neutral,k,k,1,0.5646303999237716,251.36383139993995,252.37866449984722,252.36002709995955,None,251.36383139993995,None,251.36383139993995,None,251.36383139993995,None,252.92607859994752,None,252.92607859994752,None,252.92607859994752,None,,,,,,,,,,,,,,011,2022-05-11_13h47.24.989,Main,2022.1.1,61.41370670627083,
negative,neutral,1,j,l,,,,,,,,,2,17,53,3,,,,,,,,,main,2,2,1,neutral,negative,l,l,1,1.1149038998410106,252.92936549987644,253.9285905000288,253.9120350999292,None,252.92936549987644,None,252.92936549987644,None,252.92936549987644,None,255.0426768000005,None,255.0426768000005,None,255.0426768000005,None,,,,,,,,,,,,,,011,2022-05-11_13h47.24.989,Main,2022.1.1,61.41370670627083,
positive,positive,2,l,j,,,,,,,,,3,0,54,11,,,,,,,,,main,1,1,2,positive,positive,j,j,1,0.648647400084883,255.04326780000702,256.04271889990196,256.04271889990196,None,255.04326780000702,None,255.04326780000702,None,255.04326780000702,None,256.69271230006126,None,256.69271230006126,None,256.69271230006126,None,,,,,,,,,,,,,,011,2022-05-11_13h47.24.989,Main,2022.1.1,61.41370670627083,
negative,positive,1,j,l,,,,,,,,,3,1,55,6,,,,,,,,,main,1,1,1,positive,negative,l,l,1,0.6150684000458568,256.69587980001234,257.69523109984584,257.69523109984584,None,256.69587980001234,None,256.69587980001234,None,256.69587980001234,None,258.30932619988454,None,258.30932619988454,None,258.30932619988454,None,,,,,,,,,,,,,,011,2022-05-11_13h47.24.989,Main,2022.1.1,61.41370670627083,
neutral,positive,2,k,k,,,,,,,,,3,2,56,13,,,,,,,,,main,1,1,2,positive,neutral,k,k,1,0.6675656998995692,258.31264989986084,259.3119007998612,259.3119007998612,None,258.31264989986084,None,258.31264989986084,None,258.31264989986084,None,259.97846949992237,None,259.97846949992237,None,259.97846949992237,None,,,,,,,,,,,,,,011,2022-05-11_13h47.24.989,Main,2022.1.1,61.41370670627083,
negative,neutral,2,j,l,,,,,,,,,3,3,57,12,,,,,,,,,main,2,2,2,neutral,negative,l,l,1,0.6462697999086231,259.98225869983435,260.9951724000275,260.9784977999516,None,259.98225869983435,None,259.98225869983435,None,259.98225869983435,None,261.626214499888,None,261.626214499888,None,261.626214499888,None,,,,,,,,,,,,,,011,2022-05-11_13h47.24.989,Main,2022.1.1,61.41370670627083,
neutral,positive,1,k,k,,,,,,,,,3,4,58,4,,,,,,,,,main,2,2,1,positive,neutral,k,k,1,0.5482095000334084,261.62969890004024,262.64512639981695,262.6285547998268,None,261.62969890004024,None,261.62969890004024,None,261.62969890004024,None,263.17616029998754,None,263.17616029998754,None,263.17616029998754,None,,,,,,,,,,,,,,011,2022-05-11_13h47.24.989,Main,2022.1.1,61.41370670627083,
negative,negative,2,j,l,,,,,,,,,3,5,59,9,,,,,,,,,main,2,2,2,negative,negative,l,l,1,0.6319633000530303,263.1799677000381,264.1949920000043,264.161812499864,None,263.1799677000381,None,263.1799677000381,None,263.1799677000381,None,264.80946249987466,None,264.80946249987466,None,264.80946249987466,None,,,,,,,,,,,,,,011,2022-05-11_13h47.24.989,Main,2022.1.1,61.41370670627083,
negative,positive,2,j,l,,,,,,,,,3,6,60,15,,,,,,,,,main,1,1,2,positive,negative,l,l,1,0.5813565000426024,264.8126588999294,265.8257746999152,265.80910620000213,None,264.8126588999294,None,264.8126588999294,None,264.8126588999294,None,266.3924250999233,None,266.3924250999233,None,266.3924250999233,None,,,,,,,,,,,,,,011,2022-05-11_13h47.24.989,Main,2022.1.1,61.41370670627083,
negative,neutral,1,j,l,,,,,,,,,3,7,61,3,,,,,,,,,main,2,2,1,neutral,negative,l,l,1,0.7153485999442637,266.39296630001627,267.39245969988406,267.39245969988406,None,266.39296630001627,None,266.39296630001627,None,266.39296630001627,None,268.109422699851,None,268.109422699851,None,268.109422699851,None,,,,,,,,,,,,,,011,2022-05-11_13h47.24.989,Main,2022.1.1,61.41370670627083,
neutral,negative,2,k,k,,,,,,,,,3,8,62,16,,,,,,,,,main,1,1,2,negative,neutral,k,k,1,0.6651828000321984,268.11341489991173,269.1283386000432,269.11167289991863,None,268.11341489991173,None,268.11341489991173,None,268.11341489991173,None,269.7760521998396,None,269.7760521998396,None,269.7760521998396,None,,,,,,,,,,,,,,011,2022-05-11_13h47.24.989,Main,2022.1.1,61.41370670627083,
positive,neutral,2,l,j,,,,,,,,,3,9,63,17,,,,,,,,,main,1,1,2,neutral,positive,j,j,1,0.7506399999838322,269.7815445999149,270.7949132998474,270.7782932999544,None,269.7815445999149,None,269.7815445999149,None,269.7815445999149,None,271.5283924998483,None,271.5283924998483,None,271.5283924998483,None,,,,,,,,,,,,,,011,2022-05-11_13h47.24.989,Main,2022.1.1,61.41370670627083,
neutral,negative,1,k,k,,,,,,,,,3,10,64,7,,,,,,,,,main,1,1,1,negative,neutral,k,k,1,0.5983871000353247,271.5307906998787,272.54486220004037,272.5282531999983,None,271.5307906998787,None,271.5307906998787,None,271.5307906998787,None,273.12812670001296,None,273.12812670001296,None,273.12812670001296,None,,,,,,,,,,,,,,011,2022-05-11_13h47.24.989,Main,2022.1.1,61.41370670627083,
positive,positive,1,l,j,,,,,,,,,3,11,65,2,,,,,,,,,main,2,2,1,positive,positive,j,j,1,1.0358990000095218,273.1311886999756,274.1448476999067,274.1281802000012,None,273.1311886999756,None,273.1311886999756,None,273.1311886999756,None,275.16149210005534,None,275.16149210005534,None,275.16149210005534,None,,,,,,,,,,,,,,011,2022-05-11_13h47.24.989,Main,2022.1.1,61.41370670627083,
neutral,neutral,2,k,k,,,,,,,,,3,12,66,10,,,,,,,,,main,1,1,2,neutral,neutral,k,k,1,0.5744435000233352,275.1755297000054,276.1757944000419,276.1588798998855,None,275.1755297000054,None,275.1755297000054,None,275.1755297000054,None,276.7422216998646,None,276.7422216998646,None,276.7422216998646,None,,,,,,,,,,,,,,011,2022-05-11_13h47.24.989,Main,2022.1.1,61.41370670627083,
neutral,neutral,1,k,k,,,,,,,,,3,13,67,1,,,,,,,,,main,1,1,1,neutral,neutral,k,,0,0.6861376999877393,276.7426743998658,277.74224069993943,277.74224069993943,None,276.7426743998658,None,276.7426743998658,None,276.7426743998658,None,278.4257053998299,None,278.4257053998299,None,278.4257053998299,None,,,,,,,,,,,,,,011,2022-05-11_13h47.24.989,Main,2022.1.1,61.41370670627083,
positive,neutral,1,l,j,,,,,,,,,3,14,68,8,,,,,,,,,main,2,2,1,neutral,positive,j,j,1,0.8175530000589788,279.4276983998716,280.4450661998708,280.4094289999921,None,279.4276983998716,None,279.4276983998716,None,279.4276983998716,None,281.2424591000425,None,281.2424591000425,None,281.2424591000425,None,,,,,,,,,,,,,,011,2022-05-11_13h47.24.989,Main,2022.1.1,61.41370670627083,
positive,negative,1,l,j,,,,,,,,,3,15,69,5,,,,,,,,,main,1,1,1,negative,positive,j,j,1,0.7669459998141974,281.2462540999986,282.2615388999693,282.2448879999574,None,281.2462540999986,None,281.2462540999986,None,281.2462540999986,None,283.0112419999903,None,283.0112419999903,None,283.0112419999903,None,,,,,,,,,,,,,,011,2022-05-11_13h47.24.989,Main,2022.1.1,61.41370670627083,
positive,negative,2,l,j,,,,,,,,,3,16,70,14,,,,,,,,,main,2,2,2,negative,positive,j,j,1,0.8458804001566023,283.01429289998487,284.0279596999753,284.011342599988,None,283.01429289998487,None,283.01429289998487,None,283.01429289998487,None,284.8590449998854,None,284.8590449998854,None,284.8590449998854,None,,,,,,,,,,,,,,011,2022-05-11_13h47.24.989,Main,2022.1.1,61.41370670627083,
negative,negative,1,j,l,,,,,,,,,3,17,71,0,,,,,,,,,main,1,1,1,negative,negative,l,l,1,0.6983626000583172,284.8617839999497,285.87534519983456,285.8586682998575,None,284.8617839999497,None,284.8617839999497,None,284.8617839999497,None,286.5586609000573,None,286.5586609000573,None,286.5586609000573,None,,,,,,,,,,,,,,011,2022-05-11_13h47.24.989,Main,2022.1.1,61.41370670627083,
negative,negative,2,j,l,,,,,,,,,4,0,72,9,,,,,,,,,main,2,2,2,negative,negative,l,l,1,0.9816833001095802,286.55865359981544,287.55866239988245,287.55866239988245,None,286.55865359981544,None,286.55865359981544,None,286.55865359981544,None,288.54200189986733,None,288.54200189986733,None,288.54200189986733,None,,,,,,,,,,,,,,011,2022-05-11_13h47.24.989,Main,2022.1.1,61.41370670627083,
positive,neutral,1,l,j,,,,,,,,,4,1,73,8,,,,,,,,,main,2,2,1,neutral,positive,j,j,1,0.7317102001979947,288.54470229987055,289.54454289982095,289.52793510002084,None,288.54470229987055,None,288.54470229987055,None,288.54470229987055,None,290.275301999948,None,290.275301999948,None,290.275301999948,None,,,,,,,,,,,,,,011,2022-05-11_13h47.24.989,Main,2022.1.1,61.41370670627083,
neutral,positive,1,k,k,,,,,,,,,4,2,74,4,,,,,,,,,main,1,1,1,positive,neutral,k,k,1,0.6491074000950903,290.2793485999573,291.294916999992,291.26154639991,None,290.2793485999573,None,290.2793485999573,None,290.2793485999573,None,291.92557779985947,None,291.92557779985947,None,291.92557779985947,None,,,,,,,,,,,,,,011,2022-05-11_13h47.24.989,Main,2022.1.1,61.41370670627083,
positive,neutral,2,l,j,,,,,,,,,4,3,75,17,,,,,,,,,main,1,1,2,neutral,positive,j,j,1,0.7989300999324769,291.9293777998537,292.9446425999049,292.9278815998696,None,291.9293777998537,None,291.9293777998537,None,291.9293777998537,None,293.7263916000491,None,293.7263916000491,None,293.7263916000491,None,,,,,,,,,,,,,,011,2022-05-11_13h47.24.989,Main,2022.1.1,61.41370670627083,
neutral,negative,2,k,k,,,,,,,,,4,4,76,16,,,,,,,,,main,2,2,2,negative,neutral,k,k,1,0.6978392000310123,293.7321811998263,294.74449429987,294.72788469982333,None,293.7321811998263,None,293.7321811998263,None,293.7321811998263,None,295.42574859999587,None,295.42574859999587,None,295.42574859999587,None,,,,,,,,,,,,,,011,2022-05-11_13h47.24.989,Main,2022.1.1,61.41370670627083,
positive,positive,1,l,j,,,,,,,,,4,5,77,2,,,,,,,,,main,2,2,1,positive,positive,j,j,1,0.7980995001271367,295.4292623999063,296.44440919999033,296.4278307999484,None,295.4292623999063,None,295.4292623999063,None,295.4292623999063,None,297.22533170001117,None,297.22533170001117,None,297.22533170001117,None,,,,,,,,,,,,,,011,2022-05-11_13h47.24.989,Main,2022.1.1,61.41370670627083,
negative,positive,1,j,l,,,,,,,,,4,6,78,6,,,,,,,,,main,2,2,1,positive,negative,l,l,1,0.5639802999794483,297.2263356000185,298.2250981000252,298.2250981000252,None,297.2263356000185,None,297.2263356000185,None,297.2263356000185,None,298.7917431998765,None,298.7917431998765,None,298.7917431998765,None,,,,,,,,,,,,,,011,2022-05-11_13h47.24.989,Main,2022.1.1,61.41370670627083,
positive,negative,1,l,j,,,,,,,,,4,7,79,5,,,,,,,,,main,1,1,1,negative,positive,j,j,1,0.7486250000074506,298.7917301999405,299.79233879991807,299.79233879991807,None,298.7917301999405,None,298.7917301999405,None,298.7917301999405,None,300.5420712999301,None,300.5420712999301,None,300.5420712999301,None,,,,,,,,,,,,,,011,2022-05-11_13h47.24.989,Main,2022.1.1,61.41370670627083,
positive,negative,2,l,j,,,,,,,,,4,8,80,14,,,,,,,,,main,1,1,2,negative,positive,j,j,1,0.7709298001136631,300.54542929981835,301.5612675000448,301.5423059000168,None,300.54542929981835,None,300.54542929981835,None,300.54542929981835,None,302.31089390006383,None,302.31089390006383,None,302.31089390006383,None,,,,,,,,,,,,,,011,2022-05-11_13h47.24.989,Main,2022.1.1,61.41370670627083,
neutral,negative,1,k,k,,,,,,,,,4,9,81,7,,,,,,,,,main,1,1,1,negative,neutral,k,k,1,0.609526599990204,302.32400879985653,303.32753749983385,303.2923109999392,None,302.32400879985653,None,302.32400879985653,None,302.32400879985653,None,303.9262632998405,None,303.9262632998405,None,303.9262632998405,None,,,,,,,,,,,,,,011,2022-05-11_13h47.24.989,Main,2022.1.1,61.41370670627083,
negative,positive,2,j,l,,,,,,,,,4,10,82,15,,,,,,,,,main,2,2,2,positive,negative,l,l,1,0.6995066001545638,303.9321147999726,304.94242629990913,304.92755110003054,None,303.9321147999726,None,303.9321147999726,None,303.9321147999726,None,305.6275264998665,None,305.6275264998665,None,305.6275264998665,None,,,,,,,,,,,,,,011,2022-05-11_13h47.24.989,Main,2022.1.1,61.41370670627083,
neutral,neutral,2,k,k,,,,,,,,,4,11,83,10,,,,,,,,,main,2,2,2,neutral,neutral,k,k,1,0.7461079000495374,305.6318008999806,306.64416549983434,306.62757389992476,None,305.6318008999806,None,305.6318008999806,None,305.6318008999806,None,307.37522219989916,None,307.37522219989916,None,307.37522219989916,None,,,,,,,,,,,,,,011,2022-05-11_13h47.24.989,Main,2022.1.1,61.41370670627083,
neutral,neutral,1,k,k,,,,,,,,,4,12,84,1,,,,,,,,,main,2,2,1,neutral,neutral,k,k,1,0.6474127001129091,307.37920099985786,308.39174570003524,308.37487329985015,None,307.37920099985786,None,307.37920099985786,None,307.37920099985786,None,309.0250726999482,None,309.0250726999482,None,309.0250726999482,None,,,,,,,,,,,,,,011,2022-05-11_13h47.24.989,Main,2022.1.1,61.41370670627083,
negative,negative,1,j,l,,,,,,,,,4,13,85,0,,,,,,,,,main,2,2,1,negative,negative,l,l,1,0.715327300131321,309.024842399871,310.0248810998164,310.0248810998164,None,309.024842399871,None,309.024842399871,None,309.024842399871,None,310.74186949997676,None,310.74186949997676,None,310.74186949997676,None,,,,,,,,,,,,,,011,2022-05-11_13h47.24.989,Main,2022.1.1,61.41370670627083,
negative,neutral,1,j,l,,,,,,,,,4,14,86,3,,,,,,,,,main,2,2,1,neutral,negative,l,l,1,0.5002343999221921,310.7452822998166,311.76073259999976,311.74414830002934,None,310.7452822998166,None,310.7452822998166,None,310.7452822998166,None,312.2440071998397,None,312.2440071998397,None,312.2440071998397,None,,,,,,,,,,,,,,011,2022-05-11_13h47.24.989,Main,2022.1.1,61.41370670627083,
negative,neutral,2,j,l,,,,,,,,,4,15,87,12,,,,,,,,,main,2,2,2,neutral,negative,l,l,1,0.5800008000805974,312.24809150001965,313.26076669991016,313.2440736000426,None,312.24809150001965,None,312.24809150001965,None,312.24809150001965,None,313.82541410003324,None,313.82541410003324,None,313.82541410003324,None,,,,,,,,,,,,,,011,2022-05-11_13h47.24.989,Main,2022.1.1,61.41370670627083,
positive,positive,2,l,j,,,,,,,,,4,16,88,11,,,,,,,,,main,2,2,2,positive,positive,j,l,0,0.5314714000560343,313.82908549997956,314.8420953999739,314.82745760004036,None,313.82908549997956,None,313.82908549997956,None,313.82908549997956,None,315.3608784000389,None,315.3608784000389,None,315.3608784000389,None,,,,,,,,,,,,,,011,2022-05-11_13h47.24.989,Main,2022.1.1,61.41370670627083,
neutral,positive,2,k,k,,,,,,,,,4,17,89,13,,,,,,,,,main,1,1,2,positive,neutral,k,k,1,0.6345450000371784,316.35874749999493,317.3606064999476,317.3439517999068,None,316.35874749999493,None,316.35874749999493,None,316.35874749999493,None,317.9916643999284,None,317.9916643999284,None,317.9916643999284,None,,,,,,,,,,,,,,011,2022-05-11_13h47.24.989,Main,2022.1.1,61.41370670627083,
negative,neutral,2,j,l,,,,,,,,,5,0,90,12,,,,,,,,,main,1,1,2,neutral,negative,l,l,1,0.6474319999106228,317.99768419982865,319.0079554000404,318.99129140004516,None,317.99768419982865,None,317.99768419982865,None,317.99768419982865,None,319.6412739998894,None,319.6412739998894,None,319.6412739998894,None,,,,,,,,,,,,,,011,2022-05-11_13h47.24.989,Main,2022.1.1,61.41370670627083,
positive,positive,2,l,j,,,,,,,,,5,1,91,11,,,,,,,,,main,2,2,2,positive,positive,j,j,1,0.7688148999586701,319.6417635998223,320.6416792999953,320.6416792999953,None,319.6417635998223,None,319.6417635998223,None,319.6417635998223,None,321.4104538998334,None,321.4104538998334,None,321.4104538998334,None,,,,,,,,,,,,,,011,2022-05-11_13h47.24.989,Main,2022.1.1,61.41370670627083,
negative,positive,1,j,l,,,,,,,,,5,2,92,6,,,,,,,,,main,1,1,1,positive,negative,l,l,1,0.6117691001854837,321.4145822999999,322.4271164999809,322.41052889986895,None,321.4145822999999,None,321.4145822999999,None,321.4145822999999,None,323.0248918999685,None,323.0248918999685,None,323.0248918999685,None,,,,,,,,,,,,,,011,2022-05-11_13h47.24.989,Main,2022.1.1,61.41370670627083,
neutral,negative,2,k,k,,,,,,,,,5,3,93,16,,,,,,,,,main,2,2,2,negative,neutral,k,k,1,0.6817942000925541,323.0281622998882,324.0437171999365,324.0271219999995,None,323.0281622998882,None,323.0281622998882,None,323.0281622998882,None,324.7081712999614,None,324.7081712999614,None,324.7081712999614,None,,,,,,,,,,,,,,011,2022-05-11_13h47.24.989,Main,2022.1.1,61.41370670627083,
positive,neutral,1,l,j,,,,,,,,,5,4,94,8,,,,,,,,,main,1,1,1,neutral,positive,j,j,1,0.8647280000150204,324.7135348999873,325.7270996000152,325.7104924998712,None,324.7135348999873,None,324.7135348999873,None,324.7135348999873,None,326.57451369992924,None,326.57451369992924,None,326.57451369992924,None,,,,,,,,,,,,,,011,2022-05-11_13h47.24.989,Main,2022.1.1,61.41370670627083,
positive,neutral,2,l,j,,,,,,,,,5,5,95,17,,,,,,,,,main,2,2,2,neutral,positive,j,j,1,0.8314799999352545,326.58126059989445,327.5936632999219,327.5770237999968,None,326.58126059989445,None,326.58126059989445,None,326.58126059989445,None,328.4081412000349,None,328.4081412000349,None,328.4081412000349,None,,,,,,,,,,,,,,011,2022-05-11_13h47.24.989,Main,2022.1.1,61.41370670627083,
neutral,neutral,2,k,k,,,,,,,,,5,6,96,10,,,,,,,,,main,2,2,2,neutral,neutral,k,k,1,0.5980984999332577,328.41418059985153,329.42439919989556,329.4077329998836,None,328.41418059985153,None,328.41418059985153,None,328.41418059985153,None,330.00771129999777,None,330.00771129999777,None,330.00771129999777,None,,,,,,,,,,,,,,011,2022-05-11_13h47.24.989,Main,2022.1.1,61.41370670627083,
negative,negative,2,j,l,,,,,,,,,5,7,97,9,,,,,,,,,main,1,1,2,negative,negative,l,l,1,0.6816718000918627,330.0083810999058,331.00774739985354,331.00774739985354,None,330.0083810999058,None,330.0083810999058,None,330.0083810999058,None,331.6910660998663,None,331.6910660998663,None,331.6910660998663,None,,,,,,,,,,,,,,011,2022-05-11_13h47.24.989,Main,2022.1.1,61.41370670627083,
negative,positive,2,j,l,,,,,,,,,5,8,98,15,,,,,,,,,main,2,2,2,positive,negative,l,l,1,0.5988900000229478,331.6941192999948,332.6936695999466,332.6936695999466,None,331.6941192999948,None,331.6941192999948,None,331.6941192999948,None,333.29134189996404,None,333.29134189996404,None,333.29134189996404,None,,,,,,,,,,,,,,011,2022-05-11_13h47.24.989,Main,2022.1.1,61.41370670627083,
neutral,positive,2,k,k,,,,,,,,,5,9,99,13,,,,,,,,,main,2,2,2,positive,neutral,k,k,1,0.6818110998719931,333.2947722999379,334.31025310000405,334.29358669999056,None,333.2947722999379,None,333.2947722999379,None,333.2947722999379,None,334.9746313000331,None,334.9746313000331,None,334.9746313000331,None,,,,,,,,,,,,,,011,2022-05-11_13h47.24.989,Main,2022.1.1,61.41370670627083,
negative,negative,1,j,l,,,,,,,,,5,10,100,0,,,,,,,,,main,1,1,1,negative,negative,l,l,1,0.7485746999736875,334.9789817999117,335.9934642999433,335.9769559998531,None,334.9789817999117,None,334.9789817999117,None,334.9789817999117,None,336.7245868000435,None,336.7245868000435,None,336.7245868000435,None,,,,,,,,,,,,,,011,2022-05-11_13h47.24.989,Main,2022.1.1,61.41370670627083,
negative,neutral,1,j,l,,,,,,,,,5,11,101,3,,,,,,,,,main,2,2,1,neutral,negative,l,l,1,0.7996324999257922,336.7286020000465,337.74348789989017,337.7268395998981,None,336.7286020000465,None,336.7286020000465,None,336.7286020000465,None,338.5267075999407,None,338.5267075999407,None,338.5267075999407,None,,,,,,,,,,,,,,011,2022-05-11_13h47.24.989,Main,2022.1.1,61.41370670627083,
positive,negative,1,l,j,,,,,,,,,5,12,102,5,,,,,,,,,main,1,1,1,negative,positive,j,j,1,0.6635854998603463,338.5296361998189,339.540842999937,339.5241786998231,None,338.5296361998189,None,338.5296361998189,None,338.5296361998189,None,340.1908284000354,None,340.1908284000354,None,340.1908284000354,None,,,,,,,,,,,,,,011,2022-05-11_13h47.24.989,Main,2022.1.1,61.41370670627083,
neutral,negative,1,k,k,,,,,,,,,5,13,103,7,,,,,,,,,main,2,2,1,negative,neutral,k,k,1,0.7985697998665273,340.19150159996934,341.19082909985445,341.19082909985445,None,340.19150159996934,None,340.19150159996934,None,340.19150159996934,None,341.9919321998721,None,341.9919321998721,None,341.9919321998721,None,,,,,,,,,,,,,,011,2022-05-11_13h47.24.989,Main,2022.1.1,61.41370670627083,
positive,positive,1,l,j,,,,,,,,,5,14,104,2,,,,,,,,,main,2,2,1,positive,positive,j,j,1,1.1474987999536097,342.010026599979,343.01038019987755,342.9935371999163,None,342.010026599979,None,342.010026599979,None,342.010026599979,None,344.14107700001915,None,344.14107700001915,None,344.14107700001915,None,,,,,,,,,,,,,,011,2022-05-11_13h47.24.989,Main,2022.1.1,61.41370670627083,
neutral,neutral,1,k,k,,,,,,,,,5,15,105,1,,,,,,,,,main,1,1,1,neutral,neutral,k,k,1,1.0168192000128329,344.1449937999714,345.1599787999876,345.1433893998619,None,344.1449937999714,None,344.1449937999714,None,344.1449937999714,None,346.1599337000633,None,346.1599337000633,None,346.1599337000633,None,,,,,,,,,,,,,,011,2022-05-11_13h47.24.989,Main,2022.1.1,61.41370670627083,
positive,negative,2,l,j,,,,,,,,,5,16,106,14,,,,,,,,,main,2,2,2,negative,positive,j,j,1,0.8129491000436246,346.16300209984183,347.17653970001265,347.1599933998659,None,346.16300209984183,None,346.16300209984183,None,346.16300209984183,None,347.97458009987605,None,347.97458009987605,None,347.97458009987605,None,,,,,,,,,,,,,,011,2022-05-11_13h47.24.989,Main,2022.1.1,61.41370670627083,
neutral,positive,1,k,k,,,,,,,,,5,17,107,4,,,,,,,,,main,1,1,1,positive,neutral,k,k,1,1.997723300009966,347.97800759994425,348.9932989999652,348.9765846999362,None,347.97800759994425,None,347.97800759994425,None,347.97800759994425,None,350.973953000037,None,350.973953000037,None,350.973953000037,None,,,,,,,,,,,,,,011,2022-05-11_13h47.24.989,Main,2022.1.1,61.41370670627083,
neutral,positive,1,k,k,,,,,,,,,6,0,108,4,,,,,,,,,main,2,2,1,positive,neutral,k,k,1,0.5696594999171793,351.97781639988534,352.99320279993117,352.95982529991306,None,351.97781639988534,None,351.97781639988534,None,351.97781639988534,None,353.54091129994487,None,353.54091129994487,None,353.54091129994487,None,,,,,,,,,,,,,,011,2022-05-11_13h47.24.989,Main,2022.1.1,61.41370670627083,
neutral,neutral,2,k,k,,,,,,,,,6,1,109,10,,,,,,,,,main,2,2,2,neutral,neutral,k,k,1,0.5805236001033336,353.55097929993644,354.5597587998491,354.54313589981757,None,353.55097929993644,None,353.55097929993644,None,353.55097929993644,None,355.12388429983986,None,355.12388429983986,None,355.12388429983986,None,,,,,,,,,,,,,,011,2022-05-11_13h47.24.989,Main,2022.1.1,61.41370670627083,
positive,neutral,2,l,j,,,,,,,,,6,2,110,17,,,,,,,,,main,1,1,2,neutral,positive,j,j,1,0.4816456001717597,355.1273917998187,356.14307109988295,356.1264643999748,None,355.1273917998187,None,355.1273917998187,None,355.1273917998187,None,356.60722209985835,None,356.60722209985835,None,356.60722209985835,None,,,,,,,,,,,,,,011,2022-05-11_13h47.24.989,Main,2022.1.1,61.41370670627083,
negative,positive,1,j,l,,,,,,,,,6,3,111,6,,,,,,,,,main,1,1,1,positive,negative,l,l,1,1.1328656000550836,356.6135750999674,357.62686499999836,357.5931793998461,None,356.6135750999674,None,356.6135750999674,None,356.6135750999674,None,358.7407989998581,None,358.7407989998581,None,358.7407989998581,None,,,,,,,,,,,,,,011,2022-05-11_13h47.24.989,Main,2022.1.1,61.41370670627083,
negative,neutral,2,j,l,,,,,,,,,6,4,112,12,,,,,,,,,main,1,1,2,neutral,negative,l,l,1,0.6303240000270307,358.74479809985496,359.75766979996115,359.7430844998453,None,358.74479809985496,None,358.74479809985496,None,358.74479809985496,None,360.3737140000565,None,360.3737140000565,None,360.3737140000565,None,,,,,,,,,,,,,,011,2022-05-11_13h47.24.989,Main,2022.1.1,61.41370670627083,
positive,positive,1,l,j,,,,,,,,,6,5,113,2,,,,,,,,,main,1,1,1,positive,positive,j,j,1,0.7651733998209238,360.3737261998467,361.37372459983453,361.37372459983453,None,360.3737261998467,None,360.3737261998467,None,360.3737261998467,None,362.14040529991036,None,362.14040529991036,None,362.14040529991036,None,,,,,,,,,,,,,,011,2022-05-11_13h47.24.989,Main,2022.1.1,61.41370670627083,
negative,neutral,1,j,l,,,,,,,,,6,6,114,3,,,,,,,,,main,2,2,1,neutral,negative,l,l,1,0.7509095000568777,362.1431535000447,363.1428813999519,363.12625729991123,None,362.1431535000447,None,362.1431535000447,None,362.1431535000447,None,363.8928399999393,None,363.8928399999393,None,363.8928399999393,None,,,,,,,,,,,,,,011,2022-05-11_13h47.24.989,Main,2022.1.1,61.41370670627083,
neutral,positive,2,k,k,,,,,,,,,6,7,115,13,,,,,,,,,main,2,2,2,positive,neutral,k,k,1,0.5798453001771122,363.8967724000104,364.9075799998827,364.89304160000756,None,363.8967724000104,None,363.8967724000104,None,363.8967724000104,None,365.4739641999593,None,365.4739641999593,None,365.4739641999593,None,,,,,,,,,,,,,,011,2022-05-11_13h47.24.989,Main,2022.1.1,61.41370670627083,
neutral,neutral,1,k,k,,,,,,,,,6,8,116,1,,,,,,,,,main,1,1,1,neutral,neutral,k,k,1,0.6313171000219882,365.4779376999941,366.4929273999296,366.4763142999727,None,365.4779376999941,None,365.4779376999941,None,365.4779376999941,None,367.10724570003805,None,367.10724570003805,None,367.10724570003805,None,,,,,,,,,,,,,,011,2022-05-11_13h47.24.989,Main,2022.1.1,61.41370670627083,
neutral,negative,1,k,k,,,,,,,,,6,9,117,7,,,,,,,,,main,2,2,1,negative,neutral,k,k,1,0.5019157999195158,367.12613340001553,368.1261215999257,368.10951149999164,None,367.12613340001553,None,367.12613340001553,None,367.12613340001553,None,368.6096044998383,None,368.6096044998383,None,368.6096044998383,None,,,,,,,,,,,,,,011,2022-05-11_13h47.24.989,Main,2022.1.1,61.41370670627083,
negative,negative,1,j,l,,,,,,,,,6,10,118,0,,,,,,,,,main,1,1,1,negative,negative,l,l,1,0.700789799913764,368.6135662999004,369.626186999958,369.6074737999588,None,368.6135662999004,None,368.6135662999004,None,368.6135662999004,None,370.31062159996947,None,370.31062159996947,None,370.31062159996947,None,,,,,,,,,,,,,,011,2022-05-11_13h47.24.989,Main,2022.1.1,61.41370670627083,
positive,positive,2,l,j,,,,,,,,,6,11,119,11,,,,,,,,,main,2,2,2,positive,positive,j,j,1,0.808968500001356,370.3139219000004,371.3735032998957,371.3597019999288,None,370.3139219000004,None,370.3139219000004,None,370.3139219000004,None,372.12348769984675,None,372.12348769984675,None,372.12348769984675,None,,,,,,,,,,,,,,011,2022-05-11_13h47.24.989,Main,2022.1.1,61.41370670627083,
positive,negative,1,l,j,,,,,,,,,6,12,120,5,,,,,,,,,main,1,1,1,negative,positive,j,j,1,0.7318948998581618,372.12464749999344,373.1401692000218,373.1235074000433,None,372.12464749999344,None,372.12464749999344,None,372.12464749999344,None,373.85681570002345,None,373.85681570002345,None,373.85681570002345,None,,,,,,,,,,,,,,011,2022-05-11_13h47.24.989,Main,2022.1.1,61.41370670627083,
negative,positive,2,j,l,,,,,,,,,6,13,121,15,,,,,,,,,main,2,2,2,positive,negative,l,l,1,0.6829339999239892,373.8629220998846,374.87613589991815,374.859587599989,None,373.8629220998846,None,373.8629220998846,None,373.8629220998846,None,375.54040319991765,None,375.54040319991765,None,375.54040319991765,None,,,,,,,,,,,,,,011,2022-05-11_13h47.24.989,Main,2022.1.1,61.41370670627083,
positive,neutral,1,l,j,,,,,,,,,6,14,122,8,,,,,,,,,main,2,2,1,neutral,positive,j,j,1,0.6972962999716401,375.54445049981587,376.5594647999387,376.5427629998885,None,375.54445049981587,None,375.54445049981587,None,375.54445049981587,None,377.2403847999638,None,377.2403847999638,None,377.2403847999638,None,,,,,,,,,,,,,,011,2022-05-11_13h47.24.989,Main,2022.1.1,61.41370670627083,
neutral,negative,2,k,k,,,,,,,,,6,15,123,16,,,,,,,,,main,1,1,2,negative,neutral,k,k,1,0.5650480999611318,377.24350989982486,378.2426855999511,378.2426855999511,None,377.24350989982486,None,377.24350989982486,None,377.24350989982486,None,378.807010399946,None,378.807010399946,None,378.807010399946,None,,,,,,,,,,,,,,011,2022-05-11_13h47.24.989,Main,2022.1.1,61.41370670627083,
negative,negative,2,j,l,,,,,,,,,6,16,124,9,,,,,,,,,main,1,1,2,negative,negative,l,l,1,0.672103299992159,378.8123464998789,379.8259687998798,379.79266169993207,None,378.8123464998789,None,378.8123464998789,None,378.8123464998789,None,380.4764512999216,None,380.4764512999216,None,380.4764512999216,None,,,,,,,,,,,,,,011,2022-05-11_13h47.24.989,Main,2022.1.1,61.41370670627083,
positive,negative,2,l,j,,,,,,,,,6,17,125,14,,,,,,,,,main,1,1,2,negative,positive,j,j,1,0.6573161999695003,380.4844398999121,381.492520699976,381.47598230000585,None,380.4844398999121,None,380.4844398999121,None,380.4844398999121,None,382.1399115999928,None,382.1399115999928,None,382.1399115999928,None,,,,,,,,,,,,,,011,2022-05-11_13h47.24.989,Main,2022.1.1,61.41370670627083,
neutral,neutral,1,k,k,,,,,,,,,7,0,126,1,,,,,,,,,main,2,2,1,neutral,neutral,k,k,1,0.5817948998883367,382.1399962999858,383.1398926000111,383.1398926000111,None,382.1399962999858,None,382.1399962999858,None,382.1399962999858,None,383.72327929998283,None,383.72327929998283,None,383.72327929998283,None,,,,,,,,,,,,,,011,2022-05-11_13h47.24.989,Main,2022.1.1,61.41370670627083,
neutral,negative,2,k,k,,,,,,,,,7,1,127,16,,,,,,,,,main,2,2,2,negative,neutral,k,k,1,0.6151499999687076,383.72666709986515,384.72588289994746,384.72588289994746,None,383.72666709986515,None,383.72666709986515,None,383.72666709986515,None,385.34022969992367,None,385.34022969992367,None,385.34022969992367,None,,,,,,,,,,,,,,011,2022-05-11_13h47.24.989,Main,2022.1.1,61.41370670627083,
positive,negative,2,l,j,,,,,,,,,7,2,128,14,,,,,,,,,main,2,2,2,negative,positive,j,j,1,0.7317232999484986,385.3431581000332,386.3424257999286,386.3257852999959,None,385.3431581000332,None,385.3431581000332,None,385.3431581000332,None,387.0734946998535,None,387.0734946998535,None,387.0734946998535,None,,,,,,,,,,,,,,011,2022-05-11_13h47.24.989,Main,2022.1.1,61.41370670627083,
positive,positive,2,l,j,,,,,,,,,7,3,129,11,,,,,,,,,main,2,2,2,positive,positive,j,j,1,0.6814453001134098,387.09015930001624,388.0901262999978,388.0757128999103,None,387.09015930001624,None,387.09015930001624,None,387.09015930001624,None,388.75654209994246,None,388.75654209994246,None,388.75654209994246,None,,,,,,,,,,,,,,011,2022-05-11_13h47.24.989,Main,2022.1.1,61.41370670627083,
negative,negative,2,j,l,,,,,,,,,7,4,130,9,,,,,,,,,main,2,2,2,negative,negative,l,l,1,0.6318767999764532,388.7623491999693,389.77569439983927,389.74255599989556,None,388.7623491999693,None,388.7623491999693,None,388.7623491999693,None,390.39006179997233,None,390.39006179997233,None,390.39006179997233,None,,,,,,,,,,,,,,011,2022-05-11_13h47.24.989,Main,2022.1.1,61.41370670627083,
neutral,positive,1,k,k,,,,,,,,,7,5,131,4,,,,,,,,,main,2,2,1,positive,neutral,k,k,1,0.6958895002026111,390.3935081998352,391.4089714998845,391.39252029987983,None,390.3935081998352,None,390.3935081998352,None,390.3935081998352,None,392.0831300998805,None,392.0831300998805,None,392.0831300998805,None,,,,,,,,,,,,,,011,2022-05-11_13h47.24.989,Main,2022.1.1,61.41370670627083,
neutral,negative,1,k,k,,,,,,,,,7,6,132,7,,,,,,,,,main,1,1,1,negative,neutral,k,k,1,0.6331058000214398,392.08839129982516,393.08967279992066,393.08967279992066,None,392.08839129982516,None,392.08839129982516,None,392.08839129982516,None,393.72302049987485,None,393.72302049987485,None,393.72302049987485,None,,,,,,,,,,,,,,011,2022-05-11_13h47.24.989,Main,2022.1.1,61.41370670627083,
neutral,neutral,2,k,k,,,,,,,,,7,7,133,10,,,,,,,,,main,2,2,2,neutral,neutral,k,k,1,0.5662598002236336,393.7230284998659,394.7230340000242,394.7230340000242,None,393.7230284998659,None,393.7230284998659,None,393.7230284998659,None,395.2909080999205,None,395.2909080999205,None,395.2909080999205,None,,,,,,,,,,,,,,011,2022-05-11_13h47.24.989,Main,2022.1.1,61.41370670627083,
negative,negative,1,j,l,,,,,,,,,7,8,134,0,,,,,,,,,main,2,2,1,negative,negative,l,l,1,0.7152515000198036,395.2967395999003,396.3088726999704,396.2922224998474,None,395.2967395999003,None,395.2967395999003,None,395.2967395999003,None,397.00661150000525,None,397.00661150000525,None,397.00661150000525,None,,,,,,,,,,,,,,011,2022-05-11_13h47.24.989,Main,2022.1.1,61.41370670627083,
negative,positive,2,j,l,,,,,,,,,7,9,135,15,,,,,,,,,main,2,2,2,positive,negative,l,l,1,0.6827529000584036,397.01080839987844,398.02552419994026,398.0088861999102,None,397.01080839987844,None,397.01080839987844,None,397.01080839987844,None,398.69206830004697,None,398.69206830004697,None,398.69206830004697,None,,,,,,,,,,,,,,011,2022-05-11_13h47.24.989,Main,2022.1.1,61.41370670627083,
neutral,positive,2,k,k,,,,,,,,,7,10,136,13,,,,,,,,,main,2,2,2,positive,neutral,k,k,1,0.6792892999947071,398.69589139986783,399.7087323998567,399.692154499935,None,398.69589139986783,None,398.69589139986783,None,398.69589139986783,None,400.3729142999044,None,400.3729142999044,None,400.3729142999044,None,,,,,,,,,,,,,,011,2022-05-11_13h47.24.989,Main,2022.1.1,61.41370670627083,
negative,neutral,2,j,l,,,,,,,,,7,11,137,12,,,,,,,,,main,2,2,2,neutral,negative,l,l,1,0.566864499822259,400.3786617999431,401.3920116999652,401.3588095998857,None,400.3786617999431,None,400.3786617999431,None,400.3786617999431,None,401.93982999988367,None,401.93982999988367,None,401.93982999988367,None,,,,,,,,,,,,,,011,2022-05-11_13h47.24.989,Main,2022.1.1,61.41370670627083,
positive,neutral,2,l,j,,,,,,,,,7,12,138,17,,,,,,,,,main,1,1,2,neutral,positive,j,j,1,0.7963761000428349,401.9441595999524,402.9561315998435,402.9394698999822,None,401.9441595999524,None,401.9441595999524,None,401.9441595999524,None,403.73944469990676,None,403.73944469990676,None,403.73944469990676,None,,,,,,,,,,,,,,011,2022-05-11_13h47.24.989,Main,2022.1.1,61.41370670627083,
positive,positive,1,l,j,,,,,,,,,7,13,139,2,,,,,,,,,main,2,2,1,positive,positive,j,,0,1.0520066998433322,403.73945049988106,404.7394801999908,404.7394801999908,None,403.73945049988106,None,403.73945049988106,None,403.73945049988106,None,405.7897834999021,None,405.7897834999021,None,405.7897834999021,None,,,,,,,,,,,,,,011,2022-05-11_13h47.24.989,Main,2022.1.1,61.41370670627083,
positive,neutral,1,l,j,,,,,,,,,7,14,140,8,,,,,,,,,main,1,1,1,neutral,positive,j,j,1,0.7839198999572545,406.79008199996315,407.7919735999312,407.7753393999301,None,406.79008199996315,None,406.79008199996315,None,406.79008199996315,None,408.57272390003783,None,408.57272390003783,None,408.57272390003783,None,,,,,,,,,,,,,,011,2022-05-11_13h47.24.989,Main,2022.1.1,61.41370670627083,
negative,neutral,1,j,l,,,,,,,,,7,15,141,3,,,,,,,,,main,1,1,1,neutral,negative,l,l,1,0.8153423999901861,408.57561059994623,409.5752426998224,409.558642399963,None,408.57561059994623,None,408.57561059994623,None,408.57561059994623,None,410.38966719999445,None,410.38966719999445,None,410.38966719999445,None,,,,,,,,,,,,,,011,2022-05-11_13h47.24.989,Main,2022.1.1,61.41370670627083,
positive,negative,1,l,j,,,,,,,,,7,16,142,5,,,,,,,,,main,1,1,1,negative,positive,j,j,1,0.7652443998958915,410.3927914998494,411.391967699863,411.391967699863,None,410.3927914998494,None,410.3927914998494,None,410.3927914998494,None,412.1562788999407,None,412.1562788999407,None,412.1562788999407,None,,,,,,,,,,,,,,011,2022-05-11_13h47.24.989,Main,2022.1.1,61.41370670627083,
negative,positive,1,j,l,,,,,,,,,7,17,143,6,,,,,,,,,main,1,1,1,positive,negative,l,l,1,0.614591599907726,412.15966819995083,413.1725818000268,413.15591560001485,None,412.15966819995083,None,412.15966819995083,None,412.15966819995083,None,413.77256999986713,None,413.77256999986713,None,413.77256999986713,None,,,,,,,,,,,,,,011,2022-05-11_13h47.24.989,Main,2022.1.1,61.41370670627083,
negative,neutral,1,j,l,,,,,,,,,8,0,144,3,,,,,,,,,main,1,1,1,neutral,negative,l,l,1,0.5651583999861032,413.77295379992574,414.772579499986,414.772579499986,None,413.77295379992574,None,413.77295379992574,None,413.77295379992574,None,415.3392349000322,None,415.3392349000322,None,415.3392349000322,None,,,,,,,,,,,,,,011,2022-05-11_13h47.24.989,Main,2022.1.1,61.41370670627083,
neutral,neutral,2,k,k,,,,,,,,,8,1,145,10,,,,,,,,,main,1,1,2,neutral,neutral,k,k,1,0.4987713999580592,415.3393361000344,416.3392336999532,416.3392336999532,None,415.3393361000344,None,415.3393361000344,None,415.3393361000344,None,416.8395667998819,None,416.8395667998819,None,416.8395667998819,None,,,,,,,,,,,,,,011,2022-05-11_13h47.24.989,Main,2022.1.1,61.41370670627083,
negative,positive,2,j,l,,,,,,,,,8,2,146,15,,,,,,,,,main,2,2,2,positive,negative,l,l,1,0.765186500037089,416.84304509987123,417.85840559983626,417.8418101000134,None,416.84304509987123,None,416.84304509987123,None,416.84304509987123,None,418.60615640000907,None,418.60615640000907,None,418.60615640000907,None,,,,,,,,,,,,,,011,2022-05-11_13h47.24.989,Main,2022.1.1,61.41370670627083,
negative,negative,2,j,l,,,,,,,,,8,3,147,9,,,,,,,,,main,2,2,2,negative,negative,l,l,1,0.7649598999414593,418.60934009985067,419.6083933999762,419.6083933999762,None,418.60934009985067,None,418.60934009985067,None,418.60934009985067,None,420.3727195000509,None,420.3727195000509,None,420.3727195000509,None,,,,,,,,,,,,,,011,2022-05-11_13h47.24.989,Main,2022.1.1,61.41370670627083,
negative,negative,1,j,l,,,,,,,,,8,4,148,0,,,,,,,,,main,2,2,1,negative,negative,l,l,1,0.6651633000001311,420.37897389987484,421.3916350000072,421.3751016999595,None,420.37897389987484,None,420.37897389987484,None,420.37897389987484,None,422.03940609989223,None,422.03940609989223,None,422.03940609989223,None,,,,,,,,,,,,,,011,2022-05-11_13h47.24.989,Main,2022.1.1,61.41370670627083,
neutral,negative,1,k,k,,,,,,,,,8,5,149,7,,,,,,,,,main,1,1,1,negative,neutral,k,k,1,1.4322522000875324,422.0428988998756,423.05828729993664,423.0416615998838,None,422.0428988998756,None,422.0428988998756,None,422.0428988998756,None,424.4723334999988,None,424.4723334999988,None,424.4723334999988,None,,,,,,,,,,,,,,011,2022-05-11_13h47.24.989,Main,2022.1.1,61.41370670627083,
negative,neutral,2,j,l,,,,,,,,,8,6,150,12,,,,,,,,,main,2,2,2,neutral,negative,l,l,1,0.7808050999883562,424.47325949999504,425.4723200998269,425.4723200998269,None,424.47325949999504,None,424.47325949999504,None,424.47325949999504,None,426.2556729999604,None,426.2556729999604,None,426.2556729999604,None,,,,,,,,,,,,,,011,2022-05-11_13h47.24.989,Main,2022.1.1,61.41370670627083,
positive,negative,2,l,j,,,,,,,,,8,7,151,14,,,,,,,,,main,2,2,2,negative,positive,j,j,1,0.7485978999175131,426.2587824999355,427.2583109999541,427.2583109999541,None,426.2587824999355,None,426.2587824999355,None,426.2587824999355,None,428.00594139990864,None,428.00594139990864,None,428.00594139990864,None,,,,,,,,,,,,,,011,2022-05-11_13h47.24.989,Main,2022.1.1,61.41370670627083,
positive,neutral,1,l,j,,,,,,,,,8,8,152,8,,,,,,,,,main,2,2,1,neutral,positive,j,j,1,0.7484709999989718,428.00912739988416,429.00818370003253,429.00818370003253,None,428.00912739988416,None,428.00912739988416,None,428.00912739988416,None,429.7558998999419,None,429.7558998999419,None,429.7558998999419,None,,,,,,,,,,,,,,011,2022-05-11_13h47.24.989,Main,2022.1.1,61.41370670627083,
neutral,negative,2,k,k,,,,,,,,,8,9,153,16,,,,,,,,,main,2,2,2,negative,neutral,k,k,1,0.665648200083524,429.7592731998302,430.7747509998735,430.75823589996435,None,429.7592731998302,None,429.7592731998302,None,429.7592731998302,None,431.4230497000506,None,431.4230497000506,None,431.4230497000506,None,,,,,,,,,,,,,,011,2022-05-11_13h47.24.989,Main,2022.1.1,61.41370670627083,
neutral,positive,2,k,k,,,,,,,,,8,10,154,13,,,,,,,,,main,1,1,2,positive,neutral,k,k,1,0.5349572000559419,431.4290581999812,432.44143819995224,432.42477569985203,None,431.4290581999812,None,431.4290581999812,None,431.4290581999812,None,432.95950800001157,None,432.95950800001157,None,432.95950800001157,None,,,,,,,,,,,,,,011,2022-05-11_13h47.24.989,Main,2022.1.1,61.41370670627083,
neutral,positive,1,k,k,,,,,,,,,8,11,155,4,,,,,,,,,main,2,2,1,positive,neutral,k,k,1,0.727825399953872,432.96230060001835,433.974691899959,433.9580820000265,None,432.96230060001835,None,432.96230060001835,None,432.96230060001835,None,434.6887782000238,None,434.6887782000238,None,434.6887782000238,None,,,,,,,,,,,,,,011,2022-05-11_13h47.24.989,Main,2022.1.1,61.41370670627083,
positive,positive,2,l,j,,,,,,,,,8,12,156,11,,,,,,,,,main,2,2,2,positive,positive,j,j,1,0.8319888999685645,434.68877799995244,435.68876519985497,435.68876519985497,None,434.68877799995244,None,434.68877799995244,None,434.68877799995244,None,436.5221436999971,None,436.5221436999971,None,436.5221436999971,None,,,,,,,,,,,,,,011,2022-05-11_13h47.24.989,Main,2022.1.1,61.41370670627083,
positive,neutral,2,l,j,,,,,,,,,8,13,157,17,,,,,,,,,main,1,1,2,neutral,positive,j,j,1,0.6151572000235319,436.52503989986144,437.5246987999417,437.5246987999417,None,436.52503989986144,None,436.52503989986144,None,436.52503989986144,None,438.13908529987094,None,438.13908529987094,None,438.13908529987094,None,,,,,,,,,,,,,,011,2022-05-11_13h47.24.989,Main,2022.1.1,61.41370670627083,
positive,negative,1,l,j,,,,,,,,,8,14,158,5,,,,,,,,,main,2,2,1,negative,positive,j,j,1,0.6510775999631733,438.14236319996417,439.1578969999682,439.1413232998457,None,438.14236319996417,None,438.14236319996417,None,438.14236319996417,None,439.79134389997927,None,439.79134389997927,None,439.79134389997927,None,,,,,,,,,,,,,,011,2022-05-11_13h47.24.989,Main,2022.1.1,61.41370670627083,
positive,positive,1,l,j,,,,,,,,,8,15,159,2,,,,,,,,,main,2,2,1,positive,positive,j,j,1,0.528362600132823,439.79627229995094,440.80786839989014,440.7912492000032,None,439.79627229995094,None,439.79627229995094,None,439.79627229995094,None,441.3223301999504,None,441.3223301999504,None,441.3223301999504,None,,,,,,,,,,,,,,011,2022-05-11_13h47.24.989,Main,2022.1.1,61.41370670627083,
neutral,neutral,1,k,k,,,,,,,,,8,16,160,1,,,,,,,,,main,2,2,1,neutral,neutral,k,k,1,0.7177657999563962,441.32578959991224,442.34114549984224,442.3246344998479,None,441.32578959991224,None,441.32578959991224,None,441.32578959991224,None,443.04172809987796,None,443.04172809987796,None,443.04172809987796,None,,,,,,,,,,,,,,011,2022-05-11_13h47.24.989,Main,2022.1.1,61.41370670627083,
negative,positive,1,j,l,,,,,,,,,8,17,161,6,,,,,,,,,main,2,2,1,positive,negative,l,l,1,0.7448458999861032,443.045511999866,444.05587329994887,444.0394454000052,None,443.045511999866,None,443.045511999866,None,443.045511999866,None,444.7885790998815,None,444.7885790998815,None,444.7885790998815,None,,,,,,,,,,,,,,011,2022-05-11_13h47.24.989,Main,2022.1.1,61.41370670627083,
positive,neutral,2,l,j,,,,,,,,,9,0,162,17,,,,,,,,,main,2,2,2,neutral,positive,j,j,1,0.6317215000744909,444.78881959989667,445.7888711998239,445.7888711998239,None,444.78881959989667,None,444.78881959989667,None,444.78881959989667,None,446.4221736998996,None,446.4221736998996,None,446.4221736998996,None,,,,,,,,,,,,,,011,2022-05-11_13h47.24.989,Main,2022.1.1,61.41370670627083,
negative,neutral,1,j,l,,,,,,,,,9,1,163,3,,,,,,,,,main,1,1,1,neutral,negative,l,l,1,0.7150451000779867,446.4218712998554,447.4244681999553,447.40581849985756,None,446.4218712998554,None,446.4218712998554,None,446.4218712998554,None,448.138834199938,None,448.138834199938,None,448.138834199938,None,,,,,,,,,,,,,,011,2022-05-11_13h47.24.989,Main,2022.1.1,61.41370670627083,
positive,positive,2,l,j,,,,,,,,,9,2,164,11,,,,,,,,,main,2,2,2,positive,positive,j,j,1,1.381783700082451,448.1419557000045,449.157736599911,449.14112729998305,None,448.1419557000045,None,448.1419557000045,None,448.1419557000045,None,450.5221128999954,None,450.5221128999954,None,450.5221128999954,None,,,,,,,,,,,,,,011,2022-05-11_13h47.24.989,Main,2022.1.1,61.41370670627083,
negative,negative,1,j,l,,,,,,,,,9,3,165,0,,,,,,,,,main,2,2,1,negative,negative,l,l,1,0.7152434000745416,450.52816039999016,451.5409989999607,451.5244391998276,None,450.52816039999016,None,450.52816039999016,None,450.52816039999016,None,452.2387317999499,None,452.2387317999499,None,452.2387317999499,None,,,,,,,,,,,,,,011,2022-05-11_13h47.24.989,Main,2022.1.1,61.41370670627083,
positive,negative,1,l,j,,,,,,,,,9,4,166,5,,,,,,,,,main,2,2,1,negative,positive,j,j,1,1.1846221000887454,452.2446659998968,453.25767760002054,453.24117890000343,None,452.2446659998968,None,452.2446659998968,None,452.2446659998968,None,454.42421030004044,None,454.42421030004044,None,454.42421030004044,None,,,,,,,,,,,,,,011,2022-05-11_13h47.24.989,Main,2022.1.1,61.41370670627083,
neutral,positive,2,k,k,,,,,,,,,9,5,167,13,,,,,,,,,main,1,1,2,positive,neutral,k,k,1,0.6448345999233425,454.4280979000032,455.4379417998716,455.42132720001973,None,454.4280979000032,None,454.4280979000032,None,454.4280979000032,None,456.07164669998457,None,456.07164669998457,None,456.07164669998457,None,,,,,,,,,,,,,,011,2022-05-11_13h47.24.989,Main,2022.1.1,61.41370670627083,
positive,positive,1,l,j,,,,,,,,,9,6,168,2,,,,,,,,,main,2,2,1,positive,positive,j,j,1,1.1487823000643402,456.07164720003493,457.07162770000286,457.07162770000286,None,456.07164720003493,None,456.07164720003493,None,456.07164720003493,None,458.22197709984613,None,458.22197709984613,None,458.22197709984613,None,,,,,,,,,,,,,,011,2022-05-11_13h47.24.989,Main,2022.1.1,61.41370670627083,
neutral,negative,2,k,k,,,,,,,,,9,7,169,16,,,,,,,,,main,2,2,2,negative,neutral,k,k,1,0.6817639998625964,458.22533439984545,459.2408487999346,459.2242258999031,None,458.22533439984545,None,458.22533439984545,None,458.22533439984545,None,459.90525550006424,None,459.90525550006424,None,459.90525550006424,None,,,,,,,,,,,,,,011,2022-05-11_13h47.24.989,Main,2022.1.1,61.41370670627083,
neutral,neutral,2,k,k,,,,,,,,,9,8,170,10,,,,,,,,,main,2,2,2,neutral,neutral,k,k,1,0.5821760999970138,459.9088281998411,460.9242248998489,460.9054170998279,None,459.9088281998411,None,459.9088281998411,None,459.9088281998411,None,461.4885747999186,None,461.4885747999186,None,461.4885747999186,None,,,,,,,,,,,,,,011,2022-05-11_13h47.24.989,Main,2022.1.1,61.41370670627083,
negative,positive,2,j,l,,,,,,,,,9,9,171,15,,,,,,,,,main,1,1,2,positive,negative,l,l,1,0.6669439000543207,461.49229029985145,462.5054587998893,462.4908650999423,None,461.49229029985145,None,461.49229029985145,None,461.49229029985145,None,463.15735970002135,None,463.15735970002135,None,463.15735970002135,None,,,,,,,,,,,,,,011,2022-05-11_13h47.24.989,Main,2022.1.1,61.41370670627083,
neutral,negative,1,k,k,,,,,,,,,9,10,172,7,,,,,,,,,main,2,2,1,negative,neutral,k,k,1,0.7128709000535309,463.16692260000855,464.1740470000077,464.15737919998355,None,463.16692260000855,None,463.16692260000855,None,463.16692260000855,None,464.8717742998386,None,464.8717742998386,None,464.8717742998386,None,,,,,,,,,,,,,,011,2022-05-11_13h47.24.989,Main,2022.1.1,61.41370670627083,
neutral,neutral,1,k,k,,,,,,,,,9,11,173,1,,,,,,,,,main,1,1,1,neutral,neutral,k,k,1,0.6479932998772711,464.8752982998267,465.8881232999265,465.87145889992826,None,464.8752982998267,None,464.8752982998267,None,464.8752982998267,None,466.5214220998576,None,466.5214220998576,None,466.5214220998576,None,,,,,,,,,,,,,,011,2022-05-11_13h47.24.989,Main,2022.1.1,61.41370670627083,
positive,neutral,1,l,j,,,,,,,,,9,12,174,8,,,,,,,,,main,2,2,1,neutral,positive,j,j,1,0.7159692000132054,466.5214180999901,467.5214205000084,467.5214205000084,None,466.5214180999901,None,466.5214180999901,None,466.5214180999901,None,468.2380910998443,None,468.2380910998443,None,468.2380910998443,None,,,,,,,,,,,,,,011,2022-05-11_13h47.24.989,Main,2022.1.1,61.41370670627083,
negative,negative,2,j,l,,,,,,,,,9,13,175,9,,,,,,,,,main,2,2,2,negative,negative,l,l,1,0.8145075999200344,468.2420280999504,469.2572945000138,469.2407341999933,None,468.2420280999504,None,468.2420280999504,None,468.2420280999504,None,470.0550277999835,None,470.0550277999835,None,470.0550277999835,None,,,,,,,,,,,,,,011,2022-05-11_13h47.24.989,Main,2022.1.1,61.41370670627083,
negative,neutral,2,j,l,,,,,,,,,9,14,176,12,,,,,,,,,main,1,1,2,neutral,negative,l,l,1,0.6866979000624269,470.06041739997454,471.07406180002727,471.05478609981947,None,470.06041739997454,None,470.06041739997454,None,470.06041739997454,None,471.7418147999095,None,471.7418147999095,None,471.7418147999095,None,,,,,,,,,,,,,,011,2022-05-11_13h47.24.989,Main,2022.1.1,61.41370670627083,
positive,negative,2,l,j,,,,,,,,,9,15,177,14,,,,,,,,,main,1,1,2,negative,positive,j,j,1,0.8434764998964965,471.7459141998552,472.7571982999798,472.74065639986657,None,471.7459141998552,None,471.7459141998552,None,471.7459141998552,None,473.5882816999918,None,473.5882816999918,None,473.5882816999918,None,,,,,,,,,,,,,,011,2022-05-11_13h47.24.989,Main,2022.1.1,61.41370670627083,
neutral,positive,1,k,k,,,,,,,,,9,16,178,4,,,,,,,,,main,1,1,1,positive,neutral,k,k,1,0.5882751999888569,473.59145669988357,474.5905924998224,474.5905924998224,None,473.59145669988357,None,473.59145669988357,None,473.59145669988357,None,475.17376649992076,None,475.17376649992076,None,475.17376649992076,None,,,,,,,,,,,,,,011,2022-05-11_13h47.24.989,Main,2022.1.1,61.41370670627083,
negative,positive,1,j,l,,,,,,,,,9,17,179,6,,,,,,,,,main,1,1,1,positive,negative,l,l,1,0.8249387999530882,475.1809520998504,476.1904887999408,476.1738644998986,None,475.1809520998504,None,475.1809520998504,None,475.1809520998504,None,477.0045178000117,None,477.0045178000117,None,477.0045178000117,None,,,,,,,,,,,,,,011,2022-05-11_13h47.24.989,Main,2022.1.1,61.41370670627083,
neutral,neutral,1,k,k,,,,,,,,,10,0,180,1,,,,,,,,,main,2,2,1,neutral,neutral,k,k,1,0.6985383999999613,477.0045237999875,478.0045155000407,478.0045155000407,None,477.0045237999875,None,477.0045237999875,None,477.0045237999875,None,478.70453839988915,None,478.70453839988915,None,478.70453839988915,None,,,,,,,,,,,,,,011,2022-05-11_13h47.24.989,Main,2022.1.1,61.41370670627083,
negative,neutral,2,j,l,,,,,,,,,10,1,181,12,,,,,,,,,main,1,1,2,neutral,negative,l,l,1,0.7176234000362456,478.7098834000062,479.723731999984,479.690466,None,478.7098834000062,None,478.7098834000062,None,478.7098834000062,None,480.42370680004825,None,480.42370680004825,None,480.42370680004825,None,,,,,,,,,,,,,,011,2022-05-11_13h47.24.989,Main,2022.1.1,61.41370670627083,
positive,positive,2,l,j,,,,,,,,,10,2,182,11,,,,,,,,,main,1,1,2,positive,positive,j,j,1,0.8294277999084443,480.4267060998827,481.4403270999901,481.42371180001646,None,480.4267060998827,None,480.4267060998827,None,480.4267060998827,None,482.2547654000344,None,482.2547654000344,None,482.2547654000344,None,,,,,,,,,,,,,,011,2022-05-11_13h47.24.989,Main,2022.1.1,61.41370670627083,
neutral,positive,1,k,k,,,,,,,,,10,3,183,4,,,,,,,,,main,1,1,1,positive,neutral,k,k,1,0.7484772000461817,482.2601657998748,483.27373409993015,483.2570600998588,None,482.2601657998748,None,482.2601657998748,None,482.2601657998748,None,484.0047148999991,None,484.0047148999991,None,484.0047148999991,None,,,,,,,,,,,,,,011,2022-05-11_13h47.24.989,Main,2022.1.1,61.41370670627083,
negative,negative,2,j,l,,,,,,,,,10,4,184,9,,,,,,,,,main,1,1,2,negative,negative,l,l,1,0.8507892999332398,484.00779009982944,485.0050309000071,484.990413099993,None,484.00779009982944,None,484.00779009982944,None,484.00779009982944,None,485.8570460999152,None,485.8570460999152,None,485.8570460999152,None,,,,,,,,,,,,,,011,2022-05-11_13h47.24.989,Main,2022.1.1,61.41370670627083,
positive,neutral,1,l,j,,,,,,,,,10,5,185,8,,,,,,,,,main,2,2,1,neutral,positive,j,j,1,0.8289715000428259,485.8598527999129,486.8706212998368,486.853961299872,None,485.8598527999129,None,485.8598527999129,None,485.8598527999129,None,487.6876325999154,None,487.6876325999154,None,487.6876325999154,None,,,,,,,,,,,,,,011,2022-05-11_13h47.24.989,Main,2022.1.1,61.41370670627083,
neutral,positive,2,k,k,,,,,,,,,10,6,186,13,,,,,,,,,main,1,1,2,positive,neutral,k,k,1,0.6653201000299305,487.68762349989265,488.68759380001575,488.68759380001575,None,487.68762349989265,None,487.68762349989265,None,487.68762349989265,None,489.3543061000062,None,489.3543061000062,None,489.3543061000062,None,,,,,,,,,,,,,,011,2022-05-11_13h47.24.989,Main,2022.1.1,61.41370670627083,
positive,negative,2,l,j,,,,,,,,,10,7,187,14,,,,,,,,,main,1,1,2,negative,positive,j,j,1,0.7820037000346929,489.3573578998912,490.35689599998295,490.35689599998295,None,489.3573578998912,None,489.3573578998912,None,489.3573578998912,None,491.13790419984144,None,491.13790419984144,None,491.13790419984144,None,,,,,,,,,,,,,,011,2022-05-11_13h47.24.989,Main,2022.1.1,61.41370670627083,
negative,neutral,1,j,l,,,,,,,,,10,8,188,3,,,,,,,,,main,1,1,1,neutral,negative,l,l,1,0.7470466000959277,491.1472255999688,492.1567406000104,492.1401207000017,None,491.1472255999688,None,491.1472255999688,None,491.1472255999688,None,492.8875676999567,None,492.8875676999567,None,492.8875676999567,None,,,,,,,,,,,,,,011,2022-05-11_13h47.24.989,Main,2022.1.1,61.41370670627083,
neutral,neutral,2,k,k,,,,,,,,,10,9,189,10,,,,,,,,,main,2,2,2,neutral,neutral,k,k,1,0.6486796999815851,492.8912678998895,493.90677859983407,493.8901125998236,None,492.8912678998895,None,492.8912678998895,None,492.8912678998895,None,494.5378321000142,None,494.5378321000142,None,494.5378321000142,None,,,,,,,,,,,,,,011,2022-05-11_13h47.24.989,Main,2022.1.1,61.41370670627083,
negative,positive,2,j,l,,,,,,,,,10,10,190,15,,,,,,,,,main,2,2,2,positive,negative,l,l,1,0.7150061000138521,494.541600599885,495.55669009988196,495.54007370001636,None,494.541600599885,None,494.541600599885,None,494.541600599885,None,496.2544488998363,None,496.2544488998363,None,496.2544488998363,None,,,,,,,,,,,,,,011,2022-05-11_13h47.24.989,Main,2022.1.1,61.41370670627083,
neutral,negative,1,k,k,,,,,,,,,10,11,191,7,,,,,,,,,main,2,2,1,negative,neutral,k,k,1,1.1145542999729514,496.2579782998655,497.2733032000251,497.2567340999376,None,496.2579782998655,None,496.2579782998655,None,496.2579782998655,None,498.3707325000549,None,498.3707325000549,None,498.3707325000549,None,,,,,,,,,,,,,,011,2022-05-11_13h47.24.989,Main,2022.1.1,61.41370670627083,
positive,neutral,2,l,j,,,,,,,,,10,12,192,17,,,,,,,,,main,1,1,2,neutral,positive,j,j,1,0.7649739000480622,498.3707321998663,499.37072420003824,499.37072420003824,None,498.3707321998663,None,498.3707321998663,None,498.3707321998663,None,500.13738989999985,None,500.13738989999985,None,500.13738989999985,None,,,,,,,,,,,,,,011,2022-05-11_13h47.24.989,Main,2022.1.1,61.41370670627083,
positive,negative,1,l,j,,,,,,,,,10,13,193,5,,,,,,,,,main,1,1,1,negative,positive,j,j,1,1.1008991999551654,500.1402347998228,501.13983799982816,501.1232431998942,None,500.1402347998228,None,500.1402347998228,None,500.1402347998228,None,502.23982430000325,None,502.23982430000325,None,502.23982430000325,None,,,,,,,,,,,,,,011,2022-05-11_13h47.24.989,Main,2022.1.1,61.41370670627083,
negative,negative,1,j,l,,,,,,,,,10,14,194,0,,,,,,,,,main,2,2,1,negative,negative,l,l,1,0.646290099946782,502.24265669984743,503.25412599998526,503.23992449999787,None,502.24265669984743,None,502.24265669984743,None,502.24265669984743,None,503.8876292999601,None,503.8876292999601,None,503.8876292999601,None,,,,,,,,,,,,,,011,2022-05-11_13h47.24.989,Main,2022.1.1,61.41370670627083,
negative,positive,1,j,l,,,,,,,,,10,15,195,6,,,,,,,,,main,2,2,1,positive,negative,l,l,1,0.664494999917224,503.8918014999945,504.9065337998327,504.88986889994703,None,503.8918014999945,None,503.8918014999945,None,503.8918014999945,None,505.5542573999381,None,505.5542573999381,None,505.5542573999381,None,,,,,,,,,,,,,,011,2022-05-11_13h47.24.989,Main,2022.1.1,61.41370670627083,
positive,positive,1,l,j,,,,,,,,,10,16,196,2,,,,,,,,,main,1,1,1,positive,positive,j,j,1,0.7838306999765337,505.557770999847,506.5731742999051,506.55656149983406,None,505.557770999847,None,505.557770999847,None,505.557770999847,None,507.3391934999498,None,507.3391934999498,None,507.3391934999498,None,,,,,,,,,,,,,,011,2022-05-11_13h47.24.989,Main,2022.1.1,61.41370670627083,
neutral,negative,2,k,k,,,,,,,,,10,17,197,16,,,,,,,,,main,2,2,2,negative,neutral,k,k,1,0.7614482999779284,507.34383419994265,508.3538482999429,508.33715899987146,None,507.34383419994265,None,507.34383419994265,None,507.34383419994265,None,509.10382479995025,None,509.10382479995025,None,509.10382479995025,None,,,,,,,,,,,,,,011,2022-05-11_13h47.24.989,Main,2022.1.1,61.41370670627083,
positive,positive,2,l,j,,,,,,,,,11,0,198,11,,,,,,,,,main,2,2,2,positive,positive,j,j,1,0.7317763001192361,509.10383369983174,510.1038565998897,510.1038565998897,None,509.10383369983174,None,509.10383369983174,None,509.10383369983174,None,510.8371928998502,None,510.8371928998502,None,510.8371928998502,None,,,,,,,,,,,,,,011,2022-05-11_13h47.24.989,Main,2022.1.1,61.41370670627083,
negative,neutral,1,j,l,,,,,,,,,11,1,199,3,,,,,,,,,main,1,1,1,neutral,negative,l,l,1,0.6842612999025732,510.840697000036,511.84009159985,511.84009159985,None,510.840697000036,None,510.840697000036,None,510.840697000036,None,512.5230192999122,None,512.5230192999122,None,512.5230192999122,None,,,,,,,,,,,,,,011,2022-05-11_13h47.24.989,Main,2022.1.1,61.41370670627083,
negative,positive,2,j,l,,,,,,,,,11,2,200,15,,,,,,,,,main,2,2,2,positive,negative,l,l,1,0.7484816000796854,512.5277580998372,513.5397177999839,513.5230568000115,None,512.5277580998372,None,512.5277580998372,None,512.5277580998372,None,514.2728819000301,None,514.2728819000301,None,514.2728819000301,None,,,,,,,,,,,,,,011,2022-05-11_13h47.24.989,Main,2022.1.1,61.41370670627083,
positive,neutral,2,l,j,,,,,,,,,11,3,201,17,,,,,,,,,main,2,2,2,neutral,positive,j,j,1,0.780930700013414,514.2769595999271,515.2876585000195,515.2730211999733,None,514.2769595999271,None,514.2769595999271,None,514.2769595999271,None,516.0562969998689,None,516.0562969998689,None,516.0562969998689,None,,,,,,,,,,,,,,011,2022-05-11_13h47.24.989,Main,2022.1.1,61.41370670627083,
neutral,negative,1,k,k,,,,,,,,,11,4,202,7,,,,,,,,,main,1,1,1,negative,neutral,k,k,1,0.6128404999617487,516.0592569999862,517.0729898000136,517.0542770999018,None,516.0592569999862,None,516.0592569999862,None,516.0592569999862,None,517.6706556999823,None,517.6706556999823,None,517.6706556999823,None,,,,,,,,,,,,,,011,2022-05-11_13h47.24.989,Main,2022.1.1,61.41370670627083,
positive,neutral,1,l,j,,,,,,,,,11,5,203,8,,,,,,,,,main,1,1,1,neutral,positive,j,j,1,0.7315817000344396,517.6737557998858,518.6896158000454,518.6729790999088,None,517.6737557998858,None,517.6737557998858,None,517.6737557998858,None,519.4038340999512,None,519.4038340999512,None,519.4038340999512,None,,,,,,,,,,,,,,011,2022-05-11_13h47.24.989,Main,2022.1.1,61.41370670627083,
negative,positive,1,j,l,,,,,,,,,11,6,204,6,,,,,,,,,main,2,2,1,positive,negative,l,l,1,0.8137624999508262,519.4066122998483,520.4202707000077,520.4039198998362,None,519.4066122998483,None,519.4066122998483,None,519.4066122998483,None,521.2202803998487,None,521.2202803998487,None,521.2202803998487,None,,,,,,,,,,,,,,011,2022-05-11_13h47.24.989,Main,2022.1.1,61.41370670627083,
positive,negative,2,l,j,,,,,,,,,11,7,205,14,,,,,,,,,main,1,1,2,negative,positive,j,j,1,0.7654912997968495,521.2234461999033,522.2228508999106,522.2228508999106,None,521.2234461999033,None,521.2234461999033,None,521.2234461999033,None,522.9872287000296,None,522.9872287000296,None,522.9872287000296,None,,,,,,,,,,,,,,011,2022-05-11_13h47.24.989,Main,2022.1.1,61.41370670627083,
neutral,neutral,2,k,k,,,,,,,,,11,8,206,10,,,,,,,,,main,2,2,2,neutral,neutral,k,k,1,0.614869800163433,522.990804299945,524.0061574999709,523.9895093999803,None,522.990804299945,None,522.990804299945,None,522.990804299945,None,524.6038559999549,None,524.6038559999549,None,524.6038559999549,None,,,,,,,,,,,,,,011,2022-05-11_13h47.24.989,Main,2022.1.1,61.41370670627083,
positive,negative,1,l,j,,,,,,,,,11,9,207,5,,,,,,,,,main,1,1,1,negative,positive,j,j,1,0.483704200014472,524.6227384998929,525.62269009999,525.5894943999592,None,524.6227384998929,None,524.6227384998929,None,524.6227384998929,None,526.0893820999888,None,526.0893820999888,None,526.0893820999888,None,,,,,,,,,,,,,,011,2022-05-11_13h47.24.989,Main,2022.1.1,61.41370670627083,
positive,positive,1,l,j,,,,,,,,,11,10,208,2,,,,,,,,,main,1,1,1,positive,positive,j,j,1,0.7662462999578565,526.0980330999009,527.1059925998561,527.0894192999694,None,526.0980330999009,None,526.0980330999009,None,526.0980330999009,None,527.8561020999448,None,527.8561020999448,None,527.8561020999448,None,,,,,,,,,,,,,,011,2022-05-11_13h47.24.989,Main,2022.1.1,61.41370670627083,
negative,negative,1,j,l,,,,,,,,,11,11,209,0,,,,,,,,,main,2,2,1,negative,negative,l,l,1,1.1488866000436246,527.859957800014,528.872657999862,528.8560385999735,None,527.859957800014,None,527.859957800014,None,527.859957800014,None,530.0033649998484,None,530.0033649998484,None,530.0033649998484,None,,,,,,,,,,,,,,011,2022-05-11_13h47.24.989,Main,2022.1.1,61.41370670627083,
neutral,negative,2,k,k,,,,,,,,,11,12,210,16,,,,,,,,,main,1,1,2,negative,neutral,k,k,1,0.6099224998615682,530.011015499942,531.0200159999076,531.003357599955,None,530.011015499942,None,530.011015499942,None,530.011015499942,None,531.6200549999019,None,531.6200549999019,None,531.6200549999019,None,,,,,,,,,,,,,,011,2022-05-11_13h47.24.989,Main,2022.1.1,61.41370670627083,
neutral,positive,2,k,k,,,,,,,,,11,13,211,13,,,,,,,,,main,1,1,2,positive,neutral,k,k,1,0.7511458999942988,531.6230345999356,532.6225463999435,532.6059470998589,None,531.6230345999356,None,531.6230345999356,None,531.6230345999356,None,533.372581000044,None,533.372581000044,None,533.372581000044,None,,,,,,,,,,,,,,011,2022-05-11_13h47.24.989,Main,2022.1.1,61.41370670627083,
neutral,positive,1,k,k,,,,,,,,,11,14,212,4,,,,,,,,,main,2,2,1,positive,neutral,k,k,1,0.5982242999598384,533.3756835998502,534.3891639998183,534.3725993998814,None,533.3756835998502,None,533.3756835998502,None,533.3756835998502,None,534.9724790000589,None,534.9724790000589,None,534.9724790000589,None,,,,,,,,,,,,,,011,2022-05-11_13h47.24.989,Main,2022.1.1,61.41370670627083,
negative,neutral,2,j,l,,,,,,,,,11,15,213,12,,,,,,,,,main,1,1,2,neutral,negative,l,l,1,0.6961393000092357,534.9752903999761,535.9892134999391,535.9725377999712,None,534.9752903999761,None,534.9752903999761,None,534.9752903999761,None,536.6702443999936,None,536.6702443999936,None,536.6702443999936,None,,,,,,,,,,,,,,011,2022-05-11_13h47.24.989,Main,2022.1.1,61.41370670627083,
neutral,neutral,1,k,k,,,,,,,,,11,16,214,1,,,,,,,,,main,1,1,1,neutral,neutral,k,k,1,0.6316793998703361,536.6731759998947,537.6725023998879,537.6725023998879,None,536.6731759998947,None,536.6731759998947,None,536.6731759998947,None,538.303537200042,None,538.303537200042,None,538.303537200042,None,,,,,,,,,,,,,,011,2022-05-11_13h47.24.989,Main,2022.1.1,61.41370670627083,
negative,negative,2,j,l,,,,,,,,,11,17,215,9,,,,,,,,,main,2,2,2,negative,negative,l,l,1,0.7365880000870675,538.3068273998797,539.320019699866,539.3058382999152,None,538.3068273998797,None,538.3068273998797,None,538.3068273998797,None,540.0416432999307,None,540.0416432999307,None,540.0416432999307,None,,,,,,,,,,,,,,011,2022-05-11_13h47.24.989,Main,2022.1.1,61.41370670627083,
negative,positive,2,j,l,,,,,,,,,12,0,216,15,,,,,,,,,main,1,1,2,positive,negative,l,l,1,0.9272196998354048,540.0534365999047,541.0531514999457,541.0368394998368,None,540.0534365999047,None,540.0534365999047,None,540.0534365999047,None,541.9702676998684,None,541.9702676998684,None,541.9702676998684,None,,,,,,,,,,,,,,011,2022-05-11_13h47.24.989,Main,2022.1.1,61.41370670627083,
negative,positive,1,j,l,,,,,,,,,12,1,217,6,,,,,,,,,main,1,1,1,positive,negative,l,l,1,0.7814726000651717,541.9867469999008,542.9889932000078,542.9723651998211,None,541.9867469999008,None,541.9867469999008,None,541.9867469999008,None,543.753457599855,None,543.753457599855,None,543.753457599855,None,,,,,,,,,,,,,,011,2022-05-11_13h47.24.989,Main,2022.1.1,61.41370670627083,
neutral,negative,2,k,k,,,,,,,,,12,2,218,16,,,,,,,,,main,2,2,2,negative,neutral,k,k,1,0.6146774000953883,543.7571962999646,544.7726361998357,544.7557293998543,None,543.7571962999646,None,543.7571962999646,None,543.7571962999646,None,545.3700944998534,None,545.3700944998534,None,545.3700944998534,None,,,,,,,,,,,,,,011,2022-05-11_13h47.24.989,Main,2022.1.1,61.41370670627083,
neutral,negative,1,k,k,,,,,,,,,12,3,219,7,,,,,,,,,main,2,2,1,negative,neutral,k,k,1,0.5982152000069618,545.3762238000054,546.3868974999059,546.3723514999729,None,545.3762238000054,None,545.3762238000054,None,545.3762238000054,None,546.9697125999489,None,546.9697125999489,None,546.9697125999489,None,,,,,,,,,,,,,,011,2022-05-11_13h47.24.989,Main,2022.1.1,61.41370670627083,
positive,negative,1,l,j,,,,,,,,,12,4,220,5,,,,,,,,,main,2,2,1,negative,positive,j,j,1,0.7653474998660386,546.9736947999336,547.9868993000127,547.9723785000388,None,546.9736947999336,None,546.9736947999336,None,546.9736947999336,None,548.7366733998758,None,548.7366733998758,None,548.7366733998758,None,,,,,,,,,,,,,,011,2022-05-11_13h47.24.989,Main,2022.1.1,61.41370670627083,
negative,negative,2,j,l,,,,,,,,,12,5,221,9,,,,,,,,,main,1,1,2,negative,negative,l,l,1,0.9645146001130342,548.7400922998786,549.7536390000023,549.7390302999411,None,548.7400922998786,None,548.7400922998786,None,548.7400922998786,None,550.7029090999392,None,550.7029090999392,None,550.7029090999392,None,,,,,,,,,,,,,,011,2022-05-11_13h47.24.989,Main,2022.1.1,61.41370670627083,
neutral,neutral,1,k,k,,,,,,,,,12,6,222,1,,,,,,,,,main,2,2,1,neutral,neutral,k,k,1,0.6819169998634607,550.7029255998787,551.702905099839,551.702905099839,None,550.7029255998787,None,550.7029255998787,None,550.7029255998787,None,552.3862881998764,None,552.3862881998764,None,552.3862881998764,None,,,,,,,,,,,,,,011,2022-05-11_13h47.24.989,Main,2022.1.1,61.41370670627083,
positive,positive,2,l,j,,,,,,,,,12,7,223,11,,,,,,,,,main,2,2,2,positive,positive,j,j,1,0.6835941998288035,552.3897663999815,553.3890505000018,553.3890505000018,None,552.3897663999815,None,552.3897663999815,None,552.3897663999815,None,554.0703953998861,None,554.0703953998861,None,554.0703953998861,None,,,,,,,,,,,,,,011,2022-05-11_13h47.24.989,Main,2022.1.1,61.41370670627083,
