target,distractor,set,ans1,ans2,rep_loop2.thisRepN,rep_loop2.thisTrialN,rep_loop2.thisN,rep_loop2.thisIndex,flanker_prac_loop.thisRepN,flanker_prac_loop.thisTrialN,flanker_prac_loop.thisN,flanker_prac_loop.thisIndex,flanker_main_loop.thisRepN,flanker_main_loop.thisTrialN,flanker_main_loop.thisN,flanker_main_loop.thisIndex,fl_inst_resp.keys,fl_inst_resp.rt,sound_1.started,sound_1.stopped,image_4.started,image_4.stopped,back_2.started,back_2.stopped,main_prac,fl_cold,fl_colt,fl_set,fl_dcond,fl_tcond,fl_ans,fl_res,fl_corr,fl_rt,fix_fl.started,fix_fl.stopped,targ.started,targ.stopped,j_button.started,j_button.stopped,k_button.started,k_button.stopped,l_button.started,l_button.stopped,j_button2.started,j_button2.stopped,k_button2.started,k_button2.stopped,l_button2.started,l_button2.stopped,mainback.started,mainback.stopped,key_resp.keys,key_resp.rt,mouse_6.x,mouse_6.y,mouse_6.leftButton,mouse_6.midButton,mouse_6.rightButton,mouse_6.started,mouse_6.stopped,text_2.started,text_2.stopped,id*,date,expName,psychopyVersion,frameRate,
,,,,,0,0,0,0,,,,,,,,,space,55.741139699937776,39.335519729880616,None,95.10074499994516,None,,,,,,,,,,,,,,,,,,,,,,,,,,,,,,,,,,,,,,,,,,012,2022-05-11_15h37.08.151,Main,2022.1.1,59.9963522219469,
positive,positive,1,l,j,,,,,0,0,0,2,,,,,,,,,,,99.09826570004225,None,prac,1,1,1,positive,positive,l,l,1,2.0792997002135962,101.1080556998495,102.11740059987642,102.1008377999533,None,101.1080556998495,None,101.1080556998495,None,101.1080556998495,None,104.18844399997033,None,104.18844399997033,None,104.18844399997033,None,,,,,,,,,,,,,,012,2022-05-11_15h37.08.151,Main,2022.1.1,59.9963522219469,
positive,negative,2,l,j,,,,,0,1,1,14,,,,,,,,,,,,,prac,2,2,2,negative,positive,l,l,1,1.3178021998610348,105.19931039982475,106.20068429992534,106.18400090001523,None,105.19931039982475,None,105.19931039982475,None,105.19931039982475,None,107.5150445299223,None,107.5150445299223,None,107.5150445299223,None,,,,,,,,,,,,,,012,2022-05-11_15h37.08.151,Main,2022.1.1,59.9963522219469,
positive,neutral,2,l,j,,,,,0,2,2,17,,,,,,,,,,,,,prac,1,1,2,neutral,positive,l,l,1,0.8820803000126034,107.52094909991138,108.53392970003188,108.5173172999639,None,107.52094909991138,None,107.52094909991138,None,107.52094909991138,None,109.39799972996116,None,109.39799972996116,None,109.39799972996116,None,,,,,,,,,,,,,,012,2022-05-11_15h37.08.151,Main,2022.1.1,59.9963522219469,
positive,neutral,1,l,j,,,,,0,3,3,8,,,,,,,,,,,,,prac,2,2,1,neutral,positive,l,l,1,1.602233000099659,109.39805519999936,110.3979010998737,110.3979010998737,None,109.39805519999936,None,109.39805519999936,None,109.39805519999936,None,111.99795129988343,None,111.99795129988343,None,111.99795129988343,None,,,,,,,,,,,,,,012,2022-05-11_15h37.08.151,Main,2022.1.1,59.9963522219469,
positive,positive,2,l,j,,,,,0,4,4,11,,,,,,,,,,,,,prac,2,2,2,positive,positive,l,l,1,1.2675230999011546,113.00544289988466,114.01708290004171,114.00049649993889,None,113.00544289988466,None,113.00544289988466,None,113.00544289988466,None,115.26490112999454,None,115.26490112999454,None,115.26490112999454,None,,,,,,,,,,,,,,012,2022-05-11_15h37.08.151,Main,2022.1.1,59.9963522219469,
neutral,negative,2,k,k,,,,,0,5,5,16,,,,,,,,,,,,,prac,1,1,2,negative,neutral,k,k,1,1.031533199828118,115.27080259984359,116.28373260004446,116.26710519986227,None,115.27080259984359,None,115.27080259984359,None,115.27080259984359,None,117.29816012992524,None,117.29816012992524,None,117.29816012992524,None,,,,,,,,,,,,,,012,2022-05-11_15h37.08.151,Main,2022.1.1,59.9963522219469,
neutral,neutral,2,k,k,,,,,0,6,6,10,,,,,,,,,,,,,prac,2,2,2,neutral,neutral,k,k,1,1.081912900088355,117.30353399994783,118.31693169986829,118.28368049999699,None,117.30353399994783,None,117.30353399994783,None,117.30353399994783,None,119.3814287299756,None,119.3814287299756,None,119.3814287299756,None,,,,,,,,,,,,,,012,2022-05-11_15h37.08.151,Main,2022.1.1,59.9963522219469,
negative,positive,2,j,l,,,,,0,7,7,15,,,,,,,,,,,,,prac,1,1,2,positive,negative,j,j,1,0.9311414000112563,119.38755399989896,120.40019079996273,120.38362239999697,None,119.38755399989896,None,119.38755399989896,None,119.38755399989896,None,121.31439332989976,None,121.31439332989976,None,121.31439332989976,None,,,,,,,,,,,,,,012,2022-05-11_15h37.08.151,Main,2022.1.1,59.9963522219469,
neutral,positive,1,k,k,,,,,0,8,8,4,,,,,,,,,,,,,prac,1,1,1,positive,neutral,k,k,1,1.1811830999795347,121.31695889984258,122.33096089982428,122.3143054000102,None,121.31695889984258,None,121.31695889984258,None,121.31695889984258,None,123.49771562987007,None,123.49771562987007,None,123.49771562987007,None,,,,,,,,,,,,,,012,2022-05-11_15h37.08.151,Main,2022.1.1,59.9963522219469,
negative,positive,1,j,l,,,,,0,9,9,6,,,,,,,,,,,,,prac,2,2,1,positive,negative,j,j,1,1.0488897000905126,123.49780229991302,124.49765049992129,124.49765049992129,None,123.49780229991302,None,123.49780229991302,None,123.49780229991302,None,125.5480774298776,None,125.5480774298776,None,125.5480774298776,None,,,,,,,,,,,,,,012,2022-05-11_15h37.08.151,Main,2022.1.1,59.9963522219469,
negative,neutral,1,j,l,,,,,0,10,10,3,,,,,,,,,,,,,prac,2,2,1,neutral,negative,j,j,1,0.9154623998329043,125.55370239983313,126.56679079984315,126.53353929985315,None,125.55370239983313,None,125.55370239983313,None,125.55370239983313,None,127.46462302980945,None,127.46462302980945,None,127.46462302980945,None,,,,,,,,,,,,,,012,2022-05-11_15h37.08.151,Main,2022.1.1,59.9963522219469,
neutral,positive,2,k,k,,,,,0,11,11,13,,,,,,,,,,,,,prac,1,1,2,positive,neutral,k,k,1,0.9342912000138313,127.46994919981807,128.48345849988982,128.45019859983586,None,127.46994919981807,None,127.46994919981807,None,127.46994919981807,None,129.40023382985964,None,129.40023382985964,None,129.40023382985964,None,,,,,,,,,,,,,,012,2022-05-11_15h37.08.151,Main,2022.1.1,59.9963522219469,
positive,negative,1,l,j,,,,,0,12,12,5,,,,,,,,,,,,,prac,1,1,1,negative,positive,l,l,1,1.3796399999409914,129.4040534000378,130.41674969997257,130.40013169986196,None,129.4040534000378,None,129.4040534000378,None,129.4040534000378,None,131.78117282991298,None,131.78117282991298,None,131.78117282991298,None,,,,,,,,,,,,,,012,2022-05-11_15h37.08.151,Main,2022.1.1,59.9963522219469,
negative,negative,2,j,l,,,,,0,13,13,9,,,,,,,,,,,,,prac,2,2,2,negative,negative,j,j,1,1.214884600136429,131.7873160999734,132.79741450003348,132.7807565999683,None,131.7873160999734,None,131.7873160999734,None,131.7873160999734,None,133.99745052983053,None,133.99745052983053,None,133.99745052983053,None,,,,,,,,,,,,,,012,2022-05-11_15h37.08.151,Main,2022.1.1,59.9963522219469,
neutral,negative,1,k,k,,,,,0,14,14,7,,,,,,,,,,,,,prac,2,2,1,negative,neutral,k,k,1,0.9658670001663268,133.9973953999579,134.99994989996776,134.98333019996062,None,133.9973953999579,None,133.9973953999579,None,133.9973953999579,None,135.96442512981594,None,135.96442512981594,None,135.96442512981594,None,,,,,,,,,,,,,,012,2022-05-11_15h37.08.151,Main,2022.1.1,59.9963522219469,
negative,neutral,2,j,l,,,,,0,15,15,12,,,,,,,,,,,,,prac,2,2,2,neutral,negative,j,j,1,0.865434099920094,135.9691297998652,136.98326419992372,136.9499576999806,None,135.9691297998652,None,135.9691297998652,None,135.9691297998652,None,137.83104433002882,None,137.83104433002882,None,137.83104433002882,None,,,,,,,,,,,,,,012,2022-05-11_15h37.08.151,Main,2022.1.1,59.9963522219469,
neutral,neutral,1,k,k,,,,,0,16,16,1,,,,,,,,,,,,,prac,2,2,1,neutral,neutral,k,k,1,0.8485181001015007,137.83605299983174,138.8498776999768,138.81661969982088,None,137.83605299983174,None,137.83605299983174,None,137.83605299983174,None,139.6809903299436,None,139.6809903299436,None,139.6809903299436,None,,,,,,,,,,,,,,012,2022-05-11_15h37.08.151,Main,2022.1.1,59.9963522219469,
negative,negative,1,j,l,,,,,0,17,17,0,,,,,,,,,,,,,prac,2,2,1,negative,negative,j,j,1,0.8324226001277566,139.68637240002863,140.69974249997176,140.6665393000003,None,139.68637240002863,None,139.68637240002863,None,139.68637240002863,None,141.51428912999108,None,141.51428912999108,None,141.51428912999108,None,,,,,,,,,,,,,,012,2022-05-11_15h37.08.151,Main,2022.1.1,59.9963522219469,
negative,positive,2,j,l,,,,,1,0,18,15,,,,,,,,,,,,,prac,1,1,2,positive,negative,j,j,1,0.8807924001011997,141.52253339998424,142.54673919989727,142.52461039996706,None,141.52253339998424,None,141.52253339998424,None,141.52253339998424,None,143.39724912983365,None,143.39724912983365,None,143.39724912983365,None,,,,,,,,,,,,,,012,2022-05-11_15h37.08.151,Main,2022.1.1,59.9963522219469,
positive,negative,2,l,j,,,,,1,1,19,14,,,,,,,,,,,,,prac,1,1,2,negative,positive,l,l,1,1.0496646000538021,143.39718510000966,144.39716429985128,144.39716429985128,None,143.39718510000966,None,143.39718510000966,None,143.39718510000966,None,145.44758182996884,None,145.44758182996884,None,145.44758182996884,None,,,,,,,,,,,,,,012,2022-05-11_15h37.08.151,Main,2022.1.1,59.9963522219469,
negative,positive,1,j,l,,,,,1,2,20,6,,,,,,,,,,,,,prac,1,1,1,positive,negative,j,j,1,0.9973931999411434,145.454428399913,146.4663489998784,146.44985009985976,None,145.454428399913,None,145.454428399913,None,145.454428399913,None,147.4475009299349,None,147.4475009299349,None,147.4475009299349,None,,,,,,,,,,,,,,012,2022-05-11_15h37.08.151,Main,2022.1.1,59.9963522219469,
neutral,positive,2,k,k,,,,,1,3,21,13,,,,,,,,,,,,,prac,2,2,2,positive,neutral,k,k,1,0.8655006000772119,147.45280850003473,148.4663203000091,148.4330788999796,None,147.45280850003473,None,147.45280850003473,None,147.45280850003473,None,149.3141231299378,None,149.3141231299378,None,149.3141231299378,None,,,,,,,,,,,,,,012,2022-05-11_15h37.08.151,Main,2022.1.1,59.9963522219469,
positive,neutral,1,l,j,,,,,1,4,22,8,,,,,,,,,,,,,prac,1,1,1,neutral,positive,l,l,1,1.066019699908793,149.319217100041,150.3329317998141,150.29966719984077,None,149.319217100041,None,149.319217100041,None,149.319217100041,None,151.38086532987654,None,151.38086532987654,None,151.38086532987654,None,,,,,,,,,,,,,,012,2022-05-11_15h37.08.151,Main,2022.1.1,59.9963522219469,
neutral,negative,2,k,k,,,,,1,5,23,16,,,,,,,,,,,,,prac,2,2,2,negative,neutral,k,k,1,0.9340825998224318,151.38677879981697,152.39957549981773,152.38299479987472,None,151.38677879981697,None,151.38677879981697,None,151.38677879981697,None,153.3136934300419,None,153.3136934300419,None,153.3136934300419,None,,,,,,,,,,,,,,012,2022-05-11_15h37.08.151,Main,2022.1.1,59.9963522219469,
neutral,neutral,1,k,k,,,,,1,6,24,1,,,,,,,,,,,,,prac,2,2,1,neutral,neutral,k,k,1,0.9668604000471532,153.31673699989915,154.33031159988604,154.31363849993795,None,153.31673699989915,None,153.31673699989915,None,153.31673699989915,None,155.28433912992477,None,155.28433912992477,None,155.28433912992477,None,,,,,,,,,,,,,,012,2022-05-11_15h37.08.151,Main,2022.1.1,59.9963522219469,
negative,negative,1,j,l,,,,,1,7,25,0,,,,,,,,,,,,,prac,1,1,1,negative,negative,j,j,1,0.8945813998579979,155.2870057998225,156.29955450003035,156.28294509998523,None,155.2870057998225,None,155.2870057998225,None,155.2870057998225,None,157.1806552298367,None,157.1806552298367,None,157.1806552298367,None,,,,,,,,,,,,,,012,2022-05-11_15h37.08.151,Main,2022.1.1,59.9963522219469,
neutral,positive,1,k,k,,,,,1,8,26,4,,,,,,,,,,,,,prac,1,1,1,positive,neutral,k,k,1,0.8663465999998152,157.18618869991042,158.19948889990337,158.18282629991882,None,157.18618869991042,None,157.18618869991042,None,157.18618869991042,None,159.04725582990795,None,159.04725582990795,None,159.04725582990795,None,,,,,,,,,,,,,,012,2022-05-11_15h37.08.151,Main,2022.1.1,59.9963522219469,
positive,neutral,2,l,j,,,,,1,9,27,17,,,,,,,,,,,,,prac,1,1,2,neutral,positive,l,l,1,0.8144218998495489,159.06400429992937,160.06609819992445,160.04952989984304,None,159.06400429992937,None,159.06400429992937,None,159.06400429992937,None,160.8638782298658,None,160.8638782298658,None,160.8638782298658,None,,,,,,,,,,,,,,012,2022-05-11_15h37.08.151,Main,2022.1.1,59.9963522219469,
negative,negative,2,j,l,,,,,1,10,28,9,,,,,,,,,,,,,prac,1,1,2,negative,negative,j,j,1,0.9318181001581252,160.86894049984403,161.88269190001301,161.84934920002706,None,160.86894049984403,None,160.86894049984403,None,160.86894049984403,None,162.79716113000177,None,162.79716113000177,None,162.79716113000177,None,,,,,,,,,,,,,,012,2022-05-11_15h37.08.151,Main,2022.1.1,59.9963522219469,
neutral,neutral,2,k,k,,,,,1,11,29,10,,,,,,,,,,,,,prac,2,2,2,neutral,neutral,k,k,1,0.8485892000608146,162.8021539999172,163.81245899992064,163.79645260004327,None,162.8021539999172,None,162.8021539999172,None,162.8021539999172,None,164.646788229933,None,164.646788229933,None,164.646788229933,None,,,,,,,,,,,,,,012,2022-05-11_15h37.08.151,Main,2022.1.1,59.9963522219469,
negative,neutral,2,j,l,,,,,1,12,30,12,,,,,,,,,,,,,prac,2,2,2,neutral,negative,j,j,1,1.232369099976495,164.64672559988685,165.64675529999658,165.64675529999658,None,164.64672559988685,None,164.64672559988685,None,164.64672559988685,None,166.8805239298381,None,166.8805239298381,None,166.8805239298381,None,,,,,,,,,,,,,,012,2022-05-11_15h37.08.151,Main,2022.1.1,59.9963522219469,
positive,positive,1,l,j,,,,,1,13,31,2,,,,,,,,,,,,,prac,1,1,1,positive,positive,l,l,1,1.7554931999184191,166.88573179999366,167.8992045999039,167.8659522999078,None,166.88573179999366,None,166.88573179999366,None,166.88573179999366,None,169.63558659981936,None,169.63558659981936,None,169.63558659981936,None,,,,,,,,,,,,,,012,2022-05-11_15h37.08.151,Main,2022.1.1,59.9963522219469,
positive,positive,2,l,j,,,,,1,14,32,11,,,,,,,,,,,,,prac,2,2,2,positive,positive,l,l,1,1.0337215999606997,170.65141239995137,171.66583029995672,171.63254330004565,None,170.65141239995137,None,170.65141239995137,None,170.65141239995137,None,172.68000683002174,None,172.68000683002174,None,172.68000683002174,None,,,,,,,,,,,,,,012,2022-05-11_15h37.08.151,Main,2022.1.1,59.9963522219469,
neutral,negative,1,k,k,,,,,1,15,33,7,,,,,,,,,,,,,prac,1,1,1,negative,neutral,k,k,1,0.9152239998802543,172.6864616998937,173.69728489988483,173.6659160000272,None,172.6864616998937,None,172.6864616998937,None,172.6864616998937,None,174.5965741300024,None,174.5965741300024,None,174.5965741300024,None,,,,,,,,,,,,,,012,2022-05-11_15h37.08.151,Main,2022.1.1,59.9963522219469,
negative,neutral,1,j,l,,,,,1,16,34,3,,,,,,,,,,,,,prac,1,1,1,neutral,negative,j,j,1,0.9655867000110447,174.59652139991522,175.59651129995473,175.59651129995473,None,174.59652139991522,None,174.59652139991522,None,174.59652139991522,None,176.56358992983587,None,176.56358992983587,None,176.56358992983587,None,,,,,,,,,,,,,,012,2022-05-11_15h37.08.151,Main,2022.1.1,59.9963522219469,
positive,negative,1,l,j,,,,,1,17,35,5,,,,,,,,,,,,,prac,1,1,1,negative,positive,l,l,1,1.4987804999109358,176.56885509984568,177.58247399982065,177.54933859989978,None,176.56885509984568,None,176.56885509984568,None,176.56885509984568,None,179.06363682984374,None,179.06363682984374,None,179.06363682984374,None,,,,,,,,,,,,,,012,2022-05-11_15h37.08.151,Main,2022.1.1,59.9963522219469,
,,,,,,,,,,,,,,,,,,,,,,,,,,,,,,,,,,,,,,,,,,,,,,,,,,,179.0634653000161,None,space,7.8061575999017805,,,,,,,,,,012,2022-05-11_15h37.08.151,Main,2022.1.1,59.9963522219469,
,,,,,,,,,,,,,,,,,,,,,,,,,,,,,,,,,,,,,,,,,,,,,,,,,,,,,,,0.7925926,-0.40185186,0,0,0,0.011194929713383317,None,,,012,2022-05-11_15h37.08.151,Main,2022.1.1,59.9963522219469,
neutral,neutral,1,k,k,,,,,,,,,0,0,0,1,,,,,,,186.89637460000813,None,main,2,2,1,neutral,neutral,k,k,1,0.9389241999015212,188.9108790999744,189.9155102998484,189.89880429999903,None,188.9108790999744,None,188.9108790999744,None,188.9108790999744,None,190.84657082986087,None,190.84657082986087,None,190.84657082986087,None,,,,,,,,,,,,,,012,2022-05-11_15h37.08.151,Main,2022.1.1,59.9963522219469,
neutral,neutral,2,k,k,,,,,,,,,0,1,1,10,,,,,,,,,main,2,2,2,neutral,neutral,k,k,1,0.7871895001735538,190.85275449999608,191.86315250000916,191.848762499867,None,190.85275449999608,None,190.85275449999608,None,190.85275449999608,None,192.63602362992242,None,192.63602362992242,None,192.63602362992242,None,,,,,,,,,,,,,,012,2022-05-11_15h37.08.151,Main,2022.1.1,59.9963522219469,
negative,positive,2,j,l,,,,,,,,,0,2,2,15,,,,,,,,,main,2,2,2,positive,negative,j,j,1,0.7586374001111835,192.63934909994714,193.6486684998963,193.63201890001073,None,192.63934909994714,None,192.63934909994714,None,192.63934909994714,None,194.39648302993737,None,194.39648302993737,None,194.39648302993737,None,,,,,,,,,,,,,,012,2022-05-11_15h37.08.151,Main,2022.1.1,59.9963522219469,
positive,neutral,2,l,j,,,,,,,,,0,3,3,17,,,,,,,,,main,1,1,2,neutral,positive,l,l,1,0.9812154001556337,194.4016627999954,195.41531619988382,195.39871439989656,None,194.4016627999954,None,194.4016627999954,None,194.4016627999954,None,196.37943332991563,None,196.37943332991563,None,196.37943332991563,None,,,,,,,,,,,,,,012,2022-05-11_15h37.08.151,Main,2022.1.1,59.9963522219469,
negative,positive,1,j,l,,,,,,,,,0,4,4,6,,,,,,,,,main,1,1,1,positive,negative,j,j,1,0.88173389993608,196.37959749996662,197.37935799988918,197.37935799988918,None,196.37959749996662,None,196.37959749996662,None,196.37959749996662,None,198.2627869299613,None,198.2627869299613,None,198.2627869299613,None,,,,,,,,,,,,,,012,2022-05-11_15h37.08.151,Main,2022.1.1,59.9963522219469,
negative,negative,2,j,l,,,,,,,,,0,5,5,9,,,,,,,,,main,1,1,2,negative,negative,j,j,1,0.8142661000601947,198.26923529990017,199.2795006998349,199.265368900029,None,198.26923529990017,None,198.26923529990017,None,198.26923529990017,None,200.0794477299787,None,200.0794477299787,None,200.0794477299787,None,,,,,,,,,,,,,,012,2022-05-11_15h37.08.151,Main,2022.1.1,59.9963522219469,
neutral,positive,1,k,k,,,,,,,,,0,6,6,4,,,,,,,,,main,1,1,1,positive,neutral,k,k,1,0.7317241001874208,200.08674149983563,201.098615600029,201.08201809995808,None,200.08674149983563,None,200.08674149983563,None,200.08674149983563,None,201.81300972984172,None,201.81300972984172,None,201.81300972984172,None,,,,,,,,,,,,,,012,2022-05-11_15h37.08.151,Main,2022.1.1,59.9963522219469,
positive,positive,2,l,j,,,,,,,,,0,7,7,11,,,,,,,,,main,1,1,2,positive,positive,l,l,1,0.8150744999293238,201.81889949995093,202.83175839995965,202.79853379982524,None,201.81889949995093,None,201.81889949995093,None,201.81889949995093,None,203.6296181299258,None,203.6296181299258,None,203.6296181299258,None,,,,,,,,,,,,,,012,2022-05-11_15h37.08.151,Main,2022.1.1,59.9963522219469,
negative,neutral,2,j,l,,,,,,,,,0,8,8,12,,,,,,,,,main,2,2,2,neutral,negative,j,j,1,0.8151700000744313,203.6352061999496,204.64657410001382,204.6318579998333,None,203.6352061999496,None,203.6352061999496,None,203.6352061999496,None,205.44625793001615,None,205.44625793001615,None,205.44625793001615,None,,,,,,,,,,,,,,012,2022-05-11_15h37.08.151,Main,2022.1.1,59.9963522219469,
positive,positive,1,l,j,,,,,,,,,0,9,9,2,,,,,,,,,main,2,2,1,positive,positive,l,l,1,1.231702100019902,205.4495738998521,206.46249179984443,206.44582409993745,None,205.4495738998521,None,205.4495738998521,None,205.4495738998521,None,207.67918842984363,None,207.67918842984363,None,207.67918842984363,None,,,,,,,,,,,,,,012,2022-05-11_15h37.08.151,Main,2022.1.1,59.9963522219469,
negative,neutral,1,j,l,,,,,,,,,0,10,10,3,,,,,,,,,main,2,2,1,neutral,negative,j,j,1,0.8815584001131356,207.67915169987828,208.67915760003962,208.67915760003962,None,207.67915169987828,None,207.67915169987828,None,207.67915169987828,None,209.56292252987623,None,209.56292252987623,None,209.56292252987623,None,,,,,,,,,,,,,,012,2022-05-11_15h37.08.151,Main,2022.1.1,59.9963522219469,
positive,negative,1,l,j,,,,,,,,,0,11,11,5,,,,,,,,,main,1,1,1,negative,positive,l,l,1,0.9662051999475807,209.5682402998209,210.58167780004442,210.5483675999567,None,209.5682402998209,None,209.5682402998209,None,209.5682402998209,None,211.52944263000973,None,211.52944263000973,None,211.52944263000973,None,,,,,,,,,,,,,,012,2022-05-11_15h37.08.151,Main,2022.1.1,59.9963522219469,
neutral,negative,1,k,k,,,,,,,,,0,12,12,7,,,,,,,,,main,1,1,1,negative,neutral,k,k,1,0.7828402000013739,211.53553640004247,212.5460228000302,212.53160650003701,None,211.53553640004247,None,211.53553640004247,None,211.53553640004247,None,213.3150043298956,None,213.3150043298956,None,213.3150043298956,None,,,,,,,,,,,,,,012,2022-05-11_15h37.08.151,Main,2022.1.1,59.9963522219469,
negative,negative,1,j,l,,,,,,,,,0,13,13,0,,,,,,,,,main,2,2,1,negative,negative,j,j,1,0.8624579000752419,213.31887149997056,214.33156309998594,214.3149681999348,None,213.31887149997056,None,213.31887149997056,None,213.31887149997056,None,215.17917212983593,None,215.17917212983593,None,215.17917212983593,None,,,,,,,,,,,,,,012,2022-05-11_15h37.08.151,Main,2022.1.1,59.9963522219469,
neutral,positive,2,k,k,,,,,,,,,0,14,14,13,,,,,,,,,main,1,1,2,positive,neutral,k,k,1,0.8650084999389946,215.1847206999082,216.1959623999428,216.16261389991269,None,215.1847206999082,None,215.1847206999082,None,215.1847206999082,None,217.04562682984397,None,217.04562682984397,None,217.04562682984397,None,,,,,,,,,,,,,,012,2022-05-11_15h37.08.151,Main,2022.1.1,59.9963522219469,
neutral,negative,2,k,k,,,,,,,,,0,15,15,16,,,,,,,,,main,2,2,2,negative,neutral,k,k,1,0.698835999937728,217.0456886999309,218.0455525999423,218.0455525999423,None,217.0456886999309,None,217.0456886999309,None,217.0456886999309,None,218.74566442985088,None,218.74566442985088,None,218.74566442985088,None,,,,,,,,,,,,,,012,2022-05-11_15h37.08.151,Main,2022.1.1,59.9963522219469,
positive,negative,2,l,j,,,,,,,,,0,16,16,14,,,,,,,,,main,2,2,2,negative,positive,l,l,1,0.8316579000093043,218.7513802999165,219.76483300002292,219.74818029999733,None,218.7513802999165,None,218.7513802999165,None,218.7513802999165,None,220.57925742981024,None,220.57925742981024,None,220.57925742981024,None,,,,,,,,,,,,,,012,2022-05-11_15h37.08.151,Main,2022.1.1,59.9963522219469,
positive,neutral,1,l,j,,,,,,,,,0,17,17,8,,,,,,,,,main,1,1,1,neutral,positive,l,l,1,0.9983926999848336,220.58457509987056,221.59805159992538,221.58143189991824,None,220.58457509987056,None,220.58457509987056,None,220.58457509987056,None,222.57921682996675,None,222.57921682996675,None,222.57921682996675,None,,,,,,,,,,,,,,012,2022-05-11_15h37.08.151,Main,2022.1.1,59.9963522219469,
neutral,positive,1,k,k,,,,,,,,,1,0,18,4,,,,,,,,,main,1,1,1,positive,neutral,k,k,1,0.8151441998779774,222.5846608998254,223.59805829985999,223.58142359997146,None,222.5846608998254,None,222.5846608998254,None,222.5846608998254,None,224.3959404299967,None,224.3959404299967,None,224.3959404299967,None,,,,,,,,,,,,,,012,2022-05-11_15h37.08.151,Main,2022.1.1,59.9963522219469,
negative,negative,1,j,l,,,,,,,,,1,1,19,0,,,,,,,,,main,2,2,1,negative,negative,j,j,1,0.8651000000536442,224.4013245999813,225.41459709987976,225.39805780001916,None,224.4013245999813,None,224.4013245999813,None,224.4013245999813,None,226.2624562298879,None,226.2624562298879,None,226.2624562298879,None,,,,,,,,,,,,,,012,2022-05-11_15h37.08.151,Main,2022.1.1,59.9963522219469,
negative,positive,2,j,l,,,,,,,,,1,2,20,15,,,,,,,,,main,1,1,2,positive,negative,j,j,1,0.864787100115791,226.26577729987912,227.27831129985861,227.26108839991502,None,226.26577729987912,None,226.26577729987912,None,226.26577729987912,None,228.12874732981436,None,228.12874732981436,None,228.12874732981436,None,,,,,,,,,,,,,,012,2022-05-11_15h37.08.151,Main,2022.1.1,59.9963522219469,
negative,positive,1,j,l,,,,,,,,,1,3,21,6,,,,,,,,,main,2,2,1,positive,negative,j,j,1,0.8318421998992562,228.12867149990052,229.1287100999616,229.1287100999616,None,228.12867149990052,None,228.12867149990052,None,228.12867149990052,None,229.9620861299336,None,229.9620861299336,None,229.9620861299336,None,,,,,,,,,,,,,,012,2022-05-11_15h37.08.151,Main,2022.1.1,59.9963522219469,
neutral,neutral,1,k,k,,,,,,,,,1,4,22,1,,,,,,,,,main,1,1,1,neutral,neutral,k,k,1,0.8649925000499934,229.9737996000331,230.98127949982882,230.96467010001652,None,229.9737996000331,None,229.9737996000331,None,229.9737996000331,None,231.82911873003468,None,231.82911873003468,None,231.82911873003468,None,,,,,,,,,,,,,,012,2022-05-11_15h37.08.151,Main,2022.1.1,59.9963522219469,
positive,positive,2,l,j,,,,,,,,,1,5,23,11,,,,,,,,,main,1,1,2,positive,positive,l,l,1,0.8973277001641691,231.83546289987862,232.84774729982018,232.82893910002895,None,231.83546289987862,None,231.83546289987862,None,231.83546289987862,None,233.72896962985396,None,233.72896962985396,None,233.72896962985396,None,,,,,,,,,,,,,,012,2022-05-11_15h37.08.151,Main,2022.1.1,59.9963522219469,
neutral,neutral,2,k,k,,,,,,,,,1,6,24,10,,,,,,,,,main,2,2,2,neutral,neutral,k,k,1,0.8154066998977214,233.73416959983297,234.74782109982334,234.72920920001343,None,233.73416959983297,None,233.73416959983297,None,233.73416959983297,None,235.54559242981486,None,235.54559242981486,None,235.54559242981486,None,,,,,,,,,,,,,,012,2022-05-11_15h37.08.151,Main,2022.1.1,59.9963522219469,
negative,neutral,2,j,l,,,,,,,,,1,7,25,12,,,,,,,,,main,2,2,2,neutral,negative,j,j,1,0.7672349000349641,235.55129009997472,236.5644535999745,236.54580900003202,None,235.55129009997472,None,235.55129009997472,None,235.55129009997472,None,237.31452062982135,None,237.31452062982135,None,237.31452062982135,None,,,,,,,,,,,,,,012,2022-05-11_15h37.08.151,Main,2022.1.1,59.9963522219469,
positive,negative,1,l,j,,,,,,,,,1,8,26,5,,,,,,,,,main,2,2,1,negative,positive,l,l,1,0.9630774001125246,237.31749970000237,238.32868259982206,238.31181290000677,None,237.31749970000237,None,237.31749970000237,None,237.31749970000237,None,239.27875402988866,None,239.27875402988866,None,239.27875402988866,None,,,,,,,,,,,,,,012,2022-05-11_15h37.08.151,Main,2022.1.1,59.9963522219469,
neutral,negative,2,k,k,,,,,,,,,1,9,27,16,,,,,,,,,main,2,2,2,negative,neutral,k,k,1,0.7313254999462515,239.27986339991912,240.281255699927,240.281255699927,None,239.27986339991912,None,239.27986339991912,None,239.27986339991912,None,241.01224362989888,None,241.01224362989888,None,241.01224362989888,None,,,,,,,,,,,,,,012,2022-05-11_15h37.08.151,Main,2022.1.1,59.9963522219469,
negative,neutral,1,j,l,,,,,,,,,1,10,28,3,,,,,,,,,main,1,1,1,neutral,negative,j,j,1,0.8150513998698443,241.01772439992055,242.02902419981547,241.99546719994396,None,241.01772439992055,None,241.01772439992055,None,241.01772439992055,None,242.82880382984877,None,242.82880382984877,None,242.82880382984877,None,,,,,,,,,,,,,,012,2022-05-11_15h37.08.151,Main,2022.1.1,59.9963522219469,
negative,negative,2,j,l,,,,,,,,,1,11,29,9,,,,,,,,,main,1,1,2,negative,negative,j,j,1,0.7316565001383424,242.8341836000327,243.84752890001982,243.81429259991273,None,242.8341836000327,None,242.8341836000327,None,242.8341836000327,None,244.56207672995515,None,244.56207672995515,None,244.56207672995515,None,,,,,,,,,,,,,,012,2022-05-11_15h37.08.151,Main,2022.1.1,59.9963522219469,
neutral,negative,1,k,k,,,,,,,,,1,12,30,7,,,,,,,,,main,2,2,1,negative,neutral,k,k,1,0.7819463999476284,244.5674935998395,245.5808407999575,245.54765279986896,None,244.5674935998395,None,244.5674935998395,None,244.5674935998395,None,246.34535662992857,None,246.34535662992857,None,246.34535662992857,None,,,,,,,,,,,,,,012,2022-05-11_15h37.08.151,Main,2022.1.1,59.9963522219469,
positive,neutral,2,l,j,,,,,,,,,1,13,31,17,,,,,,,,,main,1,1,2,neutral,positive,l,l,1,0.8815915999002755,246.3507205999922,247.3641217998229,247.34755239984952,None,246.3507205999922,None,246.3507205999922,None,246.3507205999922,None,248.22863232996315,None,248.22863232996315,None,248.22863232996315,None,,,,,,,,,,,,,,012,2022-05-11_15h37.08.151,Main,2022.1.1,59.9963522219469,
positive,negative,2,l,j,,,,,,,,,1,14,32,14,,,,,,,,,main,2,2,2,negative,positive,l,l,1,0.7314664998557419,248.23444519983605,249.24489400000311,249.22821430000477,None,248.23444519983605,None,248.23444519983605,None,248.23444519983605,None,249.96158842998557,None,249.96158842998557,None,249.96158842998557,None,,,,,,,,,,,,,,012,2022-05-11_15h37.08.151,Main,2022.1.1,59.9963522219469,
positive,positive,1,l,j,,,,,,,,,1,15,33,2,,,,,,,,,main,2,2,1,positive,positive,l,l,1,0.8652916999999434,249.96153729991056,250.96157319983467,250.96157319983467,None,249.96153729991056,None,249.96153729991056,None,249.96153729991056,None,251.82859462988563,None,251.82859462988563,None,251.82859462988563,None,,,,,,,,,,,,,,012,2022-05-11_15h37.08.151,Main,2022.1.1,59.9963522219469,
neutral,positive,2,k,k,,,,,,,,,1,16,34,13,,,,,,,,,main,1,1,2,positive,neutral,k,k,1,0.8152485000900924,251.8356235998217,252.84751009987667,252.83086219988763,None,251.8356235998217,None,251.8356235998217,None,251.8356235998217,None,253.64520422997884,None,253.64520422997884,None,253.64520422997884,None,,,,,,,,,,,,,,012,2022-05-11_15h37.08.151,Main,2022.1.1,59.9963522219469,
positive,neutral,1,l,j,,,,,,,,,1,17,35,8,,,,,,,,,main,2,2,1,neutral,positive,l,l,1,1.0315904999151826,253.65089439996518,254.66392419999465,254.64742729999125,None,253.65089439996518,None,253.65089439996518,None,253.65089439996518,None,255.67848152993247,None,255.67848152993247,None,255.67848152993247,None,,,,,,,,,,,,,,012,2022-05-11_15h37.08.151,Main,2022.1.1,59.9963522219469,
negative,neutral,2,j,l,,,,,,,,,2,0,36,12,,,,,,,,,main,2,2,2,neutral,negative,j,j,1,0.8478600000962615,255.6843118998222,256.69734749989584,256.6807060998399,None,255.6843118998222,None,255.6843118998222,None,255.6843118998222,None,257.52814342989586,None,257.52814342989586,None,257.52814342989586,None,,,,,,,,,,,,,,012,2022-05-11_15h37.08.151,Main,2022.1.1,59.9963522219469,
negative,positive,1,j,l,,,,,,,,,2,1,37,6,,,,,,,,,main,1,1,1,positive,negative,j,j,1,1.0327605998609215,257.53401409997605,258.5472826999612,258.5139774000272,None,257.53401409997605,None,257.53401409997605,None,257.53401409997605,None,259.5614059299696,None,259.5614059299696,None,259.5614059299696,None,,,,,,,,,,,,,,012,2022-05-11_15h37.08.151,Main,2022.1.1,59.9963522219469,
negative,negative,2,j,l,,,,,,,,,2,2,38,9,,,,,,,,,main,1,1,2,negative,negative,j,j,1,0.8808037000708282,259.5627244999632,260.57796270004474,260.56131020002067,None,259.5627244999632,None,259.5627244999632,None,259.5627244999632,None,261.4447343298234,None,261.4447343298234,None,261.4447343298234,None,,,,,,,,,,,,,,012,2022-05-11_15h37.08.151,Main,2022.1.1,59.9963522219469,
neutral,negative,2,k,k,,,,,,,,,2,3,39,16,,,,,,,,,main,1,1,2,negative,neutral,k,k,1,0.7487121000885963,261.4497878998518,262.46390179987065,262.4305670999456,None,261.4497878998518,None,261.4497878998518,None,261.4497878998518,None,263.1949936298188,None,263.1949936298188,None,263.1949936298188,None,,,,,,,,,,,,,,012,2022-05-11_15h37.08.151,Main,2022.1.1,59.9963522219469,
positive,negative,2,l,j,,,,,,,,,2,4,40,14,,,,,,,,,main,2,2,2,negative,positive,l,l,1,0.8817620000336319,263.20029799989425,264.2138578998856,264.19723279983737,None,263.20029799989425,None,263.20029799989425,None,263.20029799989425,None,265.0782834298443,None,265.0782834298443,None,265.0782834298443,None,,,,,,,,,,,,,,012,2022-05-11_15h37.08.151,Main,2022.1.1,59.9963522219469,
negative,neutral,1,j,l,,,,,,,,,2,5,41,3,,,,,,,,,main,2,2,1,neutral,negative,j,j,1,0.7484621999319643,265.0836823999416,266.0970942999702,266.0804914999753,None,265.0836823999416,None,265.0836823999416,None,265.0836823999416,None,266.82822922989726,None,266.82822922989726,None,266.82822922989726,None,,,,,,,,,,,,,,012,2022-05-11_15h37.08.151,Main,2022.1.1,59.9963522219469,
negative,negative,1,j,l,,,,,,,,,2,6,42,0,,,,,,,,,main,1,1,1,negative,negative,j,j,1,0.8991278999019414,266.831377199851,267.8281713000033,267.8281713000033,None,266.831377199851,None,266.831377199851,None,266.831377199851,None,268.72818852984346,None,268.72818852984346,None,268.72818852984346,None,,,,,,,,,,,,,,012,2022-05-11_15h37.08.151,Main,2022.1.1,59.9963522219469,
neutral,neutral,2,k,k,,,,,,,,,2,7,43,10,,,,,,,,,main,1,1,2,neutral,neutral,k,k,1,0.7471916999202222,268.7322370999027,269.7444380999077,269.72777389991097,None,268.7322370999027,None,268.7322370999027,None,268.7322370999027,None,270.47782532987185,None,270.47782532987185,None,270.47782532987185,None,,,,,,,,,,,,,,012,2022-05-11_15h37.08.151,Main,2022.1.1,59.9963522219469,
neutral,positive,1,k,k,,,,,,,,,2,8,44,4,,,,,,,,,main,2,2,1,positive,neutral,k,k,1,0.7819936000742018,270.4777603999246,271.4777942998335,271.4777942998335,None,270.4777603999246,None,270.4777603999246,None,270.4777603999246,None,272.2611691299826,None,272.2611691299826,None,272.2611691299826,None,,,,,,,,,,,,,,012,2022-05-11_15h37.08.151,Main,2022.1.1,59.9963522219469,
neutral,negative,1,k,k,,,,,,,,,2,9,45,7,,,,,,,,,main,2,2,1,negative,neutral,k,k,1,0.6320617001038045,272.2647631999571,273.26365929981694,273.26365929981694,None,272.2647631999571,None,272.2647631999571,None,272.2647631999571,None,273.89480242994614,None,273.89480242994614,None,273.89480242994614,None,,,,,,,,,,,,,,012,2022-05-11_15h37.08.151,Main,2022.1.1,59.9963522219469,
positive,positive,2,l,j,,,,,,,,,2,10,46,11,,,,,,,,,main,1,1,2,positive,positive,l,l,1,0.7816546000540257,273.9008643999696,274.91356839984655,274.8970304999966,None,273.9008643999696,None,273.9008643999696,None,273.9008643999696,None,275.6779182299506,None,275.6779182299506,None,275.6779182299506,None,,,,,,,,,,,,,,012,2022-05-11_15h37.08.151,Main,2022.1.1,59.9963522219469,
neutral,positive,2,k,k,,,,,,,,,2,11,47,13,,,,,,,,,main,1,1,2,positive,neutral,k,k,1,0.7508370999712497,275.6837750999257,276.69686109991744,276.66362769994885,None,275.6837750999257,None,275.6837750999257,None,275.6837750999257,None,277.43023932981305,None,277.43023932981305,None,277.43023932981305,None,,,,,,,,,,,,,,012,2022-05-11_15h37.08.151,Main,2022.1.1,59.9963522219469,
positive,negative,1,l,j,,,,,,,,,2,12,48,5,,,,,,,,,main,2,2,1,negative,positive,l,l,1,0.7628604001365602,277.4330976998899,278.4467666000128,278.4302320999559,None,277.4330976998899,None,277.4330976998899,None,277.4330976998899,None,279.1946363300085,None,279.1946363300085,None,279.1946363300085,None,,,,,,,,,,,,,,012,2022-05-11_15h37.08.151,Main,2022.1.1,59.9963522219469,
neutral,neutral,1,k,k,,,,,,,,,2,13,49,1,,,,,,,,,main,2,2,1,neutral,neutral,k,k,1,0.6812170001212507,279.2001195999328,280.2108821000438,280.19421750004403,None,279.2001195999328,None,279.2001195999328,None,279.2001195999328,None,280.87757532997057,None,280.87757532997057,None,280.87757532997057,None,,,,,,,,,,,,,,012,2022-05-11_15h37.08.151,Main,2022.1.1,59.9963522219469,
positive,positive,1,l,j,,,,,,,,,2,14,50,2,,,,,,,,,main,2,2,1,positive,positive,l,l,1,0.7491812000516802,280.8775269999169,281.87755599990487,281.87755599990487,None,280.8775269999169,None,280.8775269999169,None,280.8775269999169,None,282.62792622996494,None,282.62792622996494,None,282.62792622996494,None,,,,,,,,,,,,,,012,2022-05-11_15h37.08.151,Main,2022.1.1,59.9963522219469,
positive,neutral,2,l,j,,,,,,,,,2,15,51,17,,,,,,,,,main,1,1,2,neutral,positive,l,l,1,0.5983379001263529,282.63340889988467,283.64676909986883,283.6301635999698,None,282.63340889988467,None,282.63340889988467,None,282.63340889988467,None,284.2278787298128,None,284.2278787298128,None,284.2278787298128,None,,,,,,,,,,,,,,012,2022-05-11_15h37.08.151,Main,2022.1.1,59.9963522219469,
positive,neutral,1,l,j,,,,,,,,,2,16,52,8,,,,,,,,,main,1,1,1,neutral,positive,l,l,1,0.8816789998672903,284.23330729990266,285.24672309984453,285.2300511000212,None,284.23330729990266,None,284.23330729990266,None,284.23330729990266,None,286.11114852991886,None,286.11114852991886,None,286.11114852991886,None,,,,,,,,,,,,,,012,2022-05-11_15h37.08.151,Main,2022.1.1,59.9963522219469,
negative,positive,2,j,l,,,,,,,,,2,17,53,15,,,,,,,,,main,2,2,2,positive,negative,j,j,1,0.8676372000481933,286.11426119995303,287.11328859999776,287.11328859999776,None,286.11426119995303,None,286.11426119995303,None,286.11426119995303,None,287.9802756300196,None,287.9802756300196,None,287.9802756300196,None,,,,,,,,,,,,,,012,2022-05-11_15h37.08.151,Main,2022.1.1,59.9963522219469,
positive,negative,1,l,j,,,,,,,,,3,0,54,5,,,,,,,,,main,1,1,1,negative,positive,l,l,1,0.9959243000485003,287.98448670003563,288.996508799959,288.97999619995244,None,287.98448670003563,None,287.98448670003563,None,287.98448670003563,None,289.9777290299535,None,289.9777290299535,None,289.9777290299535,None,,,,,,,,,,,,,,012,2022-05-11_15h37.08.151,Main,2022.1.1,59.9963522219469,
positive,neutral,2,l,j,,,,,,,,,3,1,55,17,,,,,,,,,main,2,2,2,neutral,positive,l,l,1,0.7147407000884414,289.9836999999825,290.99398859986104,290.9773132998962,None,289.9836999999825,None,289.9836999999825,None,289.9836999999825,None,291.69402272999287,None,291.69402272999287,None,291.69402272999287,None,,,,,,,,,,,,,,012,2022-05-11_15h37.08.151,Main,2022.1.1,59.9963522219469,
neutral,positive,2,k,k,,,,,,,,,3,2,56,13,,,,,,,,,main,2,2,2,positive,neutral,k,k,1,0.7995615000836551,291.69534939993173,292.7106631998904,292.69399459986016,None,291.69534939993173,None,291.69534939993173,None,291.69534939993173,None,293.49504563002847,None,293.49504563002847,None,293.49504563002847,None,,,,,,,,,,,,,,012,2022-05-11_15h37.08.151,Main,2022.1.1,59.9963522219469,
negative,positive,2,j,l,,,,,,,,,3,3,57,15,,,,,,,,,main,2,2,2,positive,negative,j,j,1,0.6981798000633717,293.50088549987413,294.5131933998782,294.4965994998347,None,293.50088549987413,None,293.50088549987413,None,293.50088549987413,None,295.194294529967,None,295.194294529967,None,295.194294529967,None,,,,,,,,,,,,,,012,2022-05-11_15h37.08.151,Main,2022.1.1,59.9963522219469,
positive,neutral,1,l,j,,,,,,,,,3,4,58,8,,,,,,,,,main,2,2,1,neutral,positive,l,l,1,0.8310008000116795,295.21315259998664,296.21315509988926,296.1965385999065,None,295.21315259998664,None,295.21315259998664,None,295.21315259998664,None,297.02758222981356,None,297.02758222981356,None,297.02758222981356,None,,,,,,,,,,,,,,012,2022-05-11_15h37.08.151,Main,2022.1.1,59.9963522219469,
positive,positive,1,l,j,,,,,,,,,3,5,59,2,,,,,,,,,main,2,2,1,positive,positive,l,l,1,0.632905300008133,297.03301179991104,298.0464311998803,298.02982629998587,None,297.03301179991104,None,297.03301179991104,None,297.03301179991104,None,298.6608748298604,None,298.6608748298604,None,298.6608748298604,None,,,,,,,,,,,,,,012,2022-05-11_15h37.08.151,Main,2022.1.1,59.9963522219469,
negative,negative,2,j,l,,,,,,,,,3,6,60,9,,,,,,,,,main,2,2,2,negative,negative,j,j,1,0.8472563999239355,298.6648254999891,299.6797068999149,299.6631006000098,None,298.6648254999891,None,298.6648254999891,None,298.6648254999891,None,300.5108369300142,None,300.5108369300142,None,300.5108369300142,None,,,,,,,,,,,,,,012,2022-05-11_15h37.08.151,Main,2022.1.1,59.9963522219469,
neutral,neutral,1,k,k,,,,,,,,,3,7,61,1,,,,,,,,,main,2,2,1,neutral,neutral,k,k,1,0.8480809000320733,300.51388829993084,301.5271062999964,301.51040249993093,None,300.51388829993084,None,300.51388829993084,None,300.51388829993084,None,302.3607052299194,None,302.3607052299194,None,302.3607052299194,None,,,,,,,,,,,,,,012,2022-05-11_15h37.08.151,Main,2022.1.1,59.9963522219469,
positive,negative,2,l,j,,,,,,,,,3,8,62,14,,,,,,,,,main,1,1,2,negative,positive,l,l,1,0.6812540001701564,302.361059299903,303.36045139981434,303.36045139981434,None,302.361059299903,None,302.361059299903,None,302.361059299903,None,304.044111629948,None,304.044111629948,None,304.044111629948,None,,,,,,,,,,,,,,012,2022-05-11_15h37.08.151,Main,2022.1.1,59.9963522219469,
negative,neutral,1,j,l,,,,,,,,,3,9,63,3,,,,,,,,,main,2,2,1,neutral,negative,j,j,1,0.9317620999645442,304.0469919999596,305.0462855999358,305.0296344999224,None,304.0469919999596,None,304.0469919999596,None,304.0469919999596,None,305.9774068298284,None,305.9774068298284,None,305.9774068298284,None,,,,,,,,,,,,,,012,2022-05-11_15h37.08.151,Main,2022.1.1,59.9963522219469,
negative,positive,1,j,l,,,,,,,,,3,10,64,6,,,,,,,,,main,2,2,1,positive,negative,j,j,1,0.6316630998626351,305.98093839990906,306.99625870003365,306.97961509996094,None,305.98093839990906,None,305.98093839990906,None,305.98093839990906,None,307.61068232986145,None,307.61068232986145,None,307.61068232986145,None,,,,,,,,,,,,,,012,2022-05-11_15h37.08.151,Main,2022.1.1,59.9963522219469,
negative,neutral,2,j,l,,,,,,,,,3,11,65,12,,,,,,,,,main,2,2,2,neutral,negative,j,j,1,0.8482854999601841,307.61406939988956,308.62950949999504,308.6128369998187,None,307.61406939988956,None,307.61406939988956,None,307.61406939988956,None,309.46064383001067,None,309.46064383001067,None,309.46064383001067,None,,,,,,,,,,,,,,012,2022-05-11_15h37.08.151,Main,2022.1.1,59.9963522219469,
neutral,positive,1,k,k,,,,,,,,,3,12,66,4,,,,,,,,,main,2,2,1,positive,neutral,k,k,1,0.8318711000028998,309.4636890999973,310.479458599817,310.462819899898,None,309.4636890999973,None,309.4636890999973,None,309.4636890999973,None,311.2939385299105,None,311.2939385299105,None,311.2939385299105,None,,,,,,,,,,,,,,012,2022-05-11_15h37.08.151,Main,2022.1.1,59.9963522219469,
positive,positive,2,l,j,,,,,,,,,3,13,67,11,,,,,,,,,main,1,1,2,positive,positive,l,l,1,0.8315294999629259,311.2974331998266,312.3101721999701,312.29351969994605,None,311.2974331998266,None,311.2974331998266,None,311.2974331998266,None,313.1268912300002,None,313.1268912300002,None,313.1268912300002,None,,,,,,,,,,,,,,012,2022-05-11_15h37.08.151,Main,2022.1.1,59.9963522219469,
neutral,negative,1,k,k,,,,,,,,,3,14,68,7,,,,,,,,,main,2,2,1,negative,neutral,k,k,1,0.7153547001071274,313.12692840001546,314.12686059996486,314.12686059996486,None,313.12692840001546,None,313.12692840001546,None,313.12692840001546,None,314.84389562997967,None,314.84389562997967,None,314.84389562997967,None,,,,,,,,,,,,,,012,2022-05-11_15h37.08.151,Main,2022.1.1,59.9963522219469,
neutral,negative,2,k,k,,,,,,,,,3,15,69,16,,,,,,,,,main,2,2,2,negative,neutral,k,k,1,0.9149253000505269,314.84964099992067,315.86265109991655,315.8438045999501,None,314.84964099992067,None,314.84964099992067,None,314.84964099992067,None,316.76052362984046,None,316.76052362984046,None,316.76052362984046,None,,,,,,,,,,,,,,012,2022-05-11_15h37.08.151,Main,2022.1.1,59.9963522219469,
negative,negative,1,j,l,,,,,,,,,3,16,70,0,,,,,,,,,main,2,2,1,negative,negative,j,j,1,0.8149433999788016,316.7666396999266,317.77932420000434,317.76272869994864,None,316.7666396999266,None,316.7666396999266,None,316.7666396999266,None,318.5771150300279,None,318.5771150300279,None,318.5771150300279,None,,,,,,,,,,,,,,012,2022-05-11_15h37.08.151,Main,2022.1.1,59.9963522219469,
neutral,neutral,2,k,k,,,,,,,,,3,17,71,10,,,,,,,,,main,1,1,2,neutral,neutral,k,k,1,0.7486139999236912,318.5800751999486,319.5793122998439,319.562688899925,None,318.5800751999486,None,318.5800751999486,None,318.5800751999486,None,320.32709502987564,None,320.32709502987564,None,320.32709502987564,None,,,,,,,,,,,,,,012,2022-05-11_15h37.08.151,Main,2022.1.1,59.9963522219469,
negative,neutral,2,j,l,,,,,,,,,4,0,72,12,,,,,,,,,main,2,2,2,neutral,negative,j,j,1,0.6845716999378055,320.33043490001,321.343680099817,321.3293151999824,None,320.33043490001,None,320.33043490001,None,320.33043490001,None,322.01328382990323,None,322.01328382990323,None,322.01328382990323,None,,,,,,,,,,,,,,012,2022-05-11_15h37.08.151,Main,2022.1.1,59.9963522219469,
positive,positive,2,l,j,,,,,,,,,4,1,73,11,,,,,,,,,main,2,2,2,positive,positive,l,l,1,0.832594599807635,322.0268784998916,323.0266078999266,323.00994189991616,None,322.0268784998916,None,322.0268784998916,None,322.0268784998916,None,323.8433289299719,None,323.8433289299719,None,323.8433289299719,None,,,,,,,,,,,,,,012,2022-05-11_15h37.08.151,Main,2022.1.1,59.9963522219469,
neutral,neutral,1,k,k,,,,,,,,,4,2,74,1,,,,,,,,,main,2,2,1,neutral,neutral,k,k,1,0.6773705999366939,323.84738829988055,324.86249119997956,324.8436129000038,None,323.84738829988055,None,323.84738829988055,None,323.84738829988055,None,325.5269720298238,None,325.5269720298238,None,325.5269720298238,None,,,,,,,,,,,,,,012,2022-05-11_15h37.08.151,Main,2022.1.1,59.9963522219469,
neutral,negative,1,k,k,,,,,,,,,4,3,75,7,,,,,,,,,main,1,1,1,negative,neutral,k,k,1,0.7343105999752879,325.5300022000447,326.52907649986446,326.51257469994016,None,325.5300022000447,None,325.5300022000447,None,325.5300022000447,None,327.2625750298612,None,327.2625750298612,None,327.2625750298612,None,,,,,,,,,,,,,,012,2022-05-11_15h37.08.151,Main,2022.1.1,59.9963522219469,
neutral,negative,2,k,k,,,,,,,,,4,4,76,16,,,,,,,,,main,1,1,2,negative,neutral,k,k,1,0.662432799814269,327.26571880001575,328.27911200001836,328.2624486000277,None,327.26571880001575,None,327.26571880001575,None,327.26571880001575,None,328.92689842986874,None,328.92689842986874,None,328.92689842986874,None,,,,,,,,,,,,,,012,2022-05-11_15h37.08.151,Main,2022.1.1,59.9963522219469,
positive,negative,1,l,j,,,,,,,,,4,5,77,5,,,,,,,,,main,1,1,1,negative,positive,l,l,1,0.899150500074029,328.9320981998462,329.94569319998845,329.91244239988737,None,328.9320981998462,None,328.9320981998462,None,328.9320981998462,None,330.82684662984684,None,330.82684662984684,None,330.82684662984684,None,,,,,,,,,,,,,,012,2022-05-11_15h37.08.151,Main,2022.1.1,59.9963522219469,
negative,positive,1,j,l,,,,,,,,,4,6,78,6,,,,,,,,,main,2,2,1,positive,negative,j,j,1,0.9333260001149029,330.84350800001994,331.8455737000331,331.8290674998425,None,330.84350800001994,None,330.84350800001994,None,330.84350800001994,None,332.7624145299196,None,332.7624145299196,None,332.7624145299196,None,,,,,,,,,,,,,,012,2022-05-11_15h37.08.151,Main,2022.1.1,59.9963522219469,
negative,positive,2,j,l,,,,,,,,,4,7,79,15,,,,,,,,,main,2,2,2,positive,negative,j,j,1,0.7634307001717389,332.7657770998776,333.77638389985077,333.7597119999118,None,332.7657770998776,None,332.7657770998776,None,332.7657770998776,None,334.52642342983745,None,334.52642342983745,None,334.52642342983745,None,,,,,,,,,,,,,,012,2022-05-11_15h37.08.151,Main,2022.1.1,59.9963522219469,
neutral,positive,2,k,k,,,,,,,,,4,8,80,13,,,,,,,,,main,2,2,2,positive,neutral,k,k,1,0.7001344000454992,334.54303870000876,335.543055200018,335.5263902998995,None,334.54303870000876,None,334.54303870000876,None,334.54303870000876,None,336.22909542988054,None,336.22909542988054,None,336.22909542988054,None,,,,,,,,,,,,,,012,2022-05-11_15h37.08.151,Main,2022.1.1,59.9963522219469,
negative,negative,1,j,l,,,,,,,,,4,9,81,0,,,,,,,,,main,1,1,1,negative,negative,j,j,1,0.7826654999516904,336.2327687998768,337.2456159000285,337.2290290999226,None,336.2327687998768,None,336.2327687998768,None,336.2327687998768,None,338.01002432988025,None,338.01002432988025,None,338.01002432988025,None,,,,,,,,,,,,,,012,2022-05-11_15h37.08.151,Main,2022.1.1,59.9963522219469,
neutral,positive,1,k,k,,,,,,,,,4,10,82,4,,,,,,,,,main,2,2,1,positive,neutral,k,k,1,0.7787339999340475,338.0167888000142,339.02882969984785,339.01226289989427,None,338.0167888000142,None,338.0167888000142,None,338.0167888000142,None,339.79345222981647,None,339.79345222981647,None,339.79345222981647,None,,,,,,,,,,,,,,012,2022-05-11_15h37.08.151,Main,2022.1.1,59.9963522219469,
positive,neutral,2,l,j,,,,,,,,,4,11,83,17,,,,,,,,,main,2,2,2,neutral,positive,l,l,1,0.7983430998865515,339.7989838998765,340.81211830000393,340.7932204999961,None,339.7989838998765,None,339.7989838998765,None,339.7989838998765,None,341.5932764299214,None,341.5932764299214,None,341.5932764299214,None,,,,,,,,,,,,,,012,2022-05-11_15h37.08.151,Main,2022.1.1,59.9963522219469,
negative,neutral,1,j,l,,,,,,,,,4,12,84,3,,,,,,,,,main,2,2,1,neutral,negative,j,j,1,0.8647032000590116,341.5988168998156,342.6098571999464,342.5932030000258,None,341.5988168998156,None,341.5988168998156,None,341.5988168998156,None,343.4596080300398,None,343.4596080300398,None,343.4596080300398,None,,,,,,,,,,,,,,012,2022-05-11_15h37.08.151,Main,2022.1.1,59.9963522219469,
positive,negative,2,l,j,,,,,,,,,4,13,85,14,,,,,,,,,main,1,1,2,negative,positive,l,l,1,0.8649571998976171,343.4627794998232,344.4761458998546,344.45948429987766,None,343.4627794998232,None,343.4627794998232,None,343.4627794998232,None,345.32618452981114,None,345.32618452981114,None,345.32618452981114,None,,,,,,,,,,,,,,012,2022-05-11_15h37.08.151,Main,2022.1.1,59.9963522219469,
positive,positive,1,l,j,,,,,,,,,4,14,86,2,,,,,,,,,main,2,2,1,positive,positive,l,l,1,0.9489381001330912,345.3261247999035,346.32615639991127,346.32615639991127,None,345.3261247999035,None,345.3261247999035,None,345.3261247999035,None,347.27649482991546,None,347.27649482991546,None,347.27649482991546,None,,,,,,,,,,,,,,012,2022-05-11_15h37.08.151,Main,2022.1.1,59.9963522219469,
positive,neutral,1,l,j,,,,,,,,,4,15,87,8,,,,,,,,,main,2,2,1,neutral,positive,l,l,1,0.6505106000695378,347.27987660001963,348.2953037000261,348.27867309981957,None,347.27987660001963,None,347.27987660001963,None,347.27987660001963,None,348.92867072997615,None,348.92867072997615,None,348.92867072997615,None,,,,,,,,,,,,,,012,2022-05-11_15h37.08.151,Main,2022.1.1,59.9963522219469,
negative,negative,2,j,l,,,,,,,,,4,16,88,9,,,,,,,,,main,1,1,2,negative,negative,j,j,1,0.8959094001911581,348.9314180999063,349.94522650004365,349.9286129998509,None,348.9314180999063,None,348.9314180999063,None,348.9314180999063,None,350.8264225299936,None,350.8264225299936,None,350.8264225299936,None,,,,,,,,,,,,,,012,2022-05-11_15h37.08.151,Main,2022.1.1,59.9963522219469,
neutral,neutral,2,k,k,,,,,,,,,4,17,89,10,,,,,,,,,main,2,2,2,neutral,neutral,k,k,1,0.6674635999370366,350.83005260000937,351.84526109998114,351.8119244000409,None,350.83005260000937,None,350.83005260000937,None,350.83005260000937,None,352.49521253001876,None,352.49521253001876,None,352.49521253001876,None,,,,,,,,,,,,,,012,2022-05-11_15h37.08.151,Main,2022.1.1,59.9963522219469,
neutral,positive,1,k,k,,,,,,,,,5,0,90,4,,,,,,,,,main,1,1,1,positive,neutral,k,k,1,0.6318360001314431,352.4980150000192,353.51186820003204,353.49517589993775,None,352.4980150000192,None,352.4980150000192,None,352.4980150000192,None,354.1285790298134,None,354.1285790298134,None,354.1285790298134,None,,,,,,,,,,,,,,012,2022-05-11_15h37.08.151,Main,2022.1.1,59.9963522219469,
positive,positive,1,l,j,,,,,,,,,5,1,91,2,,,,,,,,,main,1,1,1,positive,positive,l,l,1,0.9125707000494003,354.13130679982714,355.1425775999669,355.12591489986517,None,354.13130679982714,None,354.13130679982714,None,354.13130679982714,None,356.04261762998067,None,356.04261762998067,None,356.04261762998067,None,,,,,,,,,,,,,,012,2022-05-11_15h37.08.151,Main,2022.1.1,59.9963522219469,
positive,negative,2,l,j,,,,,,,,,5,2,92,14,,,,,,,,,main,1,1,2,negative,positive,l,l,1,0.6156176999211311,356.0429399998393,357.04261259990744,357.04261259990744,None,356.0429399998393,None,356.0429399998393,None,356.0429399998393,None,357.6596389298793,None,357.6596389298793,None,357.6596389298793,None,,,,,,,,,,,,,,012,2022-05-11_15h37.08.151,Main,2022.1.1,59.9963522219469,
neutral,neutral,2,k,k,,,,,,,,,5,3,93,10,,,,,,,,,main,1,1,2,neutral,neutral,k,k,1,0.7484470999334008,357.66312749986537,358.6784762998577,358.6593500999734,None,357.66312749986537,None,357.66312749986537,None,357.66312749986537,None,359.40984322992153,None,359.40984322992153,None,359.40984322992153,None,,,,,,,,,,,,,,012,2022-05-11_15h37.08.151,Main,2022.1.1,59.9963522219469,
negative,negative,2,j,l,,,,,,,,,5,4,94,9,,,,,,,,,main,1,1,2,negative,negative,j,j,1,0.8337824000045657,359.4130102999043,360.42652029986493,360.41007869993336,None,359.4130102999043,None,359.4130102999043,None,359.4130102999043,None,361.2452692298684,None,361.2452692298684,None,361.2452692298684,None,,,,,,,,,,,,,,012,2022-05-11_15h37.08.151,Main,2022.1.1,59.9963522219469,
negative,neutral,1,j,l,,,,,,,,,5,5,95,3,,,,,,,,,main,2,2,1,neutral,negative,j,j,1,0.8512345000635833,361.2490796998609,362.2615984999575,362.2450192000251,None,361.2490796998609,None,361.2490796998609,None,361.2490796998609,None,363.09501673001796,None,363.09501673001796,None,363.09501673001796,None,,,,,,,,,,,,,,012,2022-05-11_15h37.08.151,Main,2022.1.1,59.9963522219469,
negative,positive,1,j,l,,,,,,,,,5,6,96,6,,,,,,,,,main,2,2,1,positive,negative,j,j,1,0.6425145999528468,363.10535089997575,364.1116871999111,364.09499379992485,None,363.10535089997575,None,363.10535089997575,None,363.10535089997575,None,364.74380012997426,None,364.74380012997426,None,364.74380012997426,None,,,,,,,,,,,,,,012,2022-05-11_15h37.08.151,Main,2022.1.1,59.9963522219469,
neutral,negative,2,k,k,,,,,,,,,5,7,97,16,,,,,,,,,main,1,1,2,negative,neutral,k,k,1,0.7136794000398368,364.74941719998606,365.75923969992436,365.742748899851,None,364.74941719998606,None,364.74941719998606,None,364.74941719998606,None,366.4590590298176,None,366.4590590298176,None,366.4590590298176,None,,,,,,,,,,,,,,012,2022-05-11_15h37.08.151,Main,2022.1.1,59.9963522219469,
positive,neutral,1,l,j,,,,,,,,,5,8,98,8,,,,,,,,,main,1,1,1,neutral,positive,l,l,1,0.9001148999668658,366.45963849988766,367.45932259992696,367.45932259992696,None,366.45963849988766,None,366.45963849988766,None,366.45963849988766,None,368.36163212987594,None,368.36163212987594,None,368.36163212987594,None,,,,,,,,,,,,,,012,2022-05-11_15h37.08.151,Main,2022.1.1,59.9963522219469,
positive,neutral,2,l,j,,,,,,,,,5,9,99,17,,,,,,,,,main,1,1,2,neutral,positive,l,l,1,0.8794593999627978,368.3655150998384,369.37824200000614,369.36157089984044,None,368.3655150998384,None,368.3655150998384,None,368.3655150998384,None,370.2426354298368,None,370.2426354298368,None,370.2426354298368,None,,,,,,,,,,,,,,012,2022-05-11_15h37.08.151,Main,2022.1.1,59.9963522219469,
neutral,positive,2,k,k,,,,,,,,,5,10,100,13,,,,,,,,,main,1,1,2,positive,neutral,k,k,1,0.7483296000864357,370.24870019988157,371.261469299905,371.24492729990743,None,370.24870019988157,None,370.24870019988157,None,370.24870019988157,None,371.99261052999645,None,371.99261052999645,None,371.99261052999645,None,,,,,,,,,,,,,,012,2022-05-11_15h37.08.151,Main,2022.1.1,59.9963522219469,
negative,negative,1,j,l,,,,,,,,,5,11,101,0,,,,,,,,,main,2,2,1,negative,negative,j,j,1,0.8483170999679714,371.9959980000276,373.01142370002344,372.9947738000192,None,371.9959980000276,None,371.9959980000276,None,371.9959980000276,None,373.8425791298505,None,373.8425791298505,None,373.8425791298505,None,,,,,,,,,,,,,,012,2022-05-11_15h37.08.151,Main,2022.1.1,59.9963522219469,
negative,positive,2,j,l,,,,,,,,,5,12,102,15,,,,,,,,,main,1,1,2,positive,negative,j,j,1,0.8651407000143081,373.8459157999605,374.8613769998774,374.82817450002767,None,373.8459157999605,None,373.8459157999605,None,373.8459157999605,None,375.70917452988215,None,375.70917452988215,None,375.70917452988215,None,,,,,,,,,,,,,,012,2022-05-11_15h37.08.151,Main,2022.1.1,59.9963522219469,
negative,neutral,2,j,l,,,,,,,,,5,13,103,12,,,,,,,,,main,2,2,2,neutral,negative,j,j,1,0.7483387000393122,375.7092654998414,376.7087689000182,376.7087689000182,None,375.7092654998414,None,375.7092654998414,None,375.7092654998414,None,377.459148529917,None,377.459148529917,None,377.459148529917,None,,,,,,,,,,,,,,012,2022-05-11_15h37.08.151,Main,2022.1.1,59.9963522219469,
positive,positive,2,l,j,,,,,,,,,5,14,104,11,,,,,,,,,main,1,1,2,positive,positive,l,l,1,0.848327900050208,377.4646562000271,378.47604850004427,378.46143119991757,None,377.4646562000271,None,377.4646562000271,None,377.4646562000271,None,379.30915133003145,None,379.30915133003145,None,379.30915133003145,None,,,,,,,,,,,,,,012,2022-05-11_15h37.08.151,Main,2022.1.1,59.9963522219469,
neutral,negative,1,k,k,,,,,,,,,5,15,105,7,,,,,,,,,main,1,1,1,negative,neutral,k,k,1,0.8483225000090897,379.3131407999899,380.3279818999581,380.3113820999861,None,379.3131407999899,None,379.3131407999899,None,379.3131407999899,None,381.1591145298444,None,381.1591145298444,None,381.1591145298444,None,,,,,,,,,,,,,,012,2022-05-11_15h37.08.151,Main,2022.1.1,59.9963522219469,
positive,negative,1,l,j,,,,,,,,,5,16,106,5,,,,,,,,,main,1,1,1,negative,positive,l,l,1,0.98204330005683,381.16237649996765,382.17600229987875,382.1613687998615,None,381.16237649996765,None,381.16237649996765,None,381.16237649996765,None,383.1424069299828,None,383.1424069299828,None,383.1424069299828,None,,,,,,,,,,,,,,012,2022-05-11_15h37.08.151,Main,2022.1.1,59.9963522219469,
neutral,neutral,1,k,k,,,,,,,,,5,17,107,1,,,,,,,,,main,2,2,1,neutral,neutral,k,k,1,1.0486876999493688,383.1455339998938,384.14458639989607,384.14458639989607,None,383.1455339998938,None,383.1455339998938,None,383.1455339998938,None,385.1925504298415,None,385.1925504298415,None,385.1925504298415,None,,,,,,,,,,,,,,012,2022-05-11_15h37.08.151,Main,2022.1.1,59.9963522219469,
positive,negative,2,l,j,,,,,,,,,6,0,108,14,,,,,,,,,main,2,2,2,negative,positive,l,l,1,0.6632952999789268,385.2002905998379,386.2088670998346,386.19218280003406,None,385.2002905998379,None,385.2002905998379,None,385.2002905998379,None,386.8586282299366,None,386.8586282299366,None,386.8586282299366,None,,,,,,,,,,,,,,012,2022-05-11_15h37.08.151,Main,2022.1.1,59.9963522219469,
neutral,neutral,2,k,k,,,,,,,,,6,1,109,10,,,,,,,,,main,1,1,2,neutral,neutral,k,k,1,0.7652769000269473,386.8585858999286,387.85859950003214,387.85859950003214,None,386.8585858999286,None,386.8585858999286,None,386.8585858999286,None,388.6255879299715,None,388.6255879299715,None,388.6255879299715,None,,,,,,,,,,,,,,012,2022-05-11_15h37.08.151,Main,2022.1.1,59.9963522219469,
neutral,negative,2,k,k,,,,,,,,,6,2,110,16,,,,,,,,,main,1,1,2,negative,neutral,k,k,1,0.7315527000464499,388.63097129995003,389.6444357999135,389.6111875998322,None,388.63097129995003,None,388.63097129995003,None,388.63097129995003,None,390.3588784299791,None,390.3588784299791,None,390.3588784299791,None,,,,,,,,,,,,,,012,2022-05-11_15h37.08.151,Main,2022.1.1,59.9963522219469,
neutral,positive,1,k,k,,,,,,,,,6,3,111,4,,,,,,,,,main,1,1,1,positive,neutral,k,k,1,0.581947699887678,390.36485979985446,391.3777226000093,391.3444707999006,None,390.36485979985446,None,390.36485979985446,None,390.36485979985446,None,391.94217672990635,None,391.94217672990635,None,391.94217672990635,None,,,,,,,,,,,,,,012,2022-05-11_15h37.08.151,Main,2022.1.1,59.9963522219469,
negative,neutral,1,j,l,,,,,,,,,6,4,112,3,,,,,,,,,main,2,2,1,neutral,negative,j,j,1,0.7505049000028521,391.9449535999447,392.94432169990614,392.9276598999277,None,391.9449535999447,None,391.9449535999447,None,391.9449535999447,None,393.6943098299671,None,393.6943098299671,None,393.6943098299671,None,,,,,,,,,,,,,,012,2022-05-11_15h37.08.151,Main,2022.1.1,59.9963522219469,
negative,negative,2,j,l,,,,,,,,,6,5,113,9,,,,,,,,,main,2,2,2,negative,negative,j,j,1,0.7636635999660939,393.6979087998625,394.7109003998339,394.6943111999426,None,393.6979087998625,None,393.6979087998625,None,393.6979087998625,None,395.45848142984323,None,395.45848142984323,None,395.45848142984323,None,,,,,,,,,,,,,,012,2022-05-11_15h37.08.151,Main,2022.1.1,59.9963522219469,
neutral,neutral,1,k,k,,,,,,,,,6,6,114,1,,,,,,,,,main,1,1,1,neutral,neutral,k,k,1,0.8306855000555515,395.46250290004537,396.475004900014,396.458338299999,None,395.46250290004537,None,395.46250290004537,None,395.46250290004537,None,397.29171802988276,None,397.29171802988276,None,397.29171802988276,None,,,,,,,,,,,,,,012,2022-05-11_15h37.08.151,Main,2022.1.1,59.9963522219469,
positive,positive,1,l,j,,,,,,,,,6,7,115,2,,,,,,,,,main,2,2,1,positive,positive,l,l,1,0.7153594999108464,397.2916540999431,398.291686499957,398.291686499957,None,397.2916540999431,None,397.2916540999431,None,397.2916540999431,None,399.0084087299183,None,399.0084087299183,None,399.0084087299183,None,,,,,,,,,,,,,,012,2022-05-11_15h37.08.151,Main,2022.1.1,59.9963522219469,
positive,neutral,2,l,j,,,,,,,,,6,8,116,17,,,,,,,,,main,2,2,2,neutral,positive,l,l,1,0.6319521002005786,399.01183009985834,400.0109551998321,400.0109551998321,None,399.01183009985834,None,399.01183009985834,None,399.01183009985834,None,400.6420246299822,None,400.6420246299822,None,400.6420246299822,None,,,,,,,,,,,,,,012,2022-05-11_15h37.08.151,Main,2022.1.1,59.9963522219469,
positive,negative,1,l,j,,,,,,,,,6,9,117,5,,,,,,,,,main,1,1,1,negative,positive,l,l,1,0.897320399992168,400.6464899999555,401.66089039994404,401.6442179000005,None,400.6464899999555,None,400.6464899999555,None,400.6464899999555,None,402.5416569299996,None,402.5416569299996,None,402.5416569299996,None,,,,,,,,,,,,,,012,2022-05-11_15h37.08.151,Main,2022.1.1,59.9963522219469,
neutral,positive,2,k,k,,,,,,,,,6,10,118,13,,,,,,,,,main,2,2,2,positive,neutral,k,k,1,0.732019399991259,402.5473990000319,403.56072049983777,403.54417219990864,None,402.5473990000319,None,402.5473990000319,None,402.5473990000319,None,404.27523742988706,None,404.27523742988706,None,404.27523742988706,None,,,,,,,,,,,,,,012,2022-05-11_15h37.08.151,Main,2022.1.1,59.9963522219469,
positive,positive,2,l,j,,,,,,,,,6,11,119,11,,,,,,,,,main,2,2,2,positive,positive,l,l,1,0.6816843999549747,404.28087159991264,405.2940944998991,405.27739429986104,None,404.28087159991264,None,404.28087159991264,None,404.28087159991264,None,405.9585291298572,None,405.9585291298572,None,405.9585291298572,None,,,,,,,,,,,,,,012,2022-05-11_15h37.08.151,Main,2022.1.1,59.9963522219469,
negative,positive,1,j,l,,,,,,,,,6,12,120,6,,,,,,,,,main,2,2,1,positive,negative,j,j,1,0.8650074999313802,405.96188919991255,406.9772614999674,406.96070239995606,None,405.96188919991255,None,405.96188919991255,None,405.96188919991255,None,407.82515022996813,None,407.82515022996813,None,407.82515022996813,None,,,,,,,,,,,,,,012,2022-05-11_15h37.08.151,Main,2022.1.1,59.9963522219469,
negative,negative,1,j,l,,,,,,,,,6,13,121,0,,,,,,,,,main,1,1,1,negative,negative,j,j,1,0.6306644000578672,407.847202999983,408.85807059984654,408.82473349990323,None,407.847202999983,None,407.847202999983,None,407.847202999983,None,409.45810963003896,None,409.45810963003896,None,409.45810963003896,None,,,,,,,,,,,,,,012,2022-05-11_15h37.08.151,Main,2022.1.1,59.9963522219469,
neutral,negative,1,k,k,,,,,,,,,6,14,122,7,,,,,,,,,main,2,2,1,negative,neutral,k,k,1,0.7321516999509186,409.4580534999259,410.45805769995786,410.45805769995786,None,409.4580534999259,None,409.4580534999259,None,409.4580534999259,None,411.1917183299083,None,411.1917183299083,None,411.1917183299083,None,,,,,,,,,,,,,,012,2022-05-11_15h37.08.151,Main,2022.1.1,59.9963522219469,
negative,positive,2,j,l,,,,,,,,,6,15,123,15,,,,,,,,,main,2,2,2,positive,negative,j,j,1,0.8483613999560475,411.1950777999591,412.1942208998371,412.1942208998371,None,411.1950777999591,None,411.1950777999591,None,411.1950777999591,None,413.0417311298661,None,413.0417311298661,None,413.0417311298661,None,,,,,,,,,,,,,,012,2022-05-11_15h37.08.151,Main,2022.1.1,59.9963522219469,
positive,neutral,1,l,j,,,,,,,,,6,16,124,8,,,,,,,,,main,2,2,1,neutral,positive,l,l,1,0.8809241999406368,413.04571129987016,414.06065869983286,414.0440213000402,None,413.04571129987016,None,413.04571129987016,None,413.04571129987016,None,414.92510802997276,None,414.92510802997276,None,414.92510802997276,None,,,,,,,,,,,,,,012,2022-05-11_15h37.08.151,Main,2022.1.1,59.9963522219469,
negative,neutral,2,j,l,,,,,,,,,6,17,125,12,,,,,,,,,main,1,1,2,neutral,negative,j,j,1,1.0314595999661833,414.92839029990137,415.9438161998987,415.9272872998845,None,414.92839029990137,None,414.92839029990137,None,414.92839029990137,None,416.9582960298285,None,416.9582960298285,None,416.9582960298285,None,,,,,,,,,,,,,,012,2022-05-11_15h37.08.151,Main,2022.1.1,59.9963522219469,
positive,negative,1,l,j,,,,,,,,,7,0,126,5,,,,,,,,,main,2,2,1,negative,positive,l,l,1,0.9487294999416918,416.9634640000295,417.977102200035,417.9437528999988,None,416.9634640000295,None,416.9634640000295,None,416.9634640000295,None,418.9082469299901,None,418.9082469299901,None,418.9082469299901,None,,,,,,,,,,,,,,012,2022-05-11_15h37.08.151,Main,2022.1.1,59.9963522219469,
neutral,neutral,1,k,k,,,,,,,,,7,1,127,1,,,,,,,,,main,1,1,1,neutral,neutral,k,k,1,0.7312074000947177,418.9136877998244,419.9244843998458,419.907807599986,None,418.9136877998244,None,418.9136877998244,None,418.9136877998244,None,420.64120403002016,None,420.64120403002016,None,420.64120403002016,None,,,,,,,,,,,,,,012,2022-05-11_15h37.08.151,Main,2022.1.1,59.9963522219469,
positive,negative,2,l,j,,,,,,,,,7,2,128,14,,,,,,,,,main,1,1,2,negative,positive,l,l,1,0.7321164000313729,420.64113559992984,421.64117409987375,421.64117409987375,None,420.64113559992984,None,420.64113559992984,None,420.64113559992984,None,422.37486672983505,None,422.37486672983505,None,422.37486672983505,None,,,,,,,,,,,,,,012,2022-05-11_15h37.08.151,Main,2022.1.1,59.9963522219469,
negative,positive,2,j,l,,,,,,,,,7,3,129,15,,,,,,,,,main,2,2,2,positive,negative,j,j,1,0.8326975000090897,422.3781230999157,423.39371999981813,423.3771036998369,None,422.3781230999157,None,422.3781230999157,None,422.3781230999157,None,424.20815022988245,None,424.20815022988245,None,424.20815022988245,None,,,,,,,,,,,,,,012,2022-05-11_15h37.08.151,Main,2022.1.1,59.9963522219469,
positive,positive,1,l,j,,,,,,,,,7,4,130,2,,,,,,,,,main,1,1,1,positive,positive,l,l,1,0.8808774999342859,424.2143554999493,425.2269142998848,425.21032630000263,None,424.2143554999493,None,424.2143554999493,None,424.2143554999493,None,426.0914260300342,None,426.0914260300342,None,426.0914260300342,None,,,,,,,,,,,,,,012,2022-05-11_15h37.08.151,Main,2022.1.1,59.9963522219469,
neutral,negative,2,k,k,,,,,,,,,7,5,131,16,,,,,,,,,main,1,1,2,negative,neutral,k,k,1,0.715143300127238,426.09748069988564,427.1101867000107,427.0769211000297,None,426.09748069988564,None,426.09748069988564,None,426.09748069988564,None,427.8081791298464,None,427.8081791298464,None,427.8081791298464,None,,,,,,,,,,,,,,012,2022-05-11_15h37.08.151,Main,2022.1.1,59.9963522219469,
negative,neutral,1,j,l,,,,,,,,,7,6,132,3,,,,,,,,,main,2,2,1,neutral,negative,j,j,1,0.9179889000952244,427.813561799936,428.8269270998426,428.81028049997985,None,427.813561799936,None,427.813561799936,None,427.813561799936,None,429.72762502986006,None,429.72762502986006,None,429.72762502986006,None,,,,,,,,,,,,,,012,2022-05-11_15h37.08.151,Main,2022.1.1,59.9963522219469,
negative,positive,1,j,l,,,,,,,,,7,7,133,6,,,,,,,,,main,1,1,1,positive,negative,j,j,1,0.6491555999964476,429.7412576000206,430.74094829987735,430.72458849987015,None,429.7412576000206,None,429.7412576000206,None,429.7412576000206,None,431.3743046298623,None,431.3743046298623,None,431.3743046298623,None,,,,,,,,,,,,,,012,2022-05-11_15h37.08.151,Main,2022.1.1,59.9963522219469,
negative,negative,2,j,l,,,,,,,,,7,8,134,9,,,,,,,,,main,2,2,2,negative,negative,j,j,1,0.7614094000309706,431.3799465999473,432.390963899903,432.3745007000398,None,431.3799465999473,None,431.3799465999473,None,431.3799465999473,None,433.1413048298564,None,433.1413048298564,None,433.1413048298564,None,,,,,,,,,,,,,,012,2022-05-11_15h37.08.151,Main,2022.1.1,59.9963522219469,
neutral,positive,1,k,k,,,,,,,,,7,9,135,4,,,,,,,,,main,1,1,1,positive,neutral,k,k,1,0.6807176000438631,433.1457525999285,434.1603929998819,434.1435501000378,None,433.1457525999285,None,433.1457525999285,None,433.1457525999285,None,434.82459672982804,None,434.82459672982804,None,434.82459672982804,None,,,,,,,,,,,,,,012,2022-05-11_15h37.08.151,Main,2022.1.1,59.9963522219469,
neutral,positive,2,k,k,,,,,,,,,7,10,136,13,,,,,,,,,main,1,1,2,positive,neutral,k,k,1,0.6155771999619901,434.83067919989116,435.84145880001597,435.8081036999356,None,434.83067919989116,None,434.83067919989116,None,434.83067919989116,None,436.4415042300243,None,436.4415042300243,None,436.4415042300243,None,,,,,,,,,,,,,,012,2022-05-11_15h37.08.151,Main,2022.1.1,59.9963522219469,
negative,neutral,2,j,l,,,,,,,,,7,11,137,12,,,,,,,,,main,2,2,2,neutral,negative,j,j,1,0.8483297999482602,436.44509139982983,437.4600821000058,437.44096709997393,None,436.44509139982983,None,436.44509139982983,None,436.44509139982983,None,438.29125902988017,None,438.29125902988017,None,438.29125902988017,None,,,,,,,,,,,,,,012,2022-05-11_15h37.08.151,Main,2022.1.1,59.9963522219469,
positive,positive,2,l,j,,,,,,,,,7,12,138,11,,,,,,,,,main,2,2,2,positive,positive,l,l,1,0.7988656000234187,438.2980816999916,439.3099237999413,439.2910768999718,None,438.2980816999916,None,438.2980816999916,None,438.2980816999916,None,440.09173322981223,None,440.09173322981223,None,440.09173322981223,None,,,,,,,,,,,,,,012,2022-05-11_15h37.08.151,Main,2022.1.1,59.9963522219469,
neutral,negative,1,k,k,,,,,,,,,7,13,139,7,,,,,,,,,main,1,1,1,negative,neutral,k,k,1,0.6142055001109838,440.0975099999923,441.1073606000282,441.0907007998321,None,440.0975099999923,None,440.0975099999923,None,440.0975099999923,None,441.7076309300028,None,441.7076309300028,None,441.7076309300028,None,,,,,,,,,,,,,,012,2022-05-11_15h37.08.151,Main,2022.1.1,59.9963522219469,
neutral,neutral,2,k,k,,,,,,,,,7,14,140,10,,,,,,,,,main,1,1,2,neutral,neutral,k,k,1,0.681722599780187,441.70736570004374,442.70773869985715,442.70773869985715,None,441.70736570004374,None,441.70736570004374,None,441.70736570004374,None,443.3910593299661,None,443.3910593299661,None,443.3910593299661,None,,,,,,,,,,,,,,012,2022-05-11_15h37.08.151,Main,2022.1.1,59.9963522219469,
negative,negative,1,j,l,,,,,,,,,7,15,141,0,,,,,,,,,main,1,1,1,negative,negative,j,j,1,0.7820059000514448,443.39435409987345,444.3933601998724,444.3933601998724,None,443.39435409987345,None,443.39435409987345,None,443.39435409987345,None,445.1745526299346,None,445.1745526299346,None,445.1745526299346,None,,,,,,,,,,,,,,012,2022-05-11_15h37.08.151,Main,2022.1.1,59.9963522219469,
positive,neutral,2,l,j,,,,,,,,,7,16,142,17,,,,,,,,,main,2,2,2,neutral,positive,l,l,1,0.7648907999973744,445.18041160004213,446.1931796998251,446.1766411999706,None,445.18041160004213,None,445.18041160004213,None,445.18041160004213,None,446.94101042998955,None,446.94101042998955,None,446.94101042998955,None,,,,,,,,,,,,,,012,2022-05-11_15h37.08.151,Main,2022.1.1,59.9963522219469,
positive,neutral,1,l,j,,,,,,,,,7,17,143,8,,,,,,,,,main,2,2,1,neutral,positive,l,l,1,0.7826133000198752,446.94503759988584,447.9597543999553,447.9408859999385,None,446.94503759988584,None,446.94503759988584,None,446.94503759988584,None,448.724258629838,None,448.724258629838,None,448.724258629838,None,,,,,,,,,,,,,,012,2022-05-11_15h37.08.151,Main,2022.1.1,59.9963522219469,
positive,positive,1,l,j,,,,,,,,,8,0,144,2,,,,,,,,,main,2,2,1,positive,positive,l,l,1,0.6639980000909418,448.7285084000323,449.7430518998299,449.72650310001336,None,448.7285084000323,None,448.7285084000323,None,448.7285084000323,None,450.3908973298967,None,450.3908973298967,None,450.3908973298967,None,,,,,,,,,,,,,,012,2022-05-11_15h37.08.151,Main,2022.1.1,59.9963522219469,
neutral,neutral,2,k,k,,,,,,,,,8,1,145,10,,,,,,,,,main,2,2,2,neutral,neutral,k,k,1,0.7317001998890191,450.39488249993883,451.40716109983623,451.39052319992334,None,450.39488249993883,None,450.39488249993883,None,450.39488249993883,None,452.12410292983986,None,452.12410292983986,None,452.12410292983986,None,,,,,,,,,,,,,,012,2022-05-11_15h37.08.151,Main,2022.1.1,59.9963522219469,
negative,positive,1,j,l,,,,,,,,,8,2,146,6,,,,,,,,,main,1,1,1,positive,negative,j,j,1,0.7840073998086154,452.1259877998382,453.1404996998608,453.1238400998991,None,452.1259877998382,None,452.1259877998382,None,452.1259877998382,None,453.9097458298784,None,453.9097458298784,None,453.9097458298784,None,,,,,,,,,,,,,,012,2022-05-11_15h37.08.151,Main,2022.1.1,59.9963522219469,
positive,neutral,2,l,j,,,,,,,,,8,3,147,17,,,,,,,,,main,1,1,2,neutral,positive,l,l,1,0.8318833999801427,453.9127607999835,454.92632979992777,454.9095842000097,None,453.9127607999835,None,453.9127607999835,None,453.9127607999835,None,455.74314302997664,None,455.74314302997664,None,455.74314302997664,None,,,,,,,,,,,,,,012,2022-05-11_15h37.08.151,Main,2022.1.1,59.9963522219469,
positive,negative,2,l,j,,,,,,,,,8,4,148,14,,,,,,,,,main,2,2,2,negative,positive,l,l,1,0.6137449000962079,455.74616009998135,456.7576528999489,456.7429849000182,None,455.74616009998135,None,455.74616009998135,None,455.74616009998135,None,457.3574370299466,None,457.3574370299466,None,457.3574370299466,None,,,,,,,,,,,,,,012,2022-05-11_15h37.08.151,Main,2022.1.1,59.9963522219469,
positive,positive,2,l,j,,,,,,,,,8,5,149,11,,,,,,,,,main,2,2,2,positive,positive,l,l,1,0.5641074001323432,457.36175169982016,458.37620890000835,458.35968889994547,None,457.36175169982016,None,457.36175169982016,None,457.36175169982016,None,458.9240275300108,None,458.9240275300108,None,458.9240275300108,None,,,,,,,,,,,,,,012,2022-05-11_15h37.08.151,Main,2022.1.1,59.9963522219469,
neutral,positive,1,k,k,,,,,,,,,8,6,150,4,,,,,,,,,main,1,1,1,positive,neutral,k,k,1,0.798089100047946,458.9275871999562,459.94292559986934,459.9261483999435,None,458.9275871999562,None,458.9275871999562,None,458.9275871999562,None,460.7239761298988,None,460.7239761298988,None,460.7239761298988,None,,,,,,,,,,,,,,012,2022-05-11_15h37.08.151,Main,2022.1.1,59.9963522219469,
neutral,negative,1,k,k,,,,,,,,,8,7,151,7,,,,,,,,,main,2,2,1,negative,neutral,k,k,1,0.6149486999493092,460.7291895998642,461.7402405999601,461.7235722998157,None,460.7291895998642,None,460.7291895998642,None,460.7291895998642,None,462.3402922300156,None,462.3402922300156,None,462.3402922300156,None,,,,,,,,,,,,,,012,2022-05-11_15h37.08.151,Main,2022.1.1,59.9963522219469,
neutral,negative,2,k,k,,,,,,,,,8,8,152,16,,,,,,,,,main,2,2,2,negative,neutral,k,k,1,0.7652982000727206,462.34022959996946,463.34026429988444,463.34026429988444,None,462.34022959996946,None,462.34022959996946,None,462.34022959996946,None,464.10729022999294,None,464.10729022999294,None,464.10729022999294,None,,,,,,,,,,,,,,012,2022-05-11_15h37.08.151,Main,2022.1.1,59.9963522219469,
negative,negative,1,j,l,,,,,,,,,8,9,153,0,,,,,,,,,main,1,1,1,negative,negative,j,j,1,0.7152257000561804,464.11265339981765,465.1260728999041,465.09280289988965,None,464.11265339981765,None,464.11265339981765,None,464.11265339981765,None,465.8239037299063,None,465.8239037299063,None,465.8239037299063,None,,,,,,,,,,,,,,012,2022-05-11_15h37.08.151,Main,2022.1.1,59.9963522219469,
negative,negative,2,j,l,,,,,,,,,8,10,154,9,,,,,,,,,main,1,1,2,negative,negative,j,j,1,0.5815671999007463,465.82708239997737,466.82612869981676,466.82612869981676,None,465.82708239997737,None,465.82708239997737,None,465.82708239997737,None,467.4072051299736,None,467.4072051299736,None,467.4072051299736,None,,,,,,,,,,,,,,012,2022-05-11_15h37.08.151,Main,2022.1.1,59.9963522219469,
neutral,positive,2,k,k,,,,,,,,,8,11,155,13,,,,,,,,,main,2,2,2,positive,neutral,k,k,1,0.817722300067544,467.41032789996825,468.4094835999422,468.4094835999422,None,467.41032789996825,None,467.41032789996825,None,467.41032789996825,None,469.226210529916,None,469.226210529916,None,469.226210529916,None,,,,,,,,,,,,,,012,2022-05-11_15h37.08.151,Main,2022.1.1,59.9963522219469,
positive,negative,1,l,j,,,,,,,,,8,12,156,5,,,,,,,,,main,1,1,1,negative,positive,l,l,1,1.1955985999666154,469.2293191999197,470.2426547999494,470.22601899993606,None,469.2293191999197,None,469.2293191999197,None,469.2293191999197,None,471.4237625298556,None,471.4237625298556,None,471.4237625298556,None,,,,,,,,,,,,,,012,2022-05-11_15h37.08.151,Main,2022.1.1,59.9963522219469,
negative,neutral,1,j,l,,,,,,,,,8,13,157,3,,,,,,,,,main,2,2,1,neutral,negative,j,j,1,0.930574799887836,471.42981570004486,472.4400269999169,472.42336279992014,None,471.42981570004486,None,471.42981570004486,None,471.42981570004486,None,473.356719229836,None,473.356719229836,None,473.356719229836,None,,,,,,,,,,,,,,012,2022-05-11_15h37.08.151,Main,2022.1.1,59.9963522219469,
negative,neutral,2,j,l,,,,,,,,,8,14,158,12,,,,,,,,,main,1,1,2,neutral,negative,j,j,1,0.8012509001418948,473.35667170002125,474.3569671998266,474.3569671998266,None,473.35667170002125,None,473.35667170002125,None,473.35667170002125,None,475.1594200299587,None,475.1594200299587,None,475.1594200299587,None,,,,,,,,,,,,,,012,2022-05-11_15h37.08.151,Main,2022.1.1,59.9963522219469,
positive,neutral,1,l,j,,,,,,,,,8,15,159,8,,,,,,,,,main,1,1,1,neutral,positive,l,l,1,1.0793357999064028,475.1633516999427,476.1757948999293,476.15921689989045,None,475.1633516999427,None,475.1633516999427,None,475.1633516999427,None,477.24034772999585,None,477.24034772999585,None,477.24034772999585,None,,,,,,,,,,,,,,012,2022-05-11_15h37.08.151,Main,2022.1.1,59.9963522219469,
negative,positive,2,j,l,,,,,,,,,8,16,160,15,,,,,,,,,main,1,1,2,positive,negative,j,j,1,0.898094299947843,477.2463159998879,478.2591857998632,478.2425921999384,None,477.2463159998879,None,477.2463159998879,None,477.2463159998879,None,479.14028322999366,None,479.14028322999366,None,479.14028322999366,None,,,,,,,,,,,,,,012,2022-05-11_15h37.08.151,Main,2022.1.1,59.9963522219469,
neutral,neutral,1,k,k,,,,,,,,,8,17,161,1,,,,,,,,,main,2,2,1,neutral,neutral,k,k,1,0.7651925999671221,479.14326639985666,480.14248279994354,480.12585780001245,None,479.14326639985666,None,479.14326639985666,None,479.14326639985666,None,480.906906029908,None,480.906906029908,None,480.906906029908,None,,,,,,,,,,,,,,012,2022-05-11_15h37.08.151,Main,2022.1.1,59.9963522219469,
negative,negative,1,j,l,,,,,,,,,9,0,162,0,,,,,,,,,main,1,1,1,negative,negative,j,j,1,0.7650061999447644,480.91252939985134,481.9256781998556,481.9090988000389,None,480.91252939985134,None,480.91252939985134,None,480.91252939985134,None,482.67352343001403,None,482.67352343001403,None,482.67352343001403,None,,,,,,,,,,,,,,012,2022-05-11_15h37.08.151,Main,2022.1.1,59.9963522219469,
positive,neutral,1,l,j,,,,,,,,,9,1,163,8,,,,,,,,,main,1,1,1,neutral,positive,l,l,1,0.9481693999841809,482.6764269999694,483.6897652000189,483.67309599998407,None,482.6764269999694,None,482.6764269999694,None,482.6764269999694,None,484.62312812986784,None,484.62312812986784,None,484.62312812986784,None,,,,,,,,,,,,,,012,2022-05-11_15h37.08.151,Main,2022.1.1,59.9963522219469,
negative,neutral,2,j,l,,,,,,,,,9,2,164,12,,,,,,,,,main,1,1,2,neutral,negative,j,j,1,0.9986446001566947,484.6230746000074,485.6256462999154,485.6090194999706,None,484.6230746000074,None,484.6230746000074,None,484.6230746000074,None,486.6234392300248,None,486.6234392300248,None,486.6234392300248,None,,,,,,,,,,,,,,012,2022-05-11_15h37.08.151,Main,2022.1.1,59.9963522219469,
negative,positive,2,j,l,,,,,,,,,9,3,165,15,,,,,,,,,main,1,1,2,positive,negative,j,j,1,0.7152176001109183,486.62861140002497,487.6422519998159,487.6089784000069,None,486.62861140002497,None,486.62861140002497,None,486.62861140002497,None,488.34006422990933,None,488.34006422990933,None,488.34006422990933,None,,,,,,,,,,,,,,012,2022-05-11_15h37.08.151,Main,2022.1.1,59.9963522219469,
negative,negative,2,j,l,,,,,,,,,9,4,166,9,,,,,,,,,main,2,2,2,negative,negative,j,j,1,0.6315035000443459,488.34590610000305,489.35887499991804,489.3422868999187,None,488.34590610000305,None,488.34590610000305,None,488.34590610000305,None,489.97336172987707,None,489.97336172987707,None,489.97336172987707,None,,,,,,,,,,,,,,012,2022-05-11_15h37.08.151,Main,2022.1.1,59.9963522219469,
positive,negative,1,l,j,,,,,,,,,9,5,167,5,,,,,,,,,main,2,2,1,negative,positive,l,l,1,0.8154567999299616,489.9795321000274,490.99216279992834,490.9755718000233,None,489.9795321000274,None,489.9795321000274,None,489.9795321000274,None,491.78998092981055,None,491.78998092981055,None,491.78998092981055,None,,,,,,,,,,,,,,012,2022-05-11_15h37.08.151,Main,2022.1.1,59.9963522219469,
positive,positive,2,l,j,,,,,,,,,9,6,168,11,,,,,,,,,main,1,1,2,positive,positive,l,l,1,0.6829387999605387,491.79540729988366,492.80879609985277,492.7921722999308,None,491.79540729988366,None,491.79540729988366,None,491.79540729988366,None,493.4733197300229,None,493.4733197300229,None,493.4733197300229,None,,,,,,,,,,,,,,012,2022-05-11_15h37.08.151,Main,2022.1.1,59.9963522219469,
positive,negative,2,l,j,,,,,,,,,9,7,169,14,,,,,,,,,main,2,2,2,negative,positive,l,l,1,0.646887700073421,493.4794740998186,494.4895452999044,494.47288589994423,None,493.4794740998186,None,493.4794740998186,None,493.4794740998186,None,495.1229075298179,None,495.1229075298179,None,495.1229075298179,None,,,,,,,,,,,,,,012,2022-05-11_15h37.08.151,Main,2022.1.1,59.9963522219469,
negative,positive,1,j,l,,,,,,,,,9,8,170,6,,,,,,,,,main,1,1,1,positive,negative,j,j,1,0.8155121998861432,495.12283759983256,496.1228755998891,496.1228755998891,None,495.12283759983256,None,495.12283759983256,None,495.12283759983256,None,496.93991992995143,None,496.93991992995143,None,496.93991992995143,None,,,,,,,,,,,,,,012,2022-05-11_15h37.08.151,Main,2022.1.1,59.9963522219469,
neutral,negative,2,k,k,,,,,,,,,9,9,171,16,,,,,,,,,main,1,1,2,negative,neutral,k,k,1,0.7815769999288023,496.94537530001253,497.9586049998179,497.94215020001866,None,496.94537530001253,None,496.94537530001253,None,496.94537530001253,None,498.72315632994287,None,498.72315632994287,None,498.72315632994287,None,,,,,,,,,,,,,,012,2022-05-11_15h37.08.151,Main,2022.1.1,59.9963522219469,
neutral,neutral,2,k,k,,,,,,,,,9,10,172,10,,,,,,,,,main,1,1,2,neutral,neutral,k,k,1,0.8982383999973536,498.72645780001767,499.7419777000323,499.72531629982404,None,498.72645780001767,None,498.72645780001767,None,498.72645780001767,None,500.6231370298192,None,500.6231370298192,None,500.6231370298192,None,,,,,,,,,,,,,,012,2022-05-11_15h37.08.151,Main,2022.1.1,59.9963522219469,
neutral,positive,1,k,k,,,,,,,,,9,11,173,4,,,,,,,,,main,2,2,1,positive,neutral,k,k,1,0.7143011000007391,500.62922819983214,501.64195159985684,501.62525959988125,None,500.62922819983214,None,500.62922819983214,None,500.62922819983214,None,502.3397491299547,None,502.3397491299547,None,502.3397491299547,None,,,,,,,,,,,,,,012,2022-05-11_15h37.08.151,Main,2022.1.1,59.9963522219469,
positive,positive,1,l,j,,,,,,,,,9,12,174,2,,,,,,,,,main,1,1,1,positive,positive,l,l,1,0.998025800101459,502.3461958998814,503.3563275998458,503.3419748998713,None,502.3461958998814,None,502.3461958998814,None,502.3461958998814,None,504.33937242999673,None,504.33937242999673,None,504.33937242999673,None,,,,,,,,,,,,,,012,2022-05-11_15h37.08.151,Main,2022.1.1,59.9963522219469,
neutral,positive,2,k,k,,,,,,,,,9,13,175,13,,,,,,,,,main,1,1,2,positive,neutral,k,k,1,0.8475707999896258,504.3412162999157,505.3561821000185,505.339681699872,None,504.3412162999157,None,504.3412162999157,None,504.3412162999157,None,506.1893779300153,None,506.1893779300153,None,506.1893779300153,None,,,,,,,,,,,,,,012,2022-05-11_15h37.08.151,Main,2022.1.1,59.9963522219469,
neutral,neutral,1,k,k,,,,,,,,,9,14,176,1,,,,,,,,,main,1,1,1,neutral,neutral,k,k,1,0.9819532998371869,506.19528570002876,507.20655449992046,507.1754207999911,None,506.19528570002876,None,506.19528570002876,None,506.19528570002876,None,508.1729747299105,None,508.1729747299105,None,508.1729747299105,None,,,,,,,,,,,,,,012,2022-05-11_15h37.08.151,Main,2022.1.1,59.9963522219469,
neutral,negative,1,k,k,,,,,,,,,9,15,177,7,,,,,,,,,main,2,2,1,negative,neutral,k,k,1,0.6327490999829024,508.17854460002854,509.19178409990855,509.1755319000222,None,508.17854460002854,None,508.17854460002854,None,508.17854460002854,None,509.8060294298921,None,509.8060294298921,None,509.8060294298921,None,,,,,,,,,,,,,,012,2022-05-11_15h37.08.151,Main,2022.1.1,59.9963522219469,
positive,neutral,2,l,j,,,,,,,,,9,16,178,17,,,,,,,,,main,1,1,2,neutral,positive,l,l,1,0.7160984999500215,509.8168514999561,510.8255784998182,510.8086267998442,None,509.8168514999561,None,509.8168514999561,None,509.8168514999561,None,511.5251372298226,None,511.5251372298226,None,511.5251372298226,None,,,,,,,,,,,,,,012,2022-05-11_15h37.08.151,Main,2022.1.1,59.9963522219469,
negative,neutral,1,j,l,,,,,,,,,9,17,179,3,,,,,,,,,main,2,2,1,neutral,negative,j,j,1,0.8121192001271993,511.52907920000143,512.5420619000215,512.5251449998468,None,511.52907920000143,None,511.52907920000143,None,511.52907920000143,None,513.3397815299686,None,513.3397815299686,None,513.3397815299686,None,,,,,,,,,,,,,,012,2022-05-11_15h37.08.151,Main,2022.1.1,59.9963522219469,
positive,neutral,2,l,j,,,,,,,,,10,0,180,17,,,,,,,,,main,2,2,2,neutral,positive,l,l,1,0.764517999952659,513.3585516000167,514.3721338999458,514.3383370998781,None,513.3585516000167,None,513.3585516000167,None,513.3585516000167,None,515.105786429951,None,515.105786429951,None,515.105786429951,None,,,,,,,,,,,,,,012,2022-05-11_15h37.08.151,Main,2022.1.1,59.9963522219469,
positive,negative,1,l,j,,,,,,,,,10,1,181,5,,,,,,,,,main,2,2,1,negative,positive,l,l,1,0.7826026000548154,515.1062622000463,516.1059483999852,516.1059483999852,None,515.1062622000463,None,515.1062622000463,None,515.1062622000463,None,516.8892789299134,None,516.8892789299134,None,516.8892789299134,None,,,,,,,,,,,,,,012,2022-05-11_15h37.08.151,Main,2022.1.1,59.9963522219469,
positive,negative,2,l,j,,,,,,,,,10,2,182,14,,,,,,,,,main,2,2,2,negative,positive,l,l,1,0.6144735000561923,516.8935581999831,517.9082656998653,517.8916640998796,None,516.8935581999831,None,516.8935581999831,None,516.8935581999831,None,518.5060938298702,None,518.5060938298702,None,518.5060938298702,None,,,,,,,,,,,,,,012,2022-05-11_15h37.08.151,Main,2022.1.1,59.9963522219469,
negative,neutral,2,j,l,,,,,,,,,10,3,183,12,,,,,,,,,main,2,2,2,neutral,negative,j,j,1,0.8487352000083774,518.5115787999239,519.5249250999186,519.5083155999891,None,518.5115787999239,None,518.5115787999239,None,518.5115787999239,None,520.3560636299662,None,520.3560636299662,None,520.3560636299662,None,,,,,,,,,,,,,,012,2022-05-11_15h37.08.151,Main,2022.1.1,59.9963522219469,
negative,negative,1,j,l,,,,,,,,,10,4,184,0,,,,,,,,,main,1,1,1,negative,negative,j,j,1,0.7147693999577314,520.3597136000171,521.374913699925,521.3583247000352,None,520.3597136000171,None,520.3597136000171,None,520.3597136000171,None,522.072642529849,None,522.072642529849,None,522.072642529849,None,,,,,,,,,,,,,,012,2022-05-11_15h37.08.151,Main,2022.1.1,59.9963522219469,
negative,positive,1,j,l,,,,,,,,,10,5,185,6,,,,,,,,,main,2,2,1,positive,negative,j,j,1,0.6341039999388158,522.0760247998405,523.0915006999858,523.0748413999099,None,522.0760247998405,None,522.0760247998405,None,522.0760247998405,None,523.7082881298847,None,523.7082881298847,None,523.7082881298847,None,,,,,,,,,,,,,,012,2022-05-11_15h37.08.151,Main,2022.1.1,59.9963522219469,
neutral,neutral,1,k,k,,,,,,,,,10,6,186,1,,,,,,,,,main,2,2,1,neutral,neutral,k,k,1,0.7292719001416117,523.7109266000334,524.7224347998854,524.7057860000059,None,523.7109266000334,None,523.7109266000334,None,523.7109266000334,None,525.4389286299702,None,525.4389286299702,None,525.4389286299702,None,,,,,,,,,,,,,,012,2022-05-11_15h37.08.151,Main,2022.1.1,59.9963522219469,
neutral,positive,1,k,k,,,,,,,,,10,7,187,4,,,,,,,,,main,2,2,1,positive,neutral,k,k,1,0.6009961999952793,525.4388549998403,526.4391424998175,526.4391424998175,None,525.4388549998403,None,525.4388549998403,None,525.4388549998403,None,527.0414564299863,None,527.0414564299863,None,527.0414564299863,None,,,,,,,,,,,,,,012,2022-05-11_15h37.08.151,Main,2022.1.1,59.9963522219469,
neutral,positive,2,k,k,,,,,,,,,10,8,188,13,,,,,,,,,main,1,1,2,positive,neutral,k,k,1,0.5805912001524121,527.0443142999429,528.0580845000222,528.0414803000167,None,527.0443142999429,None,527.0443142999429,None,527.0443142999429,None,528.6234813299961,None,528.6234813299961,None,528.6234813299961,None,,,,,,,,,,,,,,012,2022-05-11_15h37.08.151,Main,2022.1.1,59.9963522219469,
positive,neutral,1,l,j,,,,,,,,,10,9,189,8,,,,,,,,,main,1,1,1,neutral,positive,l,l,1,0.832674799952656,528.6291953998152,529.6412980998866,529.6247791999485,None,528.6291953998152,None,528.6291953998152,None,528.6291953998152,None,530.4580547299702,None,530.4580547299702,None,530.4580547299702,None,,,,,,,,,,,,,,012,2022-05-11_15h37.08.151,Main,2022.1.1,59.9963522219469,
neutral,negative,2,k,k,,,,,,,,,10,10,190,16,,,,,,,,,main,2,2,2,negative,neutral,k,k,1,0.7627623998560011,530.4606788998935,531.4745729998685,531.4580564999487,None,530.4606788998935,None,530.4606788998935,None,530.4606788998935,None,532.222420129925,None,532.222420129925,None,532.222420129925,None,,,,,,,,,,,,,,012,2022-05-11_15h37.08.151,Main,2022.1.1,59.9963522219469,
negative,negative,2,j,l,,,,,,,,,10,11,191,9,,,,,,,,,main,2,2,2,negative,negative,j,j,1,0.7174117001704872,532.2250294999685,533.2245691998396,533.2079266998917,None,532.2250294999685,None,532.2250294999685,None,532.2250294999685,None,533.9412690298632,None,533.9412690298632,None,533.9412690298632,None,,,,,,,,,,,,,,012,2022-05-11_15h37.08.151,Main,2022.1.1,59.9963522219469,
neutral,neutral,2,k,k,,,,,,,,,10,12,192,10,,,,,,,,,main,2,2,2,neutral,neutral,k,k,1,0.696241500088945,533.9440243998542,534.9552825000137,534.9386375998147,None,533.9440243998542,None,533.9440243998542,None,533.9440243998542,None,535.638680730015,None,535.638680730015,None,535.638680730015,None,,,,,,,,,,,,,,012,2022-05-11_15h37.08.151,Main,2022.1.1,59.9963522219469,
neutral,negative,1,k,k,,,,,,,,,10,13,193,7,,,,,,,,,main,1,1,1,negative,neutral,k,k,1,0.6653154001105577,535.6386216999963,536.6386472999584,536.6386472999584,None,535.6386216999963,None,535.6386216999963,None,535.6386216999963,None,537.3056856298354,None,537.3056856298354,None,537.3056856298354,None,,,,,,,,,,,,,,012,2022-05-11_15h37.08.151,Main,2022.1.1,59.9963522219469,
positive,positive,2,l,j,,,,,,,,,10,14,194,11,,,,,,,,,main,2,2,2,positive,positive,l,l,1,0.8651599998120219,537.3089906999376,538.3079631000292,538.3079631000292,None,537.3089906999376,None,537.3089906999376,None,537.3089906999376,None,539.1722853300162,None,539.1722853300162,None,539.1722853300162,None,,,,,,,,,,,,,,012,2022-05-11_15h37.08.151,Main,2022.1.1,59.9963522219469,
negative,positive,2,j,l,,,,,,,,,10,15,195,15,,,,,,,,,main,1,1,2,positive,negative,j,j,1,0.7670847000554204,539.1776346999686,540.191102999961,540.1744929999113,None,539.1776346999686,None,539.1776346999686,None,539.1776346999686,None,540.9411189300008,None,540.9411189300008,None,540.9411189300008,None,,,,,,,,,,,,,,012,2022-05-11_15h37.08.151,Main,2022.1.1,59.9963522219469,
positive,positive,1,l,j,,,,,,,,,10,16,196,2,,,,,,,,,main,2,2,1,positive,positive,l,l,1,0.7709721000865102,540.9446473999415,541.9577095999848,541.941131599946,None,540.9446473999415,None,540.9446473999415,None,540.9446473999415,None,542.7078322300222,None,542.7078322300222,None,542.7078322300222,None,,,,,,,,,,,,,,012,2022-05-11_15h37.08.151,Main,2022.1.1,59.9963522219469,
negative,neutral,1,j,l,,,,,,,,,10,17,197,3,,,,,,,,,main,2,2,1,neutral,negative,j,j,1,0.8388217999599874,542.7177341999486,543.7246876000427,543.6888077999465,None,542.7177341999486,None,542.7177341999486,None,542.7177341999486,None,544.5548624298535,None,544.5548624298535,None,544.5548624298535,None,,,,,,,,,,,,,,012,2022-05-11_15h37.08.151,Main,2022.1.1,59.9963522219469,
positive,neutral,1,l,j,,,,,,,,,11,0,198,8,,,,,,,,,main,2,2,1,neutral,positive,l,l,1,0.7654172999318689,544.5658056000248,545.5717583999503,545.555094699841,None,544.5658056000248,None,544.5658056000248,None,544.5658056000248,None,546.3217999299522,None,546.3217999299522,None,546.3217999299522,None,,,,,,,,,,,,,,012,2022-05-11_15h37.08.151,Main,2022.1.1,59.9963522219469,
positive,negative,2,l,j,,,,,,,,,11,1,199,14,,,,,,,,,main,1,1,2,negative,positive,l,l,1,0.9986582999117672,546.3220483998302,547.321995300008,547.321995300008,None,546.3220483998302,None,546.3220483998302,None,546.3220483998302,None,548.3221245298628,None,548.3221245298628,None,548.3221245298628,None,,,,,,,,,,,,,,012,2022-05-11_15h37.08.151,Main,2022.1.1,59.9963522219469,
positive,neutral,2,l,j,,,,,,,,,11,2,200,17,,,,,,,,,main,2,2,2,neutral,positive,l,l,1,0.6358962000813335,548.3258205000311,549.3411761999596,549.3244007998146,None,548.3258205000311,None,548.3258205000311,None,548.3258205000311,None,549.9555183299817,None,549.9555183299817,None,549.9555183299817,None,,,,,,,,,,,,,,012,2022-05-11_15h37.08.151,Main,2022.1.1,59.9963522219469,
neutral,negative,1,k,k,,,,,,,,,11,3,201,7,,,,,,,,,main,1,1,1,negative,neutral,k,k,1,0.7934479000978172,549.9634648000356,550.9742824998684,550.9576110998169,None,549.9634648000356,None,549.9634648000356,None,549.9634648000356,None,551.7553662299179,None,551.7553662299179,None,551.7553662299179,None,,,,,,,,,,,,,,012,2022-05-11_15h37.08.151,Main,2022.1.1,59.9963522219469,
neutral,negative,2,k,k,,,,,,,,,11,4,202,16,,,,,,,,,main,2,2,2,negative,neutral,k,k,1,0.665127599844709,551.7610494999681,552.7742452998646,552.7578226998448,None,551.7610494999681,None,551.7610494999681,None,551.7610494999681,None,553.4219869298395,None,553.4219869298395,None,553.4219869298395,None,,,,,,,,,,,,,,012,2022-05-11_15h37.08.151,Main,2022.1.1,59.9963522219469,
positive,positive,1,l,j,,,,,,,,,11,5,203,2,,,,,,,,,main,1,1,1,positive,positive,l,l,1,0.7483736998401582,553.4279355998151,554.440846499987,554.424235599814,None,553.4279355998151,None,553.4279355998151,None,553.4279355998151,None,555.1719088298269,None,555.1719088298269,None,555.1719088298269,None,,,,,,,,,,,,,,012,2022-05-11_15h37.08.151,Main,2022.1.1,59.9963522219469,
neutral,positive,2,k,k,,,,,,,,,11,6,204,13,,,,,,,,,main,1,1,2,positive,neutral,k,k,1,0.8645351000595838,555.1751123999711,556.1884566999506,556.171524599893,None,555.1751123999711,None,555.1751123999711,None,555.1751123999711,None,557.0382001299877,None,557.0382001299877,None,557.0382001299877,None,,,,,,,,,,,,,,012,2022-05-11_15h37.08.151,Main,2022.1.1,59.9963522219469,
positive,positive,2,l,j,,,,,,,,,11,7,205,11,,,,,,,,,main,1,1,2,positive,positive,l,l,1,0.8011369998566806,557.0462028000038,558.0573650998995,558.0407576998696,None,557.0462028000038,None,557.0462028000038,None,557.0462028000038,None,558.8408146300353,None,558.8408146300353,None,558.8408146300353,None,,,,,,,,,,,,,,012,2022-05-11_15h37.08.151,Main,2022.1.1,59.9963522219469,
negative,positive,1,j,l,,,,,,,,,11,8,206,6,,,,,,,,,main,2,2,1,positive,negative,j,j,1,1.062493900069967,558.8440272000153,559.8573534998577,559.8408404998481,None,558.8440272000153,None,558.8440272000153,None,558.8440272000153,None,560.9048333298415,None,560.9048333298415,None,560.9048333298415,None,,,,,,,,,,,,,,012,2022-05-11_15h37.08.151,Main,2022.1.1,59.9963522219469,
neutral,neutral,1,k,k,,,,,,,,,11,9,207,1,,,,,,,,,main,2,2,1,neutral,neutral,k,k,1,0.8150148999411613,560.9081315998919,561.9076826998498,561.8907862999476,None,560.9081315998919,None,560.9081315998919,None,560.9081315998919,None,562.7215582299978,None,562.7215582299978,None,562.7215582299978,None,,,,,,,,,,,,,,012,2022-05-11_15h37.08.151,Main,2022.1.1,59.9963522219469,
negative,neutral,1,j,l,,,,,,,,,11,10,208,3,,,,,,,,,main,2,2,1,neutral,negative,j,j,1,0.8984494998585433,562.7274907999672,563.7410182999447,563.7052906998433,None,562.7274907999672,None,562.7274907999672,None,562.7274907999672,None,564.6217189298477,None,564.6217189298477,None,564.6217189298477,None,,,,,,,,,,,,,,012,2022-05-11_15h37.08.151,Main,2022.1.1,59.9963522219469,
positive,negative,1,l,j,,,,,,,,,11,11,209,5,,,,,,,,,main,2,2,1,negative,positive,l,l,1,0.9482627999968827,564.6272618998773,565.6380137999076,565.6213418999687,None,564.6272618998773,None,564.6272618998773,None,564.6272618998773,None,566.5713533298112,None,566.5713533298112,None,566.5713533298112,None,,,,,,,,,,,,,,012,2022-05-11_15h37.08.151,Main,2022.1.1,59.9963522219469,
neutral,neutral,2,k,k,,,,,,,,,11,12,210,10,,,,,,,,,main,2,2,2,neutral,neutral,k,k,1,0.7486202998552471,566.5712762998883,567.5713009999599,567.5713009999599,None,566.5712762998883,None,566.5712762998883,None,566.5712762998883,None,568.3215259299614,None,568.3215259299614,None,568.3215259299614,None,,,,,,,,,,,,,,012,2022-05-11_15h37.08.151,Main,2022.1.1,59.9963522219469,
negative,positive,2,j,l,,,,,,,,,11,13,211,15,,,,,,,,,main,1,1,2,positive,negative,j,j,1,0.7504261999856681,568.3272887000348,569.3405813998543,569.3242303999141,None,568.3272887000348,None,568.3272887000348,None,568.3272887000348,None,570.0737923299894,None,570.0737923299894,None,570.0737923299894,None,,,,,,,,,,,,,,012,2022-05-11_15h37.08.151,Main,2022.1.1,59.9963522219469,
negative,neutral,2,j,l,,,,,,,,,11,14,212,12,,,,,,,,,main,1,1,2,neutral,negative,j,j,1,0.8636779000516981,570.0765007999726,571.090407700045,571.0738045999315,None,570.0765007999726,None,570.0765007999726,None,570.0765007999726,None,571.9382314300165,None,571.9382314300165,None,571.9382314300165,None,,,,,,,,,,,,,,012,2022-05-11_15h37.08.151,Main,2022.1.1,59.9963522219469,
negative,negative,2,j,l,,,,,,,,,11,15,213,9,,,,,,,,,main,1,1,2,negative,negative,j,j,1,0.6332080001011491,571.9570946998429,572.9570561000146,572.9404970998876,None,571.9570946998429,None,571.9570946998429,None,571.9570946998429,None,573.5737582298461,None,573.5737582298461,None,573.5737582298461,None,,,,,,,,,,,,,,012,2022-05-11_15h37.08.151,Main,2022.1.1,59.9963522219469,
negative,negative,1,j,l,,,,,,,,,11,16,214,0,,,,,,,,,main,2,2,1,negative,negative,j,j,1,0.796131799928844,573.5764654998202,574.5904218999203,574.5737848000135,None,573.5764654998202,None,573.5764654998202,None,573.5764654998202,None,575.3712482298724,None,575.3712482298724,None,575.3712482298724,None,,,,,,,,,,,,,,012,2022-05-11_15h37.08.151,Main,2022.1.1,59.9963522219469,
neutral,positive,1,k,k,,,,,,,,,11,17,215,4,,,,,,,,,main,2,2,1,positive,neutral,k,k,1,0.798345600022003,575.3881377999205,576.3880663998425,576.3737265998498,None,575.3881377999205,None,575.3881377999205,None,575.3881377999205,None,577.1711058299989,None,577.1711058299989,None,577.1711058299989,None,,,,,,,,,,,,,,012,2022-05-11_15h37.08.151,Main,2022.1.1,59.9963522219469,
neutral,neutral,2,k,k,,,,,,,,,12,0,216,10,,,,,,,,,main,1,1,2,neutral,neutral,k,k,1,0.7483811001293361,577.171041399939,578.171023099916,578.171023099916,None,577.171041399939,None,577.171041399939,None,577.171041399939,None,578.9211103299167,None,578.9211103299167,None,578.9211103299167,None,,,,,,,,,,,,,,012,2022-05-11_15h37.08.151,Main,2022.1.1,59.9963522219469,
positive,neutral,2,l,j,,,,,,,,,12,1,217,17,,,,,,,,,main,2,2,2,neutral,positive,l,l,1,0.7842121999710798,578.9271455998532,579.9402929998469,579.9236337998882,None,578.9271455998532,None,578.9271455998532,None,578.9271455998532,None,580.7069028299302,None,580.7069028299302,None,580.7069028299302,None,,,,,,,,,,,,,,012,2022-05-11_15h37.08.151,Main,2022.1.1,59.9963522219469,
neutral,negative,2,k,k,,,,,,,,,12,2,218,16,,,,,,,,,main,2,2,2,negative,neutral,k,k,1,0.7130259000696242,580.7096700000111,581.7235344999935,581.7070067999884,None,580.7096700000111,None,580.7096700000111,None,580.7096700000111,None,582.4214515299536,None,582.4214515299536,None,582.4214515299536,None,,,,,,,,,,,,,,012,2022-05-11_15h37.08.151,Main,2022.1.1,59.9963522219469,
negative,neutral,1,j,l,,,,,,,,,12,3,219,3,,,,,,,,,main,1,1,1,neutral,negative,j,j,1,0.6992160999216139,582.4271604998503,583.4382001999766,583.4236304999795,None,582.4271604998503,None,582.4271604998503,None,582.4271604998503,None,584.1223978300113,None,584.1223978300113,None,584.1223978300113,None,,,,,,,,,,,,,,012,2022-05-11_15h37.08.151,Main,2022.1.1,59.9963522219469,
positive,positive,1,l,j,,,,,,,,,12,4,220,2,,,,,,,,,main,1,1,1,positive,positive,l,l,1,0.7641084000933915,584.1278993999586,585.1401018998586,585.1234404998831,None,584.1278993999586,None,584.1278993999586,None,584.1278993999586,None,585.8879109299742,None,585.8879109299742,None,585.8879109299742,None,,,,,,,,,,,,,,012,2022-05-11_15h37.08.151,Main,2022.1.1,59.9963522219469,
positive,positive,2,l,j,,,,,,,,,12,5,221,11,,,,,,,,,main,1,1,2,positive,positive,l,l,1,0.7481884001754224,585.8968527999241,586.9037946998142,586.8866826999001,None,585.8968527999241,None,585.8968527999241,None,585.8968527999241,None,587.6378672299907,None,587.6378672299907,None,587.6378672299907,None,,,,,,,,,,,,,,012,2022-05-11_15h37.08.151,Main,2022.1.1,59.9963522219469,
negative,positive,2,j,l,,,,,,,,,12,6,222,15,,,,,,,,,main,1,1,2,positive,negative,j,j,1,0.8143317000940442,587.6457487000152,588.6541463998146,588.637480000034,None,587.6457487000152,None,587.6457487000152,None,587.6457487000152,None,589.4542438299395,None,589.4542438299395,None,589.4542438299395,None,,,,,,,,,,,,,,012,2022-05-11_15h37.08.151,Main,2022.1.1,59.9963522219469,
neutral,neutral,1,k,k,,,,,,,,,12,7,223,1,,,,,,,,,main,2,2,1,neutral,neutral,k,k,1,0.6987150001805276,589.4570382998791,590.4567003999837,590.4401680999435,None,589.4570382998791,None,589.4570382998791,None,589.4570382998791,None,591.1544753299095,None,591.1544753299095,None,591.1544753299095,None,,,,,,,,,,,,,,012,2022-05-11_15h37.08.151,Main,2022.1.1,59.9963522219469,
negative,negative,2,j,l,,,,,,,,,12,8,224,9,,,,,,,,,main,2,2,2,negative,negative,j,j,1,1.0149850999005139,591.1574844999705,592.1566451999824,592.1566451999824,None,591.1574844999705,None,591.1574844999705,None,591.1574844999705,None,593.171069229953,None,593.171069229953,None,593.171069229953,None,,,,,,,,,,,,,,012,2022-05-11_15h37.08.151,Main,2022.1.1,59.9963522219469,
