target,distractor,set,ans1,ans2,rep_loop2.thisRepN,rep_loop2.thisTrialN,rep_loop2.thisN,rep_loop2.thisIndex,flanker_prac_loop.thisRepN,flanker_prac_loop.thisTrialN,flanker_prac_loop.thisN,flanker_prac_loop.thisIndex,flanker_main_loop.thisRepN,flanker_main_loop.thisTrialN,flanker_main_loop.thisN,flanker_main_loop.thisIndex,fl_inst_resp.keys,fl_inst_resp.rt,sound_1.started,sound_1.stopped,image_4.started,image_4.stopped,back_2.started,back_2.stopped,main_prac,fl_cold,fl_colt,fl_set,fl_dcond,fl_tcond,fl_ans,fl_res,fl_corr,fl_rt,fix_fl.started,fix_fl.stopped,targ.started,targ.stopped,j_button.started,j_button.stopped,k_button.started,k_button.stopped,l_button.started,l_button.stopped,j_button2.started,j_button2.stopped,k_button2.started,k_button2.stopped,l_button2.started,l_button2.stopped,mainback.started,mainback.stopped,key_resp.keys,mouse_6.x,mouse_6.y,mouse_6.leftButton,mouse_6.midButton,mouse_6.rightButton,mouse_6.started,mouse_6.stopped,text_2.started,text_2.stopped,id*,date,expName,psychopyVersion,frameRate,
,,,,,0,0,0,0,,,,,,,,,space,50.90325369988568,16.550431419955565,None,67.49055270012468,None,,,,,,,,,,,,,,,,,,,,,,,,,,,,,,,,,,,,,,,,,013,2022-05-11_17h33.59.064,Main,2022.1.1,60.20639962286481,
,,,,,1,0,1,0,,,,,,,,,space,2.07234499999322,73.48773351996206,None,75.58248149999417,None,,,,,,,,,,,,,,,,,,,,,,,,,,,,,,,,,,,,,,,,,013,2022-05-11_17h33.59.064,Main,2022.1.1,60.20639962286481,
negative,negative,1,j,l,,,,,0,0,0,0,,,,,,,,,,,78.81803239998408,None,prac,1,1,1,negative,negative,l,l,1,2.7588843000121415,80.82745410013013,81.83203559997492,81.81537390011363,None,80.82745410013013,None,80.82745410013013,None,80.82745410013013,None,84.58678500005044,None,84.58678500005044,None,84.58678500005044,None,,,,,,,,,,,,,013,2022-05-11_17h33.59.064,Main,2022.1.1,60.20639962286481,
positive,neutral,2,l,j,,,,,0,1,1,17,,,,,,,,,,,,,prac,2,2,2,neutral,positive,j,j,1,1.1511218000669032,85.60060030012392,86.61793139996007,86.5825847000815,None,85.60060030012392,None,85.60060030012392,None,85.60060030012392,None,87.7486512200907,None,87.7486512200907,None,87.7486512200907,None,,,,,,,,,,,,,013,2022-05-11_17h33.59.064,Main,2022.1.1,60.20639962286481,
negative,neutral,2,j,l,,,,,0,2,2,12,,,,,,,,,,,,,prac,2,2,2,neutral,negative,l,l,1,0.9316294998861849,87.75358020002022,88.76780110015534,88.75129769998603,None,87.75358020002022,None,87.75358020002022,None,87.75358020002022,None,89.68195882006549,None,89.68195882006549,None,89.68195882006549,None,,,,,,,,,,,,,013,2022-05-11_17h33.59.064,Main,2022.1.1,60.20639962286481,
neutral,negative,2,k,k,,,,,0,3,3,16,,,,,,,,,,,,,prac,1,1,2,negative,neutral,k,k,1,0.9332729999441653,89.68629959993996,90.70130970003083,90.68259600014426,None,89.68629959993996,None,89.68629959993996,None,89.68629959993996,None,91.6174591200892,None,91.6174591200892,None,91.6174591200892,None,,,,,,,,,,,,,013,2022-05-11_17h33.59.064,Main,2022.1.1,60.20639962286481,
negative,positive,2,j,l,,,,,0,4,4,15,,,,,,,,,,,,,prac,2,2,2,positive,negative,l,j,0,1.1625961000099778,91.62177470000461,92.63183080009185,92.61516500008292,None,91.62177470000461,None,91.62177470000461,None,91.62177470000461,None,93.78181549999863,None,93.78181549999863,None,93.78181549999863,None,,,,,,,,,,,,,013,2022-05-11_17h33.59.064,Main,2022.1.1,60.20639962286481,
negative,negative,2,j,l,,,,,0,5,5,9,,,,,,,,,,,,,prac,2,2,2,negative,negative,l,l,1,0.8848023000173271,94.78210930014029,95.78439259994775,95.7677943999879,None,94.78210930014029,None,94.78210930014029,None,94.78210930014029,None,96.66514311996289,None,96.66514311996289,None,96.66514311996289,None,,,,,,,,,,,,,013,2022-05-11_17h33.59.064,Main,2022.1.1,60.20639962286481,
neutral,negative,1,k,k,,,,,0,6,6,7,,,,,,,,,,,,,prac,1,1,1,negative,neutral,k,k,1,0.918804399902001,96.66900330013596,97.68456690013409,97.66779129998758,None,96.66900330013596,None,96.66900330013596,None,96.66900330013596,None,98.58402322009206,None,98.58402322009206,None,98.58402322009206,None,,,,,,,,,,,,,013,2022-05-11_17h33.59.064,Main,2022.1.1,60.20639962286481,
positive,negative,2,l,j,,,,,0,7,7,14,,,,,,,,,,,,,prac,1,1,2,negative,positive,j,j,1,1.0467809999827296,98.58872200013138,99.59898310014978,99.58223389997147,None,98.58872200013138,None,98.58872200013138,None,98.58872200013138,None,100.63392022005283,None,100.63392022005283,None,100.63392022005283,None,,,,,,,,,,,,,013,2022-05-11_17h33.59.064,Main,2022.1.1,60.20639962286481,
neutral,positive,2,k,k,,,,,0,8,8,13,,,,,,,,,,,,,prac,1,1,2,positive,neutral,k,k,1,1.413042200030759,100.63679260015488,101.64893219992518,101.63454680005088,None,100.63679260015488,None,100.63679260015488,None,100.63679260015488,None,103.04799651992508,None,103.04799651992508,None,103.04799651992508,None,,,,,,,,,,,,,013,2022-05-11_17h33.59.064,Main,2022.1.1,60.20639962286481,
neutral,positive,1,k,k,,,,,0,9,9,4,,,,,,,,,,,,,prac,2,2,1,positive,neutral,k,k,1,0.6811916001606733,103.06497199996375,104.06494210008532,104.04827530006878,None,103.06497199996375,None,103.06497199996375,None,103.06497199996375,None,104.7313579200767,None,104.7313579200767,None,104.7313579200767,None,,,,,,,,,,,,,013,2022-05-11_17h33.59.064,Main,2022.1.1,60.20639962286481,
neutral,neutral,1,k,k,,,,,0,10,10,1,,,,,,,,,,,,,prac,2,2,1,neutral,neutral,k,k,1,0.6158058999571949,104.73413200001232,105.73419729992747,105.71748270001262,None,104.73413200001232,None,104.73413200001232,None,104.73413200001232,None,106.34828181993217,None,106.34828181993217,None,106.34828181993217,None,,,,,,,,,,,,,013,2022-05-11_17h33.59.064,Main,2022.1.1,60.20639962286481,
neutral,neutral,2,k,k,,,,,0,11,11,10,,,,,,,,,,,,,prac,1,1,2,neutral,neutral,k,k,1,0.6524566002190113,106.35150240012445,107.35084150009789,107.35084150009789,None,106.35150240012445,None,106.35150240012445,None,106.35150240012445,None,108.00046981996857,None,108.00046981996857,None,108.00046981996857,None,,,,,,,,,,,,,013,2022-05-11_17h33.59.064,Main,2022.1.1,60.20639962286481,
negative,neutral,1,j,l,,,,,0,12,12,3,,,,,,,,,,,,,prac,1,1,1,neutral,negative,l,j,0,2.1801077001728117,108.0049783999566,109.01742330007255,109.00079359998927,None,108.0049783999566,None,108.0049783999566,None,108.0049783999566,None,111.18391030002385,None,111.18391030002385,None,111.18391030002385,None,,,,,,,,,,,,,013,2022-05-11_17h33.59.064,Main,2022.1.1,60.20639962286481,
positive,positive,1,l,j,,,,,0,13,13,2,,,,,,,,,,,,,prac,1,1,1,positive,positive,j,j,1,0.8843041998334229,112.1820919001475,113.19805520004593,113.16472450015135,None,112.1820919001475,None,112.1820919001475,None,112.1820919001475,None,114.06441101999954,None,114.06441101999954,None,114.06441101999954,None,,,,,,,,,,,,,013,2022-05-11_17h33.59.064,Main,2022.1.1,60.20639962286481,
positive,positive,2,l,j,,,,,0,14,14,11,,,,,,,,,,,,,prac,2,2,2,positive,positive,j,j,1,0.8483933000825346,114.06474180007353,115.0647450000979,115.0647450000979,None,114.06474180007353,None,114.06474180007353,None,114.06474180007353,None,115.91445452007466,None,115.91445452007466,None,115.91445452007466,None,,,,,,,,,,,,,013,2022-05-11_17h33.59.064,Main,2022.1.1,60.20639962286481,
negative,positive,1,j,l,,,,,0,15,15,6,,,,,,,,,,,,,prac,2,2,1,positive,negative,l,l,1,1.1163162000011653,115.92342400015332,116.9338543000631,116.91730570001528,None,115.92342400015332,None,115.92342400015332,None,115.92342400015332,None,118.03131572003477,None,118.03131572003477,None,118.03131572003477,None,,,,,,,,,,,,,013,2022-05-11_17h33.59.064,Main,2022.1.1,60.20639962286481,
positive,neutral,1,l,j,,,,,0,16,16,8,,,,,,,,,,,,,prac,1,1,1,neutral,positive,j,j,1,1.0977940999437124,118.03557549999095,119.05046420008875,119.03392249997705,None,118.03557549999095,None,118.03557549999095,None,118.03557549999095,None,120.13128041997552,None,120.13128041997552,None,120.13128041997552,None,,,,,,,,,,,,,013,2022-05-11_17h33.59.064,Main,2022.1.1,60.20639962286481,
positive,negative,1,l,j,,,,,0,17,17,5,,,,,,,,,,,,,prac,1,1,1,negative,positive,j,j,1,0.6187030000146478,120.13454010011628,121.15039630001411,121.13392019993626,None,120.13454010011628,None,120.13454010011628,None,120.13454010011628,None,121.75008431994357,None,121.75008431994357,None,121.75008431994357,None,,,,,,,,,,,,,013,2022-05-11_17h33.59.064,Main,2022.1.1,60.20639962286481,
positive,neutral,1,l,j,,,,,1,0,18,8,,,,,,,,,,,,,prac,1,1,1,neutral,positive,j,j,1,0.5950492999982089,121.75392520008609,122.76707529998384,122.74820740008727,None,121.75392520008609,None,121.75392520008609,None,121.75392520008609,None,123.3475423200056,None,123.3475423200056,None,123.3475423200056,None,,,,,,,,,,,,,013,2022-05-11_17h33.59.064,Main,2022.1.1,60.20639962286481,
positive,negative,2,l,j,,,,,1,1,19,14,,,,,,,,,,,,,prac,2,2,2,negative,positive,j,j,1,0.6321705000009388,123.34784190007485,124.34782540006563,124.34782540006563,None,123.34784190007485,None,123.34784190007485,None,123.34784190007485,None,124.98084652014077,None,124.98084652014077,None,124.98084652014077,None,,,,,,,,,,,,,013,2022-05-11_17h33.59.064,Main,2022.1.1,60.20639962286481,
neutral,neutral,1,k,k,,,,,1,2,20,1,,,,,,,,,,,,,prac,2,2,1,neutral,neutral,k,k,1,0.6319893000181764,124.98139590001665,125.98117600008845,125.98117600008845,None,124.98139590001665,None,124.98139590001665,None,124.98139590001665,None,126.61419782005251,None,126.61419782005251,None,126.61419782005251,None,,,,,,,,,,,,,013,2022-05-11_17h33.59.064,Main,2022.1.1,60.20639962286481,
neutral,negative,1,k,k,,,,,1,3,21,7,,,,,,,,,,,,,prac,2,2,1,negative,neutral,k,k,1,0.5846404999028891,126.61740810004994,127.61701450007968,127.60044559999369,None,126.61740810004994,None,126.61740810004994,None,126.61740810004994,None,128.20002342001536,None,128.20002342001536,None,128.20002342001536,None,,,,,,,,,,,,,013,2022-05-11_17h33.59.064,Main,2022.1.1,60.20639962286481,
negative,positive,1,j,l,,,,,1,4,22,6,,,,,,,,,,,,,prac,2,2,1,positive,negative,l,l,1,1.8795853001065552,128.2030704000499,129.21703259996139,129.2002853001468,None,128.2030704000499,None,128.2030704000499,None,128.2030704000499,None,131.08398280013353,None,131.08398280013353,None,131.08398280013353,None,,,,,,,,,,,,,013,2022-05-11_17h33.59.064,Main,2022.1.1,60.20639962286481,
positive,positive,1,l,j,,,,,1,5,23,2,,,,,,,,,,,,,prac,2,2,1,positive,positive,j,j,1,0.8013496000785381,132.0828708000481,133.08349839993753,133.0668874999974,None,132.0828708000481,None,132.0828708000481,None,132.0828708000481,None,133.88100152006373,None,133.88100152006373,None,133.88100152006373,None,,,,,,,,,,,,,013,2022-05-11_17h33.59.064,Main,2022.1.1,60.20639962286481,
positive,negative,1,l,j,,,,,1,6,24,5,,,,,,,,,,,,,prac,1,1,1,negative,positive,j,j,1,0.5315088001079857,133.8845887000207,134.89759619999677,134.88093139999546,None,133.8845887000207,None,133.8845887000207,None,133.8845887000207,None,135.41394582004287,None,135.41394582004287,None,135.41394582004287,None,,,,,,,,,,,,,013,2022-05-11_17h33.59.064,Main,2022.1.1,60.20639962286481,
neutral,positive,1,k,k,,,,,1,7,25,4,,,,,,,,,,,,,prac,1,1,1,positive,neutral,k,k,1,0.732336699962616,135.41425390006043,136.4142871000804,136.4142871000804,None,135.41425390006043,None,135.41425390006043,None,135.41425390006043,None,137.14761272012257,None,137.14761272012257,None,137.14761272012257,None,,,,,,,,,,,,,013,2022-05-11_17h33.59.064,Main,2022.1.1,60.20639962286481,
negative,neutral,2,j,l,,,,,1,8,26,12,,,,,,,,,,,,,prac,2,2,2,neutral,negative,l,l,1,0.7842449999880046,137.1510098001454,138.16685070004314,138.1502533000894,None,137.1510098001454,None,137.1510098001454,None,137.1510098001454,None,138.93305971994997,None,138.93305971994997,None,138.93305971994997,None,,,,,,,,,,,,,013,2022-05-11_17h33.59.064,Main,2022.1.1,60.20639962286481,
negative,negative,2,j,l,,,,,1,9,27,9,,,,,,,,,,,,,prac,2,2,2,negative,negative,l,l,1,0.6300533001776785,138.93599170004018,139.95005919993855,139.9334273999557,None,138.93599170004018,None,138.93599170004018,None,138.93599170004018,None,140.56421242011712,None,140.56421242011712,None,140.56421242011712,None,,,,,,,,,,,,,013,2022-05-11_17h33.59.064,Main,2022.1.1,60.20639962286481,
positive,positive,2,l,j,,,,,1,10,28,11,,,,,,,,,,,,,prac,2,2,2,positive,positive,j,j,1,0.7485782001167536,140.56829100009054,141.58330369996838,141.5668114,None,140.56829100009054,None,140.56829100009054,None,140.56829100009054,None,142.31414711996914,None,142.31414711996914,None,142.31414711996914,None,,,,,,,,,,,,,013,2022-05-11_17h33.59.064,Main,2022.1.1,60.20639962286481,
negative,positive,2,j,l,,,,,1,11,29,15,,,,,,,,,,,,,prac,2,2,2,positive,negative,l,l,1,0.8177288000006229,142.31747819995508,143.33335450012237,143.31668630009517,None,142.31747819995508,None,142.31747819995508,None,142.31747819995508,None,144.1330093199853,None,144.1330093199853,None,144.1330093199853,None,,,,,,,,,,,,,013,2022-05-11_17h33.59.064,Main,2022.1.1,60.20639962286481,
negative,negative,1,j,l,,,,,1,12,30,0,,,,,,,,,,,,,prac,2,2,1,negative,negative,l,l,1,1.8624595999717712,144.13631010008976,145.14737479994074,145.13071179995313,None,144.13631010008976,None,144.13631010008976,None,144.13631010008976,None,146.9974024000112,None,146.9974024000112,None,146.9974024000112,None,,,,,,,,,,,,,013,2022-05-11_17h33.59.064,Main,2022.1.1,60.20639962286481,
neutral,negative,2,k,k,,,,,1,13,31,16,,,,,,,,,,,,,prac,1,1,2,negative,neutral,k,k,1,0.7201511999592185,147.99766230001114,148.99992830003612,148.98080920008942,None,147.99766230001114,None,147.99766230001114,None,147.99766230001114,None,149.71622312008404,None,149.71622312008404,None,149.71622312008404,None,,,,,,,,,,,,,013,2022-05-11_17h33.59.064,Main,2022.1.1,60.20639962286481,
neutral,positive,2,k,k,,,,,1,14,32,13,,,,,,,,,,,,,prac,2,2,2,positive,neutral,k,k,1,1.0644445000216365,149.7205749999266,150.7332232000772,150.71658040001057,None,149.7205749999266,None,149.7205749999266,None,149.7205749999266,None,151.78294181996026,None,151.78294181996026,None,151.78294181996026,None,,,,,,,,,,,,,013,2022-05-11_17h33.59.064,Main,2022.1.1,60.20639962286481,
positive,neutral,2,l,j,,,,,1,15,33,17,,,,,,,,,,,,,prac,2,2,2,neutral,positive,j,j,1,0.7820123999845237,151.78609740012325,152.7998047999572,152.78320940001868,None,151.78609740012325,None,151.78609740012325,None,151.78609740012325,None,153.5662724199705,None,153.5662724199705,None,153.5662724199705,None,,,,,,,,,,,,,013,2022-05-11_17h33.59.064,Main,2022.1.1,60.20639962286481,
negative,neutral,1,j,l,,,,,1,16,34,3,,,,,,,,,,,,,prac,1,1,1,neutral,negative,l,l,1,0.7624864000827074,153.56952080014162,154.5831222999841,154.566440399969,None,153.56952080014162,None,153.56952080014162,None,153.56952080014162,None,155.33020002008416,None,155.33020002008416,None,155.33020002008416,None,,,,,,,,,,,,,013,2022-05-11_17h33.59.064,Main,2022.1.1,60.20639962286481,
neutral,neutral,2,k,k,,,,,1,17,35,10,,,,,,,,,,,,,prac,2,2,2,neutral,neutral,k,k,1,0.5655134001281112,155.33049189997837,156.33046890003607,156.33046890003607,None,155.33049189997837,None,155.33049189997837,None,155.33049189997837,None,156.89687312007882,None,156.89687312007882,None,156.89687312007882,None,,,,,,,,,,,,,013,2022-05-11_17h33.59.064,Main,2022.1.1,60.20639962286481,
,,,,,,,,,,,,,,,,,,,,,,,,,,,,,,,,,,,,,,,,,,,,,,,,,,,156.89718720014207,None,None,,,,,,,,,,013,2022-05-11_17h33.59.064,Main,2022.1.1,60.20639962286481,
,,,,,,,,,,,,,,,,,,,,,,,,,,,,,,,,,,,,,,,,,,,,,,,,,,,,,,0.43148148,-0.25185186,1,0,0,0.010800419840961695,None,,,013,2022-05-11_17h33.59.064,Main,2022.1.1,60.20639962286481,
positive,neutral,1,l,j,,,,,,,,,0,0,0,8,,,,,,,166.0135846999474,None,main,2,2,1,neutral,positive,j,j,1,1.6096777999773622,168.02338999998756,169.03280530008487,168.99953410006128,None,168.02338999998756,None,168.02338999998756,None,168.02338999998756,None,170.63275400013663,None,170.63275400013663,None,170.63275400013663,None,,,,,,,,,,,,,013,2022-05-11_17h33.59.064,Main,2022.1.1,60.20639962286481,
neutral,positive,1,k,k,,,,,,,,,0,1,1,4,,,,,,,,,main,2,2,1,positive,neutral,k,k,1,0.7366149998269975,171.63254200015217,172.63274929998443,172.61612370004877,None,171.63254200015217,None,171.63254200015217,None,171.63254200015217,None,173.36571001992561,None,173.36571001992561,None,173.36571001992561,None,,,,,,,,,,,,,013,2022-05-11_17h33.59.064,Main,2022.1.1,60.20639962286481,
negative,positive,1,j,l,,,,,,,,,0,2,2,6,,,,,,,,,main,1,1,1,positive,negative,l,l,1,0.9104294998105615,173.3738925999496,174.38267960003577,174.36607889994048,None,173.3738925999496,None,173.3738925999496,None,173.3738925999496,None,175.28012561993674,None,175.28012561993674,None,175.28012561993674,None,,,,,,,,,,,,,013,2022-05-11_17h33.59.064,Main,2022.1.1,60.20639962286481,
positive,positive,2,l,j,,,,,,,,,0,3,3,11,,,,,,,,,main,1,1,2,positive,positive,j,j,1,0.7313174000009894,175.28376629995182,176.29670389997773,176.28003800008446,None,175.28376629995182,None,175.28376629995182,None,175.28376629995182,None,177.01308042006568,None,177.01308042006568,None,177.01308042006568,None,,,,,,,,,,,,,013,2022-05-11_17h33.59.064,Main,2022.1.1,60.20639962286481,
neutral,positive,2,k,k,,,,,,,,,0,4,4,13,,,,,,,,,main,2,2,2,positive,neutral,k,k,1,0.6863003000617027,177.013372000074,178.01341659994796,178.01341659994796,None,177.013372000074,None,177.013372000074,None,177.013372000074,None,178.69754612012767,None,178.69754612012767,None,178.69754612012767,None,,,,,,,,,,,,,013,2022-05-11_17h33.59.064,Main,2022.1.1,60.20639962286481,
neutral,negative,1,k,k,,,,,,,,,0,5,5,7,,,,,,,,,main,2,2,1,negative,neutral,k,k,1,0.7789867999963462,178.70512369996868,179.71598590002395,179.69936099997722,None,178.70512369996868,None,178.70512369996868,None,178.70512369996868,None,180.4821597201284,None,180.4821597201284,None,180.4821597201284,None,,,,,,,,,,,,,013,2022-05-11_17h33.59.064,Main,2022.1.1,60.20639962286481,
negative,positive,2,j,l,,,,,,,,,0,6,6,15,,,,,,,,,main,2,2,2,positive,negative,l,l,1,0.7487830000463873,180.48874940001406,181.49925040011294,181.48257700004615,None,180.48874940001406,None,180.48874940001406,None,180.48874940001406,None,182.23223451999948,None,182.23223451999948,None,182.23223451999948,None,,,,,,,,,,,,,013,2022-05-11_17h33.59.064,Main,2022.1.1,60.20639962286481,
neutral,negative,2,k,k,,,,,,,,,0,7,7,16,,,,,,,,,main,2,2,2,negative,neutral,k,k,1,0.6518952997867018,182.23586130002514,183.24897670000792,183.23250039992854,None,182.23586130002514,None,182.23586130002514,None,182.23586130002514,None,183.88209892003798,None,183.88209892003798,None,183.88209892003798,None,,,,,,,,,,,,,013,2022-05-11_17h33.59.064,Main,2022.1.1,60.20639962286481,
neutral,neutral,1,k,k,,,,,,,,,0,8,8,1,,,,,,,,,main,1,1,1,neutral,neutral,k,k,1,0.6431658999063075,183.8923017999623,184.8990909999702,184.88247970002703,None,183.8923017999623,None,183.8923017999623,None,183.8923017999623,None,185.53206202001311,None,185.53206202001311,None,185.53206202001311,None,,,,,,,,,,,,,013,2022-05-11_17h33.59.064,Main,2022.1.1,60.20639962286481,
positive,negative,2,l,j,,,,,,,,,0,9,9,14,,,,,,,,,main,1,1,2,negative,positive,j,j,1,0.7618414000608027,185.5361296001356,186.54651580005884,186.5300682000816,None,185.5361296001356,None,185.5361296001356,None,185.5361296001356,None,187.2961722201202,None,187.2961722201202,None,187.2961722201202,None,,,,,,,,,,,,,013,2022-05-11_17h33.59.064,Main,2022.1.1,60.20639962286481,
negative,neutral,1,j,l,,,,,,,,,0,10,10,3,,,,,,,,,main,2,2,1,neutral,negative,l,l,1,0.815465799998492,187.29647719999775,188.29648190014996,188.29648190014996,None,187.29647719999775,None,187.29647719999775,None,187.29647719999775,None,189.11283652004786,None,189.11283652004786,None,189.11283652004786,None,,,,,,,,,,,,,013,2022-05-11_17h33.59.064,Main,2022.1.1,60.20639962286481,
positive,negative,1,l,j,,,,,,,,,0,11,11,5,,,,,,,,,main,2,2,1,negative,positive,j,j,1,0.6984984998125583,189.11383339995518,190.12981380010024,190.11313870013691,None,189.11383339995518,None,189.11383339995518,None,189.11383339995518,None,190.81315381997265,None,190.81315381997265,None,190.81315381997265,None,,,,,,,,,,,,,013,2022-05-11_17h33.59.064,Main,2022.1.1,60.20639962286481,
positive,positive,1,l,j,,,,,,,,,0,12,12,2,,,,,,,,,main,1,1,1,positive,positive,j,j,1,0.6981363999657333,190.81702580000274,191.8323314001318,191.81570799998008,None,190.81702580000274,None,190.81702580000274,None,190.81702580000274,None,192.5131173199974,None,192.5131173199974,None,192.5131173199974,None,,,,,,,,,,,,,013,2022-05-11_17h33.59.064,Main,2022.1.1,60.20639962286481,
negative,neutral,2,j,l,,,,,,,,,0,13,13,12,,,,,,,,,main,2,2,2,neutral,negative,l,l,1,0.7533681998029351,192.51682889997028,193.53224890003912,193.51566740009002,None,192.51682889997028,None,192.51682889997028,None,192.51682889997028,None,194.2652164200321,None,194.2652164200321,None,194.2652164200321,None,,,,,,,,,,,,,013,2022-05-11_17h33.59.064,Main,2022.1.1,60.20639962286481,
positive,neutral,2,l,j,,,,,,,,,0,14,14,17,,,,,,,,,main,2,2,2,neutral,positive,j,j,1,0.7428431999869645,194.27310440014116,195.2799885000568,195.2656724001281,None,194.27310440014116,None,194.27310440014116,None,194.27310440014116,None,196.0129458199721,None,196.0129458199721,None,196.0129458199721,None,,,,,,,,,,,,,013,2022-05-11_17h33.59.064,Main,2022.1.1,60.20639962286481,
negative,negative,1,j,l,,,,,,,,,0,15,15,0,,,,,,,,,main,2,2,1,negative,negative,l,l,1,0.9980756998993456,196.01941700000316,197.03213990014046,197.01552910008468,None,196.01941700000316,None,196.01941700000316,None,196.01941700000316,None,198.01261522001587,None,198.01261522001587,None,198.01261522001587,None,,,,,,,,,,,,,013,2022-05-11_17h33.59.064,Main,2022.1.1,60.20639962286481,
neutral,neutral,2,k,k,,,,,,,,,0,16,16,10,,,,,,,,,main,2,2,2,neutral,neutral,k,k,1,0.8149253998417407,198.01293550012633,199.01291649998166,199.01291649998166,None,198.01293550012633,None,198.01293550012633,None,198.01293550012633,None,199.82931342008524,None,199.82931342008524,None,199.82931342008524,None,,,,,,,,,,,,,013,2022-05-11_17h33.59.064,Main,2022.1.1,60.20639962286481,
negative,negative,2,j,l,,,,,,,,,0,17,17,9,,,,,,,,,main,1,1,2,negative,negative,l,l,1,0.9323998000472784,199.83354400005192,200.84871369996108,200.83217269997112,None,199.83354400005192,None,199.83354400005192,None,199.83354400005192,None,201.76316232010723,None,201.76316232010723,None,201.76316232010723,None,,,,,,,,,,,,,013,2022-05-11_17h33.59.064,Main,2022.1.1,60.20639962286481,
positive,negative,1,l,j,,,,,,,,,1,0,18,5,,,,,,,,,main,1,1,1,negative,positive,j,j,1,1.054962599882856,201.76689850003459,202.7821478000842,202.76493280008435,None,201.76689850003459,None,201.76689850003459,None,201.76689850003459,None,203.81575121995994,None,203.81575121995994,None,203.81575121995994,None,,,,,,,,,,,,,013,2022-05-11_17h33.59.064,Main,2022.1.1,60.20639962286481,
negative,positive,2,j,l,,,,,,,,,1,1,19,15,,,,,,,,,main,2,2,2,positive,negative,l,l,1,0.8094525998458266,203.82651900011115,204.83238050015643,204.81541240005754,None,203.82651900011115,None,203.82651900011115,None,203.82651900011115,None,205.631674520066,None,205.631674520066,None,205.631674520066,None,,,,,,,,,,,,,013,2022-05-11_17h33.59.064,Main,2022.1.1,60.20639962286481,
neutral,neutral,2,k,k,,,,,,,,,1,2,20,10,,,,,,,,,main,2,2,2,neutral,neutral,k,k,1,0.5982423000968993,205.63507469999604,206.64670159993693,206.63213060004637,None,205.63507469999604,None,205.63507469999604,None,205.63507469999604,None,207.23163581998088,None,207.23163581998088,None,207.23163581998088,None,,,,,,,,,,,,,013,2022-05-11_17h33.59.064,Main,2022.1.1,60.20639962286481,
negative,negative,1,j,l,,,,,,,,,1,3,21,0,,,,,,,,,main,2,2,1,negative,negative,l,l,1,0.8640877001453191,207.23499740008265,208.24600689997897,208.2293573000934,None,207.23499740008265,None,207.23499740008265,None,207.23499740008265,None,209.09609671994113,None,209.09609671994113,None,209.09609671994113,None,,,,,,,,,,,,,013,2022-05-11_17h33.59.064,Main,2022.1.1,60.20639962286481,
positive,neutral,2,l,j,,,,,,,,,1,4,22,17,,,,,,,,,main,1,1,2,neutral,positive,j,j,1,0.7966980999335647,209.09749860013835,210.11271480005234,210.09635780006647,None,209.09749860013835,None,209.09749860013835,None,209.09749860013835,None,210.8957330201287,None,210.8957330201287,None,210.8957330201287,None,,,,,,,,,,,,,013,2022-05-11_17h33.59.064,Main,2022.1.1,60.20639962286481,
positive,negative,2,l,j,,,,,,,,,1,5,23,14,,,,,,,,,main,1,1,2,negative,positive,j,j,1,0.6677155999932438,210.8992401000578,211.89862970006652,211.89862970006652,None,210.8992401000578,None,210.8992401000578,None,210.8992401000578,None,212.5648947200738,None,212.5648947200738,None,212.5648947200738,None,,,,,,,,,,,,,013,2022-05-11_17h33.59.064,Main,2022.1.1,60.20639962286481,
neutral,positive,2,k,k,,,,,,,,,1,6,24,13,,,,,,,,,main,2,2,2,positive,neutral,k,k,1,0.7151478000450879,212.56846500001848,213.57989950012416,213.5652560000308,None,212.56846500001848,None,212.56846500001848,None,212.56846500001848,None,214.28161282008514,None,214.28161282008514,None,214.28161282008514,None,,,,,,,,,,,,,013,2022-05-11_17h33.59.064,Main,2022.1.1,60.20639962286481,
neutral,negative,2,k,k,,,,,,,,,1,7,25,16,,,,,,,,,main,1,1,2,negative,neutral,k,k,1,0.6969432001933455,214.28485679998994,215.29850460006855,215.2793912999332,None,214.28485679998994,None,214.28485679998994,None,214.28485679998994,None,215.97927112001926,None,215.97927112001926,None,215.97927112001926,None,,,,,,,,,,,,,013,2022-05-11_17h33.59.064,Main,2022.1.1,60.20639962286481,
positive,neutral,1,l,j,,,,,,,,,1,8,26,8,,,,,,,,,main,1,1,1,neutral,positive,j,j,1,1.0806386999320239,215.98357130005024,216.99649580009282,216.97998509998433,None,215.98357130005024,None,215.98357130005024,None,215.98357130005024,None,218.0625581199769,None,218.0625581199769,None,218.0625581199769,None,,,,,,,,,,,,,013,2022-05-11_17h33.59.064,Main,2022.1.1,60.20639962286481,
neutral,positive,1,k,k,,,,,,,,,1,9,27,4,,,,,,,,,main,1,1,1,positive,neutral,k,k,1,0.7148535000160336,218.06621189997531,219.0795051001478,219.06248720013537,None,218.06621189997531,None,218.06621189997531,None,218.06621189997531,None,219.77883202009835,None,219.77883202009835,None,219.77883202009835,None,,,,,,,,,,,,,013,2022-05-11_17h33.59.064,Main,2022.1.1,60.20639962286481,
neutral,negative,1,k,k,,,,,,,,,1,10,28,7,,,,,,,,,main,2,2,1,negative,neutral,k,k,1,0.7013163000810891,219.77942840009928,220.77948280004784,220.77948280004784,None,219.77942840009928,None,219.77942840009928,None,219.77942840009928,None,221.4788627199363,None,221.4788627199363,None,221.4788627199363,None,,,,,,,,,,,,,013,2022-05-11_17h33.59.064,Main,2022.1.1,60.20639962286481,
negative,neutral,1,j,l,,,,,,,,,1,11,29,3,,,,,,,,,main,2,2,1,neutral,negative,l,l,1,0.7784826999995857,221.4856235999614,222.49833860015497,222.48172680009156,None,221.4856235999614,None,221.4856235999614,None,221.4856235999614,None,223.2623978199903,None,223.2623978199903,None,223.2623978199903,None,,,,,,,,,,,,,013,2022-05-11_17h33.59.064,Main,2022.1.1,60.20639962286481,
positive,positive,2,l,j,,,,,,,,,1,12,30,11,,,,,,,,,main,2,2,2,positive,positive,j,j,1,0.8988185999915004,223.2661650001537,224.28160480014049,224.26501350011677,None,223.2661650001537,None,223.2661650001537,None,223.2661650001537,None,225.1621975201182,None,225.1621975201182,None,225.1621975201182,None,,,,,,,,,,,,,013,2022-05-11_17h33.59.064,Main,2022.1.1,60.20639962286481,
negative,negative,2,j,l,,,,,,,,,1,13,31,9,,,,,,,,,main,2,2,2,negative,negative,l,l,1,0.8812575999181718,225.16910520009696,226.18147299997509,226.16496680001728,None,225.16910520009696,None,225.16910520009696,None,225.16910520009696,None,227.0456695201341,None,227.0456695201341,None,227.0456695201341,None,,,,,,,,,,,,,013,2022-05-11_17h33.59.064,Main,2022.1.1,60.20639962286481,
positive,positive,1,l,j,,,,,,,,,1,14,32,2,,,,,,,,,main,1,1,1,positive,positive,j,j,1,1.047965900041163,227.04903310001828,228.0626131000463,228.0482362001203,None,227.04903310001828,None,227.04903310001828,None,227.04903310001828,None,229.0952813200187,None,229.0952813200187,None,229.0952813200187,None,,,,,,,,,,,,,013,2022-05-11_17h33.59.064,Main,2022.1.1,60.20639962286481,
negative,positive,1,j,l,,,,,,,,,1,15,33,6,,,,,,,,,main,2,2,1,positive,negative,l,l,1,0.9145179998595268,229.09618870005943,230.09555600001477,230.09555600001477,None,229.09618870005943,None,229.09618870005943,None,229.09618870005943,None,231.01192792002112,None,231.01192792002112,None,231.01192792002112,None,,,,,,,,,,,,,013,2022-05-11_17h33.59.064,Main,2022.1.1,60.20639962286481,
neutral,neutral,1,k,k,,,,,,,,,1,16,34,1,,,,,,,,,main,2,2,1,neutral,neutral,k,k,1,0.8485697000287473,231.01236249995418,232.0122502001468,232.0122502001468,None,231.01236249995418,None,231.01236249995418,None,231.01236249995418,None,232.86225072001108,None,232.86225072001108,None,232.86225072001108,None,,,,,,,,,,,,,013,2022-05-11_17h33.59.064,Main,2022.1.1,60.20639962286481,
negative,neutral,2,j,l,,,,,,,,,1,17,35,12,,,,,,,,,main,2,2,2,neutral,negative,l,l,1,0.7675050001125783,232.86579130007885,233.88139969995245,233.86479700007476,None,232.86579130007885,None,232.86579130007885,None,232.86579130007885,None,234.63116662004032,None,234.63116662004032,None,234.63116662004032,None,,,,,,,,,,,,,013,2022-05-11_17h33.59.064,Main,2022.1.1,60.20639962286481,
negative,neutral,2,j,l,,,,,,,,,2,0,36,12,,,,,,,,,main,1,1,2,neutral,negative,l,l,1,0.6825475001242012,234.63464700011536,235.64800289995037,235.6314563001506,None,234.63464700011536,None,234.63464700011536,None,234.63464700011536,None,236.3152799199801,None,236.3152799199801,None,236.3152799199801,None,,,,,,,,,,,,,013,2022-05-11_17h33.59.064,Main,2022.1.1,60.20639962286481,
positive,positive,1,l,j,,,,,,,,,2,1,37,2,,,,,,,,,main,2,2,1,positive,positive,j,j,1,0.9976315000094473,236.319295699941,237.33136010007001,237.31467250012793,None,236.319295699941,None,236.319295699941,None,236.319295699941,None,238.3143027199898,None,238.3143027199898,None,238.3143027199898,None,,,,,,,,,,,,,013,2022-05-11_17h33.59.064,Main,2022.1.1,60.20639962286481,
negative,neutral,1,j,l,,,,,,,,,2,2,38,3,,,,,,,,,main,1,1,1,neutral,negative,l,l,1,0.7461322001181543,238.3177775000222,239.33122389996424,239.314702300122,None,238.3177775000222,None,238.3177775000222,None,238.3177775000222,None,240.06205012006686,None,240.06205012006686,None,240.06205012006686,None,,,,,,,,,,,,,013,2022-05-11_17h33.59.064,Main,2022.1.1,60.20639962286481,
neutral,neutral,2,k,k,,,,,,,,,2,3,39,10,,,,,,,,,main,1,1,2,neutral,neutral,k,k,1,0.6656404999084771,240.07298090006225,241.0786685999483,241.06199429999106,None,240.07298090006225,None,240.07298090006225,None,240.07298090006225,None,241.728346620081,None,241.728346620081,None,241.728346620081,None,,,,,,,,,,,,,013,2022-05-11_17h33.59.064,Main,2022.1.1,60.20639962286481,
negative,positive,2,j,l,,,,,,,,,2,4,40,15,,,,,,,,,main,2,2,2,positive,negative,l,l,1,0.7320966001134366,241.72938719997182,242.731265099952,242.731265099952,None,241.72938719997182,None,241.72938719997182,None,241.72938719997182,None,243.4618567201309,None,243.4618567201309,None,243.4618567201309,None,,,,,,,,,,,,,013,2022-05-11_17h33.59.064,Main,2022.1.1,60.20639962286481,
neutral,negative,1,k,k,,,,,,,,,2,5,41,7,,,,,,,,,main,1,1,1,negative,neutral,k,k,1,0.8496995000168681,243.46896250010468,244.48117520008236,244.46454020007513,None,243.46896250010468,None,243.46896250010468,None,243.46896250010468,None,245.31424472001382,None,245.31424472001382,None,245.31424472001382,None,,,,,,,,,,,,,013,2022-05-11_17h33.59.064,Main,2022.1.1,60.20639962286481,
positive,neutral,1,l,j,,,,,,,,,2,6,42,8,,,,,,,,,main,2,2,1,neutral,positive,j,j,1,0.7460415000095963,245.31768460012972,246.33116600010544,246.3145719000604,None,245.31768460012972,None,245.31768460012972,None,245.31768460012972,None,247.0619064200204,None,247.0619064200204,None,247.0619064200204,None,,,,,,,,,,,,,013,2022-05-11_17h33.59.064,Main,2022.1.1,60.20639962286481,
positive,negative,2,l,j,,,,,,,,,2,7,43,14,,,,,,,,,main,2,2,2,negative,positive,j,j,1,0.6149871000088751,247.06547040003352,248.0811392001342,248.06442039995454,None,247.06547040003352,None,247.06547040003352,None,247.06547040003352,None,248.67824521996081,None,248.67824521996081,None,248.67824521996081,None,,,,,,,,,,,,,013,2022-05-11_17h33.59.064,Main,2022.1.1,60.20639962286481,
negative,negative,1,j,l,,,,,,,,,2,8,44,0,,,,,,,,,main,1,1,1,negative,negative,l,l,1,1.0652487999759614,248.6823458999861,249.69547750009224,249.68109450000338,None,248.6823458999861,None,248.6823458999861,None,248.6823458999861,None,250.74514972008765,None,250.74514972008765,None,250.74514972008765,None,,,,,,,,,,,,,013,2022-05-11_17h33.59.064,Main,2022.1.1,60.20639962286481,
positive,positive,2,l,j,,,,,,,,,2,9,45,11,,,,,,,,,main,2,2,2,positive,positive,j,j,1,1.0978803997859359,250.7455498999916,251.74533840012737,251.74533840012737,None,250.7455498999916,None,250.7455498999916,None,250.7455498999916,None,252.84480361999013,None,252.84480361999013,None,252.84480361999013,None,,,,,,,,,,,,,013,2022-05-11_17h33.59.064,Main,2022.1.1,60.20639962286481,
positive,neutral,2,l,j,,,,,,,,,2,10,46,17,,,,,,,,,main,2,2,2,neutral,positive,j,j,1,0.6343571001198143,252.84934539999813,253.86441399995238,253.8477982999757,None,252.84934539999813,None,252.84934539999813,None,252.84934539999813,None,254.480608420074,None,254.480608420074,None,254.480608420074,None,,,,,,,,,,,,,013,2022-05-11_17h33.59.064,Main,2022.1.1,60.20639962286481,
positive,negative,1,l,j,,,,,,,,,2,11,47,5,,,,,,,,,main,1,1,1,negative,positive,j,j,1,0.7487525001633912,254.4840436000377,255.49566329992376,255.4790821999777,None,254.4840436000377,None,254.4840436000377,None,254.4840436000377,None,256.23089592005124,None,256.23089592005124,None,256.23089592005124,None,,,,,,,,,,,,,013,2022-05-11_17h33.59.064,Main,2022.1.1,60.20639962286481,
neutral,neutral,1,k,k,,,,,,,,,2,12,48,1,,,,,,,,,main,1,1,1,neutral,neutral,k,k,1,0.6790106000844389,256.23705200012773,257.24745299993083,257.23101039999165,None,256.23705200012773,None,256.23705200012773,None,256.23705200012773,None,257.91194241992196,None,257.91194241992196,None,257.91194241992196,None,,,,,,,,,,,,,013,2022-05-11_17h33.59.064,Main,2022.1.1,60.20639962286481,
negative,negative,2,j,l,,,,,,,,,2,13,49,9,,,,,,,,,main,2,2,2,negative,negative,l,l,1,0.7646561998408288,257.9168809999246,258.9308339001145,258.9143511999864,None,257.9168809999246,None,257.9168809999246,None,257.9168809999246,None,259.6783714199904,None,259.6783714199904,None,259.6783714199904,None,,,,,,,,,,,,,013,2022-05-11_17h33.59.064,Main,2022.1.1,60.20639962286481,
neutral,positive,2,k,k,,,,,,,,,2,14,50,13,,,,,,,,,main,2,2,2,positive,neutral,k,k,1,0.9644606001675129,259.6975593001116,260.71070010005496,260.6728106001392,None,259.6975593001116,None,259.6975593001116,None,259.6975593001116,None,261.6445717200171,None,261.6445717200171,None,261.6445717200171,None,,,,,,,,,,,,,013,2022-05-11_17h33.59.064,Main,2022.1.1,60.20639962286481,
negative,positive,1,j,l,,,,,,,,,2,15,51,6,,,,,,,,,main,2,2,1,positive,negative,l,l,1,0.7176748001947999,261.64510890003294,262.64491189992987,262.64491189992987,None,261.64510890003294,None,261.64510890003294,None,261.64510890003294,None,263.3637525200378,None,263.3637525200378,None,263.3637525200378,None,,,,,,,,,,,,,013,2022-05-11_17h33.59.064,Main,2022.1.1,60.20639962286481,
neutral,negative,2,k,k,,,,,,,,,2,16,52,16,,,,,,,,,main,1,1,2,negative,neutral,k,k,1,0.6293154000304639,263.36695479997434,264.3808063000906,264.36421720008366,None,263.36695479997434,None,263.36695479997434,None,263.36695479997434,None,264.99487641998564,None,264.99487641998564,None,264.99487641998564,None,,,,,,,,,,,,,013,2022-05-11_17h33.59.064,Main,2022.1.1,60.20639962286481,
neutral,positive,1,k,k,,,,,,,,,2,17,53,4,,,,,,,,,main,2,2,1,positive,neutral,k,k,1,0.597721999976784,264.9992988000158,266.01409770012833,265.9975040999707,None,264.9992988000158,None,264.9992988000158,None,264.9992988000158,None,266.594834920112,None,266.594834920112,None,266.594834920112,None,,,,,,,,,,,,,013,2022-05-11_17h33.59.064,Main,2022.1.1,60.20639962286481,
neutral,positive,2,k,k,,,,,,,,,3,0,54,13,,,,,,,,,main,1,1,2,positive,neutral,k,k,1,0.6003733000252396,266.59908460010774,267.61400460009463,267.59743229998276,None,266.59908460010774,None,266.59908460010774,None,266.59908460010774,None,268.1969772201031,None,268.1969772201031,None,268.1969772201031,None,,,,,,,,,,,,,013,2022-05-11_17h33.59.064,Main,2022.1.1,60.20639962286481,
negative,negative,2,j,l,,,,,,,,,3,1,55,9,,,,,,,,,main,1,1,2,negative,negative,l,l,1,0.6455213001463562,268.2011675001122,269.2139191001188,269.19730360014364,None,268.2011675001122,None,268.2011675001122,None,268.2011675001122,None,269.8448455199599,None,269.8448455199599,None,269.8448455199599,None,,,,,,,,,,,,,013,2022-05-11_17h33.59.064,Main,2022.1.1,60.20639962286481,
neutral,negative,1,k,k,,,,,,,,,3,2,56,7,,,,,,,,,main,2,2,1,negative,neutral,k,k,1,0.6316382000222802,269.8485455000773,270.8639136001002,270.8473054000642,None,269.8485455000773,None,269.8485455000773,None,269.8485455000773,None,271.4780417199712,None,271.4780417199712,None,271.4780417199712,None,,,,,,,,,,,,,013,2022-05-11_17h33.59.064,Main,2022.1.1,60.20639962286481,
positive,positive,1,l,j,,,,,,,,,3,3,57,2,,,,,,,,,main,2,2,1,positive,positive,j,j,1,0.6982660999055952,271.48177190008573,272.49464599997737,272.47803510003723,None,271.48177190008573,None,271.48177190008573,None,271.48177190008573,None,273.1776819199789,None,273.1776819199789,None,273.1776819199789,None,,,,,,,,,,,,,013,2022-05-11_17h33.59.064,Main,2022.1.1,60.20639962286481,
negative,neutral,1,j,l,,,,,,,,,3,4,58,3,,,,,,,,,main,2,2,1,neutral,negative,l,l,1,0.7163380000274628,273.17797690001316,274.17796150012873,274.17796150012873,None,273.17797690001316,None,273.17797690001316,None,273.17797690001316,None,274.8957494200207,None,274.8957494200207,None,274.8957494200207,None,,,,,,,,,,,,,013,2022-05-11_17h33.59.064,Main,2022.1.1,60.20639962286481,
positive,negative,1,l,j,,,,,,,,,3,5,59,5,,,,,,,,,main,1,1,1,negative,positive,j,j,1,0.6994064000900835,274.901886299951,275.9138450000901,275.8974721999839,None,274.901886299951,None,274.901886299951,None,274.901886299951,None,276.5969061200507,None,276.5969061200507,None,276.5969061200507,None,,,,,,,,,,,,,013,2022-05-11_17h33.59.064,Main,2022.1.1,60.20639962286481,
positive,negative,2,l,j,,,,,,,,,3,6,60,14,,,,,,,,,main,1,1,2,negative,positive,j,j,1,0.6973262999672443,276.6011570999399,277.6137830000371,277.59522900008596,None,276.6011570999399,None,276.6011570999399,None,276.6011570999399,None,278.2967439199332,None,278.2967439199332,None,278.2967439199332,None,,,,,,,,,,,,,013,2022-05-11_17h33.59.064,Main,2022.1.1,60.20639962286481,
neutral,neutral,1,k,k,,,,,,,,,3,7,61,1,,,,,,,,,main,2,2,1,neutral,neutral,k,k,1,0.6153233998920768,278.3007313001435,279.3137676001061,279.29718019999564,None,278.3007313001435,None,278.3007313001435,None,278.3007313001435,None,279.91339942007323,None,279.91339942007323,None,279.91339942007323,None,,,,,,,,,,,,,013,2022-05-11_17h33.59.064,Main,2022.1.1,60.20639962286481,
negative,positive,2,j,l,,,,,,,,,3,8,62,15,,,,,,,,,main,1,1,2,positive,negative,l,l,1,0.5961841999087483,279.91691919998266,280.9304490000941,280.913777400041,None,279.91691919998266,None,279.91691919998266,None,279.91691919998266,None,281.51144732008686,None,281.51144732008686,None,281.51144732008686,None,,,,,,,,,,,,,013,2022-05-11_17h33.59.064,Main,2022.1.1,60.20639962286481,
negative,positive,1,j,l,,,,,,,,,3,9,63,6,,,,,,,,,main,1,1,1,positive,negative,l,l,1,1.4976772000081837,281.51623710012063,282.5277919000946,282.5111249999609,None,281.51623710012063,None,281.51623710012063,None,281.51623710012063,None,284.01082532000726,None,284.01082532000726,None,284.01082532000726,None,,,,,,,,,,,,,013,2022-05-11_17h33.59.064,Main,2022.1.1,60.20639962286481,
negative,neutral,2,j,l,,,,,,,,,3,10,64,12,,,,,,,,,main,1,1,2,neutral,negative,l,l,1,0.9484325000084937,284.01509190001525,285.03034930001013,285.0137857000809,None,284.01509190001525,None,284.01509190001525,None,284.01509190001525,None,285.96077272002583,None,285.96077272002583,None,285.96077272002583,None,,,,,,,,,,,,,013,2022-05-11_17h33.59.064,Main,2022.1.1,60.20639962286481,
neutral,negative,2,k,k,,,,,,,,,3,11,65,16,,,,,,,,,main,2,2,2,negative,neutral,k,k,1,0.6678329000715166,285.9641229000408,286.9783061000053,286.9637403001543,None,285.9641229000408,None,285.9641229000408,None,285.9641229000408,None,287.6300492201466,None,287.6300492201466,None,287.6300492201466,None,,,,,,,,,,,,,013,2022-05-11_17h33.59.064,Main,2022.1.1,60.20639962286481,
positive,neutral,1,l,j,,,,,,,,,3,12,66,8,,,,,,,,,main,2,2,1,neutral,positive,j,j,1,0.7148717998061329,287.6337780000176,288.6468585000839,288.6302877999842,None,287.6337780000176,None,287.6337780000176,None,287.6337780000176,None,289.34663061993194,None,289.34663061993194,None,289.34663061993194,None,,,,,,,,,,,,,013,2022-05-11_17h33.59.064,Main,2022.1.1,60.20639962286481,
positive,positive,2,l,j,,,,,,,,,3,13,67,11,,,,,,,,,main,2,2,2,positive,positive,j,j,1,0.6286770000588149,289.35219060000964,290.36350570013747,290.3468341000844,None,289.35219060000964,None,289.35219060000964,None,289.35219060000964,None,290.97749391999093,None,290.97749391999093,None,290.97749391999093,None,,,,,,,,,,,,,013,2022-05-11_17h33.59.064,Main,2022.1.1,60.20639962286481,
negative,negative,1,j,l,,,,,,,,,3,14,68,0,,,,,,,,,main,2,2,1,negative,negative,l,l,1,0.7057572000194341,290.98406439996324,291.9968529001344,291.9782908000052,None,290.98406439996324,None,290.98406439996324,None,290.98406439996324,None,292.6848614200484,None,292.6848614200484,None,292.6848614200484,None,,,,,,,,,,,,,013,2022-05-11_17h33.59.064,Main,2022.1.1,60.20639962286481,
positive,neutral,2,l,j,,,,,,,,,3,15,69,17,,,,,,,,,main,1,1,2,neutral,positive,j,j,1,0.8400234000291675,292.69703550008126,293.7108819000423,293.6775508001447,None,292.69703550008126,None,292.69703550008126,None,292.69703550008126,None,294.52721251999026,None,294.52721251999026,None,294.52721251999026,None,,,,,,,,,,,,,013,2022-05-11_17h33.59.064,Main,2022.1.1,60.20639962286481,
neutral,positive,1,k,k,,,,,,,,,3,16,70,4,,,,,,,,,main,2,2,1,positive,neutral,k,k,1,0.6320555000565946,294.52750950003974,295.52753690001555,295.52753690001555,None,294.52750950003974,None,294.52750950003974,None,294.52750950003974,None,296.1608699200209,None,296.1608699200209,None,296.1608699200209,None,,,,,,,,,,,,,013,2022-05-11_17h33.59.064,Main,2022.1.1,60.20639962286481,
neutral,neutral,2,k,k,,,,,,,,,3,17,71,10,,,,,,,,,main,1,1,2,neutral,neutral,k,k,1,0.582941000116989,296.1656021999661,297.18007729994133,297.16349370009266,None,296.1656021999661,None,296.1656021999661,None,296.1656021999661,None,297.7463409200776,None,297.7463409200776,None,297.7463409200776,None,,,,,,,,,,,,,013,2022-05-11_17h33.59.064,Main,2022.1.1,60.20639962286481,
negative,positive,2,j,l,,,,,,,,,4,0,72,15,,,,,,,,,main,2,2,2,positive,negative,l,l,1,0.8131063000764698,297.7496744999662,298.76332250004634,298.7467225000728,None,297.7496744999662,None,297.7496744999662,None,297.7496744999662,None,299.56089221998116,None,299.56089221998116,None,299.56089221998116,None,,,,,,,,,,,,,013,2022-05-11_17h33.59.064,Main,2022.1.1,60.20639962286481,
positive,neutral,2,l,j,,,,,,,,,4,1,73,17,,,,,,,,,main,1,1,2,neutral,positive,j,j,1,0.6313882998656482,299.5665013000835,300.57998279994354,300.56335519999266,None,299.5665013000835,None,299.5665013000835,None,299.5665013000835,None,301.1937864200212,None,301.1937864200212,None,301.1937864200212,None,,,,,,,,,,,,,013,2022-05-11_17h33.59.064,Main,2022.1.1,60.20639962286481,
positive,negative,2,l,j,,,,,,,,,4,2,74,14,,,,,,,,,main,1,1,2,negative,positive,j,j,1,0.6340187001042068,301.19744349992834,302.2132483001333,302.1966657000594,None,301.19744349992834,None,301.19744349992834,None,301.19744349992834,None,302.82960822000166,None,302.82960822000166,None,302.82960822000166,None,,,,,,,,,,,,,013,2022-05-11_17h33.59.064,Main,2022.1.1,60.20639962286481,
neutral,negative,2,k,k,,,,,,,,,4,3,75,16,,,,,,,,,main,2,2,2,negative,neutral,k,k,1,1.2950476000551134,302.8336652999278,303.84398479992524,303.82731429999694,None,302.8336652999278,None,302.8336652999278,None,302.8336652999278,None,305.1270275200717,None,305.1270275200717,None,305.1270275200717,None,,,,,,,,,,,,,013,2022-05-11_17h33.59.064,Main,2022.1.1,60.20639962286481,
negative,neutral,2,j,l,,,,,,,,,4,4,76,12,,,,,,,,,main,1,1,2,neutral,negative,l,l,1,0.765529700089246,305.13044059998356,306.12987109995447,306.12987109995447,None,305.13044059998356,None,305.13044059998356,None,305.13044059998356,None,306.8939616201445,None,306.8939616201445,None,306.8939616201445,None,,,,,,,,,,,,,013,2022-05-11_17h33.59.064,Main,2022.1.1,60.20639962286481,
positive,negative,1,l,j,,,,,,,,,4,5,77,5,,,,,,,,,main,1,1,1,negative,positive,j,j,1,0.8009368998464197,306.8975263000466,307.91313709993847,307.89657640014775,None,306.8975263000466,None,306.8975263000466,None,306.8975263000466,None,308.696141320141,None,308.696141320141,None,308.696141320141,None,,,,,,,,,,,,,013,2022-05-11_17h33.59.064,Main,2022.1.1,60.20639962286481,
positive,positive,1,l,j,,,,,,,,,4,6,78,2,,,,,,,,,main,2,2,1,positive,positive,j,j,1,0.5956722002010792,308.69997560000047,309.7131185999606,309.6965330000967,None,308.69997560000047,None,308.69997560000047,None,308.69997560000047,None,310.2935699199792,None,310.2935699199792,None,310.2935699199792,None,,,,,,,,,,,,,013,2022-05-11_17h33.59.064,Main,2022.1.1,60.20639962286481,
positive,positive,2,l,j,,,,,,,,,4,7,79,11,,,,,,,,,main,1,1,2,positive,positive,j,j,1,0.5985310000833124,310.2974501999561,311.3108533001505,311.2942942001391,None,310.2974501999561,None,310.2974501999561,None,310.2974501999561,None,311.8938263199292,None,311.8938263199292,None,311.8938263199292,None,,,,,,,,,,,,,013,2022-05-11_17h33.59.064,Main,2022.1.1,60.20639962286481,
neutral,neutral,1,k,k,,,,,,,,,4,8,80,1,,,,,,,,,main,2,2,1,neutral,neutral,k,k,1,0.6649561000522226,311.8975754000712,312.9130235000048,312.8964531000238,None,311.8975754000712,None,311.8975754000712,None,311.8975754000712,None,313.5604784200899,None,313.5604784200899,None,313.5604784200899,None,,,,,,,,,,,,,013,2022-05-11_17h33.59.064,Main,2022.1.1,60.20639962286481,
negative,negative,1,j,l,,,,,,,,,4,9,81,0,,,,,,,,,main,2,2,1,negative,negative,l,l,1,0.6814908999949694,313.56426730006933,314.5770753000397,314.5604038001038,None,313.56426730006933,None,313.56426730006933,None,313.56426730006933,None,315.2434330199379,None,315.2434330199379,None,315.2434330199379,None,,,,,,,,,,,,,013,2022-05-11_17h33.59.064,Main,2022.1.1,60.20639962286481,
negative,negative,2,j,l,,,,,,,,,4,10,82,9,,,,,,,,,main,1,1,2,negative,negative,l,l,1,0.7176094001624733,315.24373019998893,316.2437597999815,316.2437597999815,None,315.24373019998893,None,315.24373019998893,None,315.24373019998893,None,316.96268751993773,None,316.96268751993773,None,316.96268751993773,None,,,,,,,,,,,,,013,2022-05-11_17h33.59.064,Main,2022.1.1,60.20639962286481,
neutral,neutral,2,k,k,,,,,,,,,4,11,83,10,,,,,,,,,main,2,2,2,neutral,neutral,k,k,1,0.5982257998548448,316.9661149000749,317.97963760001585,317.96305839996785,None,316.9661149000749,None,316.9661149000749,None,316.9661149000749,None,318.5625508200377,None,318.5625508200377,None,318.5625508200377,None,,,,,,,,,,,,,013,2022-05-11_17h33.59.064,Main,2022.1.1,60.20639962286481,
neutral,negative,1,k,k,,,,,,,,,4,12,84,7,,,,,,,,,main,2,2,1,negative,neutral,k,k,1,0.6794626000337303,318.56603149999864,319.57960560009815,319.56303260009736,None,318.56603149999864,None,318.56603149999864,None,318.56603149999864,None,320.24366871998643,None,320.24366871998643,None,320.24366871998643,None,,,,,,,,,,,,,013,2022-05-11_17h33.59.064,Main,2022.1.1,60.20639962286481,
positive,neutral,1,l,j,,,,,,,,,4,13,85,8,,,,,,,,,main,2,2,1,neutral,positive,j,j,1,0.5481745998840779,320.24750760011375,321.2629275000654,321.2462889000308,None,320.24750760011375,None,320.24750760011375,None,320.24750760011375,None,321.7936377200298,None,321.7936377200298,None,321.7936377200298,None,,,,,,,,,,,,,013,2022-05-11_17h33.59.064,Main,2022.1.1,60.20639962286481,
negative,neutral,1,j,l,,,,,,,,,4,14,86,3,,,,,,,,,main,2,2,1,neutral,negative,l,l,1,0.7818048000335693,321.7969921999611,322.8105914001353,322.7961979000829,None,321.7969921999611,None,321.7969921999611,None,321.7969921999611,None,323.57693382012656,None,323.57693382012656,None,323.57693382012656,None,,,,,,,,,,,,,013,2022-05-11_17h33.59.064,Main,2022.1.1,60.20639962286481,
neutral,positive,2,k,k,,,,,,,,,4,15,87,13,,,,,,,,,main,1,1,2,positive,neutral,k,k,1,1.2646000001113862,323.58124490012415,324.593528999947,324.57686590007506,None,323.58124490012415,None,323.58124490012415,None,323.58124490012415,None,325.8432132199872,None,325.8432132199872,None,325.8432132199872,None,,,,,,,,,,,,,013,2022-05-11_17h33.59.064,Main,2022.1.1,60.20639962286481,
neutral,positive,1,k,k,,,,,,,,,4,16,88,4,,,,,,,,,main,2,2,1,positive,neutral,k,k,1,0.6147731998935342,325.8442538001109,326.8461889999453,326.8461889999453,None,325.8442538001109,None,325.8442538001109,None,325.8442538001109,None,327.4601958199404,None,327.4601958199404,None,327.4601958199404,None,,,,,,,,,,,,,013,2022-05-11_17h33.59.064,Main,2022.1.1,60.20639962286481,
negative,positive,1,j,l,,,,,,,,,4,17,89,6,,,,,,,,,main,1,1,1,positive,negative,l,l,1,0.6987550999037921,327.46390840015374,328.47940910002217,328.46273860009387,None,327.46390840015374,None,327.46390840015374,None,327.46390840015374,None,329.1601372201461,None,329.1601372201461,None,329.1601372201461,None,,,,,,,,,,,,,013,2022-05-11_17h33.59.064,Main,2022.1.1,60.20639962286481,
positive,neutral,1,l,j,,,,,,,,,5,0,90,8,,,,,,,,,main,2,2,1,neutral,positive,j,j,1,0.8311300000641495,329.1643038999755,330.1793533000164,330.16270070010796,None,329.1643038999755,None,329.1643038999755,None,329.1643038999755,None,330.9934303200338,None,330.9934303200338,None,330.9934303200338,None,,,,,,,,,,,,,013,2022-05-11_17h33.59.064,Main,2022.1.1,60.20639962286481,
neutral,positive,2,k,k,,,,,,,,,5,1,91,13,,,,,,,,,main,1,1,2,positive,neutral,k,k,1,1.0819039999041706,330.99667580006644,332.0126245999709,331.9959946000017,None,330.99667580006644,None,330.99667580006644,None,330.99667580006644,None,333.0767166201025,None,333.0767166201025,None,333.0767166201025,None,,,,,,,,,,,,,013,2022-05-11_17h33.59.064,Main,2022.1.1,60.20639962286481,
negative,negative,2,j,l,,,,,,,,,5,2,92,9,,,,,,,,,main,1,1,2,negative,negative,l,l,1,0.6823782999999821,333.0801069000736,334.0958529000636,334.0792883001268,None,333.0801069000736,None,333.0801069000736,None,333.0801069000736,None,334.75990792000664,None,334.75990792000664,None,334.75990792000664,None,,,,,,,,,,,,,013,2022-05-11_17h33.59.064,Main,2022.1.1,60.20639962286481,
negative,neutral,1,j,l,,,,,,,,,5,3,93,3,,,,,,,,,main,2,2,1,neutral,negative,l,l,1,0.6307463000994176,334.7609491001349,335.7766154999845,335.75995700014755,None,334.7609491001349,None,334.7609491001349,None,334.7609491001349,None,336.3929823200218,None,336.3929823200218,None,336.3929823200218,None,,,,,,,,,,,,,013,2022-05-11_17h33.59.064,Main,2022.1.1,60.20639962286481,
positive,neutral,2,l,j,,,,,,,,,5,4,94,17,,,,,,,,,main,2,2,2,neutral,positive,j,j,1,0.7984452999662608,336.3935873999726,337.39330810005777,337.39330810005777,None,336.3935873999726,None,336.3935873999726,None,336.3935873999726,None,338.19297151998614,None,338.19297151998614,None,338.19297151998614,None,,,,,,,,,,,,,013,2022-05-11_17h33.59.064,Main,2022.1.1,60.20639962286481,
neutral,neutral,1,k,k,,,,,,,,,5,5,95,1,,,,,,,,,main,1,1,1,neutral,neutral,k,k,1,0.7043506000190973,338.1973357000388,339.2124690001365,339.1959061999805,None,338.1973357000388,None,338.1973357000388,None,338.1973357000388,None,339.8954531199764,None,339.8954531199764,None,339.8954531199764,None,,,,,,,,,,,,,013,2022-05-11_17h33.59.064,Main,2022.1.1,60.20639962286481,
positive,negative,2,l,j,,,,,,,,,5,6,96,14,,,,,,,,,main,2,2,2,negative,positive,j,j,1,0.7938310999888927,339.90575099992566,340.9124634999316,340.8958225999959,None,339.90575099992566,None,339.90575099992566,None,339.90575099992566,None,341.69510311991905,None,341.69510311991905,None,341.69510311991905,None,,,,,,,,,,,,,013,2022-05-11_17h33.59.064,Main,2022.1.1,60.20639962286481,
negative,positive,1,j,l,,,,,,,,,5,7,97,6,,,,,,,,,main,1,1,1,positive,negative,l,l,1,0.6796520999632776,341.70038729999214,342.7124606000725,342.6957897001412,None,341.70038729999214,None,341.70038729999214,None,341.70038729999214,None,343.37648152010513,None,343.37648152010513,None,343.37648152010513,None,,,,,,,,,,,,,013,2022-05-11_17h33.59.064,Main,2022.1.1,60.20639962286481,
negative,neutral,2,j,l,,,,,,,,,5,8,98,12,,,,,,,,,main,1,1,2,neutral,negative,l,l,1,0.6984448998700827,343.395688300021,344.3956530999858,344.37904200004414,None,343.395688300021,None,343.395688300021,None,343.395688300021,None,345.0765088199172,None,345.0765088199172,None,345.0765088199172,None,,,,,,,,,,,,,013,2022-05-11_17h33.59.064,Main,2022.1.1,60.20639962286481,
positive,negative,1,l,j,,,,,,,,,5,9,99,5,,,,,,,,,main,2,2,1,negative,positive,j,j,1,0.6316677001304924,345.0800942000933,346.09330690000206,346.0764206000604,None,345.0800942000933,None,345.0800942000933,None,345.0800942000933,None,346.70965161998754,None,346.70965161998754,None,346.70965161998754,None,,,,,,,,,,,,,013,2022-05-11_17h33.59.064,Main,2022.1.1,60.20639962286481,
positive,positive,1,l,j,,,,,,,,,5,10,100,2,,,,,,,,,main,2,2,1,positive,positive,j,j,1,0.6327247000299394,346.71050269994885,347.7264241001103,347.7097549000755,None,346.71050269994885,None,346.71050269994885,None,346.71050269994885,None,348.34306771992703,None,348.34306771992703,None,348.34306771992703,None,,,,,,,,,,,,,013,2022-05-11_17h33.59.064,Main,2022.1.1,60.20639962286481,
neutral,negative,2,k,k,,,,,,,,,5,11,101,16,,,,,,,,,main,1,1,2,negative,neutral,k,k,1,0.6473285998217762,348.3622384001501,349.362243300071,349.3456904999912,None,348.3622384001501,None,348.3622384001501,None,348.3622384001501,None,349.9930306201335,None,349.9930306201335,None,349.9930306201335,None,,,,,,,,,,,,,013,2022-05-11_17h33.59.064,Main,2022.1.1,60.20639962286481,
positive,positive,2,l,j,,,,,,,,,5,12,102,11,,,,,,,,,main,2,2,2,positive,positive,j,j,1,0.7651889000553638,349.9965731999837,351.00997400004417,350.9956181999296,None,349.9965731999837,None,349.9965731999837,None,349.9965731999837,None,351.75971722006796,None,351.75971722006796,None,351.75971722006796,None,,,,,,,,,,,,,013,2022-05-11_17h33.59.064,Main,2022.1.1,60.20639962286481,
neutral,negative,1,k,k,,,,,,,,,5,13,103,7,,,,,,,,,main,2,2,1,negative,neutral,k,k,1,0.731532100122422,351.7640333001036,352.77884820010513,352.7622629001271,None,351.7640333001036,None,351.7640333001036,None,351.7640333001036,None,353.4929421200417,None,353.4929421200417,None,353.4929421200417,None,,,,,,,,,,,,,013,2022-05-11_17h33.59.064,Main,2022.1.1,60.20639962286481,
neutral,positive,1,k,k,,,,,,,,,5,14,104,4,,,,,,,,,main,1,1,1,positive,neutral,k,k,1,0.6174244000576437,353.51213470008224,354.5121242001187,354.4955502001103,None,353.51213470008224,None,353.51213470008224,None,353.51213470008224,None,355.1117406199686,None,355.1117406199686,None,355.1117406199686,None,,,,,,,,,,,,,013,2022-05-11_17h33.59.064,Main,2022.1.1,60.20639962286481,
negative,positive,2,j,l,,,,,,,,,5,15,105,15,,,,,,,,,main,1,1,2,positive,negative,l,l,1,0.7792326998896897,355.1152266000863,356.126201499952,356.1095378000755,None,355.1152266000863,None,355.1152266000863,None,355.1152266000863,None,356.89253212008623,None,356.89253212008623,None,356.89253212008623,None,,,,,,,,,,,,,013,2022-05-11_17h33.59.064,Main,2022.1.1,60.20639962286481,
negative,negative,1,j,l,,,,,,,,,5,16,106,0,,,,,,,,,main,1,1,1,negative,negative,l,l,1,0.8655822998844087,356.8928312000353,357.8930784999393,357.8930784999393,None,356.8928312000353,None,356.8928312000353,None,356.8928312000353,None,358.7593636199366,None,358.7593636199366,None,358.7593636199366,None,,,,,,,,,,,,,013,2022-05-11_17h33.59.064,Main,2022.1.1,60.20639962286481,
neutral,neutral,2,k,k,,,,,,,,,5,17,107,10,,,,,,,,,main,2,2,2,neutral,neutral,k,k,1,0.6808330998755991,358.7714907999616,359.77906129998155,359.76220430014655,None,358.7714907999616,None,358.7714907999616,None,358.7714907999616,None,360.4428371201269,None,360.4428371201269,None,360.4428371201269,None,,,,,,,,,,,,,013,2022-05-11_17h33.59.064,Main,2022.1.1,60.20639962286481,
negative,positive,2,j,l,,,,,,,,,6,0,108,15,,,,,,,,,main,2,2,2,positive,negative,l,l,1,0.6808434999547899,360.4474084000103,361.46207190002315,361.4454686001409,None,360.4474084000103,None,360.4474084000103,None,360.4474084000103,None,362.12610422014257,None,362.12610422014257,None,362.12610422014257,None,,,,,,,,,,,,,013,2022-05-11_17h33.59.064,Main,2022.1.1,60.20639962286481,
positive,neutral,2,l,j,,,,,,,,,6,1,109,17,,,,,,,,,main,1,1,2,neutral,positive,j,j,1,0.8484475999139249,362.1294082000386,363.1433652001433,363.1286266001407,None,362.1294082000386,None,362.1294082000386,None,362.1294082000386,None,363.9761028199922,None,363.9761028199922,None,363.9761028199922,None,,,,,,,,,,,,,013,2022-05-11_17h33.59.064,Main,2022.1.1,60.20639962286481,
negative,neutral,2,j,l,,,,,,,,,6,2,110,12,,,,,,,,,main,1,1,2,neutral,negative,l,l,1,0.7984156999737024,363.97974029998295,364.99522659997456,364.9785703001544,None,363.97974029998295,None,363.97974029998295,None,363.97974029998295,None,365.7760300199501,None,365.7760300199501,None,365.7760300199501,None,,,,,,,,,,,,,013,2022-05-11_17h33.59.064,Main,2022.1.1,60.20639962286481,
positive,negative,2,l,j,,,,,,,,,6,3,111,14,,,,,,,,,main,1,1,2,negative,positive,j,j,1,0.7645962999667972,365.7796094000805,366.79518830007873,366.7786413000431,None,365.7796094000805,None,365.7796094000805,None,365.7796094000805,None,367.5422992199659,None,367.5422992199659,None,367.5422992199659,None,,,,,,,,,,,,,013,2022-05-11_17h33.59.064,Main,2022.1.1,60.20639962286481,
neutral,positive,1,k,k,,,,,,,,,6,4,112,4,,,,,,,,,main,2,2,1,positive,neutral,k,k,1,0.6157589999493212,367.542605600087,368.5428045000881,368.5428045000881,None,367.542605600087,None,367.542605600087,None,367.542605600087,None,369.159013120085,None,369.159013120085,None,369.159013120085,None,,,,,,,,,,,,,013,2022-05-11_17h33.59.064,Main,2022.1.1,60.20639962286481,
positive,positive,2,l,j,,,,,,,,,6,5,113,11,,,,,,,,,main,1,1,2,positive,positive,j,j,1,0.73103930009529,369.16851729992777,370.1785462999251,370.16193880001083,None,369.16851729992777,None,369.16851729992777,None,369.16851729992777,None,370.8925216201227,None,370.8925216201227,None,370.8925216201227,None,,,,,,,,,,,,,013,2022-05-11_17h33.59.064,Main,2022.1.1,60.20639962286481,
negative,positive,1,j,l,,,,,,,,,6,6,114,6,,,,,,,,,main,2,2,1,positive,negative,l,l,1,0.7828772000502795,370.89971030014567,371.91180470003746,371.8951103000436,None,370.89971030014567,None,370.89971030014567,None,370.89971030014567,None,372.6780529200099,None,372.6780529200099,None,372.6780529200099,None,,,,,,,,,,,,,013,2022-05-11_17h33.59.064,Main,2022.1.1,60.20639962286481,
negative,negative,1,j,l,,,,,,,,,6,7,115,0,,,,,,,,,main,2,2,1,negative,negative,l,l,1,0.7794448998756707,372.6819269999396,373.69507950008847,373.67841890011914,None,372.6819269999396,None,372.6819269999396,None,372.6819269999396,None,374.4591690200381,None,374.4591690200381,None,374.4591690200381,None,,,,,,,,,,,,,013,2022-05-11_17h33.59.064,Main,2022.1.1,60.20639962286481,
neutral,negative,1,k,k,,,,,,,,,6,8,116,7,,,,,,,,,main,1,1,1,negative,neutral,k,k,1,0.6651347000151873,374.4628769000992,375.47837450006045,375.46170580014586,None,374.4628769000992,None,374.4628769000992,None,374.4628769000992,None,376.12579322010276,None,376.12579322010276,None,376.12579322010276,None,,,,,,,,,,,,,013,2022-05-11_17h33.59.064,Main,2022.1.1,60.20639962286481,
neutral,positive,2,k,k,,,,,,,,,6,9,117,13,,,,,,,,,main,1,1,2,positive,neutral,k,k,1,0.6647439000662416,376.1298428999726,377.1423963000998,377.1257341001183,None,376.1298428999726,None,376.1298428999726,None,376.1298428999726,None,377.7920826199464,None,377.7920826199464,None,377.7920826199464,None,,,,,,,,,,,,,013,2022-05-11_17h33.59.064,Main,2022.1.1,60.20639962286481,
positive,negative,1,l,j,,,,,,,,,6,10,118,5,,,,,,,,,main,2,2,1,negative,positive,j,j,1,0.7816764998715371,377.7923942001071,378.7923868999351,378.7923868999351,None,377.7923942001071,None,377.7923942001071,None,377.7923942001071,None,379.5754077200312,None,379.5754077200312,None,379.5754077200312,None,,,,,,,,,,,,,013,2022-05-11_17h33.59.064,Main,2022.1.1,60.20639962286481,
neutral,neutral,2,k,k,,,,,,,,,6,11,119,10,,,,,,,,,main,2,2,2,neutral,neutral,k,k,1,0.6008675000630319,379.57601730013266,380.5757057000883,380.5757057000883,None,379.57601730013266,None,379.57601730013266,None,379.57601730013266,None,381.1778915199451,None,381.1778915199451,None,381.1778915199451,None,,,,,,,,,,,,,013,2022-05-11_17h33.59.064,Main,2022.1.1,60.20639962286481,
negative,negative,2,j,l,,,,,,,,,6,12,120,9,,,,,,,,,main,2,2,2,negative,negative,l,l,1,0.7293544001877308,381.1809793000575,382.1949462001212,382.1782488001045,None,381.1809793000575,None,381.1809793000575,None,381.1809793000575,None,382.9089988200925,None,382.9089988200925,None,382.9089988200925,None,,,,,,,,,,,,,013,2022-05-11_17h33.59.064,Main,2022.1.1,60.20639962286481,
negative,neutral,1,j,l,,,,,,,,,6,13,121,3,,,,,,,,,main,2,2,1,neutral,negative,l,l,1,0.6674375999718904,382.9129648001399,383.9281856000889,383.91151010012254,None,382.9129648001399,None,382.9129648001399,None,382.9129648001399,None,384.5777781199198,None,384.5777781199198,None,384.5777781199198,None,,,,,,,,,,,,,013,2022-05-11_17h33.59.064,Main,2022.1.1,60.20639962286481,
positive,neutral,1,l,j,,,,,,,,,6,14,122,8,,,,,,,,,main,1,1,1,neutral,positive,j,j,1,0.8324187998659909,384.58076749998145,385.594742000103,385.57821210008115,None,384.58076749998145,None,384.58076749998145,None,384.58076749998145,None,386.4110922199674,None,386.4110922199674,None,386.4110922199674,None,,,,,,,,,,,,,013,2022-05-11_17h33.59.064,Main,2022.1.1,60.20639962286481,
neutral,negative,2,k,k,,,,,,,,,6,15,123,16,,,,,,,,,main,2,2,2,negative,neutral,k,k,1,0.8271912999916822,386.4149176001083,387.4280835001264,387.41143089998513,None,386.4149176001083,None,386.4149176001083,None,386.4149176001083,None,388.2401902199257,None,388.2401902199257,None,388.2401902199257,None,,,,,,,,,,,,,013,2022-05-11_17h33.59.064,Main,2022.1.1,60.20639962286481,
neutral,neutral,1,k,k,,,,,,,,,6,16,124,1,,,,,,,,,main,2,2,1,neutral,neutral,k,k,1,0.5831259000115097,388.2515060000587,389.25881110015325,389.242129500024,None,388.2515060000587,None,388.2515060000587,None,388.2515060000587,None,389.82517682001924,None,389.82517682001924,None,389.82517682001924,None,,,,,,,,,,,,,013,2022-05-11_17h33.59.064,Main,2022.1.1,60.20639962286481,
positive,positive,1,l,j,,,,,,,,,6,17,125,2,,,,,,,,,main,1,1,1,positive,positive,j,j,1,0.617592099821195,389.825480400119,390.8260793001391,390.8260793001391,None,389.825480400119,None,389.825480400119,None,389.825480400119,None,391.44429881996473,None,391.44429881996473,None,391.44429881996473,None,,,,,,,,,,,,,013,2022-05-11_17h33.59.064,Main,2022.1.1,60.20639962286481,
negative,negative,2,j,l,,,,,,,,,7,0,126,9,,,,,,,,,main,1,1,2,negative,negative,l,j,0,0.6651590000838041,391.44739690003917,392.46129469992593,392.4447073000483,None,391.44739690003917,None,391.44739690003917,None,391.44739690003917,None,393.11131249996834,None,393.11131249996834,None,393.11131249996834,None,,,,,,,,,,,,,013,2022-05-11_17h33.59.064,Main,2022.1.1,60.20639962286481,
positive,positive,2,l,j,,,,,,,,,7,1,127,11,,,,,,,,,main,2,2,2,positive,positive,j,j,1,0.8683026998769492,394.12659420003183,395.12783939996734,395.11131950002164,None,394.12659420003183,None,394.12659420003183,None,394.12659420003183,None,395.99255852014755,None,395.99255852014755,None,395.99255852014755,None,,,,,,,,,,,,,013,2022-05-11_17h33.59.064,Main,2022.1.1,60.20639962286481,
positive,positive,1,l,j,,,,,,,,,7,2,128,2,,,,,,,,,main,1,1,1,positive,positive,j,j,1,0.7154745999723673,396.0112918999512,397.0111980000511,396.99490189994685,None,396.0112918999512,None,396.0112918999512,None,396.0112918999512,None,397.7097438199911,None,397.7097438199911,None,397.7097438199911,None,,,,,,,,,,,,,013,2022-05-11_17h33.59.064,Main,2022.1.1,60.20639962286481,
negative,neutral,2,j,l,,,,,,,,,7,3,129,12,,,,,,,,,main,1,1,2,neutral,negative,l,l,1,0.6293797998223454,397.71641180012375,398.72528220014647,398.7086181000341,None,397.71641180012375,None,397.71641180012375,None,397.71641180012375,None,399.34158901995977,None,399.34158901995977,None,399.34158901995977,None,,,,,,,,,,,,,013,2022-05-11_17h33.59.064,Main,2022.1.1,60.20639962286481,
neutral,negative,2,k,k,,,,,,,,,7,4,130,16,,,,,,,,,main,1,1,2,negative,neutral,k,k,1,0.7150460998527706,399.34191319998354,400.3419147001114,400.3419147001114,None,399.34191319998354,None,399.34191319998354,None,399.34191319998354,None,401.05830051992086,None,401.05830051992086,None,401.05830051992086,None,,,,,,,,,,,,,013,2022-05-11_17h33.59.064,Main,2022.1.1,60.20639962286481,
positive,neutral,2,l,j,,,,,,,,,7,5,131,17,,,,,,,,,main,2,2,2,neutral,positive,j,j,1,0.6855095999781042,401.06179310008883,402.05872560013086,402.05872560013086,None,401.06179310008883,None,401.06179310008883,None,401.06179310008883,None,402.7441021200269,None,402.7441021200269,None,402.7441021200269,None,,,,,,,,,,,,,013,2022-05-11_17h33.59.064,Main,2022.1.1,60.20639962286481,
neutral,neutral,1,k,k,,,,,,,,,7,6,132,1,,,,,,,,,main,2,2,1,neutral,neutral,k,k,1,0.6638692999258637,402.7488694000058,403.7610701001249,403.7444863000419,None,402.7488694000058,None,402.7488694000058,None,402.7488694000058,None,404.41076192012986,None,404.41076192012986,None,404.41076192012986,None,,,,,,,,,,,,,013,2022-05-11_17h33.59.064,Main,2022.1.1,60.20639962286481,
negative,positive,2,j,l,,,,,,,,,7,7,133,15,,,,,,,,,main,2,2,2,positive,negative,l,l,1,0.9462094998452812,404.4138263000641,405.4277323000133,405.4110669000074,None,404.4138263000641,None,404.4138263000641,None,404.4138263000641,None,406.35848182006737,None,406.35848182006737,None,406.35848182006737,None,,,,,,,,,,,,,013,2022-05-11_17h33.59.064,Main,2022.1.1,60.20639962286481,
negative,neutral,1,j,l,,,,,,,,,7,8,134,3,,,,,,,,,main,1,1,1,neutral,negative,l,l,1,0.7473804000765085,406.3627548001241,407.3776714000851,407.36106900009327,None,406.3627548001241,None,406.3627548001241,None,406.3627548001241,None,408.1084608201403,None,408.1084608201403,None,408.1084608201403,None,,,,,,,,,,,,,013,2022-05-11_17h33.59.064,Main,2022.1.1,60.20639962286481,
positive,neutral,1,l,j,,,,,,,,,7,9,135,8,,,,,,,,,main,2,2,1,neutral,positive,j,j,1,0.5981709000188857,408.1117549999617,409.12503250013106,409.1083601000719,None,408.1117549999617,None,408.1117549999617,None,408.1117549999617,None,409.70807331996036,None,409.70807331996036,None,409.70807331996036,None,,,,,,,,,,,,,013,2022-05-11_17h33.59.064,Main,2022.1.1,60.20639962286481,
positive,negative,1,l,j,,,,,,,,,7,10,136,5,,,,,,,,,main,2,2,1,negative,positive,j,j,1,0.6661432001274079,409.7083680999931,410.70835430012085,410.70835430012085,None,409.7083680999931,None,409.7083680999931,None,409.7083680999931,None,411.3747338199522,None,411.3747338199522,None,411.3747338199522,None,,,,,,,,,,,,,013,2022-05-11_17h33.59.064,Main,2022.1.1,60.20639962286481,
negative,positive,1,j,l,,,,,,,,,7,11,137,6,,,,,,,,,main,1,1,1,positive,negative,l,l,1,1.3475579000078142,411.3793232999742,412.39417360001244,412.3753249000292,None,411.3793232999742,None,411.3793232999742,None,411.3793232999742,None,413.72468572002833,None,413.72468572002833,None,413.72468572002833,None,,,,,,,,,,,,,013,2022-05-11_17h33.59.064,Main,2022.1.1,60.20639962286481,
neutral,neutral,2,k,k,,,,,,,,,7,12,138,10,,,,,,,,,main,2,2,2,neutral,neutral,k,k,1,0.6890855000820011,413.72870510001667,414.7445632000454,414.7278603001032,None,413.72870510001667,None,413.72870510001667,None,413.72870510001667,None,415.4133056200575,None,415.4133056200575,None,415.4133056200575,None,,,,,,,,,,,,,013,2022-05-11_17h33.59.064,Main,2022.1.1,60.20639962286481,
neutral,positive,1,k,k,,,,,,,,,7,13,139,4,,,,,,,,,main,1,1,1,positive,neutral,k,k,1,0.6402979001868516,415.4194772001356,416.42522430000827,416.41082750004716,None,415.4194772001356,None,415.4194772001356,None,415.4194772001356,None,417.05824862010775,None,417.05824862010775,None,417.05824862010775,None,,,,,,,,,,,,,013,2022-05-11_17h33.59.064,Main,2022.1.1,60.20639962286481,
positive,negative,2,l,j,,,,,,,,,7,14,140,14,,,,,,,,,main,2,2,2,negative,positive,j,j,1,0.5997606997843832,417.06259380001575,418.07521699997596,418.060869500041,None,417.06259380001575,None,417.06259380001575,None,417.06259380001575,None,418.6604163200594,None,418.6604163200594,None,418.6604163200594,None,,,,,,,,,,,,,013,2022-05-11_17h33.59.064,Main,2022.1.1,60.20639962286481,
negative,negative,1,j,l,,,,,,,,,7,15,141,0,,,,,,,,,main,1,1,1,negative,negative,l,l,1,0.92974380007945,418.66338820010424,419.6751045000274,419.65816679992713,None,418.66338820010424,None,418.66338820010424,None,418.66338820010424,None,420.59134692009536,None,420.59134692009536,None,420.59134692009536,None,,,,,,,,,,,,,013,2022-05-11_17h33.59.064,Main,2022.1.1,60.20639962286481,
neutral,negative,1,k,k,,,,,,,,,7,16,142,7,,,,,,,,,main,1,1,1,negative,neutral,k,k,1,0.7508443999104202,420.5915415000636,421.5915111999493,421.5915111999493,None,420.5915415000636,None,420.5915415000636,None,420.5915415000636,None,422.34384721992535,None,422.34384721992535,None,422.34384721992535,None,,,,,,,,,,,,,013,2022-05-11_17h33.59.064,Main,2022.1.1,60.20639962286481,
neutral,positive,2,k,k,,,,,,,,,7,17,143,13,,,,,,,,,main,1,1,2,positive,neutral,k,k,1,0.931441499851644,422.34744970011525,423.3584431000054,423.3440000999253,None,422.34744970011525,None,422.34744970011525,None,422.34744970011525,None,424.2768993199337,None,424.2768993199337,None,424.2768993199337,None,,,,,,,,,,,,,013,2022-05-11_17h33.59.064,Main,2022.1.1,60.20639962286481,
negative,positive,2,j,l,,,,,,,,,8,0,144,15,,,,,,,,,main,2,2,2,positive,negative,l,l,1,0.8327270001173019,424.28040280006826,425.2939750000369,425.27736770012416,None,424.28040280006826,None,424.28040280006826,None,424.28040280006826,None,426.11118581993503,None,426.11118581993503,None,426.11118581993503,None,,,,,,,,,,,,,013,2022-05-11_17h33.59.064,Main,2022.1.1,60.20639962286481,
neutral,neutral,2,k,k,,,,,,,,,8,1,145,10,,,,,,,,,main,2,2,2,neutral,neutral,k,k,1,0.7472010999917984,426.11467340006493,427.12720270012505,427.11064630001783,None,426.11467340006493,None,426.11467340006493,None,426.11467340006493,None,427.86023892005903,None,427.86023892005903,None,427.86023892005903,None,,,,,,,,,,,,,013,2022-05-11_17h33.59.064,Main,2022.1.1,60.20639962286481,
negative,negative,1,j,l,,,,,,,,,8,2,146,0,,,,,,,,,main,2,2,1,negative,negative,l,l,1,0.6630154000595212,427.86360220005736,428.87720079999417,428.86059219995514,None,427.86360220005736,None,427.86360220005736,None,427.86360220005736,None,429.52463791994376,None,429.52463791994376,None,429.52463791994376,None,,,,,,,,,,,,,013,2022-05-11_17h33.59.064,Main,2022.1.1,60.20639962286481,
positive,positive,2,l,j,,,,,,,,,8,3,147,11,,,,,,,,,main,2,2,2,positive,positive,j,j,1,0.8978445001412183,429.5283316001296,430.541260200087,430.5246002001222,None,429.5283316001296,None,429.5283316001296,None,429.5283316001296,None,431.4242510200478,None,431.4242510200478,None,431.4242510200478,None,,,,,,,,,,,,,013,2022-05-11_17h33.59.064,Main,2022.1.1,60.20639962286481,
neutral,negative,1,k,k,,,,,,,,,8,4,148,7,,,,,,,,,main,1,1,1,negative,neutral,k,k,1,0.9835423999466002,431.42508830013685,432.42458790005185,432.42458790005185,None,431.42508830013685,None,431.42508830013685,None,431.42508830013685,None,433.4100419200025,None,433.4100419200025,None,433.4100419200025,None,,,,,,,,,,,,,013,2022-05-11_17h33.59.064,Main,2022.1.1,60.20639962286481,
positive,positive,1,l,j,,,,,,,,,8,5,149,2,,,,,,,,,main,2,2,1,positive,positive,j,j,1,0.6642332000192255,433.4142684000544,434.427113099955,434.410463700071,None,433.4142684000544,None,433.4142684000544,None,433.4142684000544,None,435.07669892008414,None,435.07669892008414,None,435.07669892008414,None,,,,,,,,,,,,,013,2022-05-11_17h33.59.064,Main,2022.1.1,60.20639962286481,
positive,neutral,1,l,j,,,,,,,,,8,6,150,8,,,,,,,,,main,1,1,1,neutral,positive,j,j,1,1.6464287999551743,435.0793077000417,436.0937403999269,436.0771188000217,None,435.0793077000417,None,435.0793077000417,None,435.0793077000417,None,437.72698689997196,None,437.72698689997196,None,437.72698689997196,None,,,,,,,,,,,,,013,2022-05-11_17h33.59.064,Main,2022.1.1,60.20639962286481,
positive,negative,1,l,j,,,,,,,,,8,7,151,5,,,,,,,,,main,2,2,1,negative,positive,j,j,1,0.6011379000265151,438.7253050999716,439.7269139001146,439.70804659998976,None,438.7253050999716,None,438.7253050999716,None,438.7253050999716,None,440.3243938201107,None,440.3243938201107,None,440.3243938201107,None,,,,,,,,,,,,,013,2022-05-11_17h33.59.064,Main,2022.1.1,60.20639962286481,
neutral,negative,2,k,k,,,,,,,,,8,8,152,16,,,,,,,,,main,1,1,2,negative,neutral,k,k,1,0.714918099809438,440.32800640002824,441.34101860015653,441.3244517999701,None,440.32800640002824,None,440.32800640002824,None,440.32800640002824,None,442.0409368200693,None,442.0409368200693,None,442.0409368200693,None,,,,,,,,,,,,,013,2022-05-11_17h33.59.064,Main,2022.1.1,60.20639962286481,
negative,neutral,1,j,l,,,,,,,,,8,9,153,3,,,,,,,,,main,2,2,1,neutral,negative,l,l,1,0.6817618999630213,442.0411421000026,443.0412590999622,443.0412590999622,None,442.0411421000026,None,442.0411421000026,None,442.0411421000026,None,443.72437602011485,None,443.72437602011485,None,443.72437602011485,None,,,,,,,,,,,,,013,2022-05-11_17h33.59.064,Main,2022.1.1,60.20639962286481,
positive,neutral,2,l,j,,,,,,,,,8,10,154,17,,,,,,,,,main,1,1,2,neutral,positive,j,j,1,0.831452599959448,443.7287089000456,444.7436265000142,444.72507259994745,None,443.7287089000456,None,443.7287089000456,None,443.7287089000456,None,445.55764421992933,None,445.55764421992933,None,445.55764421992933,None,,,,,,,,,,,,,013,2022-05-11_17h33.59.064,Main,2022.1.1,60.20639962286481,
negative,negative,2,j,l,,,,,,,,,8,11,155,9,,,,,,,,,main,1,1,2,negative,negative,l,l,1,0.798394399927929,445.5609450000338,446.5602911999449,446.5602911999449,None,445.5609450000338,None,445.5609450000338,None,445.5609450000338,None,447.35757732004856,None,447.35757732004856,None,447.35757732004856,None,,,,,,,,,,,,,013,2022-05-11_17h33.59.064,Main,2022.1.1,60.20639962286481,
neutral,positive,2,k,k,,,,,,,,,8,12,156,13,,,,,,,,,main,2,2,2,positive,neutral,k,k,1,0.5647086999379098,447.36139840004034,448.3745385000948,448.3600980001502,None,447.36139840004034,None,447.36139840004034,None,447.36139840004034,None,448.92423401991834,None,448.92423401991834,None,448.92423401991834,None,,,,,,,,,,,,,013,2022-05-11_17h33.59.064,Main,2022.1.1,60.20639962286481,
negative,neutral,2,j,l,,,,,,,,,8,13,157,12,,,,,,,,,main,2,2,2,neutral,negative,l,l,1,0.6484915998298675,448.92855940014124,449.9433196000755,449.92683110013604,None,448.92855940014124,None,448.92855940014124,None,448.92855940014124,None,450.57418332002123,None,450.57418332002123,None,450.57418332002123,None,,,,,,,,,,,,,013,2022-05-11_17h33.59.064,Main,2022.1.1,60.20639962286481,
neutral,positive,1,k,k,,,,,,,,,8,14,158,4,,,,,,,,,main,2,2,1,positive,neutral,k,k,1,0.6648289000149816,450.5775447001215,451.5907869001385,451.574120500125,None,450.5775447001215,None,450.5775447001215,None,450.5775447001215,None,452.24047132008707,None,452.24047132008707,None,452.24047132008707,None,,,,,,,,,,,,,013,2022-05-11_17h33.59.064,Main,2022.1.1,60.20639962286481,
positive,negative,2,l,j,,,,,,,,,8,15,159,14,,,,,,,,,main,2,2,2,negative,positive,j,j,1,0.832050799857825,452.24077140004374,453.24081180011854,453.24081180011854,None,452.24077140004374,None,452.24077140004374,None,452.24077140004374,None,454.0741376200225,None,454.0741376200225,None,454.0741376200225,None,,,,,,,,,,,,,013,2022-05-11_17h33.59.064,Main,2022.1.1,60.20639962286481,
neutral,neutral,1,k,k,,,,,,,,,8,16,160,1,,,,,,,,,main,1,1,1,neutral,neutral,k,k,1,0.6982389001641423,454.07731269998476,455.07469750009477,455.07469750009477,None,454.07731269998476,None,454.07731269998476,None,454.07731269998476,None,455.77380232010034,None,455.77380232010034,None,455.77380232010034,None,,,,,,,,,,,,,013,2022-05-11_17h33.59.064,Main,2022.1.1,60.20639962286481,
negative,positive,1,j,l,,,,,,,,,8,17,161,6,,,,,,,,,main,2,2,1,positive,negative,l,l,1,0.7153426001314074,455.77761590015143,456.79140440002084,456.7770567999687,None,455.77761590015143,None,455.77761590015143,None,455.77761590015143,None,457.490703319991,None,457.490703319991,None,457.490703319991,None,,,,,,,,,,,,,013,2022-05-11_17h33.59.064,Main,2022.1.1,60.20639962286481,
positive,neutral,2,l,j,,,,,,,,,9,0,162,17,,,,,,,,,main,2,2,2,neutral,positive,j,j,1,0.8514773000497371,457.49440650013275,458.5099498000927,458.49334929999895,None,457.49440650013275,None,457.49440650013275,None,457.49440650013275,None,459.34292071997186,None,459.34292071997186,None,459.34292071997186,None,,,,,,,,,,,,,013,2022-05-11_17h33.59.064,Main,2022.1.1,60.20639962286481,
negative,neutral,2,j,l,,,,,,,,,9,1,163,12,,,,,,,,,main,2,2,2,neutral,negative,l,l,1,0.8787348999176174,459.347303400049,460.3597424000036,460.3432221999392,None,459.347303400049,None,459.347303400049,None,459.347303400049,None,461.22398432004263,None,461.22398432004263,None,461.22398432004263,None,,,,,,,,,,,,,013,2022-05-11_17h33.59.064,Main,2022.1.1,60.20639962286481,
positive,positive,1,l,j,,,,,,,,,9,2,164,2,,,,,,,,,main,2,2,1,positive,positive,j,j,1,0.7147559998556972,461.2279632000718,462.24080269993283,462.22413250012323,None,461.2279632000718,None,461.2279632000718,None,461.2279632000718,None,462.94048691992646,None,462.94048691992646,None,462.94048691992646,None,,,,,,,,,,,,,013,2022-05-11_17h33.59.064,Main,2022.1.1,60.20639962286481,
negative,negative,1,j,l,,,,,,,,,9,3,165,0,,,,,,,,,main,1,1,1,negative,negative,l,l,1,0.8819171998184174,462.9405688000843,463.9408841000404,463.9408841000404,None,462.9405688000843,None,462.9405688000843,None,462.9405688000843,None,464.8239219201263,None,464.8239219201263,None,464.8239219201263,None,,,,,,,,,,,,,013,2022-05-11_17h33.59.064,Main,2022.1.1,60.20639962286481,
positive,positive,2,l,j,,,,,,,,,9,4,166,11,,,,,,,,,main,2,2,2,positive,positive,j,j,1,1.1354066000785679,464.8279299000278,465.84312630002387,465.826570100151,None,464.8279299000278,None,464.8279299000278,None,464.8279299000278,None,466.9595048200339,None,466.9595048200339,None,466.9595048200339,None,,,,,,,,,,,,,013,2022-05-11_17h33.59.064,Main,2022.1.1,60.20639962286481,
positive,neutral,1,l,j,,,,,,,,,9,5,167,8,,,,,,,,,main,1,1,1,neutral,positive,j,j,1,1.045287799788639,466.96386900008656,467.97636079997756,467.9596987001132,None,466.96386900008656,None,466.96386900008656,None,466.96386900008656,None,469.0071352199651,None,469.0071352199651,None,469.0071352199651,None,,,,,,,,,,,,,013,2022-05-11_17h33.59.064,Main,2022.1.1,60.20639962286481,
positive,negative,2,l,j,,,,,,,,,9,6,168,14,,,,,,,,,main,1,1,2,negative,positive,j,j,1,0.6831340999342501,469.01139480015263,470.02628210000694,470.0096720000729,None,469.01139480015263,None,469.01139480015263,None,469.01139480015263,None,470.69256502003407,None,470.69256502003407,None,470.69256502003407,None,,,,,,,,,,,,,013,2022-05-11_17h33.59.064,Main,2022.1.1,60.20639962286481,
negative,neutral,1,j,l,,,,,,,,,9,7,169,3,,,,,,,,,main,1,1,1,neutral,negative,l,l,1,0.7355891999322921,470.69628600007854,471.70964170014486,471.6932657000143,None,470.69628600007854,None,470.69628600007854,None,470.69628600007854,None,472.4296123200096,None,472.4296123200096,None,472.4296123200096,None,,,,,,,,,,,,,013,2022-05-11_17h33.59.064,Main,2022.1.1,60.20639962286481,
neutral,neutral,2,k,k,,,,,,,,,9,8,170,10,,,,,,,,,main,2,2,2,neutral,neutral,k,k,1,0.7641286000143737,472.4301845000591,473.4403965000529,473.4236512000207,None,472.4301845000591,None,472.4301845000591,None,472.4301845000591,None,474.1902442200575,None,474.1902442200575,None,474.1902442200575,None,,,,,,,,,,,,,013,2022-05-11_17h33.59.064,Main,2022.1.1,60.20639962286481,
neutral,negative,2,k,k,,,,,,,,,9,9,171,16,,,,,,,,,main,2,2,2,negative,neutral,k,k,1,0.6781160000246018,474.1963337000925,475.209580300143,475.19299910007976,None,474.1963337000925,None,474.1963337000925,None,474.1963337000925,None,475.8759137199726,None,475.8759137199726,None,475.8759137199726,None,,,,,,,,,,,,,013,2022-05-11_17h33.59.064,Main,2022.1.1,60.20639962286481,
neutral,positive,1,k,k,,,,,,,,,9,10,172,4,,,,,,,,,main,1,1,1,positive,neutral,k,k,1,0.6628724001348019,475.87994490005076,476.8928849999793,476.8762644000817,None,475.87994490005076,None,475.87994490005076,None,475.87994490005076,None,477.54027432003056,None,477.54027432003056,None,477.54027432003056,None,,,,,,,,,,,,,013,2022-05-11_17h33.59.064,Main,2022.1.1,60.20639962286481,
positive,negative,1,l,j,,,,,,,,,9,11,173,5,,,,,,,,,main,1,1,1,negative,positive,j,j,1,0.8648199001327157,477.54401360009797,478.55721200001426,478.54289410007186,None,477.54401360009797,None,477.54401360009797,None,477.54401360009797,None,479.40689602014606,None,479.40689602014606,None,479.40689602014606,None,,,,,,,,,,,,,013,2022-05-11_17h33.59.064,Main,2022.1.1,60.20639962286481,
negative,positive,1,j,l,,,,,,,,,9,12,174,6,,,,,,,,,main,2,2,1,positive,negative,l,l,1,0.6483877000864595,479.41043630009517,480.4260136000812,480.4094841000624,None,479.41043630009517,None,479.41043630009517,None,479.41043630009517,None,481.05665642009114,None,481.05665642009114,None,481.05665642009114,None,,,,,,,,,,,,,013,2022-05-11_17h33.59.064,Main,2022.1.1,60.20639962286481,
negative,negative,2,j,l,,,,,,,,,9,13,175,9,,,,,,,,,main,2,2,2,negative,negative,l,l,1,0.8485691999085248,481.0637030999642,482.0760999000631,482.05943699995987,None,481.0637030999642,None,481.0637030999642,None,481.0637030999642,None,482.906820020033,None,482.906820020033,None,482.906820020033,None,,,,,,,,,,,,,013,2022-05-11_17h33.59.064,Main,2022.1.1,60.20639962286481,
negative,positive,2,j,l,,,,,,,,,9,14,176,15,,,,,,,,,main,1,1,2,positive,negative,l,l,1,0.9157972000539303,482.91029349993914,483.92364870011806,483.9067764999345,None,482.91029349993914,None,482.91029349993914,None,482.91029349993914,None,484.82311712005173,None,484.82311712005173,None,484.82311712005173,None,,,,,,,,,,,,,013,2022-05-11_17h33.59.064,Main,2022.1.1,60.20639962286481,
neutral,positive,2,k,k,,,,,,,,,9,15,177,13,,,,,,,,,main,1,1,2,positive,neutral,k,k,1,0.7832343999762088,484.82414590008557,485.82376560010016,485.82376560010016,None,484.82414590008557,None,484.82414590008557,None,484.82414590008557,None,486.6089265200775,None,486.6089265200775,None,486.6089265200775,None,,,,,,,,,,,,,013,2022-05-11_17h33.59.064,Main,2022.1.1,60.20639962286481,
neutral,neutral,1,k,k,,,,,,,,,9,16,178,1,,,,,,,,,main,1,1,1,neutral,neutral,k,k,1,1.1125616000499576,486.6120263999328,487.6260462999344,487.6093059000559,None,486.6120263999328,None,486.6120263999328,None,486.6120263999328,None,488.72308962009845,None,488.72308962009845,None,488.72308962009845,None,,,,,,,,,,,,,013,2022-05-11_17h33.59.064,Main,2022.1.1,60.20639962286481,
neutral,negative,1,k,k,,,,,,,,,9,17,179,7,,,,,,,,,main,2,2,1,negative,neutral,k,k,1,0.5988985998556018,488.72901690006256,489.7408511999529,489.72613810002804,None,488.72901690006256,None,488.72901690006256,None,488.72901690006256,None,490.3233598199207,None,490.3233598199207,None,490.3233598199207,None,,,,,,,,,,,,,013,2022-05-11_17h33.59.064,Main,2022.1.1,60.20639962286481,
positive,negative,2,l,j,,,,,,,,,10,0,180,14,,,,,,,,,main,1,1,2,negative,positive,j,j,1,1.1313348999246955,490.3271534999367,491.34253249992616,491.32605449995026,None,490.3271534999367,None,490.3271534999367,None,490.3271534999367,None,492.45660011991856,None,492.45660011991856,None,492.45660011991856,None,,,,,,,,,,,,,013,2022-05-11_17h33.59.064,Main,2022.1.1,60.20639962286481,
positive,neutral,2,l,j,,,,,,,,,10,1,181,17,,,,,,,,,main,1,1,2,neutral,positive,j,j,1,0.49840150005184114,492.4605704001151,493.4732093999628,493.4565443000756,None,492.4605704001151,None,492.4605704001151,None,492.4605704001151,None,493.9564891200047,None,493.9564891200047,None,493.9564891200047,None,,,,,,,,,,,,,013,2022-05-11_17h33.59.064,Main,2022.1.1,60.20639962286481,
negative,positive,1,j,l,,,,,,,,,10,2,182,6,,,,,,,,,main,2,2,1,positive,negative,l,l,1,0.68164880014956,493.95760740013793,494.9565884000622,494.9565884000622,None,493.95760740013793,None,493.95760740013793,None,493.95760740013793,None,495.64031911999916,None,495.64031911999916,None,495.64031911999916,None,,,,,,,,,,,,,013,2022-05-11_17h33.59.064,Main,2022.1.1,60.20639962286481,
positive,positive,2,l,j,,,,,,,,,10,3,183,11,,,,,,,,,main,1,1,2,positive,positive,j,j,1,0.8309245000127703,495.6467806000728,496.6591771999374,496.640502900118,None,495.6467806000728,None,495.6467806000728,None,495.6467806000728,None,497.4729758199304,None,497.4729758199304,None,497.4729758199304,None,,,,,,,,,,,,,013,2022-05-11_17h33.59.064,Main,2022.1.1,60.20639962286481,
neutral,positive,2,k,k,,,,,,,,,10,4,184,13,,,,,,,,,main,2,2,2,positive,neutral,k,k,1,0.73205819982104,497.47930540004745,498.49237859994173,498.4757823999971,None,497.47930540004745,None,497.47930540004745,None,497.47930540004745,None,499.20649741995146,None,499.20649741995146,None,499.20649741995146,None,,,,,,,,,,,,,013,2022-05-11_17h33.59.064,Main,2022.1.1,60.20639962286481,
neutral,negative,1,k,k,,,,,,,,,10,5,185,7,,,,,,,,,main,2,2,1,negative,neutral,k,k,1,0.6314081000164151,499.2105564000085,500.22567049995996,500.20908179995604,None,499.2105564000085,None,499.2105564000085,None,499.2105564000085,None,500.8397654200438,None,500.8397654200438,None,500.8397654200438,None,,,,,,,,,,,,,013,2022-05-11_17h33.59.064,Main,2022.1.1,60.20639962286481,
positive,positive,1,l,j,,,,,,,,,10,6,186,2,,,,,,,,,main,1,1,1,positive,positive,j,j,1,0.8152248999103904,500.8440256000031,501.85896380012855,501.84236750006676,None,500.8440256000031,None,500.8440256000031,None,500.8440256000031,None,502.65638952013103,None,502.65638952013103,None,502.65638952013103,None,,,,,,,,,,,,,013,2022-05-11_17h33.59.064,Main,2022.1.1,60.20639962286481,
positive,neutral,1,l,j,,,,,,,,,10,7,187,8,,,,,,,,,main,1,1,1,neutral,positive,j,j,1,0.5804896000772715,502.66705220006406,503.67297990014777,503.65632960014045,None,502.66705220006406,None,502.66705220006406,None,502.66705220006406,None,504.2393362199422,None,504.2393362199422,None,504.2393362199422,None,,,,,,,,,,,,,013,2022-05-11_17h33.59.064,Main,2022.1.1,60.20639962286481,
negative,negative,2,j,l,,,,,,,,,10,8,188,9,,,,,,,,,main,1,1,2,negative,negative,l,l,1,0.7174907999578863,504.2396668000147,505.2396828001365,505.2396828001365,None,504.2396668000147,None,504.2396668000147,None,504.2396668000147,None,505.95855492013504,None,505.95855492013504,None,505.95855492013504,None,,,,,,,,,,,,,013,2022-05-11_17h33.59.064,Main,2022.1.1,60.20639962286481,
neutral,neutral,1,k,k,,,,,,,,,10,9,189,1,,,,,,,,,main,1,1,1,neutral,neutral,k,k,1,0.6133832999039441,505.9617958001327,506.9755168000702,506.95896490011364,None,505.9617958001327,None,505.9617958001327,None,505.9617958001327,None,507.5737397201359,None,507.5737397201359,None,507.5737397201359,None,,,,,,,,,,,,,013,2022-05-11_17h33.59.064,Main,2022.1.1,60.20639962286481,
negative,negative,1,j,l,,,,,,,,,10,10,190,0,,,,,,,,,main,1,1,1,negative,negative,l,l,1,0.6310832998715341,507.5797717999667,508.5921804001555,508.5755765000358,None,507.5797717999667,None,507.5797717999667,None,507.5797717999667,None,509.206250720052,None,509.206250720052,None,509.206250720052,None,,,,,,,,,,,,,013,2022-05-11_17h33.59.064,Main,2022.1.1,60.20639962286481,
negative,neutral,1,j,l,,,,,,,,,10,11,191,3,,,,,,,,,main,1,1,1,neutral,negative,l,l,1,0.8190182000398636,509.20934229996055,510.20882900012657,510.20882900012657,None,509.20934229996055,None,509.20934229996055,None,509.20934229996055,None,511.0226963200606,None,511.0226963200606,None,511.0226963200606,None,,,,,,,,,,,,,013,2022-05-11_17h33.59.064,Main,2022.1.1,60.20639962286481,
negative,neutral,2,j,l,,,,,,,,,10,12,192,12,,,,,,,,,main,1,1,2,neutral,negative,l,l,1,0.7277617000509053,511.0303454999812,512.0420788000338,512.0254454000387,None,511.0303454999812,None,511.0303454999812,None,511.0303454999812,None,512.7561792201362,None,512.7561792201362,None,512.7561792201362,None,,,,,,,,,,,,,013,2022-05-11_17h33.59.064,Main,2022.1.1,60.20639962286481,
neutral,neutral,2,k,k,,,,,,,,,10,13,193,10,,,,,,,,,main,2,2,2,neutral,neutral,k,k,1,0.7314824000932276,512.7599084000103,513.772770000156,513.7561069999356,None,512.7599084000103,None,512.7599084000103,None,512.7599084000103,None,514.4891201200429,None,514.4891201200429,None,514.4891201200429,None,,,,,,,,,,,,,013,2022-05-11_17h33.59.064,Main,2022.1.1,60.20639962286481,
neutral,positive,1,k,k,,,,,,,,,10,14,194,4,,,,,,,,,main,2,2,1,positive,neutral,k,k,1,0.6483320000115782,514.4894250000361,515.489453200018,515.489453200018,None,514.4894250000361,None,514.4894250000361,None,514.4894250000361,None,516.1391336199362,None,516.1391336199362,None,516.1391336199362,None,,,,,,,,,,,,,013,2022-05-11_17h33.59.064,Main,2022.1.1,60.20639962286481,
negative,positive,2,j,l,,,,,,,,,10,15,195,15,,,,,,,,,main,2,2,2,positive,negative,l,l,1,0.7156261000782251,516.1432833999861,517.1587191999424,517.1420233999379,None,516.1432833999861,None,516.1432833999861,None,516.1432833999861,None,517.8560711199883,None,517.8560711199883,None,517.8560711199883,None,,,,,,,,,,,,,013,2022-05-11_17h33.59.064,Main,2022.1.1,60.20639962286481,
positive,negative,1,l,j,,,,,,,,,10,16,196,5,,,,,,,,,main,1,1,1,negative,positive,j,j,1,0.6505781998857856,517.8602398000658,518.8752601000015,518.8586854999885,None,517.8602398000658,None,517.8602398000658,None,517.8602398000658,None,519.5082095201127,None,519.5082095201127,None,519.5082095201127,None,,,,,,,,,,,,,013,2022-05-11_17h33.59.064,Main,2022.1.1,60.20639962286481,
neutral,negative,2,k,k,,,,,,,,,10,17,197,16,,,,,,,,,main,1,1,2,negative,neutral,k,k,1,0.665076999925077,519.5112318000756,520.5252060999628,520.5063054000493,None,519.5112318000756,None,519.5112318000756,None,519.5112318000756,None,521.1748749200254,None,521.1748749200254,None,521.1748749200254,None,,,,,,,,,,,,,013,2022-05-11_17h33.59.064,Main,2022.1.1,60.20639962286481,
positive,neutral,2,l,j,,,,,,,,,11,0,198,17,,,,,,,,,main,2,2,2,neutral,positive,j,j,1,1.1826388000044972,521.1781580001116,522.1918520999607,522.1729150000028,None,521.1781580001116,None,521.1781580001116,None,521.1781580001116,None,523.3580946201458,None,523.3580946201458,None,523.3580946201458,None,,,,,,,,,,,,,013,2022-05-11_17h33.59.064,Main,2022.1.1,60.20639962286481,
neutral,negative,1,k,k,,,,,,,,,11,1,199,7,,,,,,,,,main,2,2,1,negative,neutral,k,k,1,0.7616866000462323,523.3650309999939,524.372528300155,524.3558789000381,None,523.3650309999939,None,523.3650309999939,None,523.3650309999939,None,525.1222363201435,None,525.1222363201435,None,525.1222363201435,None,,,,,,,,,,,,,013,2022-05-11_17h33.59.064,Main,2022.1.1,60.20639962286481,
positive,positive,2,l,j,,,,,,,,,11,2,200,11,,,,,,,,,main,2,2,2,positive,positive,j,j,1,0.6675488001201302,525.1225455999374,526.1225582000334,526.1225582000334,None,525.1225455999374,None,525.1225455999374,None,525.1225455999374,None,526.7915720200166,None,526.7915720200166,None,526.7915720200166,None,,,,,,,,,,,,,013,2022-05-11_17h33.59.064,Main,2022.1.1,60.20639962286481,
neutral,negative,2,k,k,,,,,,,,,11,3,201,16,,,,,,,,,main,1,1,2,negative,neutral,k,k,1,0.6808325999882072,526.7959237999748,527.808380200062,527.791821999941,None,526.7959237999748,None,526.7959237999748,None,526.7959237999748,None,528.4747171200346,None,528.4747171200346,None,528.4747171200346,None,,,,,,,,,,,,,013,2022-05-11_17h33.59.064,Main,2022.1.1,60.20639962286481,
positive,positive,1,l,j,,,,,,,,,11,4,202,2,,,,,,,,,main,1,1,1,positive,positive,j,j,1,0.846152399899438,528.4776558999438,529.4916954000946,529.4750316999853,None,528.4776558999438,None,528.4776558999438,None,528.4776558999438,None,530.3224579199217,None,530.3224579199217,None,530.3224579199217,None,,,,,,,,,,,,,013,2022-05-11_17h33.59.064,Main,2022.1.1,60.20639962286481,
positive,negative,2,l,j,,,,,,,,,11,5,203,14,,,,,,,,,main,1,1,2,negative,positive,j,j,1,0.7150735999457538,530.3259209999815,531.3416715001222,531.3249751999974,None,530.3259209999815,None,530.3259209999815,None,530.3259209999815,None,532.0391193200834,None,532.0391193200834,None,532.0391193200834,None,,,,,,,,,,,,,013,2022-05-11_17h33.59.064,Main,2022.1.1,60.20639962286481,
negative,positive,2,j,l,,,,,,,,,11,6,204,15,,,,,,,,,main,2,2,2,positive,negative,l,l,1,0.7649679000023752,532.0425754000898,533.0582674001344,533.0416447001044,None,532.0425754000898,None,532.0425754000898,None,532.0425754000898,None,533.805438820133,None,533.805438820133,None,533.805438820133,None,,,,,,,,,,,,,013,2022-05-11_17h33.59.064,Main,2022.1.1,60.20639962286481,
positive,negative,1,l,j,,,,,,,,,11,7,205,5,,,,,,,,,main,1,1,1,negative,positive,j,j,1,0.8988902999553829,533.8094019999262,534.8223222999368,534.8056606000755,None,533.8094019999262,None,533.8094019999262,None,533.8094019999262,None,535.7053345200605,None,535.7053345200605,None,535.7053345200605,None,,,,,,,,,,,,,013,2022-05-11_17h33.59.064,Main,2022.1.1,60.20639962286481,
neutral,positive,2,k,k,,,,,,,,,11,8,206,13,,,,,,,,,main,2,2,2,positive,neutral,k,k,1,0.7475322000682354,535.7113198000006,536.7223348999396,536.7056718000676,None,535.7113198000006,None,535.7113198000006,None,535.7113198000006,None,537.45566602014,None,537.45566602014,None,537.45566602014,None,,,,,,,,,,,,,013,2022-05-11_17h33.59.064,Main,2022.1.1,60.20639962286481,
negative,negative,2,j,l,,,,,,,,,11,9,207,9,,,,,,,,,main,2,2,2,negative,negative,l,k,0,0.7315406000707299,537.4592385999858,538.4748242001515,538.4582867999561,None,537.4592385999858,None,537.4592385999858,None,537.4592385999858,None,539.1914148000069,None,539.1914148000069,None,539.1914148000069,None,,,,,,,,,,,,,013,2022-05-11_17h33.59.064,Main,2022.1.1,60.20639962286481,
negative,positive,1,j,l,,,,,,,,,11,10,208,6,,,,,,,,,main,2,2,1,positive,negative,l,l,1,1.0511753000319004,540.1900828999933,541.1914532000665,541.1747646001168,None,540.1900828999933,None,540.1900828999933,None,540.1900828999933,None,542.2386094199959,None,542.2386094199959,None,542.2386094199959,None,,,,,,,,,,,,,013,2022-05-11_17h33.59.064,Main,2022.1.1,60.20639962286481,
neutral,neutral,1,k,k,,,,,,,,,11,11,209,1,,,,,,,,,main,1,1,1,neutral,neutral,k,k,1,0.881942099891603,542.2458133001346,543.2558246999979,543.2391421000939,None,542.2458133001346,None,542.2458133001346,None,542.2458133001346,None,544.122218120005,None,544.122218120005,None,544.122218120005,None,,,,,,,,,,,,,013,2022-05-11_17h33.59.064,Main,2022.1.1,60.20639962286481,
negative,neutral,2,j,l,,,,,,,,,11,12,210,12,,,,,,,,,main,2,2,2,neutral,negative,l,l,1,0.7808583998121321,544.1264530001208,545.1387627001386,545.1220995001495,None,544.1264530001208,None,544.1264530001208,None,544.1264530001208,None,545.9051065201405,None,545.9051065201405,None,545.9051065201405,None,,,,,,,,,,,,,013,2022-05-11_17h33.59.064,Main,2022.1.1,60.20639962286481,
neutral,positive,1,k,k,,,,,,,,,11,13,211,4,,,,,,,,,main,1,1,1,positive,neutral,k,k,1,0.648320100037381,545.9054169000592,546.9054427000228,546.9054427000228,None,545.9054169000592,None,545.9054169000592,None,545.9054169000592,None,547.5551206200383,None,547.5551206200383,None,547.5551206200383,None,,,,,,,,,,,,,013,2022-05-11_17h33.59.064,Main,2022.1.1,60.20639962286481,
negative,negative,1,j,l,,,,,,,,,11,14,212,0,,,,,,,,,main,2,2,1,negative,negative,l,l,1,0.6678772999439389,547.5644908000249,548.5746526999865,548.5580724000465,None,547.5644908000249,None,547.5644908000249,None,547.5644908000249,None,549.2242461199406,None,549.2242461199406,None,549.2242461199406,None,,,,,,,,,,,,,013,2022-05-11_17h33.59.064,Main,2022.1.1,60.20639962286481,
negative,neutral,1,j,l,,,,,,,,,11,15,213,3,,,,,,,,,main,1,1,1,neutral,negative,l,l,1,1.0456959002185613,549.227844200097,550.2387117999606,550.2246171000879,None,549.227844200097,None,549.227844200097,None,549.227844200097,None,551.2720019201282,None,551.2720019201282,None,551.2720019201282,None,,,,,,,,,,,,,013,2022-05-11_17h33.59.064,Main,2022.1.1,60.20639962286481,
positive,neutral,1,l,j,,,,,,,,,11,16,214,8,,,,,,,,,main,2,2,1,neutral,positive,j,j,1,0.8651250000111759,551.2911992000882,552.2889477000572,552.2746055999305,None,551.2911992000882,None,551.2911992000882,None,551.2911992000882,None,553.138735120045,None,553.138735120045,None,553.138735120045,None,,,,,,,,,,,,,013,2022-05-11_17h33.59.064,Main,2022.1.1,60.20639962286481,
neutral,neutral,2,k,k,,,,,,,,,11,17,215,10,,,,,,,,,main,2,2,2,neutral,neutral,k,k,1,0.6651250999420881,553.1422037000302,554.1578134000301,554.1412053999957,None,553.1422037000302,None,553.1422037000302,None,553.1422037000302,None,554.805247620074,None,554.805247620074,None,554.805247620074,None,,,,,,,,,,,,,013,2022-05-11_17h33.59.064,Main,2022.1.1,60.20639962286481,
positive,negative,1,l,j,,,,,,,,,12,0,216,5,,,,,,,,,main,2,2,1,negative,positive,j,j,1,0.9145802001003176,554.8089843001217,555.8218676000834,555.8052024999633,None,554.8089843001217,None,554.8089843001217,None,554.8089843001217,None,556.7215492200106,None,556.7215492200106,None,556.7215492200106,None,,,,,,,,,,,,,013,2022-05-11_17h33.59.064,Main,2022.1.1,60.20639962286481,
neutral,positive,2,k,k,,,,,,,,,12,1,217,13,,,,,,,,,main,1,1,2,positive,neutral,k,k,1,0.6484318999573588,556.7224221001379,557.7218607999384,557.7218607999384,None,556.7224221001379,None,556.7224221001379,None,556.7224221001379,None,558.3715640200302,None,558.3715640200302,None,558.3715640200302,None,,,,,,,,,,,,,013,2022-05-11_17h33.59.064,Main,2022.1.1,60.20639962286481,
neutral,positive,1,k,k,,,,,,,,,12,2,218,4,,,,,,,,,main,2,2,1,positive,neutral,k,k,1,0.6166336999740452,558.3749176999554,559.3746907000896,559.3746907000896,None,558.3749176999554,None,558.3749176999554,None,558.3749176999554,None,559.9895796199329,None,559.9895796199329,None,559.9895796199329,None,,,,,,,,,,,,,013,2022-05-11_17h33.59.064,Main,2022.1.1,60.20639962286481,
neutral,neutral,2,k,k,,,,,,,,,12,3,219,10,,,,,,,,,main,2,2,2,neutral,neutral,k,k,1,0.6327366998884827,559.9958234999795,561.0077871000394,560.9890976999886,None,559.9958234999795,None,559.9958234999795,None,559.9958234999795,None,561.6240130200516,None,561.6240130200516,None,561.6240130200516,None,,,,,,,,,,,,,013,2022-05-11_17h33.59.064,Main,2022.1.1,60.20639962286481,
positive,positive,2,l,j,,,,,,,,,12,4,220,11,,,,,,,,,main,2,2,2,positive,positive,j,j,1,0.7818045001477003,561.6270453000907,562.6415983999614,562.6244656001218,None,561.6270453000907,None,561.6270453000907,None,561.6270453000907,None,563.4073236201424,None,563.4073236201424,None,563.4073236201424,None,,,,,,,,,,,,,013,2022-05-11_17h33.59.064,Main,2022.1.1,60.20639962286481,
negative,neutral,2,j,l,,,,,,,,,12,5,221,12,,,,,,,,,main,2,2,2,neutral,negative,l,l,1,0.6953543999698013,563.4115037000738,564.4220394000877,564.4076320999302,None,563.4115037000738,None,563.4115037000738,None,563.4115037000738,None,565.1050654201302,None,565.1050654201302,None,565.1050654201302,None,,,,,,,,,,,,,013,2022-05-11_17h33.59.064,Main,2022.1.1,60.20639962286481,
positive,positive,1,l,j,,,,,,,,,12,6,222,2,,,,,,,,,main,2,2,1,positive,positive,j,j,1,0.7826491999439895,565.1094277999364,566.1222850999329,566.1076650000177,None,565.1094277999364,None,565.1094277999364,None,565.1094277999364,None,566.8882201200817,None,566.8882201200817,None,566.8882201200817,None,,,,,,,,,,,,,013,2022-05-11_17h33.59.064,Main,2022.1.1,60.20639962286481,
neutral,neutral,1,k,k,,,,,,,,,12,7,223,1,,,,,,,,,main,1,1,1,neutral,neutral,k,k,1,0.6469526998698711,566.9049853000324,567.9049591000658,567.8882965000812,None,566.9049853000324,None,566.9049853000324,None,566.9049853000324,None,568.538001620071,None,568.538001620071,None,568.538001620071,None,,,,,,,,,,,,,013,2022-05-11_17h33.59.064,Main,2022.1.1,60.20639962286481,
