target,distractor,set,ans1,ans2,rep_loop2.thisRepN,rep_loop2.thisTrialN,rep_loop2.thisN,rep_loop2.thisIndex,flanker_prac_loop.thisRepN,flanker_prac_loop.thisTrialN,flanker_prac_loop.thisN,flanker_prac_loop.thisIndex,flanker_main_loop.thisRepN,flanker_main_loop.thisTrialN,flanker_main_loop.thisN,flanker_main_loop.thisIndex,fl_inst_resp.keys,fl_inst_resp.rt,sound_1.started,sound_1.stopped,image_4.started,image_4.stopped,back_2.started,back_2.stopped,main_prac,fl_cold,fl_colt,fl_set,fl_dcond,fl_tcond,fl_ans,fl_res,fl_corr,fl_rt,fix_fl.started,fix_fl.stopped,targ.started,targ.stopped,j_button.started,j_button.stopped,k_button.started,k_button.stopped,l_button.started,l_button.stopped,j_button2.started,j_button2.stopped,k_button2.started,k_button2.stopped,l_button2.started,l_button2.stopped,mainback.started,mainback.stopped,key_resp.keys,mouse_6.x,mouse_6.y,mouse_6.leftButton,mouse_6.midButton,mouse_6.rightButton,mouse_6.started,mouse_6.stopped,text_2.started,text_2.stopped,id*,date,expName,psychopyVersion,frameRate,
,,,,,0,0,0,0,,,,,,,,,space,54.20867079985328,18.045167990005574,None,72.27745359996334,None,,,,,,,,,,,,,,,,,,,,,,,,,,,,,,,,,,,,,,,,,014,2022-05-11_19h27.11.980,Main,2022.1.1,60.00186005785491,
negative,neutral,1,j,l,,,,,0,0,0,3,,,,,,,,,,,76.42490960005671,None,prac,1,1,1,neutral,negative,j,k,0,2.876844899961725,78.4361056999769,79.44167980016209,79.4250020000618,None,78.4361056999769,None,78.4361056999769,None,78.4361056999769,None,82.31415690016001,None,82.31415690016001,None,82.31415690016001,None,,,,,,,,,,,,,014,2022-05-11_19h27.11.980,Main,2022.1.1,60.00186005785491,
positive,neutral,1,l,j,,,,,0,1,1,8,,,,,,,,,,,,,prac,1,1,1,neutral,positive,l,l,1,1.0842478000558913,83.32592970016412,84.341140500037,84.30778850009665,None,83.32592970016412,None,83.32592970016412,None,83.32592970016412,None,85.40778449012433,None,85.40778449012433,None,85.40778449012433,None,,,,,,,,,,,,,014,2022-05-11_19h27.11.980,Main,2022.1.1,60.00186005785491,
negative,neutral,2,j,l,,,,,0,2,2,12,,,,,,,,,,,,,prac,2,2,2,neutral,negative,j,j,1,1.1149661000818014,85.40824849996716,86.408221000107,86.408221000107,None,85.40824849996716,None,85.40824849996716,None,85.40824849996716,None,87.52475099007134,None,87.52475099007134,None,87.52475099007134,None,,,,,,,,,,,,,014,2022-05-11_19h27.11.980,Main,2022.1.1,60.00186005785491,
neutral,positive,2,k,k,,,,,0,3,3,13,,,,,,,,,,,,,prac,2,2,2,positive,neutral,k,k,1,0.8489385999273509,87.53098700009286,88.54141089995392,88.52482679998502,None,87.53098700009286,None,87.53098700009286,None,87.53098700009286,None,89.37472538996954,None,89.37472538996954,None,89.37472538996954,None,,,,,,,,,,,,,014,2022-05-11_19h27.11.980,Main,2022.1.1,60.00186005785491,
positive,positive,1,l,j,,,,,0,4,4,2,,,,,,,,,,,,,prac,1,1,1,positive,positive,l,l,1,0.9154225999955088,89.38055990007706,90.39137880015187,90.37470990000293,None,89.38055990007706,None,89.38055990007706,None,89.38055990007706,None,91.29136299013626,None,91.29136299013626,None,91.29136299013626,None,,,,,,,,,,,,,014,2022-05-11_19h27.11.980,Main,2022.1.1,60.00186005785491,
positive,positive,2,l,j,,,,,0,5,5,11,,,,,,,,,,,,,prac,1,1,2,positive,positive,l,l,1,0.781926800031215,91.29748710012063,92.3080158000812,92.2913401001133,None,91.29748710012063,None,91.29748710012063,None,91.29748710012063,None,93.07480508994777,None,93.07480508994777,None,93.07480508994777,None,,,,,,,,,,,,,014,2022-05-11_19h27.11.980,Main,2022.1.1,60.00186005785491,
neutral,negative,2,k,k,,,,,0,6,6,16,,,,,,,,,,,,,prac,1,1,2,negative,neutral,k,k,1,0.9315045000985265,93.08043100009672,94.09090579999611,94.07424270012416,None,93.08043100009672,None,93.08043100009672,None,93.08043100009672,None,95.0075726900017,None,95.0075726900017,None,95.0075726900017,None,,,,,,,,,,,,,014,2022-05-11_19h27.11.980,Main,2022.1.1,60.00186005785491,
negative,negative,2,j,l,,,,,0,7,7,9,,,,,,,,,,,,,prac,1,1,2,negative,negative,j,j,1,0.7891740999184549,95.00756200007163,96.01010910002515,95.99124650005251,None,95.00756200007163,None,95.00756200007163,None,95.00756200007163,None,96.7948137901025,None,96.7948137901025,None,96.7948137901025,None,,,,,,,,,,,,,014,2022-05-11_19h27.11.980,Main,2022.1.1,60.00186005785491,
neutral,neutral,1,k,k,,,,,0,8,8,1,,,,,,,,,,,,,prac,1,1,1,neutral,neutral,k,k,1,0.8416469998192042,96.80109800002538,97.80788910016418,97.7934684001375,None,96.80109800002538,None,96.80109800002538,None,96.80109800002538,None,98.64126858997625,None,98.64126858997625,None,98.64126858997625,None,,,,,,,,,,,,,014,2022-05-11_19h27.11.980,Main,2022.1.1,60.00186005785491,
neutral,neutral,2,k,k,,,,,0,9,9,10,,,,,,,,,,,,,prac,2,2,2,neutral,neutral,k,k,1,0.8321106000803411,98.64424269995652,99.65786290005781,99.64118150016293,None,98.64424269995652,None,98.64424269995652,None,98.64424269995652,None,100.47452329003718,None,100.47452329003718,None,100.47452329003718,None,,,,,,,,,,,,,014,2022-05-11_19h27.11.980,Main,2022.1.1,60.00186005785491,
neutral,negative,1,k,k,,,,,0,10,10,7,,,,,,,,,,,,,prac,1,1,1,negative,neutral,k,k,1,0.840652999933809,100.48018740001135,101.49115010001697,101.4768272000365,None,100.48018740001135,None,100.48018740001135,None,100.48018740001135,None,102.31631008998957,None,102.31631008998957,None,102.31631008998957,None,,,,,,,,,,,,,014,2022-05-11_19h27.11.980,Main,2022.1.1,60.00186005785491,
negative,negative,1,j,l,,,,,0,11,11,0,,,,,,,,,,,,,prac,2,2,1,negative,negative,j,j,1,0.9736403001006693,102.33275729999878,103.34097170014866,103.30763630010188,None,102.33275729999878,None,102.33275729999878,None,102.33275729999878,None,104.29101908996236,None,104.29101908996236,None,104.29101908996236,None,,,,,,,,,,,,,014,2022-05-11_19h27.11.980,Main,2022.1.1,60.00186005785491,
neutral,positive,1,k,k,,,,,0,12,12,4,,,,,,,,,,,,,prac,2,2,1,positive,neutral,k,k,1,0.9152467998210341,104.30766890011728,105.30765830003656,105.29124779999256,None,104.30766890011728,None,104.30766890011728,None,104.30766890011728,None,106.20782008997631,None,106.20782008997631,None,106.20782008997631,None,,,,,,,,,,,,,014,2022-05-11_19h27.11.980,Main,2022.1.1,60.00186005785491,
negative,positive,2,j,l,,,,,0,13,13,15,,,,,,,,,,,,,prac,2,2,2,positive,negative,j,j,1,1.0319077000021935,106.21318270009942,107.22425359999761,107.2076566000469,None,106.21318270009942,None,106.21318270009942,None,106.21318270009942,None,108.24098659001757,None,108.24098659001757,None,108.24098659001757,None,,,,,,,,,,,,,014,2022-05-11_19h27.11.980,Main,2022.1.1,60.00186005785491,
positive,negative,2,l,j,,,,,0,14,14,14,,,,,,,,,,,,,prac,1,1,2,negative,positive,l,l,1,0.9653644999489188,108.24621320003644,109.25762729998678,109.24091550009325,None,108.24621320003644,None,108.24621320003644,None,108.24621320003644,None,110.20757228995208,None,110.20757228995208,None,110.20757228995208,None,,,,,,,,,,,,,014,2022-05-11_19h27.11.980,Main,2022.1.1,60.00186005785491,
positive,negative,1,l,j,,,,,0,15,15,5,,,,,,,,,,,,,prac,2,2,1,negative,positive,l,l,1,1.0652830000035465,110.2109008000698,111.22390760015696,111.20722420001402,None,110.2109008000698,None,110.2109008000698,None,110.2109008000698,None,112.27393779016566,None,112.27393779016566,None,112.27393779016566,None,,,,,,,,,,,,,014,2022-05-11_19h27.11.980,Main,2022.1.1,60.00186005785491,
negative,positive,1,j,l,,,,,0,16,16,6,,,,,,,,,,,,,prac,2,2,1,positive,negative,j,j,1,0.999034799868241,112.27733940002508,113.2909115999937,113.27423830004409,None,112.27733940002508,None,112.27733940002508,None,112.27733940002508,None,114.27431629013736,None,114.27431629013736,None,114.27431629013736,None,,,,,,,,,,,,,014,2022-05-11_19h27.11.980,Main,2022.1.1,60.00186005785491,
positive,neutral,2,l,j,,,,,0,17,17,17,,,,,,,,,,,,,prac,1,1,2,neutral,positive,l,l,1,0.9153784001246095,114.2796503000427,115.29085270012729,115.2741863001138,None,114.2796503000427,None,114.2796503000427,None,114.2796503000427,None,116.19096788994503,None,116.19096788994503,None,116.19096788994503,None,,,,,,,,,,,,,014,2022-05-11_19h27.11.980,Main,2022.1.1,60.00186005785491,
neutral,neutral,2,k,k,,,,,1,0,18,10,,,,,,,,,,,,,prac,2,2,2,neutral,neutral,k,k,1,0.8987251999787986,116.19684590003453,117.20747549994849,117.1930625999812,None,116.19684590003453,None,116.19684590003453,None,116.19684590003453,None,118.0909355899552,None,118.0909355899552,None,118.0909355899552,None,,,,,,,,,,,,,014,2022-05-11_19h27.11.980,Main,2022.1.1,60.00186005785491,
negative,neutral,1,j,l,,,,,1,1,19,3,,,,,,,,,,,,,prac,1,1,1,neutral,negative,j,j,1,0.9649335001595318,118.09427260002121,119.11343830008991,119.0964669000823,None,118.09427260002121,None,118.09427260002121,None,118.09427260002121,None,120.05704839013052,None,120.05704839013052,None,120.05704839013052,None,,,,,,,,,,,,,014,2022-05-11_19h27.11.980,Main,2022.1.1,60.00186005785491,
neutral,negative,1,k,k,,,,,1,2,20,7,,,,,,,,,,,,,prac,1,1,1,negative,neutral,k,k,1,0.8821778998244554,120.05704180011526,121.05701260012574,121.05701260012574,None,120.05704180011526,None,120.05704180011526,None,120.05704180011526,None,121.94070609004703,None,121.94070609004703,None,121.94070609004703,None,,,,,,,,,,,,,014,2022-05-11_19h27.11.980,Main,2022.1.1,60.00186005785491,
neutral,neutral,1,k,k,,,,,1,3,21,1,,,,,,,,,,,,,prac,2,2,1,neutral,neutral,k,k,1,0.8320267999079078,121.94607840012759,122.95735669997521,122.92627290007658,None,121.94607840012759,None,121.94607840012759,None,121.94607840012759,None,123.7740139900474,None,123.7740139900474,None,123.7740139900474,None,,,,,,,,,,,,,014,2022-05-11_19h27.11.980,Main,2022.1.1,60.00186005785491,
neutral,negative,2,k,k,,,,,1,4,22,16,,,,,,,,,,,,,prac,2,2,2,negative,neutral,k,k,1,0.7652175000403076,123.78000000002794,124.79065129999071,124.7739868001081,None,123.78000000002794,None,123.78000000002794,None,123.78000000002794,None,125.54064849016723,None,125.54064849016723,None,125.54064849016723,None,,,,,,,,,,,,,014,2022-05-11_19h27.11.980,Main,2022.1.1,60.00186005785491,
negative,negative,1,j,l,,,,,1,5,23,0,,,,,,,,,,,,,prac,2,2,1,negative,negative,j,j,1,1.0987931999843568,125.54642070014961,126.559606899973,126.54293420002796,None,125.54642070014961,None,125.54642070014961,None,125.54642070014961,None,127.64060089013074,None,127.64060089013074,None,127.64060089013074,None,,,,,,,,,,,,,014,2022-05-11_19h27.11.980,Main,2022.1.1,60.00186005785491,
negative,positive,1,j,l,,,,,1,6,24,6,,,,,,,,,,,,,prac,2,2,1,positive,negative,j,j,1,0.6818645000457764,127.64619450015016,128.65951779996976,128.64057569997385,None,127.64619450015016,None,127.64619450015016,None,127.64619450015016,None,129.32351519002114,None,129.32351519002114,None,129.32351519002114,None,,,,,,,,,,,,,014,2022-05-11_19h27.11.980,Main,2022.1.1,60.00186005785491,
neutral,positive,2,k,k,,,,,1,7,25,13,,,,,,,,,,,,,prac,2,2,2,positive,neutral,k,k,1,0.8662496001925319,129.32360290014185,130.32392700016499,130.32392700016499,None,129.32360290014185,None,129.32360290014185,None,129.32360290014185,None,131.19020209016745,None,131.19020209016745,None,131.19020209016745,None,,,,,,,,,,,,,014,2022-05-11_19h27.11.980,Main,2022.1.1,60.00186005785491,
negative,negative,2,j,l,,,,,1,8,26,9,,,,,,,,,,,,,prac,1,1,2,negative,negative,j,j,1,1.0645596000831574,131.20689020003192,132.20716440002434,132.1927577999886,None,131.20689020003192,None,131.20689020003192,None,131.20689020003192,None,133.2572647901019,None,133.2572647901019,None,133.2572647901019,None,,,,,,,,,,,,,014,2022-05-11_19h27.11.980,Main,2022.1.1,60.00186005785491,
neutral,positive,1,k,k,,,,,1,9,27,4,,,,,,,,,,,,,prac,2,2,1,positive,neutral,k,k,1,0.7821283999364823,133.26288030017167,134.2761301000137,134.25712390011176,None,133.26288030017167,None,133.26288030017167,None,133.26288030017167,None,135.0404570901068,None,135.0404570901068,None,135.0404570901068,None,,,,,,,,,,,,,014,2022-05-11_19h27.11.980,Main,2022.1.1,60.00186005785491,
positive,neutral,1,l,j,,,,,1,10,28,8,,,,,,,,,,,,,prac,1,1,1,neutral,positive,l,l,1,1.04857619991526,135.04597380012274,136.05708699999377,136.0404330000747,None,135.04597380012274,None,135.04597380012274,None,135.04597380012274,None,137.09041829009075,None,137.09041829009075,None,137.09041829009075,None,,,,,,,,,,,,,014,2022-05-11_19h27.11.980,Main,2022.1.1,60.00186005785491,
negative,positive,2,j,l,,,,,1,11,29,15,,,,,,,,,,,,,prac,2,2,2,positive,negative,j,j,1,1.0816583998966962,137.09657729999162,138.10704479995184,138.09038479998708,None,137.09657729999162,None,137.09657729999162,None,137.09657729999162,None,139.17331129007508,None,139.17331129007508,None,139.17331129007508,None,,,,,,,,,,,,,014,2022-05-11_19h27.11.980,Main,2022.1.1,60.00186005785491,
positive,positive,2,l,j,,,,,1,12,30,11,,,,,,,,,,,,,prac,1,1,2,positive,positive,l,l,1,0.8488541999831796,139.1733169001527,140.1733085999731,140.1733085999731,None,139.1733169001527,None,139.1733169001527,None,139.1733169001527,None,141.0233440899523,None,141.0233440899523,None,141.0233440899523,None,,,,,,,,,,,,,014,2022-05-11_19h27.11.980,Main,2022.1.1,60.00186005785491,
positive,negative,1,l,j,,,,,1,13,31,5,,,,,,,,,,,,,prac,2,2,1,negative,positive,l,l,1,0.7325225998647511,141.02632710011676,142.0259446001146,142.00925400014967,None,141.02632710011676,None,141.02632710011676,None,141.02632710011676,None,142.7569633901352,None,142.7569633901352,None,142.7569633901352,None,,,,,,,,,,,,,014,2022-05-11_19h27.11.980,Main,2022.1.1,60.00186005785491,
positive,negative,2,l,j,,,,,1,14,32,14,,,,,,,,,,,,,prac,2,2,2,negative,positive,l,l,1,0.6986307001207024,142.76244070008397,143.77580430009402,143.75925779994577,None,142.76244070008397,None,142.76244070008397,None,142.76244070008397,None,144.45692939006258,None,144.45692939006258,None,144.45692939006258,None,,,,,,,,,,,,,014,2022-05-11_19h27.11.980,Main,2022.1.1,60.00186005785491,
negative,neutral,2,j,l,,,,,1,15,33,12,,,,,,,,,,,,,prac,2,2,2,neutral,negative,j,j,1,0.8985011000186205,144.4625134000089,145.4758411999792,145.45692130015232,None,144.4625134000089,None,144.4625134000089,None,144.4625134000089,None,146.35655759016518,None,146.35655759016518,None,146.35655759016518,None,,,,,,,,,,,,,014,2022-05-11_19h27.11.980,Main,2022.1.1,60.00186005785491,
positive,positive,1,l,j,,,,,1,16,34,2,,,,,,,,,,,,,prac,1,1,1,positive,positive,l,l,1,1.0818656999617815,146.36224190006033,147.37576910015196,147.3591714000795,None,146.36224190006033,None,146.36224190006033,None,146.36224190006033,None,148.43978159010877,None,148.43978159010877,None,148.43978159010877,None,,,,,,,,,,,,,014,2022-05-11_19h27.11.980,Main,2022.1.1,60.00186005785491,
positive,neutral,2,l,j,,,,,1,17,35,17,,,,,,,,,,,,,prac,2,2,2,neutral,positive,l,l,1,0.8488073998596519,148.43977830000222,149.43976480001584,149.43976480001584,None,148.43977830000222,None,148.43977830000222,None,148.43977830000222,None,150.28978189008777,None,150.28978189008777,None,150.28978189008777,None,,,,,,,,,,,,,014,2022-05-11_19h27.11.980,Main,2022.1.1,60.00186005785491,
,,,,,,,,,,,,,,,,,,,,,,,,,,,,,,,,,,,,,,,,,,,,,,,,,,,150.289776599966,None,None,,,,,,,,,,014,2022-05-11_19h27.11.980,Main,2022.1.1,60.00186005785491,
,,,,,,,,,,,,,,,,,,,,,,,,,,,,,,,,,,,,,,,,,,,,,,,,,,,,,,0.087037034,-0.106481485,1,0,0,0.010936190141364932,None,,,014,2022-05-11_19h27.11.980,Main,2022.1.1,60.00186005785491,
negative,positive,1,j,l,,,,,,,,,0,0,0,6,,,,,,,155.92555369995534,None,main,2,2,1,positive,negative,j,j,1,1.1117353001609445,157.92937300004996,158.93995469994843,158.9232777999714,None,157.92937300004996,None,157.92937300004996,None,157.92937300004996,None,160.03953279017006,None,160.03953279017006,None,160.03953279017006,None,,,,,,,,,,,,,014,2022-05-11_19h27.11.980,Main,2022.1.1,60.00186005785491,
positive,negative,2,l,j,,,,,,,,,0,1,1,14,,,,,,,,,main,1,1,2,negative,positive,l,l,1,0.781799100106582,160.0417375001125,161.05618440010585,161.0395172999706,None,160.0417375001125,None,160.0417375001125,None,160.0417375001125,None,161.82292249004823,None,161.82292249004823,None,161.82292249004823,None,,,,,,,,,,,,,014,2022-05-11_19h27.11.980,Main,2022.1.1,60.00186005785491,
positive,neutral,1,l,j,,,,,,,,,0,2,2,8,,,,,,,,,main,2,2,1,neutral,positive,l,l,1,0.9143253001384437,161.82944860006683,162.83986050006934,162.82318340009078,None,161.82944860006683,None,161.82944860006683,None,161.82944860006683,None,163.7399660900468,None,163.7399660900468,None,163.7399660900468,None,,,,,,,,,,,,,014,2022-05-11_19h27.11.980,Main,2022.1.1,60.00186005785491,
negative,negative,1,j,l,,,,,,,,,0,3,3,0,,,,,,,,,main,2,2,1,negative,negative,j,j,1,0.9483483999501914,163.74606620008126,164.7587222000584,164.7398737000767,None,163.74606620008126,None,163.74606620008126,None,163.74606620008126,None,165.68979458997492,None,165.68979458997492,None,165.68979458997492,None,,,,,,,,,,,,,014,2022-05-11_19h27.11.980,Main,2022.1.1,60.00186005785491,
negative,positive,2,j,l,,,,,,,,,0,4,4,15,,,,,,,,,main,2,2,2,positive,negative,j,j,1,0.965141799999401,165.69546009995975,166.7064569001086,166.68979139998555,None,165.69546009995975,None,165.69546009995975,None,165.69546009995975,None,167.65649289006834,None,167.65649289006834,None,167.65649289006834,None,,,,,,,,,,,,,014,2022-05-11_19h27.11.980,Main,2022.1.1,60.00186005785491,
negative,neutral,2,j,l,,,,,,,,,0,5,5,12,,,,,,,,,main,1,1,2,neutral,negative,j,j,1,0.6689532999880612,167.66224770015106,168.67307740007527,168.65642060013488,None,167.66224770015106,None,167.66224770015106,None,167.66224770015106,None,169.326966989995,None,169.326966989995,None,169.326966989995,None,,,,,,,,,,,,,014,2022-05-11_19h27.11.980,Main,2022.1.1,60.00186005785491,
positive,positive,2,l,j,,,,,,,,,0,6,6,11,,,,,,,,,main,2,2,2,positive,positive,l,l,1,0.7609011998865753,169.33970500016585,170.33934630011208,170.3226685000118,None,169.33970500016585,None,169.33970500016585,None,169.33970500016585,None,171.08930499011186,None,171.08930499011186,None,171.08930499011186,None,,,,,,,,,,,,,014,2022-05-11_19h27.11.980,Main,2022.1.1,60.00186005785491,
neutral,neutral,2,k,k,,,,,,,,,0,7,7,10,,,,,,,,,main,1,1,2,neutral,neutral,k,k,1,0.7980402000248432,171.08931890013628,172.0893272999674,172.0893272999674,None,171.08931890013628,None,171.08931890013628,None,171.08931890013628,None,172.88930379014928,None,172.88930379014928,None,172.88930379014928,None,,,,,,,,,,,,,014,2022-05-11_19h27.11.980,Main,2022.1.1,60.00186005785491,
negative,neutral,1,j,l,,,,,,,,,0,8,8,3,,,,,,,,,main,1,1,1,neutral,negative,j,j,1,1.0156700001098216,172.89533860003576,173.90636170003563,173.87520270003006,None,172.89533860003576,None,172.89533860003576,None,172.89533860003576,None,174.90636949006003,None,174.90636949006003,None,174.90636949006003,None,,,,,,,,,,,,,014,2022-05-11_19h27.11.980,Main,2022.1.1,60.00186005785491,
neutral,negative,1,k,k,,,,,,,,,0,9,9,7,,,,,,,,,main,2,2,1,negative,neutral,k,k,1,0.9477111999876797,174.91283229994588,175.92292010015808,175.90637090010568,None,174.91283229994588,None,174.91283229994588,None,174.91283229994588,None,176.85629919006024,None,176.85629919006024,None,176.85629919006024,None,,,,,,,,,,,,,014,2022-05-11_19h27.11.980,Main,2022.1.1,60.00186005785491,
neutral,negative,2,k,k,,,,,,,,,0,10,10,16,,,,,,,,,main,2,2,2,negative,neutral,k,k,1,0.7483263001777232,176.8729465000797,177.87516209995374,177.85621040011756,None,176.8729465000797,None,176.8729465000797,None,176.8729465000797,None,178.6062133901054,None,178.6062133901054,None,178.6062133901054,None,,,,,,,,,,,,,014,2022-05-11_19h27.11.980,Main,2022.1.1,60.00186005785491,
neutral,positive,1,k,k,,,,,,,,,0,11,11,4,,,,,,,,,main,2,2,1,positive,neutral,k,k,1,0.7978940999601036,178.61260230001062,179.62284860014915,179.60847890004516,None,178.61260230001062,None,178.61260230001062,None,178.61260230001062,None,180.40617039005738,None,180.40617039005738,None,180.40617039005738,None,,,,,,,,,,,,,014,2022-05-11_19h27.11.980,Main,2022.1.1,60.00186005785491,
neutral,positive,2,k,k,,,,,,,,,0,12,12,13,,,,,,,,,main,2,2,2,positive,neutral,k,k,1,0.7347313999198377,180.4122870999854,181.42242030007765,181.40575670008548,None,180.4122870999854,None,180.4122870999854,None,180.4122870999854,None,182.13907299002167,None,182.13907299002167,None,182.13907299002167,None,,,,,,,,,,,,,014,2022-05-11_19h27.11.980,Main,2022.1.1,60.00186005785491,
neutral,neutral,1,k,k,,,,,,,,,0,13,13,1,,,,,,,,,main,1,1,1,neutral,neutral,k,k,1,0.6789454999379814,182.14354420010932,183.1557766001206,183.13910969998688,None,182.14354420010932,None,182.14354420010932,None,182.14354420010932,None,183.8227595900884,None,183.8227595900884,None,183.8227595900884,None,,,,,,,,,,,,,014,2022-05-11_19h27.11.980,Main,2022.1.1,60.00186005785491,
positive,neutral,2,l,j,,,,,,,,,0,14,14,17,,,,,,,,,main,1,1,2,neutral,positive,l,l,1,0.8971921000629663,183.8272542001214,184.8394003000576,184.8227403999772,None,183.8272542001214,None,183.8272542001214,None,183.8272542001214,None,185.72286659011152,None,185.72286659011152,None,185.72286659011152,None,,,,,,,,,,,,,014,2022-05-11_19h27.11.980,Main,2022.1.1,60.00186005785491,
positive,positive,1,l,j,,,,,,,,,0,15,15,2,,,,,,,,,main,1,1,1,positive,positive,l,l,1,0.7648340000305325,185.72852939995937,186.7420825001318,186.72501719999127,None,185.72852939995937,None,185.72852939995937,None,185.72852939995937,None,187.48934949000832,None,187.48934949000832,None,187.48934949000832,None,,,,,,,,,,,,,014,2022-05-11_19h27.11.980,Main,2022.1.1,60.00186005785491,
positive,negative,1,l,j,,,,,,,,,0,16,16,5,,,,,,,,,main,2,2,1,negative,positive,l,l,1,0.7152080000378191,187.49565759999678,188.50599019997753,188.4893384000752,None,187.49565759999678,None,187.49565759999678,None,187.49565759999678,None,189.20601879011375,None,189.20601879011375,None,189.20601879011375,None,,,,,,,,,,,,,014,2022-05-11_19h27.11.980,Main,2022.1.1,60.00186005785491,
negative,negative,2,j,l,,,,,,,,,0,17,17,9,,,,,,,,,main,1,1,2,negative,negative,j,j,1,0.8978771001566201,189.2121226999443,190.2250376001466,190.20600760006346,None,189.2121226999443,None,189.2121226999443,None,189.2121226999443,None,191.1055476900423,None,191.1055476900423,None,191.1055476900423,None,,,,,,,,,,,,,014,2022-05-11_19h27.11.980,Main,2022.1.1,60.00186005785491,
positive,positive,2,l,j,,,,,,,,,1,0,18,11,,,,,,,,,main,1,1,2,positive,positive,l,l,1,0.8153904001228511,191.1055527999997,192.10554990009405,192.10554990009405,None,191.1055527999997,None,191.1055527999997,None,191.1055527999997,None,192.9222159900004,None,192.9222159900004,None,192.9222159900004,None,,,,,,,,,,,,,014,2022-05-11_19h27.11.980,Main,2022.1.1,60.00186005785491,
neutral,neutral,2,k,k,,,,,,,,,1,1,19,10,,,,,,,,,main,1,1,2,neutral,neutral,k,k,1,0.8815711999777704,192.92288830014877,193.9222150000278,193.9222150000278,None,192.92288830014877,None,192.92288830014877,None,192.92288830014877,None,194.80554889000487,None,194.80554889000487,None,194.80554889000487,None,,,,,,,,,,,,,014,2022-05-11_19h27.11.980,Main,2022.1.1,60.00186005785491,
neutral,negative,1,k,k,,,,,,,,,1,2,20,7,,,,,,,,,main,2,2,1,negative,neutral,k,k,1,0.7823709999211133,194.8097018999979,195.8225161000155,195.7914658000227,None,194.8097018999979,None,194.8097018999979,None,194.8097018999979,None,196.58923219002318,None,196.58923219002318,None,196.58923219002318,None,,,,,,,,,,,,,014,2022-05-11_19h27.11.980,Main,2022.1.1,60.00186005785491,
neutral,neutral,1,k,k,,,,,,,,,1,3,21,1,,,,,,,,,main,2,2,1,neutral,neutral,k,k,1,0.6148143999744207,196.5924414000474,197.60581229999661,197.58913179999217,None,196.5924414000474,None,196.5924414000474,None,196.5924414000474,None,198.2057896901155,None,198.2057896901155,None,198.2057896901155,None,,,,,,,,,,,,,014,2022-05-11_19h27.11.980,Main,2022.1.1,60.00186005785491,
positive,negative,1,l,j,,,,,,,,,1,4,22,5,,,,,,,,,main,2,2,1,negative,positive,l,l,1,0.831218299921602,198.21812980016693,199.22242849995382,199.20576340006664,None,198.21812980016693,None,198.21812980016693,None,198.21812980016693,None,200.03917809014675,None,200.03917809014675,None,200.03917809014675,None,,,,,,,,,,,,,014,2022-05-11_19h27.11.980,Main,2022.1.1,60.00186005785491,
positive,positive,1,l,j,,,,,,,,,1,5,23,2,,,,,,,,,main,2,2,1,positive,positive,l,l,1,0.7025651000440121,200.0452901001554,201.05802939995192,201.03905360004865,None,200.0452901001554,None,200.0452901001554,None,200.0452901001554,None,201.73912479004358,None,201.73912479004358,None,201.73912479004358,None,,,,,,,,,,,,,014,2022-05-11_19h27.11.980,Main,2022.1.1,60.00186005785491,
negative,neutral,1,j,l,,,,,,,,,1,6,24,3,,,,,,,,,main,2,2,1,neutral,negative,j,j,1,1.1758437000680715,201.74826929997653,202.75532810017467,202.73866529995576,None,201.74826929997653,None,201.74826929997653,None,201.74826929997653,None,203.9219981899718,None,203.9219981899718,None,203.9219981899718,None,,,,,,,,,,,,,014,2022-05-11_19h27.11.980,Main,2022.1.1,60.00186005785491,
negative,neutral,2,j,l,,,,,,,,,1,7,25,12,,,,,,,,,main,2,2,2,neutral,negative,j,j,1,0.815088199917227,203.92781660007313,204.9389635999687,204.9224168001674,None,203.92781660007313,None,203.92781660007313,None,203.92781660007313,None,205.73863149012905,None,205.73863149012905,None,205.73863149012905,None,,,,,,,,,,,,,014,2022-05-11_19h27.11.980,Main,2022.1.1,60.00186005785491,
neutral,positive,2,k,k,,,,,,,,,1,8,26,13,,,,,,,,,main,1,1,2,positive,neutral,k,k,1,0.8321401998400688,205.7446793001145,206.75786360003985,206.74133100011386,None,205.7446793001145,None,205.7446793001145,None,205.7446793001145,None,207.5723321900936,None,207.5723321900936,None,207.5723321900936,None,,,,,,,,,,,,,014,2022-05-11_19h27.11.980,Main,2022.1.1,60.00186005785491,
negative,positive,2,j,l,,,,,,,,,1,9,27,15,,,,,,,,,main,2,2,2,positive,negative,j,j,1,1.1142452999483794,207.57883380004205,208.59121960005723,208.57222440000623,None,207.57883380004205,None,207.57883380004205,None,207.57883380004205,None,209.68887269005646,None,209.68887269005646,None,209.68887269005646,None,,,,,,,,,,,,,014,2022-05-11_19h27.11.980,Main,2022.1.1,60.00186005785491,
neutral,negative,2,k,k,,,,,,,,,1,10,28,16,,,,,,,,,main,2,2,2,negative,neutral,k,k,1,0.866036499850452,209.69226590008475,210.70552980015054,210.68885920010507,None,209.69226590008475,None,209.69226590008475,None,209.69226590008475,None,211.5555011899909,None,211.5555011899909,None,211.5555011899909,None,,,,,,,,,,,,,014,2022-05-11_19h27.11.980,Main,2022.1.1,60.00186005785491,
positive,neutral,2,l,j,,,,,,,,,1,11,29,17,,,,,,,,,main,1,1,2,neutral,positive,l,l,1,0.7473639999516308,211.55980190006085,212.5717824001331,212.5551201000344,None,211.55980190006085,None,211.55980190006085,None,211.55980190006085,None,213.30511199005414,None,213.30511199005414,None,213.30511199005414,None,,,,,,,,,,,,,014,2022-05-11_19h27.11.980,Main,2022.1.1,60.00186005785491,
negative,positive,1,j,l,,,,,,,,,1,12,30,6,,,,,,,,,main,2,2,1,positive,negative,j,j,1,1.0639176999684423,213.3102753001731,214.32176050008275,214.30512060015462,None,213.3102753001731,None,213.3102753001731,None,213.3102753001731,None,215.37179849015084,None,215.37179849015084,None,215.37179849015084,None,,,,,,,,,,,,,014,2022-05-11_19h27.11.980,Main,2022.1.1,60.00186005785491,
neutral,positive,1,k,k,,,,,,,,,1,13,31,4,,,,,,,,,main,1,1,1,positive,neutral,k,k,1,0.8484024000354111,215.37804610002786,216.3910387000069,216.3720873000566,None,215.37804610002786,None,215.37804610002786,None,215.37804610002786,None,217.22209209015128,None,217.22209209015128,None,217.22209209015128,None,,,,,,,,,,,,,014,2022-05-11_19h27.11.980,Main,2022.1.1,60.00186005785491,
positive,negative,2,l,j,,,,,,,,,1,14,32,14,,,,,,,,,main,1,1,2,negative,positive,l,l,1,0.8985525998286903,217.23880659998395,218.24091350007802,218.2076958999969,None,217.23880659998395,None,217.23880659998395,None,217.23880659998395,None,219.12200369008352,None,219.12200369008352,None,219.12200369008352,None,,,,,,,,,,,,,014,2022-05-11_19h27.11.980,Main,2022.1.1,60.00186005785491,
negative,negative,2,j,l,,,,,,,,,1,15,33,9,,,,,,,,,main,2,2,2,negative,negative,j,j,1,0.9983930999878794,219.12540040002204,220.1386572001502,220.12427290016785,None,219.12540040002204,None,219.12540040002204,None,219.12540040002204,None,221.1219733899692,None,221.1219733899692,None,221.1219733899692,None,,,,,,,,,,,,,014,2022-05-11_19h27.11.980,Main,2022.1.1,60.00186005785491,
positive,neutral,1,l,j,,,,,,,,,1,16,34,8,,,,,,,,,main,2,2,1,neutral,positive,l,l,1,0.915256799897179,221.1277529001236,222.14082800014876,222.12420419999398,None,221.1277529001236,None,221.1277529001236,None,221.1277529001236,None,223.03859479001258,None,223.03859479001258,None,223.03859479001258,None,,,,,,,,,,,,,014,2022-05-11_19h27.11.980,Main,2022.1.1,60.00186005785491,
negative,negative,1,j,l,,,,,,,,,1,17,35,0,,,,,,,,,main,1,1,1,negative,negative,j,j,1,0.9646949998568743,223.0421817000024,224.05484230001457,224.03818990010768,None,223.0421817000024,None,223.0421817000024,None,223.0421817000024,None,225.00483449010645,None,225.00483449010645,None,225.00483449010645,None,,,,,,,,,,,,,014,2022-05-11_19h27.11.980,Main,2022.1.1,60.00186005785491,
negative,neutral,2,j,l,,,,,,,,,2,0,36,12,,,,,,,,,main,2,2,2,neutral,negative,j,j,1,0.9986516998615116,225.00498730014078,226.00747480010614,226.00747480010614,None,225.00498730014078,None,225.00498730014078,None,225.00498730014078,None,227.00517829016317,None,227.00517829016317,None,227.00517829016317,None,,,,,,,,,,,,,014,2022-05-11_19h27.11.980,Main,2022.1.1,60.00186005785491,
negative,negative,1,j,l,,,,,,,,,2,1,37,0,,,,,,,,,main,2,2,1,negative,negative,j,j,1,0.8816487998701632,227.01104440004565,228.02181069995277,228.0051596001722,None,227.01104440004565,None,227.01104440004565,None,227.01104440004565,None,228.8884563899832,None,228.8884563899832,None,228.8884563899832,None,,,,,,,,,,,,,014,2022-05-11_19h27.11.980,Main,2022.1.1,60.00186005785491,
negative,positive,2,j,l,,,,,,,,,2,2,38,15,,,,,,,,,main,2,2,2,positive,negative,j,j,1,0.9145275000482798,228.8948870000895,229.90511410008185,229.88846380007453,None,228.8948870000895,None,228.8948870000895,None,228.8948870000895,None,230.8051084901439,None,230.8051084901439,None,230.8051084901439,None,,,,,,,,,,,,,014,2022-05-11_19h27.11.980,Main,2022.1.1,60.00186005785491,
positive,positive,2,l,j,,,,,,,,,2,3,39,11,,,,,,,,,main,2,2,2,positive,positive,l,l,1,0.881787900114432,230.81095240009017,231.82172950007953,231.8050764000509,None,230.81095240009017,None,230.81095240009017,None,230.81095240009017,None,232.68837879013736,None,232.68837879013736,None,232.68837879013736,None,,,,,,,,,,,,,014,2022-05-11_19h27.11.980,Main,2022.1.1,60.00186005785491,
neutral,neutral,1,k,k,,,,,,,,,2,4,40,1,,,,,,,,,main,1,1,1,neutral,neutral,k,k,1,0.8149678001645952,232.69188940012828,233.70466789999045,233.6879875001032,None,232.69188940012828,None,232.69188940012828,None,232.69188940012828,None,234.50489739000332,None,234.50489739000332,None,234.50489739000332,None,,,,,,,,,,,,,014,2022-05-11_19h27.11.980,Main,2022.1.1,60.00186005785491,
positive,neutral,1,l,j,,,,,,,,,2,5,41,8,,,,,,,,,main,1,1,1,neutral,positive,l,l,1,0.8814884000457823,234.50486180000007,235.50467040017247,235.50467040017247,None,234.50486180000007,None,234.50486180000007,None,234.50486180000007,None,236.38799159016926,None,236.38799159016926,None,236.38799159016926,None,,,,,,,,,,,,,014,2022-05-11_19h27.11.980,Main,2022.1.1,60.00186005785491,
neutral,positive,2,k,k,,,,,,,,,2,6,42,13,,,,,,,,,main,2,2,2,positive,neutral,k,k,1,0.8321161998901516,236.39159250003286,237.40730489999987,237.3906476001721,None,236.39159250003286,None,236.39159250003286,None,236.39159250003286,None,238.22161909004208,None,238.22161909004208,None,238.22161909004208,None,,,,,,,,,,,,,014,2022-05-11_19h27.11.980,Main,2022.1.1,60.00186005785491,
positive,neutral,2,l,j,,,,,,,,,2,7,43,17,,,,,,,,,main,2,2,2,neutral,positive,l,l,1,0.9318679999560118,238.22765560005791,239.2382364999503,239.22159070009366,None,238.22765560005791,None,238.22765560005791,None,238.22765560005791,None,240.1549144901568,None,240.1549144901568,None,240.1549144901568,None,,,,,,,,,,,,,014,2022-05-11_19h27.11.980,Main,2022.1.1,60.00186005785491,
negative,neutral,1,j,l,,,,,,,,,2,8,44,3,,,,,,,,,main,1,1,1,neutral,negative,j,j,1,0.9647592999972403,240.15855649998412,241.17155260010622,241.1571909999475,None,240.15855649998412,None,240.15855649998412,None,240.15855649998412,None,242.12153248998803,None,242.12153248998803,None,242.12153248998803,None,,,,,,,,,,,,,014,2022-05-11_19h27.11.980,Main,2022.1.1,60.00186005785491,
positive,positive,1,l,j,,,,,,,,,2,9,45,2,,,,,,,,,main,2,2,1,positive,positive,l,l,1,0.8818093000445515,242.1273837001063,243.14042149996385,243.12379270000383,None,242.1273837001063,None,242.1273837001063,None,242.1273837001063,None,244.00481739009265,None,244.00481739009265,None,244.00481739009265,None,,,,,,,,,,,,,014,2022-05-11_19h27.11.980,Main,2022.1.1,60.00186005785491,
positive,negative,1,l,j,,,,,,,,,2,10,46,5,,,,,,,,,main,2,2,1,negative,positive,l,l,1,0.6648131001275033,244.00926390010864,245.0210756000597,245.0044196001254,None,244.00926390010864,None,244.00926390010864,None,244.00926390010864,None,245.67109479007777,None,245.67109479007777,None,245.67109479007777,None,,,,,,,,,,,,,014,2022-05-11_19h27.11.980,Main,2022.1.1,60.00186005785491,
negative,negative,2,j,l,,,,,,,,,2,11,47,9,,,,,,,,,main,1,1,2,negative,negative,j,j,1,0.948442499851808,245.67109620012343,246.67111889994703,246.67111889994703,None,245.67109620012343,None,245.67109620012343,None,245.67109620012343,None,247.62141859016847,None,247.62141859016847,None,247.62141859016847,None,,,,,,,,,,,,,014,2022-05-11_19h27.11.980,Main,2022.1.1,60.00186005785491,
neutral,neutral,2,k,k,,,,,,,,,2,12,48,10,,,,,,,,,main,1,1,2,neutral,neutral,k,k,1,0.8318777000531554,247.6271661000792,248.63804950006306,248.6213857999537,None,247.6271661000792,None,247.6271661000792,None,247.6271661000792,None,249.45471869010944,None,249.45471869010944,None,249.45471869010944,None,,,,,,,,,,,,,014,2022-05-11_19h27.11.980,Main,2022.1.1,60.00186005785491,
neutral,negative,2,k,k,,,,,,,,,2,13,49,16,,,,,,,,,main,2,2,2,negative,neutral,k,k,1,0.6817214000038803,249.4587668001186,250.47139880014583,250.45701320003718,None,249.4587668001186,None,249.4587668001186,None,249.4587668001186,None,251.13799929011148,None,251.13799929011148,None,251.13799929011148,None,,,,,,,,,,,,,014,2022-05-11_19h27.11.980,Main,2022.1.1,60.00186005785491,
positive,negative,2,l,j,,,,,,,,,2,14,50,14,,,,,,,,,main,1,1,2,negative,positive,l,l,1,0.7485863000620157,251.14116230001673,252.156886999961,252.13797380006872,None,251.14116230001673,None,251.14116230001673,None,251.14116230001673,None,252.88809279000853,None,252.88809279000853,None,252.88809279000853,None,,,,,,,,,,,,,014,2022-05-11_19h27.11.980,Main,2022.1.1,60.00186005785491,
negative,positive,1,j,l,,,,,,,,,2,15,51,6,,,,,,,,,main,2,2,1,positive,negative,j,j,1,0.8813199999276549,252.8920630000066,253.90425430005416,253.88758009998128,None,252.8920630000066,None,252.8920630000066,None,252.8920630000066,None,254.77110189010855,None,254.77110189010855,None,254.77110189010855,None,,,,,,,,,,,,,014,2022-05-11_19h27.11.980,Main,2022.1.1,60.00186005785491,
neutral,negative,1,k,k,,,,,,,,,2,16,52,7,,,,,,,,,main,2,2,1,negative,neutral,k,k,1,0.7487827998120338,254.77090370003134,255.77090030000545,255.77090030000545,None,254.77090370003134,None,254.77090370003134,None,254.77090370003134,None,256.52120579008476,None,256.52120579008476,None,256.52120579008476,None,,,,,,,,,,,,,014,2022-05-11_19h27.11.980,Main,2022.1.1,60.00186005785491,
neutral,positive,1,k,k,,,,,,,,,2,17,53,4,,,,,,,,,main,1,1,1,positive,neutral,k,k,1,0.6816005001310259,256.5248782001436,257.53784200013615,257.5235499001574,None,256.5248782001436,None,256.5248782001436,None,256.5248782001436,None,258.2045124901691,None,258.2045124901691,None,258.2045124901691,None,,,,,,,,,,,,,014,2022-05-11_19h27.11.980,Main,2022.1.1,60.00186005785491,
neutral,positive,2,k,k,,,,,,,,,3,0,54,13,,,,,,,,,main,1,1,2,positive,neutral,k,k,1,0.8150599000509828,258.2102677000221,259.22116219997406,259.20449399994686,None,258.2102677000221,None,258.2102677000221,None,258.2102677000221,None,260.0211629899917,None,260.0211629899917,None,260.0211629899917,None,,,,,,,,,,,,,014,2022-05-11_19h27.11.980,Main,2022.1.1,60.00186005785491,
neutral,positive,1,k,k,,,,,,,,,3,1,55,4,,,,,,,,,main,2,2,1,positive,neutral,k,k,1,0.7152925999835134,260.0266925001051,261.03777910000645,261.0211312000174,None,260.0266925001051,None,260.0266925001051,None,260.0266925001051,None,261.7377822899492,None,261.7377822899492,None,261.7377822899492,None,,,,,,,,,,,,,014,2022-05-11_19h27.11.980,Main,2022.1.1,60.00186005785491,
neutral,negative,2,k,k,,,,,,,,,3,2,56,16,,,,,,,,,main,1,1,2,negative,neutral,k,k,1,0.7312325998209417,261.7439808000345,262.7547758000437,262.73778180009685,None,261.7439808000345,None,261.7439808000345,None,261.7439808000345,None,263.4706981901312,None,263.4706981901312,None,263.4706981901312,None,,,,,,,,,,,,,014,2022-05-11_19h27.11.980,Main,2022.1.1,60.00186005785491,
positive,neutral,1,l,j,,,,,,,,,3,3,57,8,,,,,,,,,main,2,2,1,neutral,positive,l,l,1,0.8495769000146538,263.47069890005514,264.4706896999851,264.4706896999851,None,263.47069890005514,None,263.47069890005514,None,263.47069890005514,None,265.3206802899716,None,265.3206802899716,None,265.3206802899716,None,,,,,,,,,,,,,014,2022-05-11_19h27.11.980,Main,2022.1.1,60.00186005785491,
neutral,neutral,2,k,k,,,,,,,,,3,4,58,10,,,,,,,,,main,1,1,2,neutral,neutral,k,k,1,0.8641526999417692,265.3223912001122,266.3373344000429,266.32065779995173,None,265.3223912001122,None,265.3223912001122,None,265.3223912001122,None,267.1873423901619,None,267.1873423901619,None,267.1873423901619,None,,,,,,,,,,,,,014,2022-05-11_19h27.11.980,Main,2022.1.1,60.00186005785491,
negative,neutral,1,j,l,,,,,,,,,3,5,59,3,,,,,,,,,main,1,1,1,neutral,negative,j,j,1,1.2984660998918116,267.1931732001249,268.20431010005996,268.1899209001567,None,267.1931732001249,None,267.1931732001249,None,267.1931732001249,None,269.48762369013855,None,269.48762369013855,None,269.48762369013855,None,,,,,,,,,,,,,014,2022-05-11_19h27.11.980,Main,2022.1.1,60.00186005785491,
positive,negative,2,l,j,,,,,,,,,3,6,60,14,,,,,,,,,main,2,2,2,negative,positive,l,l,1,0.831939399940893,269.4931521001272,270.5042700001504,270.4875920000486,None,269.4931521001272,None,269.4931521001272,None,269.4931521001272,None,271.3209157900186,None,271.3209157900186,None,271.3209157900186,None,,,,,,,,,,,,,014,2022-05-11_19h27.11.980,Main,2022.1.1,60.00186005785491,
neutral,negative,1,k,k,,,,,,,,,3,7,61,7,,,,,,,,,main,1,1,1,negative,neutral,k,k,1,0.7817695999983698,271.32479350012727,272.337556600105,272.32088290015236,None,271.32479350012727,None,271.32479350012727,None,271.32479350012727,None,273.10420399017164,None,273.10420399017164,None,273.10420399017164,None,,,,,,,,,,,,,014,2022-05-11_19h27.11.980,Main,2022.1.1,60.00186005785491,
negative,positive,2,j,l,,,,,,,,,3,8,62,15,,,,,,,,,main,1,1,2,positive,negative,j,j,1,0.8812117001507431,273.11575510003604,274.123059600126,274.10419080010615,None,273.11575510003604,None,273.11575510003604,None,273.11575510003604,None,274.9871159901144,None,274.9871159901144,None,274.9871159901144,None,,,,,,,,,,,,,014,2022-05-11_19h27.11.980,Main,2022.1.1,60.00186005785491,
positive,neutral,2,l,j,,,,,,,,,3,9,63,17,,,,,,,,,main,2,2,2,neutral,positive,l,l,1,0.7978848000057042,274.9888877000194,276.0037624000106,275.9871376999654,None,274.9888877000194,None,274.9888877000194,None,274.9888877000194,None,276.78714679016264,None,276.78714679016264,None,276.78714679016264,None,,,,,,,,,,,,,014,2022-05-11_19h27.11.980,Main,2022.1.1,60.00186005785491,
negative,negative,2,j,l,,,,,,,,,3,10,64,9,,,,,,,,,main,2,2,2,negative,negative,j,j,1,0.8817737000063062,276.79278749995865,277.8064091000706,277.78742279997095,None,276.79278749995865,None,276.79278749995865,None,276.79278749995865,None,278.67082749002145,None,278.67082749002145,None,278.67082749002145,None,,,,,,,,,,,,,014,2022-05-11_19h27.11.980,Main,2022.1.1,60.00186005785491,
negative,neutral,2,j,l,,,,,,,,,3,11,65,12,,,,,,,,,main,2,2,2,neutral,negative,j,j,1,0.7663171000313014,278.67703650007024,279.68739870004356,279.6707208000589,None,278.67703650007024,None,278.67703650007024,None,278.67703650007024,None,280.4373907900648,None,280.4373907900648,None,280.4373907900648,None,,,,,,,,,,,,,014,2022-05-11_19h27.11.980,Main,2022.1.1,60.00186005785491,
negative,positive,1,j,l,,,,,,,,,3,12,66,6,,,,,,,,,main,1,1,1,positive,negative,j,j,1,0.9139879997819662,280.44367390009575,281.45402830000967,281.437360299984,None,280.44367390009575,None,280.44367390009575,None,280.44367390009575,None,282.354010590096,None,282.354010590096,None,282.354010590096,None,,,,,,,,,,,,,014,2022-05-11_19h27.11.980,Main,2022.1.1,60.00186005785491,
negative,negative,1,j,l,,,,,,,,,3,13,67,0,,,,,,,,,main,1,1,1,negative,negative,j,j,1,0.7150081000290811,282.3594806001056,283.37066360004246,283.35399030009285,None,282.3594806001056,None,282.3594806001056,None,282.3594806001056,None,284.0706453900551,None,284.0706453900551,None,284.0706453900551,None,,,,,,,,,,,,,014,2022-05-11_19h27.11.980,Main,2022.1.1,60.00186005785491,
positive,positive,1,l,j,,,,,,,,,3,14,68,2,,,,,,,,,main,2,2,1,positive,positive,l,l,1,0.9316386999562383,284.076042199973,285.08689570007846,285.0702279000543,None,284.076042199973,None,284.076042199973,None,284.076042199973,None,286.0035509899957,None,286.0035509899957,None,286.0035509899957,None,,,,,,,,,,,,,014,2022-05-11_19h27.11.980,Main,2022.1.1,60.00186005785491,
neutral,neutral,1,k,k,,,,,,,,,3,15,69,1,,,,,,,,,main,2,2,1,neutral,neutral,k,k,1,0.7652404999826103,286.00354039995,287.0035497001372,287.0035497001372,None,286.00354039995,None,286.00354039995,None,286.00354039995,None,287.7704788900213,None,287.7704788900213,None,287.7704788900213,None,,,,,,,,,,,,,014,2022-05-11_19h27.11.980,Main,2022.1.1,60.00186005785491,
positive,negative,1,l,j,,,,,,,,,3,16,70,5,,,,,,,,,main,1,1,1,negative,positive,l,,0,1.1009308998472989,287.7735985000618,288.7872667000629,288.77291940012947,None,287.7735985000618,None,287.7735985000618,None,287.7735985000618,None,289.8705347001087,None,289.8705347001087,None,289.8705347001087,None,,,,,,,,,,,,,014,2022-05-11_19h27.11.980,Main,2022.1.1,60.00186005785491,
positive,positive,2,l,j,,,,,,,,,3,17,71,11,,,,,,,,,main,1,1,2,positive,positive,l,l,1,0.7847733001690358,290.8712594001554,291.872736700112,291.8561250001658,None,290.8712594001554,None,290.8712594001554,None,290.8712594001554,None,292.65378599006215,None,292.65378599006215,None,292.65378599006215,None,,,,,,,,,,,,,014,2022-05-11_19h27.11.980,Main,2022.1.1,60.00186005785491,
neutral,neutral,1,k,k,,,,,,,,,4,0,72,1,,,,,,,,,main,1,1,1,neutral,neutral,k,k,1,0.8979747002013028,292.65759970014915,293.67274890001863,293.6537805001717,None,292.65759970014915,None,292.65759970014915,None,292.65759970014915,None,294.55374789002815,None,294.55374789002815,None,294.55374789002815,None,,,,,,,,,,,,,014,2022-05-11_19h27.11.980,Main,2022.1.1,60.00186005785491,
positive,negative,2,l,j,,,,,,,,,4,1,73,14,,,,,,,,,main,1,1,2,negative,positive,l,l,1,0.7650483998004347,294.55713129998185,295.5703968000598,295.5537139000371,None,294.55713129998185,None,294.55713129998185,None,294.55713129998185,None,296.32001189000437,None,296.32001189000437,None,296.32001189000437,None,,,,,,,,,,,,,014,2022-05-11_19h27.11.980,Main,2022.1.1,60.00186005785491,
negative,positive,2,j,l,,,,,,,,,4,2,74,15,,,,,,,,,main,1,1,2,positive,negative,j,j,1,1.231833100086078,296.3201852000784,297.319969400065,297.319969400065,None,296.3201852000784,None,296.3201852000784,None,296.3201852000784,None,298.55365559014024,None,298.55365559014024,None,298.55365559014024,None,,,,,,,,,,,,,014,2022-05-11_19h27.11.980,Main,2022.1.1,60.00186005785491,
negative,neutral,1,j,l,,,,,,,,,4,3,75,3,,,,,,,,,main,1,1,1,neutral,negative,j,j,1,0.931835199939087,298.55696990014985,299.57031320012175,299.5560165999923,None,298.55696990014985,None,298.55696990014985,None,298.55696990014985,None,300.4870705900015,None,300.4870705900015,None,300.4870705900015,None,,,,,,,,,,,,,014,2022-05-11_19h27.11.980,Main,2022.1.1,60.00186005785491,
positive,negative,1,l,j,,,,,,,,,4,4,76,5,,,,,,,,,main,2,2,1,negative,positive,l,l,1,0.785258499905467,300.4905485000927,301.503651099978,301.4869462000206,None,300.4905485000927,None,300.4905485000927,None,300.4905485000927,None,302.2737263899529,None,302.2737263899529,None,302.2737263899529,None,,,,,,,,,,,,,014,2022-05-11_19h27.11.980,Main,2022.1.1,60.00186005785491,
neutral,positive,2,k,k,,,,,,,,,4,5,77,13,,,,,,,,,main,2,2,2,positive,neutral,k,k,1,0.8451218998525292,302.2768465001136,303.28909810003825,303.2702293000184,None,302.2768465001136,None,302.2768465001136,None,302.2768465001136,None,304.120330990036,None,304.120330990036,None,304.120330990036,None,,,,,,,,,,,,,014,2022-05-11_19h27.11.980,Main,2022.1.1,60.00186005785491,
neutral,negative,1,k,k,,,,,,,,,4,6,78,7,,,,,,,,,main,2,2,1,negative,neutral,k,k,1,0.981176600093022,304.12358600017615,305.13648109999485,305.1197888001334,None,304.12358600017615,None,304.12358600017615,None,304.12358600017615,None,306.103108690097,None,306.103108690097,None,306.103108690097,None,,,,,,,,,,,,,014,2022-05-11_19h27.11.980,Main,2022.1.1,60.00186005785491,
negative,negative,1,j,l,,,,,,,,,4,7,79,0,,,,,,,,,main,1,1,1,negative,negative,j,j,1,0.8988185001071543,306.1033149000723,307.1031518999953,307.1031518999953,None,306.1033149000723,None,306.1033149000723,None,306.1033149000723,None,308.00352839005643,None,308.00352839005643,None,308.00352839005643,None,,,,,,,,,,,,,014,2022-05-11_19h27.11.980,Main,2022.1.1,60.00186005785491,
positive,positive,2,l,j,,,,,,,,,4,8,80,11,,,,,,,,,main,2,2,2,positive,positive,l,l,1,0.9175603999756277,308.00699919997714,309.0200963001698,309.00572860008106,None,308.00699919997714,None,308.00699919997714,None,308.00699919997714,None,309.92236829011233,None,309.92236829011233,None,309.92236829011233,None,,,,,,,,,,,,,014,2022-05-11_19h27.11.980,Main,2022.1.1,60.00186005785491,
neutral,negative,2,k,k,,,,,,,,,4,9,81,16,,,,,,,,,main,2,2,2,negative,neutral,k,k,1,0.946197499986738,309.9255169001408,310.9368921001442,310.9223426999524,None,309.9255169001408,None,309.9255169001408,None,309.9255169001408,None,311.8700545900268,None,311.8700545900268,None,311.8700545900268,None,,,,,,,,,,,,,014,2022-05-11_19h27.11.980,Main,2022.1.1,60.00186005785491,
positive,neutral,1,l,j,,,,,,,,,4,10,82,8,,,,,,,,,main,2,2,1,neutral,positive,l,l,1,1.1342245999258012,311.8736213000957,312.8867291000206,312.87003500014544,None,311.8736213000957,None,311.8736213000957,None,311.8736213000957,None,314.00298729001076,None,314.00298729001076,None,314.00298729001076,None,,,,,,,,,,,,,014,2022-05-11_19h27.11.980,Main,2022.1.1,60.00186005785491,
neutral,positive,1,k,k,,,,,,,,,4,11,83,4,,,,,,,,,main,2,2,1,positive,neutral,k,k,1,1.0282187999691814,314.0077828001231,315.01959710009396,315.00291909999214,None,314.0077828001231,None,314.0077828001231,None,314.0077828001231,None,316.03630999007726,None,316.03630999007726,None,316.03630999007726,None,,,,,,,,,,,,,014,2022-05-11_19h27.11.980,Main,2022.1.1,60.00186005785491,
negative,positive,1,j,l,,,,,,,,,4,12,84,6,,,,,,,,,main,2,2,1,positive,negative,j,j,1,1.1486417998094112,316.0429185000248,317.05326519999653,317.0366059001535,None,316.0429185000248,None,316.0429185000248,None,316.0429185000248,None,318.18658759000243,None,318.18658759000243,None,318.18658759000243,None,,,,,,,,,,,,,014,2022-05-11_19h27.11.980,Main,2022.1.1,60.00186005785491,
negative,neutral,2,j,l,,,,,,,,,4,13,85,12,,,,,,,,,main,2,2,2,neutral,negative,j,j,1,1.0650524001102895,318.1900375999976,319.20544000016525,319.18884710012935,None,318.1900375999976,None,318.1900375999976,None,318.1900375999976,None,320.25320778994353,None,320.25320778994353,None,320.25320778994353,None,,,,,,,,,,,,,014,2022-05-11_19h27.11.980,Main,2022.1.1,60.00186005785491,
positive,neutral,2,l,j,,,,,,,,,4,14,86,17,,,,,,,,,main,2,2,2,neutral,positive,l,l,1,0.8817205000668764,320.25722540006973,321.2699198999908,321.2554626001511,None,320.25722540006973,None,320.25722540006973,None,320.25722540006973,None,322.1364987899782,None,322.1364987899782,None,322.1364987899782,None,,,,,,,,,,,,,014,2022-05-11_19h27.11.980,Main,2022.1.1,60.00186005785491,
negative,negative,2,j,l,,,,,,,,,4,15,87,9,,,,,,,,,main,1,1,2,negative,negative,j,j,1,1.0313739001285285,322.13986420002766,323.1527754000854,323.1361607001163,None,322.13986420002766,None,322.13986420002766,None,322.13986420002766,None,324.16942059013525,None,324.16942059013525,None,324.16942059013525,None,,,,,,,,,,,,,014,2022-05-11_19h27.11.980,Main,2022.1.1,60.00186005785491,
positive,positive,1,l,j,,,,,,,,,4,16,88,2,,,,,,,,,main,1,1,1,positive,positive,l,l,1,0.8153960998170078,324.1693990000058,325.1694424999878,325.1694424999878,None,324.1693990000058,None,324.1693990000058,None,324.1693990000058,None,325.9863976901164,None,325.9863976901164,None,325.9863976901164,None,,,,,,,,,,,,,014,2022-05-11_19h27.11.980,Main,2022.1.1,60.00186005785491,
neutral,neutral,2,k,k,,,,,,,,,4,17,89,10,,,,,,,,,main,1,1,2,neutral,neutral,k,k,1,0.8644552000332624,325.9903907000553,327.00304870004766,326.9863706000615,None,325.9903907000553,None,325.9903907000553,None,325.9903907000553,None,327.8530374900205,None,327.8530374900205,None,327.8530374900205,None,,,,,,,,,,,,,014,2022-05-11_19h27.11.980,Main,2022.1.1,60.00186005785491,
negative,positive,2,j,l,,,,,,,,,5,0,90,15,,,,,,,,,main,2,2,2,positive,negative,j,j,1,0.6984164000023156,327.85677600000054,328.86971460003406,328.85307019995525,None,327.85677600000054,None,327.85677600000054,None,327.85677600000054,None,329.55301958995403,None,329.55301958995403,None,329.55301958995403,None,,,,,,,,,,,,,014,2022-05-11_19h27.11.980,Main,2022.1.1,60.00186005785491,
negative,neutral,1,j,l,,,,,,,,,5,1,91,3,,,,,,,,,main,2,2,1,neutral,negative,j,j,1,1.6983334999531507,329.55655490001664,330.56964750005864,330.55526689998806,None,329.55655490001664,None,329.55655490001664,None,329.55655490001664,None,332.25295190000907,None,332.25295190000907,None,332.25295190000907,None,,,,,,,,,,,,,014,2022-05-11_19h27.11.980,Main,2022.1.1,60.00186005785491,
negative,neutral,2,j,l,,,,,,,,,5,2,92,12,,,,,,,,,main,2,2,2,neutral,negative,j,j,1,0.8360280999913812,333.2525667999871,334.2525114000309,334.2525114000309,None,333.2525667999871,None,333.2525667999871,None,333.2525667999871,None,335.0858575901715,None,335.0858575901715,None,335.0858575901715,None,,,,,,,,,,,,,014,2022-05-11_19h27.11.980,Main,2022.1.1,60.00186005785491,
positive,negative,1,l,j,,,,,,,,,5,3,93,5,,,,,,,,,main,1,1,1,negative,positive,l,l,1,1.031870599836111,335.08647870016284,336.0858527000528,336.0858527000528,None,335.08647870016284,None,335.08647870016284,None,335.08647870016284,None,337.11955978998446,None,337.11955978998446,None,337.11955978998446,None,,,,,,,,,,,,,014,2022-05-11_19h27.11.980,Main,2022.1.1,60.00186005785491,
negative,positive,1,j,l,,,,,,,,,5,4,94,6,,,,,,,,,main,1,1,1,positive,negative,j,j,1,0.9340852999594063,337.12347960006446,338.1361726000905,338.1218234000262,None,337.12347960006446,None,337.12347960006446,None,337.12347960006446,None,339.0552377900807,None,339.0552377900807,None,339.0552377900807,None,,,,,,,,,,,,,014,2022-05-11_19h27.11.980,Main,2022.1.1,60.00186005785491,
neutral,negative,1,k,k,,,,,,,,,5,5,95,7,,,,,,,,,main,1,1,1,negative,neutral,k,k,1,0.7961174000520259,339.05827799998224,340.06944949994795,340.05510420002975,None,339.05827799998224,None,339.05827799998224,None,339.05827799998224,None,340.8527740901103,None,340.8527740901103,None,340.8527740901103,None,,,,,,,,,,,,,014,2022-05-11_19h27.11.980,Main,2022.1.1,60.00186005785491,
neutral,neutral,2,k,k,,,,,,,,,5,6,96,10,,,,,,,,,main,1,1,2,neutral,neutral,k,k,1,0.7316877001430839,340.85902169998735,341.86942260013893,341.8530236000661,None,340.85902169998735,None,340.85902169998735,None,340.85902169998735,None,342.58607549008445,None,342.58607549008445,None,342.58607549008445,None,,,,,,,,,,,,,014,2022-05-11_19h27.11.980,Main,2022.1.1,60.00186005785491,
negative,negative,1,j,l,,,,,,,,,5,7,97,0,,,,,,,,,main,2,2,1,negative,negative,j,j,1,1.7990745001006871,342.590243200073,343.6027172000613,343.5860462000128,None,342.590243200073,None,342.590243200073,None,342.590243200073,None,345.385646100156,None,345.385646100156,None,345.385646100156,None,,,,,,,,,,,,,014,2022-05-11_19h27.11.980,Main,2022.1.1,60.00186005785491,
positive,neutral,2,l,j,,,,,,,,,5,8,98,17,,,,,,,,,main,2,2,2,neutral,positive,l,l,1,1.0364757999777794,346.39113120012917,347.40485020005144,347.3882665000856,None,346.39113120012917,None,346.39113120012917,None,346.39113120012917,None,348.4192905900767,None,348.4192905900767,None,348.4192905900767,None,,,,,,,,,,,,,014,2022-05-11_19h27.11.980,Main,2022.1.1,60.00186005785491,
positive,negative,2,l,j,,,,,,,,,5,9,99,14,,,,,,,,,main,2,2,2,negative,positive,l,l,1,0.74812539992854,348.4231779000256,349.4359200000763,349.4214688001666,None,348.4231779000256,None,348.4231779000256,None,348.4231779000256,None,350.1692530901404,None,350.1692530901404,None,350.1692530901404,None,,,,,,,,,,,,,014,2022-05-11_19h27.11.980,Main,2022.1.1,60.00186005785491,
neutral,neutral,1,k,k,,,,,,,,,5,10,100,1,,,,,,,,,main,2,2,1,neutral,neutral,k,k,1,1.114847999997437,350.17512649996206,351.1858824000228,351.16920720017515,None,350.17512649996206,None,350.17512649996206,None,350.17512649996206,None,352.28585619011426,None,352.28585619011426,None,352.28585619011426,None,,,,,,,,,,,,,014,2022-05-11_19h27.11.980,Main,2022.1.1,60.00186005785491,
positive,positive,1,l,j,,,,,,,,,5,11,101,2,,,,,,,,,main,2,2,1,positive,positive,l,l,1,0.831644400022924,352.29211449995637,353.30251589999534,353.285849200096,None,352.29211449995637,None,352.29211449995637,None,352.29211449995637,None,354.1187754899496,None,354.1187754899496,None,354.1187754899496,None,,,,,,,,,,,,,014,2022-05-11_19h27.11.980,Main,2022.1.1,60.00186005785491,
negative,negative,2,j,l,,,,,,,,,5,12,102,9,,,,,,,,,main,2,2,2,negative,negative,j,j,1,0.9649999998509884,354.11875959997997,355.1187446999829,355.1187446999829,None,354.11875959997997,None,354.11875959997997,None,354.11875959997997,None,356.08542869004884,None,356.08542869004884,None,356.08542869004884,None,,,,,,,,,,,,,014,2022-05-11_19h27.11.980,Main,2022.1.1,60.00186005785491,
neutral,positive,2,k,k,,,,,,,,,5,13,103,13,,,,,,,,,main,2,2,2,positive,neutral,k,k,1,1.0320125001017004,356.085966499988,357.0853953999467,357.0853953999467,None,356.085966499988,None,356.085966499988,None,356.085966499988,None,358.11874619007574,None,358.11874619007574,None,358.11874619007574,None,,,,,,,,,,,,,014,2022-05-11_19h27.11.980,Main,2022.1.1,60.00186005785491,
positive,neutral,1,l,j,,,,,,,,,5,14,104,8,,,,,,,,,main,2,2,1,neutral,positive,l,l,1,1.0152623001486063,358.1246505000163,359.135720100021,359.12137169996276,None,358.1246505000163,None,358.1246505000163,None,358.1246505000163,None,360.1357005899539,None,360.1357005899539,None,360.1357005899539,None,,,,,,,,,,,,,014,2022-05-11_19h27.11.980,Main,2022.1.1,60.00186005785491,
positive,positive,2,l,j,,,,,,,,,5,15,105,11,,,,,,,,,main,1,1,2,positive,positive,l,l,1,0.8651334999594837,360.141640300164,361.15233330009505,361.13568289997056,None,360.141640300164,None,360.141640300164,None,360.141640300164,None,362.0023268901044,None,362.0023268901044,None,362.0023268901044,None,,,,,,,,,,,,,014,2022-05-11_19h27.11.980,Main,2022.1.1,60.00186005785491,
neutral,negative,2,k,k,,,,,,,,,5,16,106,16,,,,,,,,,main,2,2,2,negative,neutral,k,k,1,0.9160418999381363,362.0081472999882,363.02110060001723,363.004560300149,None,362.0081472999882,None,362.0081472999882,None,362.0081472999882,None,363.91893519016446,None,363.91893519016446,None,363.91893519016446,None,,,,,,,,,,,,,014,2022-05-11_19h27.11.980,Main,2022.1.1,60.00186005785491,
neutral,positive,1,k,k,,,,,,,,,5,17,107,4,,,,,,,,,main,2,2,1,positive,neutral,k,k,1,0.9305592000018805,363.92531260009855,364.93560059997253,364.9211989999749,None,363.92531260009855,None,363.92531260009855,None,363.92531260009855,None,365.85186059002297,None,365.85186059002297,None,365.85186059002297,None,,,,,,,,,,,,,014,2022-05-11_19h27.11.980,Main,2022.1.1,60.00186005785491,
negative,negative,1,j,l,,,,,,,,,6,0,108,0,,,,,,,,,main,2,2,1,negative,negative,j,j,1,1.1150450001005083,365.85212219995447,366.8518366001081,366.8518366001081,None,365.85212219995447,None,365.85212219995447,None,365.85212219995447,None,367.9688482901314,None,367.9688482901314,None,367.9688482901314,None,,,,,,,,,,,,,014,2022-05-11_19h27.11.980,Main,2022.1.1,60.00186005785491,
positive,negative,1,l,j,,,,,,,,,6,1,109,5,,,,,,,,,main,2,2,1,negative,positive,l,l,1,0.9987126998603344,367.97517820005305,368.9878738000989,368.9711134999525,None,367.97517820005305,None,367.97517820005305,None,367.97517820005305,None,369.9688085899455,None,369.9688085899455,None,369.9688085899455,None,,,,,,,,,,,,,014,2022-05-11_19h27.11.980,Main,2022.1.1,60.00186005785491,
neutral,neutral,2,k,k,,,,,,,,,6,2,110,10,,,,,,,,,main,2,2,2,neutral,neutral,k,k,1,0.9317580999340862,369.9755015000701,370.9877005000599,370.96877890010364,None,369.9755015000701,None,369.9755015000701,None,369.9755015000701,None,371.9021010901546,None,371.9021010901546,None,371.9021010901546,None,,,,,,,,,,,,,014,2022-05-11_19h27.11.980,Main,2022.1.1,60.00186005785491,
negative,neutral,1,j,l,,,,,,,,,6,3,111,3,,,,,,,,,main,2,2,1,neutral,negative,j,j,1,0.8316059000790119,371.90794109995477,372.92106280010194,372.904390900163,None,371.90794109995477,None,371.90794109995477,None,371.90794109995477,None,373.73539859007576,None,373.73539859007576,None,373.73539859007576,None,,,,,,,,,,,,,014,2022-05-11_19h27.11.980,Main,2022.1.1,60.00186005785491,
negative,positive,2,j,l,,,,,,,,,6,4,112,15,,,,,,,,,main,2,2,2,positive,negative,j,j,1,1.2982785000931472,373.7416606999468,374.75205940008163,374.7353714001365,None,373.7416606999468,None,373.7416606999468,None,373.7416606999468,None,376.03496228994334,None,376.03496228994334,None,376.03496228994334,None,,,,,,,,,,,,,014,2022-05-11_19h27.11.980,Main,2022.1.1,60.00186005785491,
negative,negative,2,j,l,,,,,,,,,6,5,113,9,,,,,,,,,main,2,2,2,negative,negative,j,j,1,0.7150600000750273,376.0349672001321,377.0349765000865,377.0349765000865,None,376.0349672001321,None,376.0349672001321,None,376.0349672001321,None,377.7516507899621,None,377.7516507899621,None,377.7516507899621,None,,,,,,,,,,,,,014,2022-05-11_19h27.11.980,Main,2022.1.1,60.00186005785491,
neutral,positive,2,k,k,,,,,,,,,6,6,114,13,,,,,,,,,main,1,1,2,positive,neutral,k,k,1,1.03641950013116,377.7521836999804,378.75162800005637,378.75162800005637,None,377.7521836999804,None,377.7521836999804,None,377.7521836999804,None,379.78766129000576,None,379.78766129000576,None,379.78766129000576,None,,,,,,,,,,,,,014,2022-05-11_19h27.11.980,Main,2022.1.1,60.00186005785491,
negative,neutral,2,j,l,,,,,,,,,6,7,115,12,,,,,,,,,main,1,1,2,neutral,negative,j,j,1,1.0607890000101179,379.79274900001474,380.8041996001266,380.7853092001751,None,379.79274900001474,None,379.79274900001474,None,379.79274900001474,None,381.8520511900773,None,381.8520511900773,None,381.8520511900773,None,,,,,,,,,,,,,014,2022-05-11_19h27.11.980,Main,2022.1.1,60.00186005785491,
positive,positive,2,l,j,,,,,,,,,6,8,116,11,,,,,,,,,main,2,2,2,positive,positive,l,l,1,0.9653431000187993,381.8554162001237,382.87069630017504,382.85409889998846,None,381.8554162001237,None,381.8554162001237,None,381.8554162001237,None,383.81861509007865,None,383.81861509007865,None,383.81861509007865,None,,,,,,,,,,,,,014,2022-05-11_19h27.11.980,Main,2022.1.1,60.00186005785491,
positive,negative,2,l,j,,,,,,,,,6,9,117,14,,,,,,,,,main,2,2,2,negative,positive,l,l,1,0.8982702998910099,383.821917100111,384.837389399996,384.8184790001251,None,383.821917100111,None,383.821917100111,None,383.821917100111,None,385.71848489015827,None,385.71848489015827,None,385.71848489015827,None,,,,,,,,,,,,,014,2022-05-11_19h27.11.980,Main,2022.1.1,60.00186005785491,
neutral,negative,1,k,k,,,,,,,,,6,10,118,7,,,,,,,,,main,2,2,1,negative,neutral,k,k,1,0.9149368000216782,385.7221270001028,386.7347426000051,386.7180717999581,None,385.7221270001028,None,385.7221270001028,None,385.7221270001028,None,387.634750290052,None,387.634750290052,None,387.634750290052,None,,,,,,,,,,,,,014,2022-05-11_19h27.11.980,Main,2022.1.1,60.00186005785491,
neutral,neutral,1,k,k,,,,,,,,,6,11,119,1,,,,,,,,,main,1,1,1,neutral,neutral,k,k,1,0.7653312999755144,387.63482469995506,388.6347768001724,388.6347768001724,None,387.63482469995506,None,387.63482469995506,None,387.63482469995506,None,389.4018754900666,None,389.4018754900666,None,389.4018754900666,None,,,,,,,,,,,,,014,2022-05-11_19h27.11.980,Main,2022.1.1,60.00186005785491,
neutral,positive,1,k,k,,,,,,,,,6,12,120,4,,,,,,,,,main,2,2,1,positive,neutral,k,k,1,0.7318454999476671,389.4076720001176,390.41837870003656,390.40400650002994,None,389.4076720001176,None,389.4076720001176,None,389.4076720001176,None,391.1350485901115,None,391.1350485901115,None,391.1350485901115,None,,,,,,,,,,,,,014,2022-05-11_19h27.11.980,Main,2022.1.1,60.00186005785491,
positive,neutral,1,l,j,,,,,,,,,6,13,121,8,,,,,,,,,main,2,2,1,neutral,positive,l,l,1,1.2526734999846667,391.1409746001009,392.15388899995014,392.1350042000413,None,391.1409746001009,None,391.1409746001009,None,391.1409746001009,None,393.3851287900237,None,393.3851287900237,None,393.3851287900237,None,,,,,,,,,,,,,014,2022-05-11_19h27.11.980,Main,2022.1.1,60.00186005785491,
positive,neutral,2,l,j,,,,,,,,,6,14,122,17,,,,,,,,,main,2,2,2,neutral,positive,l,l,1,0.8431917999405414,393.39920840016566,394.40387449995615,394.3706209999509,None,393.39920840016566,None,393.39920840016566,None,393.39920840016566,None,395.2349399900762,None,395.2349399900762,None,395.2349399900762,None,,,,,,,,,,,,,014,2022-05-11_19h27.11.980,Main,2022.1.1,60.00186005785491,
negative,positive,1,j,l,,,,,,,,,6,15,123,6,,,,,,,,,main,2,2,1,positive,negative,j,j,1,1.8981057999189943,395.240705500124,396.25122520001605,396.23456170014106,None,395.240705500124,None,395.240705500124,None,395.240705500124,None,398.13453630008735,None,398.13453630008735,None,398.13453630008735,None,,,,,,,,,,,,,014,2022-05-11_19h27.11.980,Main,2022.1.1,60.00186005785491,
neutral,negative,2,k,k,,,,,,,,,6,16,124,16,,,,,,,,,main,2,2,2,negative,neutral,k,k,1,1.1891012999694794,399.1345379999839,400.1345180000644,400.11783959995955,None,399.1345379999839,None,399.1345379999839,None,399.1345379999839,None,401.3205339901382,None,401.3205339901382,None,401.3205339901382,None,,,,,,,,,,,,,014,2022-05-11_19h27.11.980,Main,2022.1.1,60.00186005785491,
positive,positive,1,l,j,,,,,,,,,6,17,125,2,,,,,,,,,main,2,2,1,positive,positive,l,l,1,0.7624725999776274,401.32427450013347,402.33478939998895,402.3204934000969,None,401.32427450013347,None,401.32427450013347,None,401.32427450013347,None,403.08478729005435,None,403.08478729005435,None,403.08478729005435,None,,,,,,,,,,,,,014,2022-05-11_19h27.11.980,Main,2022.1.1,60.00186005785491,
neutral,positive,2,k,k,,,,,,,,,7,0,126,13,,,,,,,,,main,1,1,2,positive,neutral,k,k,1,0.831761300098151,403.08839159994386,404.10141680017114,404.0870505999774,None,403.08839159994386,None,403.08839159994386,None,403.08839159994386,None,404.9181192901218,None,404.9181192901218,None,404.9181192901218,None,,,,,,,,,,,,,014,2022-05-11_19h27.11.980,Main,2022.1.1,60.00186005785491,
positive,negative,2,l,j,,,,,,,,,7,1,127,14,,,,,,,,,main,2,2,2,negative,positive,l,l,1,0.8485312000848353,404.92376770009287,405.9347210000269,405.9203641000204,None,404.92376770009287,None,404.92376770009287,None,404.92376770009287,None,406.7680300900014,None,406.7680300900014,None,406.7680300900014,None,,,,,,,,,,,,,014,2022-05-11_19h27.11.980,Main,2022.1.1,60.00186005785491,
neutral,positive,1,k,k,,,,,,,,,7,2,128,4,,,,,,,,,main,2,2,1,positive,neutral,k,k,1,0.8478610999882221,406.77199469995685,407.78431909997016,407.7676444000099,None,406.77199469995685,None,406.77199469995685,None,406.77199469995685,None,408.61761648997197,None,408.61761648997197,None,408.61761648997197,None,,,,,,,,,,,,,014,2022-05-11_19h27.11.980,Main,2022.1.1,60.00186005785491,
neutral,neutral,1,k,k,,,,,,,,,7,3,129,1,,,,,,,,,main,1,1,1,neutral,neutral,k,k,1,0.7651961999945343,408.61760600004345,409.61765910009854,409.61765910009854,None,408.61760600004345,None,408.61760600004345,None,408.61760600004345,None,410.384620489995,None,410.384620489995,None,410.384620489995,None,,,,,,,,,,,,,014,2022-05-11_19h27.11.980,Main,2022.1.1,60.00186005785491,
positive,positive,1,l,j,,,,,,,,,7,4,130,2,,,,,,,,,main,1,1,1,positive,positive,l,l,1,0.7652949998155236,410.38801930006593,411.40362330013886,411.384597199969,None,410.38801930006593,None,410.38801930006593,None,410.38801930006593,None,412.1512567901285,None,412.1512567901285,None,412.1512567901285,None,,,,,,,,,,,,,014,2022-05-11_19h27.11.980,Main,2022.1.1,60.00186005785491,
positive,neutral,1,l,j,,,,,,,,,7,5,131,8,,,,,,,,,main,2,2,1,neutral,positive,l,l,1,0.8833182000089437,412.15541660017334,413.16789910010993,413.1512321000919,None,412.15541660017334,None,412.15541660017334,None,412.15541660017334,None,414.0369921901496,None,414.0369921901496,None,414.0369921901496,None,,,,,,,,,,,,,014,2022-05-11_19h27.11.980,Main,2022.1.1,60.00186005785491,
negative,neutral,1,j,l,,,,,,,,,7,6,132,3,,,,,,,,,main,1,1,1,neutral,negative,j,j,1,1.0292826001532376,414.0399301999714,415.05119300005026,415.03451730008237,None,414.0399301999714,None,414.0399301999714,None,414.0399301999714,None,416.0678397901123,None,416.0678397901123,None,416.0678397901123,None,,,,,,,,,,,,,014,2022-05-11_19h27.11.980,Main,2022.1.1,60.00186005785491,
negative,positive,1,j,l,,,,,,,,,7,7,133,6,,,,,,,,,main,2,2,1,positive,negative,j,j,1,0.631596100050956,416.0711886000354,417.08672589994967,417.0701032001525,None,416.0711886000354,None,416.0711886000354,None,416.0711886000354,None,417.7007804901572,None,417.7007804901572,None,417.7007804901572,None,,,,,,,,,,,,,014,2022-05-11_19h27.11.980,Main,2022.1.1,60.00186005785491,
negative,neutral,2,j,l,,,,,,,,,7,8,134,12,,,,,,,,,main,2,2,2,neutral,negative,j,j,1,0.8994341001380235,417.70139200007543,418.70072180009447,418.70072180009447,None,417.70139200007543,None,417.70139200007543,None,417.70139200007543,None,419.6010900900932,None,419.6010900900932,None,419.6010900900932,None,,,,,,,,,,,,,014,2022-05-11_19h27.11.980,Main,2022.1.1,60.00186005785491,
neutral,negative,1,k,k,,,,,,,,,7,9,135,7,,,,,,,,,main,2,2,1,negative,neutral,k,k,1,0.8471972998231649,419.6029668999836,420.61737979995087,420.6007157000713,None,419.6029668999836,None,419.6029668999836,None,419.6029668999836,None,421.45073189001994,None,421.45073189001994,None,421.45073189001994,None,,,,,,,,,,,,,014,2022-05-11_19h27.11.980,Main,2022.1.1,60.00186005785491,
negative,negative,1,j,l,,,,,,,,,7,10,136,0,,,,,,,,,main,2,2,1,negative,negative,j,j,1,0.9988375999964774,421.4543253001757,422.4677139001433,422.45105920010246,None,421.4543253001757,None,421.4543253001757,None,421.4543253001757,None,423.45111839005256,None,423.45111839005256,None,423.45111839005256,None,,,,,,,,,,,,,014,2022-05-11_19h27.11.980,Main,2022.1.1,60.00186005785491,
negative,negative,2,j,l,,,,,,,,,7,11,137,9,,,,,,,,,main,2,2,2,negative,negative,j,j,1,1.0479991999454796,423.45712870010175,424.46991800004616,424.4531984999776,None,423.45712870010175,None,423.45712870010175,None,423.45712870010175,None,425.5009660899872,None,425.5009660899872,None,425.5009660899872,None,,,,,,,,,,,,,014,2022-05-11_19h27.11.980,Main,2022.1.1,60.00186005785491,
positive,neutral,2,l,j,,,,,,,,,7,12,138,17,,,,,,,,,main,2,2,2,neutral,positive,l,l,1,0.8655956999864429,425.5070615001023,426.517600200139,426.50321690016426,None,425.5070615001023,None,425.5070615001023,None,425.5070615001023,None,427.3676363900071,None,427.3676363900071,None,427.3676363900071,None,,,,,,,,,,,,,014,2022-05-11_19h27.11.980,Main,2022.1.1,60.00186005785491,
positive,positive,2,l,j,,,,,,,,,7,13,139,11,,,,,,,,,main,2,2,2,positive,positive,l,l,1,0.7312662999611348,427.3715610001236,428.3865798001643,428.3699237999972,None,427.3715610001236,None,427.3715610001236,None,427.3715610001236,None,429.1005084900884,None,429.1005084900884,None,429.1005084900884,None,,,,,,,,,,,,,014,2022-05-11_19h27.11.980,Main,2022.1.1,60.00186005785491,
neutral,neutral,2,k,k,,,,,,,,,7,14,140,10,,,,,,,,,main,2,2,2,neutral,neutral,k,k,1,0.8825028000865132,429.1006692999508,430.1004834000487,430.1004834000487,None,429.1006692999508,None,429.1006692999508,None,429.1006692999508,None,430.9838507901644,None,430.9838507901644,None,430.9838507901644,None,,,,,,,,,,,,,014,2022-05-11_19h27.11.980,Main,2022.1.1,60.00186005785491,
positive,negative,1,l,j,,,,,,,,,7,15,141,5,,,,,,,,,main,2,2,1,negative,positive,l,l,1,0.848103899974376,430.98813130008057,432.0008117000107,431.9841450001113,None,430.98813130008057,None,430.98813130008057,None,430.98813130008057,None,432.8342857900774,None,432.8342857900774,None,432.8342857900774,None,,,,,,,,,,,,,014,2022-05-11_19h27.11.980,Main,2022.1.1,60.00186005785491,
neutral,negative,2,k,k,,,,,,,,,7,16,142,16,,,,,,,,,main,2,2,2,negative,neutral,k,k,1,0.8170596999116242,432.83790970011614,433.8507884000428,433.8341161001008,None,432.83790970011614,None,432.83790970011614,None,432.83790970011614,None,434.6530093899695,None,434.6530093899695,None,434.6530093899695,None,,,,,,,,,,,,,014,2022-05-11_19h27.11.980,Main,2022.1.1,60.00186005785491,
negative,positive,2,j,l,,,,,,,,,7,17,143,15,,,,,,,,,main,1,1,2,positive,negative,j,j,1,0.8795093998778611,434.6569442001637,435.66741880006157,435.6507594001014,None,434.6569442001637,None,434.6569442001637,None,434.6569442001637,None,436.53406709011176,None,436.53406709011176,None,436.53406709011176,None,,,,,,,,,,,,,014,2022-05-11_19h27.11.980,Main,2022.1.1,60.00186005785491,
neutral,positive,2,k,k,,,,,,,,,8,0,144,13,,,,,,,,,main,2,2,2,positive,neutral,k,k,1,0.8482695000711828,436.53764430014417,437.55296590016223,437.5340625999961,None,436.53764430014417,None,436.53764430014417,None,436.53764430014417,None,438.38363899008834,None,438.38363899008834,None,438.38363899008834,None,,,,,,,,,,,,,014,2022-05-11_19h27.11.980,Main,2022.1.1,60.00186005785491,
positive,positive,2,l,j,,,,,,,,,8,1,145,11,,,,,,,,,main,1,1,2,positive,positive,l,l,1,0.7662720999214798,438.3845758000389,439.3836237001233,439.3836237001233,None,438.3845758000389,None,438.3845758000389,None,438.3845758000389,None,440.1503240901278,None,440.1503240901278,None,440.1503240901278,None,,,,,,,,,,,,,014,2022-05-11_19h27.11.980,Main,2022.1.1,60.00186005785491,
negative,negative,2,j,l,,,,,,,,,8,2,146,9,,,,,,,,,main,2,2,2,negative,negative,j,l,0,1.0476387001108378,440.1546110000927,441.16728319996037,441.1506211999804,None,440.1546110000927,None,440.1546110000927,None,440.1546110000927,None,442.2006364001427,None,442.2006364001427,None,442.2006364001427,None,,,,,,,,,,,,,014,2022-05-11_19h27.11.980,Main,2022.1.1,60.00186005785491,
neutral,neutral,1,k,k,,,,,,,,,8,3,147,1,,,,,,,,,main,2,2,1,neutral,neutral,k,k,1,0.8171870999503881,443.2040161001496,444.2172060001176,444.18416410009377,None,443.2040161001496,None,443.2040161001496,None,443.2040161001496,None,445.01720779014283,None,445.01720779014283,None,445.01720779014283,None,,,,,,,,,,,,,014,2022-05-11_19h27.11.980,Main,2022.1.1,60.00186005785491,
positive,neutral,1,l,j,,,,,,,,,8,4,148,8,,,,,,,,,main,1,1,1,neutral,positive,l,l,1,0.936024900060147,445.020676900167,446.03385920007713,446.0171821000986,None,445.020676900167,None,445.020676900167,None,445.020676900167,None,446.9506507899845,None,446.9506507899845,None,446.9506507899845,None,,,,,,,,,,,,,014,2022-05-11_19h27.11.980,Main,2022.1.1,60.00186005785491,
neutral,neutral,2,k,k,,,,,,,,,8,5,149,10,,,,,,,,,main,1,1,2,neutral,neutral,k,k,1,1.1101122999098152,446.9588907000143,447.96676099998876,447.95009990013205,None,446.9588907000143,None,446.9588907000143,None,446.9588907000143,None,449.0667526901001,None,449.0667526901001,None,449.0667526901001,None,,,,,,,,,,,,,014,2022-05-11_19h27.11.980,Main,2022.1.1,60.00186005785491,
negative,positive,1,j,l,,,,,,,,,8,6,150,6,,,,,,,,,main,1,1,1,positive,negative,j,j,1,1.1478099001105875,449.08344350010157,450.08342429995537,450.06675310013816,None,449.08344350010157,None,449.08344350010157,None,449.08344350010157,None,451.21679569010155,None,451.21679569010155,None,451.21679569010155,None,,,,,,,,,,,,,014,2022-05-11_19h27.11.980,Main,2022.1.1,60.00186005785491,
positive,negative,1,l,j,,,,,,,,,8,7,151,5,,,,,,,,,main,2,2,1,negative,positive,l,l,1,1.0152789000421762,451.2201968000736,452.2194048999809,452.2194048999809,None,451.2201968000736,None,451.2201968000736,None,451.2201968000736,None,453.2337115900358,None,453.2337115900358,None,453.2337115900358,None,,,,,,,,,,,,,014,2022-05-11_19h27.11.980,Main,2022.1.1,60.00186005785491,
neutral,negative,2,k,k,,,,,,,,,8,8,152,16,,,,,,,,,main,1,1,2,negative,neutral,k,k,1,0.8317035001236945,453.2375095000025,454.2503871000372,454.2336894001346,None,453.2375095000025,None,453.2375095000025,None,453.2375095000025,None,455.067013689992,None,455.067013689992,None,455.067013689992,None,,,,,,,,,,,,,014,2022-05-11_19h27.11.980,Main,2022.1.1,60.00186005785491,
negative,negative,1,j,l,,,,,,,,,8,9,153,0,,,,,,,,,main,2,2,1,negative,negative,j,j,1,0.8485290999524295,455.070425900165,456.0859592000488,456.0693100001663,None,455.070425900165,None,455.070425900165,None,455.070425900165,None,456.9169733901275,None,456.9169733901275,None,456.9169733901275,None,,,,,,,,,,,,,014,2022-05-11_19h27.11.980,Main,2022.1.1,60.00186005785491,
neutral,negative,1,k,k,,,,,,,,,8,10,154,7,,,,,,,,,main,2,2,1,negative,neutral,k,k,1,0.8818174002226442,456.9223958000075,457.93363640015014,457.91694460017607,None,456.9223958000075,None,456.9223958000075,None,456.9223958000075,None,458.80026049001606,None,458.80026049001606,None,458.80026049001606,None,,,,,,,,,,,,,014,2022-05-11_19h27.11.980,Main,2022.1.1,60.00186005785491,
negative,neutral,2,j,l,,,,,,,,,8,11,155,12,,,,,,,,,main,2,2,2,neutral,negative,j,j,1,1.014713800046593,458.81293490016833,459.8165367001202,459.7998705999926,None,458.81293490016833,None,458.81293490016833,None,458.81293490016833,None,460.8165036900667,None,460.8165036900667,None,460.8165036900667,None,,,,,,,,,,,,,014,2022-05-11_19h27.11.980,Main,2022.1.1,60.00186005785491,
positive,neutral,2,l,j,,,,,,,,,8,12,156,17,,,,,,,,,main,1,1,2,neutral,positive,l,l,1,0.848671899875626,460.8212062001694,461.83390590013005,461.8195403001737,None,460.8212062001694,None,460.8212062001694,None,460.8212062001694,None,462.66684259006286,None,462.66684259006286,None,462.66684259006286,None,,,,,,,,,,,,,014,2022-05-11_19h27.11.980,Main,2022.1.1,60.00186005785491,
neutral,positive,1,k,k,,,,,,,,,8,13,157,4,,,,,,,,,main,2,2,1,positive,neutral,k,k,1,0.931867599952966,462.6711336001754,463.68348220014013,463.66680260002613,None,462.6711336001754,None,462.6711336001754,None,462.6711336001754,None,464.6001658900408,None,464.6001658900408,None,464.6001658900408,None,,,,,,,,,,,,,014,2022-05-11_19h27.11.980,Main,2022.1.1,60.00186005785491,
negative,positive,2,j,l,,,,,,,,,8,14,158,15,,,,,,,,,main,2,2,2,positive,negative,j,j,1,0.9317356999963522,464.60372400004417,465.6167632001452,465.60246900003403,None,464.60372400004417,None,464.60372400004417,None,464.60372400004417,None,466.5334342899499,None,466.5334342899499,None,466.5334342899499,None,,,,,,,,,,,,,014,2022-05-11_19h27.11.980,Main,2022.1.1,60.00186005785491,
positive,positive,1,l,j,,,,,,,,,8,15,159,2,,,,,,,,,main,2,2,1,positive,positive,l,l,1,0.814564700005576,466.53968130005524,467.5500625001732,467.5334143000655,None,466.53968130005524,None,466.53968130005524,None,466.53968130005524,None,468.3497242901707,None,468.3497242901707,None,468.3497242901707,None,,,,,,,,,,,,,014,2022-05-11_19h27.11.980,Main,2022.1.1,60.00186005785491,
negative,neutral,1,j,l,,,,,,,,,8,16,160,3,,,,,,,,,main,2,2,1,neutral,negative,j,j,1,1.1649655001237988,468.35397740011103,469.3663447999861,469.3496593001764,None,468.35397740011103,None,468.35397740011103,None,468.35397740011103,None,470.51633009009527,None,470.51633009009527,None,470.51633009009527,None,,,,,,,,,,,,,014,2022-05-11_19h27.11.980,Main,2022.1.1,60.00186005785491,
positive,negative,2,l,j,,,,,,,,,8,17,161,14,,,,,,,,,main,1,1,2,negative,positive,l,l,1,1.1985640998464078,470.5165606001392,471.51655469997786,471.51655469997786,None,470.5165606001392,None,470.5165606001392,None,470.5165606001392,None,472.71633409007916,None,472.71633409007916,None,472.71633409007916,None,,,,,,,,,,,,,014,2022-05-11_19h27.11.980,Main,2022.1.1,60.00186005785491,
positive,neutral,2,l,j,,,,,,,,,9,0,162,17,,,,,,,,,main,2,2,2,neutral,positive,l,l,1,1.0150576999876648,472.7224571001716,473.73551789997146,473.71893279999495,None,472.7224571001716,None,472.7224571001716,None,472.7224571001716,None,474.73295159006955,None,474.73295159006955,None,474.73295159006955,None,,,,,,,,,,,,,014,2022-05-11_19h27.11.980,Main,2022.1.1,60.00186005785491,
neutral,negative,1,k,k,,,,,,,,,9,1,163,7,,,,,,,,,main,2,2,1,negative,neutral,k,k,1,1.0986055999528617,474.73986980016343,475.7499081999995,475.73551100003533,None,474.73986980016343,None,474.73986980016343,None,474.73986980016343,None,476.83319838994646,None,476.83319838994646,None,476.83319838994646,None,,,,,,,,,,,,,014,2022-05-11_19h27.11.980,Main,2022.1.1,60.00186005785491,
positive,positive,1,l,j,,,,,,,,,9,2,164,2,,,,,,,,,main,1,1,1,positive,positive,l,l,1,1.1810206000227481,476.8373134001158,477.84985630004667,477.8355189000722,None,476.8373134001158,None,476.8373134001158,None,476.8373134001158,None,479.01650139011906,None,479.01650139011906,None,479.01650139011906,None,,,,,,,,,,,,,014,2022-05-11_19h27.11.980,Main,2022.1.1,60.00186005785491,
negative,positive,2,j,l,,,,,,,,,9,3,165,15,,,,,,,,,main,1,1,2,positive,negative,j,j,1,0.8317321999929845,479.0196958000306,480.0274804001674,480.0053803001065,None,479.0196958000306,None,479.0196958000306,None,479.0196958000306,None,480.84965889013836,None,480.84965889013836,None,480.84965889013836,None,,,,,,,,,,,,,014,2022-05-11_19h27.11.980,Main,2022.1.1,60.00186005785491,
negative,negative,2,j,l,,,,,,,,,9,4,166,9,,,,,,,,,main,2,2,2,negative,negative,j,j,1,0.881470900028944,480.84965760004707,481.84939920017496,481.84939920017496,None,480.84965760004707,None,480.84965760004707,None,480.84965760004707,None,482.73307348995,None,482.73307348995,None,482.73307348995,None,,,,,,,,,,,,,014,2022-05-11_19h27.11.980,Main,2022.1.1,60.00186005785491,
neutral,positive,2,k,k,,,,,,,,,9,5,167,13,,,,,,,,,main,1,1,2,positive,neutral,k,k,1,0.9154233001172543,482.7392635999713,483.749787800014,483.7163985001389,None,482.7392635999713,None,482.7392635999713,None,482.7392635999713,None,484.6497121900087,None,484.6497121900087,None,484.6497121900087,None,,,,,,,,,,,,,014,2022-05-11_19h27.11.980,Main,2022.1.1,60.00186005785491,
neutral,negative,2,k,k,,,,,,,,,9,6,168,16,,,,,,,,,main,2,2,2,negative,neutral,k,k,1,0.6983944999519736,484.6555993000511,485.66854119999334,485.6496904999949,None,484.6555993000511,None,484.6555993000511,None,484.6555993000511,None,486.3496639900608,None,486.3496639900608,None,486.3496639900608,None,,,,,,,,,,,,,014,2022-05-11_19h27.11.980,Main,2022.1.1,60.00186005785491,
negative,neutral,2,j,l,,,,,,,,,9,7,169,12,,,,,,,,,main,1,1,2,neutral,negative,j,j,1,0.8824620998930186,486.35333240008913,487.3663200000301,487.35190390003845,None,486.35333240008913,None,486.35333240008913,None,486.35333240008913,None,488.2329681899631,None,488.2329681899631,None,488.2329681899631,None,,,,,,,,,,,,,014,2022-05-11_19h27.11.980,Main,2022.1.1,60.00186005785491,
positive,negative,2,l,j,,,,,,,,,9,8,170,14,,,,,,,,,main,2,2,2,negative,positive,l,l,1,0.9814883000217378,488.23915969999507,489.251835500123,489.2353356999811,None,488.23915969999507,None,488.23915969999507,None,488.23915969999507,None,490.215868790145,None,490.215868790145,None,490.215868790145,None,,,,,,,,,,,,,014,2022-05-11_19h27.11.980,Main,2022.1.1,60.00186005785491,
negative,neutral,1,j,l,,,,,,,,,9,9,171,3,,,,,,,,,main,1,1,1,neutral,negative,j,j,1,1.2487017998937517,490.2325474000536,491.2325045000762,491.2158463001251,None,490.2325474000536,None,490.2325474000536,None,490.2325474000536,None,492.4659738901304,None,492.4659738901304,None,492.4659738901304,None,,,,,,,,,,,,,014,2022-05-11_19h27.11.980,Main,2022.1.1,60.00186005785491,
neutral,neutral,2,k,k,,,,,,,,,9,10,172,10,,,,,,,,,main,2,2,2,neutral,neutral,k,k,1,0.7666668000165373,492.46927820006385,493.4826565000694,493.46609040000476,None,492.46927820006385,None,492.46927820006385,None,492.46927820006385,None,494.235246390081,None,494.235246390081,None,494.235246390081,None,,,,,,,,,,,,,014,2022-05-11_19h27.11.980,Main,2022.1.1,60.00186005785491,
negative,negative,1,j,l,,,,,,,,,9,11,173,0,,,,,,,,,main,2,2,1,negative,negative,j,j,1,0.8127921998966485,494.2384621000383,495.2518017999828,495.2350850000512,None,494.2384621000383,None,494.2384621000383,None,494.2384621000383,None,496.0495998901082,None,496.0495998901082,None,496.0495998901082,None,,,,,,,,,,,,,014,2022-05-11_19h27.11.980,Main,2022.1.1,60.00186005785491,
positive,positive,2,l,j,,,,,,,,,9,12,174,11,,,,,,,,,main,2,2,2,positive,positive,l,l,1,0.9483998001087457,496.05556960008107,497.06610210007057,497.05167499999516,None,496.05556960008107,None,496.05556960008107,None,496.05556960008107,None,497.99942098997997,None,497.99942098997997,None,497.99942098997997,None,,,,,,,,,,,,,014,2022-05-11_19h27.11.980,Main,2022.1.1,60.00186005785491,
neutral,neutral,1,k,k,,,,,,,,,9,13,175,1,,,,,,,,,main,1,1,1,neutral,neutral,k,k,1,0.8481741999275982,498.0028212000616,499.01605750015005,499.00166710000485,None,498.0028212000616,None,498.0028212000616,None,498.0028212000616,None,499.84936729001345,None,499.84936729001345,None,499.84936729001345,None,,,,,,,,,,,,,014,2022-05-11_19h27.11.980,Main,2022.1.1,60.00186005785491,
positive,neutral,1,l,j,,,,,,,,,9,14,176,8,,,,,,,,,main,1,1,1,neutral,positive,l,l,1,0.8816297999583185,499.85336600011215,500.86601540003903,500.84936120011844,None,499.85336600011215,None,499.85336600011215,None,499.85336600011215,None,501.7323198900325,None,501.7323198900325,None,501.7323198900325,None,,,,,,,,,,,,,014,2022-05-11_19h27.11.980,Main,2022.1.1,60.00186005785491,
positive,negative,1,l,j,,,,,,,,,9,15,177,5,,,,,,,,,main,1,1,1,negative,positive,l,l,1,0.8482802999205887,501.7323495999444,502.7325222999789,502.7325222999789,None,501.7323495999444,None,501.7323495999444,None,501.7323495999444,None,503.5823033901164,None,503.5823033901164,None,503.5823033901164,None,,,,,,,,,,,,,014,2022-05-11_19h27.11.980,Main,2022.1.1,60.00186005785491,
neutral,positive,1,k,k,,,,,,,,,9,16,178,4,,,,,,,,,main,2,2,1,positive,neutral,k,k,1,0.7981858002021909,503.58659119997174,504.5992873001378,504.5849220000673,None,503.58659119997174,None,503.58659119997174,None,503.58659119997174,None,505.3825875899987,None,505.3825875899987,None,505.3825875899987,None,,,,,,,,,,,,,014,2022-05-11_19h27.11.980,Main,2022.1.1,60.00186005785491,
negative,positive,1,j,l,,,,,,,,,9,17,179,6,,,,,,,,,main,2,2,1,positive,negative,j,j,1,0.9150017998181283,505.38880650000647,506.3992324999999,506.3848631000146,None,505.38880650000647,None,505.38880650000647,None,505.38880650000647,None,507.2993573900079,None,507.2993573900079,None,507.2993573900079,None,,,,,,,,,,,,,014,2022-05-11_19h27.11.980,Main,2022.1.1,60.00186005785491,
positive,positive,1,l,j,,,,,,,,,10,0,180,2,,,,,,,,,main,2,2,1,positive,positive,l,l,1,0.9142531999386847,507.30593270016834,508.31587489997037,508.2992159000132,None,507.30593270016834,None,507.30593270016834,None,507.30593270016834,None,509.2158413901692,None,509.2158413901692,None,509.2158413901692,None,,,,,,,,,,,,,014,2022-05-11_19h27.11.980,Main,2022.1.1,60.00186005785491,
neutral,neutral,2,k,k,,,,,,,,,10,1,181,10,,,,,,,,,main,2,2,2,neutral,neutral,k,k,1,0.7515659001655877,509.2193180001341,510.23248210013844,510.21581820002757,None,509.2193180001341,None,509.2193180001341,None,509.2193180001341,None,510.96914159015284,None,510.96914159015284,None,510.96914159015284,None,,,,,,,,,,,,,014,2022-05-11_19h27.11.980,Main,2022.1.1,60.00186005785491,
negative,negative,1,j,l,,,,,,,,,10,2,182,0,,,,,,,,,main,2,2,1,negative,negative,j,j,1,0.8783775998745114,510.9824669000227,511.98207010002807,511.9653925001621,None,510.9824669000227,None,510.9824669000227,None,510.9824669000227,None,512.8487772899447,None,512.8487772899447,None,512.8487772899447,None,,,,,,,,,,,,,014,2022-05-11_19h27.11.980,Main,2022.1.1,60.00186005785491,
neutral,negative,1,k,k,,,,,,,,,10,3,183,7,,,,,,,,,main,2,2,1,negative,neutral,k,k,1,1.0485433000139892,512.8505681999959,513.8654185000341,513.8487544001546,None,512.8505681999959,None,512.8505681999959,None,512.8505681999959,None,514.8987681900384,None,514.8987681900384,None,514.8987681900384,None,,,,,,,,,,,,,014,2022-05-11_19h27.11.980,Main,2022.1.1,60.00186005785491,
neutral,positive,2,k,k,,,,,,,,,10,4,184,13,,,,,,,,,main,2,2,2,positive,neutral,k,k,1,0.6860372999217361,514.9156259000301,515.9182174000889,515.9013537000865,None,514.9156259000301,None,514.9156259000301,None,514.9156259000301,None,516.5824883901281,None,516.5824883901281,None,516.5824883901281,None,,,,,,,,,,,,,014,2022-05-11_19h27.11.980,Main,2022.1.1,60.00186005785491,
positive,negative,2,l,j,,,,,,,,,10,5,185,14,,,,,,,,,main,1,1,2,negative,positive,l,l,1,0.8442104998975992,516.5949236999732,517.6013670000248,517.5680571000557,None,516.5949236999732,None,516.5949236999732,None,516.5949236999732,None,518.4323186899768,None,518.4323186899768,None,518.4323186899768,None,,,,,,,,,,,,,014,2022-05-11_19h27.11.980,Main,2022.1.1,60.00186005785491,
positive,neutral,1,l,j,,,,,,,,,10,6,186,8,,,,,,,,,main,1,1,1,neutral,positive,l,l,1,1.130979600129649,518.4363432000391,519.4511722000316,519.4322860999964,None,518.4363432000391,None,518.4363432000391,None,518.4363432000391,None,520.5656058899825,None,520.5656058899825,None,520.5656058899825,None,,,,,,,,,,,,,014,2022-05-11_19h27.11.980,Main,2022.1.1,60.00186005785491,
neutral,negative,2,k,k,,,,,,,,,10,7,187,16,,,,,,,,,main,2,2,2,negative,neutral,k,k,1,0.8305310001596808,520.5693010999821,521.5822443000507,521.5655658999458,None,520.5693010999821,None,520.5693010999821,None,520.5693010999821,None,522.3977080899989,None,522.3977080899989,None,522.3977080899989,None,,,,,,,,,,,,,014,2022-05-11_19h27.11.980,Main,2022.1.1,60.00186005785491,
negative,positive,2,j,l,,,,,,,,,10,8,188,15,,,,,,,,,main,2,2,2,positive,negative,j,j,1,0.8658819000702351,522.4144085999578,523.4151884000748,523.3985186000355,None,522.4144085999578,None,522.4144085999578,None,522.4144085999578,None,524.2651590900263,None,524.2651590900263,None,524.2651590900263,None,,,,,,,,,,,,,014,2022-05-11_19h27.11.980,Main,2022.1.1,60.00186005785491,
negative,neutral,1,j,l,,,,,,,,,10,9,189,3,,,,,,,,,main,1,1,1,neutral,negative,j,j,1,1.1655242999549955,524.2651873000432,525.2677760000806,525.2677760000806,None,524.2651873000432,None,524.2651873000432,None,524.2651873000432,None,526.4325108900433,None,526.4325108900433,None,526.4325108900433,None,,,,,,,,,,,,,014,2022-05-11_19h27.11.980,Main,2022.1.1,60.00186005785491,
neutral,neutral,1,k,k,,,,,,,,,10,10,190,1,,,,,,,,,main,2,2,1,neutral,neutral,k,k,1,0.9311128000263125,526.4385420000181,527.4511023000814,527.4344158000313,None,526.4385420000181,None,526.4385420000181,None,526.4385420000181,None,528.365277989977,None,528.365277989977,None,528.365277989977,None,,,,,,,,,,,,,014,2022-05-11_19h27.11.980,Main,2022.1.1,60.00186005785491,
positive,negative,1,l,j,,,,,,,,,10,11,191,5,,,,,,,,,main,1,1,1,negative,positive,l,l,1,0.8655054001137614,528.3721692000981,529.3820706000552,529.3654044000432,None,528.3721692000981,None,528.3721692000981,None,528.3721692000981,None,530.2320564901223,None,530.2320564901223,None,530.2320564901223,None,,,,,,,,,,,,,014,2022-05-11_19h27.11.980,Main,2022.1.1,60.00186005785491,
neutral,positive,1,k,k,,,,,,,,,10,12,192,4,,,,,,,,,main,2,2,1,positive,neutral,k,k,1,0.8460554999765009,530.2355649000965,531.248692400055,531.2320302999578,None,530.2355649000965,None,530.2355649000965,None,530.2355649000965,None,532.0796938901534,None,532.0796938901534,None,532.0796938901534,None,,,,,,,,,,,,,014,2022-05-11_19h27.11.980,Main,2022.1.1,60.00186005785491,
positive,neutral,2,l,j,,,,,,,,,10,13,193,17,,,,,,,,,main,2,2,2,neutral,positive,l,l,1,0.817384900059551,532.0911751000676,533.0982949000318,533.0816284001339,None,532.0911751000676,None,532.0911751000676,None,532.0911751000676,None,533.898295190162,None,533.898295190162,None,533.898295190162,None,,,,,,,,,,,,,014,2022-05-11_19h27.11.980,Main,2022.1.1,60.00186005785491,
negative,neutral,2,j,l,,,,,,,,,10,14,194,12,,,,,,,,,main,2,2,2,neutral,negative,j,j,1,0.9318458000198007,533.8985018001404,534.8983003001194,534.8983003001194,None,533.8985018001404,None,533.8985018001404,None,533.8985018001404,None,535.8316531900549,None,535.8316531900549,None,535.8316531900549,None,,,,,,,,,,,,,014,2022-05-11_19h27.11.980,Main,2022.1.1,60.00186005785491,
negative,positive,1,j,l,,,,,,,,,10,15,195,6,,,,,,,,,main,1,1,1,positive,negative,j,j,1,1.064338999800384,535.8362908000126,536.8508695999626,536.8342536001,None,535.8362908000126,None,535.8362908000126,None,535.8362908000126,None,537.898711590073,None,537.898711590073,None,537.898711590073,None,,,,,,,,,,,,,014,2022-05-11_19h27.11.980,Main,2022.1.1,60.00186005785491,
negative,negative,2,j,l,,,,,,,,,10,16,196,9,,,,,,,,,main,2,2,2,negative,negative,j,j,1,1.4482229999266565,537.9021909001749,538.9174250999931,538.8985346001573,None,537.9021909001749,None,537.9021909001749,None,537.9021909001749,None,540.3485164900543,None,540.3485164900543,None,540.3485164900543,None,,,,,,,,,,,,,014,2022-05-11_19h27.11.980,Main,2022.1.1,60.00186005785491,
positive,positive,2,l,j,,,,,,,,,10,17,197,11,,,,,,,,,main,1,1,2,positive,positive,l,l,1,0.7818185000214726,540.3524579000659,541.3651497999672,541.3484863999765,None,540.3524579000659,None,540.3524579000659,None,540.3524579000659,None,542.1318085901206,None,542.1318085901206,None,542.1318085901206,None,,,,,,,,,,,,,014,2022-05-11_19h27.11.980,Main,2022.1.1,60.00186005785491,
neutral,negative,2,k,k,,,,,,,,,11,0,198,16,,,,,,,,,main,2,2,2,negative,neutral,k,k,1,0.9347395999357104,542.135440699989,543.1480690001044,543.1313939001411,None,542.135440699989,None,542.135440699989,None,542.135440699989,None,544.0648033900419,None,544.0648033900419,None,544.0648033900419,None,,,,,,,,,,,,,014,2022-05-11_19h27.11.980,Main,2022.1.1,60.00186005785491,
positive,negative,2,l,j,,,,,,,,,11,1,199,14,,,,,,,,,main,2,2,2,negative,positive,l,l,1,0.8109398998785764,544.0745023000054,545.0814072000794,545.0647436000872,None,544.0745023000054,None,544.0745023000054,None,544.0745023000054,None,545.8817327900091,None,545.8817327900091,None,545.8817327900091,None,,,,,,,,,,,,,014,2022-05-11_19h27.11.980,Main,2022.1.1,60.00186005785491,
neutral,negative,1,k,k,,,,,,,,,11,2,200,7,,,,,,,,,main,2,2,1,negative,neutral,k,k,1,0.8482363999355584,545.885329999961,546.8983671001624,546.8817082000896,None,545.885329999961,None,545.885329999961,None,545.885329999961,None,547.7316901900107,None,547.7316901900107,None,547.7316901900107,None,,,,,,,,,,,,,014,2022-05-11_19h27.11.980,Main,2022.1.1,60.00186005785491,
positive,neutral,2,l,j,,,,,,,,,11,3,201,17,,,,,,,,,main,1,1,2,neutral,positive,l,l,1,0.7825808001216501,547.7357377000153,548.7506011000369,548.7317061000504,None,547.7357377000153,None,547.7357377000153,None,547.7357377000153,None,549.5158100900939,None,549.5158100900939,None,549.5158100900939,None,,,,,,,,,,,,,014,2022-05-11_19h27.11.980,Main,2022.1.1,60.00186005785491,
positive,positive,2,l,j,,,,,,,,,11,4,202,11,,,,,,,,,main,2,2,2,positive,positive,l,l,1,0.6978090999182314,549.5215801000595,550.531623700168,550.5149505001027,None,549.5215801000595,None,549.5215801000595,None,549.5215801000595,None,551.2149397900561,None,551.2149397900561,None,551.2149397900561,None,,,,,,,,,,,,,014,2022-05-11_19h27.11.980,Main,2022.1.1,60.00186005785491,
positive,negative,1,l,j,,,,,,,,,11,5,203,5,,,,,,,,,main,1,1,1,negative,positive,l,l,1,0.9471515000332147,551.2192975000944,552.2338000000454,552.2171922000125,None,551.2192975000944,None,551.2192975000944,None,551.2192975000944,None,553.1645184899447,None,553.1645184899447,None,553.1645184899447,None,,,,,,,,,,,,,014,2022-05-11_19h27.11.980,Main,2022.1.1,60.00186005785491,
negative,neutral,1,j,l,,,,,,,,,11,6,204,3,,,,,,,,,main,1,1,1,neutral,negative,j,j,1,0.8983082000631839,553.1649968000129,554.1644978001714,554.1644978001714,None,553.1649968000129,None,553.1649968000129,None,553.1649968000129,None,555.064552290109,None,555.064552290109,None,555.064552290109,None,,,,,,,,,,,,,014,2022-05-11_19h27.11.980,Main,2022.1.1,60.00186005785491,
neutral,neutral,1,k,k,,,,,,,,,11,7,205,1,,,,,,,,,main,2,2,1,neutral,neutral,k,k,1,0.7652016000356525,555.0699831000529,556.0814896000084,556.0671031000093,None,555.0699831000529,None,555.0699831000529,None,555.0699831000529,None,556.8311654899502,None,556.8311654899502,None,556.8311654899502,None,,,,,,,,,,,,,014,2022-05-11_19h27.11.980,Main,2022.1.1,60.00186005785491,
negative,negative,2,j,l,,,,,,,,,11,8,206,9,,,,,,,,,main,2,2,2,negative,negative,j,j,1,0.8154845999088138,556.8343760001007,557.8314619001467,557.8314619001467,None,556.8343760001007,None,556.8343760001007,None,556.8343760001007,None,558.6481690900167,None,558.6481690900167,None,558.6481690900167,None,,,,,,,,,,,,,014,2022-05-11_19h27.11.980,Main,2022.1.1,60.00186005785491,
positive,positive,1,l,j,,,,,,,,,11,9,207,2,,,,,,,,,main,2,2,1,positive,positive,l,l,1,0.7311912002041936,558.6523845000193,559.6647554000374,559.6504061000887,None,558.6523845000193,None,558.6523845000193,None,558.6523845000193,None,560.3814139901427,None,560.3814139901427,None,560.3814139901427,None,,,,,,,,,,,,,014,2022-05-11_19h27.11.980,Main,2022.1.1,60.00186005785491,
neutral,positive,1,k,k,,,,,,,,,11,10,208,4,,,,,,,,,main,1,1,1,positive,neutral,k,k,1,0.7999243000522256,560.3860768999439,561.3980565001257,561.3813974000514,None,560.3860768999439,None,560.3860768999439,None,560.3860768999439,None,562.1838667900068,None,562.1838667900068,None,562.1838667900068,None,,,,,,,,,,,,,014,2022-05-11_19h27.11.980,Main,2022.1.1,60.00186005785491,
negative,negative,1,j,l,,,,,,,,,11,11,209,0,,,,,,,,,main,1,1,1,negative,negative,j,j,1,0.8286349000409245,562.1940661000554,563.1976624000818,563.180997800082,None,562.1940661000554,None,562.1940661000554,None,562.1940661000554,None,564.0142808900913,None,564.0142808900913,None,564.0142808900913,None,,,,,,,,,,,,,014,2022-05-11_19h27.11.980,Main,2022.1.1,60.00186005785491,
negative,positive,1,j,l,,,,,,,,,11,12,210,6,,,,,,,,,main,2,2,1,positive,negative,j,j,1,0.7322545000351965,564.0142864000518,565.0143059000839,565.0143059000839,None,564.0142864000518,None,564.0142864000518,None,564.0142864000518,None,565.7476529900217,None,565.7476529900217,None,565.7476529900217,None,,,,,,,,,,,,,014,2022-05-11_19h27.11.980,Main,2022.1.1,60.00186005785491,
negative,neutral,2,j,l,,,,,,,,,11,13,211,12,,,,,,,,,main,2,2,2,neutral,negative,j,j,1,0.7984476001001894,565.7500116999727,566.7667799999472,566.750328999944,None,565.7500116999727,None,565.7500116999727,None,565.7500116999727,None,567.5479693901492,None,567.5479693901492,None,567.5479693901492,None,,,,,,,,,,,,,014,2022-05-11_19h27.11.980,Main,2022.1.1,60.00186005785491,
neutral,positive,2,k,k,,,,,,,,,11,14,212,13,,,,,,,,,main,2,2,2,positive,neutral,k,k,1,0.7651739998254925,567.5520295000169,568.5645854000468,568.550283400109,None,567.5520295000169,None,567.5520295000169,None,567.5520295000169,None,569.314562990074,None,569.314562990074,None,569.314562990074,None,,,,,,,,,,,,,014,2022-05-11_19h27.11.980,Main,2022.1.1,60.00186005785491,
negative,positive,2,j,l,,,,,,,,,11,15,213,15,,,,,,,,,main,2,2,2,positive,negative,j,j,1,0.7983482000418007,569.3186210000422,570.3312047000509,570.3145276999567,None,569.3186210000422,None,569.3186210000422,None,569.3186210000422,None,571.1145278899697,None,571.1145278899697,None,571.1145278899697,None,,,,,,,,,,,,,014,2022-05-11_19h27.11.980,Main,2022.1.1,60.00186005785491,
positive,neutral,1,l,j,,,,,,,,,11,16,214,8,,,,,,,,,main,1,1,1,neutral,positive,l,l,1,0.8652159001212567,571.1182874001097,572.1311596999876,572.1001875000075,None,571.1182874001097,None,571.1182874001097,None,571.1182874001097,None,572.9811493900837,None,572.9811493900837,None,572.9811493900837,None,,,,,,,,,,,,,014,2022-05-11_19h27.11.980,Main,2022.1.1,60.00186005785491,
neutral,neutral,2,k,k,,,,,,,,,11,17,215,10,,,,,,,,,main,2,2,2,neutral,neutral,k,k,1,0.8148667998611927,572.9848907999694,573.9974175000098,573.9807484999765,None,572.9848907999694,None,572.9848907999694,None,572.9848907999694,None,574.7974237899529,None,574.7974237899529,None,574.7974237899529,None,,,,,,,,,,,,,014,2022-05-11_19h27.11.980,Main,2022.1.1,60.00186005785491,
negative,positive,2,j,l,,,,,,,,,12,0,216,15,,,,,,,,,main,1,1,2,positive,negative,j,j,1,0.8181896000169218,574.8143011999782,575.8144598000217,575.7977829000447,None,574.8143011999782,None,574.8143011999782,None,574.8143011999782,None,576.6173946901457,None,576.6173946901457,None,576.6173946901457,None,,,,,,,,,,,,,014,2022-05-11_19h27.11.980,Main,2022.1.1,60.00186005785491,
neutral,positive,1,k,k,,,,,,,,,12,1,217,4,,,,,,,,,main,2,2,1,positive,neutral,k,k,1,0.7460884000174701,576.6215880000964,577.6333523001522,577.6143879001029,None,576.6215880000964,None,576.6215880000964,None,576.6215880000964,None,578.3651670899475,None,578.3651670899475,None,578.3651670899475,None,,,,,,,,,,,,,014,2022-05-11_19h27.11.980,Main,2022.1.1,60.00186005785491,
negative,neutral,1,j,l,,,,,,,,,12,2,218,3,,,,,,,,,main,2,2,1,neutral,negative,j,j,1,0.7644992999266833,578.37114199996,579.3810127000324,579.3643972000573,None,578.37114199996,None,578.37114199996,None,578.37114199996,None,580.1309951899806,None,580.1309951899806,None,580.1309951899806,None,,,,,,,,,,,,,014,2022-05-11_19h27.11.980,Main,2022.1.1,60.00186005785491,
positive,neutral,1,l,j,,,,,,,,,12,3,219,8,,,,,,,,,main,1,1,1,neutral,positive,l,l,1,0.8326499999966472,580.1341956001706,581.1499087000266,581.1309852001723,None,580.1341956001706,None,580.1341956001706,None,580.1341956001706,None,581.964269889961,None,581.964269889961,None,581.964269889961,None,,,,,,,,,,,,,014,2022-05-11_19h27.11.980,Main,2022.1.1,60.00186005785491,
neutral,negative,2,k,k,,,,,,,,,12,4,220,16,,,,,,,,,main,2,2,2,negative,neutral,k,k,1,0.7470841000322253,581.9686708000954,582.9805527001154,582.9472185000777,None,581.9686708000954,None,581.9686708000954,None,581.9686708000954,None,583.7138808900257,None,583.7138808900257,None,583.7138808900257,None,,,,,,,,,,,,,014,2022-05-11_19h27.11.980,Main,2022.1.1,60.00186005785491,
positive,negative,2,l,j,,,,,,,,,12,5,221,14,,,,,,,,,main,1,1,2,negative,positive,l,l,1,1.0819802999030799,583.7138706000987,584.7138425000012,584.7138425000012,None,583.7138706000987,None,583.7138706000987,None,583.7138706000987,None,585.7972208901541,None,585.7972208901541,None,585.7972208901541,None,,,,,,,,,,,,,014,2022-05-11_19h27.11.980,Main,2022.1.1,60.00186005785491,
negative,neutral,2,j,l,,,,,,,,,12,6,222,12,,,,,,,,,main,2,2,2,neutral,negative,j,j,1,0.9987665999215096,585.8008936999831,586.8141942000948,586.797540999949,None,585.8008936999831,None,585.8008936999831,None,585.8008936999831,None,587.7975131901679,None,587.7975131901679,None,587.7975131901679,None,,,,,,,,,,,,,014,2022-05-11_19h27.11.980,Main,2022.1.1,60.00186005785491,
neutral,negative,1,k,k,,,,,,,,,12,7,223,7,,,,,,,,,main,1,1,1,negative,neutral,k,k,1,0.7650342998094857,587.8033120001201,588.8141449000686,588.7974851001054,None,587.8033120001201,None,587.8033120001201,None,587.8033120001201,None,589.5641443901462,None,589.5641443901462,None,589.5641443901462,None,,,,,,,,,,,,,014,2022-05-11_19h27.11.980,Main,2022.1.1,60.00186005785491,
negative,negative,2,j,l,,,,,,,,,12,8,224,9,,,,,,,,,main,2,2,2,negative,negative,j,j,1,1.148469900013879,589.5673891000915,590.580766600091,590.564109200146,None,589.5673891000915,None,589.5673891000915,None,589.5673891000915,None,591.7142213899409,None,591.7142213899409,None,591.7142213899409,None,,,,,,,,,,,,,014,2022-05-11_19h27.11.980,Main,2022.1.1,60.00186005785491,
