target,distractor,set,ans1,ans2,rep_loop2.thisRepN,rep_loop2.thisTrialN,rep_loop2.thisN,rep_loop2.thisIndex,flanker_prac_loop.thisRepN,flanker_prac_loop.thisTrialN,flanker_prac_loop.thisN,flanker_prac_loop.thisIndex,flanker_main_loop.thisRepN,flanker_main_loop.thisTrialN,flanker_main_loop.thisN,flanker_main_loop.thisIndex,fl_inst_resp.keys,fl_inst_resp.rt,sound_1.started,sound_1.stopped,image_4.started,image_4.stopped,back_2.started,back_2.stopped,main_prac,fl_cold,fl_colt,fl_set,fl_dcond,fl_tcond,fl_ans,fl_res,fl_corr,fl_rt,fix_fl.started,fix_fl.stopped,targ.started,targ.stopped,j_button.started,j_button.stopped,k_button.started,k_button.stopped,l_button.started,l_button.stopped,j_button2.started,j_button2.stopped,k_button2.started,k_button2.stopped,l_button2.started,l_button2.stopped,mainback.started,mainback.stopped,key_resp.keys,mouse_6.x,mouse_6.y,mouse_6.leftButton,mouse_6.midButton,mouse_6.rightButton,mouse_6.started,mouse_6.stopped,text_2.started,text_2.stopped,id*,date,expName,psychopyVersion,frameRate,
,,,,,0,0,0,0,,,,,,,,,space,54.04991560000053,34.47052896000241,None,88.55281210000248,None,,,,,,,,,,,,,,,,,,,,,,,,,,,,,,,,,,,,,,,,,015,2022-05-12_10h33.53.725,Main,2022.1.1,61.18146299529477,
positive,negative,2,l,j,,,,,0,0,0,14,,,,,,,,,,,93.68491540000105,None,prac,1,1,2,negative,positive,j,j,1,2.144017699996766,95.71020259999932,96.71705490000022,96.70264280000265,None,95.71020259999932,None,95.71020259999932,None,95.71020259999932,None,98.85008260000177,None,98.85008260000177,None,98.85008260000177,None,,,,,,,,,,,,,015,2022-05-12_10h33.53.725,Main,2022.1.1,61.18146299529477,
neutral,negative,1,k,k,,,,,0,1,1,7,,,,,,,,,,,,,prac,2,2,1,negative,neutral,k,k,1,1.369909799999732,99.85843179999938,100.86926170000515,100.85258880000038,None,99.85843179999938,None,99.85843179999938,None,99.85843179999938,None,102.21683896000468,None,102.21683896000468,None,102.21683896000468,None,,,,,,,,,,,,,015,2022-05-12_10h33.53.725,Main,2022.1.1,61.18146299529477,
positive,neutral,2,l,j,,,,,0,2,2,17,,,,,,,,,,,,,prac,2,2,2,neutral,positive,j,j,1,1.0979890000016894,102.22862819999864,103.23298860000068,103.21138490000158,None,102.22862819999864,None,102.22862819999864,None,102.22862819999864,None,104.31649586000276,None,104.31649586000276,None,104.31649586000276,None,,,,,,,,,,,,,015,2022-05-12_10h33.53.725,Main,2022.1.1,61.18146299529477,
negative,positive,1,j,l,,,,,0,3,3,6,,,,,,,,,,,,,prac,2,2,1,positive,negative,l,l,1,1.0315138999940245,104.31849900000088,105.33323860000382,105.31654990000243,None,104.31849900000088,None,104.31849900000088,None,104.31849900000088,None,106.3500979599994,None,106.3500979599994,None,106.3500979599994,None,,,,,,,,,,,,,015,2022-05-12_10h33.53.725,Main,2022.1.1,61.18146299529477,
negative,negative,2,j,l,,,,,0,4,4,9,,,,,,,,,,,,,prac,2,2,2,negative,negative,l,l,1,0.9154721999948379,106.36439990000508,107.36897840000165,107.35015610000119,None,106.36439990000508,None,106.36439990000508,None,106.36439990000508,None,108.26672536000115,None,108.26672536000115,None,108.26672536000115,None,,,,,,,,,,,,,015,2022-05-12_10h33.53.725,Main,2022.1.1,61.18146299529477,
neutral,neutral,1,k,k,,,,,0,5,5,1,,,,,,,,,,,,,prac,2,2,1,neutral,neutral,k,k,1,0.9653376999995089,108.27863680000155,109.28572220000206,109.25241050000477,None,108.27863680000155,None,108.27863680000155,None,108.27863680000155,None,110.23345556000277,None,110.23345556000277,None,110.23345556000277,None,,,,,,,,,,,,,015,2022-05-12_10h33.53.725,Main,2022.1.1,61.18146299529477,
negative,positive,2,j,l,,,,,0,6,6,15,,,,,,,,,,,,,prac,1,1,2,positive,negative,l,l,1,0.8985918999969726,110.24550360000285,111.25009810000483,111.23570879999897,None,110.24550360000285,None,110.24550360000285,None,110.24550360000285,None,112.13331386000209,None,112.13331386000209,None,112.13331386000209,None,,,,,,,,,,,,,015,2022-05-12_10h33.53.725,Main,2022.1.1,61.18146299529477,
neutral,positive,1,k,k,,,,,0,7,7,4,,,,,,,,,,,,,prac,2,2,1,positive,neutral,k,k,1,0.848382500000298,112.13684020000073,113.14966550000099,113.13301109999884,None,112.13684020000073,None,112.13684020000073,None,112.13684020000073,None,113.98289746000228,None,113.98289746000228,None,113.98289746000228,None,,,,,,,,,,,,,015,2022-05-12_10h33.53.725,Main,2022.1.1,61.18146299529477,
neutral,negative,2,k,k,,,,,0,8,8,16,,,,,,,,,,,,,prac,1,1,2,negative,neutral,k,k,1,0.9477499000058742,113.99561840000388,114.99968369999988,114.98301370000263,None,113.99561840000388,None,113.99561840000388,None,113.99561840000388,None,115.93292006000411,None,115.93292006000411,None,115.93292006000411,None,,,,,,,,,,,,,015,2022-05-12_10h33.53.725,Main,2022.1.1,61.18146299529477,
negative,negative,1,j,l,,,,,0,9,9,0,,,,,,,,,,,,,prac,2,2,1,negative,negative,l,l,1,1.0658326000047964,115.93427340000198,116.94969610000408,116.9330104000037,None,115.93427340000198,None,115.93427340000198,None,115.93427340000198,None,117.99987795999914,None,117.99987795999914,None,117.99987795999914,None,,,,,,,,,,,,,015,2022-05-12_10h33.53.725,Main,2022.1.1,61.18146299529477,
neutral,positive,2,k,k,,,,,0,10,10,13,,,,,,,,,,,,,prac,2,2,2,positive,neutral,k,k,1,0.8489144999985001,118.0048295000015,119.01659680000012,118.99993900000118,None,118.0048295000015,None,118.0048295000015,None,118.0048295000015,None,119.84982576000039,None,119.84982576000039,None,119.84982576000039,None,,,,,,,,,,,,,015,2022-05-12_10h33.53.725,Main,2022.1.1,61.18146299529477,
negative,neutral,2,j,l,,,,,0,11,11,12,,,,,,,,,,,,,prac,1,1,2,neutral,negative,l,k,0,0.832791000000725,119.86128070000268,120.86878689999867,120.85222680000152,None,119.86128070000268,None,119.86128070000268,None,119.86128070000268,None,121.68323470000178,None,121.68323470000178,None,121.68323470000178,None,,,,,,,,,,,,,015,2022-05-12_10h33.53.725,Main,2022.1.1,61.18146299529477,
positive,positive,2,l,j,,,,,0,12,12,11,,,,,,,,,,,,,prac,2,2,2,positive,positive,j,j,1,1.0677712999968207,122.68426660000114,123.69987720000063,123.66653139999835,None,122.68426660000114,None,122.68426660000114,None,122.68426660000114,None,124.74935926000035,None,124.74935926000035,None,124.74935926000035,None,,,,,,,,,,,,,015,2022-05-12_10h33.53.725,Main,2022.1.1,61.18146299529477,
neutral,neutral,2,k,k,,,,,0,13,13,10,,,,,,,,,,,,,prac,1,1,2,neutral,neutral,k,k,1,0.8316844000000856,124.74944839999807,125.74965630000224,125.74965630000224,None,124.74944839999807,None,124.74944839999807,None,124.74944839999807,None,126.5827065600024,None,126.5827065600024,None,126.5827065600024,None,,,,,,,,,,,,,015,2022-05-12_10h33.53.725,Main,2022.1.1,61.18146299529477,
positive,neutral,1,l,j,,,,,0,14,14,8,,,,,,,,,,,,,prac,1,1,1,neutral,positive,j,l,0,1.6849864999967394,126.58865979999973,127.60215890000109,127.58542870000383,None,126.58865979999973,None,126.58865979999973,None,126.58865979999973,None,129.2661980999983,None,129.2661980999983,None,129.2661980999983,None,,,,,,,,,,,,,015,2022-05-12_10h33.53.725,Main,2022.1.1,61.18146299529477,
positive,negative,1,l,j,,,,,0,15,15,5,,,,,,,,,,,,,prac,2,2,1,negative,positive,j,j,1,1.4847289000026649,130.26775830000406,131.26872140000341,131.2519734000016,None,130.26775830000406,None,130.26775830000406,None,130.26775830000406,None,132.74957716000063,None,132.74957716000063,None,132.74957716000063,None,,,,,,,,,,,,,015,2022-05-12_10h33.53.725,Main,2022.1.1,61.18146299529477,
positive,positive,1,l,j,,,,,0,16,16,2,,,,,,,,,,,,,prac,1,1,1,positive,positive,j,j,1,1.2980934000006528,132.75438470000518,133.76631199999974,133.74966700000368,None,132.75438470000518,None,132.75438470000518,None,132.75438470000518,None,135.04916706000222,None,135.04916706000222,None,135.04916706000222,None,,,,,,,,,,,,,015,2022-05-12_10h33.53.725,Main,2022.1.1,61.18146299529477,
negative,neutral,1,j,l,,,,,0,17,17,3,,,,,,,,,,,,,prac,2,2,1,neutral,negative,l,l,1,1.1480239000011352,135.04982040000323,136.04926610000257,136.04926610000257,None,135.04982040000323,None,135.04982040000323,None,135.04982040000323,None,137.19913775999885,None,137.19913775999885,None,137.19913775999885,None,,,,,,,,,,,,,015,2022-05-12_10h33.53.725,Main,2022.1.1,61.18146299529477,
positive,positive,2,l,j,,,,,1,0,18,11,,,,,,,,,,,,,prac,2,2,2,positive,positive,j,j,1,0.8658216000039829,137.19947120000143,138.1992365000042,138.1992365000042,None,137.19947120000143,None,137.19947120000143,None,137.19947120000143,None,139.06610956000077,None,139.06610956000077,None,139.06610956000077,None,,,,,,,,,,,,,015,2022-05-12_10h33.53.725,Main,2022.1.1,61.18146299529477,
neutral,negative,2,k,k,,,,,1,1,19,16,,,,,,,,,,,,,prac,2,2,2,negative,neutral,k,k,1,0.7027564000018174,139.06961250000313,140.08503840000049,140.0684728999986,None,139.06961250000313,None,139.06961250000313,None,139.06961250000313,None,140.7701713600036,None,140.7701713600036,None,140.7701713600036,None,,,,,,,,,,,,,015,2022-05-12_10h33.53.725,Main,2022.1.1,61.18146299529477,
neutral,positive,2,k,k,,,,,1,2,20,13,,,,,,,,,,,,,prac,2,2,2,positive,neutral,k,k,1,1.36062650000531,140.7741718000034,141.78281589999824,141.7661378000048,None,140.7741718000034,None,140.7741718000034,None,140.7741718000034,None,143.13275065999915,None,143.13275065999915,None,143.13275065999915,None,,,,,,,,,,,,,015,2022-05-12_10h33.53.725,Main,2022.1.1,61.18146299529477,
neutral,neutral,2,k,k,,,,,1,3,21,10,,,,,,,,,,,,,prac,2,2,2,neutral,neutral,k,k,1,0.6321944000010262,143.13674580000225,144.14944829999877,144.13277150000067,None,143.13674580000225,None,143.13674580000225,None,143.13674580000225,None,144.76600486000098,None,144.76600486000098,None,144.76600486000098,None,,,,,,,,,,,,,015,2022-05-12_10h33.53.725,Main,2022.1.1,61.18146299529477,
positive,positive,1,l,j,,,,,1,4,22,2,,,,,,,,,,,,,prac,2,2,1,positive,positive,j,j,1,1.0981265000009444,144.76967870000226,145.78237349999836,145.7657016000012,None,144.76967870000226,None,144.76967870000226,None,144.76967870000226,None,146.8655819600026,None,146.8655819600026,None,146.8655819600026,None,,,,,,,,,,,,,015,2022-05-12_10h33.53.725,Main,2022.1.1,61.18146299529477,
neutral,negative,1,k,k,,,,,1,5,23,7,,,,,,,,,,,,,prac,2,2,1,negative,neutral,k,k,1,0.6157801999943331,146.86567430000287,147.86604950000037,147.84968389999995,None,146.86567430000287,None,146.86567430000287,None,146.86567430000287,None,148.48261916000047,None,148.48261916000047,None,148.48261916000047,None,,,,,,,,,,,,,015,2022-05-12_10h33.53.725,Main,2022.1.1,61.18146299529477,
negative,positive,1,j,l,,,,,1,6,24,6,,,,,,,,,,,,,prac,2,2,1,positive,negative,l,l,1,1.065704700005881,148.48832419999962,149.5015629000045,149.48265530000208,None,148.48832419999962,None,148.48832419999962,None,148.48832419999962,None,150.549433760003,None,150.549433760003,None,150.549433760003,None,,,,,,,,,,,,,015,2022-05-12_10h33.53.725,Main,2022.1.1,61.18146299529477,
negative,neutral,2,j,l,,,,,1,7,25,12,,,,,,,,,,,,,prac,2,2,2,neutral,negative,l,l,1,0.817436400000588,150.55531350000092,151.5659558000043,151.5492951000051,None,150.55531350000092,None,150.55531350000092,None,150.55531350000092,None,152.36812016000476,None,152.36812016000476,None,152.36812016000476,None,,,,,,,,,,,,,015,2022-05-12_10h33.53.725,Main,2022.1.1,61.18146299529477,
positive,negative,2,l,j,,,,,1,8,26,14,,,,,,,,,,,,,prac,1,1,2,negative,positive,j,j,1,0.8629742000048282,152.37116160000005,153.38488620000135,153.36593330000323,None,152.37116160000005,None,152.37116160000005,None,152.37116160000005,None,154.23255405999953,None,154.23255405999953,None,154.23255405999953,None,,,,,,,,,,,,,015,2022-05-12_10h33.53.725,Main,2022.1.1,61.18146299529477,
positive,neutral,1,l,j,,,,,1,9,27,8,,,,,,,,,,,,,prac,2,2,1,neutral,positive,j,j,1,1.0150193000008585,154.23583850000432,155.2488383000018,155.23216910000338,None,154.23583850000432,None,154.23583850000432,None,154.23583850000432,None,156.24872755999968,None,156.24872755999968,None,156.24872755999968,None,,,,,,,,,,,,,015,2022-05-12_10h33.53.725,Main,2022.1.1,61.18146299529477,
positive,neutral,2,l,j,,,,,1,10,28,17,,,,,,,,,,,,,prac,2,2,2,neutral,positive,j,j,1,0.7823942999966675,156.24881989999994,157.24917980000464,157.24917980000464,None,156.24881989999994,None,156.24881989999994,None,156.24881989999994,None,158.03243805999955,None,158.03243805999955,None,158.03243805999955,None,,,,,,,,,,,,,015,2022-05-12_10h33.53.725,Main,2022.1.1,61.18146299529477,
negative,neutral,1,j,l,,,,,1,11,29,3,,,,,,,,,,,,,prac,2,2,1,neutral,negative,l,l,1,1.5694149999981164,158.03575790000468,159.04915440000332,159.03246980000404,None,158.03575790000468,None,158.03575790000468,None,158.03575790000468,None,160.59995580000395,None,160.59995580000395,None,160.59995580000395,None,,,,,,,,,,,,,015,2022-05-12_10h33.53.725,Main,2022.1.1,61.18146299529477,
neutral,positive,1,k,k,,,,,1,12,30,4,,,,,,,,,,,,,prac,1,1,1,positive,neutral,k,k,1,0.8014896999957273,161.59994079999888,162.60133420000057,162.58240440000372,None,161.59994079999888,None,161.59994079999888,None,161.59994079999888,None,163.39895776000048,None,163.39895776000048,None,163.39895776000048,None,,,,,,,,,,,,,015,2022-05-12_10h33.53.725,Main,2022.1.1,61.18146299529477,
positive,negative,1,l,j,,,,,1,13,31,5,,,,,,,,,,,,,prac,2,2,1,negative,positive,j,l,0,0.7646619000006467,163.40273660000094,164.41532310000184,164.3986522999985,None,163.40273660000094,None,163.40273660000094,None,163.40273660000094,None,165.16530580000108,None,165.16530580000108,None,165.16530580000108,None,,,,,,,,,,,,,015,2022-05-12_10h33.53.725,Main,2022.1.1,61.18146299529477,
neutral,neutral,1,k,k,,,,,1,14,32,1,,,,,,,,,,,,,prac,1,1,1,neutral,neutral,k,k,1,1.0034549000047264,166.16984339999908,167.18455099999846,167.16784420000477,None,166.16984339999908,None,166.16984339999908,None,166.16984339999908,None,168.16552726000373,None,168.16552726000373,None,168.16552726000373,None,,,,,,,,,,,,,015,2022-05-12_10h33.53.725,Main,2022.1.1,61.18146299529477,
negative,negative,1,j,l,,,,,1,15,33,0,,,,,,,,,,,,,prac,1,1,1,negative,negative,l,l,1,1.116199099997175,168.16965340000024,169.18226410000352,169.16559920000145,None,168.16965340000024,None,168.16965340000024,None,168.16965340000024,None,170.28215795999859,None,170.28215795999859,None,170.28215795999859,None,,,,,,,,,,,,,015,2022-05-12_10h33.53.725,Main,2022.1.1,61.18146299529477,
negative,negative,2,j,l,,,,,1,16,34,9,,,,,,,,,,,,,prac,2,2,2,negative,negative,l,l,1,1.014263299999584,170.28627190000407,171.2988994000043,171.28222140000435,None,170.28627190000407,None,170.28627190000407,None,170.28627190000407,None,172.29878656000074,None,172.29878656000074,None,172.29878656000074,None,,,,,,,,,,,,,015,2022-05-12_10h33.53.725,Main,2022.1.1,61.18146299529477,
negative,positive,2,j,l,,,,,1,17,35,15,,,,,,,,,,,,,prac,2,2,2,positive,negative,l,l,1,0.6318173999970895,172.30210530000477,173.3211364000017,173.30431740000495,None,172.30210530000477,None,172.30210530000477,None,172.30210530000477,None,173.93172436000168,None,173.93172436000168,None,173.93172436000168,None,,,,,,,,,,,,,015,2022-05-12_10h33.53.725,Main,2022.1.1,61.18146299529477,
,,,,,,,,,,,,,,,,,,,,,,,,,,,,,,,,,,,,,,,,,,,,,,,,,,,173.9318243000016,None,None,,,,,,,,,,015,2022-05-12_10h33.53.725,Main,2022.1.1,61.18146299529477,
,,,,,,,,,,,,,,,,,,,,,,,,,,,,,,,,,,,,,,,,,,,,,,,,,,,,,,0.6287037,-0.17407407,1,0,0,0.010589760000584647,None,,,015,2022-05-12_10h33.53.725,Main,2022.1.1,61.18146299529477,
positive,positive,2,l,j,,,,,,,,,0,0,0,11,,,,,,,203.78377500000352,None,main,1,1,2,positive,positive,j,j,1,1.2612029000010807,205.79394380000303,206.79780510000273,206.76965370000107,None,205.79394380000303,None,205.79394380000303,None,205.79394380000303,None,208.0477914600051,None,208.0477914600051,None,208.0477914600051,None,,,,,,,,,,,,,015,2022-05-12_10h33.53.725,Main,2022.1.1,61.18146299529477,
positive,positive,1,l,j,,,,,,,,,0,1,1,2,,,,,,,,,main,2,2,1,positive,positive,j,j,1,9.374580499999865,208.05527710000024,209.0644891999982,209.04781930000172,None,208.05527710000024,None,208.05527710000024,None,208.05527710000024,None,218.43366100000276,None,218.43366100000276,None,218.43366100000276,None,,,,,,,,,,,,,015,2022-05-12_10h33.53.725,Main,2022.1.1,61.18146299529477,
positive,neutral,2,l,j,,,,,,,,,0,2,2,17,,,,,,,,,main,2,2,2,neutral,positive,j,j,1,0.8194670999946538,219.4487724999999,220.46420700000454,220.44753820000187,None,219.4487724999999,None,219.4487724999999,None,219.4487724999999,None,221.26421266000398,None,221.26421266000398,None,221.26421266000398,None,,,,,,,,,,,,,015,2022-05-12_10h33.53.725,Main,2022.1.1,61.18146299529477,
neutral,neutral,1,k,k,,,,,,,,,0,3,3,1,,,,,,,,,main,2,2,1,neutral,neutral,k,k,1,0.7481092999951215,221.2650039,222.26420399999915,222.26420399999915,None,221.2650039,None,221.2650039,None,221.2650039,None,223.01413396000135,None,223.01413396000135,None,223.01413396000135,None,,,,,,,,,,,,,015,2022-05-12_10h33.53.725,Main,2022.1.1,61.18146299529477,
negative,negative,2,j,l,,,,,,,,,0,4,4,9,,,,,,,,,main,1,1,2,negative,negative,l,l,1,0.8489569000012125,223.01742430000013,224.01452750000317,224.01452750000317,None,223.01742430000013,None,223.01742430000013,None,223.01742430000013,None,224.864458560005,None,224.864458560005,None,224.864458560005,None,,,,,,,,,,,,,015,2022-05-12_10h33.53.725,Main,2022.1.1,61.18146299529477,
negative,positive,2,j,l,,,,,,,,,0,5,5,15,,,,,,,,,main,1,1,2,positive,negative,l,l,1,0.8815198000011151,224.86924169999838,225.88121520000277,225.8667209999985,None,224.86924169999838,None,224.86924169999838,None,224.86924169999838,None,226.74769716000446,None,226.74769716000446,None,226.74769716000446,None,,,,,,,,,,,,,015,2022-05-12_10h33.53.725,Main,2022.1.1,61.18146299529477,
positive,negative,1,l,j,,,,,,,,,0,6,6,5,,,,,,,,,main,2,2,1,negative,positive,j,j,1,0.9985711999979685,226.7512940000015,227.76445049999893,227.7500921000028,None,226.7512940000015,None,226.7512940000015,None,226.7512940000015,None,228.74766765999811,None,228.74766765999811,None,228.74766765999811,None,,,,,,,,,,,,,015,2022-05-12_10h33.53.725,Main,2022.1.1,61.18146299529477,
neutral,negative,1,k,k,,,,,,,,,0,7,7,7,,,,,,,,,main,1,1,1,negative,neutral,k,k,1,0.6980607000004966,228.75132609999855,229.76662529999885,229.7499691999983,None,228.75132609999855,None,228.75132609999855,None,228.75132609999855,None,230.4473265600027,None,230.4473265600027,None,230.4473265600027,None,,,,,,,,,,,,,015,2022-05-12_10h33.53.725,Main,2022.1.1,61.18146299529477,
neutral,negative,2,k,k,,,,,,,,,0,8,8,16,,,,,,,,,main,1,1,2,negative,neutral,k,k,1,0.8149081000010483,230.44825529999798,231.4639868000013,231.44731490000413,None,230.44825529999798,None,230.44825529999798,None,230.44825529999798,None,232.26393516000098,None,232.26393516000098,None,232.26393516000098,None,,,,,,,,,,,,,015,2022-05-12_10h33.53.725,Main,2022.1.1,61.18146299529477,
neutral,neutral,2,k,k,,,,,,,,,0,9,9,10,,,,,,,,,main,2,2,2,neutral,neutral,k,k,1,0.6180046000008588,232.26699689999805,233.26432719999866,233.26432719999866,None,232.26699689999805,None,232.26699689999805,None,232.26699689999805,None,233.88311896000232,None,233.88311896000232,None,233.88311896000232,None,,,,,,,,,,,,,015,2022-05-12_10h33.53.725,Main,2022.1.1,61.18146299529477,
negative,positive,1,j,l,,,,,,,,,0,10,10,6,,,,,,,,,main,2,2,1,positive,negative,l,l,1,0.8794849000041722,233.8867637000003,234.89760979999846,234.88094270000147,None,233.8867637000003,None,233.8867637000003,None,233.8867637000003,None,235.76426996000373,None,235.76426996000373,None,235.76426996000373,None,,,,,,,,,,,,,015,2022-05-12_10h33.53.725,Main,2022.1.1,61.18146299529477,
negative,negative,1,j,l,,,,,,,,,0,11,11,0,,,,,,,,,main,1,1,1,negative,negative,l,l,1,0.7693679000003613,235.7685061000011,236.78316089999862,236.76426219999848,None,235.7685061000011,None,235.7685061000011,None,235.7685061000011,None,237.53422716000205,None,237.53422716000205,None,237.53422716000205,None,,,,,,,,,,,,,015,2022-05-12_10h33.53.725,Main,2022.1.1,61.18146299529477,
negative,neutral,2,j,l,,,,,,,,,0,12,12,12,,,,,,,,,main,2,2,2,neutral,negative,l,l,1,1.0105386000068393,237.53864270000486,238.5475398999988,238.53087300000334,None,237.53864270000486,None,237.53864270000486,None,237.53864270000486,None,239.54713456000172,None,239.54713456000172,None,239.54713456000172,None,,,,,,,,,,,,,015,2022-05-12_10h33.53.725,Main,2022.1.1,61.18146299529477,
neutral,positive,2,k,k,,,,,,,,,0,13,13,13,,,,,,,,,main,2,2,2,positive,neutral,k,k,1,0.8151969000027748,239.5472443000035,240.54713230000198,240.54713230000198,None,239.5472443000035,None,239.5472443000035,None,239.5472443000035,None,241.36376946000382,None,241.36376946000382,None,241.36376946000382,None,,,,,,,,,,,,,015,2022-05-12_10h33.53.725,Main,2022.1.1,61.18146299529477,
negative,neutral,1,j,l,,,,,,,,,0,14,14,3,,,,,,,,,main,1,1,1,neutral,negative,l,l,1,0.9652980000028037,241.36717850000423,242.36665010000434,242.36665010000434,None,241.36717850000423,None,241.36717850000423,None,241.36717850000423,None,243.33070536000014,None,243.33070536000014,None,243.33070536000014,None,,,,,,,,,,,,,015,2022-05-12_10h33.53.725,Main,2022.1.1,61.18146299529477,
positive,negative,2,l,j,,,,,,,,,0,15,15,14,,,,,,,,,main,2,2,2,negative,positive,j,j,1,0.6984116000021459,243.33433090000472,244.34979510000267,244.3307872000005,None,243.33433090000472,None,243.33433090000472,None,243.33433090000472,None,245.03067305999866,None,245.03067305999866,None,245.03067305999866,None,,,,,,,,,,,,,015,2022-05-12_10h33.53.725,Main,2022.1.1,61.18146299529477,
positive,neutral,1,l,j,,,,,,,,,0,16,16,8,,,,,,,,,main,2,2,1,neutral,positive,j,j,1,0.94875100000354,245.03519629999937,246.04740799999854,246.0307402000035,None,245.03519629999937,None,245.03519629999937,None,245.03519629999937,None,246.9807855600011,None,246.9807855600011,None,246.9807855600011,None,,,,,,,,,,,,,015,2022-05-12_10h33.53.725,Main,2022.1.1,61.18146299529477,
neutral,positive,1,k,k,,,,,,,,,0,17,17,4,,,,,,,,,main,2,2,1,positive,neutral,k,k,1,0.6306131000019377,246.9851959000007,247.99963410000055,247.98072640000464,None,246.9851959000007,None,246.9851959000007,None,246.9851959000007,None,248.61393515999953,None,248.61393515999953,None,248.61393515999953,None,,,,,,,,,,,,,015,2022-05-12_10h33.53.725,Main,2022.1.1,61.18146299529477,
neutral,neutral,1,k,k,,,,,,,,,1,0,18,1,,,,,,,,,main,1,1,1,neutral,neutral,k,k,1,0.6146886999995331,248.61708110000473,249.630304600003,249.61366190000263,None,248.61708110000473,None,248.61708110000473,None,248.61708110000473,None,250.23018786000466,None,250.23018786000466,None,250.23018786000466,None,,,,,,,,,,,,,015,2022-05-12_10h33.53.725,Main,2022.1.1,61.18146299529477,
negative,negative,1,j,l,,,,,,,,,1,1,19,0,,,,,,,,,main,2,2,1,negative,negative,l,l,1,0.7982250999993994,250.2308531000017,251.23028909999994,251.23028909999994,None,250.2308531000017,None,250.2308531000017,None,250.2308531000017,None,252.03041636000125,None,252.03041636000125,None,252.03041636000125,None,,,,,,,,,,,,,015,2022-05-12_10h33.53.725,Main,2022.1.1,61.18146299529477,
positive,negative,1,l,j,,,,,,,,,1,2,20,5,,,,,,,,,main,2,2,1,negative,positive,j,j,1,0.7316776000006939,252.03138920000492,253.03029940000124,253.03029940000124,None,252.03138920000492,None,252.03138920000492,None,252.03138920000492,None,253.76384636000148,None,253.76384636000148,None,253.76384636000148,None,,,,,,,,,,,,,015,2022-05-12_10h33.53.725,Main,2022.1.1,61.18146299529477,
positive,neutral,1,l,j,,,,,,,,,1,3,21,8,,,,,,,,,main,1,1,1,neutral,positive,j,j,1,1.2148015999991912,253.76732930000435,254.78280510000332,254.7662085999982,None,253.76732930000435,None,253.76732930000435,None,253.76732930000435,None,255.980440860003,None,255.980440860003,None,255.980440860003,None,,,,,,,,,,,,,015,2022-05-12_10h33.53.725,Main,2022.1.1,61.18146299529477,
positive,negative,2,l,j,,,,,,,,,1,4,22,14,,,,,,,,,main,1,1,2,negative,positive,j,j,1,0.7652324000009685,255.9838596000045,256.99948890000087,256.98280389999854,None,255.9838596000045,None,255.9838596000045,None,255.9838596000045,None,257.74711255999864,None,257.74711255999864,None,257.74711255999864,None,,,,,,,,,,,,,015,2022-05-12_10h33.53.725,Main,2022.1.1,61.18146299529477,
positive,positive,2,l,j,,,,,,,,,1,5,23,11,,,,,,,,,main,1,1,2,positive,positive,j,j,1,0.5826164000027347,257.75071030000254,258.7641350000049,258.74766150000505,None,257.75071030000254,None,257.75071030000254,None,257.75071030000254,None,259.33038366000255,None,259.33038366000255,None,259.33038366000255,None,,,,,,,,,,,,,015,2022-05-12_10h33.53.725,Main,2022.1.1,61.18146299529477,
negative,neutral,2,j,l,,,,,,,,,1,6,24,12,,,,,,,,,main,2,2,2,neutral,negative,l,l,1,0.797316399999545,259.3346214999983,260.3494342000049,260.33045459999994,None,259.3346214999983,None,259.3346214999983,None,259.3346214999983,None,261.1299557599996,None,261.1299557599996,None,261.1299557599996,None,,,,,,,,,,,,,015,2022-05-12_10h33.53.725,Main,2022.1.1,61.18146299529477,
positive,positive,1,l,j,,,,,,,,,1,7,25,2,,,,,,,,,main,2,2,1,positive,positive,j,j,1,0.965571100001398,261.1300596000001,262.13003169999865,262.13003169999865,None,261.1300596000001,None,261.1300596000001,None,261.1300596000001,None,263.09705296000175,None,263.09705296000175,None,263.09705296000175,None,,,,,,,,,,,,,015,2022-05-12_10h33.53.725,Main,2022.1.1,61.18146299529477,
negative,neutral,1,j,l,,,,,,,,,1,8,26,3,,,,,,,,,main,2,2,1,neutral,negative,l,l,1,0.8482090999968932,263.1008510000029,264.11371769999823,264.0993566000034,None,263.1008510000029,None,263.1008510000029,None,263.1008510000029,None,264.94693235999875,None,264.94693235999875,None,264.94693235999875,None,,,,,,,,,,,,,015,2022-05-12_10h33.53.725,Main,2022.1.1,61.18146299529477,
negative,positive,2,j,l,,,,,,,,,1,9,27,15,,,,,,,,,main,2,2,2,positive,negative,l,l,1,0.7319448000052944,264.95042490000196,265.9659257000021,265.9493336000014,None,264.95042490000196,None,264.95042490000196,None,264.95042490000196,None,266.6802299600022,None,266.6802299600022,None,266.6802299600022,None,,,,,,,,,,,,,015,2022-05-12_10h33.53.725,Main,2022.1.1,61.18146299529477,
negative,positive,1,j,l,,,,,,,,,1,10,28,6,,,,,,,,,main,1,1,1,positive,negative,l,l,1,0.7828885999988415,266.683792200005,267.6969670000035,267.68030649999855,None,266.683792200005,None,266.683792200005,None,266.683792200005,None,268.4635177599994,None,268.4635177599994,None,268.4635177599994,None,,,,,,,,,,,,,015,2022-05-12_10h33.53.725,Main,2022.1.1,61.18146299529477,
neutral,positive,1,k,k,,,,,,,,,1,11,29,4,,,,,,,,,main,2,2,1,positive,neutral,k,k,1,0.6735530000005383,268.4685520999992,269.48250410000037,269.4659157999995,None,268.4685520999992,None,268.4685520999992,None,268.4685520999992,None,270.1397904600017,None,270.1397904600017,None,270.1397904600017,None,,,,,,,,,,,,,015,2022-05-12_10h33.53.725,Main,2022.1.1,61.18146299529477,
neutral,negative,2,k,k,,,,,,,,,1,12,30,16,,,,,,,,,main,1,1,2,negative,neutral,k,k,1,0.7052488999979687,270.15528630000335,271.1631974000047,271.1298423000044,None,270.15528630000335,None,270.15528630000335,None,270.15528630000335,None,271.84643966000294,None,271.84643966000294,None,271.84643966000294,None,,,,,,,,,,,,,015,2022-05-12_10h33.53.725,Main,2022.1.1,61.18146299529477,
positive,neutral,2,l,j,,,,,,,,,1,13,31,17,,,,,,,,,main,2,2,2,neutral,positive,j,j,1,0.6985891000003903,271.84651110000414,272.8468206000034,272.8468206000034,None,271.84651110000414,None,271.84651110000414,None,271.84651110000414,None,273.5464489599981,None,273.5464489599981,None,273.5464489599981,None,,,,,,,,,,,,,015,2022-05-12_10h33.53.725,Main,2022.1.1,61.18146299529477,
neutral,neutral,2,k,k,,,,,,,,,1,14,32,10,,,,,,,,,main,2,2,2,neutral,neutral,k,k,1,0.6820384000020567,273.5501393000013,274.56580300000496,274.5468650000039,None,273.5501393000013,None,273.5501393000013,None,273.5501393000013,None,275.2300751600051,None,275.2300751600051,None,275.2300751600051,None,,,,,,,,,,,,,015,2022-05-12_10h33.53.725,Main,2022.1.1,61.18146299529477,
neutral,negative,1,k,k,,,,,,,,,1,15,33,7,,,,,,,,,main,2,2,1,negative,neutral,k,k,1,0.7152273000028799,275.23379540000315,276.24680710000393,276.23014949999924,None,275.23379540000315,None,275.23379540000315,None,275.23379540000315,None,276.9467023600009,None,276.9467023600009,None,276.9467023600009,None,,,,,,,,,,,,,015,2022-05-12_10h33.53.725,Main,2022.1.1,61.18146299529477,
neutral,positive,2,k,k,,,,,,,,,1,16,34,13,,,,,,,,,main,2,2,2,positive,neutral,k,k,1,0.6985048999995342,276.9505391999992,277.96345799999835,277.94907539999986,None,276.9505391999992,None,276.9505391999992,None,276.9505391999992,None,278.64676185999997,None,278.64676185999997,None,278.64676185999997,None,,,,,,,,,,,,,015,2022-05-12_10h33.53.725,Main,2022.1.1,61.18146299529477,
negative,negative,2,j,l,,,,,,,,,1,17,35,9,,,,,,,,,main,2,2,2,negative,negative,l,l,1,0.7152194000009331,278.65033140000014,279.66340499999933,279.64896240000235,None,278.65033140000014,None,278.65033140000014,None,278.65033140000014,None,280.3634104599987,None,280.3634104599987,None,280.3634104599987,None,,,,,,,,,,,,,015,2022-05-12_10h33.53.725,Main,2022.1.1,61.18146299529477,
negative,neutral,1,j,l,,,,,,,,,2,0,36,3,,,,,,,,,main,1,1,1,neutral,negative,l,l,1,0.6645802999992156,280.3693209999983,281.3796538000024,281.36298160000297,None,280.3693209999983,None,280.3693209999983,None,280.3693209999983,None,282.0295848599999,None,282.0295848599999,None,282.0295848599999,None,,,,,,,,,,,,,015,2022-05-12_10h33.53.725,Main,2022.1.1,61.18146299529477,
negative,negative,1,j,l,,,,,,,,,2,1,37,0,,,,,,,,,main,2,2,1,negative,negative,l,l,1,0.5812514999997802,282.0331867999994,283.04634030000307,283.02968830000464,None,282.0331867999994,None,282.0331867999994,None,282.0331867999994,None,283.6129145599989,None,283.6129145599989,None,283.6129145599989,None,,,,,,,,,,,,,015,2022-05-12_10h33.53.725,Main,2022.1.1,61.18146299529477,
neutral,positive,1,k,k,,,,,,,,,2,2,38,4,,,,,,,,,main,2,2,1,positive,neutral,k,k,1,0.7320915000018431,283.61657650000416,284.62996510000085,284.613296800002,None,283.61657650000416,None,283.61657650000416,None,283.61657650000416,None,285.3465236600023,None,285.3465236600023,None,285.3465236600023,None,,,,,,,,,,,,,015,2022-05-12_10h33.53.725,Main,2022.1.1,61.18146299529477,
positive,positive,2,l,j,,,,,,,,,2,3,39,11,,,,,,,,,main,2,2,2,positive,positive,j,j,1,1.265060199999425,285.350440000002,286.36377809999976,286.3491587000026,None,285.350440000002,None,285.350440000002,None,285.350440000002,None,287.613153160004,None,287.613153160004,None,287.613153160004,None,,,,,,,,,,,,,015,2022-05-12_10h33.53.725,Main,2022.1.1,61.18146299529477,
neutral,negative,1,k,k,,,,,,,,,2,4,40,7,,,,,,,,,main,2,2,1,negative,neutral,k,k,1,0.6651490000003832,287.616597799999,288.6299205000032,288.6135748000015,None,287.616597799999,None,287.616597799999,None,287.616597799999,None,289.27977806000126,None,289.27977806000126,None,289.27977806000126,None,,,,,,,,,,,,,015,2022-05-12_10h33.53.725,Main,2022.1.1,61.18146299529477,
negative,negative,2,j,l,,,,,,,,,2,5,41,9,,,,,,,,,main,1,1,2,negative,negative,l,l,1,0.9313191000037477,289.28320410000015,290.2987818000038,290.27985790000093,None,289.28320410000015,None,289.28320410000015,None,289.28320410000015,None,291.2126906600024,None,291.2126906600024,None,291.2126906600024,None,,,,,,,,,,,,,015,2022-05-12_10h33.53.725,Main,2022.1.1,61.18146299529477,
positive,negative,1,l,j,,,,,,,,,2,6,42,5,,,,,,,,,main,2,2,1,negative,positive,j,j,1,0.9818225999988499,291.2127873999998,292.2127642999985,292.2127642999985,None,291.2127873999998,None,291.2127873999998,None,291.2127873999998,None,293.19605125999806,None,293.19605125999806,None,293.19605125999806,None,,,,,,,,,,,,,015,2022-05-12_10h33.53.725,Main,2022.1.1,61.18146299529477,
positive,negative,2,l,j,,,,,,,,,2,7,43,14,,,,,,,,,main,2,2,2,negative,positive,j,j,1,0.7154637000057846,293.1997879999981,294.21536090000154,294.1964492000043,None,293.1997879999981,None,293.1997879999981,None,293.1997879999981,None,294.9130904600024,None,294.9130904600024,None,294.9130904600024,None,,,,,,,,,,,,,015,2022-05-12_10h33.53.725,Main,2022.1.1,61.18146299529477,
positive,neutral,2,l,j,,,,,,,,,2,8,44,17,,,,,,,,,main,2,2,2,neutral,positive,j,j,1,0.6994106999991345,294.9192922000002,295.931943100004,295.91543459999957,None,294.9192922000002,None,294.9192922000002,None,294.9192922000002,None,296.6139999599982,None,296.6139999599982,None,296.6139999599982,None,,,,,,,,,,,,,015,2022-05-12_10h33.53.725,Main,2022.1.1,61.18146299529477,
negative,neutral,2,j,l,,,,,,,,,2,9,45,12,,,,,,,,,main,2,2,2,neutral,negative,l,l,1,1.1142662999991444,296.6197972000009,297.62972920000175,297.61333820000436,None,296.6197972000009,None,296.6197972000009,None,296.6197972000009,None,298.7295825600013,None,298.7295825600013,None,298.7295825600013,None,,,,,,,,,,,,,015,2022-05-12_10h33.53.725,Main,2022.1.1,61.18146299529477,
negative,positive,1,j,l,,,,,,,,,2,10,46,6,,,,,,,,,main,2,2,1,positive,negative,l,l,1,1.0019169000006514,298.7336275999987,299.7485342,299.7296731000024,None,298.7336275999987,None,298.7336275999987,None,298.7336275999987,None,300.7291700600035,None,300.7291700600035,None,300.7291700600035,None,,,,,,,,,,,,,015,2022-05-12_10h33.53.725,Main,2022.1.1,61.18146299529477,
neutral,positive,2,k,k,,,,,,,,,2,11,47,13,,,,,,,,,main,1,1,2,positive,neutral,k,k,1,0.593273999998928,300.736602500001,301.7459041000038,301.7292565000025,None,300.736602500001,None,300.736602500001,None,300.736602500001,None,302.3291686599987,None,302.3291686599987,None,302.3291686599987,None,,,,,,,,,,,,,015,2022-05-12_10h33.53.725,Main,2022.1.1,61.18146299529477,
positive,positive,1,l,j,,,,,,,,,2,12,48,2,,,,,,,,,main,2,2,1,positive,positive,j,j,1,0.8318742999981623,302.3295644000027,303.3292438999997,303.3292438999997,None,302.3295644000027,None,302.3295644000027,None,302.3295644000027,None,304.1624961600028,None,304.1624961600028,None,304.1624961600028,None,,,,,,,,,,,,,015,2022-05-12_10h33.53.725,Main,2022.1.1,61.18146299529477,
positive,neutral,1,l,j,,,,,,,,,2,13,49,8,,,,,,,,,main,2,2,1,neutral,positive,j,j,1,0.6023513999971328,304.16586510000343,305.1652721999999,305.1652721999999,None,304.16586510000343,None,304.16586510000343,None,304.16586510000343,None,305.76521435999894,None,305.76521435999894,None,305.76521435999894,None,,,,,,,,,,,,,015,2022-05-12_10h33.53.725,Main,2022.1.1,61.18146299529477,
neutral,neutral,1,k,k,,,,,,,,,2,14,50,1,,,,,,,,,main,2,2,1,neutral,neutral,k,k,1,0.7294455000010203,305.7694715000034,306.7817993999997,306.7652124000015,None,305.7694715000034,None,305.7694715000034,None,305.7694715000034,None,307.4960838600018,None,307.4960838600018,None,307.4960838600018,None,,,,,,,,,,,,,015,2022-05-12_10h33.53.725,Main,2022.1.1,61.18146299529477,
neutral,negative,2,k,k,,,,,,,,,2,15,51,16,,,,,,,,,main,2,2,2,negative,neutral,k,k,1,0.6307115000017802,307.5004803000047,308.5150447000051,308.49616160000005,None,307.5004803000047,None,307.5004803000047,None,307.5004803000047,None,309.1294636599996,None,309.1294636599996,None,309.1294636599996,None,,,,,,,,,,,,,015,2022-05-12_10h33.53.725,Main,2022.1.1,61.18146299529477,
neutral,neutral,2,k,k,,,,,,,,,2,16,52,10,,,,,,,,,main,1,1,2,neutral,neutral,k,k,1,0.5982709000018076,309.13279290000355,310.1483853000027,310.1316919000019,None,309.13279290000355,None,309.13279290000355,None,309.13279290000355,None,310.72935846000473,None,310.72935846000473,None,310.72935846000473,None,,,,,,,,,,,,,015,2022-05-12_10h33.53.725,Main,2022.1.1,61.18146299529477,
negative,positive,2,j,l,,,,,,,,,2,17,53,15,,,,,,,,,main,1,1,2,positive,negative,l,l,1,0.6815666000038618,310.73287300000084,311.74571039999864,311.72905639999954,None,310.73287300000084,None,310.73287300000084,None,310.73287300000084,None,312.4122726600035,None,312.4122726600035,None,312.4122726600035,None,,,,,,,,,,,,,015,2022-05-12_10h33.53.725,Main,2022.1.1,61.18146299529477,
negative,negative,1,j,l,,,,,,,,,3,0,54,0,,,,,,,,,main,1,1,1,negative,negative,l,l,1,0.7148776999965776,312.41353040000104,313.42905990000145,313.41240370000014,None,312.41353040000104,None,312.41353040000104,None,312.41353040000104,None,314.129413460003,None,314.129413460003,None,314.129413460003,None,,,,,,,,,,,,,015,2022-05-12_10h33.53.725,Main,2022.1.1,61.18146299529477,
positive,neutral,1,l,j,,,,,,,,,3,1,55,8,,,,,,,,,main,1,1,1,neutral,positive,j,j,1,0.6647259000019403,314.1334526999999,315.1482032999993,315.1293545000008,None,314.1334526999999,None,314.1334526999999,None,314.1334526999999,None,315.7959080600049,None,315.7959080600049,None,315.7959080600049,None,,,,,,,,,,,,,015,2022-05-12_10h33.53.725,Main,2022.1.1,61.18146299529477,
negative,negative,2,j,l,,,,,,,,,3,2,56,9,,,,,,,,,main,1,1,2,negative,negative,l,j,0,0.6009607000014512,315.79920349999884,316.81484150000324,316.7983514000007,None,315.79920349999884,None,315.79920349999884,None,315.79920349999884,None,317.3959937000036,None,317.3959937000036,None,317.3959937000036,None,,,,,,,,,,,,,015,2022-05-12_10h33.53.725,Main,2022.1.1,61.18146299529477,
negative,positive,2,j,l,,,,,,,,,3,3,57,15,,,,,,,,,main,2,2,2,positive,negative,l,l,1,0.6704750999997486,318.39657309999893,319.3959443999993,319.3815423999986,None,318.39657309999893,None,318.39657309999893,None,318.39657309999893,None,320.0647612600005,None,320.0647612600005,None,320.0647612600005,None,,,,,,,,,,,,,015,2022-05-12_10h33.53.725,Main,2022.1.1,61.18146299529477,
positive,negative,1,l,j,,,,,,,,,3,4,58,5,,,,,,,,,main,2,2,1,negative,positive,j,l,0,0.5279924999995274,320.06944600000134,321.0788799000002,321.0622174000018,None,320.06944600000134,None,320.06944600000134,None,320.06944600000134,None,321.5955460000041,None,321.5955460000041,None,321.5955460000041,None,,,,,,,,,,,,,015,2022-05-12_10h33.53.725,Main,2022.1.1,61.18146299529477,
positive,positive,1,l,j,,,,,,,,,3,5,59,2,,,,,,,,,main,1,1,1,positive,positive,j,j,1,1.2533815000060713,322.595527700003,323.59583360000397,323.579187299998,None,322.595527700003,None,322.595527700003,None,322.595527700003,None,324.84580326000287,None,324.84580326000287,None,324.84580326000287,None,,,,,,,,,,,,,015,2022-05-12_10h33.53.725,Main,2022.1.1,61.18146299529477,
neutral,neutral,1,k,k,,,,,,,,,3,6,60,1,,,,,,,,,main,1,1,1,neutral,neutral,k,k,1,0.7336042000024463,324.8497134999998,325.86499170000025,325.84806180000305,None,324.8497134999998,None,324.8497134999998,None,324.8497134999998,None,326.5814632600013,None,326.5814632600013,None,326.5814632600013,None,,,,,,,,,,,,,015,2022-05-12_10h33.53.725,Main,2022.1.1,61.18146299529477,
neutral,neutral,2,k,k,,,,,,,,,3,7,61,10,,,,,,,,,main,2,2,2,neutral,neutral,k,k,1,0.5624981000000844,326.58479230000376,327.59577340000396,327.58140229999844,None,326.58479230000376,None,326.58479230000376,None,326.58479230000376,None,328.14537435999955,None,328.14537435999955,None,328.14537435999955,None,,,,,,,,,,,,,015,2022-05-12_10h33.53.725,Main,2022.1.1,61.18146299529477,
neutral,positive,1,k,k,,,,,,,,,3,8,62,4,,,,,,,,,main,2,2,1,positive,neutral,k,k,1,0.71580250000261,328.1515067,329.16466680000303,329.1479258000036,None,328.1515067,None,328.1515067,None,328.1515067,None,329.8623162600052,None,329.8623162600052,None,329.8623162600052,None,,,,,,,,,,,,,015,2022-05-12_10h33.53.725,Main,2022.1.1,61.18146299529477,
neutral,negative,2,k,k,,,,,,,,,3,9,63,16,,,,,,,,,main,2,2,2,negative,neutral,k,k,1,0.6313227999999071,329.86615220000385,330.87865990000137,330.8620022000032,None,329.86615220000385,None,329.86615220000385,None,329.86615220000385,None,331.4952347600047,None,331.4952347600047,None,331.4952347600047,None,,,,,,,,,,,,,015,2022-05-12_10h33.53.725,Main,2022.1.1,61.18146299529477,
negative,neutral,2,j,l,,,,,,,,,3,10,64,12,,,,,,,,,main,1,1,2,neutral,negative,l,l,1,0.7481503000017256,331.49545370000124,332.49531990000105,332.49531990000105,None,331.49545370000124,None,331.49545370000124,None,331.49545370000124,None,333.2452206599992,None,333.2452206599992,None,333.2452206599992,None,,,,,,,,,,,,,015,2022-05-12_10h33.53.725,Main,2022.1.1,61.18146299529477,
neutral,positive,2,k,k,,,,,,,,,3,11,65,13,,,,,,,,,main,1,1,2,positive,neutral,k,k,1,0.8322401000041282,333.24561160000303,334.245319200003,334.245319200003,None,333.24561160000303,None,333.24561160000303,None,333.24561160000303,None,335.0789011599991,None,335.0789011599991,None,335.0789011599991,None,,,,,,,,,,,,,015,2022-05-12_10h33.53.725,Main,2022.1.1,61.18146299529477,
negative,positive,1,j,l,,,,,,,,,3,12,66,6,,,,,,,,,main,2,2,1,positive,negative,l,l,1,0.765300599996408,335.08256000000256,336.09789580000506,336.08122379999986,None,335.08256000000256,None,335.08256000000256,None,335.08256000000256,None,336.8454929600048,None,336.8454929600048,None,336.8454929600048,None,,,,,,,,,,,,,015,2022-05-12_10h33.53.725,Main,2022.1.1,61.18146299529477,
neutral,negative,1,k,k,,,,,,,,,3,13,67,7,,,,,,,,,main,1,1,1,negative,neutral,k,k,1,1.26508310000645,336.8497959000015,337.86223410000093,337.8478125000038,None,336.8497959000015,None,336.8497959000015,None,336.8497959000015,None,339.1121264600006,None,339.1121264600006,None,339.1121264600006,None,,,,,,,,,,,,,015,2022-05-12_10h33.53.725,Main,2022.1.1,61.18146299529477,
positive,negative,2,l,j,,,,,,,,,3,14,68,14,,,,,,,,,main,2,2,2,negative,positive,j,j,1,0.7547400000039488,339.1165162000034,340.12893910000275,340.11453040000197,None,339.1165162000034,None,339.1165162000034,None,339.1165162000034,None,340.8661392600043,None,340.8661392600043,None,340.8661392600043,None,,,,,,,,,,,,,015,2022-05-12_10h33.53.725,Main,2022.1.1,61.18146299529477,
positive,neutral,2,l,j,,,,,,,,,3,15,69,17,,,,,,,,,main,2,2,2,neutral,positive,j,j,1,0.5574850000048173,340.873236600004,341.87844680000126,341.86177950000274,None,340.873236600004,None,340.873236600004,None,340.873236600004,None,342.4283348600002,None,342.4283348600002,None,342.4283348600002,None,,,,,,,,,,,,,015,2022-05-12_10h33.53.725,Main,2022.1.1,61.18146299529477,
positive,positive,2,l,j,,,,,,,,,3,16,70,11,,,,,,,,,main,1,1,2,positive,positive,j,j,1,0.6320874000011827,342.4341390000045,343.4451270999998,343.4284684000013,None,342.4341390000045,None,342.4341390000045,None,342.4341390000045,None,344.0616981600033,None,344.0616981600033,None,344.0616981600033,None,,,,,,,,,,,,,015,2022-05-12_10h33.53.725,Main,2022.1.1,61.18146299529477,
negative,neutral,1,j,l,,,,,,,,,3,17,71,3,,,,,,,,,main,2,2,1,neutral,negative,l,l,1,0.6977203999995254,344.066069600005,345.08104589999857,345.0644104000021,None,344.066069600005,None,344.066069600005,None,344.066069600005,None,345.7617895600051,None,345.7617895600051,None,345.7617895600051,None,,,,,,,,,,,,,015,2022-05-12_10h33.53.725,Main,2022.1.1,61.18146299529477,
positive,neutral,2,l,j,,,,,,,,,4,0,72,17,,,,,,,,,main,1,1,2,neutral,positive,j,j,1,1.0163821000023745,345.7687078000017,346.78092480000487,346.76206050000474,None,345.7687078000017,None,345.7687078000017,None,345.7687078000017,None,347.778638460004,None,347.778638460004,None,347.778638460004,None,,,,,,,,,,,,,015,2022-05-12_10h33.53.725,Main,2022.1.1,61.18146299529477,
negative,positive,1,j,l,,,,,,,,,4,1,73,6,,,,,,,,,main,1,1,1,positive,negative,l,l,1,0.8637872000035713,347.783334300002,348.7953639000043,348.7787208000009,None,347.783334300002,None,347.783334300002,None,347.783334300002,None,349.644912460004,None,349.644912460004,None,349.644912460004,None,,,,,,,,,,,,,015,2022-05-12_10h33.53.725,Main,2022.1.1,61.18146299529477,
negative,negative,2,j,l,,,,,,,,,4,2,74,9,,,,,,,,,main,1,1,2,negative,negative,l,l,1,0.7487628000017139,349.6483420000004,350.64531290000014,350.64531290000014,None,349.6483420000004,None,349.6483420000004,None,349.6483420000004,None,351.39520646000165,None,351.39520646000165,None,351.39520646000165,None,,,,,,,,,,,,,015,2022-05-12_10h33.53.725,Main,2022.1.1,61.18146299529477,
neutral,neutral,2,k,k,,,,,,,,,4,3,75,10,,,,,,,,,main,2,2,2,neutral,neutral,k,k,1,0.6321278999967035,351.398921,352.4115651000029,352.39489660000254,None,351.398921,None,351.398921,None,351.398921,None,353.0286687600019,None,353.0286687600019,None,353.0286687600019,None,,,,,,,,,,,,,015,2022-05-12_10h33.53.725,Main,2022.1.1,61.18146299529477,
positive,negative,2,l,j,,,,,,,,,4,4,76,14,,,,,,,,,main,1,1,2,negative,positive,j,j,1,1.2976676000034786,353.04490760000044,354.0449105000007,354.028249300005,None,353.04490760000044,None,353.04490760000044,None,353.04490760000044,None,355.32814245999907,None,355.32814245999907,None,355.32814245999907,None,,,,,,,,,,,,,015,2022-05-12_10h33.53.725,Main,2022.1.1,61.18146299529477,
positive,neutral,1,l,j,,,,,,,,,4,5,77,8,,,,,,,,,main,2,2,1,neutral,positive,j,j,1,0.9319958999985829,355.33171669999865,356.3308507000038,356.3308507000038,None,355.33171669999865,None,355.33171669999865,None,355.33171669999865,None,357.2617569600043,None,357.2617569600043,None,357.2617569600043,None,,,,,,,,,,,,,015,2022-05-12_10h33.53.725,Main,2022.1.1,61.18146299529477,
neutral,neutral,1,k,k,,,,,,,,,4,6,78,1,,,,,,,,,main,2,2,1,neutral,neutral,k,k,1,0.6831395000044722,357.2652629000004,358.28074090000155,358.26183370000217,None,357.2652629000004,None,357.2652629000004,None,357.2652629000004,None,358.9452501600026,None,358.9452501600026,None,358.9452501600026,None,,,,,,,,,,,,,015,2022-05-12_10h33.53.725,Main,2022.1.1,61.18146299529477,
neutral,negative,2,k,k,,,,,,,,,4,7,79,16,,,,,,,,,main,1,1,2,negative,neutral,k,k,1,1.297068699997908,358.94960990000254,359.9640558000028,359.947442100005,None,358.94960990000254,None,358.94960990000254,None,358.94960990000254,None,361.24500175999856,None,361.24500175999856,None,361.24500175999856,None,,,,,,,,,,,,,015,2022-05-12_10h33.53.725,Main,2022.1.1,61.18146299529477,
negative,positive,2,j,l,,,,,,,,,4,8,80,15,,,,,,,,,main,1,1,2,positive,negative,l,l,1,0.9027696000048309,361.2485519000038,362.26175270000385,362.2473250000039,None,361.2485519000038,None,361.2485519000038,None,361.2485519000038,None,363.14904835999914,None,363.14904835999914,None,363.14904835999914,None,,,,,,,,,,,,,015,2022-05-12_10h33.53.725,Main,2022.1.1,61.18146299529477,
negative,negative,1,j,l,,,,,,,,,4,9,81,0,,,,,,,,,main,2,2,1,negative,negative,l,l,1,0.610616600002686,363.16160720000335,364.16132360000483,364.14465850000124,None,363.16160720000335,None,363.16160720000335,None,363.16160720000335,None,364.7612205600017,None,364.7612205600017,None,364.7612205600017,None,,,,,,,,,,,,,015,2022-05-12_10h33.53.725,Main,2022.1.1,61.18146299529477,
positive,positive,2,l,j,,,,,,,,,4,10,82,11,,,,,,,,,main,1,1,2,positive,positive,j,j,1,0.8318150999984937,364.76143910000246,365.7639560000025,365.7639560000025,None,364.76143910000246,None,364.76143910000246,None,364.76143910000246,None,366.59489526000107,None,366.59489526000107,None,366.59489526000107,None,,,,,,,,,,,,,015,2022-05-12_10h33.53.725,Main,2022.1.1,61.18146299529477,
negative,neutral,2,j,l,,,,,,,,,4,11,83,12,,,,,,,,,main,2,2,2,neutral,negative,l,l,1,0.8654083000001265,366.59904480000114,367.61163469999883,367.5949791000021,None,366.59904480000114,None,366.59904480000114,None,366.59904480000114,None,368.4615226599999,None,368.4615226599999,None,368.4615226599999,None,,,,,,,,,,,,,015,2022-05-12_10h33.53.725,Main,2022.1.1,61.18146299529477,
neutral,positive,1,k,k,,,,,,,,,4,12,84,4,,,,,,,,,main,2,2,1,positive,neutral,k,k,1,1.199157600000035,368.4655746999997,369.47829230000207,369.46162059999915,None,368.4655746999997,None,368.4655746999997,None,368.4655746999997,None,370.66239766000217,None,370.66239766000217,None,370.66239766000217,None,,,,,,,,,,,,,015,2022-05-12_10h33.53.725,Main,2022.1.1,61.18146299529477,
neutral,negative,1,k,k,,,,,,,,,4,13,85,7,,,,,,,,,main,2,2,1,negative,neutral,k,k,1,0.580875499996182,370.6684768999985,371.67822980000346,371.6615612000023,None,370.6684768999985,None,370.6684768999985,None,370.6684768999985,None,372.2447882600027,None,372.2447882600027,None,372.2447882600027,None,,,,,,,,,,,,,015,2022-05-12_10h33.53.725,Main,2022.1.1,61.18146299529477,
positive,positive,1,l,j,,,,,,,,,4,14,86,2,,,,,,,,,main,1,1,1,positive,positive,j,j,1,1.1645212000003085,372.24824539999827,373.26115220000065,373.244477500004,None,372.24824539999827,None,372.24824539999827,None,372.24824539999827,None,374.4110250599988,None,374.4110250599988,None,374.4110250599988,None,,,,,,,,,,,,,015,2022-05-12_10h33.53.725,Main,2022.1.1,61.18146299529477,
neutral,positive,2,k,k,,,,,,,,,4,15,87,13,,,,,,,,,main,2,2,2,positive,neutral,k,k,1,0.631977500001085,374.411119299999,375.41121310000017,375.41121310000017,None,374.411119299999,None,374.411119299999,None,374.411119299999,None,376.0443600600047,None,376.0443600600047,None,376.0443600600047,None,,,,,,,,,,,,,015,2022-05-12_10h33.53.725,Main,2022.1.1,61.18146299529477,
positive,negative,1,l,j,,,,,,,,,4,16,88,5,,,,,,,,,main,2,2,1,negative,positive,j,j,1,1.8987398999961442,376.046093500001,377.06115359999967,377.04449430000386,None,376.046093500001,None,376.046093500001,None,376.046093500001,None,378.944754199998,None,378.944754199998,None,378.944754199998,None,,,,,,,,,,,,,015,2022-05-12_10h33.53.725,Main,2022.1.1,61.18146299529477,
negative,neutral,1,j,l,,,,,,,,,4,17,89,3,,,,,,,,,main,2,2,1,neutral,negative,l,l,1,1.0679560999997193,379.94568840000284,380.94474980000086,380.93033640000067,None,379.94568840000284,None,379.94568840000284,None,379.94568840000284,None,382.01126425999973,None,382.01126425999973,None,382.01126425999973,None,,,,,,,,,,,,,015,2022-05-12_10h33.53.725,Main,2022.1.1,61.18146299529477,
neutral,neutral,1,k,k,,,,,,,,,5,0,90,1,,,,,,,,,main,1,1,1,neutral,neutral,k,k,1,0.6981005000052392,382.01580639999884,383.02802789999987,383.0136738000001,None,382.01580639999884,None,382.01580639999884,None,382.01580639999884,None,383.71121256000333,None,383.71121256000333,None,383.71121256000333,None,,,,,,,,,,,,,015,2022-05-12_10h33.53.725,Main,2022.1.1,61.18146299529477,
negative,positive,1,j,l,,,,,,,,,5,1,91,6,,,,,,,,,main,2,2,1,positive,negative,l,l,1,0.84824959999969,383.7173427000016,384.727607300003,384.7109062000018,None,383.7173427000016,None,383.7173427000016,None,383.7173427000016,None,385.5608298599982,None,385.5608298599982,None,385.5608298599982,None,,,,,,,,,,,,,015,2022-05-12_10h33.53.725,Main,2022.1.1,61.18146299529477,
negative,positive,2,j,l,,,,,,,,,5,2,92,15,,,,,,,,,main,1,1,2,positive,negative,l,l,1,0.715385099996638,385.5610130999994,386.56094999999914,386.56094999999914,None,385.5610130999994,None,385.5610130999994,None,385.5610130999994,None,387.2778906599997,None,387.2778906599997,None,387.2778906599997,None,,,,,,,,,,,,,015,2022-05-12_10h33.53.725,Main,2022.1.1,61.18146299529477,
positive,negative,1,l,j,,,,,,,,,5,3,93,5,,,,,,,,,main,1,1,1,negative,positive,j,j,1,0.7983071000053314,387.2839168999999,388.2968213999993,388.2801984000034,None,387.2839168999999,None,387.2839168999999,None,387.2839168999999,None,389.0777715600052,None,389.0777715600052,None,389.0777715600052,None,,,,,,,,,,,,,015,2022-05-12_10h33.53.725,Main,2022.1.1,61.18146299529477,
neutral,positive,2,k,k,,,,,,,,,5,4,94,13,,,,,,,,,main,2,2,2,positive,neutral,k,k,1,0.632928200000606,389.0837329999995,390.09668560000136,390.08007709999947,None,389.0837329999995,None,389.0837329999995,None,389.0837329999995,None,390.7110797600035,None,390.7110797600035,None,390.7110797600035,None,,,,,,,,,,,,,015,2022-05-12_10h33.53.725,Main,2022.1.1,61.18146299529477,
positive,neutral,1,l,j,,,,,,,,,5,5,95,8,,,,,,,,,main,2,2,1,neutral,positive,j,j,1,0.846842499995546,390.71550650000427,391.7301490000027,391.71379660000093,None,390.71550650000427,None,390.71550650000427,None,390.71550650000427,None,392.56071786000393,None,392.56071786000393,None,392.56071786000393,None,,,,,,,,,,,,,015,2022-05-12_10h33.53.725,Main,2022.1.1,61.18146299529477,
neutral,negative,2,k,k,,,,,,,,,5,6,96,16,,,,,,,,,main,2,2,2,negative,neutral,k,k,1,1.3157881000006455,392.56640530000004,393.57778939999844,393.56111039999814,None,392.56640530000004,None,392.56640530000004,None,392.56640530000004,None,394.8773118600002,None,394.8773118600002,None,394.8773118600002,None,,,,,,,,,,,,,015,2022-05-12_10h33.53.725,Main,2022.1.1,61.18146299529477,
positive,neutral,2,l,j,,,,,,,,,5,7,97,17,,,,,,,,,main,2,2,2,neutral,positive,j,j,1,0.7811436999982106,394.8940709000017,395.8940524999998,395.87738420000096,None,394.8940709000017,None,394.8940709000017,None,394.8940709000017,None,396.66064275999815,None,396.66064275999815,None,396.66064275999815,None,,,,,,,,,,,,,015,2022-05-12_10h33.53.725,Main,2022.1.1,61.18146299529477,
neutral,negative,1,k,k,,,,,,,,,5,8,98,7,,,,,,,,,main,2,2,1,negative,neutral,k,k,1,0.9655780000030063,396.66118370000186,397.6610970000038,397.6610970000038,None,396.66118370000186,None,396.66118370000186,None,396.66118370000186,None,398.6276134600048,None,398.6276134600048,None,398.6276134600048,None,,,,,,,,,,,,,015,2022-05-12_10h33.53.725,Main,2022.1.1,61.18146299529477,
negative,negative,1,j,l,,,,,,,,,5,9,99,0,,,,,,,,,main,2,2,1,negative,negative,l,l,1,0.8819198999990476,398.63125109999964,399.64663830000063,399.62996560000465,None,398.63125109999964,None,398.63125109999964,None,398.63125109999964,None,400.51088736000384,None,400.51088736000384,None,400.51088736000384,None,,,,,,,,,,,,,015,2022-05-12_10h33.53.725,Main,2022.1.1,61.18146299529477,
negative,neutral,1,j,l,,,,,,,,,5,10,100,3,,,,,,,,,main,1,1,1,neutral,negative,l,l,1,0.8315885000047274,400.51440210000146,401.5276881000027,401.51102040000114,None,400.51440210000146,None,400.51440210000146,None,400.51440210000146,None,402.3441766600008,None,402.3441766600008,None,402.3441766600008,None,,,,,,,,,,,,,015,2022-05-12_10h33.53.725,Main,2022.1.1,61.18146299529477,
positive,positive,1,l,j,,,,,,,,,5,11,101,2,,,,,,,,,main,2,2,1,positive,positive,j,j,1,0.7652653999975882,402.3501688000033,403.3609228999994,403.3442550000036,None,402.3501688000033,None,402.3501688000033,None,402.3501688000033,None,404.11080776000017,None,404.11080776000017,None,404.11080776000017,None,,,,,,,,,,,,,015,2022-05-12_10h33.53.725,Main,2022.1.1,61.18146299529477,
positive,positive,2,l,j,,,,,,,,,5,12,102,11,,,,,,,,,main,2,2,2,positive,positive,j,j,1,0.8313552999970852,404.11694290000014,405.1275590000005,405.1137147000045,None,404.11694290000014,None,404.11694290000014,None,404.11694290000014,None,405.9437560599981,None,405.9437560599981,None,405.9437560599981,None,,,,,,,,,,,,,015,2022-05-12_10h33.53.725,Main,2022.1.1,61.18146299529477,
neutral,positive,1,k,k,,,,,,,,,5,13,103,4,,,,,,,,,main,2,2,1,positive,neutral,k,k,1,0.6818232000005082,405.9438531000051,406.9438236999995,406.9438236999995,None,405.9438531000051,None,405.9438531000051,None,405.9438531000051,None,407.62710386000253,None,407.62710386000253,None,407.62710386000253,None,,,,,,,,,,,,,015,2022-05-12_10h33.53.725,Main,2022.1.1,61.18146299529477,
neutral,neutral,2,k,k,,,,,,,,,5,14,104,10,,,,,,,,,main,2,2,2,neutral,neutral,k,k,1,0.6821353999985149,407.63290170000255,408.644426800005,408.6274751000019,None,407.63290170000255,None,407.63290170000255,None,407.63290170000255,None,409.3106968600041,None,409.3106968600041,None,409.3106968600041,None,,,,,,,,,,,,,015,2022-05-12_10h33.53.725,Main,2022.1.1,61.18146299529477,
positive,negative,2,l,j,,,,,,,,,5,15,105,14,,,,,,,,,main,1,1,2,negative,positive,j,j,1,0.7352963000012096,409.31672249999974,410.32745050000085,410.313060600005,None,409.31672249999974,None,409.31672249999974,None,409.31672249999974,None,411.04414625999925,None,411.04414625999925,None,411.04414625999925,None,,,,,,,,,,,,,015,2022-05-12_10h33.53.725,Main,2022.1.1,61.18146299529477,
negative,negative,2,j,l,,,,,,,,,5,16,106,9,,,,,,,,,main,1,1,2,negative,negative,l,l,1,0.7761548999988008,411.0530169000049,412.06301209999947,412.0464107000007,None,411.0530169000049,None,411.0530169000049,None,411.0530169000049,None,412.8273533600004,None,412.8273533600004,None,412.8273533600004,None,,,,,,,,,,,,,015,2022-05-12_10h33.53.725,Main,2022.1.1,61.18146299529477,
negative,neutral,2,j,l,,,,,,,,,5,17,107,12,,,,,,,,,main,2,2,2,neutral,negative,l,l,1,0.9651336999959312,412.8335436999987,413.84404260000156,413.8296795999995,None,412.8335436999987,None,412.8335436999987,None,412.8335436999987,None,414.7939363600017,None,414.7939363600017,None,414.7939363600017,None,,,,,,,,,,,,,015,2022-05-12_10h33.53.725,Main,2022.1.1,61.18146299529477,
negative,neutral,1,j,l,,,,,,,,,6,0,108,3,,,,,,,,,main,2,2,1,neutral,negative,l,l,1,0.9150848999997834,414.79764850000356,415.8104605000044,415.7939225000009,None,414.79764850000356,None,414.79764850000356,None,414.79764850000356,None,416.71046385999944,None,416.71046385999944,None,416.71046385999944,None,,,,,,,,,,,,,015,2022-05-12_10h33.53.725,Main,2022.1.1,61.18146299529477,
positive,negative,2,l,j,,,,,,,,,6,1,109,14,,,,,,,,,main,2,2,2,negative,positive,j,j,1,0.7646238999950583,416.7105284999998,417.7106655000025,417.7106655000025,None,416.7105284999998,None,416.7105284999998,None,416.7105284999998,None,418.47687276000215,None,418.47687276000215,None,418.47687276000215,None,,,,,,,,,,,,,015,2022-05-12_10h33.53.725,Main,2022.1.1,61.18146299529477,
positive,neutral,1,l,j,,,,,,,,,6,2,110,8,,,,,,,,,main,2,2,1,neutral,positive,j,j,1,0.8322002999993856,418.4803181000025,419.4795974000008,419.4795974000008,None,418.4803181000025,None,418.4803181000025,None,418.4803181000025,None,420.31049526000425,None,420.31049526000425,None,420.31049526000425,None,,,,,,,,,,,,,015,2022-05-12_10h33.53.725,Main,2022.1.1,61.18146299529477,
negative,neutral,2,j,l,,,,,,,,,6,3,111,12,,,,,,,,,main,2,2,2,neutral,negative,l,l,1,1.3529483000020264,420.3163476000045,421.32723850000184,421.31057000000146,None,420.3163476000045,None,420.3163476000045,None,420.3163476000045,None,422.6606306600006,None,422.6606306600006,None,422.6606306600006,None,,,,,,,,,,,,,015,2022-05-12_10h33.53.725,Main,2022.1.1,61.18146299529477,
negative,positive,2,j,l,,,,,,,,,6,4,112,15,,,,,,,,,main,1,1,2,positive,negative,l,l,1,0.6929173000025912,422.673260800002,423.679401100002,423.6628023000012,None,422.673260800002,None,422.673260800002,None,422.673260800002,None,424.3604127600047,None,424.3604127600047,None,424.3604127600047,None,,,,,,,,,,,,,015,2022-05-12_10h33.53.725,Main,2022.1.1,61.18146299529477,
positive,positive,1,l,j,,,,,,,,,6,5,113,2,,,,,,,,,main,2,2,1,positive,positive,j,j,1,1.0980309000005946,424.3668101000003,425.379417199998,425.36048460000166,None,424.3668101000003,None,424.3668101000003,None,424.3668101000003,None,426.4599771600042,None,426.4599771600042,None,426.4599771600042,None,,,,,,,,,,,,,015,2022-05-12_10h33.53.725,Main,2022.1.1,61.18146299529477,
neutral,negative,1,k,k,,,,,,,,,6,6,114,7,,,,,,,,,main,2,2,1,negative,neutral,k,k,1,0.6318544000023394,426.4600774999999,427.4600830999989,427.4600830999989,None,426.4600774999999,None,426.4600774999999,None,426.4600774999999,None,428.09336815999995,None,428.09336815999995,None,428.09336815999995,None,,,,,,,,,,,,,015,2022-05-12_10h33.53.725,Main,2022.1.1,61.18146299529477,
negative,negative,1,j,l,,,,,,,,,6,7,115,0,,,,,,,,,main,2,2,1,negative,negative,l,l,1,0.9988456999999471,428.0976972999997,429.1104207000026,429.09373349999805,None,428.0976972999997,None,428.0976972999997,None,428.0976972999997,None,430.0936366599999,None,430.0936366599999,None,430.0936366599999,None,,,,,,,,,,,,,015,2022-05-12_10h33.53.725,Main,2022.1.1,61.18146299529477,
positive,positive,2,l,j,,,,,,,,,6,8,116,11,,,,,,,,,main,1,1,2,positive,positive,j,j,1,0.797409200000402,430.10016840000026,431.11037809999834,431.09603130000323,None,430.10016840000026,None,430.10016840000026,None,430.10016840000026,None,431.8935891600049,None,431.8935891600049,None,431.8935891600049,None,,,,,,,,,,,,,015,2022-05-12_10h33.53.725,Main,2022.1.1,61.18146299529477,
neutral,positive,1,k,k,,,,,,,,,6,9,117,4,,,,,,,,,main,1,1,1,positive,neutral,k,k,1,0.5986340999952517,431.8971367999984,432.9103083000009,432.89365779999935,None,431.8971367999984,None,431.8971367999984,None,431.8971367999984,None,433.4936137600016,None,433.4936137600016,None,433.4936137600016,None,,,,,,,,,,,,,015,2022-05-12_10h33.53.725,Main,2022.1.1,61.18146299529477,
positive,neutral,2,l,j,,,,,,,,,6,10,118,17,,,,,,,,,main,2,2,2,neutral,positive,j,j,1,0.7647319999960018,433.49726689999807,434.5102893000003,434.49591320000036,None,433.49726689999807,None,433.49726689999807,None,433.49726689999807,None,435.2601706600035,None,435.2601706600035,None,435.2601706600035,None,,,,,,,,,,,,,015,2022-05-12_10h33.53.725,Main,2022.1.1,61.18146299529477,
negative,negative,2,j,l,,,,,,,,,6,11,119,9,,,,,,,,,main,1,1,2,negative,negative,l,l,1,0.6984423999965657,435.2642412999994,436.27654520000215,436.25988280000456,None,435.2642412999994,None,435.2642412999994,None,435.2642412999994,None,436.959814859998,None,436.959814859998,None,436.959814859998,None,,,,,,,,,,,,,015,2022-05-12_10h33.53.725,Main,2022.1.1,61.18146299529477,
neutral,negative,2,k,k,,,,,,,,,6,12,120,16,,,,,,,,,main,1,1,2,negative,neutral,k,k,1,0.7152419000049122,436.95989640000334,437.95992000000115,437.95992000000115,None,436.95989640000334,None,436.95989640000334,None,436.95989640000334,None,438.67685186000017,None,438.67685186000017,None,438.67685186000017,None,,,,,,,,,,,,,015,2022-05-12_10h33.53.725,Main,2022.1.1,61.18146299529477,
positive,negative,1,l,j,,,,,,,,,6,13,121,5,,,,,,,,,main,1,1,1,negative,positive,j,j,1,0.8483294999969075,438.67999209999834,439.6935300000041,439.67685650000203,None,438.67999209999834,None,438.67999209999834,None,438.67999209999834,None,440.5267399600052,None,440.5267399600052,None,440.5267399600052,None,,,,,,,,,,,,,015,2022-05-12_10h33.53.725,Main,2022.1.1,61.18146299529477,
neutral,neutral,1,k,k,,,,,,,,,6,14,122,1,,,,,,,,,main,2,2,1,neutral,neutral,k,k,1,0.6484690999932354,440.53057550000085,441.54348169999867,441.5290920000043,None,440.53057550000085,None,440.53057550000085,None,440.53057550000085,None,442.1767025599984,None,442.1767025599984,None,442.1767025599984,None,,,,,,,,,,,,,015,2022-05-12_10h33.53.725,Main,2022.1.1,61.18146299529477,
negative,positive,1,j,l,,,,,,,,,6,15,123,6,,,,,,,,,main,2,2,1,positive,negative,l,j,0,1.3476955000005546,442.18113019999873,443.1956027999986,443.17911879999883,None,442.18113019999873,None,442.18113019999873,None,442.18113019999873,None,444.5267657000004,None,444.5267657000004,None,444.5267657000004,None,,,,,,,,,,,,,015,2022-05-12_10h33.53.725,Main,2022.1.1,61.18146299529477,
neutral,positive,2,k,k,,,,,,,,,6,16,124,13,,,,,,,,,main,2,2,2,positive,neutral,k,k,1,0.7978776000018115,445.5382232000047,446.5435645000034,446.5099612999984,None,445.5382232000047,None,445.5382232000047,None,445.5382232000047,None,447.3265031600022,None,447.3265031600022,None,447.3265031600022,None,,,,,,,,,,,,,015,2022-05-12_10h33.53.725,Main,2022.1.1,61.18146299529477,
neutral,neutral,2,k,k,,,,,,,,,6,17,125,10,,,,,,,,,main,2,2,2,neutral,neutral,k,k,1,0.7148344000015641,447.3299746999983,448.34326259999943,448.32658770000126,None,447.3299746999983,None,447.3299746999983,None,447.3299746999983,None,449.0431983599992,None,449.0431983599992,None,449.0431983599992,None,,,,,,,,,,,,,015,2022-05-12_10h33.53.725,Main,2022.1.1,61.18146299529477,
neutral,positive,2,k,k,,,,,,,,,7,0,126,13,,,,,,,,,main,1,1,2,positive,neutral,k,k,1,0.6213522999969427,449.0463146000038,450.0599363000001,450.04326140000194,None,449.0463146000038,None,449.0463146000038,None,449.0463146000038,None,450.6633372600045,None,450.6633372600045,None,450.6633372600045,None,,,,,,,,,,,,,015,2022-05-12_10h33.53.725,Main,2022.1.1,61.18146299529477,
neutral,positive,1,k,k,,,,,,,,,7,1,127,4,,,,,,,,,main,2,2,1,positive,neutral,k,k,1,0.5672017999968375,450.6700334999987,451.6765788999983,451.6601795000024,None,450.6700334999987,None,450.6700334999987,None,450.6700334999987,None,452.2352448599995,None,452.2352448599995,None,452.2352448599995,None,,,,,,,,,,,,,015,2022-05-12_10h33.53.725,Main,2022.1.1,61.18146299529477,
positive,negative,1,l,j,,,,,,,,,7,2,128,5,,,,,,,,,main,1,1,1,negative,positive,j,j,1,0.7890966999984812,452.24602030000096,453.25953290000325,453.2262067000047,None,452.24602030000096,None,452.24602030000096,None,452.24602030000096,None,454.0261181599999,None,454.0261181599999,None,454.0261181599999,None,,,,,,,,,,,,,015,2022-05-12_10h33.53.725,Main,2022.1.1,61.18146299529477,
negative,neutral,2,j,l,,,,,,,,,7,3,129,12,,,,,,,,,main,2,2,2,neutral,negative,l,l,1,0.6324050999974133,454.0268716999999,455.0265570999982,455.0265570999982,None,454.0268716999999,None,454.0268716999999,None,454.0268716999999,None,455.6597633600031,None,455.6597633600031,None,455.6597633600031,None,,,,,,,,,,,,,015,2022-05-12_10h33.53.725,Main,2022.1.1,61.18146299529477,
positive,negative,2,l,j,,,,,,,,,7,4,130,14,,,,,,,,,main,2,2,2,negative,positive,j,j,1,0.8181378000008408,455.6636421000003,456.67651209999894,456.65985440000077,None,455.6636421000003,None,455.6636421000003,None,455.6636421000003,None,457.4786645600034,None,457.4786645600034,None,457.4786645600034,None,,,,,,,,,,,,,015,2022-05-12_10h33.53.725,Main,2022.1.1,61.18146299529477,
neutral,neutral,2,k,k,,,,,,,,,7,5,131,10,,,,,,,,,main,2,2,2,neutral,neutral,k,k,1,0.6621126000027289,457.48345569999947,458.49314289999893,458.47878270000365,None,457.48345569999947,None,457.48345569999947,None,457.48345569999947,None,459.1430397600052,None,459.1430397600052,None,459.1430397600052,None,,,,,,,,,,,,,015,2022-05-12_10h33.53.725,Main,2022.1.1,61.18146299529477,
negative,positive,2,j,l,,,,,,,,,7,6,132,15,,,,,,,,,main,2,2,2,positive,negative,l,l,1,0.7149290000015753,459.16218089999893,460.176426900005,460.1431137000036,None,459.16218089999893,None,459.16218089999893,None,459.16218089999893,None,460.8596986600023,None,460.8596986600023,None,460.8596986600023,None,,,,,,,,,,,,,015,2022-05-12_10h33.53.725,Main,2022.1.1,61.18146299529477,
negative,negative,2,j,l,,,,,,,,,7,7,133,9,,,,,,,,,main,2,2,2,negative,negative,l,l,1,0.7311613999991096,460.86343650000344,461.8717401000031,461.8717401000031,None,460.86343650000344,None,460.86343650000344,None,460.86343650000344,None,462.59260106000147,None,462.59260106000147,None,462.59260106000147,None,,,,,,,,,,,,,015,2022-05-12_10h33.53.725,Main,2022.1.1,61.18146299529477,
negative,neutral,1,j,l,,,,,,,,,7,8,134,3,,,,,,,,,main,1,1,1,neutral,negative,l,l,1,1.849018300003081,462.59268610000436,463.59298860000126,463.59298860000126,None,462.59268610000436,None,462.59268610000436,None,462.59268610000436,None,465.4430057999998,None,465.4430057999998,None,465.4430057999998,None,,,,,,,,,,,,,015,2022-05-12_10h33.53.725,Main,2022.1.1,61.18146299529477,
positive,positive,1,l,j,,,,,,,,,7,9,135,2,,,,,,,,,main,1,1,1,positive,positive,j,j,1,0.9847488999948837,466.44371780000074,467.44544440000027,467.42633729999943,None,466.44371780000074,None,466.44371780000074,None,466.44371780000074,None,468.4261918600023,None,468.4261918600023,None,468.4261918600023,None,,,,,,,,,,,,,015,2022-05-12_10h33.53.725,Main,2022.1.1,61.18146299529477,
neutral,negative,2,k,k,,,,,,,,,7,10,136,16,,,,,,,,,main,1,1,2,negative,neutral,k,k,1,0.6306123999966076,468.4308488000024,469.4429251000038,469.426260799999,None,468.4308488000024,None,468.4308488000024,None,468.4308488000024,None,470.0594919600044,None,470.0594919600044,None,470.0594919600044,None,,,,,,,,,,,,,015,2022-05-12_10h33.53.725,Main,2022.1.1,61.18146299529477,
negative,negative,1,j,l,,,,,,,,,7,11,137,0,,,,,,,,,main,2,2,1,negative,negative,l,l,1,0.8980508999957237,470.06321839999873,471.07624860000215,471.0598258000027,None,470.06321839999873,None,470.06321839999873,None,470.06321839999873,None,471.9590882600023,None,471.9590882600023,None,471.9590882600023,None,,,,,,,,,,,,,015,2022-05-12_10h33.53.725,Main,2022.1.1,61.18146299529477,
negative,positive,1,j,l,,,,,,,,,7,12,138,6,,,,,,,,,main,2,2,1,positive,negative,l,l,1,0.6666104000032647,471.95920019999903,472.9593776000038,472.9593776000038,None,471.95920019999903,None,471.95920019999903,None,471.95920019999903,None,473.6257602600017,None,473.6257602600017,None,473.6257602600017,None,,,,,,,,,,,,,015,2022-05-12_10h33.53.725,Main,2022.1.1,61.18146299529477,
positive,neutral,1,l,j,,,,,,,,,7,13,139,8,,,,,,,,,main,1,1,1,neutral,positive,j,j,1,0.8471217999976943,473.6303038000042,474.6428190000006,474.626165499998,None,473.6303038000042,None,473.6303038000042,None,473.6303038000042,None,475.47603135999816,None,475.47603135999816,None,475.47603135999816,None,,,,,,,,,,,,,015,2022-05-12_10h33.53.725,Main,2022.1.1,61.18146299529477,
neutral,neutral,1,k,k,,,,,,,,,7,14,140,1,,,,,,,,,main,2,2,1,neutral,neutral,k,k,1,0.6987939000027836,475.47926810000354,476.47843300000386,476.47843300000386,None,475.47926810000354,None,475.47926810000354,None,475.47926810000354,None,477.176119460004,None,477.176119460004,None,477.176119460004,None,,,,,,,,,,,,,015,2022-05-12_10h33.53.725,Main,2022.1.1,61.18146299529477,
positive,positive,2,l,j,,,,,,,,,7,15,141,11,,,,,,,,,main,1,1,2,positive,positive,j,j,1,0.6982838999974774,477.17968340000516,478.19502099999954,478.1783077,None,477.17968340000516,None,477.17968340000516,None,477.17968340000516,None,478.8759733600018,None,478.8759733600018,None,478.8759733600018,None,,,,,,,,,,,,,015,2022-05-12_10h33.53.725,Main,2022.1.1,61.18146299529477,
positive,neutral,2,l,j,,,,,,,,,7,16,142,17,,,,,,,,,main,1,1,2,neutral,positive,j,j,1,0.7982773999974597,478.87949300000037,479.8927408000018,479.87606850000157,None,478.87949300000037,None,478.87949300000037,None,478.87949300000037,None,480.6759393600005,None,480.6759393600005,None,480.6759393600005,None,,,,,,,,,,,,,015,2022-05-12_10h33.53.725,Main,2022.1.1,61.18146299529477,
neutral,negative,1,k,k,,,,,,,,,7,17,143,7,,,,,,,,,main,2,2,1,negative,neutral,k,k,1,0.9815540999989025,480.67935540000326,481.692321100003,481.67565119999927,None,480.67935540000326,None,480.67935540000326,None,480.67935540000326,None,482.658843459998,None,482.658843459998,None,482.658843459998,None,,,,,,,,,,,,,015,2022-05-12_10h33.53.725,Main,2022.1.1,61.18146299529477,
negative,positive,1,j,l,,,,,,,,,8,0,144,6,,,,,,,,,main,1,1,1,positive,negative,l,l,1,0.832073900004616,482.65894729999854,483.6616154000003,483.6616154000003,None,482.65894729999854,None,482.65894729999854,None,482.65894729999854,None,484.4925331600025,None,484.4925331600025,None,484.4925331600025,None,,,,,,,,,,,,,015,2022-05-12_10h33.53.725,Main,2022.1.1,61.18146299529477,
neutral,negative,2,k,k,,,,,,,,,8,1,145,16,,,,,,,,,main,1,1,2,negative,neutral,k,k,1,0.6652899999971851,484.49660869999934,485.5115205000038,485.4926074000032,None,484.49660869999934,None,484.49660869999934,None,484.49660869999934,None,486.15915776000475,None,486.15915776000475,None,486.15915776000475,None,,,,,,,,,,,,,015,2022-05-12_10h33.53.725,Main,2022.1.1,61.18146299529477,
positive,positive,1,l,j,,,,,,,,,8,2,146,2,,,,,,,,,main,1,1,1,positive,positive,j,j,1,0.6650511999978335,486.1628156000006,487.1758789000014,487.1592410000012,None,486.1628156000006,None,486.1628156000006,None,486.1628156000006,None,487.8257929600004,None,487.8257929600004,None,487.8257929600004,None,,,,,,,,,,,,,015,2022-05-12_10h33.53.725,Main,2022.1.1,61.18146299529477,
positive,negative,1,l,j,,,,,,,,,8,3,147,5,,,,,,,,,main,2,2,1,negative,positive,j,j,1,0.8649079000024358,487.8294300999987,488.8446915000022,488.8281715000048,None,487.8294300999987,None,487.8294300999987,None,487.8294300999987,None,489.6924165599994,None,489.6924165599994,None,489.6924165599994,None,,,,,,,,,,,,,015,2022-05-12_10h33.53.725,Main,2022.1.1,61.18146299529477,
positive,neutral,1,l,j,,,,,,,,,8,4,148,8,,,,,,,,,main,1,1,1,neutral,positive,j,j,1,0.6482279999981984,489.69648120000056,490.7088750000039,490.69242700000177,None,489.69648120000056,None,489.69648120000056,None,489.69648120000056,None,491.3420160599999,None,491.3420160599999,None,491.3420160599999,None,,,,,,,,,,,,,015,2022-05-12_10h33.53.725,Main,2022.1.1,61.18146299529477,
negative,negative,1,j,l,,,,,,,,,8,5,149,0,,,,,,,,,main,2,2,1,negative,negative,l,l,1,1.1318675000002258,491.3421961999993,492.34208700000454,492.34208700000454,None,491.3421961999993,None,491.3421961999993,None,491.3421961999993,None,493.47535115999926,None,493.47535115999926,None,493.47535115999926,None,,,,,,,,,,,,,015,2022-05-12_10h33.53.725,Main,2022.1.1,61.18146299529477,
neutral,positive,1,k,k,,,,,,,,,8,6,150,4,,,,,,,,,main,2,2,1,positive,neutral,k,k,1,0.8487481999982265,493.4760232000044,494.4754411000031,494.4754411000031,None,493.4760232000044,None,493.4760232000044,None,493.4760232000044,None,495.3256538600035,None,495.3256538600035,None,495.3256538600035,None,,,,,,,,,,,,,015,2022-05-12_10h33.53.725,Main,2022.1.1,61.18146299529477,
negative,negative,2,j,l,,,,,,,,,8,7,151,9,,,,,,,,,main,2,2,2,negative,negative,l,l,1,0.8149673000007169,495.32916050000495,496.34239450000314,496.32573100000445,None,495.32916050000495,None,495.32916050000495,None,495.32916050000495,None,497.14228785999876,None,497.14228785999876,None,497.14228785999876,None,,,,,,,,,,,,,015,2022-05-12_10h33.53.725,Main,2022.1.1,61.18146299529477,
positive,neutral,2,l,j,,,,,,,,,8,8,152,17,,,,,,,,,main,2,2,2,neutral,positive,j,l,0,0.4994745999938459,497.146459399999,498.1590240000005,498.142337199999,None,497.146459399999,None,497.146459399999,None,497.146459399999,None,498.6423978000021,None,498.6423978000021,None,498.6423978000021,None,,,,,,,,,,,,,015,2022-05-12_10h33.53.725,Main,2022.1.1,61.18146299529477,
neutral,positive,2,k,k,,,,,,,,,8,9,153,13,,,,,,,,,main,2,2,2,positive,neutral,k,k,1,1.121054200004437,499.64338800000405,500.6423020000002,500.6278356000039,None,499.64338800000405,None,499.64338800000405,None,499.64338800000405,None,501.76196766000066,None,501.76196766000066,None,501.76196766000066,None,,,,,,,,,,,,,015,2022-05-12_10h33.53.725,Main,2022.1.1,61.18146299529477,
negative,neutral,2,j,l,,,,,,,,,8,10,154,12,,,,,,,,,main,2,2,2,neutral,negative,l,l,1,0.7945286999965901,501.7623204000047,502.77520899999945,502.75854270000127,None,501.7623204000047,None,501.7623204000047,None,501.7623204000047,None,503.55842316000053,None,503.55842316000053,None,503.55842316000053,None,,,,,,,,,,,,,015,2022-05-12_10h33.53.725,Main,2022.1.1,61.18146299529477,
negative,neutral,1,j,l,,,,,,,,,8,11,155,3,,,,,,,,,main,1,1,1,neutral,negative,l,l,1,1.8327301000026637,503.558529300004,504.56109290000313,504.54452799999854,None,503.558529300004,None,503.558529300004,None,503.558529300004,None,506.39219310000044,None,506.39219310000044,None,506.39219310000044,None,,,,,,,,,,,,,015,2022-05-12_10h33.53.725,Main,2022.1.1,61.18146299529477,
negative,positive,2,j,l,,,,,,,,,8,12,156,15,,,,,,,,,main,2,2,2,positive,negative,l,l,1,0.8012940999979037,507.3931369999991,508.3943863000022,508.37776529999974,None,507.3931369999991,None,507.3931369999991,None,507.3931369999991,None,509.1919952600001,None,509.1919952600001,None,509.1919952600001,None,,,,,,,,,,,,,015,2022-05-12_10h33.53.725,Main,2022.1.1,61.18146299529477,
neutral,negative,1,k,k,,,,,,,,,8,13,157,7,,,,,,,,,main,2,2,1,negative,neutral,k,k,1,0.6982989000025555,509.19588880000083,510.2109735000049,510.1944397000043,None,509.19588880000083,None,509.19588880000083,None,509.19588880000083,None,510.8919952600045,None,510.8919952600045,None,510.8919952600045,None,,,,,,,,,,,,,015,2022-05-12_10h33.53.725,Main,2022.1.1,61.18146299529477,
neutral,neutral,2,k,k,,,,,,,,,8,14,158,10,,,,,,,,,main,2,2,2,neutral,neutral,k,k,1,0.564695599998231,510.89569270000356,511.90859089999867,511.89201570000296,None,510.89569270000356,None,510.89569270000356,None,510.89569270000356,None,512.4582385600006,None,512.4582385600006,None,512.4582385600006,None,,,,,,,,,,,,,015,2022-05-12_10h33.53.725,Main,2022.1.1,61.18146299529477,
neutral,neutral,1,k,k,,,,,,,,,8,15,159,1,,,,,,,,,main,1,1,1,neutral,neutral,k,k,1,0.6820047999935923,512.4583440999995,513.4583762000038,513.4583762000038,None,512.4583440999995,None,512.4583440999995,None,512.4583440999995,None,514.1419263600037,None,514.1419263600037,None,514.1419263600037,None,,,,,,,,,,,,,015,2022-05-12_10h33.53.725,Main,2022.1.1,61.18146299529477,
positive,positive,2,l,j,,,,,,,,,8,16,160,11,,,,,,,,,main,2,2,2,positive,positive,j,j,1,0.7484173999982886,514.1536274000027,515.1586851000029,515.1420065999991,None,514.1536274000027,None,514.1536274000027,None,514.1536274000027,None,515.8919265600052,None,515.8919265600052,None,515.8919265600052,None,,,,,,,,,,,,,015,2022-05-12_10h33.53.725,Main,2022.1.1,61.18146299529477,
positive,negative,2,l,j,,,,,,,,,8,17,161,14,,,,,,,,,main,1,1,2,negative,positive,j,j,1,0.6816857000012533,515.8954718000023,516.9109890000036,516.8942693999998,None,515.8954718000023,None,515.8954718000023,None,515.8954718000023,None,517.5751898599992,None,517.5751898599992,None,517.5751898599992,None,,,,,,,,,,,,,015,2022-05-12_10h33.53.725,Main,2022.1.1,61.18146299529477,
positive,neutral,1,l,j,,,,,,,,,9,0,162,8,,,,,,,,,main,1,1,1,neutral,positive,j,j,1,0.8482087999946089,517.5788532000006,518.5919355000005,518.5752732000037,None,517.5788532000006,None,517.5788532000006,None,517.5788532000006,None,519.4251561600031,None,519.4251561600031,None,519.4251561600031,None,,,,,,,,,,,,,015,2022-05-12_10h33.53.725,Main,2022.1.1,61.18146299529477,
negative,positive,2,j,l,,,,,,,,,9,1,163,15,,,,,,,,,main,1,1,2,positive,negative,l,l,1,0.8644071000016993,519.4360110999987,520.4418908000007,520.4274521000043,None,519.4360110999987,None,519.4360110999987,None,519.4360110999987,None,521.2914161599983,None,521.2914161599983,None,521.2914161599983,None,,,,,,,,,,,,,015,2022-05-12_10h33.53.725,Main,2022.1.1,61.18146299529477,
negative,neutral,1,j,l,,,,,,,,,9,2,164,3,,,,,,,,,main,2,2,1,neutral,negative,l,l,1,0.5983131999964826,521.2915004000024,522.2914796000041,522.2914796000041,None,521.2915004000024,None,521.2915004000024,None,521.2915004000024,None,522.8913898600003,None,522.8913898600003,None,522.8913898600003,None,,,,,,,,,,,,,015,2022-05-12_10h33.53.725,Main,2022.1.1,61.18146299529477,
negative,positive,1,j,l,,,,,,,,,9,3,165,6,,,,,,,,,main,1,1,1,positive,negative,l,l,1,0.6321172000025399,522.8919749000052,523.8915116999997,523.8915116999997,None,522.8919749000052,None,522.8919749000052,None,522.8919749000052,None,524.5247647600045,None,524.5247647600045,None,524.5247647600045,None,,,,,,,,,,,,,015,2022-05-12_10h33.53.725,Main,2022.1.1,61.18146299529477,
neutral,neutral,1,k,k,,,,,,,,,9,4,166,1,,,,,,,,,main,2,2,1,neutral,neutral,k,k,1,0.6316144000011263,524.5283423000001,525.5274118000016,525.5274118000016,None,524.5283423000001,None,524.5283423000001,None,524.5283423000001,None,526.1580394600023,None,526.1580394600023,None,526.1580394600023,None,,,,,,,,,,,,,015,2022-05-12_10h33.53.725,Main,2022.1.1,61.18146299529477,
neutral,neutral,2,k,k,,,,,,,,,9,5,167,10,,,,,,,,,main,2,2,2,neutral,neutral,k,k,1,0.5489910000032978,526.1616790000044,527.1773013999991,527.1584501000034,None,526.1616790000044,None,526.1616790000044,None,526.1616790000044,None,527.708380160002,None,527.708380160002,None,527.708380160002,None,,,,,,,,,,,,,015,2022-05-12_10h33.53.725,Main,2022.1.1,61.18146299529477,
negative,negative,1,j,l,,,,,,,,,9,6,168,0,,,,,,,,,main,1,1,1,negative,negative,l,l,1,0.8148225999975693,527.7121352000031,528.7273046000046,528.7107050999984,None,527.7121352000031,None,527.7121352000031,None,527.7121352000031,None,529.5249516600015,None,529.5249516600015,None,529.5249516600015,None,,,,,,,,,,,,,015,2022-05-12_10h33.53.725,Main,2022.1.1,61.18146299529477,
negative,neutral,2,j,l,,,,,,,,,9,7,169,12,,,,,,,,,main,1,1,2,neutral,negative,l,l,1,0.6486057999936747,529.5280292000025,530.5417250000028,530.5273081999985,None,529.5280292000025,None,529.5280292000025,None,529.5280292000025,None,531.1749195599987,None,531.1749195599987,None,531.1749195599987,None,,,,,,,,,,,,,015,2022-05-12_10h33.53.725,Main,2022.1.1,61.18146299529477,
positive,negative,1,l,j,,,,,,,,,9,8,170,5,,,,,,,,,main,1,1,1,negative,positive,j,j,1,0.814284599997336,531.1788123000006,532.1912771999996,532.1746064000035,None,531.1788123000006,None,531.1788123000006,None,531.1788123000006,None,532.9912040600029,None,532.9912040600029,None,532.9912040600029,None,,,,,,,,,,,,,015,2022-05-12_10h33.53.725,Main,2022.1.1,61.18146299529477,
positive,positive,1,l,j,,,,,,,,,9,9,171,2,,,,,,,,,main,1,1,1,positive,positive,j,j,1,0.5491781000018818,532.9913424000042,533.9916262000042,533.9916262000042,None,532.9913424000042,None,532.9913424000042,None,532.9913424000042,None,534.5415325600043,None,534.5415325600043,None,534.5415325600043,None,,,,,,,,,,,,,015,2022-05-12_10h33.53.725,Main,2022.1.1,61.18146299529477,
positive,negative,2,l,j,,,,,,,,,9,10,172,14,,,,,,,,,main,2,2,2,negative,positive,j,k,0,0.5476617000022088,534.5517142000026,535.5582414000019,535.5439019000041,None,534.5517142000026,None,534.5517142000026,None,534.5517142000026,None,536.0916323999991,None,536.0916323999991,None,536.0916323999991,None,,,,,,,,,,,,,015,2022-05-12_10h33.53.725,Main,2022.1.1,61.18146299529477,
neutral,negative,2,k,k,,,,,,,,,9,11,173,16,,,,,,,,,main,1,1,2,negative,neutral,k,k,1,0.8677261999982875,537.0945858999985,538.091545700001,538.091545700001,None,537.0945858999985,None,537.0945858999985,None,537.0945858999985,None,538.9580895600011,None,538.9580895600011,None,538.9580895600011,None,,,,,,,,,,,,,015,2022-05-12_10h33.53.725,Main,2022.1.1,61.18146299529477,
neutral,positive,1,k,k,,,,,,,,,9,12,174,4,,,,,,,,,main,2,2,1,positive,neutral,k,k,1,1.965317899994261,538.962140100004,539.9771007000018,539.9604999000003,None,538.962140100004,None,538.962140100004,None,538.962140100004,None,541.924794700004,None,541.924794700004,None,541.924794700004,None,,,,,,,,,,,,,015,2022-05-12_10h33.53.725,Main,2022.1.1,61.18146299529477,
positive,positive,2,l,j,,,,,,,,,9,13,175,11,,,,,,,,,main,2,2,2,positive,positive,j,j,1,0.8361526000007871,542.9245302999989,543.9243711000017,543.9243711000017,None,542.9245302999989,None,542.9245302999989,None,542.9245302999989,None,544.7576300600049,None,544.7576300600049,None,544.7576300600049,None,,,,,,,,,,,,,015,2022-05-12_10h33.53.725,Main,2022.1.1,61.18146299529477,
neutral,positive,2,k,k,,,,,,,,,9,14,176,13,,,,,,,,,main,1,1,2,positive,neutral,k,k,1,0.6317169000030844,544.7585350000008,545.7577481000044,545.7577481000044,None,544.7585350000008,None,544.7585350000008,None,544.7585350000008,None,546.3909676600015,None,546.3909676600015,None,546.3909676600015,None,,,,,,,,,,,,,015,2022-05-12_10h33.53.725,Main,2022.1.1,61.18146299529477,
negative,negative,2,j,l,,,,,,,,,9,15,177,9,,,,,,,,,main,1,1,2,negative,negative,l,l,1,0.8318638999990071,546.3946821999998,547.410246200001,547.3937076000002,None,546.3946821999998,None,546.3946821999998,None,546.3946821999998,None,548.2247117599982,None,548.2247117599982,None,548.2247117599982,None,,,,,,,,,,,,,015,2022-05-12_10h33.53.725,Main,2022.1.1,61.18146299529477,
neutral,negative,1,k,k,,,,,,,,,9,16,178,7,,,,,,,,,main,1,1,1,negative,neutral,k,k,1,1.0835110999978497,548.2281660000008,549.2413031000033,549.2269929000031,None,548.2281660000008,None,548.2281660000008,None,548.2281660000008,None,550.3097161600017,None,550.3097161600017,None,550.3097161600017,None,,,,,,,,,,,,,015,2022-05-12_10h33.53.725,Main,2022.1.1,61.18146299529477,
positive,neutral,2,l,j,,,,,,,,,9,17,179,17,,,,,,,,,main,1,1,2,neutral,positive,j,k,0,-0.7199801000024308,550.3149344000049,None,None,None,550.3149344000049,None,550.3149344000049,None,550.3149344000049,None,550.5912849000015,None,550.5912849000015,None,550.5912849000015,None,,,,,,,,,,,,,015,2022-05-12_10h33.53.725,Main,2022.1.1,61.18146299529477,
negative,neutral,2,j,l,,,,,,,,,10,0,180,12,,,,,,,,,main,1,1,2,neutral,negative,l,l,1,0.8687676999979885,553.6031564000004,554.6075425000017,554.5741810000036,None,553.6031564000004,None,553.6031564000004,None,553.6031564000004,None,555.4573741600034,None,555.4573741600034,None,555.4573741600034,None,,,,,,,,,,,,,015,2022-05-12_10h33.53.725,Main,2022.1.1,61.18146299529477,
neutral,positive,1,k,k,,,,,,,,,10,1,181,4,,,,,,,,,main,2,2,1,positive,neutral,k,k,1,0.63165619999927,555.4579043999984,556.4578269999984,556.4578269999984,None,555.4579043999984,None,555.4579043999984,None,555.4579043999984,None,557.0910561600031,None,557.0910561600031,None,557.0910561600031,None,,,,,,,,,,,,,015,2022-05-12_10h33.53.725,Main,2022.1.1,61.18146299529477,
neutral,negative,2,k,k,,,,,,,,,10,2,182,16,,,,,,,,,main,1,1,2,negative,neutral,k,k,1,0.5819241999997757,557.0948386000018,558.1078242000003,558.0911555999992,None,557.0948386000018,None,557.0948386000018,None,557.0948386000018,None,558.6743582600029,None,558.6743582600029,None,558.6743582600029,None,,,,,,,,,,,,,015,2022-05-12_10h33.53.725,Main,2022.1.1,61.18146299529477,
positive,neutral,2,l,j,,,,,,,,,10,3,183,17,,,,,,,,,main,1,1,2,neutral,positive,j,j,1,0.6504134999995586,558.6779391000018,559.6933581999983,559.6744237000021,None,558.6779391000018,None,558.6779391000018,None,558.6779391000018,None,560.3265441600015,None,560.3265441600015,None,560.3265441600015,None,,,,,,,,,,,,,015,2022-05-12_10h33.53.725,Main,2022.1.1,61.18146299529477,
positive,positive,1,l,j,,,,,,,,,10,4,184,2,,,,,,,,,main,1,1,1,positive,positive,j,j,1,0.8146101999955135,560.330529800005,561.3432964000021,561.3244035000025,None,560.330529800005,None,560.330529800005,None,560.330529800005,None,562.1432511599996,None,562.1432511599996,None,562.1432511599996,None,,,,,,,,,,,,,015,2022-05-12_10h33.53.725,Main,2022.1.1,61.18146299529477,
neutral,neutral,2,k,k,,,,,,,,,10,5,185,10,,,,,,,,,main,2,2,2,neutral,neutral,k,k,1,0.6122495999952662,562.1542410000038,563.1577117000052,563.143384300005,None,562.1542410000038,None,562.1542410000038,None,562.1542410000038,None,563.7572447600032,None,563.7572447600032,None,563.7572447600032,None,,,,,,,,,,,,,015,2022-05-12_10h33.53.725,Main,2022.1.1,61.18146299529477,
positive,negative,2,l,j,,,,,,,,,10,6,186,14,,,,,,,,,main,2,2,2,negative,positive,j,j,1,1.3653607000014745,563.7577979999987,564.7573042000004,564.7573042000004,None,563.7577979999987,None,563.7577979999987,None,563.7577979999987,None,566.1238996600005,None,566.1238996600005,None,566.1238996600005,None,,,,,,,,,,,,,015,2022-05-12_10h33.53.725,Main,2022.1.1,61.18146299529477,
positive,neutral,1,l,j,,,,,,,,,10,7,187,8,,,,,,,,,main,2,2,1,neutral,positive,j,l,0,1.0319749999980559,566.1248821000045,567.1407001000043,567.1240458000029,None,566.1248821000045,None,566.1248821000045,None,566.1248821000045,None,568.1576150000037,None,568.1576150000037,None,568.1576150000037,None,,,,,,,,,,,,,015,2022-05-12_10h33.53.725,Main,2022.1.1,61.18146299529477,
neutral,positive,2,k,k,,,,,,,,,10,8,188,13,,,,,,,,,main,2,2,2,positive,neutral,k,k,1,0.737052999997104,569.158443100001,570.1575582000005,570.1431767000031,None,569.158443100001,None,569.158443100001,None,569.158443100001,None,570.8932733600013,None,570.8932733600013,None,570.8932733600013,None,,,,,,,,,,,,,015,2022-05-12_10h33.53.725,Main,2022.1.1,61.18146299529477,
negative,negative,2,j,l,,,,,,,,,10,9,189,9,,,,,,,,,main,2,2,2,negative,negative,l,l,1,0.8620583999945666,570.8978318000009,571.9075605000035,571.8931680000023,None,570.8978318000009,None,570.8978318000009,None,570.8978318000009,None,572.7570987600047,None,572.7570987600047,None,572.7570987600047,None,,,,,,,,,,,,,015,2022-05-12_10h33.53.725,Main,2022.1.1,61.18146299529477,
negative,positive,2,j,l,,,,,,,,,10,10,190,15,,,,,,,,,main,1,1,2,positive,negative,l,l,1,0.6649161000023014,572.7608544000032,573.7764691999982,573.7574986000036,None,572.7608544000032,None,572.7608544000032,None,572.7608544000032,None,574.4236713600039,None,574.4236713600039,None,574.4236713600039,None,,,,,,,,,,,,,015,2022-05-12_10h33.53.725,Main,2022.1.1,61.18146299529477,
negative,positive,1,j,l,,,,,,,,,10,11,191,6,,,,,,,,,main,2,2,1,positive,negative,l,l,1,1.2988860000041313,574.4404390999989,575.4404381999993,575.423812400004,None,574.4404390999989,None,574.4404390999989,None,574.4404390999989,None,576.7236884599988,None,576.7236884599988,None,576.7236884599988,None,,,,,,,,,,,,,015,2022-05-12_10h33.53.725,Main,2022.1.1,61.18146299529477,
negative,negative,1,j,l,,,,,,,,,10,12,192,0,,,,,,,,,main,2,2,1,negative,negative,l,l,1,0.6483157999973628,576.7277354000034,577.7407601000014,577.724092299999,None,576.7277354000034,None,576.7277354000034,None,576.7277354000034,None,578.3739535600034,None,578.3739535600034,None,578.3739535600034,None,,,,,,,,,,,,,015,2022-05-12_10h33.53.725,Main,2022.1.1,61.18146299529477,
positive,negative,1,l,j,,,,,,,,,10,13,193,5,,,,,,,,,main,2,2,1,negative,positive,j,l,0,0.5818638000055216,578.3773406000037,579.3930325000038,579.3740351000015,None,578.3773406000037,None,578.3773406000037,None,578.3773406000037,None,579.9597150000045,None,579.9597150000045,None,579.9597150000045,None,,,,,,,,,,,,,015,2022-05-12_10h33.53.725,Main,2022.1.1,61.18146299529477,
positive,positive,2,l,j,,,,,,,,,10,14,194,11,,,,,,,,,main,1,1,2,positive,positive,j,j,1,0.8844731999997748,580.9578671999989,581.9573118000044,581.9406454999989,None,580.9578671999989,None,580.9578671999989,None,580.9578671999989,None,582.8405411600033,None,582.8405411600033,None,582.8405411600033,None,,,,,,,,,,,,,015,2022-05-12_10h33.53.725,Main,2022.1.1,61.18146299529477,
neutral,negative,1,k,k,,,,,,,,,10,15,195,7,,,,,,,,,main,2,2,1,negative,neutral,k,k,1,0.5980995999998413,582.8446385999996,583.8525751000052,583.829381100004,None,582.8446385999996,None,582.8446385999996,None,582.8446385999996,None,584.4401550600014,None,584.4401550600014,None,584.4401550600014,None,,,,,,,,,,,,,015,2022-05-12_10h33.53.725,Main,2022.1.1,61.18146299529477,
neutral,neutral,1,k,k,,,,,,,,,10,16,196,1,,,,,,,,,main,2,2,1,neutral,neutral,k,k,1,0.6649728000047617,584.4402297999986,585.4405287000045,585.4405287000045,None,584.4402297999986,None,584.4402297999986,None,584.4402297999986,None,586.1068217600041,None,586.1068217600041,None,586.1068217600041,None,,,,,,,,,,,,,015,2022-05-12_10h33.53.725,Main,2022.1.1,61.18146299529477,
negative,neutral,1,j,l,,,,,,,,,10,17,197,3,,,,,,,,,main,1,1,1,neutral,negative,l,l,1,1.0655851999981678,586.1127072000018,587.1238764000009,587.1072157000017,None,586.1127072000018,None,586.1127072000018,None,586.1127072000018,None,588.173818260002,None,588.173818260002,None,588.173818260002,None,,,,,,,,,,,,,015,2022-05-12_10h33.53.725,Main,2022.1.1,61.18146299529477,
neutral,neutral,2,k,k,,,,,,,,,11,0,198,10,,,,,,,,,main,2,2,2,neutral,neutral,k,k,1,0.5982022999960463,588.1778023000006,589.1927713000041,589.1738518999991,None,588.1778023000006,None,588.1778023000006,None,588.1778023000006,None,589.7737342600012,None,589.7737342600012,None,589.7737342600012,None,,,,,,,,,,,,,015,2022-05-12_10h33.53.725,Main,2022.1.1,61.18146299529477,
neutral,negative,2,k,k,,,,,,,,,11,1,199,16,,,,,,,,,main,2,2,2,negative,neutral,k,k,1,0.6152368999973987,589.7778355999981,590.7926370999994,590.7760825000005,None,589.7778355999981,None,589.7778355999981,None,589.7778355999981,None,591.3903680600051,None,591.3903680600051,None,591.3903680600051,None,,,,,,,,,,,,,015,2022-05-12_10h33.53.725,Main,2022.1.1,61.18146299529477,
neutral,positive,1,k,k,,,,,,,,,11,2,200,4,,,,,,,,,main,1,1,1,positive,neutral,k,k,1,0.6485692999995081,591.3940453000032,592.4093839999987,592.3928110000052,None,591.3940453000032,None,591.3940453000032,None,591.3940453000032,None,593.0403943600031,None,593.0403943600031,None,593.0403943600031,None,,,,,,,,,,,,,015,2022-05-12_10h33.53.725,Main,2022.1.1,61.18146299529477,
negative,positive,2,j,l,,,,,,,,,11,3,201,15,,,,,,,,,main,1,1,2,positive,negative,l,l,1,0.8978816000017105,593.0440864000047,594.0570156000031,594.040273999999,None,593.0440864000047,None,593.0440864000047,None,593.0440864000047,None,594.9399284600004,None,594.9399284600004,None,594.9399284600004,None,,,,,,,,,,,,,015,2022-05-12_10h33.53.725,Main,2022.1.1,61.18146299529477,
positive,positive,2,l,j,,,,,,,,,11,4,202,11,,,,,,,,,main,1,1,2,positive,positive,j,j,1,0.7483875999969314,594.9402756999989,595.9400232000044,595.9400232000044,None,594.9402756999989,None,594.9402756999989,None,594.9402756999989,None,596.689940960001,None,596.689940960001,None,596.689940960001,None,,,,,,,,,,,,,015,2022-05-12_10h33.53.725,Main,2022.1.1,61.18146299529477,
positive,negative,1,l,j,,,,,,,,,11,5,203,5,,,,,,,,,main,1,1,1,negative,positive,j,l,0,1.1649371999956202,596.6941229000004,597.7092889999985,597.6927510000023,None,596.6941229000004,None,596.6941229000004,None,596.6941229000004,None,598.8569925000047,None,598.8569925000047,None,598.8569925000047,None,,,,,,,,,,,,,015,2022-05-12_10h33.53.725,Main,2022.1.1,61.18146299529477,
neutral,neutral,1,k,k,,,,,,,,,11,6,204,1,,,,,,,,,main,1,1,1,neutral,neutral,k,k,1,0.8675108999959775,599.8582563000018,600.8591840000008,600.842611,None,599.8582563000018,None,599.8582563000018,None,599.8582563000018,None,601.7234851600006,None,601.7234851600006,None,601.7234851600006,None,,,,,,,,,,,,,015,2022-05-12_10h33.53.725,Main,2022.1.1,61.18146299529477,
positive,neutral,1,l,j,,,,,,,,,11,7,205,8,,,,,,,,,main,2,2,1,neutral,positive,j,j,1,0.9482646000033128,601.727332399998,602.7406655000013,602.7258765000006,None,601.727332399998,None,601.727332399998,None,601.727332399998,None,603.6734573600042,None,603.6734573600042,None,603.6734573600042,None,,,,,,,,,,,,,015,2022-05-12_10h33.53.725,Main,2022.1.1,61.18146299529477,
positive,neutral,2,l,j,,,,,,,,,11,8,206,17,,,,,,,,,main,1,1,2,neutral,positive,j,j,1,0.7155573999989429,603.6792894000027,604.6898883000031,604.6732231999995,None,603.6792894000027,None,603.6792894000027,None,603.6792894000027,None,605.3897025600018,None,605.3897025600018,None,605.3897025600018,None,,,,,,,,,,,,,015,2022-05-12_10h33.53.725,Main,2022.1.1,61.18146299529477,
negative,neutral,2,j,l,,,,,,,,,11,9,207,12,,,,,,,,,main,2,2,2,neutral,negative,l,l,1,0.8147435999999288,605.3904416000005,606.3898346999995,606.3898346999995,None,605.3904416000005,None,605.3904416000005,None,605.3904416000005,None,607.2067093599981,None,607.2067093599981,None,607.2067093599981,None,,,,,,,,,,,,,015,2022-05-12_10h33.53.725,Main,2022.1.1,61.18146299529477,
positive,positive,1,l,j,,,,,,,,,11,10,208,2,,,,,,,,,main,1,1,1,positive,positive,j,j,1,0.9484974000006332,607.2103633000006,608.2234398,608.2090596999988,None,607.2103633000006,None,607.2103633000006,None,607.2103633000006,None,609.1566729600017,None,609.1566729600017,None,609.1566729600017,None,,,,,,,,,,,,,015,2022-05-12_10h33.53.725,Main,2022.1.1,61.18146299529477,
negative,negative,2,j,l,,,,,,,,,11,11,209,9,,,,,,,,,main,1,1,2,negative,negative,l,l,1,0.8649270999958389,609.1602108000006,610.1734208999987,610.159087699998,None,609.1602108000006,None,609.1602108000006,None,609.1602108000006,None,611.0233145599996,None,611.0233145599996,None,611.0233145599996,None,,,,,,,,,,,,,015,2022-05-12_10h33.53.725,Main,2022.1.1,61.18146299529477,
negative,neutral,1,j,l,,,,,,,,,11,12,210,3,,,,,,,,,main,1,1,1,neutral,negative,l,l,1,1.0987626000060118,611.0263160000031,612.0256259000016,612.0256259000016,None,611.0263160000031,None,611.0263160000031,None,611.0263160000031,None,613.1232714600046,None,613.1232714600046,None,613.1232714600046,None,,,,,,,,,,,,,015,2022-05-12_10h33.53.725,Main,2022.1.1,61.18146299529477,
positive,negative,2,l,j,,,,,,,,,11,13,211,14,,,,,,,,,main,2,2,2,negative,positive,j,j,1,0.7645047999976669,613.1271244000018,614.138896299999,614.1229194000043,None,613.1271244000018,None,613.1271244000018,None,613.1271244000018,None,614.8895370600003,None,614.8895370600003,None,614.8895370600003,None,,,,,,,,,,,,,015,2022-05-12_10h33.53.725,Main,2022.1.1,61.18146299529477,
negative,negative,1,j,l,,,,,,,,,11,14,212,0,,,,,,,,,main,2,2,1,negative,negative,l,l,1,1.2488072999985889,614.8896223999982,615.8899103000003,615.8899103000003,None,614.8896223999982,None,614.8896223999982,None,614.8896223999982,None,617.1395337600043,None,617.1395337600043,None,617.1395337600043,None,,,,,,,,,,,,,015,2022-05-12_10h33.53.725,Main,2022.1.1,61.18146299529477,
neutral,positive,2,k,k,,,,,,,,,11,15,213,13,,,,,,,,,main,2,2,2,positive,neutral,k,k,1,0.9319404999987455,617.143556300005,618.1588593999986,618.1399449000019,None,617.143556300005,None,617.143556300005,None,617.143556300005,None,619.0731405600018,None,619.0731405600018,None,619.0731405600018,None,,,,,,,,,,,,,015,2022-05-12_10h33.53.725,Main,2022.1.1,61.18146299529477,
negative,positive,1,j,l,,,,,,,,,11,16,214,6,,,,,,,,,main,1,1,1,positive,negative,l,l,1,1.0152209999941988,619.0768440000029,620.0899056999988,620.0732340000031,None,619.0768440000029,None,619.0768440000029,None,619.0768440000029,None,621.0895162599991,None,621.0895162599991,None,621.0895162599991,None,,,,,,,,,,,,,015,2022-05-12_10h33.53.725,Main,2022.1.1,61.18146299529477,
neutral,negative,1,k,k,,,,,,,,,11,17,215,7,,,,,,,,,main,2,2,1,negative,neutral,k,k,1,1.0853669999996782,621.0966455000016,622.1087698999982,622.0921194000039,None,621.0966455000016,None,621.0966455000016,None,621.0966455000016,None,623.1768578600022,None,623.1768578600022,None,623.1768578600022,None,,,,,,,,,,,,,015,2022-05-12_10h33.53.725,Main,2022.1.1,61.18146299529477,
positive,neutral,1,l,j,,,,,,,,,12,0,216,8,,,,,,,,,main,1,1,1,neutral,positive,j,j,1,0.9443621000027633,623.1897606999992,624.1896283000024,624.1727786999982,None,623.1897606999992,None,623.1897606999992,None,623.1897606999992,None,625.1227061600002,None,625.1227061600002,None,625.1227061600002,None,,,,,,,,,,,,,015,2022-05-12_10h33.53.725,Main,2022.1.1,61.18146299529477,
neutral,negative,2,k,k,,,,,,,,,12,1,217,16,,,,,,,,,main,1,1,2,negative,neutral,k,k,1,0.7653256999983569,625.1261881000028,626.1420970000036,626.1230929000012,None,625.1261881000028,None,625.1261881000028,None,625.1261881000028,None,626.8896470600012,None,626.8896470600012,None,626.8896470600012,None,,,,,,,,,,,,,015,2022-05-12_10h33.53.725,Main,2022.1.1,61.18146299529477,
negative,negative,2,j,l,,,,,,,,,12,2,218,9,,,,,,,,,main,1,1,2,negative,negative,l,l,1,1.031867500001681,626.8930964000028,627.9087170999992,627.892047100002,None,626.8930964000028,None,626.8930964000028,None,626.8930964000028,None,628.9229872600044,None,628.9229872600044,None,628.9229872600044,None,,,,,,,,,,,,,015,2022-05-12_10h33.53.725,Main,2022.1.1,61.18146299529477,
negative,neutral,1,j,l,,,,,,,,,12,3,219,3,,,,,,,,,main,2,2,1,neutral,negative,l,l,1,0.8651351000007708,628.9397555000032,629.9419666000031,629.9230510999987,None,628.9397555000032,None,628.9397555000032,None,628.9397555000032,None,630.7895840600031,None,630.7895840600031,None,630.7895840600031,None,,,,,,,,,,,,,015,2022-05-12_10h33.53.725,Main,2022.1.1,61.18146299529477,
negative,positive,2,j,l,,,,,,,,,12,4,220,15,,,,,,,,,main,2,2,2,positive,negative,l,l,1,0.7819187000059173,630.793448000004,631.8063288999983,631.7896664,None,630.793448000004,None,630.793448000004,None,630.793448000004,None,632.5728676600047,None,632.5728676600047,None,632.5728676600047,None,,,,,,,,,,,,,015,2022-05-12_10h33.53.725,Main,2022.1.1,61.18146299529477,
positive,positive,2,l,j,,,,,,,,,12,5,221,11,,,,,,,,,main,2,2,2,positive,positive,j,j,1,0.8811353000055533,632.5897129000004,633.5894788000005,633.5725784000024,None,632.5897129000004,None,632.5897129000004,None,632.5897129000004,None,634.4557857600012,None,634.4557857600012,None,634.4557857600012,None,,,,,,,,,,,,,015,2022-05-12_10h33.53.725,Main,2022.1.1,61.18146299529477,
neutral,negative,1,k,k,,,,,,,,,12,6,222,7,,,,,,,,,main,1,1,1,negative,neutral,k,k,1,0.7652063999994425,634.4558862000049,635.4559891000026,635.4559891000026,None,634.4558862000049,None,634.4558862000049,None,634.4558862000049,None,636.2224776600051,None,636.2224776600051,None,636.2224776600051,None,,,,,,,,,,,,,015,2022-05-12_10h33.53.725,Main,2022.1.1,61.18146299529477,
negative,negative,1,j,l,,,,,,,,,12,7,223,0,,,,,,,,,main,1,1,1,negative,negative,l,l,1,0.8034341000020504,636.2294372000033,637.2395541000005,637.2251819000012,None,636.2294372000033,None,636.2294372000033,None,636.2294372000033,None,638.0250811599981,None,638.0250811599981,None,638.0250811599981,None,,,,,,,,,,,,,015,2022-05-12_10h33.53.725,Main,2022.1.1,61.18146299529477,
negative,positive,1,j,l,,,,,,,,,12,8,224,6,,,,,,,,,main,1,1,1,positive,negative,l,l,1,0.6924085999999079,638.0325118000037,639.0417234999986,639.0228443000015,None,638.0325118000037,None,638.0325118000037,None,638.0325118000037,None,639.7227428600017,None,639.7227428600017,None,639.7227428600017,None,,,,,,,,,,,,,015,2022-05-12_10h33.53.725,Main,2022.1.1,61.18146299529477,
positive,neutral,2,l,j,,,,,,,,,12,9,225,17,,,,,,,,,main,2,2,2,neutral,positive,j,j,1,0.8148897999999463,639.7265115000046,640.7416215000048,640.7228044000003,None,639.7265115000046,None,639.7265115000046,None,639.7265115000046,None,641.5393620600007,None,641.5393620600007,None,641.5393620600007,None,,,,,,,,,,,,,015,2022-05-12_10h33.53.725,Main,2022.1.1,61.18146299529477,
