target,distractor,set,ans1,ans2,rep_loop2.thisRepN,rep_loop2.thisTrialN,rep_loop2.thisN,rep_loop2.thisIndex,flanker_prac_loop.thisRepN,flanker_prac_loop.thisTrialN,flanker_prac_loop.thisN,flanker_prac_loop.thisIndex,flanker_main_loop.thisRepN,flanker_main_loop.thisTrialN,flanker_main_loop.thisN,flanker_main_loop.thisIndex,fl_inst_resp.keys,fl_inst_resp.rt,sound_1.started,sound_1.stopped,image_4.started,image_4.stopped,back_2.started,back_2.stopped,main_prac,fl_cold,fl_colt,fl_set,fl_dcond,fl_tcond,fl_ans,fl_res,fl_corr,fl_rt,fix_fl.started,fix_fl.stopped,targ.started,targ.stopped,j_button.started,j_button.stopped,k_button.started,k_button.stopped,l_button.started,l_button.stopped,j_button2.started,j_button2.stopped,k_button2.started,k_button2.stopped,l_button2.started,l_button2.stopped,mainback.started,mainback.stopped,key_resp.keys,mouse_6.x,mouse_6.y,mouse_6.leftButton,mouse_6.midButton,mouse_6.rightButton,mouse_6.started,mouse_6.stopped,text_2.started,text_2.stopped,id*,date,expName,psychopyVersion,frameRate,
,,,,,0,0,0,0,,,,,,,,,space,69.13286830000288,19.24667094999968,None,88.4141235000061,None,,,,,,,,,,,,,,,,,,,,,,,,,,,,,,,,,,,,,,,,,016,2022-05-12_13h23.56.865,Main,2022.1.1,61.42675933903633,
negative,negative,2,j,l,,,,,0,0,0,9,,,,,,,,,,,92.2616249000057,None,prac,2,2,2,negative,negative,j,j,1,1.9797267999965698,94.28414640000119,95.2974841000032,95.27873830000317,None,94.28414640000119,None,94.28414640000119,None,94.28414640000119,None,97.26303890000418,None,97.26303890000418,None,97.26303890000418,None,,,,,,,,,,,,,016,2022-05-12_13h23.56.865,Main,2022.1.1,61.42675933903633,
neutral,neutral,1,k,k,,,,,0,1,1,1,,,,,,,,,,,,,prac,1,1,1,neutral,neutral,k,k,1,1.0532257999948342,98.26298430000315,99.28061330000492,99.24504450000677,None,98.26298430000315,None,98.26298430000315,None,98.26298430000315,None,100.31391614999957,None,100.31391614999957,None,100.31391614999957,None,,,,,,,,,,,,,016,2022-05-12_13h23.56.865,Main,2022.1.1,61.42675933903633,
negative,positive,1,j,l,,,,,0,2,2,6,,,,,,,,,,,,,prac,1,1,1,positive,negative,j,j,1,1.2126933000035933,100.31740290000016,101.32879640000465,101.3118295000022,None,100.31740290000016,None,100.31740290000016,None,100.31740290000016,None,102.52830365000337,None,102.52830365000337,None,102.52830365000337,None,,,,,,,,,,,,,016,2022-05-12_13h23.56.865,Main,2022.1.1,61.42675933903633,
neutral,negative,1,k,k,,,,,0,3,3,7,,,,,,,,,,,,,prac,2,2,1,negative,neutral,k,k,1,0.7985447000028216,102.52826579999964,103.52823750000243,103.52823750000243,None,102.52826579999964,None,102.52826579999964,None,102.52826579999964,None,104.32816935000228,None,104.32816935000228,None,104.32816935000228,None,,,,,,,,,,,,,016,2022-05-12_13h23.56.865,Main,2022.1.1,61.42675933903633,
positive,neutral,1,l,j,,,,,0,4,4,8,,,,,,,,,,,,,prac,2,2,1,neutral,positive,l,l,1,0.7487830000027316,104.32844360000308,105.32817320000322,105.32817320000322,None,104.32844360000308,None,104.32844360000308,None,104.32844360000308,None,106.07824805000492,None,106.07824805000492,None,106.07824805000492,None,,,,,,,,,,,,,016,2022-05-12_13h23.56.865,Main,2022.1.1,61.42675933903633,
positive,negative,2,l,j,,,,,0,5,5,14,,,,,,,,,,,,,prac,2,2,2,negative,positive,l,l,1,0.7318701000040164,106.08449610000389,107.09709880000446,107.08047140000417,None,106.08449610000389,None,106.08449610000389,None,106.08449610000389,None,107.8115397499998,None,107.8115397499998,None,107.8115397499998,None,,,,,,,,,,,,,016,2022-05-12_13h23.56.865,Main,2022.1.1,61.42675933903633,
positive,positive,2,l,j,,,,,0,6,6,11,,,,,,,,,,,,,prac,2,2,2,positive,positive,l,l,1,0.6487243000010494,107.81769230000646,108.83034000000043,108.81381520000286,None,107.81769230000646,None,107.81769230000646,None,107.81769230000646,None,109.46147095000124,None,109.46147095000124,None,109.46147095000124,None,,,,,,,,,,,,,016,2022-05-12_13h23.56.865,Main,2022.1.1,61.42675933903633,
positive,negative,1,l,j,,,,,0,7,7,5,,,,,,,,,,,,,prac,2,2,1,negative,positive,l,k,0,0.8496970000051078,109.46689710000646,110.48037440000189,110.44707170000038,None,109.46689710000646,None,109.46689710000646,None,109.46689710000646,None,111.31146060000174,None,111.31146060000174,None,111.31146060000174,None,,,,,,,,,,,,,016,2022-05-12_13h23.56.865,Main,2022.1.1,61.42675933903633,
positive,positive,1,l,j,,,,,0,8,8,2,,,,,,,,,,,,,prac,1,1,1,positive,positive,l,l,1,0.8702685999960522,112.31433900000411,113.31161310000607,113.29703610000433,None,112.31433900000411,None,112.31433900000411,None,112.31433900000411,None,114.17813175000556,None,114.17813175000556,None,114.17813175000556,None,,,,,,,,,,,,,016,2022-05-12_13h23.56.865,Main,2022.1.1,61.42675933903633,
neutral,positive,1,k,k,,,,,0,9,9,4,,,,,,,,,,,,,prac,1,1,1,positive,neutral,k,k,1,0.785050799997407,114.18372459999955,115.19435280000471,115.17767920000188,None,114.18372459999955,None,114.18372459999955,None,114.18372459999955,None,115.96100325000516,None,115.96100325000516,None,115.96100325000516,None,,,,,,,,,,,,,016,2022-05-12_13h23.56.865,Main,2022.1.1,61.42675933903633,
negative,neutral,2,j,l,,,,,0,10,10,12,,,,,,,,,,,,,prac,2,2,2,neutral,negative,j,j,1,0.8601565999997547,115.97253869999986,116.97766840000259,116.96101210000052,None,115.97253869999986,None,115.97253869999986,None,115.97253869999986,None,117.82800625000455,None,117.82800625000455,None,117.82800625000455,None,,,,,,,,,,,,,016,2022-05-12_13h23.56.865,Main,2022.1.1,61.42675933903633,
positive,neutral,2,l,j,,,,,0,11,11,17,,,,,,,,,,,,,prac,2,2,2,neutral,positive,l,l,1,0.9652148000022862,117.83414100000664,118.8468667000052,118.83032900000399,None,117.83414100000664,None,117.83414100000664,None,117.83414100000664,None,119.79459555000285,None,119.79459555000285,None,119.79459555000285,None,,,,,,,,,,,,,016,2022-05-12_13h23.56.865,Main,2022.1.1,61.42675933903633,
negative,neutral,1,j,l,,,,,0,12,12,3,,,,,,,,,,,,,prac,2,2,1,neutral,negative,j,l,0,1.09843009999895,119.80026999999973,120.81151390000014,120.79691360000288,None,119.80026999999973,None,119.80026999999973,None,119.80026999999973,None,121.89459400000487,None,121.89459400000487,None,121.89459400000487,None,,,,,,,,,,,,,016,2022-05-12_13h23.56.865,Main,2022.1.1,61.42675933903633,
negative,negative,1,j,l,,,,,0,13,13,0,,,,,,,,,,,,,prac,1,1,1,negative,negative,j,j,1,1.21729310000228,122.8955569000027,123.90751020000607,123.88522130000638,None,122.8955569000027,None,122.8955569000027,None,122.8955569000027,None,125.11082085000017,None,125.11082085000017,None,125.11082085000017,None,,,,,,,,,,,,,016,2022-05-12_13h23.56.865,Main,2022.1.1,61.42675933903633,
neutral,positive,2,k,k,,,,,0,14,14,13,,,,,,,,,,,,,prac,2,2,2,positive,neutral,k,k,1,0.8657119000054081,125.11230710000382,126.12750620000588,126.11083290000533,None,125.11230710000382,None,125.11230710000382,None,125.11230710000382,None,126.97780495000116,None,126.97780495000116,None,126.97780495000116,None,,,,,,,,,,,,,016,2022-05-12_13h23.56.865,Main,2022.1.1,61.42675933903633,
neutral,neutral,2,k,k,,,,,0,15,15,10,,,,,,,,,,,,,prac,1,1,2,neutral,neutral,k,k,1,0.7150620999964303,126.98364050000237,127.99446000000171,127.97996120000607,None,126.98364050000237,None,126.98364050000237,None,126.98364050000237,None,128.69442895000174,None,128.69442895000174,None,128.69442895000174,None,,,,,,,,,,,,,016,2022-05-12_13h23.56.865,Main,2022.1.1,61.42675933903633,
negative,positive,2,j,l,,,,,0,16,16,15,,,,,,,,,,,,,prac,2,2,2,positive,negative,j,j,1,0.7655113999935566,128.69989329999953,129.7132335999995,129.6966476000016,None,128.69989329999953,None,128.69989329999953,None,128.69989329999953,None,130.46107125000634,None,130.46107125000634,None,130.46107125000634,None,,,,,,,,,,,,,016,2022-05-12_13h23.56.865,Main,2022.1.1,61.42675933903633,
neutral,negative,2,k,k,,,,,0,17,17,16,,,,,,,,,,,,,prac,1,1,2,negative,neutral,k,k,1,0.8482671000019764,130.46455530000094,131.47992420000082,131.46335200000613,None,130.46455530000094,None,130.46455530000094,None,130.46455530000094,None,132.31100035000344,None,132.31100035000344,None,132.31100035000344,None,,,,,,,,,,,,,016,2022-05-12_13h23.56.865,Main,2022.1.1,61.42675933903633,
negative,negative,1,j,l,,,,,1,0,18,0,,,,,,,,,,,,,prac,1,1,1,negative,negative,j,j,1,0.864805899997009,132.31693410000298,133.32985449999978,133.3132912000001,None,132.31693410000298,None,132.31693410000298,None,132.31693410000298,None,134.1777300500027,None,134.1777300500027,None,134.1777300500027,None,,,,,,,,,,,,,016,2022-05-12_13h23.56.865,Main,2022.1.1,61.42675933903633,
positive,neutral,1,l,j,,,,,1,1,19,8,,,,,,,,,,,,,prac,1,1,1,neutral,positive,l,l,1,0.9022875999944517,134.18263310000475,135.19395030000305,135.17727320000267,None,134.18263310000475,None,134.18263310000475,None,134.18263310000475,None,136.07724575000537,None,136.07724575000537,None,136.07724575000537,None,,,,,,,,,,,,,016,2022-05-12_13h23.56.865,Main,2022.1.1,61.42675933903633,
positive,negative,2,l,j,,,,,1,2,20,14,,,,,,,,,,,,,prac,2,2,2,negative,positive,l,l,1,0.8443650999979582,136.0859083000032,137.0939326000007,137.07726510000066,None,136.0859083000032,None,136.0859083000032,None,136.0859083000032,None,137.9272399500034,None,137.9272399500034,None,137.9272399500034,None,,,,,,,,,,,,,016,2022-05-12_13h23.56.865,Main,2022.1.1,61.42675933903633,
negative,neutral,2,j,l,,,,,1,3,21,12,,,,,,,,,,,,,prac,1,1,2,neutral,negative,j,j,1,0.982330600003479,137.9272517000063,138.92724640000233,138.92724640000233,None,137.9272517000063,None,137.9272517000063,None,137.9272517000063,None,139.91089835000383,None,139.91089835000383,None,139.91089835000383,None,,,,,,,,,,,,,016,2022-05-12_13h23.56.865,Main,2022.1.1,61.42675933903633,
negative,neutral,1,j,l,,,,,1,4,22,3,,,,,,,,,,,,,prac,1,1,1,neutral,negative,j,j,1,0.7673271000021487,139.91388510000252,140.91112330000033,140.89651450000383,None,139.91388510000252,None,139.91388510000252,None,139.91388510000252,None,141.67974335000252,None,141.67974335000252,None,141.67974335000252,None,,,,,,,,,,,,,016,2022-05-12_13h23.56.865,Main,2022.1.1,61.42675933903633,
positive,negative,1,l,j,,,,,1,5,23,5,,,,,,,,,,,,,prac,1,1,1,negative,positive,l,l,1,0.8969553999995696,141.68178440000338,142.6963864999998,142.67776779999986,None,141.68178440000338,None,141.68178440000338,None,141.68178440000338,None,143.57772005000078,None,143.57772005000078,None,143.57772005000078,None,,,,,,,,,,,,,016,2022-05-12_13h23.56.865,Main,2022.1.1,61.42675933903633,
neutral,positive,2,k,k,,,,,1,6,24,13,,,,,,,,,,,,,prac,1,1,2,positive,neutral,k,k,1,0.7317815999995219,143.58359080000082,144.5963339000009,144.57981310000469,None,143.58359080000082,None,143.58359080000082,None,143.58359080000082,None,145.31076585000045,None,145.31076585000045,None,145.31076585000045,None,,,,,,,,,,,,,016,2022-05-12_13h23.56.865,Main,2022.1.1,61.42675933903633,
neutral,negative,2,k,k,,,,,1,7,25,16,,,,,,,,,,,,,prac,2,2,2,negative,neutral,k,k,1,0.8821435999998357,145.3189135000066,146.329685100005,146.31304730000556,None,145.3189135000066,None,145.3189135000066,None,145.3189135000066,None,147.19370615000588,None,147.19370615000588,None,147.19370615000588,None,,,,,,,,,,,,,016,2022-05-12_13h23.56.865,Main,2022.1.1,61.42675933903633,
neutral,neutral,2,k,k,,,,,1,8,26,10,,,,,,,,,,,,,prac,2,2,2,neutral,neutral,k,k,1,0.6812843000006978,147.19392250000237,148.193697900002,148.193697900002,None,147.19392250000237,None,147.19392250000237,None,147.19392250000237,None,148.87700075000538,None,148.87700075000538,None,148.87700075000538,None,,,,,,,,,,,,,016,2022-05-12_13h23.56.865,Main,2022.1.1,61.42675933903633,
neutral,negative,1,k,k,,,,,1,9,27,7,,,,,,,,,,,,,prac,2,2,1,negative,neutral,k,k,1,0.7195701000018744,148.87815090000367,149.89370380000037,149.8772511000061,None,148.87815090000367,None,148.87815090000367,None,148.87815090000367,None,150.59401065000492,None,150.59401065000492,None,150.59401065000492,None,,,,,,,,,,,,,016,2022-05-12_13h23.56.865,Main,2022.1.1,61.42675933903633,
negative,negative,2,j,l,,,,,1,10,28,9,,,,,,,,,,,,,prac,1,1,2,negative,negative,j,j,1,0.7463511000023573,150.60666550000315,151.61293070000102,151.59632070000225,None,150.60666550000315,None,150.60666550000315,None,150.60666550000315,None,152.3462968500018,None,152.3462968500018,None,152.3462968500018,None,,,,,,,,,,,,,016,2022-05-12_13h23.56.865,Main,2022.1.1,61.42675933903633,
positive,positive,1,l,j,,,,,1,11,29,2,,,,,,,,,,,,,prac,1,1,1,positive,positive,l,l,1,0.8624192999996012,152.34975040000427,153.3630370000028,153.3463136000064,None,152.34975040000427,None,152.34975040000427,None,152.34975040000427,None,154.21059535000603,None,154.21059535000603,None,154.21059535000603,None,,,,,,,,,,,,,016,2022-05-12_13h23.56.865,Main,2022.1.1,61.42675933903633,
negative,positive,2,j,l,,,,,1,12,30,15,,,,,,,,,,,,,prac,1,1,2,positive,negative,j,j,1,0.915153800000553,154.2138821000044,155.22954740000569,155.21093090000068,None,154.2138821000044,None,154.2138821000044,None,154.2138821000044,None,156.12716385000311,None,156.12716385000311,None,156.12716385000311,None,,,,,,,,,,,,,016,2022-05-12_13h23.56.865,Main,2022.1.1,61.42675933903633,
neutral,positive,1,k,k,,,,,1,13,31,4,,,,,,,,,,,,,prac,1,1,1,positive,neutral,k,k,1,0.7321883999975398,156.13339760000235,157.14608370000497,157.11286250000558,None,156.13339760000235,None,156.13339760000235,None,156.13339760000235,None,157.86048444999977,None,157.86048444999977,None,157.86048444999977,None,,,,,,,,,,,,,016,2022-05-12_13h23.56.865,Main,2022.1.1,61.42675933903633,
positive,neutral,2,l,j,,,,,1,14,32,17,,,,,,,,,,,,,prac,2,2,2,neutral,positive,l,l,1,0.881605499998841,157.86623030000192,158.87935040000593,158.8627900000065,None,157.86623030000192,None,157.86623030000192,None,157.86623030000192,None,159.74343275000064,None,159.74343275000064,None,159.74343275000064,None,,,,,,,,,,,,,016,2022-05-12_13h23.56.865,Main,2022.1.1,61.42675933903633,
negative,positive,1,j,l,,,,,1,15,33,6,,,,,,,,,,,,,prac,2,2,1,positive,negative,j,j,1,0.7829807999951299,159.74479540000175,160.7600992000007,160.74341930000082,None,159.74479540000175,None,159.74479540000175,None,159.74479540000175,None,161.52677485000385,None,161.52677485000385,None,161.52677485000385,None,,,,,,,,,,,,,016,2022-05-12_13h23.56.865,Main,2022.1.1,61.42675933903633,
neutral,neutral,1,k,k,,,,,1,16,34,1,,,,,,,,,,,,,prac,1,1,1,neutral,neutral,k,k,1,0.6642460000002757,161.5279714999997,162.54344500000298,162.52677240000048,None,161.5279714999997,None,161.5279714999997,None,161.5279714999997,None,163.19366614999961,None,163.19366614999961,None,163.19366614999961,None,,,,,,,,,,,,,016,2022-05-12_13h23.56.865,Main,2022.1.1,61.42675933903633,
positive,positive,2,l,j,,,,,1,17,35,11,,,,,,,,,,,,,prac,1,1,2,positive,positive,l,l,1,0.7320047999965027,163.19941090000066,164.21275040000182,164.19604830000026,None,163.19941090000066,None,163.19941090000066,None,163.19941090000066,None,164.92679635000167,None,164.92679635000167,None,164.92679635000167,None,,,,,,,,,,,,,016,2022-05-12_13h23.56.865,Main,2022.1.1,61.42675933903633,
,,,,,,,,,,,,,,,,,,,,,,,,,,,,,,,,,,,,,,,,,,,,,,,,,,,164.92742550000548,None,None,,,,,,,,,,016,2022-05-12_13h23.56.865,Main,2022.1.1,61.42675933903633,
,,,,,,,,,,,,,,,,,,,,,,,,,,,,,,,,,,,,,,,,,,,,,,,,,,,,,,0.03888889,-0.044444446,1,0,0,0.011159349996887613,None,,,016,2022-05-12_13h23.56.865,Main,2022.1.1,61.42675933903633,
neutral,positive,1,k,k,,,,,,,,,0,0,0,4,,,,,,,177.3290363000051,None,main,1,1,1,positive,neutral,k,k,1,0.9106102000005194,179.33435390000523,180.34561720000056,180.3290530000013,None,179.33435390000523,None,179.33435390000523,None,179.33435390000523,None,181.24336555000554,None,181.24336555000554,None,181.24336555000554,None,,,,,,,,,,,,,016,2022-05-12_13h23.56.865,Main,2022.1.1,61.42675933903633,
negative,negative,2,j,l,,,,,,,,,0,1,1,9,,,,,,,,,main,2,2,2,negative,negative,j,l,0,0.7479384999969625,181.24824730000546,182.26221760000044,182.24569590000465,None,181.24824730000546,None,181.24824730000546,None,181.24824730000546,None,182.9933990999998,None,182.9933990999998,None,182.9933990999998,None,,,,,,,,,,,,,016,2022-05-12_13h23.56.865,Main,2022.1.1,61.42675933903633,
negative,negative,1,j,l,,,,,,,,,0,2,2,0,,,,,,,,,main,1,1,1,negative,negative,j,j,1,0.8699531000020215,183.99299489999976,184.99291660000017,184.97626730000047,None,183.99299489999976,None,183.99299489999976,None,183.99299489999976,None,185.85962665000187,None,185.85962665000187,None,185.85962665000187,None,,,,,,,,,,,,,016,2022-05-12_13h23.56.865,Main,2022.1.1,61.42675933903633,
neutral,neutral,1,k,k,,,,,,,,,0,3,3,1,,,,,,,,,main,2,2,1,neutral,neutral,k,k,1,0.7648792999971192,185.86546700000326,186.87881030000426,186.86219290000008,None,185.86546700000326,None,185.86546700000326,None,185.86546700000326,None,187.62654825000135,None,187.62654825000135,None,187.62654825000135,None,,,,,,,,,,,,,016,2022-05-12_13h23.56.865,Main,2022.1.1,61.42675933903633,
negative,neutral,1,j,l,,,,,,,,,0,4,4,3,,,,,,,,,main,2,2,1,neutral,negative,j,j,1,0.998318099998869,187.63155130000087,188.6454578000048,188.6121207000033,None,187.63155130000087,None,187.63155130000087,None,187.63155130000087,None,189.62650775000583,None,189.62650775000583,None,189.62650775000583,None,,,,,,,,,,,,,016,2022-05-12_13h23.56.865,Main,2022.1.1,61.42675933903633,
positive,negative,1,l,j,,,,,,,,,0,5,5,5,,,,,,,,,main,2,2,1,negative,positive,l,l,1,0.7662660999994841,189.63269180000498,190.64540310000302,190.61207980000472,None,189.63269180000498,None,189.63269180000498,None,189.63269180000498,None,191.3932359500024,None,191.3932359500024,None,191.3932359500024,None,,,,,,,,,,,,,016,2022-05-12_13h23.56.865,Main,2022.1.1,61.42675933903633,
neutral,positive,2,k,k,,,,,,,,,0,6,6,13,,,,,,,,,main,1,1,2,positive,neutral,k,k,1,0.747552300003008,191.39965810000285,192.41199860000052,192.39548330000252,None,191.39965810000285,None,191.39965810000285,None,191.39965810000285,None,193.1430919500046,None,193.1430919500046,None,193.1430919500046,None,,,,,,,,,,,,,016,2022-05-12_13h23.56.865,Main,2022.1.1,61.42675933903633,
neutral,negative,1,k,k,,,,,,,,,0,7,7,7,,,,,,,,,main,1,1,1,negative,neutral,k,k,1,0.7157611000002362,193.1462601000021,194.15900770000007,194.14177310000377,None,193.1462601000021,None,193.1462601000021,None,193.1462601000021,None,194.8593726500032,None,194.8593726500032,None,194.8593726500032,None,,,,,,,,,,,,,016,2022-05-12_13h23.56.865,Main,2022.1.1,61.42675933903633,
neutral,neutral,2,k,k,,,,,,,,,0,8,8,10,,,,,,,,,main,2,2,2,neutral,neutral,k,k,1,0.7140807999967365,194.86098130000028,195.87604610000562,195.85938680000254,None,194.86098130000028,None,194.86098130000028,None,194.86098130000028,None,196.57606525000227,None,196.57606525000227,None,196.57606525000227,None,,,,,,,,,,,,,016,2022-05-12_13h23.56.865,Main,2022.1.1,61.42675933903633,
positive,neutral,2,l,j,,,,,,,,,0,9,9,17,,,,,,,,,main,1,1,2,neutral,positive,l,l,1,0.7813370000003488,196.5801258000065,197.59525010000652,197.57863740000175,None,196.5801258000065,None,196.5801258000065,None,196.5801258000065,None,198.35967615000044,None,198.35967615000044,None,198.35967615000044,None,,,,,,,,,,,,,016,2022-05-12_13h23.56.865,Main,2022.1.1,61.42675933903633,
positive,neutral,1,l,j,,,,,,,,,0,10,10,8,,,,,,,,,main,1,1,1,neutral,positive,l,l,1,0.6814933999994537,198.36312700000417,199.37857179999992,199.36199570000463,None,198.36312700000417,None,198.36312700000417,None,198.36312700000417,None,200.04294185000543,None,200.04294185000543,None,200.04294185000543,None,,,,,,,,,,,,,016,2022-05-12_13h23.56.865,Main,2022.1.1,61.42675933903633,
positive,positive,1,l,j,,,,,,,,,0,11,11,2,,,,,,,,,main,2,2,1,positive,positive,l,l,1,0.697638999998162,200.04936550000275,201.06180630000017,201.04519950000395,None,200.04936550000275,None,200.04936550000275,None,200.04936550000275,None,201.74295945000557,None,201.74295945000557,None,201.74295945000557,None,,,,,,,,,,,,,016,2022-05-12_13h23.56.865,Main,2022.1.1,61.42675933903633,
positive,positive,2,l,j,,,,,,,,,0,12,12,11,,,,,,,,,main,2,2,2,positive,positive,l,l,1,0.6984396000043489,201.74701440000354,202.760045300005,202.74529790000088,None,201.74701440000354,None,201.74701440000354,None,201.74701440000354,None,203.44288515000443,None,203.44288515000443,None,203.44288515000443,None,,,,,,,,,,,,,016,2022-05-12_13h23.56.865,Main,2022.1.1,61.42675933903633,
neutral,negative,2,k,k,,,,,,,,,0,13,13,16,,,,,,,,,main,2,2,2,negative,neutral,k,k,1,0.7637532999942778,203.44664600000397,204.45891770000162,204.44225420000294,None,203.44664600000397,None,203.44664600000397,None,203.44664600000397,None,205.2091929500013,None,205.2091929500013,None,205.2091929500013,None,,,,,,,,,,,,,016,2022-05-12_13h23.56.865,Main,2022.1.1,61.42675933903633,
negative,positive,2,j,l,,,,,,,,,0,14,14,15,,,,,,,,,main,1,1,2,positive,negative,j,l,0,0.9812538000041968,205.21073950000573,206.22607780000544,206.20917190000182,None,205.21073950000573,None,205.21073950000573,None,205.21073950000573,None,207.19253500000195,None,207.19253500000195,None,207.19253500000195,None,,,,,,,,,,,,,016,2022-05-12_13h23.56.865,Main,2022.1.1,61.42675933903633,
positive,negative,2,l,j,,,,,,,,,0,15,15,14,,,,,,,,,main,2,2,2,negative,positive,l,l,1,0.7912759999962873,208.19730770000024,209.21171610000602,209.17845769999985,None,208.19730770000024,None,208.19730770000024,None,208.19730770000024,None,209.98098565000618,None,209.98098565000618,None,209.98098565000618,None,,,,,,,,,,,,,016,2022-05-12_13h23.56.865,Main,2022.1.1,61.42675933903633,
negative,neutral,2,j,l,,,,,,,,,0,16,16,12,,,,,,,,,main,2,2,2,neutral,negative,j,j,1,0.909705700003542,209.9845276000051,210.99498000000312,210.9784251000019,None,209.9845276000051,None,209.9845276000051,None,209.9845276000051,None,211.89272985000497,None,211.89272985000497,None,211.89272985000497,None,,,,,,,,,,,,,016,2022-05-12_13h23.56.865,Main,2022.1.1,61.42675933903633,
negative,positive,1,j,l,,,,,,,,,0,17,17,6,,,,,,,,,main,2,2,1,positive,negative,j,j,1,0.6974408999958541,211.89907640000456,212.91160600000148,212.89498640000238,None,211.89907640000456,None,211.89907640000456,None,211.89907640000456,None,213.59269055000112,None,213.59269055000112,None,213.59269055000112,None,,,,,,,,,,,,,016,2022-05-12_13h23.56.865,Main,2022.1.1,61.42675933903633,
neutral,negative,2,k,k,,,,,,,,,1,0,18,16,,,,,,,,,main,2,2,2,negative,neutral,k,k,1,0.7506886999981361,213.59658480000508,214.61150900000212,214.5783331000057,None,213.59658480000508,None,213.59658480000508,None,213.59658480000508,None,215.3449306500035,None,215.3449306500035,None,215.3449306500035,None,,,,,,,,,,,,,016,2022-05-12_13h23.56.865,Main,2022.1.1,61.42675933903633,
neutral,positive,2,k,k,,,,,,,,,1,1,19,13,,,,,,,,,main,2,2,2,positive,neutral,k,k,1,0.7458570999951917,215.34878410000238,216.35904930000106,216.34493790000124,None,215.34878410000238,None,215.34878410000238,None,215.34878410000238,None,217.09226665000386,None,217.09226665000386,None,217.09226665000386,None,,,,,,,,,,,,,016,2022-05-12_13h23.56.865,Main,2022.1.1,61.42675933903633,
positive,positive,1,l,j,,,,,,,,,1,2,20,2,,,,,,,,,main,1,1,1,positive,positive,l,l,1,0.6813572000028216,217.0930143000005,218.09225260000676,218.09225260000676,None,217.0930143000005,None,217.0930143000005,None,217.0930143000005,None,218.77581695000043,None,218.77581695000043,None,218.77581695000043,None,,,,,,,,,,,,,016,2022-05-12_13h23.56.865,Main,2022.1.1,61.42675933903633,
positive,neutral,2,l,j,,,,,,,,,1,3,21,17,,,,,,,,,main,1,1,2,neutral,positive,l,l,1,0.6813697000034153,218.77647140000045,219.77561030000652,219.77561030000652,None,218.77647140000045,None,218.77647140000045,None,218.77647140000045,None,220.45894435000008,None,220.45894435000008,None,220.45894435000008,None,,,,,,,,,,,,,016,2022-05-12_13h23.56.865,Main,2022.1.1,61.42675933903633,
negative,positive,2,j,l,,,,,,,,,1,4,22,15,,,,,,,,,main,1,1,2,positive,negative,j,j,1,0.882683800002269,220.4622018000009,221.46152350000193,221.46152350000193,None,220.4622018000009,None,220.4622018000009,None,220.4622018000009,None,222.3423076500032,None,222.3423076500032,None,222.3423076500032,None,,,,,,,,,,,,,016,2022-05-12_13h23.56.865,Main,2022.1.1,61.42675933903633,
negative,negative,2,j,l,,,,,,,,,1,5,23,9,,,,,,,,,main,1,1,2,negative,negative,j,j,1,1.199771799998416,222.35467010000139,223.36139340000227,223.34483680000267,None,222.35467010000139,None,222.35467010000139,None,222.35467010000139,None,224.54482195000236,None,224.54482195000236,None,224.54482195000236,None,,,,,,,,,,,,,016,2022-05-12_13h23.56.865,Main,2022.1.1,61.42675933903633,
neutral,neutral,1,k,k,,,,,,,,,1,6,24,1,,,,,,,,,main,2,2,1,neutral,neutral,k,k,1,0.897684699993988,224.54831070000364,225.56140860000596,225.54480049999984,None,224.54831070000364,None,224.54831070000364,None,224.54831070000364,None,226.44468225000236,None,226.44468225000236,None,226.44468225000236,None,,,,,,,,,,,,,016,2022-05-12_13h23.56.865,Main,2022.1.1,61.42675933903633,
positive,positive,2,l,j,,,,,,,,,1,7,25,11,,,,,,,,,main,2,2,2,positive,positive,l,l,1,0.7786533999969834,226.44917730000452,227.46124030000647,227.44465120000677,None,226.44917730000452,None,226.44917730000452,None,226.44917730000452,None,228.2254281500056,None,228.2254281500056,None,228.2254281500056,None,,,,,,,,,,,,,016,2022-05-12_13h23.56.865,Main,2022.1.1,61.42675933903633,
negative,negative,1,j,l,,,,,,,,,1,8,26,0,,,,,,,,,main,1,1,1,negative,negative,j,j,1,0.8645916000023135,228.2317691000062,229.24205300000176,229.2255995000014,None,228.2317691000062,None,228.2317691000062,None,228.2317691000062,None,230.0919784500067,None,230.0919784500067,None,230.0919784500067,None,,,,,,,,,,,,,016,2022-05-12_13h23.56.865,Main,2022.1.1,61.42675933903633,
negative,neutral,1,j,l,,,,,,,,,1,9,27,3,,,,,,,,,main,2,2,1,neutral,negative,j,j,1,0.7322663000013563,230.09200400000555,231.09201630000462,231.09201630000462,None,230.09200400000555,None,230.09200400000555,None,230.09200400000555,None,231.82552465000407,None,231.82552465000407,None,231.82552465000407,None,,,,,,,,,,,,,016,2022-05-12_13h23.56.865,Main,2022.1.1,61.42675933903633,
positive,negative,2,l,j,,,,,,,,,1,10,28,14,,,,,,,,,main,1,1,2,negative,positive,l,l,1,0.8840512999959174,231.82579120000446,232.82534860000305,232.82534860000305,None,231.82579120000446,None,231.82579120000446,None,231.82579120000446,None,233.71130585000282,None,233.71130585000282,None,233.71130585000282,None,,,,,,,,,,,,,016,2022-05-12_13h23.56.865,Main,2022.1.1,61.42675933903633,
neutral,neutral,2,k,k,,,,,,,,,1,11,29,10,,,,,,,,,main,2,2,2,neutral,neutral,k,k,1,0.763207500000135,233.71428820000438,234.7278151999999,234.71121790000325,None,233.71428820000438,None,233.71428820000438,None,233.71428820000438,None,235.47558815000156,None,235.47558815000156,None,235.47558815000156,None,,,,,,,,,,,,,016,2022-05-12_13h23.56.865,Main,2022.1.1,61.42675933903633,
positive,negative,1,l,j,,,,,,,,,1,12,30,5,,,,,,,,,main,1,1,1,negative,positive,l,l,1,0.7839091999994707,235.47938690000592,236.49452310000197,236.47585059999983,None,235.47938690000592,None,235.47938690000592,None,235.47938690000592,None,237.26125175000124,None,237.26125175000124,None,237.26125175000124,None,,,,,,,,,,,,,016,2022-05-12_13h23.56.865,Main,2022.1.1,61.42675933903633,
positive,neutral,1,l,j,,,,,,,,,1,13,31,8,,,,,,,,,main,2,2,1,neutral,positive,l,l,1,0.9125904999964405,237.2642862000066,238.2778232000055,238.26117060000252,None,237.2642862000066,None,237.2642862000066,None,237.2642862000066,None,239.17550465000312,None,239.17550465000312,None,239.17550465000312,None,,,,,,,,,,,,,016,2022-05-12_13h23.56.865,Main,2022.1.1,61.42675933903633,
neutral,positive,1,k,k,,,,,,,,,1,14,32,4,,,,,,,,,main,2,2,1,positive,neutral,k,k,1,0.7812972999963677,239.17907460000424,240.19179770000483,240.158457000005,None,239.17907460000424,None,239.17907460000424,None,239.17907460000424,None,240.95846265000654,None,240.95846265000654,None,240.95846265000654,None,,,,,,,,,,,,,016,2022-05-12_13h23.56.865,Main,2022.1.1,61.42675933903633,
neutral,negative,1,k,k,,,,,,,,,1,15,33,7,,,,,,,,,main,2,2,1,negative,neutral,k,k,1,0.8653506999980891,240.95879100000457,241.9585101000048,241.9585101000048,None,240.95879100000457,None,240.95879100000457,None,240.95879100000457,None,242.82546895000195,None,242.82546895000195,None,242.82546895000195,None,,,,,,,,,,,,,016,2022-05-12_13h23.56.865,Main,2022.1.1,61.42675933903633,
negative,positive,1,j,l,,,,,,,,,1,16,34,6,,,,,,,,,main,2,2,1,positive,negative,j,j,1,0.9324293000026955,242.82906870000443,243.844408200006,243.82779310000478,None,242.82906870000443,None,242.82906870000443,None,242.82906870000443,None,244.7587209500045,None,244.7587209500045,None,244.7587209500045,None,,,,,,,,,,,,,016,2022-05-12_13h23.56.865,Main,2022.1.1,61.42675933903633,
negative,neutral,2,j,l,,,,,,,,,1,17,35,12,,,,,,,,,main,2,2,2,neutral,negative,j,j,1,0.6974233999935677,244.76292320000357,245.77572730000247,245.7590584999998,None,244.76292320000357,None,244.76292320000357,None,244.76292320000357,None,246.45871494999955,None,246.45871494999955,None,246.45871494999955,None,,,,,,,,,,,,,016,2022-05-12_13h23.56.865,Main,2022.1.1,61.42675933903633,
negative,negative,1,j,l,,,,,,,,,2,0,36,0,,,,,,,,,main,1,1,1,negative,negative,j,j,1,0.6674360999968485,246.46304170000076,247.47561800000403,247.45889200000238,None,246.46304170000076,None,246.46304170000076,None,246.46304170000076,None,248.1275385500041,None,248.1275385500041,None,248.1275385500041,None,,,,,,,,,,,,,016,2022-05-12_13h23.56.865,Main,2022.1.1,61.42675933903633,
positive,neutral,2,l,j,,,,,,,,,2,1,37,17,,,,,,,,,main,1,1,2,neutral,positive,l,l,1,0.8330818000031286,248.1304741000058,249.14417830000457,249.12765060000675,None,248.1304741000058,None,248.1304741000058,None,248.1304741000058,None,249.96091865000125,None,249.96091865000125,None,249.96091865000125,None,,,,,,,,,,,,,016,2022-05-12_13h23.56.865,Main,2022.1.1,61.42675933903633,
neutral,negative,1,k,k,,,,,,,,,2,2,38,7,,,,,,,,,main,2,2,1,negative,neutral,k,k,1,0.7652960999985225,249.9653971000007,250.97515030000068,250.9585079000026,None,249.9653971000007,None,249.9653971000007,None,249.9653971000007,None,251.72501875000233,None,251.72501875000233,None,251.72501875000233,None,,,,,,,,,,,,,016,2022-05-12_13h23.56.865,Main,2022.1.1,61.42675933903633,
neutral,neutral,1,k,k,,,,,,,,,2,3,39,1,,,,,,,,,main,1,1,1,neutral,neutral,k,k,1,0.9441775000013877,251.73029050000332,252.741660700005,252.72495049999998,None,251.73029050000332,None,251.73029050000332,None,251.73029050000332,None,253.67530145000563,None,253.67530145000563,None,253.67530145000563,None,,,,,,,,,,,,,016,2022-05-12_13h23.56.865,Main,2022.1.1,61.42675933903633,
negative,positive,1,j,l,,,,,,,,,2,4,40,6,,,,,,,,,main,1,1,1,positive,negative,j,j,1,0.7476595000043744,253.68153990000428,254.6941908000008,254.67756170000212,None,253.68153990000428,None,253.68153990000428,None,253.68153990000428,None,255.4252027500035,None,255.4252027500035,None,255.4252027500035,None,,,,,,,,,,,,,016,2022-05-12_13h23.56.865,Main,2022.1.1,61.42675933903633,
negative,neutral,1,j,l,,,,,,,,,2,5,41,3,,,,,,,,,main,2,2,1,neutral,negative,j,j,1,1.1337483000024804,255.4309166000021,256.4440467000022,256.4274546000015,None,255.4309166000021,None,255.4309166000021,None,255.4309166000021,None,257.56066875000323,None,257.56066875000323,None,257.56066875000323,None,,,,,,,,,,,,,016,2022-05-12_13h23.56.865,Main,2022.1.1,61.42675933903633,
positive,positive,1,l,j,,,,,,,,,2,6,42,2,,,,,,,,,main,2,2,1,positive,positive,l,l,1,0.7461003000062192,257.57089320000523,258.57510910000565,258.56071070000326,None,257.57089320000523,None,257.57089320000523,None,257.57089320000523,None,259.3081198499996,None,259.3081198499996,None,259.3081198499996,None,,,,,,,,,,,,,016,2022-05-12_13h23.56.865,Main,2022.1.1,61.42675933903633,
positive,positive,2,l,j,,,,,,,,,2,7,43,11,,,,,,,,,main,2,2,2,positive,positive,l,l,1,0.7825239000012516,259.3110563000009,260.32473060000484,260.30805800000235,None,259.3110563000009,None,259.3110563000009,None,259.3110563000009,None,261.0913738500014,None,261.0913738500014,None,261.0913738500014,None,,,,,,,,,,,,,016,2022-05-12_13h23.56.865,Main,2022.1.1,61.42675933903633,
positive,neutral,1,l,j,,,,,,,,,2,8,44,8,,,,,,,,,main,2,2,1,neutral,positive,l,l,1,0.833702900003118,261.09194160000334,262.0914097000059,262.0914097000059,None,261.09194160000334,None,261.09194160000334,None,261.09194160000334,None,262.92736505000283,None,262.92736505000283,None,262.92736505000283,None,,,,,,,,,,,,,016,2022-05-12_13h23.56.865,Main,2022.1.1,61.42675933903633,
positive,negative,2,l,j,,,,,,,,,2,9,45,14,,,,,,,,,main,2,2,2,negative,positive,l,l,1,0.7960374000031152,262.9303435000038,263.94395950000035,263.9272861000063,None,262.9303435000038,None,262.9303435000038,None,262.9303435000038,None,264.7250133500049,None,264.7250133500049,None,264.7250133500049,None,,,,,,,,,,,,,016,2022-05-12_13h23.56.865,Main,2022.1.1,61.42675933903633,
negative,positive,2,j,l,,,,,,,,,2,10,46,15,,,,,,,,,main,2,2,2,positive,negative,j,j,1,0.8650692999945022,264.7281628000055,265.7272568000044,265.7272568000044,None,264.7281628000055,None,264.7281628000055,None,264.7281628000055,None,266.59161315000455,None,266.59161315000455,None,266.59161315000455,None,,,,,,,,,,,,,016,2022-05-12_13h23.56.865,Main,2022.1.1,61.42675933903633,
positive,negative,1,l,j,,,,,,,,,2,11,47,5,,,,,,,,,main,2,2,1,negative,positive,l,l,1,0.8486535999982152,266.5948528000008,267.59392740000476,267.59392740000476,None,266.5948528000008,None,266.5948528000008,None,266.5948528000008,None,268.44156695000055,None,268.44156695000055,None,268.44156695000055,None,,,,,,,,,,,,,016,2022-05-12_13h23.56.865,Main,2022.1.1,61.42675933903633,
neutral,negative,2,k,k,,,,,,,,,2,12,48,16,,,,,,,,,main,2,2,2,negative,neutral,k,k,1,0.914826100000937,268.4448352000036,269.44387760000245,269.44387760000245,None,268.4448352000036,None,268.4448352000036,None,268.4448352000036,None,270.3581838500024,None,270.3581838500024,None,270.3581838500024,None,,,,,,,,,,,,,016,2022-05-12_13h23.56.865,Main,2022.1.1,61.42675933903633,
negative,neutral,2,j,l,,,,,,,,,2,13,49,12,,,,,,,,,main,1,1,2,neutral,negative,j,,0,1.2009340000004158,270.3613794000048,271.374504600004,271.35783320000337,None,270.3613794000048,None,270.3613794000048,None,270.3613794000048,None,272.5578134000025,None,272.5578134000025,None,272.5578134000025,None,,,,,,,,,,,,,016,2022-05-12_13h23.56.865,Main,2022.1.1,61.42675933903633,
neutral,positive,1,k,k,,,,,,,,,2,14,50,4,,,,,,,,,main,1,1,1,positive,neutral,k,k,1,0.836339900000894,273.56220170000597,274.57450360000075,274.5578472000052,None,273.56220170000597,None,273.56220170000597,None,273.56220170000597,None,275.3917257500063,None,275.3917257500063,None,275.3917257500063,None,,,,,,,,,,,,,016,2022-05-12_13h23.56.865,Main,2022.1.1,61.42675933903633,
neutral,positive,2,k,k,,,,,,,,,2,15,51,13,,,,,,,,,main,2,2,2,positive,neutral,k,k,1,0.9504925000001094,275.3961044000025,276.4103464,276.39375790000486,None,275.3961044000025,None,275.3961044000025,None,275.3961044000025,None,277.3436239499999,None,277.3436239499999,None,277.3436239499999,None,,,,,,,,,,,,,016,2022-05-12_13h23.56.865,Main,2022.1.1,61.42675933903633,
neutral,neutral,2,k,k,,,,,,,,,2,16,52,10,,,,,,,,,main,1,1,2,neutral,neutral,k,k,1,0.7623145999968983,277.346581100006,278.36031610000646,278.3436980000042,None,277.346581100006,None,277.346581100006,None,277.346581100006,None,279.108024750006,None,279.108024750006,None,279.108024750006,None,,,,,,,,,,,,,016,2022-05-12_13h23.56.865,Main,2022.1.1,61.42675933903633,
negative,negative,2,j,l,,,,,,,,,2,17,53,9,,,,,,,,,main,1,1,2,negative,negative,j,j,1,0.9007213000004413,279.1119894000003,280.1243783000027,280.0936675000048,None,279.1119894000003,None,279.1119894000003,None,279.1119894000003,None,281.0103396500046,None,281.0103396500046,None,281.0103396500046,None,,,,,,,,,,,,,016,2022-05-12_13h23.56.865,Main,2022.1.1,61.42675933903633,
negative,negative,1,j,l,,,,,,,,,3,0,54,0,,,,,,,,,main,2,2,1,negative,negative,j,j,1,0.9831129000012879,281.0148505000034,282.02684660000523,282.01034650000656,None,281.0148505000034,None,281.0148505000034,None,281.0148505000034,None,282.9947320500061,None,282.9947320500061,None,282.9947320500061,None,,,,,,,,,,,,,016,2022-05-12_13h23.56.865,Main,2022.1.1,61.42675933903633,
positive,negative,1,l,j,,,,,,,,,3,1,55,5,,,,,,,,,main,1,1,1,negative,positive,l,l,1,0.8110346999965259,283.00785230000474,284.0078189000051,283.9909315000041,None,283.00785230000474,None,283.00785230000474,None,283.00785230000474,None,284.80757424999973,None,284.80757424999973,None,284.80757424999973,None,,,,,,,,,,,,,016,2022-05-12_13h23.56.865,Main,2022.1.1,61.42675933903633,
neutral,negative,2,k,k,,,,,,,,,3,2,56,16,,,,,,,,,main,1,1,2,negative,neutral,k,k,1,0.7822601000007126,284.8075745000024,285.8078280000045,285.8078280000045,None,284.8075745000024,None,284.8075745000024,None,284.8075745000024,None,286.590933950006,None,286.590933950006,None,286.590933950006,None,,,,,,,,,,,,,016,2022-05-12_13h23.56.865,Main,2022.1.1,61.42675933903633,
neutral,positive,1,k,k,,,,,,,,,3,3,57,4,,,,,,,,,main,1,1,1,positive,neutral,k,k,1,0.7840410999997403,286.59430319999956,287.5935418000008,287.5935418000008,None,286.59430319999956,None,286.59430319999956,None,286.59430319999956,None,288.3767614500022,None,288.3767614500022,None,288.3767614500022,None,,,,,,,,,,,,,016,2022-05-12_13h23.56.865,Main,2022.1.1,61.42675933903633,
positive,negative,2,l,j,,,,,,,,,3,4,58,14,,,,,,,,,main,2,2,2,negative,positive,l,l,1,0.8627542999965954,288.3796538000024,289.3934950000039,289.3768721000015,None,288.3796538000024,None,288.3796538000024,None,288.3796538000024,None,290.2411281500019,None,290.2411281500019,None,290.2411281500019,None,,,,,,,,,,,,,016,2022-05-12_13h23.56.865,Main,2022.1.1,61.42675933903633,
negative,positive,1,j,l,,,,,,,,,3,5,59,6,,,,,,,,,main,2,2,1,positive,negative,j,j,1,0.7510959000064759,290.24500940000144,291.2579728000055,291.2435054000016,None,290.24500940000144,None,290.24500940000144,None,290.24500940000144,None,291.99370595,None,291.99370595,None,291.99370595,None,,,,,,,,,,,,,016,2022-05-12_13h23.56.865,Main,2022.1.1,61.42675933903633,
neutral,positive,2,k,k,,,,,,,,,3,6,60,13,,,,,,,,,main,1,1,2,positive,neutral,k,k,1,0.6617536999983713,291.9977585000015,293.0081602999999,292.9934433000017,None,291.9977585000015,None,291.9977585000015,None,291.9977585000015,None,293.65774855000126,None,293.65774855000126,None,293.65774855000126,None,,,,,,,,,,,,,016,2022-05-12_13h23.56.865,Main,2022.1.1,61.42675933903633,
positive,neutral,2,l,j,,,,,,,,,3,7,61,17,,,,,,,,,main,2,2,2,neutral,positive,l,l,1,0.7988299999997253,293.66116370000236,294.6743645000024,294.6578826000041,None,293.66116370000236,None,293.66116370000236,None,293.66116370000236,None,295.4573632500025,None,295.4573632500025,None,295.4573632500025,None,,,,,,,,,,,,,016,2022-05-12_13h23.56.865,Main,2022.1.1,61.42675933903633,
positive,neutral,1,l,j,,,,,,,,,3,8,62,8,,,,,,,,,main,2,2,1,neutral,positive,l,l,1,0.8812037999960012,295.45949040000414,296.47428560000117,296.4576942000058,None,295.45949040000414,None,295.45949040000414,None,295.45949040000414,None,297.341028850001,None,297.341028850001,None,297.341028850001,None,,,,,,,,,,,,,016,2022-05-12_13h23.56.865,Main,2022.1.1,61.42675933903633,
neutral,neutral,2,k,k,,,,,,,,,3,9,63,10,,,,,,,,,main,1,1,2,neutral,neutral,k,k,1,0.7314961999945808,297.3443461000061,298.35988660000294,298.34332859999995,None,297.3443461000061,None,297.3443461000061,None,297.3443461000061,None,299.0742798500061,None,299.0742798500061,None,299.0742798500061,None,,,,,,,,,,,,,016,2022-05-12_13h23.56.865,Main,2022.1.1,61.42675933903633,
positive,positive,1,l,j,,,,,,,,,3,10,64,2,,,,,,,,,main,2,2,1,positive,positive,l,l,1,0.8152670999988914,299.07740330000524,300.0763842000015,300.0598379000003,None,299.07740330000524,None,299.07740330000524,None,299.07740330000524,None,300.89090855000467,None,300.89090855000467,None,300.89090855000467,None,,,,,,,,,,,,,016,2022-05-12_13h23.56.865,Main,2022.1.1,61.42675933903633,
positive,positive,2,l,j,,,,,,,,,3,11,65,11,,,,,,,,,main,1,1,2,positive,positive,l,l,1,0.764447100002144,300.89496040000085,301.91006780000316,301.89320650000445,None,300.89496040000085,None,300.89496040000085,None,300.89496040000085,None,302.6575461500026,None,302.6575461500026,None,302.6575461500026,None,,,,,,,,,,,,,016,2022-05-12_13h23.56.865,Main,2022.1.1,61.42675933903633,
negative,positive,2,j,l,,,,,,,,,3,12,66,15,,,,,,,,,main,1,1,2,positive,negative,j,j,1,0.8484978999986197,302.66092620000563,303.6744672000059,303.657819,None,302.66092620000563,None,302.66092620000563,None,302.66092620000563,None,304.50752415000096,None,304.50752415000096,None,304.50752415000096,None,,,,,,,,,,,,,016,2022-05-12_13h23.56.865,Main,2022.1.1,61.42675933903633,
neutral,negative,1,k,k,,,,,,,,,3,13,67,7,,,,,,,,,main,2,2,1,negative,neutral,k,k,1,0.8143133999983547,304.51349080000364,305.52382530000614,305.50738390000333,None,304.51349080000364,None,304.51349080000364,None,304.51349080000364,None,306.3237584500013,None,306.3237584500013,None,306.3237584500013,None,,,,,,,,,,,,,016,2022-05-12_13h23.56.865,Main,2022.1.1,61.42675933903633,
negative,neutral,2,j,l,,,,,,,,,3,14,68,12,,,,,,,,,main,1,1,2,neutral,negative,j,j,1,0.8654673000055482,306.3242454000065,307.3238824,307.3238824,None,306.3242454000065,None,306.3242454000065,None,306.3242454000065,None,308.190756150004,None,308.190756150004,None,308.190756150004,None,,,,,,,,,,,,,016,2022-05-12_13h23.56.865,Main,2022.1.1,61.42675933903633,
negative,neutral,1,j,l,,,,,,,,,3,15,69,3,,,,,,,,,main,2,2,1,neutral,negative,j,j,1,0.7652320000051986,308.1962380000041,309.2096997000044,309.1929614000037,None,308.1962380000041,None,308.1962380000041,None,308.1962380000041,None,309.957422950006,None,309.957422950006,None,309.957422950006,None,,,,,,,,,,,,,016,2022-05-12_13h23.56.865,Main,2022.1.1,61.42675933903633,
negative,negative,2,j,l,,,,,,,,,3,16,70,9,,,,,,,,,main,2,2,2,negative,negative,j,j,1,0.7149495999983628,309.96066710000014,310.97622600000614,310.9596259000027,None,309.96066710000014,None,309.96066710000014,None,309.96066710000014,None,311.6740155500003,None,311.6740155500003,None,311.6740155500003,None,,,,,,,,,,,,,016,2022-05-12_13h23.56.865,Main,2022.1.1,61.42675933903633,
neutral,neutral,1,k,k,,,,,,,,,3,17,71,1,,,,,,,,,main,2,2,1,neutral,neutral,k,k,1,0.7340842999983579,311.6799874999997,312.6928943000021,312.67619650000415,None,311.6799874999997,None,311.6799874999997,None,311.6799874999997,None,313.40952435000435,None,313.40952435000435,None,313.40952435000435,None,,,,,,,,,,,,,016,2022-05-12_13h23.56.865,Main,2022.1.1,61.42675933903633,
positive,positive,2,l,j,,,,,,,,,4,0,72,11,,,,,,,,,main,1,1,2,positive,positive,l,l,1,0.8632455999977537,313.4125714000038,314.42619730000297,314.4095426000058,None,313.4125714000038,None,313.4125714000038,None,313.4125714000038,None,315.27358965000093,None,315.27358965000093,None,315.27358965000093,None,,,,,,,,,,,,,016,2022-05-12_13h23.56.865,Main,2022.1.1,61.42675933903633,
negative,negative,2,j,l,,,,,,,,,4,1,73,9,,,,,,,,,main,2,2,2,negative,negative,j,j,1,0.8644043000022066,315.27410750000126,316.27359270000306,316.27359270000306,None,315.27410750000126,None,315.27410750000126,None,315.27410750000126,None,317.1402782500001,None,317.1402782500001,None,317.1402782500001,None,,,,,,,,,,,,,016,2022-05-12_13h23.56.865,Main,2022.1.1,61.42675933903633,
neutral,positive,2,k,k,,,,,,,,,4,2,74,13,,,,,,,,,main,2,2,2,positive,neutral,k,k,1,0.781419899998582,317.14424330000475,318.1594441000052,318.1428487000012,None,317.14424330000475,None,317.14424330000475,None,317.14424330000475,None,318.92387945000445,None,318.92387945000445,None,318.92387945000445,None,,,,,,,,,,,,,016,2022-05-12_13h23.56.865,Main,2022.1.1,61.42675933903633,
negative,neutral,1,j,l,,,,,,,,,4,3,75,3,,,,,,,,,main,2,2,1,neutral,negative,j,j,1,0.9483397000003606,318.92697460000636,319.92610770000465,319.9094438000029,None,318.92697460000636,None,318.92697460000636,None,318.92697460000636,None,320.8738317500021,None,320.8738317500021,None,320.8738317500021,None,,,,,,,,,,,,,016,2022-05-12_13h23.56.865,Main,2022.1.1,61.42675933903633,
positive,positive,1,l,j,,,,,,,,,4,4,76,2,,,,,,,,,main,2,2,1,positive,positive,l,l,1,1.3818211000034353,320.8770414000028,321.8760842000047,321.8760842000047,None,320.8770414000028,None,320.8770414000028,None,320.8770414000028,None,323.2571080500049,None,323.2571080500049,None,323.2571080500049,None,,,,,,,,,,,,,016,2022-05-12_13h23.56.865,Main,2022.1.1,61.42675933903633,
positive,neutral,1,l,j,,,,,,,,,4,5,77,8,,,,,,,,,main,2,2,1,neutral,positive,l,l,1,0.6983981000012136,323.2603300000046,324.27596050000284,324.25941800000146,None,323.2603300000046,None,323.2603300000046,None,323.2603300000046,None,324.957076650003,None,324.957076650003,None,324.957076650003,None,,,,,,,,,,,,,016,2022-05-12_13h23.56.865,Main,2022.1.1,61.42675933903633,
negative,negative,1,j,l,,,,,,,,,4,6,78,0,,,,,,,,,main,1,1,1,negative,negative,j,j,1,0.8479753999999957,324.96073720000277,325.97339290000673,325.9567185000051,None,324.96073720000277,None,324.96073720000277,None,324.96073720000277,None,326.8067015500048,None,326.8067015500048,None,326.8067015500048,None,,,,,,,,,,,,,016,2022-05-12_13h23.56.865,Main,2022.1.1,61.42675933903633,
negative,positive,2,j,l,,,,,,,,,4,7,79,15,,,,,,,,,main,1,1,2,positive,negative,j,j,1,0.9152056000020821,326.8066863000058,327.8067125000016,327.8067125000016,None,326.8066863000058,None,326.8066863000058,None,326.8066863000058,None,328.7233593500052,None,328.7233593500052,None,328.7233593500052,None,,,,,,,,,,,,,016,2022-05-12_13h23.56.865,Main,2022.1.1,61.42675933903633,
neutral,neutral,1,k,k,,,,,,,,,4,8,80,1,,,,,,,,,main,2,2,1,neutral,neutral,k,k,1,0.8153662999975495,328.72376610000356,329.7259989000013,329.7259989000013,None,328.72376610000356,None,328.72376610000356,None,328.72376610000356,None,330.5403411500003,None,330.5403411500003,None,330.5403411500003,None,,,,,,,,,,,,,016,2022-05-12_13h23.56.865,Main,2022.1.1,61.42675933903633,
neutral,negative,2,k,k,,,,,,,,,4,9,81,16,,,,,,,,,main,2,2,2,negative,neutral,k,k,1,0.7814690000013798,330.5436473000009,331.5592023000063,331.5426124000005,None,330.5436473000009,None,330.5436473000009,None,330.5436473000009,None,332.3236169500007,None,332.3236169500007,None,332.3236169500007,None,,,,,,,,,,,,,016,2022-05-12_13h23.56.865,Main,2022.1.1,61.42675933903633,
negative,neutral,2,j,l,,,,,,,,,4,10,82,12,,,,,,,,,main,1,1,2,neutral,negative,j,j,1,0.9316974000030314,332.327348800005,333.34255660000053,333.3094254000025,None,332.327348800005,None,332.327348800005,None,332.327348800005,None,334.25692195000664,None,334.25692195000664,None,334.25692195000664,None,,,,,,,,,,,,,016,2022-05-12_13h23.56.865,Main,2022.1.1,61.42675933903633,
neutral,negative,1,k,k,,,,,,,,,4,11,83,7,,,,,,,,,main,2,2,1,negative,neutral,k,k,1,0.8652023000031477,334.26003070000297,335.25908830000117,335.24251430000004,None,334.26003070000297,None,334.26003070000297,None,334.26003070000297,None,336.1234763500026,None,336.1234763500026,None,336.1234763500026,None,,,,,,,,,,,,,016,2022-05-12_13h23.56.865,Main,2022.1.1,61.42675933903633,
negative,positive,1,j,l,,,,,,,,,4,12,84,6,,,,,,,,,main,2,2,1,positive,negative,j,j,1,0.8142374999952153,336.132858200006,337.1401588000008,337.1257403000054,None,336.132858200006,None,336.132858200006,None,336.132858200006,None,337.9398062500033,None,337.9398062500033,None,337.9398062500033,None,,,,,,,,,,,,,016,2022-05-12_13h23.56.865,Main,2022.1.1,61.42675933903633,
positive,neutral,2,l,j,,,,,,,,,4,13,85,17,,,,,,,,,main,2,2,2,neutral,positive,l,l,1,0.8986600999996881,337.940145200002,338.9397944000011,338.9397944000011,None,337.940145200002,None,337.940145200002,None,337.940145200002,None,339.839791950005,None,339.839791950005,None,339.839791950005,None,,,,,,,,,,,,,016,2022-05-12_13h23.56.865,Main,2022.1.1,61.42675933903633,
positive,negative,1,l,j,,,,,,,,,4,14,86,5,,,,,,,,,main,2,2,1,negative,positive,l,l,1,0.6316787999967346,339.8402251000007,340.83978700000443,340.83978700000443,None,339.8402251000007,None,339.8402251000007,None,339.8402251000007,None,341.4731175500048,None,341.4731175500048,None,341.4731175500048,None,,,,,,,,,,,,,016,2022-05-12_13h23.56.865,Main,2022.1.1,61.42675933903633,
neutral,neutral,2,k,k,,,,,,,,,4,15,87,10,,,,,,,,,main,1,1,2,neutral,neutral,k,k,1,1.5652736999982153,341.4758998000034,342.4756164000064,342.45904080000037,None,341.4758998000034,None,341.4758998000034,None,341.4758998000034,None,344.0423068000018,None,344.0423068000018,None,344.0423068000018,None,,,,,,,,,,,,,016,2022-05-12_13h23.56.865,Main,2022.1.1,61.42675933903633,
positive,negative,2,l,j,,,,,,,,,4,16,88,14,,,,,,,,,main,2,2,2,negative,positive,l,l,1,0.8867449000026681,345.0403342999998,346.04219300000113,346.025624300004,None,345.0403342999998,None,345.0403342999998,None,345.0403342999998,None,346.9255591500034,None,346.9255591500034,None,346.9255591500034,None,,,,,,,,,,,,,016,2022-05-12_13h23.56.865,Main,2022.1.1,61.42675933903633,
neutral,positive,1,k,k,,,,,,,,,4,17,89,4,,,,,,,,,main,2,2,1,positive,neutral,k,k,1,0.7461183999985224,346.9301581000036,347.9396627000024,347.92557430000306,None,346.9301581000036,None,346.9301581000036,None,346.9301581000036,None,348.6743135500066,None,348.6743135500066,None,348.6743135500066,None,,,,,,,,,,,,,016,2022-05-12_13h23.56.865,Main,2022.1.1,61.42675933903633,
negative,neutral,1,j,l,,,,,,,,,5,0,90,3,,,,,,,,,main,2,2,1,neutral,negative,j,j,1,0.8969937000001664,348.6921739000027,349.70658070000354,349.6729250000062,None,348.6921739000027,None,348.6921739000027,None,348.6921739000027,None,350.57286695000147,None,350.57286695000147,None,350.57286695000147,None,,,,,,,,,,,,,016,2022-05-12_13h23.56.865,Main,2022.1.1,61.42675933903633,
positive,neutral,1,l,j,,,,,,,,,5,1,91,8,,,,,,,,,main,1,1,1,neutral,positive,l,l,1,0.8485082999977749,350.57288350000454,351.5729468000063,351.5729468000063,None,350.57288350000454,None,350.57288350000454,None,350.57288350000454,None,352.4228883500029,None,352.4228883500029,None,352.4228883500029,None,,,,,,,,,,,,,016,2022-05-12_13h23.56.865,Main,2022.1.1,61.42675933903633,
negative,negative,1,j,l,,,,,,,,,5,2,92,0,,,,,,,,,main,1,1,1,negative,negative,j,j,1,0.8319906999968225,352.4232678000044,353.4231299000021,353.4231299000021,None,352.4232678000044,None,352.4232678000044,None,352.4232678000044,None,354.25658895000305,None,354.25658895000305,None,354.25658895000305,None,,,,,,,,,,,,,016,2022-05-12_13h23.56.865,Main,2022.1.1,61.42675933903633,
negative,neutral,2,j,l,,,,,,,,,5,3,93,12,,,,,,,,,main,2,2,2,neutral,negative,j,j,1,0.7839231999969343,354.26219790000323,355.27354910000577,355.2589896999998,None,354.26219790000323,None,354.26219790000323,None,354.26219790000323,None,356.0421422499996,None,356.0421422499996,None,356.0421422499996,None,,,,,,,,,,,,,016,2022-05-12_13h23.56.865,Main,2022.1.1,61.42675933903633,
neutral,negative,2,k,k,,,,,,,,,5,4,94,16,,,,,,,,,main,2,2,2,negative,neutral,k,k,1,0.6981169999999111,356.0460441000032,357.05871350000234,357.0421034000028,None,356.0460441000032,None,356.0460441000032,None,356.0460441000032,None,357.74193054999995,None,357.74193054999995,None,357.74193054999995,None,,,,,,,,,,,,,016,2022-05-12_13h23.56.865,Main,2022.1.1,61.42675933903633,
neutral,positive,2,k,k,,,,,,,,,5,5,95,13,,,,,,,,,main,2,2,2,positive,neutral,k,k,1,0.748549500000081,357.74466419999953,358.75866099999985,358.74203580000176,None,357.74466419999953,None,357.74466419999953,None,357.74466419999953,None,359.4919171499998,None,359.4919171499998,None,359.4919171499998,None,,,,,,,,,,,,,016,2022-05-12_13h23.56.865,Main,2022.1.1,61.42675933903633,
positive,positive,1,l,j,,,,,,,,,5,6,96,2,,,,,,,,,main,1,1,1,positive,positive,l,l,1,0.7963411000018823,359.49574190000567,360.50858820000576,360.4919769000044,None,359.49574190000567,None,359.49574190000567,None,359.49574190000567,None,361.2896634500059,None,361.2896634500059,None,361.2896634500059,None,,,,,,,,,,,,,016,2022-05-12_13h23.56.865,Main,2022.1.1,61.42675933903633,
neutral,neutral,2,k,k,,,,,,,,,5,7,97,10,,,,,,,,,main,1,1,2,neutral,neutral,k,k,1,0.8978052000020398,361.2927997000006,362.30597310000303,362.2893108999997,None,361.2927997000006,None,361.2927997000006,None,361.2927997000006,None,363.1892864500034,None,363.1892864500034,None,363.1892864500034,None,,,,,,,,,,,,,016,2022-05-12_13h23.56.865,Main,2022.1.1,61.42675933903633,
negative,negative,2,j,l,,,,,,,,,5,8,98,9,,,,,,,,,main,1,1,2,negative,negative,j,j,1,0.8819452000025194,363.18929590000334,364.18930200000614,364.18930200000614,None,363.18929590000334,None,363.18929590000334,None,363.18929590000334,None,365.07261165000017,None,365.07261165000017,None,365.07261165000017,None,,,,,,,,,,,,,016,2022-05-12_13h23.56.865,Main,2022.1.1,61.42675933903633,
positive,neutral,2,l,j,,,,,,,,,5,9,99,17,,,,,,,,,main,2,2,2,neutral,positive,l,l,1,0.7990062999961083,365.07599680000567,366.07518930000515,366.0585915000047,None,365.07599680000567,None,365.07599680000567,None,365.07599680000567,None,366.8729202500028,None,366.8729202500028,None,366.8729202500028,None,,,,,,,,,,,,,016,2022-05-12_13h23.56.865,Main,2022.1.1,61.42675933903633,
positive,negative,2,l,j,,,,,,,,,5,10,100,14,,,,,,,,,main,1,1,2,negative,positive,l,l,1,1.115096599998651,366.8759773000056,367.8751853000067,367.8751853000067,None,366.8759773000056,None,366.8759773000056,None,366.8759773000056,None,368.9895352500018,None,368.9895352500018,None,368.9895352500018,None,,,,,,,,,,,,,016,2022-05-12_13h23.56.865,Main,2022.1.1,61.42675933903633,
positive,negative,1,l,j,,,,,,,,,5,11,101,5,,,,,,,,,main,2,2,1,negative,positive,l,l,1,0.8319988000002922,368.993472400005,370.00842560000456,369.99182380000275,None,368.993472400005,None,368.993472400005,None,368.993472400005,None,370.8231127500032,None,370.8231127500032,None,370.8231127500032,None,,,,,,,,,,,,,016,2022-05-12_13h23.56.865,Main,2022.1.1,61.42675933903633,
neutral,neutral,1,k,k,,,,,,,,,5,12,102,1,,,,,,,,,main,2,2,1,neutral,neutral,k,k,1,0.9007590000037453,370.82638450000377,371.84168910000153,371.82525069999974,None,370.82638450000377,None,370.82638450000377,None,370.82638450000377,None,372.72560285000435,None,372.72560285000435,None,372.72560285000435,None,,,,,,,,,,,,,016,2022-05-12_13h23.56.865,Main,2022.1.1,61.42675933903633,
positive,positive,2,l,j,,,,,,,,,5,13,103,11,,,,,,,,,main,1,1,2,positive,positive,l,l,1,0.9620553999993717,372.72859210000024,373.7387971999997,373.72151500000473,None,372.72859210000024,None,372.72859210000024,None,372.72859210000024,None,374.68906875000465,None,374.68906875000465,None,374.68906875000465,None,,,,,,,,,,,,,016,2022-05-12_13h23.56.865,Main,2022.1.1,61.42675933903633,
neutral,positive,1,k,k,,,,,,,,,5,14,104,4,,,,,,,,,main,2,2,1,positive,neutral,k,k,1,0.8818717000031029,374.68906550000247,375.6890874000019,375.6890874000019,None,374.68906550000247,None,374.68906550000247,None,374.68906550000247,None,376.5726062500027,None,376.5726062500027,None,376.5726062500027,None,,,,,,,,,,,,,016,2022-05-12_13h23.56.865,Main,2022.1.1,61.42675933903633,
negative,positive,1,j,l,,,,,,,,,5,15,105,6,,,,,,,,,main,2,2,1,positive,negative,j,j,1,1.0984869000021718,376.57371930000227,377.5890811999998,377.57261629999994,None,376.57371930000227,None,376.57371930000227,None,376.57371930000227,None,378.6726672500001,None,378.6726672500001,None,378.6726672500001,None,,,,,,,,,,,,,016,2022-05-12_13h23.56.865,Main,2022.1.1,61.42675933903633,
neutral,negative,1,k,k,,,,,,,,,5,16,106,7,,,,,,,,,main,1,1,1,negative,neutral,k,k,1,0.7484752000018489,378.6761423000062,379.67291939999996,379.67291939999996,None,378.6761423000062,None,378.6761423000062,None,378.6761423000062,None,380.42264975000506,None,380.42264975000506,None,380.42264975000506,None,,,,,,,,,,,,,016,2022-05-12_13h23.56.865,Main,2022.1.1,61.42675933903633,
negative,positive,2,j,l,,,,,,,,,5,17,107,15,,,,,,,,,main,2,2,2,positive,negative,j,j,1,1.0980507999993279,380.4264029000042,381.44152820000454,381.4228953000056,None,380.4264029000042,None,380.4264029000042,None,380.4264029000042,None,382.5225784500064,None,382.5225784500064,None,382.5225784500064,None,,,,,,,,,,,,,016,2022-05-12_13h23.56.865,Main,2022.1.1,61.42675933903633,
neutral,positive,2,k,k,,,,,,,,,6,0,108,13,,,,,,,,,main,2,2,2,positive,neutral,k,k,1,0.7319107000002987,382.5262834000023,383.54155270000047,383.50617369999964,None,382.5262834000023,None,382.5262834000023,None,382.5262834000023,None,384.2558730500015,None,384.2558730500015,None,384.2558730500015,None,,,,,,,,,,,,,016,2022-05-12_13h23.56.865,Main,2022.1.1,61.42675933903633,
positive,positive,1,l,j,,,,,,,,,6,1,109,2,,,,,,,,,main,2,2,1,positive,positive,l,l,1,0.782982800003083,384.2598877000055,385.2554960000052,385.2459716000012,None,384.2598877000055,None,384.2598877000055,None,384.2598877000055,None,386.0388495500003,None,386.0388495500003,None,386.0388495500003,None,,,,,,,,,,,,,016,2022-05-12_13h23.56.865,Main,2022.1.1,61.42675933903633,
negative,negative,1,j,l,,,,,,,,,6,2,110,0,,,,,,,,,main,1,1,1,negative,negative,j,j,1,0.8010136999946553,386.0401292000024,387.05551960000594,387.0388544000016,None,386.0401292000024,None,386.0401292000024,None,386.0401292000024,None,387.84134505000037,None,387.84134505000037,None,387.84134505000037,None,,,,,,,,,,,,,016,2022-05-12_13h23.56.865,Main,2022.1.1,61.42675933903633,
neutral,negative,1,k,k,,,,,,,,,6,3,111,7,,,,,,,,,main,2,2,1,negative,neutral,k,k,1,0.7110117999982322,387.84618640000554,388.8580063000045,388.8414244000014,None,387.84618640000554,None,387.84618640000554,None,387.84618640000554,None,389.55575955000603,None,389.55575955000603,None,389.55575955000603,None,,,,,,,,,,,,,016,2022-05-12_13h23.56.865,Main,2022.1.1,61.42675933903633,
neutral,positive,1,k,k,,,,,,,,,6,4,112,4,,,,,,,,,main,1,1,1,positive,neutral,k,k,1,0.7341908999951556,389.5746650000001,390.5746766000011,390.55807880000066,None,389.5746650000001,None,389.5746650000001,None,389.5746650000001,None,391.29128585000507,None,391.29128585000507,None,391.29128585000507,None,,,,,,,,,,,,,016,2022-05-12_13h23.56.865,Main,2022.1.1,61.42675933903633,
positive,negative,1,l,j,,,,,,,,,6,5,113,5,,,,,,,,,main,2,2,1,negative,positive,l,l,1,0.8794445000021369,391.29423070000485,392.3079335000002,392.29131740000594,None,391.29423070000485,None,391.29423070000485,None,391.29423070000485,None,393.1723358500014,None,393.1723358500014,None,393.1723358500014,None,,,,,,,,,,,,,016,2022-05-12_13h23.56.865,Main,2022.1.1,61.42675933903633,
positive,negative,2,l,j,,,,,,,,,6,6,114,14,,,,,,,,,main,1,1,2,negative,positive,l,l,1,0.9815866999997525,393.17530439999973,394.1745122000066,394.15801000000647,None,393.17530439999973,None,393.17530439999973,None,393.17530439999973,None,395.1556321500022,None,395.1556321500022,None,395.1556321500022,None,,,,,,,,,,,,,016,2022-05-12_13h23.56.865,Main,2022.1.1,61.42675933903633,
positive,neutral,1,l,j,,,,,,,,,6,7,115,8,,,,,,,,,main,1,1,1,neutral,positive,l,l,1,0.86520919999748,395.1591306000046,396.17195480000373,396.15528330000234,None,395.1591306000046,None,395.1591306000046,None,395.1591306000046,None,397.02194225000056,None,397.02194225000056,None,397.02194225000056,None,,,,,,,,,,,,,016,2022-05-12_13h23.56.865,Main,2022.1.1,61.42675933903633,
negative,neutral,1,j,l,,,,,,,,,6,8,116,3,,,,,,,,,main,2,2,1,neutral,negative,j,j,1,0.8816684999983408,397.02193460000126,398.0219520000028,398.0219520000028,None,397.02193460000126,None,397.02193460000126,None,397.02193460000126,None,398.9056137500003,None,398.9056137500003,None,398.9056137500003,None,,,,,,,,,,,,,016,2022-05-12_13h23.56.865,Main,2022.1.1,61.42675933903633,
negative,negative,2,j,l,,,,,,,,,6,9,117,9,,,,,,,,,main,2,2,2,negative,negative,j,j,1,1.1143298000024515,398.92475180000474,399.9245486,399.90794270000333,None,398.92475180000474,None,398.92475180000474,None,398.92475180000474,None,401.02221035000474,None,401.02221035000474,None,401.02221035000474,None,,,,,,,,,,,,,016,2022-05-12_13h23.56.865,Main,2022.1.1,61.42675933903633,
positive,neutral,2,l,j,,,,,,,,,6,10,118,17,,,,,,,,,main,1,1,2,neutral,positive,l,l,1,0.8656775999988895,401.02778890000627,402.0411424000049,402.0226227000021,None,401.02778890000627,None,401.02778890000627,None,401.02778890000627,None,402.8885626500043,None,402.8885626500043,None,402.8885626500043,None,,,,,,,,,,,,,016,2022-05-12_13h23.56.865,Main,2022.1.1,61.42675933903633,
negative,positive,1,j,l,,,,,,,,,6,11,119,6,,,,,,,,,main,2,2,1,positive,negative,j,j,1,0.8144534999955795,402.89569440000196,403.90808140000445,403.8911806000033,None,402.89569440000196,None,402.89569440000196,None,402.89569440000196,None,404.70546215000576,None,404.70546215000576,None,404.70546215000576,None,,,,,,,,,,,,,016,2022-05-12_13h23.56.865,Main,2022.1.1,61.42675933903633,
positive,positive,2,l,j,,,,,,,,,6,12,120,11,,,,,,,,,main,1,1,2,positive,positive,l,l,1,0.8650357000005897,404.70869390000007,405.72224510000524,405.70532380000077,None,404.70869390000007,None,404.70869390000007,None,404.70869390000007,None,406.57205245000586,None,406.57205245000586,None,406.57205245000586,None,,,,,,,,,,,,,016,2022-05-12_13h23.56.865,Main,2022.1.1,61.42675933903633,
neutral,neutral,2,k,k,,,,,,,,,6,13,121,10,,,,,,,,,main,1,1,2,neutral,neutral,k,k,1,0.6983336999983294,406.5884060000026,407.58848880000005,407.5719886000006,None,406.5884060000026,None,406.5884060000026,None,406.5884060000026,None,408.27206355000015,None,408.27206355000015,None,408.27206355000015,None,,,,,,,,,,,,,016,2022-05-12_13h23.56.865,Main,2022.1.1,61.42675933903633,
negative,neutral,2,j,l,,,,,,,,,6,14,122,12,,,,,,,,,main,1,1,2,neutral,negative,j,j,1,0.9317611000005854,408.275109400005,409.2742500000022,409.2576874000006,None,408.275109400005,None,408.275109400005,None,408.275109400005,None,410.20535455000135,None,410.20535455000135,None,410.20535455000135,None,,,,,,,,,,,,,016,2022-05-12_13h23.56.865,Main,2022.1.1,61.42675933903633,
negative,positive,2,j,l,,,,,,,,,6,15,123,15,,,,,,,,,main,1,1,2,positive,negative,j,j,1,0.6484606999947573,410.2087007000009,411.2242406000005,411.2075943000018,None,410.2087007000009,None,410.2087007000009,None,410.2087007000009,None,411.85533245000187,None,411.85533245000187,None,411.85533245000187,None,,,,,,,,,,,,,016,2022-05-12_13h23.56.865,Main,2022.1.1,61.42675933903633,
neutral,neutral,1,k,k,,,,,,,,,6,16,124,1,,,,,,,,,main,2,2,1,neutral,neutral,k,k,1,0.6814550999988569,411.8586785000007,412.87422730000253,412.85764060000656,None,411.8586785000007,None,411.8586785000007,None,411.8586785000007,None,413.5383349500036,None,413.5383349500036,None,413.5383349500036,None,,,,,,,,,,,,,016,2022-05-12_13h23.56.865,Main,2022.1.1,61.42675933903633,
neutral,negative,2,k,k,,,,,,,,,6,17,125,16,,,,,,,,,main,1,1,2,negative,neutral,k,k,1,1.1646225999938906,413.54474470000423,414.5574026000031,414.54079340000317,None,413.54474470000423,None,413.54474470000423,None,413.54474470000423,None,415.70487715000417,None,415.70487715000417,None,415.70487715000417,None,,,,,,,,,,,,,016,2022-05-12_13h23.56.865,Main,2022.1.1,61.42675933903633,
neutral,neutral,1,k,k,,,,,,,,,7,0,126,1,,,,,,,,,main,1,1,1,neutral,neutral,k,k,1,0.7319083999973373,415.7048782000056,416.7048447000052,416.7048447000052,None,415.7048782000056,None,415.7048782000056,None,415.7048782000056,None,417.4382172500038,None,417.4382172500038,None,417.4382172500038,None,,,,,,,,,,,,,016,2022-05-12_13h23.56.865,Main,2022.1.1,61.42675933903633,
positive,negative,2,l,j,,,,,,,,,7,1,127,14,,,,,,,,,main,2,2,2,negative,positive,l,l,1,0.8678300000028685,417.44189400000323,418.4574416000032,418.42420320000383,None,417.44189400000323,None,417.44189400000323,None,417.44189400000323,None,419.30734385000613,None,419.30734385000613,None,419.30734385000613,None,,,,,,,,,,,,,016,2022-05-12_13h23.56.865,Main,2022.1.1,61.42675933903633,
positive,negative,1,l,j,,,,,,,,,7,2,128,5,,,,,,,,,main,2,2,1,negative,positive,l,l,1,0.7196253000001889,419.31029169999965,420.32398770000145,420.3074482000011,None,419.31029169999965,None,419.31029169999965,None,419.31029169999965,None,421.0240050500062,None,421.0240050500062,None,421.0240050500062,None,,,,,,,,,,,,,016,2022-05-12_13h23.56.865,Main,2022.1.1,61.42675933903633,
neutral,negative,2,k,k,,,,,,,,,7,3,129,16,,,,,,,,,main,1,1,2,negative,neutral,k,k,1,0.6739933999997447,421.0356099000055,422.04060560000653,422.02405840000574,None,421.0356099000055,None,421.0356099000055,None,421.0356099000055,None,422.7050785500025,None,422.7050785500025,None,422.7050785500025,None,,,,,,,,,,,,,016,2022-05-12_13h23.56.865,Main,2022.1.1,61.42675933903633,
negative,neutral,2,j,l,,,,,,,,,7,4,130,12,,,,,,,,,main,2,2,2,neutral,negative,j,j,1,0.7651394000058644,422.70828100000654,423.70735600000626,423.70735600000626,None,422.70828100000654,None,422.70828100000654,None,422.70828100000654,None,424.47170305000253,None,424.47170305000253,None,424.47170305000253,None,,,,,,,,,,,,,016,2022-05-12_13h23.56.865,Main,2022.1.1,61.42675933903633,
neutral,positive,1,k,k,,,,,,,,,7,5,131,4,,,,,,,,,main,1,1,1,positive,neutral,k,k,1,0.7482753000003868,424.4748491999999,425.48801410000306,425.4713505000036,None,424.4748491999999,None,424.4748491999999,None,424.4748491999999,None,426.22132135000646,None,426.22132135000646,None,426.22132135000646,None,,,,,,,,,,,,,016,2022-05-12_13h23.56.865,Main,2022.1.1,61.42675933903633,
negative,negative,1,j,l,,,,,,,,,7,6,132,0,,,,,,,,,main,1,1,1,negative,negative,j,j,1,0.7816134999957285,426.22132240000064,427.2213300000003,427.2213300000003,None,426.22132240000064,None,426.22132240000064,None,426.22132240000064,None,428.0046484500046,None,428.0046484500046,None,428.0046484500046,None,,,,,,,,,,,,,016,2022-05-12_13h23.56.865,Main,2022.1.1,61.42675933903633,
neutral,negative,1,k,k,,,,,,,,,7,7,133,7,,,,,,,,,main,2,2,1,negative,neutral,k,k,1,0.7511221000022488,428.00495140000567,429.00466730000335,429.00466730000335,None,428.00495140000567,None,428.00495140000567,None,428.00495140000567,None,429.75725555000025,None,429.75725555000025,None,429.75725555000025,None,,,,,,,,,,,,,016,2022-05-12_13h23.56.865,Main,2022.1.1,61.42675933903633,
negative,positive,1,j,l,,,,,,,,,7,8,134,6,,,,,,,,,main,1,1,1,positive,negative,j,j,1,0.696180999999342,429.7602158000009,430.77386390000174,430.7572686000058,None,429.7602158000009,None,429.7602158000009,None,429.7602158000009,None,431.45494325000544,None,431.45494325000544,None,431.45494325000544,None,,,,,,,,,,,,,016,2022-05-12_13h23.56.865,Main,2022.1.1,61.42675933903633,
negative,negative,2,j,l,,,,,,,,,7,9,135,9,,,,,,,,,main,1,1,2,negative,negative,j,j,1,0.9149965999968117,431.458060500001,432.4571810000052,432.4571810000052,None,431.458060500001,None,431.458060500001,None,431.458060500001,None,433.3715540500045,None,433.3715540500045,None,433.3715540500045,None,,,,,,,,,,,,,016,2022-05-12_13h23.56.865,Main,2022.1.1,61.42675933903633,
positive,positive,1,l,j,,,,,,,,,7,10,136,2,,,,,,,,,main,2,2,1,positive,positive,l,l,1,0.8185117999964859,433.3748384999999,434.3738594000024,434.3738594000024,None,433.3748384999999,None,433.3748384999999,None,433.3748384999999,None,435.191428850004,None,435.191428850004,None,435.191428850004,None,,,,,,,,,,,,,016,2022-05-12_13h23.56.865,Main,2022.1.1,61.42675933903633,
negative,neutral,1,j,l,,,,,,,,,7,11,137,3,,,,,,,,,main,2,2,1,neutral,negative,j,j,1,0.8501396999999997,435.19497820000106,436.20704720000504,436.1904693000033,None,435.19497820000106,None,435.19497820000106,None,435.19497820000106,None,437.0423917500004,None,437.0423917500004,None,437.0423917500004,None,,,,,,,,,,,,,016,2022-05-12_13h23.56.865,Main,2022.1.1,61.42675933903633,
negative,positive,2,j,l,,,,,,,,,7,12,138,15,,,,,,,,,main,2,2,2,positive,negative,j,j,1,0.8430737999951816,437.0467160000044,438.05442540000513,438.03775410000526,None,437.0467160000044,None,437.0467160000044,None,437.0467160000044,None,438.8877357500016,None,438.8877357500016,None,438.8877357500016,None,,,,,,,,,,,,,016,2022-05-12_13h23.56.865,Main,2022.1.1,61.42675933903633,
positive,neutral,1,l,j,,,,,,,,,7,13,139,8,,,,,,,,,main,1,1,1,neutral,positive,l,l,1,0.8986571999994339,438.8877403000006,439.88777060000575,439.88777060000575,None,438.8877403000006,None,438.8877403000006,None,438.8877403000006,None,440.7880910500018,None,440.7880910500018,None,440.7880910500018,None,,,,,,,,,,,,,016,2022-05-12_13h23.56.865,Main,2022.1.1,61.42675933903633,
positive,positive,2,l,j,,,,,,,,,7,14,140,11,,,,,,,,,main,2,2,2,positive,positive,l,l,1,1.0484828999979072,440.79157020000275,441.8070072000046,441.7903856000048,None,440.79157020000275,None,440.79157020000275,None,440.79157020000275,None,442.8380275500014,None,442.8380275500014,None,442.8380275500014,None,,,,,,,,,,,,,016,2022-05-12_13h23.56.865,Main,2022.1.1,61.42675933903633,
neutral,positive,2,k,k,,,,,,,,,7,15,141,13,,,,,,,,,main,1,1,2,positive,neutral,k,k,1,0.830753200003528,442.8420346000057,443.85688060000393,443.8403185000061,None,442.8420346000057,None,442.8420346000057,None,442.8420346000057,None,444.6713025500059,None,444.6713025500059,None,444.6713025500059,None,,,,,,,,,,,,,016,2022-05-12_13h23.56.865,Main,2022.1.1,61.42675933903633,
neutral,neutral,2,k,k,,,,,,,,,7,16,142,10,,,,,,,,,main,1,1,2,neutral,neutral,k,k,1,0.7341113000002224,444.6748100000041,445.69014980000065,445.6569587000049,None,444.6748100000041,None,444.6748100000041,None,444.6748100000041,None,446.40691965000514,None,446.40691965000514,None,446.40691965000514,None,,,,,,,,,,,,,016,2022-05-12_13h23.56.865,Main,2022.1.1,61.42675933903633,
positive,neutral,2,l,j,,,,,,,,,7,17,143,17,,,,,,,,,main,2,2,2,neutral,positive,l,l,1,0.7805309000032139,446.41053790000296,447.4234904000041,447.40685340000346,None,446.41053790000296,None,446.41053790000296,None,446.41053790000296,None,448.1875420500066,None,448.1875420500066,None,448.1875420500066,None,,,,,,,,,,,,,016,2022-05-12_13h23.56.865,Main,2022.1.1,61.42675933903633,
negative,positive,2,j,l,,,,,,,,,8,0,144,15,,,,,,,,,main,1,1,2,positive,negative,j,j,1,0.8804890000028536,448.1887743000043,449.20420240000385,449.1875335000004,None,448.1887743000043,None,448.1887743000043,None,448.1887743000043,None,450.0708845500041,None,450.0708845500041,None,450.0708845500041,None,,,,,,,,,,,,,016,2022-05-12_13h23.56.865,Main,2022.1.1,61.42675933903633,
negative,negative,2,j,l,,,,,,,,,8,1,145,9,,,,,,,,,main,2,2,2,negative,negative,j,j,1,0.9653892999995151,450.0735416000025,451.07342160000553,451.0567965000009,None,450.0735416000025,None,450.0735416000025,None,450.0735416000025,None,452.03781285000076,None,452.03781285000076,None,452.03781285000076,None,,,,,,,,,,,,,016,2022-05-12_13h23.56.865,Main,2022.1.1,61.42675933903633,
neutral,negative,1,k,k,,,,,,,,,8,2,146,7,,,,,,,,,main,2,2,1,negative,neutral,k,k,1,0.6008488000006764,452.04345370000374,453.05671820000134,453.04010630000266,None,452.04345370000374,None,452.04345370000374,None,452.04345370000374,None,453.64004055000186,None,453.64004055000186,None,453.64004055000186,None,,,,,,,,,,,,,016,2022-05-12_13h23.56.865,Main,2022.1.1,61.42675933903633,
negative,positive,1,j,l,,,,,,,,,8,3,147,6,,,,,,,,,main,2,2,1,positive,negative,j,j,1,1.2792757999995956,453.64320320000115,454.6566629000008,454.6401036000025,None,453.64320320000115,None,453.64320320000115,None,453.64320320000115,None,455.9210584500026,None,455.9210584500026,None,455.9210584500026,None,,,,,,,,,,,,,016,2022-05-12_13h23.56.865,Main,2022.1.1,61.42675933903633,
negative,neutral,2,j,l,,,,,,,,,8,4,148,12,,,,,,,,,main,1,1,2,neutral,negative,j,j,1,0.8672407999983989,455.92422870000155,456.9233125000028,456.9233125000028,None,455.92422870000155,None,455.92422870000155,None,455.92422870000155,None,457.79000135000314,None,457.79000135000314,None,457.79000135000314,None,,,,,,,,,,,,,016,2022-05-12_13h23.56.865,Main,2022.1.1,61.42675933903633,
positive,negative,1,l,j,,,,,,,,,8,5,149,5,,,,,,,,,main,2,2,1,negative,positive,l,l,1,0.844828499997675,457.7987399000049,458.80400020000525,458.7873308000053,None,457.7987399000049,None,457.7987399000049,None,457.7987399000049,None,459.63730295000204,None,459.63730295000204,None,459.63730295000204,None,,,,,,,,,,,,,016,2022-05-12_13h23.56.865,Main,2022.1.1,61.42675933903633,
neutral,positive,2,k,k,,,,,,,,,8,6,150,13,,,,,,,,,main,1,1,2,positive,neutral,k,k,1,0.7349552000014228,459.6413134000031,460.6539890000058,460.63731960000587,None,459.6413134000031,None,459.6413134000031,None,459.6413134000031,None,461.3706373500019,None,461.3706373500019,None,461.3706373500019,None,,,,,,,,,,,,,016,2022-05-12_13h23.56.865,Main,2022.1.1,61.42675933903633,
positive,negative,2,l,j,,,,,,,,,8,7,151,14,,,,,,,,,main,1,1,2,negative,positive,l,k,0,1.1120490999965114,461.3740820000021,462.3873129000058,462.37064710000413,None,461.3740820000021,None,461.3740820000021,None,461.3740820000021,None,463.4876404000024,None,463.4876404000024,None,463.4876404000024,None,,,,,,,,,,,,,016,2022-05-12_13h23.56.865,Main,2022.1.1,61.42675933903633,
neutral,neutral,1,k,k,,,,,,,,,8,8,152,1,,,,,,,,,main,2,2,1,neutral,neutral,k,k,1,0.767857399994682,464.4881581000009,465.4898398000005,465.47316760000103,None,464.4881581000009,None,464.4881581000009,None,464.4881581000009,None,466.25419455000446,None,466.25419455000446,None,466.25419455000446,None,,,,,,,,,,,,,016,2022-05-12_13h23.56.865,Main,2022.1.1,61.42675933903633,
positive,positive,1,l,j,,,,,,,,,8,9,153,2,,,,,,,,,main,1,1,1,positive,positive,l,l,1,0.9314744000002975,466.25799850000476,467.2730506000007,467.2564338000011,None,466.25799850000476,None,466.25799850000476,None,466.25799850000476,None,468.18748255000463,None,468.18748255000463,None,468.18748255000463,None,,,,,,,,,,,,,016,2022-05-12_13h23.56.865,Main,2022.1.1,61.42675933903633,
neutral,neutral,2,k,k,,,,,,,,,8,10,154,10,,,,,,,,,main,1,1,2,neutral,neutral,k,k,1,0.7663920999984839,468.1922384000063,469.2063452000002,469.1874658000015,None,468.1922384000063,None,468.1922384000063,None,468.1922384000063,None,469.9564455499996,None,469.9564455499996,None,469.9564455499996,None,,,,,,,,,,,,,016,2022-05-12_13h23.56.865,Main,2022.1.1,61.42675933903633,
neutral,negative,2,k,k,,,,,,,,,8,11,155,16,,,,,,,,,main,1,1,2,negative,neutral,k,k,1,0.6789145000002463,469.9591564000002,470.97039910000603,470.95374670000456,None,469.9591564000002,None,469.9591564000002,None,469.9591564000002,None,471.63707535000066,None,471.63707535000066,None,471.63707535000066,None,,,,,,,,,,,,,016,2022-05-12_13h23.56.865,Main,2022.1.1,61.42675933903633,
positive,neutral,1,l,j,,,,,,,,,8,12,156,8,,,,,,,,,main,2,2,1,neutral,positive,l,l,1,0.8024640000003274,471.6418730000005,472.6537668000019,472.6370973000012,None,471.6418730000005,None,471.6418730000005,None,471.6418730000005,None,473.4370621500049,None,473.4370621500049,None,473.4370621500049,None,,,,,,,,,,,,,016,2022-05-12_13h23.56.865,Main,2022.1.1,61.42675933903633,
negative,neutral,1,j,l,,,,,,,,,8,13,157,3,,,,,,,,,main,1,1,1,neutral,negative,j,j,1,0.929120699998748,473.44426250000106,474.4537533000039,474.4204215999998,None,473.44426250000106,None,473.44426250000106,None,473.44426250000106,None,475.3730473500029,None,475.3730473500029,None,475.3730473500029,None,,,,,,,,,,,,,016,2022-05-12_13h23.56.865,Main,2022.1.1,61.42675933903633,
positive,positive,2,l,j,,,,,,,,,8,14,158,11,,,,,,,,,main,2,2,2,positive,positive,l,l,1,0.7964771999977529,475.37679780000326,476.38957720000326,476.3729431000029,None,475.37679780000326,None,475.37679780000326,None,475.37679780000326,None,477.1706519499996,None,477.1706519499996,None,477.1706519499996,None,,,,,,,,,,,,,016,2022-05-12_13h23.56.865,Main,2022.1.1,61.42675933903633,
negative,negative,1,j,l,,,,,,,,,8,15,159,0,,,,,,,,,main,2,2,1,negative,negative,j,j,1,0.8481435000066995,477.1741900000052,478.18956170000456,478.1728523000056,None,477.1741900000052,None,477.1741900000052,None,477.1741900000052,None,479.0205981500032,None,479.0205981500032,None,479.0205981500032,None,,,,,,,,,,,,,016,2022-05-12_13h23.56.865,Main,2022.1.1,61.42675933903633,
positive,neutral,2,l,j,,,,,,,,,8,16,160,17,,,,,,,,,main,2,2,2,neutral,positive,l,l,1,0.8840260000069975,479.02393550000124,480.0394549000048,480.02288890000636,None,479.02393550000124,None,479.02393550000124,None,479.02393550000124,None,480.9060231500036,None,480.9060231500036,None,480.9060231500036,None,,,,,,,,,,,,,016,2022-05-12_13h23.56.865,Main,2022.1.1,61.42675933903633,
neutral,positive,1,k,k,,,,,,,,,8,17,161,4,,,,,,,,,main,2,2,1,positive,neutral,k,k,1,0.762666700000409,480.9089027000009,481.9227486000018,481.9061631000004,None,480.9089027000009,None,480.9089027000009,None,480.9089027000009,None,482.670181450004,None,482.670181450004,None,482.670181450004,None,,,,,,,,,,,,,016,2022-05-12_13h23.56.865,Main,2022.1.1,61.42675933903633,
positive,positive,1,l,j,,,,,,,,,9,0,162,2,,,,,,,,,main,2,2,1,positive,positive,l,l,1,0.7681809999994584,482.67016590000276,483.6701538000052,483.6701538000052,None,482.67016590000276,None,482.67016590000276,None,482.67016590000276,None,484.4368415500059,None,484.4368415500059,None,484.4368415500059,None,,,,,,,,,,,,,016,2022-05-12_13h23.56.865,Main,2022.1.1,61.42675933903633,
neutral,negative,1,k,k,,,,,,,,,9,1,163,7,,,,,,,,,main,2,2,1,negative,neutral,k,k,1,0.8275520999959554,484.4413879000058,485.4534802000053,485.4368156000055,None,484.4413879000058,None,484.4413879000058,None,484.4413879000058,None,486.2701497500013,None,486.2701497500013,None,486.2701497500013,None,,,,,,,,,,,,,016,2022-05-12_13h23.56.865,Main,2022.1.1,61.42675933903633,
positive,positive,2,l,j,,,,,,,,,9,2,164,11,,,,,,,,,main,2,2,2,positive,positive,l,l,1,0.7348567000008188,486.2765690000015,487.2893361000024,487.2560911000037,None,486.2765690000015,None,486.2765690000015,None,486.2765690000015,None,488.0063917500003,None,488.0063917500003,None,488.0063917500003,None,,,,,,,,,,,,,016,2022-05-12_13h23.56.865,Main,2022.1.1,61.42675933903633,
neutral,neutral,2,k,k,,,,,,,,,9,3,165,10,,,,,,,,,main,2,2,2,neutral,neutral,k,k,1,0.8646937000012258,488.01029580000613,489.02266280000185,489.00356500000635,None,488.01029580000613,None,488.01029580000613,None,488.01029580000613,None,489.8726032500046,None,489.8726032500046,None,489.8726032500046,None,,,,,,,,,,,,,016,2022-05-12_13h23.56.865,Main,2022.1.1,61.42675933903633,
neutral,positive,2,k,k,,,,,,,,,9,4,166,13,,,,,,,,,main,2,2,2,positive,neutral,k,k,1,0.8960483000046224,489.8757570000016,490.88927200000035,490.8726800000004,None,489.8757570000016,None,489.8757570000016,None,489.8757570000016,None,491.7700384500051,None,491.7700384500051,None,491.7700384500051,None,,,,,,,,,,,,,016,2022-05-12_13h23.56.865,Main,2022.1.1,61.42675933903633,
neutral,neutral,1,k,k,,,,,,,,,9,5,167,1,,,,,,,,,main,1,1,1,neutral,neutral,k,k,1,0.7649336999966181,491.7762581000061,492.7892043000029,492.7726521000004,None,491.7762581000061,None,491.7762581000061,None,491.7762581000061,None,493.53696034999956,None,493.53696034999956,None,493.53696034999956,None,,,,,,,,,,,,,016,2022-05-12_13h23.56.865,Main,2022.1.1,61.42675933903633,
negative,negative,1,j,l,,,,,,,,,9,6,168,0,,,,,,,,,main,2,2,1,negative,negative,j,j,1,0.7648599000021932,493.5401826000016,494.55326810000406,494.53659440000047,None,493.5401826000016,None,493.5401826000016,None,493.5401826000016,None,495.30322915000505,None,495.30322915000505,None,495.30322915000505,None,,,,,,,,,,,,,016,2022-05-12_13h23.56.865,Main,2022.1.1,61.42675933903633,
positive,neutral,2,l,j,,,,,,,,,9,7,169,17,,,,,,,,,main,1,1,2,neutral,positive,l,l,1,0.7821773000032408,495.3032477000015,496.30328620000364,496.30328620000364,None,495.3032477000015,None,495.3032477000015,None,495.3032477000015,None,497.0869058500022,None,497.0869058500022,None,497.0869058500022,None,,,,,,,,,,,,,016,2022-05-12_13h23.56.865,Main,2022.1.1,61.42675933903633,
negative,positive,1,j,l,,,,,,,,,9,8,170,6,,,,,,,,,main,1,1,1,positive,negative,j,j,1,0.9646670000001905,497.10579930000677,498.1057621,498.0892292999997,None,497.10579930000677,None,497.10579930000677,None,497.10579930000677,None,499.0535193500029,None,499.0535193500029,None,499.0535193500029,None,,,,,,,,,,,,,016,2022-05-12_13h23.56.865,Main,2022.1.1,61.42675933903633,
negative,neutral,1,j,l,,,,,,,,,9,9,171,3,,,,,,,,,main,2,2,1,neutral,negative,j,j,1,0.7479548999981489,499.0572530000063,500.07236589999957,500.0557623000059,None,499.0572530000063,None,499.0572530000063,None,499.0572530000063,None,500.8034855500002,None,500.8034855500002,None,500.8034855500002,None,,,,,,,,,,,,,016,2022-05-12_13h23.56.865,Main,2022.1.1,61.42675933903633,
positive,negative,2,l,j,,,,,,,,,9,10,172,14,,,,,,,,,main,1,1,2,negative,positive,l,l,1,0.815011400001822,500.80662080000184,501.8057171000037,501.8057171000037,None,500.80662080000184,None,500.80662080000184,None,500.80662080000184,None,502.620102650005,None,502.620102650005,None,502.620102650005,None,,,,,,,,,,,,,016,2022-05-12_13h23.56.865,Main,2022.1.1,61.42675933903633,
positive,negative,1,l,j,,,,,,,,,9,11,173,5,,,,,,,,,main,2,2,1,negative,positive,l,l,1,0.7015084000013303,502.62378180000087,503.6390087000036,503.6057510000028,None,502.62378180000087,None,502.62378180000087,None,502.62378180000087,None,504.32286755000604,None,504.32286755000604,None,504.32286755000604,None,,,,,,,,,,,,,016,2022-05-12_13h23.56.865,Main,2022.1.1,61.42675933903633,
positive,neutral,1,l,j,,,,,,,,,9,12,174,8,,,,,,,,,main,1,1,1,neutral,positive,l,l,1,0.7951200000024983,504.33608690000256,505.33637970000564,505.3197171000065,None,504.33608690000256,None,504.33608690000256,None,504.33608690000256,None,506.11970005000256,None,506.11970005000256,None,506.11970005000256,None,,,,,,,,,,,,,016,2022-05-12_13h23.56.865,Main,2022.1.1,61.42675933903633,
negative,neutral,2,j,l,,,,,,,,,9,13,175,12,,,,,,,,,main,1,1,2,neutral,negative,j,j,1,0.8821539999989909,506.1200991000005,507.1223708000034,507.1223708000034,None,506.1200991000005,None,506.1200991000005,None,506.1200991000005,None,508.0033532500012,None,508.0033532500012,None,508.0033532500012,None,,,,,,,,,,,,,016,2022-05-12_13h23.56.865,Main,2022.1.1,61.42675933903633,
neutral,negative,2,k,k,,,,,,,,,9,14,176,16,,,,,,,,,main,1,1,2,negative,neutral,k,k,1,0.7318608999994467,508.00660620000417,509.00554450000345,508.98895900000207,None,508.00660620000417,None,508.00660620000417,None,508.00660620000417,None,509.736637950001,None,509.736637950001,None,509.736637950001,None,,,,,,,,,,,,,016,2022-05-12_13h23.56.865,Main,2022.1.1,61.42675933903633,
negative,negative,2,j,l,,,,,,,,,9,15,177,9,,,,,,,,,main,2,2,2,negative,negative,j,j,1,0.7149279000004753,509.73991039999964,510.73896990000503,510.73896990000503,None,509.73991039999964,None,509.73991039999964,None,509.73991039999964,None,511.45326045000473,None,511.45326045000473,None,511.45326045000473,None,,,,,,,,,,,,,016,2022-05-12_13h23.56.865,Main,2022.1.1,61.42675933903633,
negative,positive,2,j,l,,,,,,,,,9,16,178,15,,,,,,,,,main,1,1,2,positive,negative,j,j,1,0.7319113999983529,511.4563812000051,512.4555149000007,512.4555149000007,None,511.4563812000051,None,511.4563812000051,None,511.4563812000051,None,513.1865834500052,None,513.1865834500052,None,513.1865834500052,None,,,,,,,,,,,,,016,2022-05-12_13h23.56.865,Main,2022.1.1,61.42675933903633,
neutral,positive,1,k,k,,,,,,,,,9,17,179,4,,,,,,,,,main,2,2,1,positive,neutral,k,k,1,0.6325266000058036,513.1922193999999,514.2054803000065,514.1888128999999,None,513.1922193999999,None,513.1922193999999,None,513.1922193999999,None,514.8195075500037,None,514.8195075500037,None,514.8195075500037,None,,,,,,,,,,,,,016,2022-05-12_13h23.56.865,Main,2022.1.1,61.42675933903633,
negative,positive,2,j,l,,,,,,,,,10,0,180,15,,,,,,,,,main,1,1,2,positive,negative,j,j,1,0.7639943000031053,514.8362354000055,515.8361763000066,515.8197954000061,None,514.8362354000055,None,514.8362354000055,None,514.8362354000055,None,516.5861982500057,None,516.5861982500057,None,516.5861982500057,None,,,,,,,,,,,,,016,2022-05-12_13h23.56.865,Main,2022.1.1,61.42675933903633,
negative,neutral,1,j,l,,,,,,,,,10,1,181,3,,,,,,,,,main,1,1,1,neutral,negative,j,j,1,0.8318451000013738,516.5894393000053,517.5888068000058,517.5888068000058,None,516.5894393000053,None,516.5894393000053,None,516.5894393000053,None,518.4197819500034,None,518.4197819500034,None,518.4197819500034,None,,,,,,,,,,,,,016,2022-05-12_13h23.56.865,Main,2022.1.1,61.42675933903633,
negative,positive,1,j,l,,,,,,,,,10,2,182,6,,,,,,,,,main,1,1,1,positive,negative,j,j,1,0.5817483000064385,518.4229957999996,519.4219430000012,519.4053593000062,None,518.4229957999996,None,518.4229957999996,None,518.4229957999996,None,520.0030832500045,None,520.0030832500045,None,520.0030832500045,None,,,,,,,,,,,,,016,2022-05-12_13h23.56.865,Main,2022.1.1,61.42675933903633,
neutral,negative,1,k,k,,,,,,,,,10,3,183,7,,,,,,,,,main,2,2,1,negative,neutral,k,k,1,0.6478342999980669,520.0219974000065,521.021991900001,521.0054008000006,None,520.0219974000065,None,520.0219974000065,None,520.0219974000065,None,521.6530429500046,None,521.6530429500046,None,521.6530429500046,None,,,,,,,,,,,,,016,2022-05-12_13h23.56.865,Main,2022.1.1,61.42675933903633,
positive,positive,1,l,j,,,,,,,,,10,4,184,2,,,,,,,,,main,1,1,1,positive,positive,l,l,1,0.7983557999978075,521.6561368000039,522.6552993000005,522.6552993000005,None,521.6561368000039,None,521.6561368000039,None,521.6561368000039,None,523.4530033500043,None,523.4530033500043,None,523.4530033500043,None,,,,,,,,,,,,,016,2022-05-12_13h23.56.865,Main,2022.1.1,61.42675933903633,
positive,negative,2,l,j,,,,,,,,,10,5,185,14,,,,,,,,,main,1,1,2,negative,positive,l,l,1,0.7317320000001928,523.4569845000005,524.4718702000027,524.4553331999996,None,523.4569845000005,None,523.4569845000005,None,523.4569845000005,None,525.1863054500056,None,525.1863054500056,None,525.1863054500056,None,,,,,,,,,,,,,016,2022-05-12_13h23.56.865,Main,2022.1.1,61.42675933903633,
neutral,neutral,2,k,k,,,,,,,,,10,6,186,10,,,,,,,,,main,1,1,2,neutral,neutral,k,k,1,0.6482210000031046,525.1902722000013,526.2026091000007,526.1859507000045,None,525.1902722000013,None,525.1902722000013,None,525.1902722000013,None,526.8359159500026,None,526.8359159500026,None,526.8359159500026,None,,,,,,,,,,,,,016,2022-05-12_13h23.56.865,Main,2022.1.1,61.42675933903633,
positive,neutral,1,l,j,,,,,,,,,10,7,187,8,,,,,,,,,main,2,2,1,neutral,positive,l,l,1,0.8823569000014686,526.8359313000037,527.8359629000042,527.8359629000042,None,526.8359313000037,None,526.8359313000037,None,526.8359313000037,None,528.7198562500046,None,528.7198562500046,None,528.7198562500046,None,,,,,,,,,,,,,016,2022-05-12_13h23.56.865,Main,2022.1.1,61.42675933903633,
positive,positive,2,l,j,,,,,,,,,10,8,188,11,,,,,,,,,main,2,2,2,positive,positive,l,l,1,0.7545096999965608,528.7263134000023,529.7384493000063,529.7199348000067,None,528.7263134000023,None,528.7263134000023,None,528.7263134000023,None,530.4718488499996,None,530.4718488499996,None,530.4718488499996,None,,,,,,,,,,,,,016,2022-05-12_13h23.56.865,Main,2022.1.1,61.42675933903633,
negative,neutral,2,j,l,,,,,,,,,10,9,189,12,,,,,,,,,main,1,1,2,neutral,negative,j,j,1,0.7245065999959479,530.4856417000046,531.4884605000043,531.469803800006,None,530.4856417000046,None,530.4856417000046,None,530.4856417000046,None,532.2028522500034,None,532.2028522500034,None,532.2028522500034,None,,,,,,,,,,,,,016,2022-05-12_13h23.56.865,Main,2022.1.1,61.42675933903633,
negative,negative,2,j,l,,,,,,,,,10,10,190,9,,,,,,,,,main,2,2,2,negative,negative,j,j,1,0.7698798999990686,532.2060681000003,533.2050749000045,533.2050749000045,None,532.2060681000003,None,532.2060681000003,None,532.2060681000003,None,533.9716977500059,None,533.9716977500059,None,533.9716977500059,None,,,,,,,,,,,,,016,2022-05-12_13h23.56.865,Main,2022.1.1,61.42675933903633,
neutral,positive,1,k,k,,,,,,,,,10,11,191,4,,,,,,,,,main,2,2,1,positive,neutral,k,k,1,0.6771873999969102,533.9772662000032,534.9883563000039,534.9716411000045,None,533.9772662000032,None,533.9772662000032,None,533.9772662000032,None,535.652872650003,None,535.652872650003,None,535.652872650003,None,,,,,,,,,,,,,016,2022-05-12_13h23.56.865,Main,2022.1.1,61.42675933903633,
positive,neutral,2,l,j,,,,,,,,,10,12,192,17,,,,,,,,,main,1,1,2,neutral,positive,l,l,1,0.8313276000044425,535.6686767000065,536.6690693000055,536.6524036000046,None,535.6686767000065,None,535.6686767000065,None,535.6686767000065,None,537.4857038500043,None,537.4857038500043,None,537.4857038500043,None,,,,,,,,,,,,,016,2022-05-12_13h23.56.865,Main,2022.1.1,61.42675933903633,
positive,negative,1,l,j,,,,,,,,,10,13,193,5,,,,,,,,,main,2,2,1,negative,positive,l,l,1,0.8986707000003662,537.4857206000015,538.4883504000027,538.4883504000027,None,537.4857206000015,None,537.4857206000015,None,537.4857206000015,None,539.3860247500045,None,539.3860247500045,None,539.3860247500045,None,,,,,,,,,,,,,016,2022-05-12_13h23.56.865,Main,2022.1.1,61.42675933903633,
neutral,positive,2,k,k,,,,,,,,,10,14,194,13,,,,,,,,,main,2,2,2,positive,neutral,k,k,1,0.7321647999997367,539.3895623999997,540.4048997000064,540.3882987000034,None,539.3895623999997,None,539.3895623999997,None,539.3895623999997,None,541.1194455500001,None,541.1194455500001,None,541.1194455500001,None,,,,,,,,,,,,,016,2022-05-12_13h23.56.865,Main,2022.1.1,61.42675933903633,
neutral,negative,2,k,k,,,,,,,,,10,15,195,16,,,,,,,,,main,1,1,2,negative,neutral,k,k,1,0.7335122000004048,541.1232988000047,542.1381289000055,542.1215415000042,None,541.1232988000047,None,541.1232988000047,None,541.1232988000047,None,542.8548239500008,None,542.8548239500008,None,542.8548239500008,None,,,,,,,,,,,,,016,2022-05-12_13h23.56.865,Main,2022.1.1,61.42675933903633,
neutral,neutral,1,k,k,,,,,,,,,10,16,196,1,,,,,,,,,main,1,1,1,neutral,neutral,k,k,1,0.7293879999997444,542.8576153000031,543.8714031000054,543.8549038000056,None,542.8576153000031,None,542.8576153000031,None,542.8576153000031,None,544.5858995500014,None,544.5858995500014,None,544.5858995500014,None,,,,,,,,,,,,,016,2022-05-12_13h23.56.865,Main,2022.1.1,61.42675933903633,
negative,negative,1,j,l,,,,,,,,,10,17,197,0,,,,,,,,,main,2,2,1,negative,negative,j,j,1,1.1646374999982072,544.5913094999996,545.6047813000041,545.5881607000047,None,544.5913094999996,None,544.5913094999996,None,544.5913094999996,None,546.7521737500058,None,546.7521737500058,None,546.7521737500058,None,,,,,,,,,,,,,016,2022-05-12_13h23.56.865,Main,2022.1.1,61.42675933903633,
positive,negative,2,l,j,,,,,,,,,11,0,198,14,,,,,,,,,main,1,1,2,negative,positive,l,l,1,0.7153300000063609,546.7522731000063,547.7521806000004,547.7521806000004,None,546.7522731000063,None,546.7522731000063,None,546.7522731000063,None,548.4688602500021,None,548.4688602500021,None,548.4688602500021,None,,,,,,,,,,,,,016,2022-05-12_13h23.56.865,Main,2022.1.1,61.42675933903633,
neutral,negative,2,k,k,,,,,,,,,11,1,199,16,,,,,,,,,main,2,2,2,negative,neutral,k,k,1,0.782055700001365,548.4697067000016,549.468864800001,549.468864800001,None,548.4697067000016,None,548.4697067000016,None,548.4697067000016,None,550.2521928500057,None,550.2521928500057,None,550.2521928500057,None,,,,,,,,,,,,,016,2022-05-12_13h23.56.865,Main,2022.1.1,61.42675933903633,
neutral,negative,1,k,k,,,,,,,,,11,2,200,7,,,,,,,,,main,1,1,1,negative,neutral,k,k,1,0.6982300000017858,550.2558826000022,551.2713363000003,551.2548367000054,None,550.2558826000022,None,550.2558826000022,None,550.2558826000022,None,551.9524519500039,None,551.9524519500039,None,551.9524519500039,None,,,,,,,,,,,,,016,2022-05-12_13h23.56.865,Main,2022.1.1,61.42675933903633,
negative,neutral,1,j,l,,,,,,,,,11,3,201,3,,,,,,,,,main,2,2,1,neutral,negative,j,j,1,1.0168639000039548,551.9713416000013,552.971326400002,552.9547181000016,None,551.9713416000013,None,551.9713416000013,None,551.9713416000013,None,553.9713184500063,None,553.9713184500063,None,553.9713184500063,None,,,,,,,,,,,,,016,2022-05-12_13h23.56.865,Main,2022.1.1,61.42675933903633,
positive,positive,2,l,j,,,,,,,,,11,4,202,11,,,,,,,,,main,2,2,2,positive,positive,l,l,1,0.814909799999441,553.9746827000054,554.9879053000041,554.9713224000006,None,553.9746827000054,None,553.9746827000054,None,553.9746827000054,None,555.78791785,None,555.78791785,None,555.78791785,None,,,,,,,,,,,,,016,2022-05-12_13h23.56.865,Main,2022.1.1,61.42675933903633,
negative,neutral,2,j,l,,,,,,,,,11,5,203,12,,,,,,,,,main,1,1,2,neutral,negative,j,j,1,0.9300809000051231,555.7907567000002,556.8046133000025,556.7879979999998,None,555.7907567000002,None,555.7907567000002,None,555.7907567000002,None,557.7192457500053,None,557.7192457500053,None,557.7192457500053,None,,,,,,,,,,,,,016,2022-05-12_13h23.56.865,Main,2022.1.1,61.42675933903633,
positive,negative,1,l,j,,,,,,,,,11,6,204,5,,,,,,,,,main,1,1,1,negative,positive,l,j,0,1.1143162999942433,557.7229771000057,558.7352955000024,558.7188335000028,None,557.7229771000057,None,557.7229771000057,None,557.7229771000057,None,559.835275700003,None,559.835275700003,None,559.835275700003,None,,,,,,,,,,,,,016,2022-05-12_13h23.56.865,Main,2022.1.1,61.42675933903633,
neutral,positive,1,k,k,,,,,,,,,11,7,205,4,,,,,,,,,main,1,1,1,positive,neutral,k,k,1,0.7384918000025209,560.835275700003,561.8353564999998,561.818614200005,None,560.835275700003,None,560.835275700003,None,560.835275700003,None,562.5712012500001,None,562.5712012500001,None,562.5712012500001,None,,,,,,,,,,,,,016,2022-05-12_13h23.56.865,Main,2022.1.1,61.42675933903633,
positive,positive,1,l,j,,,,,,,,,11,8,206,2,,,,,,,,,main,1,1,1,positive,positive,l,j,0,1.2625909999987925,562.574079900005,563.587841200002,563.5711639000001,None,562.574079900005,None,562.574079900005,None,562.574079900005,None,564.8355398000058,None,564.8355398000058,None,564.8355398000058,None,,,,,,,,,,,,,016,2022-05-12_13h23.56.865,Main,2022.1.1,61.42675933903633,
neutral,positive,2,k,k,,,,,,,,,11,9,207,13,,,,,,,,,main,1,1,2,positive,neutral,k,k,1,0.7678463999982341,565.8360906000016,566.8377259000044,566.8211112000063,None,565.8360906000016,None,565.8360906000016,None,565.8360906000016,None,567.6021198500014,None,567.6021198500014,None,567.6021198500014,None,,,,,,,,,,,,,016,2022-05-12_13h23.56.865,Main,2022.1.1,61.42675933903633,
negative,positive,1,j,l,,,,,,,,,11,10,208,6,,,,,,,,,main,2,2,1,positive,negative,j,j,1,0.8004876999984845,567.6060351000051,568.6209570000065,568.6019150000066,None,567.6060351000051,None,567.6060351000051,None,567.6060351000051,None,569.4043700500035,None,569.4043700500035,None,569.4043700500035,None,,,,,,,,,,,,,016,2022-05-12_13h23.56.865,Main,2022.1.1,61.42675933903633,
positive,neutral,1,l,j,,,,,,,,,11,11,209,8,,,,,,,,,main,2,2,1,neutral,positive,l,l,1,0.9125521000023582,569.407526300005,570.418373200002,570.401706800003,None,569.407526300005,None,569.407526300005,None,569.407526300005,None,571.318331450005,None,571.318331450005,None,571.318331450005,None,,,,,,,,,,,,,016,2022-05-12_13h23.56.865,Main,2022.1.1,61.42675933903633,
neutral,neutral,2,k,k,,,,,,,,,11,12,210,10,,,,,,,,,main,1,1,2,neutral,neutral,k,k,1,0.8485868999996455,571.3183497000064,572.3183485000045,572.3183485000045,None,571.3183497000064,None,571.3183497000064,None,571.3183497000064,None,573.1683438500033,None,573.1683438500033,None,573.1683438500033,None,,,,,,,,,,,,,016,2022-05-12_13h23.56.865,Main,2022.1.1,61.42675933903633,
negative,negative,2,j,l,,,,,,,,,11,13,211,9,,,,,,,,,main,2,2,2,negative,negative,j,j,1,0.8679496999975527,573.1693052000046,574.1683718000058,574.1683718000058,None,573.1693052000046,None,573.1693052000046,None,573.1693052000046,None,575.0378387500016,None,575.0378387500016,None,575.0378387500016,None,,,,,,,,,,,,,016,2022-05-12_13h23.56.865,Main,2022.1.1,61.42675933903633,
neutral,neutral,1,k,k,,,,,,,,,11,14,212,1,,,,,,,,,main,2,2,1,neutral,neutral,k,k,1,0.7461287999976776,575.0424414000008,576.0546003000054,576.0376841000034,None,575.0424414000008,None,575.0424414000008,None,575.0424414000008,None,576.7856442500045,None,576.7856442500045,None,576.7856442500045,None,,,,,,,,,,,,,016,2022-05-12_13h23.56.865,Main,2022.1.1,61.42675933903633,
negative,negative,1,j,l,,,,,,,,,11,15,213,0,,,,,,,,,main,1,1,1,negative,negative,j,j,1,0.8478592999963439,576.7919751000009,577.8041807000045,577.7875612999997,None,576.7919751000009,None,576.7919751000009,None,576.7919751000009,None,578.6352068500048,None,578.6352068500048,None,578.6352068500048,None,,,,,,,,,,,,,016,2022-05-12_13h23.56.865,Main,2022.1.1,61.42675933903633,
positive,neutral,2,l,j,,,,,,,,,11,16,214,17,,,,,,,,,main,1,1,2,neutral,positive,l,l,1,0.7816260000035982,578.6384796000057,579.6540528000041,579.6374729000017,None,578.6384796000057,None,578.6384796000057,None,578.6384796000057,None,580.4185239499996,None,580.4185239499996,None,580.4185239499996,None,,,,,,,,,,,,,016,2022-05-12_13h23.56.865,Main,2022.1.1,61.42675933903633,
negative,positive,2,j,l,,,,,,,,,11,17,215,15,,,,,,,,,main,1,1,2,positive,negative,j,j,1,0.8194059000015841,580.4220940000014,581.4374100000059,581.4040779999996,None,580.4220940000014,None,580.4220940000014,None,580.4220940000014,None,582.2393239500009,None,582.2393239500009,None,582.2393239500009,None,,,,,,,,,,,,,016,2022-05-12_13h23.56.865,Main,2022.1.1,61.42675933903633,
neutral,neutral,1,k,k,,,,,,,,,12,0,216,1,,,,,,,,,main,2,2,1,neutral,neutral,k,k,1,0.7606123000005027,582.251691700003,583.2514361000067,583.2347723000057,None,582.251691700003,None,582.251691700003,None,582.251691700003,None,584.0014027500067,None,584.0014027500067,None,584.0014027500067,None,,,,,,,,,,,,,016,2022-05-12_13h23.56.865,Main,2022.1.1,61.42675933903633,
positive,negative,2,l,j,,,,,,,,,12,1,217,14,,,,,,,,,main,1,1,2,negative,positive,l,l,1,1.0652227000027779,584.0014203000028,585.0014270000029,585.0014270000029,None,584.0014203000028,None,584.0014203000028,None,584.0014203000028,None,586.0680949500013,None,586.0680949500013,None,586.0680949500013,None,,,,,,,,,,,,,016,2022-05-12_13h23.56.865,Main,2022.1.1,61.42675933903633,
negative,negative,2,j,l,,,,,,,,,12,2,218,9,,,,,,,,,main,2,2,2,negative,negative,j,j,1,1.0818345000006957,586.0711876000059,587.0705981000065,587.0540065000023,None,586.0711876000059,None,586.0711876000059,None,586.0711876000059,None,588.1516872500063,None,588.1516872500063,None,588.1516872500063,None,,,,,,,,,,,,,016,2022-05-12_13h23.56.865,Main,2022.1.1,61.42675933903633,
positive,positive,2,l,j,,,,,,,,,12,3,219,11,,,,,,,,,main,1,1,2,positive,positive,l,l,1,0.8837777000007918,588.1557921000058,589.1705979000035,589.1539569000015,None,588.1557921000058,None,588.1557921000058,None,588.1557921000058,None,590.037210450005,None,590.037210450005,None,590.037210450005,None,,,,,,,,,,,,,016,2022-05-12_13h23.56.865,Main,2022.1.1,61.42675933903633,
negative,negative,1,j,l,,,,,,,,,12,4,220,0,,,,,,,,,main,1,1,1,negative,negative,j,j,1,0.8613750000004075,590.0427602000054,591.0537792000032,591.0349523000041,None,590.0427602000054,None,590.0427602000054,None,590.0427602000054,None,591.9015911500021,None,591.9015911500021,None,591.9015911500021,None,,,,,,,,,,,,,016,2022-05-12_13h23.56.865,Main,2022.1.1,61.42675933903633,
positive,negative,1,l,j,,,,,,,,,12,5,221,5,,,,,,,,,main,2,2,1,negative,positive,l,l,1,1.0450543000042671,591.9048771000016,592.9205020000009,592.9038590000055,None,591.9048771000016,None,591.9048771000016,None,591.9048771000016,None,593.9476483500032,None,593.9476483500032,None,593.9476483500032,None,,,,,,,,,,,,,016,2022-05-12_13h23.56.865,Main,2022.1.1,61.42675933903633,
negative,positive,2,j,l,,,,,,,,,12,6,222,15,,,,,,,,,main,2,2,2,positive,negative,j,j,1,0.9514397000020836,593.9481102000063,594.951188900006,594.951188900006,None,593.9481102000063,None,593.9481102000063,None,593.9481102000063,None,595.9012250500011,None,595.9012250500011,None,595.9012250500011,None,,,,,,,,,,,,,016,2022-05-12_13h23.56.865,Main,2022.1.1,61.42675933903633,
neutral,neutral,2,k,k,,,,,,,,,12,7,223,10,,,,,,,,,main,2,2,2,neutral,neutral,k,,0,1.3203531000035582,595.9044622000001,596.9038782000061,596.9038782000061,None,595.9044622000001,None,595.9044622000001,None,595.9044622000001,None,598.2181434000013,None,598.2181434000013,None,598.2181434000013,None,,,,,,,,,,,,,016,2022-05-12_13h23.56.865,Main,2022.1.1,61.42675933903633,
neutral,negative,1,k,k,,,,,,,,,12,8,224,7,,,,,,,,,main,2,2,1,negative,neutral,k,k,1,0.8512450999987777,599.2192271000022,600.2183722000045,600.203935000005,None,599.2192271000022,None,599.2192271000022,None,599.2192271000022,None,601.0685100500043,None,601.0685100500043,None,601.0685100500043,None,,,,,,,,,,,,,016,2022-05-12_13h23.56.865,Main,2022.1.1,61.42675933903633,
