target,distractor,set,ans1,ans2,rep_loop2.thisRepN,rep_loop2.thisTrialN,rep_loop2.thisN,rep_loop2.thisIndex,flanker_prac_loop.thisRepN,flanker_prac_loop.thisTrialN,flanker_prac_loop.thisN,flanker_prac_loop.thisIndex,flanker_main_loop.thisRepN,flanker_main_loop.thisTrialN,flanker_main_loop.thisN,flanker_main_loop.thisIndex,fl_inst_resp.keys,fl_inst_resp.rt,sound_1.started,sound_1.stopped,image_4.started,image_4.stopped,back_2.started,back_2.stopped,main_prac,fl_cold,fl_colt,fl_set,fl_dcond,fl_tcond,fl_ans,fl_res,fl_corr,fl_rt,fix_fl.started,fix_fl.stopped,targ.started,targ.stopped,j_button.started,j_button.stopped,k_button.started,k_button.stopped,l_button.started,l_button.stopped,j_button2.started,j_button2.stopped,k_button2.started,k_button2.stopped,l_button2.started,l_button2.stopped,mainback.started,mainback.stopped,key_resp.keys,mouse_6.x,mouse_6.y,mouse_6.leftButton,mouse_6.midButton,mouse_6.rightButton,mouse_6.started,mouse_6.stopped,text_2.started,text_2.stopped,id*,date,expName,psychopyVersion,frameRate,
,,,,,0,0,0,0,,,,,,,,,space,70.74454220000189,36.841430420005054,None,107.60356400000455,None,,,,,,,,,,,,,,,,,,,,,,,,,,,,,,,,,,,,,,,,,017,2022-05-12_17h52.30.403,Main,2022.1.1,60.18853456310108,
negative,negative,1,j,l,,,,,0,0,0,0,,,,,,,,,,,111.41755650000414,None,prac,2,2,1,negative,negative,l,l,1,5.895146199996816,113.42435440000554,114.43698450000375,114.41819720000785,None,113.42435440000554,None,113.42435440000554,None,113.42435440000554,None,120.31796400000167,None,120.31796400000167,None,120.31796400000167,None,,,,,,,,,,,,,017,2022-05-12_17h52.30.403,Main,2022.1.1,60.18853456310108,
positive,negative,2,l,j,,,,,0,1,1,14,,,,,,,,,,,,,prac,2,2,2,negative,positive,j,j,1,1.2191713000065647,121.31755380000686,122.31766980000248,122.31766980000248,None,121.31755380000686,None,121.31755380000686,None,121.31755380000686,None,123.53396372000134,None,123.53396372000134,None,123.53396372000134,None,,,,,,,,,,,,,017,2022-05-12_17h52.30.403,Main,2022.1.1,60.18853456310108,
negative,positive,1,j,l,,,,,0,2,2,6,,,,,,,,,,,,,prac,2,2,1,positive,negative,l,l,1,1.0149729999975534,123.53757140001107,124.55316720000701,124.53450340000563,None,123.53757140001107,None,123.53757140001107,None,123.53757140001107,None,125.55057512000349,None,125.55057512000349,None,125.55057512000349,None,,,,,,,,,,,,,017,2022-05-12_17h52.30.403,Main,2022.1.1,60.18853456310108,
neutral,positive,1,k,k,,,,,0,3,3,4,,,,,,,,,,,,,prac,1,1,1,positive,neutral,k,k,1,0.951222300005611,125.56779480000841,126.56974479999917,126.55312799999956,None,125.56779480000841,None,125.56779480000841,None,125.56779480000841,None,127.50314662000892,None,127.50314662000892,None,127.50314662000892,None,,,,,,,,,,,,,017,2022-05-12_17h52.30.403,Main,2022.1.1,60.18853456310108,
neutral,neutral,1,k,k,,,,,0,4,4,1,,,,,,,,,,,,,prac,1,1,1,neutral,neutral,k,k,1,0.7461821000033524,127.50537070000428,128.51774190001015,128.50062410000828,None,127.50537070000428,None,127.50537070000428,None,127.50537070000428,None,129.250803120005,None,129.250803120005,None,129.250803120005,None,,,,,,,,,,,,,017,2022-05-12_17h52.30.403,Main,2022.1.1,60.18853456310108,
neutral,negative,2,k,k,,,,,0,5,5,16,,,,,,,,,,,,,prac,1,1,2,negative,neutral,k,k,1,0.9819502999889664,129.25731570000062,130.26715440000407,130.2501168000017,None,129.25731570000062,None,129.25731570000062,None,129.25731570000062,None,131.23407072001282,None,131.23407072001282,None,131.23407072001282,None,,,,,,,,,,,,,017,2022-05-12_17h52.30.403,Main,2022.1.1,60.18853456310108,
positive,negative,1,l,j,,,,,0,6,6,5,,,,,,,,,,,,,prac,2,2,1,negative,positive,j,j,1,1.0989049000054365,131.250420700002,132.2504173000052,132.23375440000382,None,131.250420700002,None,131.250420700002,None,131.250420700002,None,133.3341078200101,None,133.3341078200101,None,133.3341078200101,None,,,,,,,,,,,,,017,2022-05-12_17h52.30.403,Main,2022.1.1,60.18853456310108,
neutral,neutral,2,k,k,,,,,0,7,7,10,,,,,,,,,,,,,prac,1,1,2,neutral,neutral,k,k,1,0.9839857000042684,133.33432970001013,134.3336968000076,134.3336968000076,None,133.33432970001013,None,133.33432970001013,None,133.33432970001013,None,135.31958221999957,None,135.31958221999957,None,135.31958221999957,None,,,,,,,,,,,,,017,2022-05-12_17h52.30.403,Main,2022.1.1,60.18853456310108,
positive,positive,1,l,j,,,,,0,8,8,2,,,,,,,,,,,,,prac,1,1,1,positive,positive,j,j,1,0.9649276999989524,135.32306790001167,136.33676090001245,136.31964600000356,None,135.32306790001167,None,135.32306790001167,None,135.32306790001167,None,137.2863124200012,None,137.2863124200012,None,137.2863124200012,None,,,,,,,,,,,,,017,2022-05-12_17h52.30.403,Main,2022.1.1,60.18853456310108,
negative,neutral,2,j,l,,,,,0,9,9,12,,,,,,,,,,,,,prac,2,2,2,neutral,negative,l,l,1,1.2792883999936748,137.28929970000172,138.30283220000274,138.2862341,None,137.28929970000172,None,137.28929970000172,None,137.28929970000172,None,139.56694232000882,None,139.56694232000882,None,139.56694232000882,None,,,,,,,,,,,,,017,2022-05-12_17h52.30.403,Main,2022.1.1,60.18853456310108,
negative,positive,2,j,l,,,,,0,10,10,15,,,,,,,,,,,,,prac,1,1,2,positive,negative,l,l,1,0.8488729999953648,139.57022860000143,140.56948980000743,140.55291440000292,None,139.57022860000143,None,139.57022860000143,None,139.57022860000143,None,141.41721772000164,None,141.41721772000164,None,141.41721772000164,None,,,,,,,,,,,,,017,2022-05-12_17h52.30.403,Main,2022.1.1,60.18853456310108,
positive,neutral,2,l,j,,,,,0,11,11,17,,,,,,,,,,,,,prac,1,1,2,neutral,positive,j,j,1,0.8149082000018097,141.42118650001066,142.4341229999991,142.40285860000586,None,141.42118650001066,None,141.42118650001066,None,141.42118650001066,None,143.23347632001241,None,143.23347632001241,None,143.23347632001241,None,,,,,,,,,,,,,017,2022-05-12_17h52.30.403,Main,2022.1.1,60.18853456310108,
positive,neutral,1,l,j,,,,,0,12,12,8,,,,,,,,,,,,,prac,1,1,1,neutral,positive,j,j,1,0.7819351999933133,143.23348560000886,144.23371680000855,144.23371680000855,None,143.23348560000886,None,143.23348560000886,None,143.23348560000886,None,145.01685822000582,None,145.01685822000582,None,145.01685822000582,None,,,,,,,,,,,,,017,2022-05-12_17h52.30.403,Main,2022.1.1,60.18853456310108,
negative,negative,2,j,l,,,,,0,13,13,9,,,,,,,,,,,,,prac,1,1,2,negative,negative,l,l,1,0.8344068000005791,145.0197143000114,146.01936710000155,146.00268660001166,None,145.0197143000114,None,145.0197143000114,None,145.0197143000114,None,146.85261072000867,None,146.85261072000867,None,146.85261072000867,None,,,,,,,,,,,,,017,2022-05-12_17h52.30.403,Main,2022.1.1,60.18853456310108,
negative,neutral,1,j,l,,,,,0,14,14,3,,,,,,,,,,,,,prac,2,2,1,neutral,negative,l,l,1,1.2630936999921687,146.85509720000846,147.86931110000296,147.85274470000877,None,146.85509720000846,None,146.85509720000846,None,146.85509720000846,None,149.11707942000794,None,149.11707942000794,None,149.11707942000794,None,,,,,,,,,,,,,017,2022-05-12_17h52.30.403,Main,2022.1.1,60.18853456310108,
neutral,positive,2,k,k,,,,,0,15,15,13,,,,,,,,,,,,,prac,2,2,2,positive,neutral,k,k,1,0.7486882999946829,149.12147270000423,150.1359691000107,150.11931410001125,None,149.12147270000423,None,149.12147270000423,None,149.12147270000423,None,150.86700362001284,None,150.86700362001284,None,150.86700362001284,None,,,,,,,,,,,,,017,2022-05-12_17h52.30.403,Main,2022.1.1,60.18853456310108,
positive,positive,2,l,j,,,,,0,16,16,11,,,,,,,,,,,,,prac,2,2,2,positive,positive,j,j,1,0.7801332000090042,150.87098730000434,151.88578720000805,151.86929220000457,None,150.87098730000434,None,150.87098730000434,None,150.87098730000434,None,152.64915391999966,None,152.64915391999966,None,152.64915391999966,None,,,,,,,,,,,,,017,2022-05-12_17h52.30.403,Main,2022.1.1,60.18853456310108,
neutral,negative,1,k,k,,,,,0,17,17,7,,,,,,,,,,,,,prac,2,2,1,negative,neutral,k,k,1,0.7829386000084924,152.65978330001235,153.6666225000081,153.64995390000695,None,152.65978330001235,None,152.65978330001235,None,152.65978330001235,None,154.43325502001244,None,154.43325502001244,None,154.43325502001244,None,,,,,,,,,,,,,017,2022-05-12_17h52.30.403,Main,2022.1.1,60.18853456310108,
neutral,neutral,1,k,k,,,,,1,0,18,1,,,,,,,,,,,,,prac,1,1,1,neutral,neutral,k,k,1,0.7486399999907007,154.4332543000055,155.43328540000948,155.43328540000948,None,154.4332543000055,None,154.4332543000055,None,154.4332543000055,None,156.18327802001295,None,156.18327802001295,None,156.18327802001295,None,,,,,,,,,,,,,017,2022-05-12_17h52.30.403,Main,2022.1.1,60.18853456310108,
positive,negative,2,l,j,,,,,1,1,19,14,,,,,,,,,,,,,prac,2,2,2,negative,positive,j,j,1,0.8844816999917384,156.18616010001278,157.18585780001013,157.169209700005,None,156.18616010001278,None,156.18616010001278,None,156.18616010001278,None,158.06922952000605,None,158.06922952000605,None,158.06922952000605,None,,,,,,,,,,,,,017,2022-05-12_17h52.30.403,Main,2022.1.1,60.18853456310108,
neutral,neutral,2,k,k,,,,,1,2,20,10,,,,,,,,,,,,,prac,2,2,2,neutral,neutral,k,k,1,0.7290017999912379,158.0727520000073,159.0857404999988,159.06918270001188,None,158.0727520000073,None,158.0727520000073,None,158.0727520000073,None,159.80016522001097,None,159.80016522001097,None,159.80016522001097,None,,,,,,,,,,,,,017,2022-05-12_17h52.30.403,Main,2022.1.1,60.18853456310108,
negative,negative,2,j,l,,,,,1,3,21,9,,,,,,,,,,,,,prac,1,1,2,negative,negative,l,l,1,1.0011264999920968,159.80394589999923,160.81903900000907,160.80245110001124,None,159.80394589999923,None,159.80394589999923,None,159.80394589999923,None,161.80234172000928,None,161.80234172000928,None,161.80234172000928,None,,,,,,,,,,,,,017,2022-05-12_17h52.30.403,Main,2022.1.1,60.18853456310108,
positive,positive,2,l,j,,,,,1,4,22,11,,,,,,,,,,,,,prac,2,2,2,positive,positive,j,j,1,0.9129870000033407,161.80619139999908,162.8189798000094,162.80008840000664,None,161.80619139999908,None,161.80619139999908,None,161.80619139999908,None,163.7175900200018,None,163.7175900200018,None,163.7175900200018,None,,,,,,,,,,,,,017,2022-05-12_17h52.30.403,Main,2022.1.1,60.18853456310108,
positive,neutral,2,l,j,,,,,1,5,23,17,,,,,,,,,,,,,prac,1,1,2,neutral,positive,j,j,1,1.2143507000000682,163.72265840000182,164.73303080000915,164.7163666000124,None,163.72265840000182,None,163.72265840000182,None,163.72265840000182,None,165.9330226200036,None,165.9330226200036,None,165.9330226200036,None,,,,,,,,,,,,,017,2022-05-12_17h52.30.403,Main,2022.1.1,60.18853456310108,
negative,neutral,1,j,l,,,,,1,6,24,3,,,,,,,,,,,,,prac,2,2,1,neutral,negative,l,l,1,0.7489684000029229,165.93301550000615,166.93305089999922,166.93305089999922,None,165.93301550000615,None,165.93301550000615,None,165.93301550000615,None,167.6833365200073,None,167.6833365200073,None,167.6833365200073,None,,,,,,,,,,,,,017,2022-05-12_17h52.30.403,Main,2022.1.1,60.18853456310108,
neutral,positive,1,k,k,,,,,1,7,25,4,,,,,,,,,,,,,prac,1,1,1,positive,neutral,k,k,1,0.715387300006114,167.68687570000475,168.70224410000083,168.66897840000456,None,167.68687570000475,None,167.68687570000475,None,167.68687570000475,None,169.3999555200062,None,169.3999555200062,None,169.3999555200062,None,,,,,,,,,,,,,017,2022-05-12_17h52.30.403,Main,2022.1.1,60.18853456310108,
neutral,negative,1,k,k,,,,,1,8,26,7,,,,,,,,,,,,,prac,2,2,1,negative,neutral,k,k,1,0.5654589000041597,169.40291699999943,170.40217790000315,170.38558080000803,None,169.40291699999943,None,169.40291699999943,None,169.40291699999943,None,170.96659452000313,None,170.96659452000313,None,170.96659452000313,None,,,,,,,,,,,,,017,2022-05-12_17h52.30.403,Main,2022.1.1,60.18853456310108,
positive,neutral,1,l,j,,,,,1,9,27,8,,,,,,,,,,,,,prac,2,2,1,neutral,positive,j,j,1,0.6820153000007849,170.9696416000079,171.96888820000459,171.96888820000459,None,170.9696416000079,None,170.9696416000079,None,170.9696416000079,None,172.64987922000728,None,172.64987922000728,None,172.64987922000728,None,,,,,,,,,,,,,017,2022-05-12_17h52.30.403,Main,2022.1.1,60.18853456310108,
neutral,positive,2,k,k,,,,,1,10,28,13,,,,,,,,,,,,,prac,2,2,2,positive,neutral,k,k,1,0.6310817999910796,172.66882630001055,173.68836990000273,173.64961570000742,None,172.66882630001055,None,172.66882630001055,None,172.66882630001055,None,174.28284712001187,None,174.28284712001187,None,174.28284712001187,None,,,,,,,,,,,,,017,2022-05-12_17h52.30.403,Main,2022.1.1,60.18853456310108,
neutral,negative,2,k,k,,,,,1,11,29,16,,,,,,,,,,,,,prac,2,2,2,negative,neutral,k,k,1,0.5995301000075415,174.28284559999884,175.28283180001017,175.28283180001017,None,174.28284559999884,None,174.28284559999884,None,174.28284559999884,None,175.88285852000263,None,175.88285852000263,None,175.88285852000263,None,,,,,,,,,,,,,017,2022-05-12_17h52.30.403,Main,2022.1.1,60.18853456310108,
negative,positive,2,j,l,,,,,1,12,30,15,,,,,,,,,,,,,prac,1,1,2,positive,negative,l,j,0,0.5814893000060692,175.8869682000077,176.89952150000317,176.88285120000364,None,175.8869682000077,None,175.8869682000077,None,175.8869682000077,None,177.46617910001078,None,177.46617910001078,None,177.46617910001078,None,,,,,,,,,,,,,017,2022-05-12_17h52.30.403,Main,2022.1.1,60.18853456310108,
positive,positive,1,l,j,,,,,1,13,31,2,,,,,,,,,,,,,prac,1,1,1,positive,positive,j,j,1,0.9013160000031348,178.46677450000425,179.4686905000126,179.45207759999903,None,178.46677450000425,None,178.46677450000425,None,178.46677450000425,None,180.36642382000718,None,180.36642382000718,None,180.36642382000718,None,,,,,,,,,,,,,017,2022-05-12_17h52.30.403,Main,2022.1.1,60.18853456310108,
negative,positive,1,j,l,,,,,1,14,32,6,,,,,,,,,,,,,prac,1,1,1,positive,negative,l,l,1,1.498491099991952,180.369783800008,181.38526940000884,181.36877050000476,None,180.369783800008,None,180.369783800008,None,180.369783800008,None,182.86640422000346,None,182.86640422000346,None,182.86640422000346,None,,,,,,,,,,,,,017,2022-05-12_17h52.30.403,Main,2022.1.1,60.18853456310108,
positive,negative,1,l,j,,,,,1,15,33,5,,,,,,,,,,,,,prac,1,1,1,negative,positive,j,j,1,0.7319940000015777,182.86959110001044,183.86861520000093,183.8520056999987,None,182.86959110001044,None,182.86959110001044,None,182.86959110001044,None,184.59965892000037,None,184.59965892000037,None,184.59965892000037,None,,,,,,,,,,,,,017,2022-05-12_17h52.30.403,Main,2022.1.1,60.18853456310108,
negative,negative,1,j,l,,,,,1,16,34,0,,,,,,,,,,,,,prac,1,1,1,negative,negative,l,l,1,0.848298099997919,184.60263459999987,185.6159442000062,185.59927140000218,None,184.60263459999987,None,184.60263459999987,None,184.60263459999987,None,186.4492682199998,None,186.4492682199998,None,186.4492682199998,None,,,,,,,,,,,,,017,2022-05-12_17h52.30.403,Main,2022.1.1,60.18853456310108,
negative,neutral,2,j,l,,,,,1,17,35,12,,,,,,,,,,,,,prac,1,1,2,neutral,negative,l,l,1,0.7157642999954987,186.4561926000024,187.46596800000407,187.44934490000014,None,186.4561926000024,None,186.4561926000024,None,186.4561926000024,None,188.16629692000424,None,188.16629692000424,None,188.16629692000424,None,,,,,,,,,,,,,017,2022-05-12_17h52.30.403,Main,2022.1.1,60.18853456310108,
,,,,,,,,,,,,,,,,,,,,,,,,,,,,,,,,,,,,,,,,,,,,,,,,,,,188.16854220000096,None,None,,,,,,,,,,017,2022-05-12_17h52.30.403,Main,2022.1.1,60.18853456310108,
,,,,,,,,,,,,,,,,,,,,,,,,,,,,,,,,,,,,,,,,,,,,,,,,,,,,,,0.20092593,-0.34537038,1,0,0,0.01125121999939438,None,,,017,2022-05-12_17h52.30.403,Main,2022.1.1,60.18853456310108,
negative,negative,1,j,l,,,,,,,,,0,0,0,0,,,,,,,208.78229840000859,None,main,2,2,1,negative,negative,l,l,1,0.9450548000022536,210.78933120000875,211.80122780000966,211.7846317000076,None,210.78933120000875,None,210.78933120000875,None,210.78933120000875,None,212.73247812000773,None,212.73247812000773,None,212.73247812000773,None,,,,,,,,,,,,,017,2022-05-12_17h52.30.403,Main,2022.1.1,60.18853456310108,
positive,negative,1,l,j,,,,,,,,,0,1,1,5,,,,,,,,,main,1,1,1,negative,positive,j,j,1,0.7473596999916481,212.73873100000492,213.75139900000067,213.73269830000936,None,212.73873100000492,None,212.73873100000492,None,212.73873100000492,None,214.48237381999934,None,214.48237381999934,None,214.48237381999934,None,,,,,,,,,,,,,017,2022-05-12_17h52.30.403,Main,2022.1.1,60.18853456310108,
negative,positive,1,j,l,,,,,,,,,0,2,2,6,,,,,,,,,main,2,2,1,positive,negative,l,l,1,0.7976485999970464,214.48655710001185,215.50119780001114,215.48235260001093,None,214.48655710001185,None,214.48655710001185,None,214.48655710001185,None,216.28233242000715,None,216.28233242000715,None,216.28233242000715,None,,,,,,,,,,,,,017,2022-05-12_17h52.30.403,Main,2022.1.1,60.18853456310108,
neutral,negative,2,k,k,,,,,,,,,0,3,3,16,,,,,,,,,main,2,2,2,negative,neutral,k,k,1,0.6982434999954421,216.285824400009,217.3012017000001,217.28463160000683,None,216.285824400009,None,216.285824400009,None,216.285824400009,None,217.98226292001345,None,217.98226292001345,None,217.98226292001345,None,,,,,,,,,,,,,017,2022-05-12_17h52.30.403,Main,2022.1.1,60.18853456310108,
negative,negative,2,j,l,,,,,,,,,0,4,4,9,,,,,,,,,main,2,2,2,negative,negative,l,l,1,0.7158685000031255,217.98804080000264,218.99859980000474,218.98193280000123,None,217.98804080000264,None,217.98804080000264,None,217.98804080000264,None,219.69858812000166,None,219.69858812000166,None,219.69858812000166,None,,,,,,,,,,,,,017,2022-05-12_17h52.30.403,Main,2022.1.1,60.18853456310108,
neutral,positive,2,k,k,,,,,,,,,0,5,5,13,,,,,,,,,main,2,2,2,positive,neutral,k,k,1,0.7666095999884419,219.69967560000077,220.71527990000322,220.69861210000818,None,219.69967560000077,None,219.69967560000077,None,219.69967560000077,None,221.4677415200058,None,221.4677415200058,None,221.4677415200058,None,,,,,,,,,,,,,017,2022-05-12_17h52.30.403,Main,2022.1.1,60.18853456310108,
neutral,neutral,1,k,k,,,,,,,,,0,6,6,1,,,,,,,,,main,1,1,1,neutral,neutral,k,k,1,0.7484518999990541,221.4706264000124,222.48475250000774,222.46823420000146,None,221.4706264000124,None,221.4706264000124,None,221.4706264000124,None,223.2178212200015,None,223.2178212200015,None,223.2178212200015,None,,,,,,,,,,,,,017,2022-05-12_17h52.30.403,Main,2022.1.1,60.18853456310108,
neutral,neutral,2,k,k,,,,,,,,,0,7,7,10,,,,,,,,,main,2,2,2,neutral,neutral,k,k,1,0.6461911000078544,223.22072620000108,224.23443820000102,224.21776210000098,None,223.22072620000108,None,223.22072620000108,None,223.22072620000108,None,224.86547482001333,None,224.86547482001333,None,224.86547482001333,None,,,,,,,,,,,,,017,2022-05-12_17h52.30.403,Main,2022.1.1,60.18853456310108,
negative,neutral,1,j,l,,,,,,,,,0,8,8,3,,,,,,,,,main,1,1,1,neutral,negative,l,l,1,0.7510029999975814,224.8694930000056,225.88425709999865,225.86775900000066,None,224.8694930000056,None,224.8694930000056,None,224.8694930000056,None,226.61780702000397,None,226.61780702000397,None,226.61780702000397,None,,,,,,,,,,,,,017,2022-05-12_17h52.30.403,Main,2022.1.1,60.18853456310108,
neutral,positive,1,k,k,,,,,,,,,0,9,9,4,,,,,,,,,main,1,1,1,positive,neutral,k,k,1,0.6720461000077194,226.6220783000026,227.63431069999933,227.61542980000377,None,226.6220783000026,None,226.6220783000026,None,226.6220783000026,None,228.29248292001284,None,228.29248292001284,None,228.29248292001284,None,,,,,,,,,,,,,017,2022-05-12_17h52.30.403,Main,2022.1.1,60.18853456310108,
positive,positive,1,l,j,,,,,,,,,0,10,10,2,,,,,,,,,main,2,2,1,positive,positive,j,j,1,0.7876958000124432,228.29227350000292,229.29840520001017,229.281950900011,None,228.29227350000292,None,228.29227350000292,None,228.29227350000292,None,230.0817626200078,None,230.0817626200078,None,230.0817626200078,None,,,,,,,,,,,,,017,2022-05-12_17h52.30.403,Main,2022.1.1,60.18853456310108,
positive,positive,2,l,j,,,,,,,,,0,11,11,11,,,,,,,,,main,2,2,2,positive,positive,j,j,1,0.8656250000058208,230.08605199999874,231.0984260000114,231.0819671000063,None,230.08605199999874,None,230.08605199999874,None,230.08605199999874,None,231.94892842000263,None,231.94892842000263,None,231.94892842000263,None,,,,,,,,,,,,,017,2022-05-12_17h52.30.403,Main,2022.1.1,60.18853456310108,
positive,neutral,1,l,j,,,,,,,,,0,12,12,8,,,,,,,,,main,1,1,1,neutral,positive,j,j,1,0.7002638999983901,231.95247190000373,232.9675772000046,232.95097940000414,None,231.95247190000373,None,231.95247190000373,None,231.95247190000373,None,233.65091932001087,None,233.65091932001087,None,233.65091932001087,None,,,,,,,,,,,,,017,2022-05-12_17h52.30.403,Main,2022.1.1,60.18853456310108,
positive,neutral,2,l,j,,,,,,,,,0,13,13,17,,,,,,,,,main,1,1,2,neutral,positive,j,j,1,0.81523659999948,233.65374130000419,234.6675632000115,234.65091740000935,None,233.65374130000419,None,233.65374130000419,None,233.65374130000419,None,235.46762512000714,None,235.46762512000714,None,235.46762512000714,None,,,,,,,,,,,,,017,2022-05-12_17h52.30.403,Main,2022.1.1,60.18853456310108,
negative,neutral,2,j,l,,,,,,,,,0,14,14,12,,,,,,,,,main,1,1,2,neutral,negative,l,l,1,0.796366599999601,235.47072150000895,236.48417720000725,236.4676218000095,None,235.47072150000895,None,235.47072150000895,None,235.47072150000895,None,237.26563652000186,None,237.26563652000186,None,237.26563652000186,None,,,,,,,,,,,,,017,2022-05-12_17h52.30.403,Main,2022.1.1,60.18853456310108,
negative,positive,2,j,l,,,,,,,,,0,15,15,15,,,,,,,,,main,2,2,2,positive,negative,l,l,1,0.6316795999882743,237.2720749,238.2840625000099,238.26749550001114,None,237.2720749,None,237.2720749,None,237.2720749,None,238.89854302000458,None,238.89854302000458,None,238.89854302000458,None,,,,,,,,,,,,,017,2022-05-12_17h52.30.403,Main,2022.1.1,60.18853456310108,
neutral,negative,1,k,k,,,,,,,,,0,16,16,7,,,,,,,,,main,1,1,1,negative,neutral,k,k,1,0.6851564000098733,238.90218740000273,239.91508220000833,239.89815540000563,None,238.90218740000273,None,238.90218740000273,None,238.90218740000273,None,240.58148242001334,None,240.58148242001334,None,240.58148242001334,None,,,,,,,,,,,,,017,2022-05-12_17h52.30.403,Main,2022.1.1,60.18853456310108,
positive,negative,2,l,j,,,,,,,,,0,17,17,14,,,,,,,,,main,2,2,2,negative,positive,j,j,1,0.6935125000018161,240.58642360000522,241.59821530000772,241.58175580001262,None,240.58642360000522,None,240.58642360000522,None,240.58642360000522,None,242.28149342000688,None,242.28149342000688,None,242.28149342000688,None,,,,,,,,,,,,,017,2022-05-12_17h52.30.403,Main,2022.1.1,60.18853456310108,
positive,negative,1,l,j,,,,,,,,,1,0,18,5,,,,,,,,,main,2,2,1,negative,positive,j,j,1,0.7319655000028433,242.28491349999967,243.28447330000927,243.28447330000927,None,242.28491349999967,None,242.28491349999967,None,242.28491349999967,None,244.0151257200123,None,244.0151257200123,None,244.0151257200123,None,,,,,,,,,,,,,017,2022-05-12_17h52.30.403,Main,2022.1.1,60.18853456310108,
negative,neutral,2,j,l,,,,,,,,,1,1,19,12,,,,,,,,,main,1,1,2,neutral,negative,l,l,1,0.7651493000012124,244.0189071000059,245.033963400012,245.0174248000112,None,244.0189071000059,None,244.0189071000059,None,244.0189071000059,None,245.78176472000632,None,245.78176472000632,None,245.78176472000632,None,,,,,,,,,,,,,017,2022-05-12_17h52.30.403,Main,2022.1.1,60.18853456310108,
neutral,positive,1,k,k,,,,,,,,,1,2,20,4,,,,,,,,,main,1,1,1,positive,neutral,k,k,1,0.6647727000090526,245.78514720000385,246.80049629999849,246.78400369999872,None,245.78514720000385,None,245.78514720000385,None,245.78514720000385,None,247.44818792001024,None,247.44818792001024,None,247.44818792001024,None,,,,,,,,,,,,,017,2022-05-12_17h52.30.403,Main,2022.1.1,60.18853456310108,
positive,positive,1,l,j,,,,,,,,,1,3,21,2,,,,,,,,,main,2,2,1,positive,positive,j,j,1,0.7989993999945,247.45466300001135,248.46729950000008,248.45069630000216,None,247.45466300001135,None,247.45466300001135,None,247.45466300001135,None,249.2488255200078,None,249.2488255200078,None,249.2488255200078,None,,,,,,,,,,,,,017,2022-05-12_17h52.30.403,Main,2022.1.1,60.18853456310108,
positive,neutral,2,l,j,,,,,,,,,1,4,22,17,,,,,,,,,main,2,2,2,neutral,positive,j,j,1,0.6140598999918438,249.2672467000084,250.28129199999967,250.24797670000407,None,249.2672467000084,None,249.2672467000084,None,249.2672467000084,None,250.86459532001027,None,250.86459532001027,None,250.86459532001027,None,,,,,,,,,,,,,017,2022-05-12_17h52.30.403,Main,2022.1.1,60.18853456310108,
neutral,negative,1,k,k,,,,,,,,,1,5,23,7,,,,,,,,,main,2,2,1,negative,neutral,k,k,1,0.7987412999937078,250.86558030000015,251.8646379999991,251.8646379999991,None,250.86558030000015,None,250.86558030000015,None,250.86558030000015,None,252.66496092000307,None,252.66496092000307,None,252.66496092000307,None,,,,,,,,,,,,,017,2022-05-12_17h52.30.403,Main,2022.1.1,60.18853456310108,
neutral,neutral,1,k,k,,,,,,,,,1,6,24,1,,,,,,,,,main,1,1,1,neutral,neutral,k,k,1,0.6315058999898611,252.6684782000084,253.68178350001108,253.66724870000326,None,252.6684782000084,None,252.6684782000084,None,252.6684782000084,None,254.29825672000152,None,254.29825672000152,None,254.29825672000152,None,,,,,,,,,,,,,017,2022-05-12_17h52.30.403,Main,2022.1.1,60.18853456310108,
negative,positive,1,j,l,,,,,,,,,1,7,25,6,,,,,,,,,main,2,2,1,positive,negative,l,l,1,0.6007730999990599,254.30170660000294,255.31515280000167,255.30052360000263,None,254.30170660000294,None,254.30170660000294,None,254.30170660000294,None,255.90040972000133,None,255.90040972000133,None,255.90040972000133,None,,,,,,,,,,,,,017,2022-05-12_17h52.30.403,Main,2022.1.1,60.18853456310108,
negative,negative,2,j,l,,,,,,,,,1,8,26,9,,,,,,,,,main,2,2,2,negative,negative,l,l,1,0.6125907999958145,255.90359980000358,256.91708579999977,256.90047649999906,None,255.90359980000358,None,255.90359980000358,None,255.90359980000358,None,257.5148489200001,None,257.5148489200001,None,257.5148489200001,None,,,,,,,,,,,,,017,2022-05-12_17h52.30.403,Main,2022.1.1,60.18853456310108,
negative,positive,2,j,l,,,,,,,,,1,9,27,15,,,,,,,,,main,2,2,2,positive,negative,l,l,1,0.5818588999973144,257.51948110001103,258.53184780001175,258.51507920000586,None,257.51948110001103,None,257.51948110001103,None,257.51948110001103,None,259.0981496200038,None,259.0981496200038,None,259.0981496200038,None,,,,,,,,,,,,,017,2022-05-12_17h52.30.403,Main,2022.1.1,60.18853456310108,
neutral,negative,2,k,k,,,,,,,,,1,10,28,16,,,,,,,,,main,1,1,2,negative,neutral,k,k,1,0.7977218000014545,259.1016534000082,260.114407400004,260.09774270000344,None,259.1016534000082,None,259.1016534000082,None,259.1016534000082,None,260.89770862001023,None,260.89770862001023,None,260.89770862001023,None,,,,,,,,,,,,,017,2022-05-12_17h52.30.403,Main,2022.1.1,60.18853456310108,
positive,positive,2,l,j,,,,,,,,,1,11,29,11,,,,,,,,,main,2,2,2,positive,positive,j,j,1,0.9155987999984063,260.8977183000097,261.89779320001253,261.89779320001253,None,260.8977183000097,None,260.8977183000097,None,260.8977183000097,None,262.81473582000035,None,262.81473582000035,None,262.81473582000035,None,,,,,,,,,,,,,017,2022-05-12_17h52.30.403,Main,2022.1.1,60.18853456310108,
neutral,neutral,2,k,k,,,,,,,,,1,12,30,10,,,,,,,,,main,1,1,2,neutral,neutral,k,k,1,0.6040684999898076,262.818325500004,263.8336326999997,263.8146889000054,None,262.818325500004,None,262.818325500004,None,262.818325500004,None,264.41690962001303,None,264.41690962001303,None,264.41690962001303,None,,,,,,,,,,,,,017,2022-05-12_17h52.30.403,Main,2022.1.1,60.18853456310108,
neutral,positive,2,k,k,,,,,,,,,1,13,31,13,,,,,,,,,main,1,1,2,positive,neutral,k,k,1,0.7415640000108397,264.4251479000086,265.43362010001147,265.4170016999997,None,264.4251479000086,None,264.4251479000086,None,264.4251479000086,None,266.16464572000405,None,266.16464572000405,None,266.16464572000405,None,,,,,,,,,,,,,017,2022-05-12_17h52.30.403,Main,2022.1.1,60.18853456310108,
positive,neutral,1,l,j,,,,,,,,,1,14,32,8,,,,,,,,,main,2,2,1,neutral,positive,j,j,1,2.0019294999947306,266.1693140999996,267.18347540000104,267.1669690999988,None,266.1693140999996,None,266.1693140999996,None,266.1693140999996,None,269.17736590000277,None,269.17736590000277,None,269.17736590000277,None,,,,,,,,,,,,,017,2022-05-12_17h52.30.403,Main,2022.1.1,60.18853456310108,
negative,neutral,1,j,l,,,,,,,,,1,15,33,3,,,,,,,,,main,2,2,1,neutral,negative,l,l,1,0.7861214000004111,270.18086830001266,271.18089760000294,271.18089760000294,None,270.18086830001266,None,270.18086830001266,None,270.18086830001266,None,271.964205520002,None,271.964205520002,None,271.964205520002,None,,,,,,,,,,,,,017,2022-05-12_17h52.30.403,Main,2022.1.1,60.18853456310108,
negative,negative,1,j,l,,,,,,,,,1,16,34,0,,,,,,,,,main,2,2,1,negative,negative,l,l,1,0.9650359999941429,271.9649705000047,272.96418280000216,272.96418280000216,None,271.9649705000047,None,271.9649705000047,None,271.9649705000047,None,273.9308592200032,None,273.9308592200032,None,273.9308592200032,None,,,,,,,,,,,,,017,2022-05-12_17h52.30.403,Main,2022.1.1,60.18853456310108,
positive,negative,2,l,j,,,,,,,,,1,17,35,14,,,,,,,,,main,2,2,2,negative,positive,j,j,1,0.8507083000004059,273.9343121000129,274.93345970001246,274.93345970001246,None,273.9343121000129,None,273.9343121000129,None,273.9343121000129,None,275.7834295200082,None,275.7834295200082,None,275.7834295200082,None,,,,,,,,,,,,,017,2022-05-12_17h52.30.403,Main,2022.1.1,60.18853456310108,
positive,neutral,2,l,j,,,,,,,,,2,0,36,17,,,,,,,,,main,1,1,2,neutral,positive,j,j,1,0.6795218000042951,275.7864896000101,276.79757999999856,276.78337070001,None,275.7864896000101,None,275.7864896000101,None,275.7864896000101,None,277.46449761999975,None,277.46449761999975,None,277.46449761999975,None,,,,,,,,,,,,,017,2022-05-12_17h52.30.403,Main,2022.1.1,60.18853456310108,
neutral,negative,1,k,k,,,,,,,,,2,1,37,7,,,,,,,,,main,2,2,1,negative,neutral,k,k,1,0.6662512000038987,277.4682126000116,278.4833447000128,278.4667732000089,None,277.4682126000116,None,277.4682126000116,None,277.4682126000116,None,279.1321262199999,None,279.1321262199999,None,279.1321262199999,None,,,,,,,,,,,,,017,2022-05-12_17h52.30.403,Main,2022.1.1,60.18853456310108,
neutral,neutral,1,k,k,,,,,,,,,2,2,38,1,,,,,,,,,main,2,2,1,neutral,neutral,k,k,1,0.7636834000004455,279.13789160001033,280.1500137000112,280.1315360000008,None,279.13789160001033,None,279.13789160001033,None,279.13789160001033,None,280.8976573200125,None,280.8976573200125,None,280.8976573200125,None,,,,,,,,,,,,,017,2022-05-12_17h52.30.403,Main,2022.1.1,60.18853456310108,
negative,neutral,2,j,l,,,,,,,,,2,3,39,12,,,,,,,,,main,1,1,2,neutral,negative,l,l,1,0.7650659000064479,280.90088860000833,281.90299900001264,281.90299900001264,None,280.90088860000833,None,280.90088860000833,None,280.90088860000833,None,282.6639651200021,None,282.6639651200021,None,282.6639651200021,None,,,,,,,,,,,,,017,2022-05-12_17h52.30.403,Main,2022.1.1,60.18853456310108,
neutral,positive,2,k,k,,,,,,,,,2,4,40,13,,,,,,,,,main,2,2,2,positive,neutral,k,k,1,0.6981950999906985,282.66417470001034,283.66425549999985,283.66425549999985,None,282.66417470001034,None,282.66417470001034,None,282.66417470001034,None,284.3639525200051,None,284.3639525200051,None,284.3639525200051,None,,,,,,,,,,,,,017,2022-05-12_17h52.30.403,Main,2022.1.1,60.18853456310108,
positive,neutral,1,l,j,,,,,,,,,2,5,41,8,,,,,,,,,main,2,2,1,neutral,positive,j,j,1,0.6820578000042588,284.3672903000115,285.3645366000128,285.3645366000128,None,284.3672903000115,None,284.3672903000115,None,284.3672903000115,None,286.0475821200016,None,286.0475821200016,None,286.0475821200016,None,,,,,,,,,,,,,017,2022-05-12_17h52.30.403,Main,2022.1.1,60.18853456310108,
negative,neutral,1,j,l,,,,,,,,,2,6,42,3,,,,,,,,,main,1,1,1,neutral,negative,l,l,1,0.6987981000129366,286.0527083000052,287.0664514000091,287.0498496000073,None,286.0527083000052,None,286.0527083000052,None,286.0527083000052,None,287.7497527200103,None,287.7497527200103,None,287.7497527200103,None,,,,,,,,,,,,,017,2022-05-12_17h52.30.403,Main,2022.1.1,60.18853456310108,
neutral,neutral,2,k,k,,,,,,,,,2,7,43,10,,,,,,,,,main,1,1,2,neutral,neutral,k,k,1,1.2483400000055553,287.75370900001144,288.7663865000068,288.74976000000606,None,287.75370900001144,None,287.75370900001144,None,287.75370900001144,None,289.99974432000454,None,289.99974432000454,None,289.99974432000454,None,,,,,,,,,,,,,017,2022-05-12_17h52.30.403,Main,2022.1.1,60.18853456310108,
negative,negative,2,j,l,,,,,,,,,2,8,44,9,,,,,,,,,main,2,2,2,negative,negative,l,l,1,0.8628543999948306,290.0036732000008,291.0163843000046,290.9997108000098,None,290.0036732000008,None,290.0036732000008,None,290.0036732000008,None,291.86411362000945,None,291.86411362000945,None,291.86411362000945,None,,,,,,,,,,,,,017,2022-05-12_17h52.30.403,Main,2022.1.1,60.18853456310108,
positive,positive,2,l,j,,,,,,,,,2,9,45,11,,,,,,,,,main,2,2,2,positive,positive,j,j,1,0.7814448999997694,291.86751370001,292.88038360000064,292.8637211000023,None,291.86751370001,None,291.86751370001,None,291.86751370001,None,293.6470743200116,None,293.6470743200116,None,293.6470743200116,None,,,,,,,,,,,,,017,2022-05-12_17h52.30.403,Main,2022.1.1,60.18853456310108,
negative,positive,1,j,l,,,,,,,,,2,10,46,6,,,,,,,,,main,1,1,1,positive,negative,l,l,1,0.9825173999997787,293.64709220000077,294.6471104000084,294.6471104000084,None,293.64709220000077,None,293.64709220000077,None,293.64709220000077,None,295.6310314200018,None,295.6310314200018,None,295.6310314200018,None,,,,,,,,,,,,,017,2022-05-12_17h52.30.403,Main,2022.1.1,60.18853456310108,
positive,positive,1,l,j,,,,,,,,,2,11,47,2,,,,,,,,,main,1,1,1,positive,positive,j,j,1,0.8810943999997107,295.6346670000057,296.6496744000033,296.63092060000054,None,295.6346670000057,None,295.6346670000057,None,295.6346670000057,None,297.5140162200041,None,297.5140162200041,None,297.5140162200041,None,,,,,,,,,,,,,017,2022-05-12_17h52.30.403,Main,2022.1.1,60.18853456310108,
neutral,positive,1,k,k,,,,,,,,,2,12,48,4,,,,,,,,,main,1,1,1,positive,neutral,k,k,1,0.8508941999898525,297.51716730000044,298.5162866000028,298.5162866000028,None,297.51716730000044,None,297.51716730000044,None,297.51716730000044,None,299.36632702001225,None,299.36632702001225,None,299.36632702001225,None,,,,,,,,,,,,,017,2022-05-12_17h52.30.403,Main,2022.1.1,60.18853456310108,
negative,negative,1,j,l,,,,,,,,,2,13,49,0,,,,,,,,,main,1,1,1,negative,negative,l,l,1,0.7627584000001661,299.3695443000033,300.3808791000047,300.3662537000055,None,299.3695443000033,None,299.3695443000033,None,299.3695443000033,None,301.1305882200031,None,301.1305882200031,None,301.1305882200031,None,,,,,,,,,,,,,017,2022-05-12_17h52.30.403,Main,2022.1.1,60.18853456310108,
negative,positive,2,j,l,,,,,,,,,2,14,50,15,,,,,,,,,main,1,1,2,positive,negative,l,l,1,0.7646000000095228,301.1341095000098,302.1469719000015,302.1306792000105,None,301.1341095000098,None,301.1341095000098,None,301.1341095000098,None,302.8968607200004,None,302.8968607200004,None,302.8968607200004,None,,,,,,,,,,,,,017,2022-05-12_17h52.30.403,Main,2022.1.1,60.18853456310108,
neutral,negative,2,k,k,,,,,,,,,2,15,51,16,,,,,,,,,main,1,1,2,negative,neutral,k,k,1,0.6642957000003662,302.8979174999986,303.91405810001015,303.8969080000097,None,302.8979174999986,None,302.8979174999986,None,302.8979174999986,None,304.5638920200072,None,304.5638920200072,None,304.5638920200072,None,,,,,,,,,,,,,017,2022-05-12_17h52.30.403,Main,2022.1.1,60.18853456310108,
positive,negative,2,l,j,,,,,,,,,2,16,52,14,,,,,,,,,main,2,2,2,negative,positive,j,j,1,0.6486727000010433,304.5670802000095,305.5663280000008,305.5663280000008,None,304.5670802000095,None,304.5670802000095,None,304.5670802000095,None,306.213850320004,None,306.213850320004,None,306.213850320004,None,,,,,,,,,,,,,017,2022-05-12_17h52.30.403,Main,2022.1.1,60.18853456310108,
positive,negative,1,l,j,,,,,,,,,2,17,53,5,,,,,,,,,main,2,2,1,negative,positive,j,j,1,0.5335348000080558,306.21772860000783,307.23273730000074,307.21607350000704,None,306.21772860000783,None,306.21772860000783,None,306.21772860000783,None,307.7493327200136,None,307.7493327200136,None,307.7493327200136,None,,,,,,,,,,,,,017,2022-05-12_17h52.30.403,Main,2022.1.1,60.18853456310108,
negative,neutral,1,j,l,,,,,,,,,3,0,54,3,,,,,,,,,main,2,2,1,neutral,negative,l,l,1,0.6484630000049947,307.75196430001233,308.766031200008,308.74942950000695,None,307.75196430001233,None,307.75196430001233,None,307.75196430001233,None,309.39930742000433,None,309.39930742000433,None,309.39930742000433,None,,,,,,,,,,,,,017,2022-05-12_17h52.30.403,Main,2022.1.1,60.18853456310108,
negative,positive,2,j,l,,,,,,,,,3,1,55,15,,,,,,,,,main,2,2,2,positive,negative,l,l,1,0.6494375999900512,309.40239380000276,310.4158959000051,310.3993521000084,None,309.40239380000276,None,309.40239380000276,None,309.40239380000276,None,311.049295420009,None,311.049295420009,None,311.049295420009,None,,,,,,,,,,,,,017,2022-05-12_17h52.30.403,Main,2022.1.1,60.18853456310108,
positive,neutral,2,l,j,,,,,,,,,3,2,56,17,,,,,,,,,main,1,1,2,neutral,positive,j,j,1,0.7114563999930397,311.0533662000089,312.063329800003,312.0466730000044,None,311.0533662000089,None,311.0533662000089,None,311.0533662000089,None,312.7633307200085,None,312.7633307200085,None,312.7633307200085,None,,,,,,,,,,,,,017,2022-05-12_17h52.30.403,Main,2022.1.1,60.18853456310108,
neutral,positive,1,k,k,,,,,,,,,3,3,57,4,,,,,,,,,main,1,1,1,positive,neutral,k,k,1,0.6977477000036743,312.76393620000454,313.76333370000066,313.76333370000066,None,312.76393620000454,None,312.76393620000454,None,312.76393620000454,None,314.4633246200028,None,314.4633246200028,None,314.4633246200028,None,,,,,,,,,,,,,017,2022-05-12_17h52.30.403,Main,2022.1.1,60.18853456310108,
negative,negative,2,j,l,,,,,,,,,3,4,58,9,,,,,,,,,main,1,1,2,negative,negative,l,l,1,0.7151301999983843,314.46452380000846,315.4799716000125,315.46330300001136,None,314.46452380000846,None,314.46452380000846,None,314.46452380000846,None,316.1799817200008,None,316.1799817200008,None,316.1799817200008,None,,,,,,,,,,,,,017,2022-05-12_17h52.30.403,Main,2022.1.1,60.18853456310108,
positive,negative,1,l,j,,,,,,,,,3,5,59,5,,,,,,,,,main,2,2,1,negative,positive,j,j,1,0.6842001000040909,316.184024400005,317.19920139999886,317.165903400004,None,316.184024400005,None,316.184024400005,None,316.184024400005,None,317.8657633200128,None,317.8657633200128,None,317.8657633200128,None,,,,,,,,,,,,,017,2022-05-12_17h52.30.403,Main,2022.1.1,60.18853456310108,
negative,negative,1,j,l,,,,,,,,,3,6,60,0,,,,,,,,,main,2,2,1,negative,negative,l,l,1,0.5797863000043435,317.86854130000575,318.88248400000157,318.86587300000247,None,317.86854130000575,None,317.86854130000575,None,317.86854130000575,None,319.4465765200075,None,319.4465765200075,None,319.4465765200075,None,,,,,,,,,,,,,017,2022-05-12_17h52.30.403,Main,2022.1.1,60.18853456310108,
neutral,neutral,2,k,k,,,,,,,,,3,7,61,10,,,,,,,,,main,1,1,2,neutral,neutral,k,k,1,0.548253900007694,319.45025970001006,320.46582120000676,320.44920800000546,None,319.45025970001006,None,319.45025970001006,None,319.45025970001006,None,320.99685652000335,None,320.99685652000335,None,320.99685652000335,None,,,,,,,,,,,,,017,2022-05-12_17h52.30.403,Main,2022.1.1,60.18853456310108,
neutral,positive,2,k,k,,,,,,,,,3,8,62,13,,,,,,,,,main,2,2,2,positive,neutral,k,k,1,0.683896199989249,321.00040340000123,322.0157790000085,321.99918700000853,None,321.00040340000123,None,321.00040340000123,None,321.00040340000123,None,322.68229042000166,None,322.68229042000166,None,322.68229042000166,None,,,,,,,,,,,,,017,2022-05-12_17h52.30.403,Main,2022.1.1,60.18853456310108,
positive,positive,2,l,j,,,,,,,,,3,9,63,11,,,,,,,,,main,1,1,2,positive,positive,j,j,1,0.682961600003182,322.6853223000071,323.6989728000044,323.68245240001124,None,322.6853223000071,None,322.6853223000071,None,322.6853223000071,None,324.3669157200129,None,324.3669157200129,None,324.3669157200129,None,,,,,,,,,,,,,017,2022-05-12_17h52.30.403,Main,2022.1.1,60.18853456310108,
positive,negative,2,l,j,,,,,,,,,3,10,64,14,,,,,,,,,main,1,1,2,negative,positive,j,j,1,0.6603929999982938,324.36742420001247,325.37974119999853,325.36307710000256,None,324.36742420001247,None,324.36742420001247,None,324.36742420001247,None,326.02972072001285,None,326.02972072001285,None,326.02972072001285,None,,,,,,,,,,,,,017,2022-05-12_17h52.30.403,Main,2022.1.1,60.18853456310108,
positive,neutral,1,l,j,,,,,,,,,3,11,65,8,,,,,,,,,main,1,1,1,neutral,positive,j,j,1,0.6348151999991387,326.0297172999999,327.02974969999923,327.02974969999923,None,326.0297172999999,None,326.0297172999999,None,326.0297172999999,None,327.66562232000433,None,327.66562232000433,None,327.66562232000433,None,,,,,,,,,,,,,017,2022-05-12_17h52.30.403,Main,2022.1.1,60.18853456310108,
positive,positive,1,l,j,,,,,,,,,3,12,66,2,,,,,,,,,main,1,1,1,positive,positive,j,j,1,0.6980972999881487,327.66874090000056,328.6822244000068,328.6656335000007,None,327.66874090000056,None,327.66874090000056,None,327.66874090000056,None,329.3656232200083,None,329.3656232200083,None,329.3656232200083,None,,,,,,,,,,,,,017,2022-05-12_17h52.30.403,Main,2022.1.1,60.18853456310108,
neutral,negative,1,k,k,,,,,,,,,3,13,67,7,,,,,,,,,main,1,1,1,negative,neutral,k,k,1,0.6463008999999147,329.36851880000904,330.382165300005,330.3656670000055,None,329.36851880000904,None,329.36851880000904,None,329.36851880000904,None,331.01330212000903,None,331.01330212000903,None,331.01330212000903,None,,,,,,,,,,,,,017,2022-05-12_17h52.30.403,Main,2022.1.1,60.18853456310108,
negative,neutral,2,j,l,,,,,,,,,3,14,68,12,,,,,,,,,main,2,2,2,neutral,negative,l,l,1,0.7150739000062458,331.01734489999944,332.03221119999944,332.015561799999,None,331.01734489999944,None,331.01734489999944,None,331.01734489999944,None,332.7299184200019,None,332.7299184200019,None,332.7299184200019,None,,,,,,,,,,,,,017,2022-05-12_17h52.30.403,Main,2022.1.1,60.18853456310108,
neutral,neutral,1,k,k,,,,,,,,,3,15,69,1,,,,,,,,,main,2,2,1,neutral,neutral,k,k,1,0.6173902000009548,332.7339561000117,333.748751200008,333.7321809999994,None,332.7339561000117,None,332.7339561000117,None,332.7339561000117,None,334.34887072000856,None,334.34887072000856,None,334.34887072000856,None,,,,,,,,,,,,,017,2022-05-12_17h52.30.403,Main,2022.1.1,60.18853456310108,
neutral,negative,2,k,k,,,,,,,,,3,16,70,16,,,,,,,,,main,1,1,2,negative,neutral,k,k,1,0.6300947999989148,334.35174690000713,335.3628613000037,335.3461927000026,None,334.35174690000713,None,334.35174690000713,None,334.35174690000713,None,335.9795052200134,None,335.9795052200134,None,335.9795052200134,None,,,,,,,,,,,,,017,2022-05-12_17h52.30.403,Main,2022.1.1,60.18853456310108,
negative,positive,1,j,l,,,,,,,,,3,17,71,6,,,,,,,,,main,1,1,1,positive,negative,l,l,1,0.6832638000050792,335.9802405000082,336.97954080000636,336.97954080000636,None,335.9802405000082,None,335.9802405000082,None,335.9802405000082,None,337.66534651999973,None,337.66534651999973,None,337.66534651999973,None,,,,,,,,,,,,,017,2022-05-12_17h52.30.403,Main,2022.1.1,60.18853456310108,
neutral,neutral,2,k,k,,,,,,,,,4,0,72,10,,,,,,,,,main,2,2,2,neutral,neutral,k,k,1,0.646351000003051,337.66976129999966,338.68202030000975,338.6654208000109,None,337.66976129999966,None,337.66976129999966,None,337.66976129999966,None,339.31315202000405,None,339.31315202000405,None,339.31315202000405,None,,,,,,,,,,,,,017,2022-05-12_17h52.30.403,Main,2022.1.1,60.18853456310108,
positive,positive,2,l,j,,,,,,,,,4,1,73,11,,,,,,,,,main,2,2,2,positive,positive,j,j,1,0.9317013000109,339.31666380001116,340.3320365000109,340.31539350000094,None,339.31666380001116,None,339.31666380001116,None,339.31666380001116,None,341.24641552000685,None,341.24641552000685,None,341.24641552000685,None,,,,,,,,,,,,,017,2022-05-12_17h52.30.403,Main,2022.1.1,60.18853456310108,
positive,negative,1,l,j,,,,,,,,,4,2,74,5,,,,,,,,,main,1,1,1,negative,positive,j,j,1,0.6526632000022801,341.2507595000061,342.2652439000085,342.2486460000073,None,341.2507595000061,None,341.2507595000061,None,341.2507595000061,None,342.90048401999957,None,342.90048401999957,None,342.90048401999957,None,,,,,,,,,,,,,017,2022-05-12_17h52.30.403,Main,2022.1.1,60.18853456310108,
positive,negative,2,l,j,,,,,,,,,4,3,75,14,,,,,,,,,main,2,2,2,negative,positive,j,j,1,0.5934062000014819,342.90428470000916,343.9152388000075,343.8985231000115,None,342.90428470000916,None,342.90428470000916,None,342.90428470000916,None,344.49634842000523,None,344.49634842000523,None,344.49634842000523,None,,,,,,,,,,,,,017,2022-05-12_17h52.30.403,Main,2022.1.1,60.18853456310108,
negative,positive,1,j,l,,,,,,,,,4,4,76,6,,,,,,,,,main,2,2,1,positive,negative,l,l,1,0.7479320999991614,344.4999569000065,345.5126334000088,345.4959835000045,None,344.4999569000065,None,344.4999569000065,None,344.4999569000065,None,346.24597542000265,None,346.24597542000265,None,346.24597542000265,None,,,,,,,,,,,,,017,2022-05-12_17h52.30.403,Main,2022.1.1,60.18853456310108,
negative,negative,1,j,l,,,,,,,,,4,5,77,0,,,,,,,,,main,1,1,1,negative,negative,l,l,1,0.6319618999987142,346.24596280000696,347.2459751999995,347.2459751999995,None,346.24596280000696,None,346.24596280000696,None,346.24596280000696,None,347.8792914200094,None,347.8792914200094,None,347.8792914200094,None,,,,,,,,,,,,,017,2022-05-12_17h52.30.403,Main,2022.1.1,60.18853456310108,
neutral,negative,1,k,k,,,,,,,,,4,6,78,7,,,,,,,,,main,1,1,1,negative,neutral,k,k,1,0.6649684000003617,347.87976419999904,348.8792781000084,348.8792781000084,None,347.87976419999904,None,347.87976419999904,None,347.87976419999904,None,349.5459566200079,None,349.5459566200079,None,349.5459566200079,None,,,,,,,,,,,,,017,2022-05-12_17h52.30.403,Main,2022.1.1,60.18853456310108,
neutral,positive,2,k,k,,,,,,,,,4,7,79,13,,,,,,,,,main,1,1,2,positive,neutral,k,k,1,0.8645860999968136,349.56262720000814,350.5651308000088,350.5485573000042,None,349.56262720000814,None,349.56262720000814,None,349.56262720000814,None,351.41291012000147,None,351.41291012000147,None,351.41291012000147,None,,,,,,,,,,,,,017,2022-05-12_17h52.30.403,Main,2022.1.1,60.18853456310108,
neutral,negative,2,k,k,,,,,,,,,4,8,80,16,,,,,,,,,main,1,1,2,negative,neutral,k,k,1,0.5982166000030702,351.4160488000052,352.4151511000091,352.4151511000091,None,351.4160488000052,None,351.4160488000052,None,351.4160488000052,None,353.012854920009,None,353.012854920009,None,353.012854920009,None,,,,,,,,,,,,,017,2022-05-12_17h52.30.403,Main,2022.1.1,60.18853456310108,
neutral,neutral,1,k,k,,,,,,,,,4,9,81,1,,,,,,,,,main,2,2,1,neutral,neutral,k,k,1,0.6190268999926047,353.0168343000114,354.0317189000052,354.0151604999992,None,353.0168343000114,None,353.0168343000114,None,353.0168343000114,None,354.6316788200129,None,354.6316788200129,None,354.6316788200129,None,,,,,,,,,,,,,017,2022-05-12_17h52.30.403,Main,2022.1.1,60.18853456310108,
positive,positive,1,l,j,,,,,,,,,4,10,82,2,,,,,,,,,main,2,2,1,positive,positive,j,j,1,0.7328373000054853,354.63730300001043,355.64838930001133,355.63170480000554,None,354.63730300001043,None,354.63730300001043,None,354.63730300001043,None,356.36499922000075,None,356.36499922000075,None,356.36499922000075,None,,,,,,,,,,,,,017,2022-05-12_17h52.30.403,Main,2022.1.1,60.18853456310108,
negative,neutral,1,j,l,,,,,,,,,4,11,83,3,,,,,,,,,main,2,2,1,neutral,negative,l,l,1,1.3255752999975812,356.37149679999857,357.38163899999927,357.3650880000059,None,356.37149679999857,None,356.37149679999857,None,356.37149679999857,None,358.69570382001257,None,358.69570382001257,None,358.69570382001257,None,,,,,,,,,,,,,017,2022-05-12_17h52.30.403,Main,2022.1.1,60.18853456310108,
negative,positive,2,j,l,,,,,,,,,4,12,84,15,,,,,,,,,main,2,2,2,positive,negative,l,l,1,1.283348000011756,358.6971753000107,359.7126634000015,359.69576220000454,None,358.6971753000107,None,358.6971753000107,None,358.6971753000107,None,360.9793568200039,None,360.9793568200039,None,360.9793568200039,None,,,,,,,,,,,,,017,2022-05-12_17h52.30.403,Main,2022.1.1,60.18853456310108,
neutral,positive,1,k,k,,,,,,,,,4,13,85,4,,,,,,,,,main,2,2,1,positive,neutral,k,k,1,0.6970153000002028,360.98393320001196,361.9982364000025,361.9815352000005,None,360.98393320001196,None,360.98393320001196,None,360.98393320001196,None,362.67930432000867,None,362.67930432000867,None,362.67930432000867,None,,,,,,,,,,,,,017,2022-05-12_17h52.30.403,Main,2022.1.1,60.18853456310108,
positive,neutral,2,l,j,,,,,,,,,4,14,86,17,,,,,,,,,main,1,1,2,neutral,positive,j,j,1,0.6975997999979882,362.6870881000068,363.69812340001226,363.68152110000665,None,362.6870881000068,None,362.6870881000068,None,362.6870881000068,None,364.379258220004,None,364.379258220004,None,364.379258220004,None,,,,,,,,,,,,,017,2022-05-12_17h52.30.403,Main,2022.1.1,60.18853456310108,
positive,neutral,1,l,j,,,,,,,,,4,15,87,8,,,,,,,,,main,2,2,1,neutral,positive,j,j,1,0.7152605999872321,364.3821348000056,365.38159040000755,365.38159040000755,None,364.3821348000056,None,364.3821348000056,None,364.3821348000056,None,366.0959032200117,None,366.0959032200117,None,366.0959032200117,None,,,,,,,,,,,,,017,2022-05-12_17h52.30.403,Main,2022.1.1,60.18853456310108,
negative,negative,2,j,l,,,,,,,,,4,16,88,9,,,,,,,,,main,1,1,2,negative,negative,l,l,1,0.725039500001003,366.10093070000585,367.1147256000113,367.0815215000039,None,366.10093070000585,None,366.10093070000585,None,366.10093070000585,None,367.8223891200105,None,367.8223891200105,None,367.8223891200105,None,,,,,,,,,,,,,017,2022-05-12_17h52.30.403,Main,2022.1.1,60.18853456310108,
negative,neutral,2,j,l,,,,,,,,,4,17,89,12,,,,,,,,,main,1,1,2,neutral,negative,l,l,1,0.6547155999869574,367.83776390001003,368.8454856000026,368.81216190000123,None,367.83776390001003,None,367.83776390001003,None,367.83776390001003,None,369.47881682001025,None,369.47881682001025,None,369.47881682001025,None,,,,,,,,,,,,,017,2022-05-12_17h52.30.403,Main,2022.1.1,60.18853456310108,
negative,positive,1,j,l,,,,,,,,,5,0,90,6,,,,,,,,,main,1,1,1,positive,negative,l,l,1,0.8994792000012239,369.4788150000095,370.4814139000082,370.4648583000089,None,369.4788150000095,None,369.4788150000095,None,369.4788150000095,None,371.3791418200053,None,371.3791418200053,None,371.3791418200053,None,,,,,,,,,,,,,017,2022-05-12_17h52.30.403,Main,2022.1.1,60.18853456310108,
neutral,negative,1,k,k,,,,,,,,,5,1,91,7,,,,,,,,,main,2,2,1,negative,neutral,k,k,1,0.6977140000090003,371.3831046999985,372.3957836000045,372.3813594000094,None,371.3831046999985,None,371.3831046999985,None,371.3831046999985,None,373.07908981999935,None,373.07908981999935,None,373.07908981999935,None,,,,,,,,,,,,,017,2022-05-12_17h52.30.403,Main,2022.1.1,60.18853456310108,
negative,positive,2,j,l,,,,,,,,,5,2,92,15,,,,,,,,,main,2,2,2,positive,negative,l,l,1,0.7977146000048378,373.0831782000023,374.09795790001226,374.0813777000003,None,373.0831782000023,None,373.0831782000023,None,373.0831782000023,None,374.8790416200136,None,374.8790416200136,None,374.8790416200136,None,,,,,,,,,,,,,017,2022-05-12_17h52.30.403,Main,2022.1.1,60.18853456310108,
negative,negative,2,j,l,,,,,,,,,5,3,93,9,,,,,,,,,main,2,2,2,negative,negative,l,l,1,0.6006526999990456,374.8822947000008,375.8978632000071,375.88123130000895,None,374.8822947000008,None,374.8822947000008,None,374.8822947000008,None,376.48129892000725,None,376.48129892000725,None,376.48129892000725,None,,,,,,,,,,,,,017,2022-05-12_17h52.30.403,Main,2022.1.1,60.18853456310108,
neutral,positive,2,k,k,,,,,,,,,5,4,94,13,,,,,,,,,main,2,2,2,positive,neutral,k,k,1,0.7229911000031279,376.48417550000886,377.49566620000405,377.48123170000326,None,376.48417550000886,None,376.48417550000886,None,376.48417550000886,None,378.2059232200045,None,378.2059232200045,None,378.2059232200045,None,,,,,,,,,,,,,017,2022-05-12_17h52.30.403,Main,2022.1.1,60.18853456310108,
positive,positive,1,l,j,,,,,,,,,5,5,95,2,,,,,,,,,main,2,2,1,positive,positive,j,j,1,0.8214229000004707,378.2058307000116,379.21196910001163,379.1953066999995,None,378.2058307000116,None,378.2058307000116,None,378.2058307000116,None,380.02865652000037,None,380.02865652000037,None,380.02865652000037,None,,,,,,,,,,,,,017,2022-05-12_17h52.30.403,Main,2022.1.1,60.18853456310108,
positive,negative,2,l,j,,,,,,,,,5,6,96,14,,,,,,,,,main,2,2,2,negative,positive,j,j,1,0.7482083999930182,380.0297431000072,381.0452980000118,381.0286025000096,None,380.0297431000072,None,380.0297431000072,None,380.0297431000072,None,381.7789236200115,None,381.7789236200115,None,381.7789236200115,None,,,,,,,,,,,,,017,2022-05-12_17h52.30.403,Main,2022.1.1,60.18853456310108,
positive,negative,1,l,j,,,,,,,,,5,7,97,5,,,,,,,,,main,2,2,1,negative,positive,j,j,1,0.6149240000086138,381.77970410000125,382.7952617000119,382.7785950000107,None,381.77970410000125,None,381.77970410000125,None,381.77970410000125,None,383.3953393200136,None,383.3953393200136,None,383.3953393200136,None,,,,,,,,,,,,,017,2022-05-12_17h52.30.403,Main,2022.1.1,60.18853456310108,
neutral,negative,2,k,k,,,,,,,,,5,8,98,16,,,,,,,,,main,2,2,2,negative,neutral,k,k,1,0.7151315000082832,383.40165360001265,384.41466030001175,384.39785980001034,None,383.40165360001265,None,383.40165360001265,None,383.40165360001265,None,385.1121942200043,None,385.1121942200043,None,385.1121942200043,None,,,,,,,,,,,,,017,2022-05-12_17h52.30.403,Main,2022.1.1,60.18853456310108,
positive,positive,2,l,j,,,,,,,,,5,9,99,11,,,,,,,,,main,2,2,2,positive,positive,j,j,1,0.7150878000102239,385.1154194000119,386.11451240000315,386.11451240000315,None,385.1154194000119,None,385.1154194000119,None,385.1154194000119,None,386.8287973200131,None,386.8287973200131,None,386.8287973200131,None,,,,,,,,,,,,,017,2022-05-12_17h52.30.403,Main,2022.1.1,60.18853456310108,
positive,neutral,1,l,j,,,,,,,,,5,10,100,8,,,,,,,,,main,1,1,1,neutral,positive,j,j,1,0.6650589000055334,386.8319329000078,387.83100150000246,387.83100150000246,None,386.8319329000078,None,386.8319329000078,None,386.8319329000078,None,388.4954368200051,None,388.4954368200051,None,388.4954368200051,None,,,,,,,,,,,,,017,2022-05-12_17h52.30.403,Main,2022.1.1,60.18853456310108,
negative,negative,1,j,l,,,,,,,,,5,11,101,0,,,,,,,,,main,2,2,1,negative,negative,l,l,1,0.7155261000007158,388.4986448999989,389.49576030000753,389.49576030000753,None,388.4986448999989,None,388.4986448999989,None,388.4986448999989,None,390.21207422001316,None,390.21207422001316,None,390.21207422001316,None,,,,,,,,,,,,,017,2022-05-12_17h52.30.403,Main,2022.1.1,60.18853456310108,
positive,neutral,2,l,j,,,,,,,,,5,12,102,17,,,,,,,,,main,2,2,2,neutral,positive,j,j,1,0.8310721000016201,390.21585060001235,391.2283691000048,391.2116970000061,None,390.21585060001235,None,390.21585060001235,None,390.21585060001235,None,392.04502192000655,None,392.04502192000655,None,392.04502192000655,None,,,,,,,,,,,,,017,2022-05-12_17h52.30.403,Main,2022.1.1,60.18853456310108,
neutral,neutral,2,k,k,,,,,,,,,5,13,103,10,,,,,,,,,main,1,1,2,neutral,neutral,k,k,1,0.6817264999990584,392.0450148000091,393.0450495000114,393.0450495000114,None,392.0450148000091,None,392.0450148000091,None,392.0450148000091,None,393.7283952200014,None,393.7283952200014,None,393.7283952200014,None,,,,,,,,,,,,,017,2022-05-12_17h52.30.403,Main,2022.1.1,60.18853456310108,
negative,neutral,1,j,l,,,,,,,,,5,14,104,3,,,,,,,,,main,1,1,1,neutral,negative,l,l,1,0.7509141000045929,393.7355677000014,394.7475256000034,394.7309544000018,None,393.7355677000014,None,393.7355677000014,None,393.7355677000014,None,395.4808185200018,None,395.4808185200018,None,395.4808185200018,None,,,,,,,,,,,,,017,2022-05-12_17h52.30.403,Main,2022.1.1,60.18853456310108,
neutral,neutral,1,k,k,,,,,,,,,5,15,105,1,,,,,,,,,main,2,2,1,neutral,neutral,k,k,1,0.6982487000059336,395.4839811999991,396.49746620000224,396.48089510000136,None,395.4839811999991,None,395.4839811999991,None,395.4839811999991,None,397.18080402000487,None,397.18080402000487,None,397.18080402000487,None,,,,,,,,,,,,,017,2022-05-12_17h52.30.403,Main,2022.1.1,60.18853456310108,
negative,neutral,2,j,l,,,,,,,,,5,16,106,12,,,,,,,,,main,2,2,2,neutral,negative,l,l,1,0.9465970999881392,397.18396230001235,398.1952384000033,398.1808486000082,None,397.18396230001235,None,397.18396230001235,None,397.18396230001235,None,399.1288942200117,None,399.1288942200117,None,399.1288942200117,None,,,,,,,,,,,,,017,2022-05-12_17h52.30.403,Main,2022.1.1,60.18853456310108,
neutral,positive,1,k,k,,,,,,,,,5,17,107,4,,,,,,,,,main,2,2,1,positive,neutral,k,k,1,0.7003417999949306,399.1475058000069,400.1474181000085,400.1309892999998,None,399.1475058000069,None,399.1475058000069,None,399.1475058000069,None,400.8308779200088,None,400.8308779200088,None,400.8308779200088,None,,,,,,,,,,,,,017,2022-05-12_17h52.30.403,Main,2022.1.1,60.18853456310108,
negative,neutral,2,j,l,,,,,,,,,6,0,108,12,,,,,,,,,main,2,2,2,neutral,negative,l,l,1,0.6958742999995593,400.83470570000645,401.84483430000546,401.828171000001,None,400.83470570000645,None,400.83470570000645,None,400.83470570000645,None,402.5283352200131,None,402.5283352200131,None,402.5283352200131,None,,,,,,,,,,,,,017,2022-05-12_17h52.30.403,Main,2022.1.1,60.18853456310108,
positive,negative,1,l,j,,,,,,,,,6,1,109,5,,,,,,,,,main,1,1,1,negative,positive,j,j,1,0.8171610999997938,402.52828220000083,403.5281843000121,403.5281843000121,None,402.52828220000083,None,402.52828220000083,None,402.52828220000083,None,404.34738282000035,None,404.34738282000035,None,404.34738282000035,None,,,,,,,,,,,,,017,2022-05-12_17h52.30.403,Main,2022.1.1,60.18853456310108,
neutral,negative,1,k,k,,,,,,,,,6,2,110,7,,,,,,,,,main,1,1,1,negative,neutral,k,k,1,0.6651551000104519,404.35075670000515,405.36395730001095,405.3449232999992,None,404.35075670000515,None,404.35075670000515,None,404.35075670000515,None,406.0140759200076,None,406.0140759200076,None,406.0140759200076,None,,,,,,,,,,,,,017,2022-05-12_17h52.30.403,Main,2022.1.1,60.18853456310108,
negative,positive,2,j,l,,,,,,,,,6,3,111,15,,,,,,,,,main,2,2,2,positive,negative,l,l,1,0.7648780999879818,406.01721330000146,407.0306352000043,407.01405880000675,None,406.01721330000146,None,406.01721330000146,None,406.01721330000146,None,407.78051112000685,None,407.78051112000685,None,407.78051112000685,None,,,,,,,,,,,,,017,2022-05-12_17h52.30.403,Main,2022.1.1,60.18853456310108,
neutral,negative,2,k,k,,,,,,,,,6,4,112,16,,,,,,,,,main,2,2,2,negative,neutral,k,k,1,0.599121200008085,407.7837518000015,408.797272900003,408.7806145000068,None,407.7837518000015,None,407.7837518000015,None,407.7837518000015,None,409.381325620001,None,409.381325620001,None,409.381325620001,None,,,,,,,,,,,,,017,2022-05-12_17h52.30.403,Main,2022.1.1,60.18853456310108,
neutral,neutral,1,k,k,,,,,,,,,6,5,113,1,,,,,,,,,main,2,2,1,neutral,neutral,k,k,1,0.7117601999925682,409.38513840000087,410.39464210000006,410.3779782000056,None,409.38513840000087,None,409.38513840000087,None,409.38513840000087,None,411.0946231199996,None,411.0946231199996,None,411.0946231199996,None,,,,,,,,,,,,,017,2022-05-12_17h52.30.403,Main,2022.1.1,60.18853456310108,
neutral,positive,2,k,k,,,,,,,,,6,6,114,13,,,,,,,,,main,1,1,2,positive,neutral,k,k,1,0.6482813999900827,411.0946272000001,412.09466470000916,412.09466470000916,None,411.0946272000001,None,411.0946272000001,None,411.0946272000001,None,412.74464532000275,None,412.74464532000275,None,412.74464532000275,None,,,,,,,,,,,,,017,2022-05-12_17h52.30.403,Main,2022.1.1,60.18853456310108,
negative,positive,1,j,l,,,,,,,,,6,7,115,6,,,,,,,,,main,1,1,1,positive,negative,l,l,1,0.6166257000004407,412.74846940000134,413.7638108000101,413.7306113000086,None,412.74846940000134,None,412.74846940000134,None,412.74846940000134,None,414.3615761200126,None,414.3615761200126,None,414.3615761200126,None,,,,,,,,,,,,,017,2022-05-12_17h52.30.403,Main,2022.1.1,60.18853456310108,
positive,neutral,2,l,j,,,,,,,,,6,8,116,17,,,,,,,,,main,1,1,2,neutral,positive,j,j,1,0.7471394000021974,414.3660171000083,415.3804635999986,415.36390400001255,None,414.3660171000083,None,414.3660171000083,None,414.3660171000083,None,416.11156412000855,None,416.11156412000855,None,416.11156412000855,None,,,,,,,,,,,,,017,2022-05-12_17h52.30.403,Main,2022.1.1,60.18853456310108,
positive,negative,2,l,j,,,,,,,,,6,9,117,14,,,,,,,,,main,1,1,2,negative,positive,j,j,1,0.6651156000007177,416.1151414000051,417.13042340001266,417.09714680000616,None,416.1151414000051,None,416.1151414000051,None,416.1151414000051,None,417.7781582200041,None,417.7781582200041,None,417.7781582200041,None,,,,,,,,,,,,,017,2022-05-12_17h52.30.403,Main,2022.1.1,60.18853456310108,
negative,neutral,1,j,l,,,,,,,,,6,10,118,3,,,,,,,,,main,2,2,1,neutral,negative,l,l,1,0.7996866000030423,417.7813031000114,418.78045080001175,418.78045080001175,None,417.7813031000114,None,417.7813031000114,None,417.7813031000114,None,419.57812372000626,None,419.57812372000626,None,419.57812372000626,None,,,,,,,,,,,,,017,2022-05-12_17h52.30.403,Main,2022.1.1,60.18853456310108,
positive,positive,1,l,j,,,,,,,,,6,11,119,2,,,,,,,,,main,2,2,1,positive,positive,j,j,1,0.8302700000058394,419.5824991000118,420.5944247000007,420.57774600000994,None,419.5824991000118,None,419.5824991000118,None,419.5824991000118,None,421.4110805200107,None,421.4110805200107,None,421.4110805200107,None,,,,,,,,,,,,,017,2022-05-12_17h52.30.403,Main,2022.1.1,60.18853456310108,
neutral,neutral,2,k,k,,,,,,,,,6,12,120,10,,,,,,,,,main,1,1,2,neutral,neutral,k,k,1,0.8148572999925818,421.4183125999989,422.4277490000095,422.4110870000004,None,421.4183125999989,None,421.4183125999989,None,421.4183125999989,None,423.2277386200076,None,423.2277386200076,None,423.2277386200076,None,,,,,,,,,,,,,017,2022-05-12_17h52.30.403,Main,2022.1.1,60.18853456310108,
neutral,positive,1,k,k,,,,,,,,,6,13,121,4,,,,,,,,,main,1,1,1,positive,neutral,k,k,1,0.5153114999993704,423.2280280999985,424.22787300001073,424.22787300001073,None,423.2280280999985,None,423.2280280999985,None,423.2280280999985,None,424.7446295200134,None,424.7446295200134,None,424.7446295200134,None,,,,,,,,,,,,,017,2022-05-12_17h52.30.403,Main,2022.1.1,60.18853456310108,
positive,positive,2,l,j,,,,,,,,,6,14,122,11,,,,,,,,,main,2,2,2,positive,positive,j,j,1,0.665125600004103,424.7491926000075,425.7639630000049,425.7470561000082,None,424.7491926000075,None,424.7491926000075,None,424.7491926000075,None,426.41212342000654,None,426.41212342000654,None,426.41212342000654,None,,,,,,,,,,,,,017,2022-05-12_17h52.30.403,Main,2022.1.1,60.18853456310108,
positive,neutral,1,l,j,,,,,,,,,6,15,123,8,,,,,,,,,main,2,2,1,neutral,positive,j,j,1,0.5998055999953067,426.41779570000654,427.4305530999991,427.41402100000414,None,426.41779570000654,None,426.41779570000654,None,426.41779570000654,None,428.0134596200005,None,428.0134596200005,None,428.0134596200005,None,,,,,,,,,,,,,017,2022-05-12_17h52.30.403,Main,2022.1.1,60.18853456310108,
negative,negative,1,j,l,,,,,,,,,6,16,124,0,,,,,,,,,main,1,1,1,negative,negative,l,l,1,0.729497899999842,428.0169220000098,429.03011700000206,429.013543500012,None,428.0169220000098,None,428.0169220000098,None,428.0169220000098,None,429.74461722000706,None,429.74461722000706,None,429.74461722000706,None,,,,,,,,,,,,,017,2022-05-12_17h52.30.403,Main,2022.1.1,60.18853456310108,
negative,negative,2,j,l,,,,,,,,,6,17,125,9,,,,,,,,,main,1,1,2,negative,negative,l,l,1,0.7975451999955112,429.751992400008,430.7612519000104,430.7456805000111,None,429.751992400008,None,429.751992400008,None,429.751992400008,None,431.5445780200025,None,431.5445780200025,None,431.5445780200025,None,,,,,,,,,,,,,017,2022-05-12_17h52.30.403,Main,2022.1.1,60.18853456310108,
negative,positive,2,j,l,,,,,,,,,7,0,126,15,,,,,,,,,main,2,2,2,positive,negative,l,l,1,0.6640863999928115,431.54869580001105,432.5606310000003,432.5432700000092,None,431.54869580001105,None,431.54869580001105,None,431.54869580001105,None,433.2108457200011,None,433.2108457200011,None,433.2108457200011,None,,,,,,,,,,,,,017,2022-05-12_17h52.30.403,Main,2022.1.1,60.18853456310108,
neutral,positive,1,k,k,,,,,,,,,7,1,127,4,,,,,,,,,main,2,2,1,positive,neutral,k,k,1,0.6481690000073286,433.2108608000126,434.21105420000094,434.21105420000094,None,433.2108608000126,None,433.2108608000126,None,433.2108608000126,None,434.86082512001303,None,434.86082512001303,None,434.86082512001303,None,,,,,,,,,,,,,017,2022-05-12_17h52.30.403,Main,2022.1.1,60.18853456310108,
positive,negative,1,l,j,,,,,,,,,7,2,128,5,,,,,,,,,main,2,2,1,negative,positive,j,j,1,0.7156150000082562,434.8775078000035,435.87748570000986,435.86081790000026,None,434.8775078000035,None,434.8775078000035,None,434.8775078000035,None,436.577923020006,None,436.577923020006,None,436.577923020006,None,,,,,,,,,,,,,017,2022-05-12_17h52.30.403,Main,2022.1.1,60.18853456310108,
negative,neutral,2,j,l,,,,,,,,,7,3,129,12,,,,,,,,,main,2,2,2,neutral,negative,l,l,1,0.7850136000051862,436.58179609999934,437.5967287000094,437.5803179000068,None,436.58179609999934,None,436.58179609999934,None,436.58179609999934,None,438.3634013200135,None,438.3634013200135,None,438.3634013200135,None,,,,,,,,,,,,,017,2022-05-12_17h52.30.403,Main,2022.1.1,60.18853456310108,
positive,positive,1,l,j,,,,,,,,,7,4,130,2,,,,,,,,,main,1,1,1,positive,positive,j,j,1,0.7970785999932559,438.3676512000093,439.38006880000466,439.3634698000096,None,438.3676512000093,None,438.3676512000093,None,438.3676512000093,None,440.16330612000456,None,440.16330612000456,None,440.16330612000456,None,,,,,,,,,,,,,017,2022-05-12_17h52.30.403,Main,2022.1.1,60.18853456310108,
positive,positive,2,l,j,,,,,,,,,7,5,131,11,,,,,,,,,main,2,2,2,positive,positive,j,j,1,0.7796008000004804,440.1663239000045,441.1800027999998,441.1633417000121,None,440.1663239000045,None,440.1663239000045,None,440.1663239000045,None,441.9443701199998,None,441.9443701199998,None,441.9443701199998,None,,,,,,,,,,,,,017,2022-05-12_17h52.30.403,Main,2022.1.1,60.18853456310108,
neutral,negative,2,k,k,,,,,,,,,7,6,132,16,,,,,,,,,main,1,1,2,negative,neutral,k,k,1,0.6817765999876428,441.9632305999985,442.96317820000695,442.94663380000566,None,441.9632305999985,None,441.9632305999985,None,441.9632305999985,None,443.62837352000497,None,443.62837352000497,None,443.62837352000497,None,,,,,,,,,,,,,017,2022-05-12_17h52.30.403,Main,2022.1.1,60.18853456310108,
negative,neutral,1,j,l,,,,,,,,,7,7,133,3,,,,,,,,,main,2,2,1,neutral,negative,l,l,1,0.6806118999957107,443.6466223000025,444.6493686000031,444.6274829000031,None,443.6466223000025,None,443.6466223000025,None,443.6466223000025,None,445.31058562000544,None,445.31058562000544,None,445.31058562000544,None,,,,,,,,,,,,,017,2022-05-12_17h52.30.403,Main,2022.1.1,60.18853456310108,
positive,negative,2,l,j,,,,,,,,,7,8,134,14,,,,,,,,,main,2,2,2,negative,positive,j,j,1,0.982032200001413,445.31058240000857,446.3108035000041,446.3108035000041,None,445.31058240000857,None,445.31058240000857,None,445.31058240000857,None,447.2939356200004,None,447.2939356200004,None,447.2939356200004,None,,,,,,,,,,,,,017,2022-05-12_17h52.30.403,Main,2022.1.1,60.18853456310108,
neutral,neutral,1,k,k,,,,,,,,,7,9,135,1,,,,,,,,,main,2,2,1,neutral,neutral,k,k,1,0.7157832000084454,447.2946340000053,448.29391269999905,448.29391269999905,None,447.2946340000053,None,447.2946340000053,None,447.2946340000053,None,449.0105472200012,None,449.0105472200012,None,449.0105472200012,None,,,,,,,,,,,,,017,2022-05-12_17h52.30.403,Main,2022.1.1,60.18853456310108,
neutral,positive,2,k,k,,,,,,,,,7,10,136,13,,,,,,,,,main,2,2,2,positive,neutral,k,k,1,0.583520000000135,449.0272266000102,450.0297331000038,450.0131202000048,None,449.0272266000102,None,449.0272266000102,None,449.0272266000102,None,450.5964471200059,None,450.5964471200059,None,450.5964471200059,None,,,,,,,,,,,,,017,2022-05-12_17h52.30.403,Main,2022.1.1,60.18853456310108,
neutral,negative,1,k,k,,,,,,,,,7,11,137,7,,,,,,,,,main,1,1,1,negative,neutral,k,k,1,0.9315220999997109,450.59957060001034,451.6132723000046,451.5964934000076,None,450.59957060001034,None,450.59957060001034,None,450.59957060001034,None,452.5296745200103,None,452.5296745200103,None,452.5296745200103,None,,,,,,,,,,,,,017,2022-05-12_17h52.30.403,Main,2022.1.1,60.18853456310108,
negative,positive,1,j,l,,,,,,,,,7,12,138,6,,,,,,,,,main,1,1,1,positive,negative,l,l,1,0.6461162000050535,452.53270390001126,453.54643970000325,453.52974430000177,None,452.53270390001126,None,452.53270390001126,None,452.53270390001126,None,454.17744502001005,None,454.17744502001005,None,454.17744502001005,None,,,,,,,,,,,,,017,2022-05-12_17h52.30.403,Main,2022.1.1,60.18853456310108,
positive,neutral,1,l,j,,,,,,,,,7,13,139,8,,,,,,,,,main,2,2,1,neutral,positive,j,j,1,0.8671933000005083,454.1814655000053,455.19624810000823,455.1797274000128,None,454.1814655000053,None,454.1814655000053,None,454.1814655000053,None,456.04627542000526,None,456.04627542000526,None,456.04627542000526,None,,,,,,,,,,,,,017,2022-05-12_17h52.30.403,Main,2022.1.1,60.18853456310108,
negative,negative,1,j,l,,,,,,,,,7,14,140,0,,,,,,,,,main,2,2,1,negative,negative,l,l,1,0.7462610999937169,456.04917790000036,457.06034490000457,457.04363820000435,None,456.04917790000036,None,456.04917790000036,None,456.04917790000036,None,457.7938898200009,None,457.7938898200009,None,457.7938898200009,None,,,,,,,,,,,,,017,2022-05-12_17h52.30.403,Main,2022.1.1,60.18853456310108,
positive,neutral,2,l,j,,,,,,,,,7,15,141,17,,,,,,,,,main,1,1,2,neutral,positive,j,j,1,0.7145787000044947,457.7939829000097,458.7936841000046,458.7936841000046,None,457.7939829000097,None,457.7939829000097,None,457.7939829000097,None,459.5103356200052,None,459.5103356200052,None,459.5103356200052,None,,,,,,,,,,,,,017,2022-05-12_17h52.30.403,Main,2022.1.1,60.18853456310108,
negative,negative,2,j,l,,,,,,,,,7,16,142,9,,,,,,,,,main,2,2,2,negative,negative,l,l,1,0.7151401000010082,459.5107724000118,460.5103039000096,460.5103039000096,None,459.5107724000118,None,459.5107724000118,None,459.5107724000118,None,461.2269674199997,None,461.2269674199997,None,461.2269674199997,None,,,,,,,,,,,,,017,2022-05-12_17h52.30.403,Main,2022.1.1,60.18853456310108,
neutral,neutral,2,k,k,,,,,,,,,7,17,143,10,,,,,,,,,main,2,2,2,neutral,neutral,k,k,1,0.6152096000005258,461.23043000001053,462.24618430000555,462.2299239999993,None,461.23043000001053,None,461.23043000001053,None,461.23043000001053,None,462.8439517200095,None,462.8439517200095,None,462.8439517200095,None,,,,,,,,,,,,,017,2022-05-12_17h52.30.403,Main,2022.1.1,60.18853456310108,
positive,positive,1,l,j,,,,,,,,,8,0,144,2,,,,,,,,,main,2,2,1,positive,positive,j,j,1,0.9150519999966491,462.848118400012,463.8608985000028,463.8462700000091,None,462.848118400012,None,462.848118400012,None,462.848118400012,None,464.7605371200116,None,464.7605371200116,None,464.7605371200116,None,,,,,,,,,,,,,017,2022-05-12_17h52.30.403,Main,2022.1.1,60.18853456310108,
neutral,neutral,2,k,k,,,,,,,,,8,1,145,10,,,,,,,,,main,1,1,2,neutral,neutral,k,k,1,0.7150469999905908,464.76366229999985,465.7628607000079,465.7628607000079,None,464.76366229999985,None,464.76366229999985,None,464.76366229999985,None,466.4771638200109,None,466.4771638200109,None,466.4771638200109,None,,,,,,,,,,,,,017,2022-05-12_17h52.30.403,Main,2022.1.1,60.18853456310108,
negative,negative,2,j,l,,,,,,,,,8,2,146,9,,,,,,,,,main,1,1,2,negative,negative,l,l,1,0.7317935000028228,466.4803174000117,467.4794493000081,467.4794493000081,None,466.4803174000117,None,466.4803174000117,None,466.4803174000117,None,468.2104530200086,None,468.2104530200086,None,468.2104530200086,None,,,,,,,,,,,,,017,2022-05-12_17h52.30.403,Main,2022.1.1,60.18853456310108,
negative,negative,1,j,l,,,,,,,,,8,3,147,0,,,,,,,,,main,2,2,1,negative,negative,l,l,1,0.8145948999881512,468.21400279999943,469.22935400001006,469.2127237000095,None,468.21400279999943,None,468.21400279999943,None,468.21400279999943,None,470.0267107200125,None,470.0267107200125,None,470.0267107200125,None,,,,,,,,,,,,,017,2022-05-12_17h52.30.403,Main,2022.1.1,60.18853456310108,
neutral,positive,2,k,k,,,,,,,,,8,4,148,13,,,,,,,,,main,1,1,2,positive,neutral,k,k,1,0.6819422000116901,470.02713770000264,471.026718100009,471.026718100009,None,470.02713770000264,None,470.02713770000264,None,470.02713770000264,None,471.71008572000574,None,471.71008572000574,None,471.71008572000574,None,,,,,,,,,,,,,017,2022-05-12_17h52.30.403,Main,2022.1.1,60.18853456310108,
positive,negative,1,l,j,,,,,,,,,8,5,149,5,,,,,,,,,main,1,1,1,negative,positive,j,j,1,0.6987760000047274,471.7130793000106,472.71265090000816,472.6960543000023,None,471.7130793000106,None,471.7130793000106,None,471.7130793000106,None,473.4103451200135,None,473.4103451200135,None,473.4103451200135,None,,,,,,,,,,,,,017,2022-05-12_17h52.30.403,Main,2022.1.1,60.18853456310108,
neutral,neutral,1,k,k,,,,,,,,,8,6,150,1,,,,,,,,,main,1,1,1,neutral,neutral,k,k,1,0.6164831999922171,473.41357889999927,474.4126136999985,474.4126136999985,None,473.41357889999927,None,473.41357889999927,None,473.41357889999927,None,475.02667732000555,None,475.02667732000555,None,475.02667732000555,None,,,,,,,,,,,,,017,2022-05-12_17h52.30.403,Main,2022.1.1,60.18853456310108,
neutral,negative,2,k,k,,,,,,,,,8,7,151,16,,,,,,,,,main,1,1,2,negative,neutral,k,k,1,0.565027699994971,475.0358266000112,476.04589350000606,476.0269600000029,None,475.0358266000112,None,475.0358266000112,None,475.0358266000112,None,476.5960274200115,None,476.5960274200115,None,476.5960274200115,None,,,,,,,,,,,,,017,2022-05-12_17h52.30.403,Main,2022.1.1,60.18853456310108,
negative,positive,1,j,l,,,,,,,,,8,8,152,6,,,,,,,,,main,1,1,1,positive,negative,l,l,1,0.6498407999897609,476.5991109000024,477.61247469999944,477.5959319000103,None,476.5991109000024,None,476.5991109000024,None,476.5991109000024,None,478.24590742000873,None,478.24590742000873,None,478.24590742000873,None,,,,,,,,,,,,,017,2022-05-12_17h52.30.403,Main,2022.1.1,60.18853456310108,
negative,neutral,1,j,l,,,,,,,,,8,9,153,3,,,,,,,,,main,1,1,1,neutral,negative,l,l,1,0.6438944999972591,478.25060260000464,479.2598641000077,479.24321680000867,None,478.25060260000464,None,478.25060260000464,None,478.25060260000464,None,479.8932223200027,None,479.8932223200027,None,479.8932223200027,None,,,,,,,,,,,,,017,2022-05-12_17h52.30.403,Main,2022.1.1,60.18853456310108,
positive,positive,2,l,j,,,,,,,,,8,10,154,11,,,,,,,,,main,2,2,2,positive,positive,j,j,1,0.6820363999868277,479.8939129000064,480.89319650000834,480.89319650000834,None,479.8939129000064,None,479.8939129000064,None,479.8939129000064,None,481.57652752000286,None,481.57652752000286,None,481.57652752000286,None,,,,,,,,,,,,,017,2022-05-12_17h52.30.403,Main,2022.1.1,60.18853456310108,
positive,negative,2,l,j,,,,,,,,,8,11,155,14,,,,,,,,,main,1,1,2,negative,positive,j,j,1,0.7173877000022912,481.57666640001116,482.57692520000273,482.57692520000273,None,481.57666640001116,None,481.57666640001116,None,481.57666640001116,None,483.2957019200039,None,483.2957019200039,None,483.2957019200039,None,,,,,,,,,,,,,017,2022-05-12_17h52.30.403,Main,2022.1.1,60.18853456310108,
positive,neutral,1,l,j,,,,,,,,,8,12,156,8,,,,,,,,,main,1,1,1,neutral,positive,j,j,1,1.2629556999891065,483.29829679999966,484.310487300012,484.295803800007,None,483.29829679999966,None,483.29829679999966,None,483.29829679999966,None,485.5601316200118,None,485.5601316200118,None,485.5601316200118,None,,,,,,,,,,,,,017,2022-05-12_17h52.30.403,Main,2022.1.1,60.18853456310108,
neutral,positive,1,k,k,,,,,,,,,8,13,157,4,,,,,,,,,main,2,2,1,positive,neutral,k,k,1,0.615107599995099,485.56337090001034,486.5790449000051,486.5624364000105,None,485.56337090001034,None,485.56337090001034,None,485.56337090001034,None,487.1767251199999,None,487.1767251199999,None,487.1767251199999,None,,,,,,,,,,,,,017,2022-05-12_17h52.30.403,Main,2022.1.1,60.18853456310108,
neutral,negative,1,k,k,,,,,,,,,8,14,158,7,,,,,,,,,main,2,2,1,negative,neutral,k,k,1,0.6314666999969631,487.1804259000055,488.19564280001214,488.17896550000296,None,487.1804259000055,None,487.1804259000055,None,487.1804259000055,None,488.8100293200041,None,488.8100293200041,None,488.8100293200041,None,,,,,,,,,,,,,017,2022-05-12_17h52.30.403,Main,2022.1.1,60.18853456310108,
negative,neutral,2,j,l,,,,,,,,,8,15,159,12,,,,,,,,,main,2,2,2,neutral,negative,l,l,1,0.768681600005948,488.81405169999925,489.82895730000746,489.812259600003,None,488.81405169999925,None,488.81405169999925,None,488.81405169999925,None,490.57998502000555,None,490.57998502000555,None,490.57998502000555,None,,,,,,,,,,,,,017,2022-05-12_17h52.30.403,Main,2022.1.1,60.18853456310108,
negative,positive,2,j,l,,,,,,,,,8,16,160,15,,,,,,,,,main,2,2,2,positive,negative,l,l,1,0.5602854000026127,490.58105120000255,491.5929515000025,491.5762853000051,None,490.58105120000255,None,490.58105120000255,None,490.58105120000255,None,492.1429386200107,None,492.1429386200107,None,492.1429386200107,None,,,,,,,,,,,,,017,2022-05-12_17h52.30.403,Main,2022.1.1,60.18853456310108,
positive,neutral,2,l,j,,,,,,,,,8,17,161,17,,,,,,,,,main,2,2,2,neutral,positive,j,j,1,0.7008801000047242,492.1429416000028,493.1429848000116,493.1429848000116,None,492.1429416000028,None,492.1429416000028,None,492.1429416000028,None,493.8453032200123,None,493.8453032200123,None,493.8453032200123,None,,,,,,,,,,,,,017,2022-05-12_17h52.30.403,Main,2022.1.1,60.18853456310108,
negative,neutral,2,j,l,,,,,,,,,9,0,162,12,,,,,,,,,main,2,2,2,neutral,negative,l,l,1,0.798698799990234,493.8501079000125,494.86219630000414,494.8455094000092,None,493.8501079000125,None,493.8501079000125,None,493.8501079000125,None,495.64544992001174,None,495.64544992001174,None,495.64544992001174,None,,,,,,,,,,,,,017,2022-05-12_17h52.30.403,Main,2022.1.1,60.18853456310108,
neutral,negative,2,k,k,,,,,,,,,9,1,163,16,,,,,,,,,main,1,1,2,negative,neutral,k,k,1,0.6959685999900103,495.6485032000055,496.65997010000865,496.6454551000061,None,495.6485032000055,None,495.6485032000055,None,495.6485032000055,None,497.3431741200111,None,497.3431741200111,None,497.3431741200111,None,,,,,,,,,,,,,017,2022-05-12_17h52.30.403,Main,2022.1.1,60.18853456310108,
positive,neutral,1,l,j,,,,,,,,,9,2,164,8,,,,,,,,,main,2,2,1,neutral,positive,j,j,1,0.7665555999992648,497.34718400001293,498.36210250000295,498.3454550000024,None,497.34718400001293,None,497.34718400001293,None,497.34718400001293,None,499.11201142000937,None,499.11201142000937,None,499.11201142000937,None,,,,,,,,,,,,,017,2022-05-12_17h52.30.403,Main,2022.1.1,60.18853456310108,
negative,negative,2,j,l,,,,,,,,,9,3,165,9,,,,,,,,,main,1,1,2,negative,negative,l,l,1,0.7880910999956541,499.1149868000066,500.1264375000028,500.1101575000066,None,499.1149868000066,None,499.1149868000066,None,499.1149868000066,None,500.89867542000866,None,500.89867542000866,None,500.89867542000866,None,,,,,,,,,,,,,017,2022-05-12_17h52.30.403,Main,2022.1.1,60.18853456310108,
positive,positive,2,l,j,,,,,,,,,9,4,166,11,,,,,,,,,main,2,2,2,positive,positive,j,j,1,0.7899086000106763,500.90529540000716,501.9096672000014,501.8929868999985,None,500.90529540000716,None,500.90529540000716,None,500.90529540000716,None,502.69329462000314,None,502.69329462000314,None,502.69329462000314,None,,,,,,,,,,,,,017,2022-05-12_17h52.30.403,Main,2022.1.1,60.18853456310108,
neutral,neutral,2,k,k,,,,,,,,,9,5,167,10,,,,,,,,,main,2,2,2,neutral,neutral,k,k,1,0.7697641999984626,502.69717910001054,503.7097278000001,503.6953031000012,None,502.69717910001054,None,502.69717910001054,None,502.69717910001054,None,504.45970862000104,None,504.45970862000104,None,504.45970862000104,None,,,,,,,,,,,,,017,2022-05-12_17h52.30.403,Main,2022.1.1,60.18853456310108,
negative,negative,1,j,l,,,,,,,,,9,6,168,0,,,,,,,,,main,1,1,1,negative,negative,l,l,1,0.7272145000024466,504.46876450000855,505.47628110001097,505.4596129999991,None,504.46876450000855,None,504.46876450000855,None,504.46876450000855,None,506.1929306200109,None,506.1929306200109,None,506.1929306200109,None,,,,,,,,,,,,,017,2022-05-12_17h52.30.403,Main,2022.1.1,60.18853456310108,
neutral,positive,1,k,k,,,,,,,,,9,7,169,4,,,,,,,,,main,1,1,1,positive,neutral,k,k,1,0.8496356999967247,506.19696490000933,507.20959130000847,507.192933600003,None,506.19696490000933,None,506.19696490000933,None,506.19696490000933,None,508.0450424200026,None,508.0450424200026,None,508.0450424200026,None,,,,,,,,,,,,,017,2022-05-12_17h52.30.403,Main,2022.1.1,60.18853456310108,
positive,positive,1,l,j,,,,,,,,,9,8,170,2,,,,,,,,,main,1,1,1,positive,positive,j,j,1,0.781877400004305,508.0480321000068,509.06170660001226,509.0428566000046,None,508.0480321000068,None,508.0480321000068,None,508.0480321000068,None,509.82871792000515,None,509.82871792000515,None,509.82871792000515,None,,,,,,,,,,,,,017,2022-05-12_17h52.30.403,Main,2022.1.1,60.18853456310108,
neutral,negative,1,k,k,,,,,,,,,9,9,171,7,,,,,,,,,main,1,1,1,negative,neutral,k,k,1,0.651540599996224,509.83280560000276,510.8428668000124,510.82619390000764,None,509.83280560000276,None,509.83280560000276,None,509.83280560000276,None,511.47846492000826,None,511.47846492000826,None,511.47846492000826,None,,,,,,,,,,,,,017,2022-05-12_17h52.30.403,Main,2022.1.1,60.18853456310108,
positive,neutral,2,l,j,,,,,,,,,9,10,172,17,,,,,,,,,main,2,2,2,neutral,positive,j,j,1,0.7584059999935562,511.48728180000035,512.4917054000107,512.4917054000107,None,511.48728180000035,None,511.48728180000035,None,511.48728180000035,None,513.2425110200056,None,513.2425110200056,None,513.2425110200056,None,,,,,,,,,,,,,017,2022-05-12_17h52.30.403,Main,2022.1.1,60.18853456310108,
neutral,neutral,1,k,k,,,,,,,,,9,11,173,1,,,,,,,,,main,2,2,1,neutral,neutral,k,k,1,0.6986505999957444,513.2425036000059,514.2424857000005,514.2424857000005,None,513.2425036000059,None,513.2425036000059,None,513.2425036000059,None,514.942526220002,None,514.942526220002,None,514.942526220002,None,,,,,,,,,,,,,017,2022-05-12_17h52.30.403,Main,2022.1.1,60.18853456310108,
positive,negative,1,l,j,,,,,,,,,9,12,174,5,,,,,,,,,main,1,1,1,negative,positive,j,j,1,0.6817865999910282,514.9461123000074,515.9616534000088,515.9450528000016,None,514.9461123000074,None,514.9461123000074,None,514.9461123000074,None,516.6261395200054,None,516.6261395200054,None,516.6261395200054,None,,,,,,,,,,,,,017,2022-05-12_17h52.30.403,Main,2022.1.1,60.18853456310108,
negative,neutral,1,j,l,,,,,,,,,9,13,175,3,,,,,,,,,main,2,2,1,neutral,negative,l,l,1,0.8173080000124173,516.6296002000017,517.6449855000101,517.6283987000061,None,516.6296002000017,None,516.6296002000017,None,516.6296002000017,None,518.4449521200077,None,518.4449521200077,None,518.4449521200077,None,,,,,,,,,,,,,017,2022-05-12_17h52.30.403,Main,2022.1.1,60.18853456310108,
negative,positive,1,j,l,,,,,,,,,9,14,176,6,,,,,,,,,main,2,2,1,positive,negative,l,l,1,0.6984021000098437,518.448129100012,519.4615909999993,519.4449437000003,None,518.448129100012,None,518.448129100012,None,518.448129100012,None,520.1449040200023,None,520.1449040200023,None,520.1449040200023,None,,,,,,,,,,,,,017,2022-05-12_17h52.30.403,Main,2022.1.1,60.18853456310108,
neutral,positive,2,k,k,,,,,,,,,9,15,177,13,,,,,,,,,main,2,2,2,positive,neutral,k,k,1,0.6461946999916108,520.1481192000065,521.161528200013,521.1449798000103,None,520.1481192000065,None,520.1481192000065,None,520.1481192000065,None,521.7926849200085,None,521.7926849200085,None,521.7926849200085,None,,,,,,,,,,,,,017,2022-05-12_17h52.30.403,Main,2022.1.1,60.18853456310108,
positive,negative,2,l,j,,,,,,,,,9,16,178,14,,,,,,,,,main,1,1,2,negative,positive,j,j,1,0.6312168000004021,521.7962503000017,522.8089653000061,522.7923155000026,None,521.7962503000017,None,521.7962503000017,None,521.7962503000017,None,523.425626920005,None,523.425626920005,None,523.425626920005,None,,,,,,,,,,,,,017,2022-05-12_17h52.30.403,Main,2022.1.1,60.18853456310108,
negative,positive,2,j,l,,,,,,,,,9,17,179,15,,,,,,,,,main,2,2,2,positive,negative,l,l,1,0.7485493999993196,523.4256231000036,524.4256243999989,524.4256243999989,None,523.4256231000036,None,523.4256231000036,None,523.4256231000036,None,525.1758685200111,None,525.1758685200111,None,525.1758685200111,None,,,,,,,,,,,,,017,2022-05-12_17h52.30.403,Main,2022.1.1,60.18853456310108,
neutral,negative,2,k,k,,,,,,,,,10,0,180,16,,,,,,,,,main,2,2,2,negative,neutral,k,k,1,0.6652176000061445,525.1824416000018,526.1947977000091,526.1615538000042,None,525.1824416000018,None,525.1824416000018,None,525.1824416000018,None,526.8426039200058,None,526.8426039200058,None,526.8426039200058,None,,,,,,,,,,,,,017,2022-05-12_17h52.30.403,Main,2022.1.1,60.18853456310108,
neutral,neutral,2,k,k,,,,,,,,,10,1,181,10,,,,,,,,,main,2,2,2,neutral,neutral,k,k,1,0.6650936000078218,526.8483589000098,527.8614403000101,527.8447891000105,None,526.8483589000098,None,526.8483589000098,None,526.8483589000098,None,528.5091996200135,None,528.5091996200135,None,528.5091996200135,None,,,,,,,,,,,,,017,2022-05-12_17h52.30.403,Main,2022.1.1,60.18853456310108,
neutral,positive,1,k,k,,,,,,,,,10,2,182,4,,,,,,,,,main,2,2,1,positive,neutral,k,k,1,0.5174784999981057,528.5125818000088,529.5258306000032,529.5114815999987,None,528.5125818000088,None,528.5125818000088,None,528.5125818000088,None,530.0280348200104,None,530.0280348200104,None,530.0280348200104,None,,,,,,,,,,,,,017,2022-05-12_17h52.30.403,Main,2022.1.1,60.18853456310108,
neutral,positive,2,k,k,,,,,,,,,10,3,183,13,,,,,,,,,main,2,2,2,positive,neutral,k,k,1,0.6293482000037329,530.0313925000082,531.0446630000079,531.028080300006,None,530.0313925000082,None,530.0313925000082,None,530.0313925000082,None,531.659119520009,None,531.659119520009,None,531.659119520009,None,,,,,,,,,,,,,017,2022-05-12_17h52.30.403,Main,2022.1.1,60.18853456310108,
negative,positive,1,j,l,,,,,,,,,10,4,184,6,,,,,,,,,main,1,1,1,positive,negative,l,l,1,0.6990644999896176,531.6625544999988,532.6754322000052,532.6587685000122,None,531.6625544999988,None,531.6625544999988,None,531.6625544999988,None,533.3587566200076,None,533.3587566200076,None,533.3587566200076,None,,,,,,,,,,,,,017,2022-05-12_17h52.30.403,Main,2022.1.1,60.18853456310108,
positive,positive,2,l,j,,,,,,,,,10,5,185,11,,,,,,,,,main,1,1,2,positive,positive,j,j,1,0.8307582999987062,533.3601487999986,534.3754255000094,534.3587582000036,None,533.3601487999986,None,533.3601487999986,None,533.3601487999986,None,535.1920759200075,None,535.1920759200075,None,535.1920759200075,None,,,,,,,,,,,,,017,2022-05-12_17h52.30.403,Main,2022.1.1,60.18853456310108,
positive,neutral,2,l,j,,,,,,,,,10,6,186,17,,,,,,,,,main,1,1,2,neutral,positive,j,j,1,0.6483450999949127,535.1924088000087,536.1920700000046,536.1920700000046,None,535.1924088000087,None,535.1924088000087,None,535.1924088000087,None,536.8420767200078,None,536.8420767200078,None,536.8420767200078,None,,,,,,,,,,,,,017,2022-05-12_17h52.30.403,Main,2022.1.1,60.18853456310108,
neutral,neutral,1,k,k,,,,,,,,,10,7,187,1,,,,,,,,,main,1,1,1,neutral,neutral,k,k,1,0.7652812000014819,536.8455433000054,537.8446841000114,537.8446841000114,None,536.8455433000054,None,536.8455433000054,None,536.8455433000054,None,538.6090267200125,None,538.6090267200125,None,538.6090267200125,None,,,,,,,,,,,,,017,2022-05-12_17h52.30.403,Main,2022.1.1,60.18853456310108,
negative,neutral,1,j,l,,,,,,,,,10,8,188,3,,,,,,,,,main,2,2,1,neutral,negative,l,l,1,0.7151926000078674,538.6146130999987,539.625915200013,539.6114955000085,None,538.6146130999987,None,538.6146130999987,None,538.6146130999987,None,540.325646920006,None,540.325646920006,None,540.325646920006,None,,,,,,,,,,,,,017,2022-05-12_17h52.30.403,Main,2022.1.1,60.18853456310108,
neutral,negative,1,k,k,,,,,,,,,10,9,189,7,,,,,,,,,main,1,1,1,negative,neutral,k,k,1,0.6483644000109052,540.3289944999997,541.3280687000079,541.3280687000079,None,540.3289944999997,None,540.3289944999997,None,540.3289944999997,None,541.9756211200074,None,541.9756211200074,None,541.9756211200074,None,,,,,,,,,,,,,017,2022-05-12_17h52.30.403,Main,2022.1.1,60.18853456310108,
positive,neutral,1,l,j,,,,,,,,,10,10,190,8,,,,,,,,,main,2,2,1,neutral,positive,j,j,1,0.6176130000094417,541.9796129000024,542.9945272000041,542.9778491000034,None,541.9796129000024,None,541.9796129000024,None,541.9796129000024,None,543.594484720008,None,543.594484720008,None,543.594484720008,None,,,,,,,,,,,,,017,2022-05-12_17h52.30.403,Main,2022.1.1,60.18853456310108,
negative,neutral,2,j,l,,,,,,,,,10,11,191,12,,,,,,,,,main,1,1,2,neutral,negative,l,l,1,0.6443387000035727,543.59892270001,544.6111371000006,544.5945744000055,None,543.59892270001,None,543.59892270001,None,543.59892270001,None,545.2418257200115,None,545.2418257200115,None,545.2418257200115,None,,,,,,,,,,,,,017,2022-05-12_17h52.30.403,Main,2022.1.1,60.18853456310108,
positive,negative,2,l,j,,,,,,,,,10,12,192,14,,,,,,,,,main,1,1,2,negative,positive,j,j,1,0.6650051000033272,545.2418357999995,546.241837300011,546.241837300011,None,545.2418357999995,None,545.2418357999995,None,545.2418357999995,None,546.9085353200135,None,546.9085353200135,None,546.9085353200135,None,,,,,,,,,,,,,017,2022-05-12_17h52.30.403,Main,2022.1.1,60.18853456310108,
positive,positive,1,l,j,,,,,,,,,10,13,193,2,,,,,,,,,main,2,2,1,positive,positive,j,j,1,0.8153571000002557,546.9128046000114,547.927852000008,547.9112127000117,None,546.9128046000114,None,546.9128046000114,None,546.9128046000114,None,548.7252063200067,None,548.7252063200067,None,548.7252063200067,None,,,,,,,,,,,,,017,2022-05-12_17h52.30.403,Main,2022.1.1,60.18853456310108,
negative,negative,2,j,l,,,,,,,,,10,14,194,9,,,,,,,,,main,1,1,2,negative,negative,l,l,1,0.6825320000061765,548.731405700004,549.7444033000065,549.7278244000045,None,548.731405700004,None,548.731405700004,None,548.731405700004,None,550.4087764200012,None,550.4087764200012,None,550.4087764200012,None,,,,,,,,,,,,,017,2022-05-12_17h52.30.403,Main,2022.1.1,60.18853456310108,
negative,negative,1,j,l,,,,,,,,,10,15,195,0,,,,,,,,,main,2,2,1,negative,negative,l,l,1,0.6665702999889618,550.4127661000093,551.4256917000021,551.411374000003,None,550.4127661000093,None,550.4127661000093,None,550.4127661000093,None,552.0775476199997,None,552.0775476199997,None,552.0775476199997,None,,,,,,,,,,,,,017,2022-05-12_17h52.30.403,Main,2022.1.1,60.18853456310108,
positive,negative,1,l,j,,,,,,,,,10,16,196,5,,,,,,,,,main,2,2,1,negative,positive,j,j,1,0.7130906999955187,552.0802120000008,553.0942513000045,553.0776433999999,None,552.0802120000008,None,552.0802120000008,None,552.0802120000008,None,553.7920317200114,None,553.7920317200114,None,553.7920317200114,None,,,,,,,,,,,,,017,2022-05-12_17h52.30.403,Main,2022.1.1,60.18853456310108,
negative,positive,2,j,l,,,,,,,,,10,17,197,15,,,,,,,,,main,2,2,2,positive,negative,l,l,1,0.6310671999963233,553.7959833000059,554.8083298000129,554.7916522000014,None,553.7959833000059,None,553.7959833000059,None,553.7959833000059,None,555.4252742200115,None,555.4252742200115,None,555.4252742200115,None,,,,,,,,,,,,,017,2022-05-12_17h52.30.403,Main,2022.1.1,60.18853456310108,
positive,negative,2,l,j,,,,,,,,,11,0,198,14,,,,,,,,,main,2,2,2,negative,positive,j,j,1,0.7145385000039823,555.4256363000022,556.425161200008,556.425161200008,None,555.4256363000022,None,555.4256363000022,None,555.4256363000022,None,557.1416216200087,None,557.1416216200087,None,557.1416216200087,None,,,,,,,,,,,,,017,2022-05-12_17h52.30.403,Main,2022.1.1,60.18853456310108,
neutral,neutral,1,k,k,,,,,,,,,11,1,199,1,,,,,,,,,main,1,1,1,neutral,neutral,k,k,1,0.9017884000058984,557.1419341000001,558.1416054000001,558.1416054000001,None,557.1419341000001,None,557.1419341000001,None,557.1419341000001,None,559.0441966200087,None,559.0441966200087,None,559.0441966200087,None,,,,,,,,,,,,,017,2022-05-12_17h52.30.403,Main,2022.1.1,60.18853456310108,
negative,negative,1,j,l,,,,,,,,,11,2,200,0,,,,,,,,,main,1,1,1,negative,negative,l,l,1,0.6620344999973895,559.047983299999,560.058563700004,560.0440987000038,None,559.047983299999,None,559.047983299999,None,559.047983299999,None,560.7085554200094,None,560.7085554200094,None,560.7085554200094,None,,,,,,,,,,,,,017,2022-05-12_17h52.30.403,Main,2022.1.1,60.18853456310108,
positive,positive,1,l,j,,,,,,,,,11,3,201,2,,,,,,,,,main,2,2,1,positive,positive,j,j,1,0.6650917000079062,560.7118688000046,561.727432700005,561.7108243000112,None,560.7118688000046,None,560.7118688000046,None,560.7118688000046,None,562.3751923200107,None,562.3751923200107,None,562.3751923200107,None,,,,,,,,,,,,,017,2022-05-12_17h52.30.403,Main,2022.1.1,60.18853456310108,
negative,neutral,2,j,l,,,,,,,,,11,4,202,12,,,,,,,,,main,1,1,2,neutral,negative,l,l,1,0.664979699999094,562.3786629000097,563.3941191000049,563.3751786000066,None,562.3786629000097,None,562.3786629000097,None,562.3786629000097,None,564.0417903200068,None,564.0417903200068,None,564.0417903200068,None,,,,,,,,,,,,,017,2022-05-12_17h52.30.403,Main,2022.1.1,60.18853456310108,
neutral,positive,2,k,k,,,,,,,,,11,5,203,13,,,,,,,,,main,2,2,2,positive,neutral,k,k,1,0.7474249999941094,564.0457999000064,565.0584409000003,565.0439932000008,None,564.0457999000064,None,564.0457999000064,None,564.0457999000064,None,565.7914126200121,None,565.7914126200121,None,565.7914126200121,None,,,,,,,,,,,,,017,2022-05-12_17h52.30.403,Main,2022.1.1,60.18853456310108,
positive,neutral,2,l,j,,,,,,,,,11,6,204,17,,,,,,,,,main,2,2,2,neutral,positive,j,j,1,0.6148160000011558,565.791435600011,566.7914082000061,566.7914082000061,None,565.791435600011,None,565.791435600011,None,565.791435600011,None,567.4080929200063,None,567.4080929200063,None,567.4080929200063,None,,,,,,,,,,,,,017,2022-05-12_17h52.30.403,Main,2022.1.1,60.18853456310108,
neutral,negative,2,k,k,,,,,,,,,11,7,205,16,,,,,,,,,main,1,1,2,negative,neutral,k,k,1,0.831688899997971,567.4091325000045,568.4247309000057,568.4080657000013,None,567.4091325000045,None,567.4091325000045,None,567.4091325000045,None,569.24137892,None,569.24137892,None,569.24137892,None,,,,,,,,,,,,,017,2022-05-12_17h52.30.403,Main,2022.1.1,60.18853456310108,
positive,neutral,1,l,j,,,,,,,,,11,8,206,8,,,,,,,,,main,1,1,1,neutral,positive,j,j,1,0.7677840999967884,569.2415516000037,570.2413958000107,570.2413958000107,None,569.2415516000037,None,569.2415516000037,None,569.2415516000037,None,571.0106847200004,None,571.0106847200004,None,571.0106847200004,None,,,,,,,,,,,,,017,2022-05-12_17h52.30.403,Main,2022.1.1,60.18853456310108,
negative,positive,2,j,l,,,,,,,,,11,9,207,15,,,,,,,,,main,1,1,2,positive,negative,l,l,1,0.7806262000085553,571.0137748000125,572.0253388000128,572.0109603000019,None,571.0137748000125,None,571.0137748000125,None,571.0137748000125,None,572.7927379200046,None,572.7927379200046,None,572.7927379200046,None,,,,,,,,,,,,,017,2022-05-12_17h52.30.403,Main,2022.1.1,60.18853456310108,
neutral,negative,1,k,k,,,,,,,,,11,10,208,7,,,,,,,,,main,2,2,1,negative,neutral,k,k,1,0.697225800002343,572.7984412000078,573.8086198000092,573.7939170000027,None,572.7984412000078,None,572.7984412000078,None,572.7984412000078,None,574.4913107200045,None,574.4913107200045,None,574.4913107200045,None,,,,,,,,,,,,,017,2022-05-12_17h52.30.403,Main,2022.1.1,60.18853456310108,
negative,negative,2,j,l,,,,,,,,,11,11,209,9,,,,,,,,,main,2,2,2,negative,negative,l,l,1,0.7993521000025794,574.4978419000108,575.510506999999,575.4915735000104,None,574.4978419000108,None,574.4978419000108,None,574.4978419000108,None,576.2926504200077,None,576.2926504200077,None,576.2926504200077,None,,,,,,,,,,,,,017,2022-05-12_17h52.30.403,Main,2022.1.1,60.18853456310108,
negative,positive,1,j,l,,,,,,,,,11,12,210,6,,,,,,,,,main,1,1,1,positive,negative,l,l,1,1.0628762999986066,576.3003351000079,577.3104787000048,577.2938448000059,None,576.3003351000079,None,576.3003351000079,None,576.3003351000079,None,578.3578567200093,None,578.3578567200093,None,578.3578567200093,None,,,,,,,,,,,,,017,2022-05-12_17h52.30.403,Main,2022.1.1,60.18853456310108,
neutral,neutral,2,k,k,,,,,,,,,11,13,211,10,,,,,,,,,main,2,2,2,neutral,neutral,k,k,1,0.7814991999912309,578.3582473999995,579.358322,579.358322,None,578.3582473999995,None,578.3582473999995,None,578.3582473999995,None,580.1411460200106,None,580.1411460200106,None,580.1411460200106,None,,,,,,,,,,,,,017,2022-05-12_17h52.30.403,Main,2022.1.1,60.18853456310108,
negative,neutral,1,j,l,,,,,,,,,11,14,212,3,,,,,,,,,main,1,1,1,neutral,negative,l,l,1,0.7313628999982029,580.145406399999,581.1603168000001,581.1437288000016,None,580.145406399999,None,580.145406399999,None,580.145406399999,None,581.8750460200026,None,581.8750460200026,None,581.8750460200026,None,,,,,,,,,,,,,017,2022-05-12_17h52.30.403,Main,2022.1.1,60.18853456310108,
positive,positive,2,l,j,,,,,,,,,11,15,213,11,,,,,,,,,main,2,2,2,positive,positive,j,j,1,0.7003316999907838,581.8788025000104,582.8936007000011,582.8770483000117,None,581.8788025000104,None,581.8788025000104,None,581.8788025000104,None,583.5770471200012,None,583.5770471200012,None,583.5770471200012,None,,,,,,,,,,,,,017,2022-05-12_17h52.30.403,Main,2022.1.1,60.18853456310108,
positive,negative,1,l,j,,,,,,,,,11,16,214,5,,,,,,,,,main,1,1,1,negative,positive,j,j,1,0.7795300999860046,583.5800864000048,584.5936442000093,584.5749959000095,None,583.5800864000048,None,583.5800864000048,None,583.5800864000048,None,585.3580440200094,None,585.3580440200094,None,585.3580440200094,None,,,,,,,,,,,,,017,2022-05-12_17h52.30.403,Main,2022.1.1,60.18853456310108,
neutral,positive,1,k,k,,,,,,,,,11,17,215,4,,,,,,,,,main,2,2,1,positive,neutral,k,k,1,0.6841268000134733,585.3617936000082,586.3768930000078,586.3602386999992,None,585.3617936000082,None,585.3617936000082,None,585.3617936000082,None,587.0436060200082,None,587.0436060200082,None,587.0436060200082,None,,,,,,,,,,,,,017,2022-05-12_17h52.30.403,Main,2022.1.1,60.18853456310108,
negative,positive,2,j,l,,,,,,,,,12,0,216,15,,,,,,,,,main,1,1,2,positive,negative,l,l,1,0.6121088999934727,587.0469910000102,588.05760130001,588.0409395000024,None,587.0469910000102,None,587.0469910000102,None,587.0469910000102,None,588.6576083200125,None,588.6576083200125,None,588.6576083200125,None,,,,,,,,,,,,,017,2022-05-12_17h52.30.403,Main,2022.1.1,60.18853456310108,
negative,neutral,2,j,l,,,,,,,,,12,1,217,12,,,,,,,,,main,2,2,2,neutral,negative,l,l,1,0.5985480999952415,588.6576044000103,589.6575951000123,589.6575951000123,None,588.6576044000103,None,588.6576044000103,None,588.6576044000103,None,590.2576245200107,None,590.2576245200107,None,590.2576245200107,None,,,,,,,,,,,,,017,2022-05-12_17h52.30.403,Main,2022.1.1,60.18853456310108,
negative,neutral,1,j,l,,,,,,,,,12,2,218,3,,,,,,,,,main,1,1,1,neutral,negative,l,l,1,0.615142199996626,590.2609235999989,591.2601886000048,591.2601886000048,None,590.2609235999989,None,590.2609235999989,None,590.2609235999989,None,591.8745443200096,None,591.8745443200096,None,591.8745443200096,None,,,,,,,,,,,,,017,2022-05-12_17h52.30.403,Main,2022.1.1,60.18853456310108,
positive,neutral,1,l,j,,,,,,,,,12,3,219,8,,,,,,,,,main,2,2,1,neutral,positive,j,j,1,0.9008827000070596,591.8785795000003,592.8934208999999,592.8602126000042,None,591.8785795000003,None,591.8785795000003,None,591.8785795000003,None,593.7768436200058,None,593.7768436200058,None,593.7768436200058,None,,,,,,,,,,,,,017,2022-05-12_17h52.30.403,Main,2022.1.1,60.18853456310108,
neutral,negative,1,k,k,,,,,,,,,12,4,220,7,,,,,,,,,main,1,1,1,negative,neutral,k,k,1,0.6138260000006994,593.7798313000094,594.793365400008,594.7767687000014,None,593.7798313000094,None,593.7798313000094,None,593.7798313000094,None,595.3911497200097,None,595.3911497200097,None,595.3911497200097,None,,,,,,,,,,,,,017,2022-05-12_17h52.30.403,Main,2022.1.1,60.18853456310108,
neutral,neutral,1,k,k,,,,,,,,,12,5,221,1,,,,,,,,,main,2,2,1,neutral,neutral,k,k,1,0.6510232000000542,595.3952151000121,596.4099312000035,596.3934691000031,None,595.3952151000121,None,595.3952151000121,None,595.3952151000121,None,597.0446079200119,None,597.0446079200119,None,597.0446079200119,None,,,,,,,,,,,,,017,2022-05-12_17h52.30.403,Main,2022.1.1,60.18853456310108,
positive,negative,2,l,j,,,,,,,,,12,6,222,14,,,,,,,,,main,2,2,2,negative,positive,j,j,1,0.5299848000140628,597.0473586000007,598.0599306000076,598.043316700001,None,597.0473586000007,None,597.0473586000007,None,597.0473586000007,None,598.5766192200026,None,598.5766192200026,None,598.5766192200026,None,,,,,,,,,,,,,017,2022-05-12_17h52.30.403,Main,2022.1.1,60.18853456310108,
neutral,positive,2,k,k,,,,,,,,,12,7,223,13,,,,,,,,,main,1,1,2,positive,neutral,k,k,1,0.6119781000015792,598.5802626000077,599.5907161000068,599.5740522999986,None,598.5802626000077,None,598.5802626000077,None,598.5802626000077,None,600.190701520005,None,600.190701520005,None,600.190701520005,None,,,,,,,,,,,,,017,2022-05-12_17h52.30.403,Main,2022.1.1,60.18853456310108,
neutral,negative,2,k,k,,,,,,,,,12,8,224,16,,,,,,,,,main,1,1,2,negative,neutral,k,k,1,0.7983422999968752,600.1906994000019,601.1907069000008,601.1907069000008,None,600.1906994000019,None,600.1906994000019,None,600.1906994000019,None,601.9906979200096,None,601.9906979200096,None,601.9906979200096,None,,,,,,,,,,,,,017,2022-05-12_17h52.30.403,Main,2022.1.1,60.18853456310108,
