target,distractor,set,ans1,ans2,rep_loop2.thisRepN,rep_loop2.thisTrialN,rep_loop2.thisN,rep_loop2.thisIndex,flanker_prac_loop.thisRepN,flanker_prac_loop.thisTrialN,flanker_prac_loop.thisN,flanker_prac_loop.thisIndex,flanker_main_loop.thisRepN,flanker_main_loop.thisTrialN,flanker_main_loop.thisN,flanker_main_loop.thisIndex,fl_inst_resp.keys,fl_inst_resp.rt,sound_1.started,sound_1.stopped,image_4.started,image_4.stopped,back_2.started,back_2.stopped,main_prac,fl_cold,fl_colt,fl_set,fl_dcond,fl_tcond,fl_ans,fl_res,fl_corr,fl_rt,fix_fl.started,fix_fl.stopped,targ.started,targ.stopped,j_button.started,j_button.stopped,k_button.started,k_button.stopped,l_button.started,l_button.stopped,j_button2.started,j_button2.stopped,k_button2.started,k_button2.stopped,l_button2.started,l_button2.stopped,mainback.started,mainback.stopped,key_resp.keys,mouse_6.x,mouse_6.y,mouse_6.leftButton,mouse_6.midButton,mouse_6.rightButton,mouse_6.started,mouse_6.stopped,text_2.started,text_2.stopped,id*,date,expName,psychopyVersion,frameRate,
,,,,,0,0,0,0,,,,,,,,,space,53.25900420000835,41.62838354000269,None,94.91036149999127,None,,,,,,,,,,,,,,,,,,,,,,,,,,,,,,,,,,,,,,,,,018,2022-05-12_19h33.04.237,Main,2022.1.1,60.00502841950379,
neutral,positive,2,k,k,,,,,0,0,0,13,,,,,,,,,,,98.67966779999551,None,prac,2,2,2,positive,neutral,k,k,1,1.329172900004778,100.69071670000267,101.69365040000412,101.67953140000463,None,100.69071670000267,None,100.69071670000267,None,100.69071670000267,None,103.01277104000474,None,103.01277104000474,None,103.01277104000474,None,,,,,,,,,,,,,018,2022-05-12_19h33.04.237,Main,2022.1.1,60.00502841950379,
positive,positive,2,l,j,,,,,0,1,1,11,,,,,,,,,,,,,prac,2,2,2,positive,positive,l,l,1,1.5293333000008715,103.01730389999284,104.02945089999412,104.01282979999087,None,103.01730389999284,None,103.01730389999284,None,103.01730389999284,None,105.54824489999737,None,105.54824489999737,None,105.54824489999737,None,,,,,,,,,,,,,018,2022-05-12_19h33.04.237,Main,2022.1.1,60.00502841950379,
positive,neutral,1,l,j,,,,,0,2,2,8,,,,,,,,,,,,,prac,1,1,1,neutral,positive,l,l,1,1.0020846000115853,106.5608030000003,107.56011659999785,107.54341859999113,None,106.5608030000003,None,106.5608030000003,None,106.5608030000003,None,108.56009543999244,None,108.56009543999244,None,108.56009543999244,None,,,,,,,,,,,,,018,2022-05-12_19h33.04.237,Main,2022.1.1,60.00502841950379,
neutral,negative,1,k,k,,,,,0,3,3,7,,,,,,,,,,,,,prac,2,2,1,negative,neutral,k,k,1,0.8804615999979433,108.56159240000125,109.57677580000018,109.56008919999294,None,108.56159240000125,None,108.56159240000125,None,108.56159240000125,None,110.44342934000451,None,110.44342934000451,None,110.44342934000451,None,,,,,,,,,,,,,018,2022-05-12_19h33.04.237,Main,2022.1.1,60.00502841950379,
negative,neutral,2,j,l,,,,,0,4,4,12,,,,,,,,,,,,,prac,1,1,2,neutral,negative,j,j,1,0.6845953000010923,110.44354209999437,111.44341690000147,111.44341690000147,None,110.44354209999437,None,110.44354209999437,None,110.44354209999437,None,112.12944323999545,None,112.12944323999545,None,112.12944323999545,None,,,,,,,,,,,,,018,2022-05-12_19h33.04.237,Main,2022.1.1,60.00502841950379,
negative,positive,2,j,l,,,,,0,5,5,15,,,,,,,,,,,,,prac,2,2,2,positive,negative,j,j,1,0.6629134999966482,112.13241589999234,113.14596589999564,113.12930749999941,None,112.13241589999234,None,112.13241589999234,None,112.13241589999234,None,113.7936568399964,None,113.7936568399964,None,113.7936568399964,None,,,,,,,,,,,,,018,2022-05-12_19h33.04.237,Main,2022.1.1,60.00502841950379,
neutral,neutral,2,k,k,,,,,0,6,6,10,,,,,,,,,,,,,prac,2,2,2,neutral,neutral,k,k,1,0.7159634999989066,113.7968120000005,114.79590470000403,114.77923649999138,None,113.7968120000005,None,113.7968120000005,None,113.7968120000005,None,115.51080254000408,None,115.51080254000408,None,115.51080254000408,None,,,,,,,,,,,,,018,2022-05-12_19h33.04.237,Main,2022.1.1,60.00502841950379,
negative,negative,2,j,l,,,,,0,7,7,9,,,,,,,,,,,,,prac,1,1,2,negative,negative,j,j,1,1.2144522999878973,115.51651429999038,116.52923539999756,116.51257310000074,None,115.51651429999038,None,115.51651429999038,None,115.51651429999038,None,117.72662644000229,None,117.72662644000229,None,117.72662644000229,None,,,,,,,,,,,,,018,2022-05-12_19h33.04.237,Main,2022.1.1,60.00502841950379,
positive,neutral,2,l,j,,,,,0,8,8,17,,,,,,,,,,,,,prac,2,2,2,neutral,positive,l,l,1,0.9170181000081357,117.73085120000178,118.74583200000052,118.72925119999854,None,117.73085120000178,None,117.73085120000178,None,117.73085120000178,None,119.64577074000408,None,119.64577074000408,None,119.64577074000408,None,,,,,,,,,,,,,018,2022-05-12_19h33.04.237,Main,2022.1.1,60.00502841950379,
neutral,negative,2,k,k,,,,,0,9,9,16,,,,,,,,,,,,,prac,2,2,2,negative,neutral,k,k,1,0.8626600999996299,119.64853330000187,120.65985029999865,120.6431825000036,None,119.64853330000187,None,119.64853330000187,None,119.64853330000187,None,121.50981283999135,None,121.50981283999135,None,121.50981283999135,None,,,,,,,,,,,,,018,2022-05-12_19h33.04.237,Main,2022.1.1,60.00502841950379,
positive,negative,1,l,j,,,,,0,10,10,5,,,,,,,,,,,,,prac,1,1,1,negative,positive,l,l,1,0.7488306000013836,121.50981059999322,122.50986829999601,122.50986829999601,None,121.50981059999322,None,121.50981059999322,None,121.50981059999322,None,123.25984063999931,None,123.25984063999931,None,123.25984063999931,None,,,,,,,,,,,,,018,2022-05-12_19h33.04.237,Main,2022.1.1,60.00502841950379,
negative,negative,1,j,l,,,,,0,11,11,0,,,,,,,,,,,,,prac,2,2,1,negative,negative,j,l,0,0.6822093000082532,123.26332810000167,124.26230309999664,124.24572399999306,None,123.26332810000167,None,123.26332810000167,None,123.26332810000167,None,124.94344079999428,None,124.94344079999428,None,124.94344079999428,None,,,,,,,,,,,,,018,2022-05-12_19h33.04.237,Main,2022.1.1,60.00502841950379,
neutral,positive,1,k,k,,,,,0,12,12,4,,,,,,,,,,,,,prac,2,2,1,positive,neutral,k,k,1,1.00134520001302,125.94410999999673,126.94554739999876,126.92900180000288,None,125.94410999999673,None,125.94410999999673,None,125.94410999999673,None,127.94339023999783,None,127.94339023999783,None,127.94339023999783,None,,,,,,,,,,,,,018,2022-05-12_19h33.04.237,Main,2022.1.1,60.00502841950379,
negative,neutral,1,j,l,,,,,0,13,13,3,,,,,,,,,,,,,prac,1,1,1,neutral,negative,j,j,1,1.4359361000097124,127.94697399999131,128.96228849999898,128.94560239999555,None,127.94697399999131,None,127.94697399999131,None,127.94697399999131,None,130.3797405400037,None,130.3797405400037,None,130.3797405400037,None,,,,,,,,,,,,,018,2022-05-12_19h33.04.237,Main,2022.1.1,60.00502841950379,
neutral,neutral,1,k,k,,,,,0,14,14,1,,,,,,,,,,,,,prac,1,1,1,neutral,neutral,k,k,1,1.2440900999936275,130.3932294999977,131.39294189999055,131.3762962000037,None,130.3932294999977,None,130.3932294999977,None,130.3932294999977,None,132.62633933999314,None,132.62633933999314,None,132.62633933999314,None,,,,,,,,,,,,,018,2022-05-12_19h33.04.237,Main,2022.1.1,60.00502841950379,
positive,positive,1,l,j,,,,,0,15,15,2,,,,,,,,,,,,,prac,1,1,1,positive,positive,l,l,1,0.7656835000088904,132.62966150000284,133.62629559999914,133.62629559999914,None,132.62966150000284,None,132.62966150000284,None,132.62966150000284,None,134.3932490399966,None,134.3932490399966,None,134.3932490399966,None,,,,,,,,,,,,,018,2022-05-12_19h33.04.237,Main,2022.1.1,60.00502841950379,
negative,positive,1,j,l,,,,,0,16,16,6,,,,,,,,,,,,,prac,1,1,1,positive,negative,j,j,1,0.9818314000003738,134.39897239999846,135.41215580000426,135.3955255000037,None,134.39897239999846,None,134.39897239999846,None,134.39897239999846,None,136.37653603999206,None,136.37653603999206,None,136.37653603999206,None,,,,,,,,,,,,,018,2022-05-12_19h33.04.237,Main,2022.1.1,60.00502841950379,
positive,negative,2,l,j,,,,,0,17,17,14,,,,,,,,,,,,,prac,2,2,2,negative,positive,l,l,1,1.1848521000065375,136.38007359999756,137.3954209999938,137.37881460000062,None,136.38007359999756,None,136.38007359999756,None,136.38007359999756,None,138.56203913999343,None,138.56203913999343,None,138.56203913999343,None,,,,,,,,,,,,,018,2022-05-12_19h33.04.237,Main,2022.1.1,60.00502841950379,
positive,neutral,2,l,j,,,,,1,0,18,17,,,,,,,,,,,,,prac,1,1,2,neutral,positive,l,l,1,0.6784349999943515,138.56579789999523,139.5787038999988,139.56208829999377,None,138.56579789999523,None,138.56579789999523,None,138.56579789999523,None,140.24277864000032,None,140.24277864000032,None,140.24277864000032,None,,,,,,,,,,,,,018,2022-05-12_19h33.04.237,Main,2022.1.1,60.00502841950379,
neutral,positive,2,k,k,,,,,1,1,19,13,,,,,,,,,,,,,prac,1,1,2,positive,neutral,k,k,1,0.8321318999951473,140.24314340000274,141.24275579999085,141.24275579999085,None,140.24314340000274,None,140.24314340000274,None,140.24314340000274,None,142.07613084000332,None,142.07613084000332,None,142.07613084000332,None,,,,,,,,,,,,,018,2022-05-12_19h33.04.237,Main,2022.1.1,60.00502841950379,
negative,negative,2,j,l,,,,,1,2,20,9,,,,,,,,,,,,,prac,2,2,2,negative,negative,j,j,1,1.3486093999963487,142.07878169999458,143.09274619999633,143.07608379999874,None,142.07878169999458,None,142.07878169999458,None,142.07878169999458,None,144.42608903999644,None,144.42608903999644,None,144.42608903999644,None,,,,,,,,,,,,,018,2022-05-12_19h33.04.237,Main,2022.1.1,60.00502841950379,
negative,neutral,1,j,l,,,,,1,3,21,3,,,,,,,,,,,,,prac,2,2,1,neutral,negative,j,j,1,0.93233730000793,144.42894919999526,145.42864579999878,145.41200009999739,None,144.42894919999526,None,144.42894919999526,None,144.42894919999526,None,146.35968023999158,None,146.35968023999158,None,146.35968023999158,None,,,,,,,,,,,,,018,2022-05-12_19h33.04.237,Main,2022.1.1,60.00502841950379,
neutral,neutral,2,k,k,,,,,1,4,22,10,,,,,,,,,,,,,prac,1,1,2,neutral,neutral,k,k,1,0.7985420999902999,146.365232199998,147.3785174999939,147.3452743999951,None,146.365232199998,None,146.365232199998,None,146.365232199998,None,148.1597371399912,None,148.1597371399912,None,148.1597371399912,None,,,,,,,,,,,,,018,2022-05-12_19h33.04.237,Main,2022.1.1,60.00502841950379,
negative,negative,1,j,l,,,,,1,5,23,0,,,,,,,,,,,,,prac,2,2,1,negative,negative,j,j,1,0.8822008999995887,148.16563089999545,149.17852119999588,149.14528810000047,None,148.16563089999545,None,148.16563089999545,None,148.16563089999545,None,150.04292483999598,None,150.04292483999598,None,150.04292483999598,None,,,,,,,,,,,,,018,2022-05-12_19h33.04.237,Main,2022.1.1,60.00502841950379,
negative,positive,2,j,l,,,,,1,6,24,15,,,,,,,,,,,,,prac,2,2,2,positive,negative,j,j,1,0.9212775000050897,150.0460519000044,151.045108899998,151.045108899998,None,150.0460519000044,None,150.0460519000044,None,150.0460519000044,None,151.96418223999353,None,151.96418223999353,None,151.96418223999353,None,,,,,,,,,,,,,018,2022-05-12_19h33.04.237,Main,2022.1.1,60.00502841950379,
neutral,positive,1,k,k,,,,,1,7,25,4,,,,,,,,,,,,,prac,1,1,1,positive,neutral,k,k,1,0.6759720999980345,151.96874319999188,152.975864299995,152.95919510000385,None,151.96874319999188,None,151.96874319999188,None,151.96874319999188,None,153.64250783999887,None,153.64250783999887,None,153.64250783999887,None,,,,,,,,,,,,,018,2022-05-12_19h33.04.237,Main,2022.1.1,60.00502841950379,
neutral,negative,1,k,k,,,,,1,8,26,7,,,,,,,,,,,,,prac,1,1,1,negative,neutral,k,k,1,0.6317526000057114,153.6431719999964,154.64250279999396,154.64250279999396,None,153.6431719999964,None,153.6431719999964,None,153.6431719999964,None,155.27583543999208,None,155.27583543999208,None,155.27583543999208,None,,,,,,,,,,,,,018,2022-05-12_19h33.04.237,Main,2022.1.1,60.00502841950379,
positive,positive,2,l,j,,,,,1,9,27,11,,,,,,,,,,,,,prac,2,2,2,positive,positive,l,l,1,0.582085999994888,155.27606699999887,156.2758288999903,156.2758288999903,None,155.27606699999887,None,155.27606699999887,None,155.27606699999887,None,156.85918063999998,None,156.85918063999998,None,156.85918063999998,None,,,,,,,,,,,,,018,2022-05-12_19h33.04.237,Main,2022.1.1,60.00502841950379,
neutral,neutral,1,k,k,,,,,1,10,28,1,,,,,,,,,,,,,prac,1,1,1,neutral,neutral,k,k,1,0.7489808999962406,156.86331839999184,157.87839749999694,157.86180319999403,None,156.86331839999184,None,156.86331839999184,None,156.86331839999184,None,158.60944523999206,None,158.60944523999206,None,158.60944523999206,None,,,,,,,,,,,,,018,2022-05-12_19h33.04.237,Main,2022.1.1,60.00502841950379,
positive,negative,1,l,j,,,,,1,11,29,5,,,,,,,,,,,,,prac,2,2,1,negative,positive,l,l,1,0.6496838000020944,158.61345699999947,159.62835410000116,159.61166769999545,None,158.61345699999947,None,158.61345699999947,None,158.61345699999947,None,160.26151273999858,None,160.26151273999858,None,160.26151273999858,None,,,,,,,,,,,,,018,2022-05-12_19h33.04.237,Main,2022.1.1,60.00502841950379,
negative,positive,1,j,l,,,,,1,12,30,6,,,,,,,,,,,,,prac,2,2,1,positive,negative,j,j,1,0.6832083000044804,160.26412649999838,161.27826009999262,161.2616274000029,None,160.26412649999838,None,160.26412649999838,None,160.26412649999838,None,161.94268053999258,None,161.94268053999258,None,161.94268053999258,None,,,,,,,,,,,,,018,2022-05-12_19h33.04.237,Main,2022.1.1,60.00502841950379,
positive,neutral,1,l,j,,,,,1,13,31,8,,,,,,,,,,,,,prac,1,1,1,neutral,positive,l,l,1,0.7787594999972498,161.94854539999506,162.96156589999737,162.9449484999932,None,161.94854539999506,None,161.94854539999506,None,161.94854539999506,None,163.72604033999232,None,163.72604033999232,None,163.72604033999232,None,,,,,,,,,,,,,018,2022-05-12_19h33.04.237,Main,2022.1.1,60.00502841950379,
negative,neutral,2,j,l,,,,,1,14,32,12,,,,,,,,,,,,,prac,1,1,2,neutral,negative,j,j,1,0.8647493999887956,163.72904930000368,164.74190539999108,164.719869499997,None,163.72904930000368,None,163.72904930000368,None,163.72904930000368,None,165.5922509400043,None,165.5922509400043,None,165.5922509400043,None,,,,,,,,,,,,,018,2022-05-12_19h33.04.237,Main,2022.1.1,60.00502841950379,
neutral,negative,2,k,k,,,,,1,15,33,16,,,,,,,,,,,,,prac,2,2,2,negative,neutral,k,k,1,0.6656001000083052,165.59225089999381,166.59225790000346,166.59225790000346,None,165.59225089999381,None,165.59225089999381,None,165.59225089999381,None,167.25893853999878,None,167.25893853999878,None,167.25893853999878,None,,,,,,,,,,,,,018,2022-05-12_19h33.04.237,Main,2022.1.1,60.00502841950379,
positive,positive,1,l,j,,,,,1,16,34,2,,,,,,,,,,,,,prac,1,1,1,positive,positive,l,l,1,0.6322471000021324,167.2618530000036,168.26151689999097,168.2448585999955,None,167.2618530000036,None,167.2618530000036,None,167.2618530000036,None,168.89254624000023,None,168.89254624000023,None,168.89254624000023,None,,,,,,,,,,,,,018,2022-05-12_19h33.04.237,Main,2022.1.1,60.00502841950379,
positive,negative,2,l,j,,,,,1,17,35,14,,,,,,,,,,,,,prac,1,1,2,negative,positive,l,l,1,0.648806400000467,168.89570829999866,169.89473919999728,169.87814349999826,None,168.89570829999866,None,168.89570829999866,None,168.89570829999866,None,170.54256074000295,None,170.54256074000295,None,170.54256074000295,None,,,,,,,,,,,,,018,2022-05-12_19h33.04.237,Main,2022.1.1,60.00502841950379,
,,,,,,,,,,,,,,,,,,,,,,,,,,,,,,,,,,,,,,,,,,,,,,,,,,,170.54470479999145,None,None,,,,,,,,,,018,2022-05-12_19h33.04.237,Main,2022.1.1,60.00502841950379,
,,,,,,,,,,,,,,,,,,,,,,,,,,,,,,,,,,,,,,,,,,,,,,,,,,,,,,0.13148148,-0.083333336,1,0,0,0.011037539996323176,None,,,018,2022-05-12_19h33.04.237,Main,2022.1.1,60.00502841950379,
negative,neutral,2,j,l,,,,,,,,,0,0,0,12,,,,,,,178.52536289999261,None,main,2,2,2,neutral,negative,j,j,1,0.9754271999991033,180.53769869999087,181.5445325000037,181.52800019999268,None,180.53769869999087,None,180.53769869999087,None,180.53769869999087,None,182.5089399399949,None,182.5089399399949,None,182.5089399399949,None,,,,,,,,,,,,,018,2022-05-12_19h33.04.237,Main,2022.1.1,60.00502841950379,
neutral,negative,2,k,k,,,,,,,,,0,1,1,16,,,,,,,,,main,1,1,2,negative,neutral,k,k,1,0.6636033999966457,182.51354079999146,183.52778099999705,183.51121379999677,None,182.51354079999146,None,182.51354079999146,None,182.51354079999146,None,184.17557123999723,None,184.17557123999723,None,184.17557123999723,None,,,,,,,,,,,,,018,2022-05-12_19h33.04.237,Main,2022.1.1,60.00502841950379,
negative,negative,1,j,l,,,,,,,,,0,2,2,0,,,,,,,,,main,2,2,1,negative,negative,j,j,1,0.9317912999977125,184.17909180000424,185.19220579999092,185.17777609999757,None,184.17909180000424,None,184.17909180000424,None,184.17909180000424,None,186.10886354000104,None,186.10886354000104,None,186.10886354000104,None,,,,,,,,,,,,,018,2022-05-12_19h33.04.237,Main,2022.1.1,60.00502841950379,
positive,positive,2,l,j,,,,,,,,,0,3,3,11,,,,,,,,,main,2,2,2,positive,positive,l,l,1,0.6480951999983517,186.11254659999395,187.1277287999983,187.11106819999986,None,186.11254659999395,None,186.11254659999395,None,186.11254659999395,None,187.75881383999513,None,187.75881383999513,None,187.75881383999513,None,,,,,,,,,,,,,018,2022-05-12_19h33.04.237,Main,2022.1.1,60.00502841950379,
positive,positive,1,l,j,,,,,,,,,0,4,4,2,,,,,,,,,main,2,2,1,positive,positive,l,l,1,0.5982352999999421,187.7620569999999,188.7751370999904,188.758468,None,187.7620569999999,None,187.7620569999999,None,187.7620569999999,None,189.35845474000234,None,189.35845474000234,None,189.35845474000234,None,,,,,,,,,,,,,018,2022-05-12_19h33.04.237,Main,2022.1.1,60.00502841950379,
neutral,neutral,2,k,k,,,,,,,,,0,5,5,10,,,,,,,,,main,2,2,2,neutral,neutral,k,k,1,0.665148500003852,189.35846029999084,190.35846709999896,190.35846709999896,None,189.35846029999084,None,189.35846029999084,None,189.35846029999084,None,191.02512784000282,None,191.02512784000282,None,191.02512784000282,None,,,,,,,,,,,,,018,2022-05-12_19h33.04.237,Main,2022.1.1,60.00502841950379,
positive,negative,2,l,j,,,,,,,,,0,6,6,14,,,,,,,,,main,2,2,2,negative,positive,l,l,1,0.647450000004028,191.04183619999094,192.04176330000337,192.0251045000041,None,191.04183619999094,None,191.04183619999094,None,191.04183619999094,None,192.6751097400047,None,192.6751097400047,None,192.6751097400047,None,,,,,,,,,,,,,018,2022-05-12_19h33.04.237,Main,2022.1.1,60.00502841950379,
negative,negative,2,j,l,,,,,,,,,0,7,7,9,,,,,,,,,main,1,1,2,negative,negative,j,j,1,0.7986072999919998,192.6781772999966,193.6777088999952,193.6777088999952,None,192.6781772999966,None,192.6781772999966,None,192.6781772999966,None,194.47538523999538,None,194.47538523999538,None,194.47538523999538,None,,,,,,,,,,,,,018,2022-05-12_19h33.04.237,Main,2022.1.1,60.00502841950379,
neutral,neutral,1,k,k,,,,,,,,,0,8,8,1,,,,,,,,,main,1,1,1,neutral,neutral,k,k,1,0.6981514000071911,194.47937499999534,195.49424159999762,195.47768329999235,None,194.47937499999534,None,194.47937499999534,None,194.47937499999534,None,196.17534274000354,None,196.17534274000354,None,196.17534274000354,None,,,,,,,,,,,,,018,2022-05-12_19h33.04.237,Main,2022.1.1,60.00502841950379,
positive,neutral,2,l,j,,,,,,,,,0,9,9,17,,,,,,,,,main,1,1,2,neutral,positive,l,l,1,1.2673299000016414,196.17871140000352,197.1941755000007,197.17530879999686,None,196.17871140000352,None,196.17871140000352,None,196.17871140000352,None,198.44418453999242,None,198.44418453999242,None,198.44418453999242,None,,,,,,,,,,,,,018,2022-05-12_19h33.04.237,Main,2022.1.1,60.00502841950379,
negative,positive,2,j,l,,,,,,,,,0,10,10,15,,,,,,,,,main,2,2,2,positive,negative,j,j,1,0.665095400006976,198.44715369999176,199.46085469999525,199.44191870000213,None,198.44715369999176,None,198.44715369999176,None,198.44715369999176,None,200.1108553400045,None,200.1108553400045,None,200.1108553400045,None,,,,,,,,,,,,,018,2022-05-12_19h33.04.237,Main,2022.1.1,60.00502841950379,
negative,positive,1,j,l,,,,,,,,,0,11,11,6,,,,,,,,,main,2,2,1,positive,negative,j,j,1,0.8951794000022346,200.11492639999778,201.12417519999144,201.1081594999996,None,200.11492639999778,None,200.11492639999778,None,200.11492639999778,None,202.00820233999548,None,202.00820233999548,None,202.00820233999548,None,,,,,,,,,,,,,018,2022-05-12_19h33.04.237,Main,2022.1.1,60.00502841950379,
positive,negative,1,l,j,,,,,,,,,0,12,12,5,,,,,,,,,main,1,1,1,negative,positive,l,l,1,0.7483713999972679,202.0083209000004,203.00822139999946,203.00822139999946,None,202.0083209000004,None,202.0083209000004,None,202.0083209000004,None,203.7585158399961,None,203.7585158399961,None,203.7585158399961,None,,,,,,,,,,,,,018,2022-05-12_19h33.04.237,Main,2022.1.1,60.00502841950379,
neutral,positive,1,k,k,,,,,,,,,0,13,13,4,,,,,,,,,main,2,2,1,positive,neutral,k,k,1,0.681727499992121,203.76173389999894,204.76077870000154,204.76077870000154,None,203.76173389999894,None,203.76173389999894,None,203.76173389999894,None,205.44181513999501,None,205.44181513999501,None,205.44181513999501,None,,,,,,,,,,,,,018,2022-05-12_19h33.04.237,Main,2022.1.1,60.00502841950379,
negative,neutral,1,j,l,,,,,,,,,0,14,14,3,,,,,,,,,main,2,2,1,neutral,negative,j,j,1,0.7318434000044363,205.44511819999025,206.46069720000378,206.4441044999985,None,205.44511819999025,None,205.44511819999025,None,205.44511819999025,None,207.1751045399942,None,207.1751045399942,None,207.1751045399942,None,,,,,,,,,,,,,018,2022-05-12_19h33.04.237,Main,2022.1.1,60.00502841950379,
positive,neutral,1,l,j,,,,,,,,,0,15,15,8,,,,,,,,,main,1,1,1,neutral,positive,l,l,1,0.6814054999995278,207.17901500000153,208.1939463000017,208.1774340999982,None,207.17901500000153,None,207.17901500000153,None,207.17901500000153,None,208.8584032400031,None,208.8584032400031,None,208.8584032400031,None,,,,,,,,,,,,,018,2022-05-12_19h33.04.237,Main,2022.1.1,60.00502841950379,
neutral,positive,2,k,k,,,,,,,,,0,16,16,13,,,,,,,,,main,2,2,2,positive,neutral,k,k,1,0.6494894999923417,208.86193040000217,209.8772728999902,209.86064649999025,None,208.86193040000217,None,208.86193040000217,None,208.86193040000217,None,210.50836584000353,None,210.50836584000353,None,210.50836584000353,None,,,,,,,,,,,,,018,2022-05-12_19h33.04.237,Main,2022.1.1,60.00502841950379,
neutral,negative,1,k,k,,,,,,,,,0,17,17,7,,,,,,,,,main,1,1,1,negative,neutral,k,k,1,0.6135170999914408,210.512447599991,211.52466019999702,211.5079987999925,None,210.512447599991,None,210.512447599991,None,210.512447599991,None,212.1246674399954,None,212.1246674399954,None,212.1246674399954,None,,,,,,,,,,,,,018,2022-05-12_19h33.04.237,Main,2022.1.1,60.00502841950379,
positive,neutral,2,l,j,,,,,,,,,1,0,18,17,,,,,,,,,main,2,2,2,neutral,positive,l,l,1,0.5985796000022674,212.1246492999926,213.1246450000035,213.1246450000035,None,212.1246492999926,None,212.1246492999926,None,212.1246492999926,None,213.72464733999368,None,213.72464733999368,None,213.72464733999368,None,,,,,,,,,,,,,018,2022-05-12_19h33.04.237,Main,2022.1.1,60.00502841950379,
neutral,negative,1,k,k,,,,,,,,,1,1,19,7,,,,,,,,,main,1,1,1,negative,neutral,k,k,1,1.281489100001636,213.72514640000009,214.72464420000324,214.72464420000324,None,213.72514640000009,None,213.72514640000009,None,213.72514640000009,None,216.0079391399995,None,216.0079391399995,None,216.0079391399995,None,,,,,,,,,,,,,018,2022-05-12_19h33.04.237,Main,2022.1.1,60.00502841950379,
positive,positive,1,l,j,,,,,,,,,1,2,20,2,,,,,,,,,main,1,1,1,positive,positive,l,l,1,0.6738490999996429,216.00837670000328,217.01058919999923,217.01058919999923,None,216.00837670000328,None,216.00837670000328,None,216.00837670000328,None,217.68335453999316,None,217.68335453999316,None,217.68335453999316,None,,,,,,,,,,,,,018,2022-05-12_19h33.04.237,Main,2022.1.1,60.00502841950379,
negative,positive,1,j,l,,,,,,,,,1,3,21,6,,,,,,,,,main,2,2,1,positive,negative,j,j,1,0.6922174000064842,217.6868581000017,218.69373070000438,218.67713789999834,None,217.6868581000017,None,217.6868581000017,None,217.6868581000017,None,219.3771624400033,None,219.3771624400033,None,219.3771624400033,None,,,,,,,,,,,,,018,2022-05-12_19h33.04.237,Main,2022.1.1,60.00502841950379,
neutral,neutral,1,k,k,,,,,,,,,1,4,22,1,,,,,,,,,main,2,2,1,neutral,neutral,k,k,1,0.7659960000019055,219.38023569999496,220.39377310000418,220.3771890999924,None,219.38023569999496,None,219.38023569999496,None,219.38023569999496,None,221.14380194000114,None,221.14380194000114,None,221.14380194000114,None,,,,,,,,,,,,,018,2022-05-12_19h33.04.237,Main,2022.1.1,60.00502841950379,
neutral,positive,1,k,k,,,,,,,,,1,5,23,4,,,,,,,,,main,1,1,1,positive,neutral,k,k,1,0.56629659999453,221.14781429999857,222.1603357999993,222.14377090000198,None,221.14781429999857,None,221.14781429999857,None,221.14781429999857,None,222.70812884000043,None,222.70812884000043,None,222.70812884000043,None,,,,,,,,,,,,,018,2022-05-12_19h33.04.237,Main,2022.1.1,60.00502841950379,
negative,neutral,1,j,l,,,,,,,,,1,6,24,3,,,,,,,,,main,1,1,1,neutral,negative,j,l,0,0.5801074000046356,222.71596859999408,223.7270458999992,223.71038299999782,None,222.71596859999408,None,222.71596859999408,None,222.71596859999408,None,224.2935601999925,None,224.2935601999925,None,224.2935601999925,None,,,,,,,,,,,,,018,2022-05-12_19h33.04.237,Main,2022.1.1,60.00502841950379,
positive,positive,2,l,j,,,,,,,,,1,7,25,11,,,,,,,,,main,1,1,2,positive,positive,l,l,1,0.7859566999977687,225.3077304000035,226.30771140000434,226.30771140000434,None,225.3077304000035,None,225.3077304000035,None,225.3077304000035,None,227.09105673999147,None,227.09105673999147,None,227.09105673999147,None,,,,,,,,,,,,,018,2022-05-12_19h33.04.237,Main,2022.1.1,60.00502841950379,
positive,negative,1,l,j,,,,,,,,,1,8,26,5,,,,,,,,,main,2,2,1,negative,positive,l,l,1,0.7317132000025595,227.0920208000025,228.09104250000382,228.09104250000382,None,227.0920208000025,None,227.0920208000025,None,227.0920208000025,None,228.8243693399927,None,228.8243693399927,None,228.8243693399927,None,,,,,,,,,,,,,018,2022-05-12_19h33.04.237,Main,2022.1.1,60.00502841950379,
positive,negative,2,l,j,,,,,,,,,1,9,27,14,,,,,,,,,main,2,2,2,negative,positive,l,l,1,0.6683459999912884,228.82809629999974,229.84355029999278,229.82695950000198,None,228.82809629999974,None,228.82809629999974,None,228.82809629999974,None,230.49359173999255,None,230.49359173999255,None,230.49359173999255,None,,,,,,,,,,,,,018,2022-05-12_19h33.04.237,Main,2022.1.1,60.00502841950379,
negative,negative,2,j,l,,,,,,,,,1,10,28,9,,,,,,,,,main,2,2,2,negative,negative,j,j,1,0.6651697999914177,230.49773679999635,231.51018430000113,231.4936422000028,None,230.49773679999635,None,230.49773679999635,None,230.49773679999635,None,232.1579507399947,None,232.1579507399947,None,232.1579507399947,None,,,,,,,,,,,,,018,2022-05-12_19h33.04.237,Main,2022.1.1,60.00502841950379,
positive,neutral,1,l,j,,,,,,,,,1,11,29,8,,,,,,,,,main,2,2,1,neutral,positive,l,l,1,0.8780669999978272,232.16475369999534,233.1768616999907,233.16011799999978,None,232.16475369999534,None,232.16475369999534,None,232.16475369999534,None,234.04121593999298,None,234.04121593999298,None,234.04121593999298,None,,,,,,,,,,,,,018,2022-05-12_19h33.04.237,Main,2022.1.1,60.00502841950379,
neutral,positive,2,k,k,,,,,,,,,1,12,30,13,,,,,,,,,main,1,1,2,positive,neutral,k,k,1,0.7152392999996664,234.04443130000436,235.06006229999184,235.0434907000017,None,234.04443130000436,None,234.04443130000436,None,234.04443130000436,None,235.75797184000112,None,235.75797184000112,None,235.75797184000112,None,,,,,,,,,,,,,018,2022-05-12_19h33.04.237,Main,2022.1.1,60.00502841950379,
negative,positive,2,j,l,,,,,,,,,1,13,31,15,,,,,,,,,main,2,2,2,positive,negative,j,j,1,0.8312009999935981,235.76351000000432,236.7767739999981,236.75782939999772,None,235.76351000000432,None,235.76351000000432,None,235.76351000000432,None,237.5908015399982,None,237.5908015399982,None,237.5908015399982,None,,,,,,,,,,,,,018,2022-05-12_19h33.04.237,Main,2022.1.1,60.00502841950379,
neutral,neutral,2,k,k,,,,,,,,,1,14,32,10,,,,,,,,,main,2,2,2,neutral,neutral,k,k,1,0.6985204000084195,237.59078389999922,238.59077989999787,238.59077989999787,None,237.59078389999922,None,237.59078389999922,None,237.59078389999922,None,239.29083463999996,None,239.29083463999996,None,239.29083463999996,None,,,,,,,,,,,,,018,2022-05-12_19h33.04.237,Main,2022.1.1,60.00502841950379,
neutral,negative,2,k,k,,,,,,,,,1,15,33,16,,,,,,,,,main,1,1,2,negative,neutral,k,k,1,0.6341613000113284,239.2959264999954,240.30996790000063,240.2768192999938,None,239.2959264999954,None,239.2959264999954,None,239.2959264999954,None,240.92662904000463,None,240.92662904000463,None,240.92662904000463,None,,,,,,,,,,,,,018,2022-05-12_19h33.04.237,Main,2022.1.1,60.00502841950379,
negative,neutral,2,j,l,,,,,,,,,1,16,34,12,,,,,,,,,main,1,1,2,neutral,negative,j,j,1,0.829403200012166,240.9294014999905,241.9432969000045,241.92662980000023,None,240.9294014999905,None,240.9294014999905,None,240.9294014999905,None,242.75772134,None,242.75772134,None,242.75772134,None,,,,,,,,,,,,,018,2022-05-12_19h33.04.237,Main,2022.1.1,60.00502841950379,
negative,negative,1,j,l,,,,,,,,,1,17,35,0,,,,,,,,,main,2,2,1,negative,negative,j,j,1,0.7194047000084538,242.76303629999165,243.77659529999073,243.74102109999512,None,242.76303629999165,None,242.76303629999165,None,242.76303629999165,None,244.47448333999637,None,244.47448333999637,None,244.47448333999637,None,,,,,,,,,,,,,018,2022-05-12_19h33.04.237,Main,2022.1.1,60.00502841950379,
negative,negative,2,j,l,,,,,,,,,2,0,36,9,,,,,,,,,main,2,2,2,negative,negative,j,j,1,0.6942024000018137,244.48108209999918,245.4932448000036,245.4766418999934,None,244.48108209999918,None,244.48108209999918,None,244.48108209999918,None,246.17431323999335,None,246.17431323999335,None,246.17431323999335,None,,,,,,,,,,,,,018,2022-05-12_19h33.04.237,Main,2022.1.1,60.00502841950379,
neutral,positive,1,k,k,,,,,,,,,2,1,37,4,,,,,,,,,main,1,1,1,positive,neutral,k,k,1,0.7314638000098057,246.17972230000305,247.19093789999897,247.17648840000038,None,246.17972230000305,None,246.17972230000305,None,246.17972230000305,None,247.90724603999843,None,247.90724603999843,None,247.90724603999843,None,,,,,,,,,,,,,018,2022-05-12_19h33.04.237,Main,2022.1.1,60.00502841950379,
positive,negative,2,l,j,,,,,,,,,2,2,38,14,,,,,,,,,main,1,1,2,negative,positive,l,j,0,0.9984657000022708,247.9072457000002,248.90724859999318,248.90724859999318,None,247.9072457000002,None,247.9072457000002,None,247.9072457000002,None,249.90724369999953,None,249.90724369999953,None,249.90724369999953,None,,,,,,,,,,,,,018,2022-05-12_19h33.04.237,Main,2022.1.1,60.00502841950379,
neutral,neutral,2,k,k,,,,,,,,,2,3,39,10,,,,,,,,,main,2,2,2,neutral,neutral,k,k,1,0.7692898999957833,250.90947040000174,251.92386389999592,251.90723509999225,None,250.90947040000174,None,250.90947040000174,None,250.90947040000174,None,252.67388213999948,None,252.67388213999948,None,252.67388213999948,None,,,,,,,,,,,,,018,2022-05-12_19h33.04.237,Main,2022.1.1,60.00502841950379,
neutral,positive,2,k,k,,,,,,,,,2,4,40,13,,,,,,,,,main,2,2,2,positive,neutral,k,k,1,0.6317567999940366,252.6803227999917,253.69306959999085,253.6764564000041,None,252.6803227999917,None,252.6803227999917,None,252.6803227999917,None,254.30747933999373,None,254.30747933999373,None,254.30747933999373,None,,,,,,,,,,,,,018,2022-05-12_19h33.04.237,Main,2022.1.1,60.00502841950379,
negative,positive,1,j,l,,,,,,,,,2,5,41,6,,,,,,,,,main,2,2,1,positive,negative,j,j,1,0.7522921999916434,254.3111224000022,255.3264205000014,255.3097770000022,None,254.3111224000022,None,254.3111224000022,None,254.3111224000022,None,256.0574430399938,None,256.0574430399938,None,256.0574430399938,None,,,,,,,,,,,,,018,2022-05-12_19h33.04.237,Main,2022.1.1,60.00502841950379,
negative,neutral,1,j,l,,,,,,,,,2,6,42,3,,,,,,,,,main,1,1,1,neutral,negative,j,j,1,0.6609209000016563,256.0643008000043,257.0763062999904,257.0596646999911,None,256.0643008000043,None,256.0643008000043,None,256.0643008000043,None,257.7240904400023,None,257.7240904400023,None,257.7240904400023,None,,,,,,,,,,,,,018,2022-05-12_19h33.04.237,Main,2022.1.1,60.00502841950379,
negative,negative,1,j,l,,,,,,,,,2,7,43,0,,,,,,,,,main,1,1,1,negative,negative,j,j,1,0.5854296000034083,257.72991080000065,258.7429556999996,258.7263358999917,None,257.72991080000065,None,257.72991080000065,None,257.72991080000065,None,259.30737564000447,None,259.30737564000447,None,259.30737564000447,None,,,,,,,,,,,,,018,2022-05-12_19h33.04.237,Main,2022.1.1,60.00502841950379,
negative,positive,2,j,l,,,,,,,,,2,8,44,15,,,,,,,,,main,1,1,2,positive,negative,j,j,1,0.7779826000041794,259.31360609999683,260.323994099992,260.30733539999346,None,259.31360609999683,None,259.31360609999683,None,259.31360609999683,None,261.09034853999765,None,261.09034853999765,None,261.09034853999765,None,,,,,,,,,,,,,018,2022-05-12_19h33.04.237,Main,2022.1.1,60.00502841950379,
neutral,neutral,1,k,k,,,,,,,,,2,9,45,1,,,,,,,,,main,2,2,1,neutral,neutral,k,k,1,0.6972198000003118,261.09229489999416,262.1069576000009,262.0902957999933,None,261.09229489999416,None,261.09229489999416,None,261.09229489999416,None,262.79028264000226,None,262.79028264000226,None,262.79028264000226,None,,,,,,,,,,,,,018,2022-05-12_19h33.04.237,Main,2022.1.1,60.00502841950379,
neutral,negative,2,k,k,,,,,,,,,2,10,46,16,,,,,,,,,main,2,2,2,negative,neutral,k,k,1,0.7315889000019524,262.7914163999958,263.80695379999815,263.7902887999953,None,262.7914163999958,None,262.7914163999958,None,262.7914163999958,None,264.5236184400055,None,264.5236184400055,None,264.5236184400055,None,,,,,,,,,,,,,018,2022-05-12_19h33.04.237,Main,2022.1.1,60.00502841950379,
neutral,negative,1,k,k,,,,,,,,,2,11,47,7,,,,,,,,,main,2,2,1,negative,neutral,k,k,1,0.6989178999938304,264.5402827999933,265.540281900001,265.52361360000214,None,264.5402827999933,None,264.5402827999933,None,264.5402827999933,None,266.2239820399918,None,266.2239820399918,None,266.2239820399918,None,,,,,,,,,,,,,018,2022-05-12_19h33.04.237,Main,2022.1.1,60.00502841950379,
positive,neutral,2,l,j,,,,,,,,,2,12,48,17,,,,,,,,,main,1,1,2,neutral,positive,l,l,1,0.6675249000109034,266.2276279999933,267.2428562999994,267.22622739999497,None,266.2276279999933,None,266.2276279999933,None,266.2276279999933,None,267.89288563999435,None,267.89288563999435,None,267.89288563999435,None,,,,,,,,,,,,,018,2022-05-12_19h33.04.237,Main,2022.1.1,60.00502841950379,
positive,negative,1,l,j,,,,,,,,,2,13,49,5,,,,,,,,,main,1,1,1,negative,positive,l,l,1,0.7956031000067014,267.8961463000014,268.90937300000223,268.8927449999901,None,267.8961463000014,None,267.8961463000014,None,267.8961463000014,None,269.69048183999985,None,269.69048183999985,None,269.69048183999985,None,,,,,,,,,,,,,018,2022-05-12_19h33.04.237,Main,2022.1.1,60.00502841950379,
positive,positive,1,l,j,,,,,,,,,2,14,50,2,,,,,,,,,main,2,2,1,positive,positive,l,l,1,0.681925400000182,269.69448769999144,270.70939720000024,270.6927655000036,None,269.69448769999144,None,269.69448769999144,None,269.69448769999144,None,271.37378083999647,None,271.37378083999647,None,271.37378083999647,None,,,,,,,,,,,,,018,2022-05-12_19h33.04.237,Main,2022.1.1,60.00502841950379,
positive,neutral,1,l,j,,,,,,,,,2,15,51,8,,,,,,,,,main,1,1,1,neutral,positive,l,l,1,0.7146653000090737,271.37719839999045,272.39270959999703,272.3760437000019,None,271.37719839999045,None,271.37719839999045,None,271.37719839999045,None,273.09042534000037,None,273.09042534000037,None,273.09042534000037,None,,,,,,,,,,,,,018,2022-05-12_19h33.04.237,Main,2022.1.1,60.00502841950379,
positive,positive,2,l,j,,,,,,,,,2,16,52,11,,,,,,,,,main,2,2,2,positive,positive,l,l,1,0.7813478000025498,273.09376239999256,274.1067322000017,274.09006629999203,None,273.09376239999256,None,273.09376239999256,None,273.09376239999256,None,274.8733861400033,None,274.8733861400033,None,274.8733861400033,None,,,,,,,,,,,,,018,2022-05-12_19h33.04.237,Main,2022.1.1,60.00502841950379,
negative,neutral,2,j,l,,,,,,,,,2,17,53,12,,,,,,,,,main,1,1,2,neutral,negative,j,j,1,0.7510299999994459,274.87376960000256,275.87339149999025,275.87339149999025,None,274.87376960000256,None,274.87376960000256,None,274.87376960000256,None,276.6259730399979,None,276.6259730399979,None,276.6259730399979,None,,,,,,,,,,,,,018,2022-05-12_19h33.04.237,Main,2022.1.1,60.00502841950379,
neutral,neutral,1,k,k,,,,,,,,,3,0,54,1,,,,,,,,,main,2,2,1,neutral,neutral,k,k,1,0.6475341000041226,276.63000730000203,277.642531599995,277.6259987999947,None,276.63000730000203,None,276.63000730000203,None,276.63000730000203,None,278.27595924000343,None,278.27595924000343,None,278.27595924000343,None,,,,,,,,,,,,,018,2022-05-12_19h33.04.237,Main,2022.1.1,60.00502841950379,
neutral,positive,2,k,k,,,,,,,,,3,1,55,13,,,,,,,,,main,1,1,2,positive,neutral,k,k,1,0.645956299995305,278.27885689999675,279.2924944999977,279.27593589999015,None,278.27885689999675,None,278.27885689999675,None,278.27885689999675,None,279.92360593999183,None,279.92360593999183,None,279.92360593999183,None,,,,,,,,,,,,,018,2022-05-12_19h33.04.237,Main,2022.1.1,60.00502841950379,
negative,neutral,1,j,l,,,,,,,,,3,2,56,3,,,,,,,,,main,2,2,1,neutral,negative,j,j,1,0.7817006000113906,279.92711170000257,280.94257649999054,280.92595409999194,None,279.92711170000257,None,279.92711170000257,None,279.92711170000257,None,281.706910639994,None,281.706910639994,None,281.706910639994,None,,,,,,,,,,,,,018,2022-05-12_19h33.04.237,Main,2022.1.1,60.00502841950379,
positive,neutral,1,l,j,,,,,,,,,3,3,57,8,,,,,,,,,main,2,2,1,neutral,positive,l,l,1,0.7505762999935541,281.7101326999982,282.7091153999936,282.7091153999936,None,281.7101326999982,None,281.7101326999982,None,281.7101326999982,None,283.45906754000316,None,283.45906754000316,None,283.45906754000316,None,,,,,,,,,,,,,018,2022-05-12_19h33.04.237,Main,2022.1.1,60.00502841950379,
negative,neutral,2,j,l,,,,,,,,,3,4,58,12,,,,,,,,,main,2,2,2,neutral,negative,j,j,1,0.6956900999939535,283.4621069999994,284.47315730000264,284.4565034999978,None,283.4621069999994,None,283.4621069999994,None,283.4621069999994,None,285.15651143999276,None,285.15651143999276,None,285.15651143999276,None,,,,,,,,,,,,,018,2022-05-12_19h33.04.237,Main,2022.1.1,60.00502841950379,
neutral,negative,2,k,k,,,,,,,,,3,5,59,16,,,,,,,,,main,1,1,2,negative,neutral,k,k,1,0.61587559999316,285.1564941999968,286.1564858999918,286.1564858999918,None,285.1564941999968,None,285.1564941999968,None,285.1564941999968,None,286.77314604000276,None,286.77314604000276,None,286.77314604000276,None,,,,,,,,,,,,,018,2022-05-12_19h33.04.237,Main,2022.1.1,60.00502841950379,
positive,neutral,2,l,j,,,,,,,,,3,6,60,17,,,,,,,,,main,2,2,2,neutral,positive,l,l,1,0.747610699996585,286.7898467999912,287.7898225999961,287.77312990000064,None,286.7898467999912,None,286.7898467999912,None,286.7898467999912,None,288.5231137400042,None,288.5231137400042,None,288.5231137400042,None,,,,,,,,,,,,,018,2022-05-12_19h33.04.237,Main,2022.1.1,60.00502841950379,
positive,positive,2,l,j,,,,,,,,,3,7,61,11,,,,,,,,,main,2,2,2,positive,positive,l,l,1,0.5986968999932287,288.52375680000114,289.5257316999923,289.5257316999923,None,288.52375680000114,None,288.52375680000114,None,288.52375680000114,None,290.1234263400038,None,290.1234263400038,None,290.1234263400038,None,,,,,,,,,,,,,018,2022-05-12_19h33.04.237,Main,2022.1.1,60.00502841950379,
negative,positive,2,j,l,,,,,,,,,3,8,62,15,,,,,,,,,main,2,2,2,positive,negative,j,j,1,0.7838031999999657,290.1269949999987,291.14007929999207,291.12568699999247,None,290.1269949999987,None,290.1269949999987,None,290.1269949999987,None,291.9090721399916,None,291.9090721399916,None,291.9090721399916,None,,,,,,,,,,,,,018,2022-05-12_19h33.04.237,Main,2022.1.1,60.00502841950379,
positive,negative,1,l,j,,,,,,,,,3,9,63,5,,,,,,,,,main,2,2,1,negative,positive,l,l,1,0.6962089000007836,291.91191729999264,292.9255714000028,292.9089995999966,None,291.91191729999264,None,291.91191729999264,None,291.91191729999264,None,293.60666054000467,None,293.60666054000467,None,293.60666054000467,None,,,,,,,,,,,,,018,2022-05-12_19h33.04.237,Main,2022.1.1,60.00502841950379,
negative,negative,1,j,l,,,,,,,,,3,10,64,0,,,,,,,,,main,2,2,1,negative,negative,j,j,1,0.665081499988446,293.60997069999576,294.6089723999903,294.6089723999903,None,293.60997069999576,None,293.60997069999576,None,293.60997069999576,None,295.27329514000303,None,295.27329514000303,None,295.27329514000303,None,,,,,,,,,,,,,018,2022-05-12_19h33.04.237,Main,2022.1.1,60.00502841950379,
neutral,negative,1,k,k,,,,,,,,,3,11,65,7,,,,,,,,,main,2,2,1,negative,neutral,k,k,1,0.6983208000019658,295.27668840000115,296.2899363000033,296.27556039999763,None,295.27668840000115,None,295.27668840000115,None,295.27668840000115,None,296.9732811399954,None,296.9732811399954,None,296.9732811399954,None,,,,,,,,,,,,,018,2022-05-12_19h33.04.237,Main,2022.1.1,60.00502841950379,
negative,positive,1,j,l,,,,,,,,,3,12,66,6,,,,,,,,,main,2,2,1,positive,negative,j,j,1,0.8815393000113545,296.9790925999987,297.98957679999876,297.9729129000043,None,296.9790925999987,None,296.9790925999987,None,296.9790925999987,None,298.856200739996,None,298.856200739996,None,298.856200739996,None,,,,,,,,,,,,,018,2022-05-12_19h33.04.237,Main,2022.1.1,60.00502841950379,
negative,negative,2,j,l,,,,,,,,,3,13,67,9,,,,,,,,,main,2,2,2,negative,negative,j,j,1,0.8138536000042222,298.8572581999906,299.8728977999999,299.85623699999996,None,298.8572581999906,None,298.8572581999906,None,298.8572581999906,None,300.6728793400034,None,300.6728793400034,None,300.6728793400034,None,,,,,,,,,,,,,018,2022-05-12_19h33.04.237,Main,2022.1.1,60.00502841950379,
neutral,positive,1,k,k,,,,,,,,,3,14,68,4,,,,,,,,,main,2,2,1,positive,neutral,k,k,1,0.7321182000014232,300.6732353999978,301.6728759999969,301.6728759999969,None,300.6732353999978,None,300.6732353999978,None,300.6732353999978,None,302.40653214000486,None,302.40653214000486,None,302.40653214000486,None,,,,,,,,,,,,,018,2022-05-12_19h33.04.237,Main,2022.1.1,60.00502841950379,
neutral,neutral,2,k,k,,,,,,,,,3,15,69,10,,,,,,,,,main,2,2,2,neutral,neutral,k,k,1,0.6482588000071701,302.41006179999385,303.42544869999983,303.4088694999955,None,302.41006179999385,None,302.41006179999385,None,302.41006179999385,None,304.0564678400042,None,304.0564678400042,None,304.0564678400042,None,,,,,,,,,,,,,018,2022-05-12_19h33.04.237,Main,2022.1.1,60.00502841950379,
positive,negative,2,l,j,,,,,,,,,3,16,70,14,,,,,,,,,main,2,2,2,negative,positive,l,l,1,0.6642857999977423,304.06047019999824,305.0753216000012,305.05871739999566,None,304.06047019999824,None,304.06047019999824,None,304.06047019999824,None,305.72311833999265,None,305.72311833999265,None,305.72311833999265,None,,,,,,,,,,,,,018,2022-05-12_19h33.04.237,Main,2022.1.1,60.00502841950379,
positive,positive,1,l,j,,,,,,,,,3,17,71,2,,,,,,,,,main,1,1,1,positive,positive,l,l,1,0.7841098999924725,305.7261679999938,306.72528329999477,306.7087032999989,None,305.7261679999938,None,305.7261679999938,None,305.7261679999938,None,307.5086529399923,None,307.5086529399923,None,307.5086529399923,None,,,,,,,,,,,,,018,2022-05-12_19h33.04.237,Main,2022.1.1,60.00502841950379,
positive,negative,1,l,j,,,,,,,,,4,0,72,5,,,,,,,,,main,2,2,1,negative,positive,l,l,1,0.6286887000023853,307.51280789999873,308.52301809999335,308.50868569999875,None,307.51280789999873,None,307.51280789999873,None,307.51280789999873,None,309.1397346399972,None,309.1397346399972,None,309.1397346399972,None,,,,,,,,,,,,,018,2022-05-12_19h33.04.237,Main,2022.1.1,60.00502841950379,
neutral,negative,2,k,k,,,,,,,,,4,1,73,16,,,,,,,,,main,2,2,2,negative,neutral,k,k,1,0.6144607000023825,309.14316160000453,310.1559828000027,310.13931559999764,None,309.14316160000453,None,309.14316160000453,None,309.14316160000453,None,310.75596124000003,None,310.75596124000003,None,310.75596124000003,None,,,,,,,,,,,,,018,2022-05-12_19h33.04.237,Main,2022.1.1,60.00502841950379,
neutral,neutral,2,k,k,,,,,,,,,4,2,74,10,,,,,,,,,main,2,2,2,neutral,neutral,k,k,1,0.7818238999898313,310.7559675999946,311.7559618999949,311.7559618999949,None,310.7559675999946,None,310.7559675999946,None,310.7559675999946,None,312.53932373999123,None,312.53932373999123,None,312.53932373999123,None,,,,,,,,,,,,,018,2022-05-12_19h33.04.237,Main,2022.1.1,60.00502841950379,
negative,positive,2,j,l,,,,,,,,,4,3,75,15,,,,,,,,,main,2,2,2,positive,negative,j,j,1,0.798621699999785,312.54271729999164,313.54195269999036,313.54195269999036,None,312.54271729999164,None,312.54271729999164,None,312.54271729999164,None,314.3395808400019,None,314.3395808400019,None,314.3395808400019,None,,,,,,,,,,,,,018,2022-05-12_19h33.04.237,Main,2022.1.1,60.00502841950379,
positive,neutral,2,l,j,,,,,,,,,4,4,76,17,,,,,,,,,main,2,2,2,neutral,positive,l,l,1,0.8328039000043646,314.3430209999933,315.35849329999473,315.34190259999014,None,314.3430209999933,None,314.3430209999933,None,314.3430209999933,None,316.17296093999903,None,316.17296093999903,None,316.17296093999903,None,,,,,,,,,,,,,018,2022-05-12_19h33.04.237,Main,2022.1.1,60.00502841950379,
positive,positive,2,l,j,,,,,,,,,4,5,77,11,,,,,,,,,main,2,2,2,positive,positive,l,l,1,0.5975025999941863,316.17759969999315,317.1916732999962,317.17516780000005,None,316.17759969999315,None,316.17759969999315,None,316.17759969999315,None,317.7728332399929,None,317.7728332399929,None,317.7728332399929,None,,,,,,,,,,,,,018,2022-05-12_19h33.04.237,Main,2022.1.1,60.00502841950379,
neutral,positive,2,k,k,,,,,,,,,4,6,78,13,,,,,,,,,main,1,1,2,positive,neutral,k,k,1,0.6670327000028919,317.7762526000006,318.791627899991,318.77505579999706,None,317.7762526000006,None,317.7762526000006,None,317.7762526000006,None,319.4417061399945,None,319.4417061399945,None,319.4417061399945,None,,,,,,,,,,,,,018,2022-05-12_19h33.04.237,Main,2022.1.1,60.00502841950379,
negative,neutral,2,j,l,,,,,,,,,4,7,79,12,,,,,,,,,main,1,1,2,neutral,negative,j,j,1,0.6290143999940483,319.4446115000028,320.4557880999928,320.439117899994,None,319.4446115000028,None,319.4446115000028,None,319.4446115000028,None,321.0724463400038,None,321.0724463400038,None,321.0724463400038,None,,,,,,,,,,,,,018,2022-05-12_19h33.04.237,Main,2022.1.1,60.00502841950379,
negative,positive,1,j,l,,,,,,,,,4,8,80,6,,,,,,,,,main,2,2,1,positive,negative,j,j,1,0.79845089999435,321.0732149999967,322.0724455000018,322.0724455000018,None,321.0732149999967,None,321.0732149999967,None,321.0732149999967,None,322.87242444000003,None,322.87242444000003,None,322.87242444000003,None,,,,,,,,,,,,,018,2022-05-12_19h33.04.237,Main,2022.1.1,60.00502841950379,
neutral,negative,1,k,k,,,,,,,,,4,9,81,7,,,,,,,,,main,2,2,1,negative,neutral,k,k,1,0.7483826000097906,322.8727130999905,323.87241260000155,323.87241260000155,None,322.8727130999905,None,322.8727130999905,None,322.8727130999905,None,324.62238193999656,None,324.62238193999656,None,324.62238193999656,None,,,,,,,,,,,,,018,2022-05-12_19h33.04.237,Main,2022.1.1,60.00502841950379,
positive,neutral,1,l,j,,,,,,,,,4,10,82,8,,,,,,,,,main,2,2,1,neutral,positive,l,l,1,0.6992067999963183,324.6227629999921,325.6223938000039,325.6223938000039,None,324.6227629999921,None,324.6227629999921,None,324.6227629999921,None,326.3232001399956,None,326.3232001399956,None,326.3232001399956,None,,,,,,,,,,,,,018,2022-05-12_19h33.04.237,Main,2022.1.1,60.00502841950379,
neutral,neutral,1,k,k,,,,,,,,,4,11,83,1,,,,,,,,,main,1,1,1,neutral,neutral,k,k,1,1.0143491000053473,326.3292955999932,327.34160410000186,327.3250144999911,None,326.3292955999932,None,326.3292955999932,None,326.3292955999932,None,328.3392963400038,None,328.3392963400038,None,328.3392963400038,None,,,,,,,,,,,,,018,2022-05-12_19h33.04.237,Main,2022.1.1,60.00502841950379,
negative,neutral,1,j,l,,,,,,,,,4,12,84,3,,,,,,,,,main,1,1,1,neutral,negative,j,j,1,0.7317697999969823,328.34240349999163,329.34152899999754,329.34152899999754,None,328.34240349999163,None,328.34240349999163,None,328.34240349999163,None,330.0725899399913,None,330.0725899399913,None,330.0725899399913,None,,,,,,,,,,,,,018,2022-05-12_19h33.04.237,Main,2022.1.1,60.00502841950379,
negative,negative,1,j,l,,,,,,,,,4,13,85,0,,,,,,,,,main,1,1,1,negative,negative,j,j,1,0.6005239000078291,330.0758979999955,331.0915390000009,331.07483139999385,None,330.0758979999955,None,330.0758979999955,None,330.0758979999955,None,331.674798140004,None,331.674798140004,None,331.674798140004,None,,,,,,,,,,,,,018,2022-05-12_19h33.04.237,Main,2022.1.1,60.00502841950379,
positive,negative,2,l,j,,,,,,,,,4,14,86,14,,,,,,,,,main,1,1,2,negative,positive,l,l,1,0.7125142000004416,331.6775270999933,332.6914453999925,332.67486919999646,None,331.6775270999933,None,331.6775270999933,None,331.6775270999933,None,333.3888574399971,None,333.3888574399971,None,333.3888574399971,None,,,,,,,,,,,,,018,2022-05-12_19h33.04.237,Main,2022.1.1,60.00502841950379,
negative,negative,2,j,l,,,,,,,,,4,15,87,9,,,,,,,,,main,2,2,2,negative,negative,j,j,1,0.6815069000003859,333.388853299999,334.3888377999974,334.3888377999974,None,333.388853299999,None,333.388853299999,None,333.388853299999,None,335.07218933999684,None,335.07218933999684,None,335.07218933999684,None,,,,,,,,,,,,,018,2022-05-12_19h33.04.237,Main,2022.1.1,60.00502841950379,
positive,positive,1,l,j,,,,,,,,,4,16,88,2,,,,,,,,,main,2,2,1,positive,positive,l,l,1,0.7326414999988629,335.075099099995,336.07475949999935,336.0582078000007,None,335.075099099995,None,335.075099099995,None,335.075099099995,None,336.80580343999463,None,336.80580343999463,None,336.80580343999463,None,,,,,,,,,,,,,018,2022-05-12_19h33.04.237,Main,2022.1.1,60.00502841950379,
neutral,positive,1,k,k,,,,,,,,,4,17,89,4,,,,,,,,,main,2,2,1,positive,neutral,k,j,0,0.8332802999939304,336.80975479999324,337.8246264999907,337.80805389999296,None,336.80975479999324,None,336.80975479999324,None,336.80975479999324,None,338.6412371999904,None,338.6412371999904,None,338.6412371999904,None,,,,,,,,,,,,,018,2022-05-12_19h33.04.237,Main,2022.1.1,60.00502841950379,
positive,neutral,1,l,j,,,,,,,,,5,0,90,8,,,,,,,,,main,2,2,1,neutral,positive,l,l,1,0.7178494999971008,339.6397269000008,340.63905279999017,340.62459609999496,None,339.6397269000008,None,339.6397269000008,None,339.6397269000008,None,341.35570403999736,None,341.35570403999736,None,341.35570403999736,None,,,,,,,,,,,,,018,2022-05-12_19h33.04.237,Main,2022.1.1,60.00502841950379,
positive,positive,1,l,j,,,,,,,,,5,1,91,2,,,,,,,,,main,2,2,1,positive,positive,l,l,1,0.6901514000055613,341.36034679999284,342.37455279999995,342.35796429999755,None,341.36034679999284,None,341.36034679999284,None,341.36034679999284,None,343.048730839997,None,343.048730839997,None,343.048730839997,None,,,,,,,,,,,,,018,2022-05-12_19h33.04.237,Main,2022.1.1,60.00502841950379,
neutral,positive,2,k,k,,,,,,,,,5,2,92,13,,,,,,,,,main,1,1,2,positive,neutral,k,k,1,0.6214925000094809,343.0604396999988,344.0719709999976,344.0386323999992,None,343.0604396999988,None,343.0604396999988,None,343.0604396999988,None,344.67194183999527,None,344.67194183999527,None,344.67194183999527,None,,,,,,,,,,,,,018,2022-05-12_19h33.04.237,Main,2022.1.1,60.00502841950379,
negative,positive,2,j,l,,,,,,,,,5,3,93,15,,,,,,,,,main,1,1,2,positive,negative,j,j,1,0.7175477999990107,344.6719332999928,345.6719744000002,345.6719744000002,None,344.6719332999928,None,344.6719332999928,None,344.6719332999928,None,346.39117994000117,None,346.39117994000117,None,346.39117994000117,None,,,,,,,,,,,,,018,2022-05-12_19h33.04.237,Main,2022.1.1,60.00502841950379,
neutral,negative,2,k,k,,,,,,,,,5,4,94,16,,,,,,,,,main,2,2,2,negative,neutral,k,k,1,0.5485226000018883,346.3938214999944,347.40779199999815,347.39122189999034,None,346.3938214999944,None,346.3938214999944,None,346.3938214999944,None,347.94107183999586,None,347.94107183999586,None,347.94107183999586,None,,,,,,,,,,,,,018,2022-05-12_19h33.04.237,Main,2022.1.1,60.00502841950379,
neutral,neutral,2,k,k,,,,,,,,,5,5,95,10,,,,,,,,,main,2,2,2,neutral,neutral,k,k,1,0.5822535999905085,347.94448839999677,348.95768949999183,348.9412101999915,None,347.94448839999677,None,347.94448839999677,None,347.94448839999677,None,349.5244527399991,None,349.5244527399991,None,349.5244527399991,None,,,,,,,,,,,,,018,2022-05-12_19h33.04.237,Main,2022.1.1,60.00502841950379,
positive,negative,1,l,j,,,,,,,,,5,6,96,5,,,,,,,,,main,1,1,1,negative,positive,l,l,1,0.979369200009387,349.5287491999916,350.54100579999795,350.52443789999234,None,349.5287491999916,None,349.5287491999916,None,349.5287491999916,None,351.50550363999355,None,351.50550363999355,None,351.50550363999355,None,,,,,,,,,,,,,018,2022-05-12_19h33.04.237,Main,2022.1.1,60.00502841950379,
negative,positive,1,j,l,,,,,,,,,5,7,97,6,,,,,,,,,main,2,2,1,positive,negative,j,j,1,0.6973423000017647,351.5097980999999,352.5243386999937,352.50545070000226,None,351.5097980999999,None,351.5097980999999,None,351.5097980999999,None,353.20543973999884,None,353.20543973999884,None,353.20543973999884,None,,,,,,,,,,,,,018,2022-05-12_19h33.04.237,Main,2022.1.1,60.00502841950379,
positive,negative,2,l,j,,,,,,,,,5,8,98,14,,,,,,,,,main,2,2,2,negative,positive,l,l,1,0.6479901999991853,353.2095147999935,354.2217485000001,354.2050801000005,None,353.2095147999935,None,353.2095147999935,None,353.2095147999935,None,354.85505664000084,None,354.85505664000084,None,354.85505664000084,None,,,,,,,,,,,,,018,2022-05-12_19h33.04.237,Main,2022.1.1,60.00502841950379,
neutral,positive,1,k,k,,,,,,,,,5,9,99,4,,,,,,,,,main,1,1,1,positive,neutral,k,k,1,0.5482807999942452,354.85506049999094,355.85508599999594,355.85508599999594,None,354.85506049999094,None,354.85506049999094,None,354.85506049999094,None,356.405068739994,None,356.405068739994,None,356.405068739994,None,,,,,,,,,,,,,018,2022-05-12_19h33.04.237,Main,2022.1.1,60.00502841950379,
negative,negative,1,j,l,,,,,,,,,5,10,100,0,,,,,,,,,main,1,1,1,negative,negative,j,j,1,0.9651030999957584,356.4063998999918,357.42173039999034,357.40509810000367,None,356.4063998999918,None,356.4063998999918,None,356.4063998999918,None,358.3717185399946,None,358.3717185399946,None,358.3717185399946,None,,,,,,,,,,,,,018,2022-05-12_19h33.04.237,Main,2022.1.1,60.00502841950379,
positive,positive,2,l,j,,,,,,,,,5,11,101,11,,,,,,,,,main,1,1,2,positive,positive,l,l,1,0.7322970999957761,358.3757276999968,359.3909844000009,359.35763099999167,None,358.3757276999968,None,358.3757276999968,None,358.3757276999968,None,360.10533503999613,None,360.10533503999613,None,360.10533503999613,None,,,,,,,,,,,,,018,2022-05-12_19h33.04.237,Main,2022.1.1,60.00502841950379,
positive,neutral,2,l,j,,,,,,,,,5,12,102,17,,,,,,,,,main,1,1,2,neutral,positive,l,l,1,0.8981136000074912,360.109706999996,361.1242268999922,361.1075892999943,None,360.109706999996,None,360.109706999996,None,360.109706999996,None,362.0052844399979,None,362.0052844399979,None,362.0052844399979,None,,,,,,,,,,,,,018,2022-05-12_19h33.04.237,Main,2022.1.1,60.00502841950379,
negative,neutral,2,j,l,,,,,,,,,5,13,103,12,,,,,,,,,main,2,2,2,neutral,negative,j,j,1,0.9521099000121467,362.01095050000004,363.02417550000246,363.00756299999193,None,362.01095050000004,None,362.01095050000004,None,362.01095050000004,None,363.9552670399935,None,363.9552670399935,None,363.9552670399935,None,,,,,,,,,,,,,018,2022-05-12_19h33.04.237,Main,2022.1.1,60.00502841950379,
neutral,negative,1,k,k,,,,,,,,,5,14,104,7,,,,,,,,,main,1,1,1,negative,neutral,k,k,1,0.8111639999988256,363.9620007999911,364.9741156999953,364.9575074000022,None,363.9620007999911,None,363.9620007999911,None,363.9620007999911,None,365.7718849400044,None,365.7718849400044,None,365.7718849400044,None,,,,,,,,,,,,,018,2022-05-12_19h33.04.237,Main,2022.1.1,60.00502841950379,
neutral,neutral,1,k,k,,,,,,,,,5,15,105,1,,,,,,,,,main,1,1,1,neutral,neutral,k,k,1,0.747833699992043,365.77488299999095,366.7875062999956,366.77110739999625,None,365.77488299999095,None,365.77488299999095,None,365.77488299999095,None,367.52149383999495,None,367.52149383999495,None,367.52149383999495,None,,,,,,,,,,,,,018,2022-05-12_19h33.04.237,Main,2022.1.1,60.00502841950379,
negative,negative,2,j,l,,,,,,,,,5,16,106,9,,,,,,,,,main,1,1,2,negative,negative,j,j,1,0.765224600007059,367.52149319999444,368.52145040000323,368.52145040000323,None,367.52149319999444,None,367.52149319999444,None,367.52149319999444,None,369.28814113999397,None,369.28814113999397,None,369.28814113999397,None,,,,,,,,,,,,,018,2022-05-12_19h33.04.237,Main,2022.1.1,60.00502841950379,
negative,neutral,1,j,l,,,,,,,,,5,17,107,3,,,,,,,,,main,1,1,1,neutral,negative,j,j,1,0.880678400004399,369.2894338000042,370.3048010999919,370.2881120999955,None,369.2894338000042,None,369.2894338000042,None,369.2894338000042,None,371.1714840400018,None,371.1714840400018,None,371.1714840400018,None,,,,,,,,,,,,,018,2022-05-12_19h33.04.237,Main,2022.1.1,60.00502841950379,
neutral,neutral,1,k,k,,,,,,,,,6,0,108,1,,,,,,,,,main,2,2,1,neutral,neutral,k,j,0,1.085672799992608,371.17438699999184,372.1739835000044,372.15739379999286,None,371.17438699999184,None,371.17438699999184,None,371.17438699999184,None,373.2547290999937,None,373.2547290999937,None,373.2547290999937,None,,,,,,,,,,,,,018,2022-05-12_19h33.04.237,Main,2022.1.1,60.00502841950379,
negative,positive,1,j,l,,,,,,,,,6,1,109,6,,,,,,,,,main,2,2,1,positive,negative,j,j,1,0.7847992000024533,374.25592949999555,375.2572439999931,375.2383289999998,None,374.25592949999555,None,374.25592949999555,None,374.25592949999555,None,376.0383072399927,None,376.0383072399927,None,376.0383072399927,None,,,,,,,,,,,,,018,2022-05-12_19h33.04.237,Main,2022.1.1,60.00502841950379,
positive,negative,1,l,j,,,,,,,,,6,2,110,5,,,,,,,,,main,1,1,1,negative,positive,l,l,1,0.7166429000062635,376.05718499999784,377.0572213999985,377.0406316000008,None,376.05718499999784,None,376.05718499999784,None,376.05718499999784,None,377.757163039998,None,377.757163039998,None,377.757163039998,None,,,,,,,,,,,,,018,2022-05-12_19h33.04.237,Main,2022.1.1,60.00502841950379,
negative,neutral,2,j,l,,,,,,,,,6,3,111,12,,,,,,,,,main,1,1,2,neutral,negative,j,j,1,0.7622841000120388,377.76002190000145,378.7715748000046,378.7572144000005,None,377.76002190000145,None,377.76002190000145,None,377.76002190000145,None,379.52124953999737,None,379.52124953999737,None,379.52124953999737,None,,,,,,,,,,,,,018,2022-05-12_19h33.04.237,Main,2022.1.1,60.00502841950379,
negative,positive,2,j,l,,,,,,,,,6,4,112,15,,,,,,,,,main,1,1,2,positive,negative,j,j,1,0.7318342000071425,379.52124529999855,380.52122399999644,380.52122399999644,None,379.52124529999855,None,379.52124529999855,None,379.52124529999855,None,381.25454394000553,None,381.25454394000553,None,381.25454394000553,None,,,,,,,,,,,,,018,2022-05-12_19h33.04.237,Main,2022.1.1,60.00502841950379,
negative,neutral,1,j,l,,,,,,,,,6,5,113,3,,,,,,,,,main,2,2,1,neutral,negative,j,j,1,0.7819639000081224,381.25451800000155,382.2572411000001,382.2572411000001,None,381.25451800000155,None,381.25451800000155,None,381.25451800000155,None,383.0381924399917,None,383.0381924399917,None,383.0381924399917,None,,,,,,,,,,,,,018,2022-05-12_19h33.04.237,Main,2022.1.1,60.00502841950379,
positive,positive,2,l,j,,,,,,,,,6,6,114,11,,,,,,,,,main,1,1,2,positive,positive,l,l,1,0.7650374999939231,383.04195129999425,384.05482170000323,384.0404755999916,None,383.04195129999425,None,383.04195129999425,None,383.04195129999425,None,384.8048597399975,None,384.8048597399975,None,384.8048597399975,None,,,,,,,,,,,,,018,2022-05-12_19h33.04.237,Main,2022.1.1,60.00502841950379,
positive,negative,2,l,j,,,,,,,,,6,7,115,14,,,,,,,,,main,2,2,2,negative,positive,l,l,1,0.7170872999995481,384.8103881999996,385.82365279999794,385.8071195999946,None,384.8103881999996,None,384.8103881999996,None,384.8103881999996,None,386.5236748399984,None,386.5236748399984,None,386.5236748399984,None,,,,,,,,,,,,,018,2022-05-12_19h33.04.237,Main,2022.1.1,60.00502841950379,
positive,positive,1,l,j,,,,,,,,,6,8,116,2,,,,,,,,,main,2,2,1,positive,positive,l,l,1,0.815452800001367,386.5266208999965,387.5402933000005,387.52367609999783,None,386.5266208999965,None,386.5266208999965,None,386.5266208999965,None,388.3403137399946,None,388.3403137399946,None,388.3403137399946,None,,,,,,,,,,,,,018,2022-05-12_19h33.04.237,Main,2022.1.1,60.00502841950379,
neutral,positive,2,k,k,,,,,,,,,6,9,117,13,,,,,,,,,main,2,2,2,positive,neutral,k,k,1,0.6788703999918653,388.3506083999964,389.3543742000038,389.3377096999902,None,388.3506083999964,None,388.3506083999964,None,388.3506083999964,None,390.02101724000386,None,390.02101724000386,None,390.02101724000386,None,,,,,,,,,,,,,018,2022-05-12_19h33.04.237,Main,2022.1.1,60.00502841950379,
neutral,negative,1,k,k,,,,,,,,,6,10,118,7,,,,,,,,,main,2,2,1,negative,neutral,k,k,1,0.698682700007339,390.02099859999726,391.02104779999354,391.02104779999354,None,390.02099859999726,None,390.02099859999726,None,390.02099859999726,None,391.7213315399931,None,391.7213315399931,None,391.7213315399931,None,,,,,,,,,,,,,018,2022-05-12_19h33.04.237,Main,2022.1.1,60.00502841950379,
negative,negative,2,j,l,,,,,,,,,6,11,119,9,,,,,,,,,main,2,2,2,negative,negative,j,j,1,0.7148861000023317,391.7244815000013,392.72131459999946,392.72131459999946,None,391.7244815000013,None,391.7244815000013,None,391.7244815000013,None,393.4379668399997,None,393.4379668399997,None,393.4379668399997,None,,,,,,,,,,,,,018,2022-05-12_19h33.04.237,Main,2022.1.1,60.00502841950379,
neutral,neutral,2,k,k,,,,,,,,,6,12,120,10,,,,,,,,,main,1,1,2,neutral,neutral,k,k,1,0.6818363000056706,393.44104599999264,394.4401579999976,394.4401579999976,None,393.44104599999264,None,393.44104599999264,None,393.44104599999264,None,395.12125684000057,None,395.12125684000057,None,395.12125684000057,None,,,,,,,,,,,,,018,2022-05-12_19h33.04.237,Main,2022.1.1,60.00502841950379,
neutral,negative,2,k,k,,,,,,,,,6,13,121,16,,,,,,,,,main,2,2,2,negative,neutral,k,k,1,0.748313899995992,395.12692999999854,396.1401804999914,396.12356429999636,None,395.12692999999854,None,395.12692999999854,None,395.12692999999854,None,396.87119944000005,None,396.87119944000005,None,396.87119944000005,None,,,,,,,,,,,,,018,2022-05-12_19h33.04.237,Main,2022.1.1,60.00502841950379,
positive,neutral,1,l,j,,,,,,,,,6,14,122,8,,,,,,,,,main,2,2,1,neutral,positive,l,l,1,0.7958304999920074,396.8744934999995,397.89008739999554,397.87344300000404,None,396.8744934999995,None,396.8744934999995,None,396.8744934999995,None,398.66861863999657,None,398.66861863999657,None,398.66861863999657,None,,,,,,,,,,,,,018,2022-05-12_19h33.04.237,Main,2022.1.1,60.00502841950379,
positive,neutral,2,l,j,,,,,,,,,6,15,123,17,,,,,,,,,main,1,1,2,neutral,positive,l,l,1,0.7340231000125641,398.68408179999096,399.6874988999916,399.6708332999988,None,398.68408179999096,None,398.68408179999096,None,398.68408179999096,None,400.40416173999984,None,400.40416173999984,None,400.40416173999984,None,,,,,,,,,,,,,018,2022-05-12_19h33.04.237,Main,2022.1.1,60.00502841950379,
negative,negative,1,j,l,,,,,,,,,6,16,124,0,,,,,,,,,main,2,2,1,negative,negative,j,j,1,0.8148521000111941,400.40416439999535,401.40416249999544,401.40416249999544,None,400.40416439999535,None,400.40416439999535,None,400.40416439999535,None,402.22080103999906,None,402.22080103999906,None,402.22080103999906,None,,,,,,,,,,,,,018,2022-05-12_19h33.04.237,Main,2022.1.1,60.00502841950379,
neutral,positive,1,k,k,,,,,,,,,6,17,125,4,,,,,,,,,main,2,2,1,positive,neutral,k,k,1,0.7488569999986794,402.22387829999207,403.23746550000214,403.22079819999635,None,402.22387829999207,None,402.22387829999207,None,402.22387829999207,None,403.97112294000544,None,403.97112294000544,None,403.97112294000544,None,,,,,,,,,,,,,018,2022-05-12_19h33.04.237,Main,2022.1.1,60.00502841950379,
neutral,neutral,2,k,k,,,,,,,,,7,0,126,10,,,,,,,,,main,1,1,2,neutral,neutral,k,k,1,0.6969712999998592,403.9751097999979,404.9899628999992,404.9733930999937,None,403.9751097999979,None,403.9751097999979,None,403.9751097999979,None,405.6707459399986,None,405.6707459399986,None,405.6707459399986,None,,,,,,,,,,,,,018,2022-05-12_19h33.04.237,Main,2022.1.1,60.00502841950379,
neutral,positive,1,k,k,,,,,,,,,7,1,127,4,,,,,,,,,main,1,1,1,positive,neutral,k,k,1,0.6654851000057533,405.6749991999968,406.6899090999941,406.656622399998,None,405.6749991999968,None,405.6749991999968,None,405.6749991999968,None,407.3376935399938,None,407.3376935399938,None,407.3376935399938,None,,,,,,,,,,,,,018,2022-05-12_19h33.04.237,Main,2022.1.1,60.00502841950379,
neutral,negative,1,k,k,,,,,,,,,7,2,128,7,,,,,,,,,main,2,2,1,negative,neutral,k,k,1,0.76736530000926,407.3411322000029,408.35659470000246,408.33998629999405,None,407.3411322000029,None,407.3411322000029,None,407.3411322000029,None,409.10652274000313,None,409.10652274000313,None,409.10652274000313,None,,,,,,,,,,,,,018,2022-05-12_19h33.04.237,Main,2022.1.1,60.00502841950379,
positive,positive,1,l,j,,,,,,,,,7,3,129,2,,,,,,,,,main,1,1,1,positive,positive,l,l,1,0.6793690999911632,409.10962350000045,410.1232006999926,410.10655539999425,None,409.10962350000045,None,409.10962350000045,None,409.10962350000045,None,410.7875970399982,None,410.7875970399982,None,410.7875970399982,None,,,,,,,,,,,,,018,2022-05-12_19h33.04.237,Main,2022.1.1,60.00502841950379,
positive,neutral,1,l,j,,,,,,,,,7,4,130,8,,,,,,,,,main,1,1,1,neutral,positive,l,l,1,0.664691900004982,410.79094330000225,411.8039029999927,411.787230300004,None,410.79094330000225,None,410.79094330000225,None,410.79094330000225,None,412.4538963400046,None,412.4538963400046,None,412.4538963400046,None,,,,,,,,,,,,,018,2022-05-12_19h33.04.237,Main,2022.1.1,60.00502841950379,
negative,positive,1,j,l,,,,,,,,,7,5,131,6,,,,,,,,,main,1,1,1,positive,negative,j,j,1,0.7318432000029134,412.4538712999929,413.45393489999697,413.45393489999697,None,412.4538712999929,None,412.4538712999929,None,412.4538712999929,None,414.1872619400019,None,414.1872619400019,None,414.1872619400019,None,,,,,,,,,,,,,018,2022-05-12_19h33.04.237,Main,2022.1.1,60.00502841950379,
positive,neutral,2,l,j,,,,,,,,,7,6,132,17,,,,,,,,,main,2,2,2,neutral,positive,l,l,1,0.7038264000002528,414.1906225999992,415.1898855000036,415.1898855000036,None,414.1906225999992,None,414.1906225999992,None,414.1906225999992,None,415.89248793999286,None,415.89248793999286,None,415.89248793999286,None,,,,,,,,,,,,,018,2022-05-12_19h33.04.237,Main,2022.1.1,60.00502841950379,
positive,positive,2,l,j,,,,,,,,,7,7,133,11,,,,,,,,,main,2,2,2,positive,positive,l,l,1,1.17661809999845,415.89570609999646,416.9063438000012,416.8897062000033,None,415.89570609999646,None,415.89570609999646,None,415.89570609999646,None,418.07078283999726,None,418.07078283999726,None,418.07078283999726,None,,,,,,,,,,,,,018,2022-05-12_19h33.04.237,Main,2022.1.1,60.00502841950379,
negative,positive,2,j,l,,,,,,,,,7,8,134,15,,,,,,,,,main,1,1,2,positive,negative,j,j,1,0.8149333000037586,418.0742950999993,419.0896728999942,419.07307199999923,None,418.0742950999993,None,418.0742950999993,None,418.0742950999993,None,419.8874110399993,None,419.8874110399993,None,419.8874110399993,None,,,,,,,,,,,,,018,2022-05-12_19h33.04.237,Main,2022.1.1,60.00502841950379,
positive,negative,2,l,j,,,,,,,,,7,9,135,14,,,,,,,,,main,2,2,2,negative,positive,l,l,1,0.8013313999981619,419.89858729999105,420.9040626999922,420.8873734999943,None,419.89858729999105,None,419.89858729999105,None,419.89858729999105,None,421.6911577399951,None,421.6911577399951,None,421.6911577399951,None,,,,,,,,,,,,,018,2022-05-12_19h33.04.237,Main,2022.1.1,60.00502841950379,
negative,neutral,2,j,l,,,,,,,,,7,10,136,12,,,,,,,,,main,2,2,2,neutral,negative,j,l,0,0.7111364000011235,421.70395189999545,422.7060624000005,422.6873240999994,None,421.70395189999545,None,421.70395189999545,None,421.70395189999545,None,423.40388820000226,None,423.40388820000226,None,423.40388820000226,None,,,,,,,,,,,,,018,2022-05-12_19h33.04.237,Main,2022.1.1,60.00502841950379,
neutral,neutral,1,k,k,,,,,,,,,7,11,137,1,,,,,,,,,main,2,2,1,neutral,neutral,k,k,1,0.7525324000016553,424.4048829999956,425.4205454000039,425.38720640000247,None,424.4048829999956,None,424.4048829999956,None,424.4048829999956,None,426.1538782399948,None,426.1538782399948,None,426.1538782399948,None,,,,,,,,,,,,,018,2022-05-12_19h33.04.237,Main,2022.1.1,60.00502841950379,
negative,negative,1,j,l,,,,,,,,,7,12,138,0,,,,,,,,,main,2,2,1,negative,negative,j,j,1,0.7648054000019329,426.15830349999305,427.17052509999485,427.1538412999944,None,426.15830349999305,None,426.15830349999305,None,426.15830349999305,None,427.9205894400002,None,427.9205894400002,None,427.9205894400002,None,,,,,,,,,,,,,018,2022-05-12_19h33.04.237,Main,2022.1.1,60.00502841950379,
positive,negative,1,l,j,,,,,,,,,7,13,139,5,,,,,,,,,main,2,2,1,negative,positive,l,l,1,0.7807549999997718,427.9246237000043,428.93935810000403,428.9205052000034,None,427.9246237000043,None,427.9246237000043,None,427.9246237000043,None,429.703847039993,None,429.703847039993,None,429.703847039993,None,,,,,,,,,,,,,018,2022-05-12_19h33.04.237,Main,2022.1.1,60.00502841950379,
neutral,positive,2,k,k,,,,,,,,,7,14,140,13,,,,,,,,,main,1,1,2,positive,neutral,k,k,1,0.6981989999912912,429.7092058999988,430.7204816000012,430.70380580000347,None,429.7092058999988,None,429.7092058999988,None,429.7092058999988,None,431.4037974400053,None,431.4037974400053,None,431.4037974400053,None,,,,,,,,,,,,,018,2022-05-12_19h33.04.237,Main,2022.1.1,60.00502841950379,
neutral,negative,2,k,k,,,,,,,,,7,15,141,16,,,,,,,,,main,1,1,2,negative,neutral,k,k,1,0.6649556000047596,431.40688319999026,432.4204510999989,432.40380499999446,None,431.40688319999026,None,431.40688319999026,None,431.40688319999026,None,433.0704411400002,None,433.0704411400002,None,433.0704411400002,None,,,,,,,,,,,,,018,2022-05-12_19h33.04.237,Main,2022.1.1,60.00502841950379,
negative,neutral,1,j,l,,,,,,,,,7,16,142,3,,,,,,,,,main,2,2,1,neutral,negative,j,j,1,0.7686957000114489,433.0893273999973,434.10344550000445,434.07010899999295,None,433.0893273999973,None,433.0893273999973,None,433.0893273999973,None,434.8367846399997,None,434.8367846399997,None,434.8367846399997,None,,,,,,,,,,,,,018,2022-05-12_19h33.04.237,Main,2022.1.1,60.00502841950379,
negative,negative,2,j,l,,,,,,,,,7,17,143,9,,,,,,,,,main,2,2,2,negative,negative,j,j,1,0.7438707000110298,434.8413014999969,435.85346270000446,435.83678519999376,None,434.8413014999969,None,434.8413014999969,None,434.8413014999969,None,436.58692674000486,None,436.58692674000486,None,436.58692674000486,None,,,,,,,,,,,,,018,2022-05-12_19h33.04.237,Main,2022.1.1,60.00502841950379,
positive,negative,1,l,j,,,,,,,,,8,0,144,5,,,,,,,,,main,1,1,1,negative,positive,l,l,1,0.6985742000106256,436.5933909000014,437.60594759999367,437.58938189999026,None,436.5933909000014,None,436.5933909000014,None,436.5933909000014,None,438.2870412400007,None,438.2870412400007,None,438.2870412400007,None,,,,,,,,,,,,,018,2022-05-12_19h33.04.237,Main,2022.1.1,60.00502841950379,
negative,negative,2,j,l,,,,,,,,,8,1,145,9,,,,,,,,,main,2,2,2,negative,negative,j,j,1,0.7507638999959454,438.2914477000013,439.30597509999643,439.28930930000206,None,438.2914477000013,None,438.2914477000013,None,438.2914477000013,None,440.039323240002,None,440.039323240002,None,440.039323240002,None,,,,,,,,,,,,,018,2022-05-12_19h33.04.237,Main,2022.1.1,60.00502841950379,
neutral,neutral,1,k,k,,,,,,,,,8,2,146,1,,,,,,,,,main,1,1,1,neutral,neutral,k,k,1,0.694348799996078,440.0438706999994,441.0558741999994,441.03698710000026,None,440.0438706999994,None,440.0438706999994,None,440.0438706999994,None,441.7369903400031,None,441.7369903400031,None,441.7369903400031,None,,,,,,,,,,,,,018,2022-05-12_19h33.04.237,Main,2022.1.1,60.00502841950379,
neutral,positive,1,k,k,,,,,,,,,8,3,147,4,,,,,,,,,main,2,2,1,positive,neutral,k,k,1,0.7190362999972422,441.74125910000294,442.7557921999978,442.73918940000294,None,441.74125910000294,None,441.74125910000294,None,441.74125910000294,None,443.453609939992,None,443.453609939992,None,443.453609939992,None,,,,,,,,,,,,,018,2022-05-12_19h33.04.237,Main,2022.1.1,60.00502841950379,
negative,positive,2,j,l,,,,,,,,,8,4,148,15,,,,,,,,,main,1,1,2,positive,negative,j,j,1,0.7938847999903373,443.461962100002,444.46991299999354,444.4532467999961,None,443.461962100002,None,443.461962100002,None,443.461962100002,None,445.253203940003,None,445.253203940003,None,445.253203940003,None,,,,,,,,,,,,,018,2022-05-12_19h33.04.237,Main,2022.1.1,60.00502841950379,
neutral,neutral,2,k,k,,,,,,,,,8,5,149,10,,,,,,,,,main,1,1,2,neutral,neutral,k,k,1,0.7816529000119772,445.2532166000019,446.2532388999971,446.2532388999971,None,445.2532166000019,None,445.2532166000019,None,445.2532166000019,None,447.03654713999276,None,447.03654713999276,None,447.03654713999276,None,,,,,,,,,,,,,018,2022-05-12_19h33.04.237,Main,2022.1.1,60.00502841950379,
negative,negative,1,j,l,,,,,,,,,8,6,150,0,,,,,,,,,main,2,2,1,negative,negative,j,j,1,0.7485066000081133,447.03688069999043,448.0365069999971,448.0365069999971,None,447.03688069999043,None,447.03688069999043,None,447.03688069999043,None,448.7865301399943,None,448.7865301399943,None,448.7865301399943,None,,,,,,,,,,,,,018,2022-05-12_19h33.04.237,Main,2022.1.1,60.00502841950379,
positive,positive,2,l,j,,,,,,,,,8,7,151,11,,,,,,,,,main,1,1,2,positive,positive,l,l,1,0.7487043000000995,448.7897341999924,449.7891496999946,449.7891496999946,None,448.7897341999924,None,448.7897341999924,None,448.7897341999924,None,450.53681663999305,None,450.53681663999305,None,450.53681663999305,None,,,,,,,,,,,,,018,2022-05-12_19h33.04.237,Main,2022.1.1,60.00502841950379,
positive,positive,1,l,j,,,,,,,,,8,8,152,2,,,,,,,,,main,1,1,1,positive,positive,l,j,0,0.9149574000039138,450.54263589999755,451.55571869999403,451.53902870000456,None,450.54263589999755,None,450.54263589999755,None,450.54263589999755,None,452.4556892999972,None,452.4556892999972,None,452.4556892999972,None,,,,,,,,,,,,,018,2022-05-12_19h33.04.237,Main,2022.1.1,60.00502841950379,
neutral,negative,1,k,k,,,,,,,,,8,9,153,7,,,,,,,,,main,1,1,1,negative,neutral,k,k,1,0.7845046000002185,453.4537144999922,454.45557469999767,454.43904869999096,None,453.4537144999922,None,453.4537144999922,None,453.4537144999922,None,455.23670083999605,None,455.23670083999605,None,455.23670083999605,None,,,,,,,,,,,,,018,2022-05-12_19h33.04.237,Main,2022.1.1,60.00502841950379,
neutral,positive,2,k,k,,,,,,,,,8,10,154,13,,,,,,,,,main,2,2,2,positive,neutral,k,k,1,1.1906448999943677,455.2428719000018,456.2555573999998,456.238889699991,None,455.2428719000018,None,455.2428719000018,None,455.2428719000018,None,457.42924294000113,None,457.42924294000113,None,457.42924294000113,None,,,,,,,,,,,,,018,2022-05-12_19h33.04.237,Main,2022.1.1,60.00502841950379,
negative,neutral,1,j,l,,,,,,,,,8,11,155,3,,,,,,,,,main,2,2,1,neutral,negative,j,j,1,2.072139199997764,457.43985070000053,458.45316429999366,458.42214799999783,None,457.43985070000053,None,457.43985070000053,None,457.43985070000053,None,460.5032043999963,None,460.5032043999963,None,460.5032043999963,None,,,,,,,,,,,,,018,2022-05-12_19h33.04.237,Main,2022.1.1,60.00502841950379,
negative,positive,1,j,l,,,,,,,,,8,12,156,6,,,,,,,,,main,2,2,1,positive,negative,j,j,1,0.90348229999654,461.50324170000385,462.5053029999981,462.48645179999585,None,461.50324170000385,None,461.50324170000385,None,461.50324170000385,None,463.40315633999853,None,463.40315633999853,None,463.40315633999853,None,,,,,,,,,,,,,018,2022-05-12_19h33.04.237,Main,2022.1.1,60.00502841950379,
positive,neutral,2,l,j,,,,,,,,,8,13,157,17,,,,,,,,,main,2,2,2,neutral,positive,l,l,1,0.8313192000059644,463.4069010999956,464.41976910000085,464.4030914000032,None,463.4069010999956,None,463.4069010999956,None,463.4069010999956,None,465.2364290399928,None,465.2364290399928,None,465.2364290399928,None,,,,,,,,,,,,,018,2022-05-12_19h33.04.237,Main,2022.1.1,60.00502841950379,
positive,neutral,1,l,j,,,,,,,,,8,14,158,8,,,,,,,,,main,2,2,1,neutral,positive,l,l,1,0.7816482999915024,465.23979419999523,466.2553226000018,466.23643730000185,None,465.23979419999523,None,465.23979419999523,None,465.23979419999523,None,467.01975133999804,None,467.01975133999804,None,467.01975133999804,None,,,,,,,,,,,,,018,2022-05-12_19h33.04.237,Main,2022.1.1,60.00502841950379,
neutral,negative,2,k,k,,,,,,,,,8,15,159,16,,,,,,,,,main,1,1,2,negative,neutral,k,k,1,0.7827920999989146,467.02494679999654,468.03637210000306,468.0197057000041,None,467.02494679999654,None,467.02494679999654,None,467.02494679999654,None,468.80305624000175,None,468.80305624000175,None,468.80305624000175,None,,,,,,,,,,,,,018,2022-05-12_19h33.04.237,Main,2022.1.1,60.00502841950379,
positive,negative,2,l,j,,,,,,,,,8,16,160,14,,,,,,,,,main,1,1,2,negative,positive,l,l,1,0.8801457999943523,468.8091468999919,469.8027019000001,469.7926884000044,None,468.8091468999919,None,468.8091468999919,None,468.8091468999919,None,470.6860220400049,None,470.6860220400049,None,470.6860220400049,None,,,,,,,,,,,,,018,2022-05-12_19h33.04.237,Main,2022.1.1,60.00502841950379,
negative,neutral,2,j,l,,,,,,,,,8,17,161,12,,,,,,,,,main,2,2,2,neutral,negative,j,j,1,0.7653745999996318,470.6860205999983,471.68607229999907,471.68607229999907,None,470.6860205999983,None,470.6860205999983,None,470.6860205999983,None,472.45302114000515,None,472.45302114000515,None,472.45302114000515,None,,,,,,,,,,,,,018,2022-05-12_19h33.04.237,Main,2022.1.1,60.00502841950379,
positive,neutral,2,l,j,,,,,,,,,9,0,162,17,,,,,,,,,main,2,2,2,neutral,positive,l,l,1,0.9839850999996997,472.4565756999946,473.47187989999657,473.45533660000365,None,472.4565756999946,None,472.4565756999946,None,472.4565756999946,None,474.4385947399933,None,474.4385947399933,None,474.4385947399933,None,,,,,,,,,,,,,018,2022-05-12_19h33.04.237,Main,2022.1.1,60.00502841950379,
negative,negative,2,j,l,,,,,,,,,9,1,163,9,,,,,,,,,main,1,1,2,negative,negative,j,j,1,1.030079799995292,474.4425026999961,475.45524899999145,475.43861769999785,None,474.4425026999961,None,474.4425026999961,None,474.4425026999961,None,476.46928824000497,None,476.46928824000497,None,476.46928824000497,None,,,,,,,,,,,,,018,2022-05-12_19h33.04.237,Main,2022.1.1,60.00502841950379,
positive,negative,2,l,j,,,,,,,,,9,2,164,14,,,,,,,,,main,1,1,2,negative,positive,l,l,1,0.7977526000031503,476.47346179999295,477.48849789999076,477.471813199998,None,476.47346179999295,None,476.47346179999295,None,476.47346179999295,None,478.26954993999243,None,478.26954993999243,None,478.26954993999243,None,,,,,,,,,,,,,018,2022-05-12_19h33.04.237,Main,2022.1.1,60.00502841950379,
neutral,negative,2,k,k,,,,,,,,,9,3,165,16,,,,,,,,,main,1,1,2,negative,neutral,k,k,1,0.6979774000064936,478.27272639999865,479.27183479999076,479.27183479999076,None,478.27272639999865,None,478.27272639999865,None,478.27272639999865,None,479.9691710400002,None,479.9691710400002,None,479.9691710400002,None,,,,,,,,,,,,,018,2022-05-12_19h33.04.237,Main,2022.1.1,60.00502841950379,
neutral,positive,2,k,k,,,,,,,,,9,4,166,13,,,,,,,,,main,2,2,2,positive,neutral,k,k,1,0.64825589999964,479.9691629000008,480.96916639999836,480.96916639999836,None,479.9691629000008,None,479.9691629000008,None,479.9691629000008,None,481.61916313999245,None,481.61916313999245,None,481.61916313999245,None,,,,,,,,,,,,,018,2022-05-12_19h33.04.237,Main,2022.1.1,60.00502841950379,
positive,positive,2,l,j,,,,,,,,,9,5,167,11,,,,,,,,,main,2,2,2,positive,positive,l,l,1,0.7990551999973832,481.61970850000216,482.6194819999946,482.60515039999154,None,481.61970850000216,None,481.61970850000216,None,481.61970850000216,None,483.4195512399965,None,483.4195512399965,None,483.4195512399965,None,,,,,,,,,,,,,018,2022-05-12_19h33.04.237,Main,2022.1.1,60.00502841950379,
negative,neutral,1,j,l,,,,,,,,,9,6,168,3,,,,,,,,,main,2,2,1,neutral,negative,j,j,1,0.6834305999946082,483.42521699999634,484.438387599992,484.421811799999,None,483.42521699999634,None,483.42521699999634,None,483.42521699999634,None,485.10502244000236,None,485.10502244000236,None,485.10502244000236,None,,,,,,,,,,,,,018,2022-05-12_19h33.04.237,Main,2022.1.1,60.00502841950379,
negative,positive,1,j,l,,,,,,,,,9,7,169,6,,,,,,,,,main,1,1,1,positive,negative,j,j,1,0.7465058999950998,485.108636399993,486.12159899999097,486.10496769999736,None,485.108636399993,None,485.108636399993,None,485.108636399993,None,486.8527118400016,None,486.8527118400016,None,486.8527118400016,None,,,,,,,,,,,,,018,2022-05-12_19h33.04.237,Main,2022.1.1,60.00502841950379,
negative,negative,1,j,l,,,,,,,,,9,8,170,0,,,,,,,,,main,2,2,1,negative,negative,j,j,1,0.6808334999950603,486.85866050000186,487.86937089999265,487.8550302999938,None,486.85866050000186,None,486.85866050000186,None,486.85866050000186,None,488.53599794000183,None,488.53599794000183,None,488.53599794000183,None,,,,,,,,,,,,,018,2022-05-12_19h33.04.237,Main,2022.1.1,60.00502841950379,
positive,positive,1,l,j,,,,,,,,,9,9,171,2,,,,,,,,,main,2,2,1,positive,positive,l,l,1,0.7313933000114048,488.539955500004,489.5368804000027,489.5298240999982,None,488.539955500004,None,488.539955500004,None,488.539955500004,None,490.26896153999405,None,490.26896153999405,None,490.26896153999405,None,,,,,,,,,,,,,018,2022-05-12_19h33.04.237,Main,2022.1.1,60.00502841950379,
neutral,positive,1,k,k,,,,,,,,,9,10,172,4,,,,,,,,,main,2,2,1,positive,neutral,k,k,1,0.8651512000069488,490.26952429999074,491.2689335000032,491.2689335000032,None,490.26952429999074,None,490.26952429999074,None,490.26952429999074,None,492.1356412399982,None,492.1356412399982,None,492.1356412399982,None,,,,,,,,,,,,,018,2022-05-12_19h33.04.237,Main,2022.1.1,60.00502841950379,
positive,neutral,1,l,j,,,,,,,,,9,11,173,8,,,,,,,,,main,1,1,1,neutral,positive,l,l,1,0.6368196999974316,492.1360638999904,493.1356137999974,493.1356137999974,None,492.1360638999904,None,492.1360638999904,None,492.1360638999904,None,493.7689445399956,None,493.7689445399956,None,493.7689445399956,None,,,,,,,,,,,,,018,2022-05-12_19h33.04.237,Main,2022.1.1,60.00502841950379,
positive,negative,1,l,j,,,,,,,,,9,12,174,5,,,,,,,,,main,2,2,1,negative,positive,l,l,1,0.5791986999975052,493.7746533000027,494.78557989999535,494.76891849999083,None,493.7746533000027,None,493.7746533000027,None,493.7746533000027,None,495.35484874000394,None,495.35484874000394,None,495.35484874000394,None,,,,,,,,,,,,,018,2022-05-12_19h33.04.237,Main,2022.1.1,60.00502841950379,
neutral,neutral,1,k,k,,,,,,,,,9,13,175,1,,,,,,,,,main,2,2,1,neutral,neutral,k,k,1,0.7458889000117779,495.3579658999952,496.3715147000039,496.3548388999916,None,495.3579658999952,None,495.3579658999952,None,495.3579658999952,None,497.10252623999986,None,497.10252623999986,None,497.10252623999986,None,,,,,,,,,,,,,018,2022-05-12_19h33.04.237,Main,2022.1.1,60.00502841950379,
neutral,negative,1,k,k,,,,,,,,,9,14,176,7,,,,,,,,,main,2,2,1,negative,neutral,k,k,1,0.5816333999973722,497.10603899999114,498.12137169999187,498.10484810000344,None,497.10603899999114,None,497.10603899999114,None,497.10603899999114,None,498.685808739996,None,498.685808739996,None,498.685808739996,None,,,,,,,,,,,,,018,2022-05-12_19h33.04.237,Main,2022.1.1,60.00502841950379,
neutral,neutral,2,k,k,,,,,,,,,9,15,177,10,,,,,,,,,main,2,2,2,neutral,neutral,k,k,1,0.9146169000014197,498.6898541999981,499.7046946000046,499.68812920000346,None,498.6898541999981,None,498.6898541999981,None,498.6898541999981,None,500.6024282399958,None,500.6024282399958,None,500.6024282399958,None,,,,,,,,,,,,,018,2022-05-12_19h33.04.237,Main,2022.1.1,60.00502841950379,
negative,positive,2,j,l,,,,,,,,,9,16,178,15,,,,,,,,,main,1,1,2,positive,negative,j,j,1,0.8645955000101821,500.60603110000375,501.62135699999635,501.6046706999914,None,500.60603110000375,None,500.60603110000375,None,500.60603110000375,None,502.46905723999225,None,502.46905723999225,None,502.46905723999225,None,,,,,,,,,,,,,018,2022-05-12_19h33.04.237,Main,2022.1.1,60.00502841950379,
negative,neutral,2,j,l,,,,,,,,,9,17,179,12,,,,,,,,,main,2,2,2,neutral,negative,j,j,1,0.7147961000009673,502.47450889999163,503.4853570999985,503.46868710000126,None,502.47450889999163,None,502.47450889999163,None,502.47450889999163,None,504.1853604400021,None,504.1853604400021,None,504.1853604400021,None,,,,,,,,,,,,,018,2022-05-12_19h33.04.237,Main,2022.1.1,60.00502841950379,
neutral,neutral,2,k,k,,,,,,,,,10,0,180,10,,,,,,,,,main,1,1,2,neutral,neutral,k,k,1,0.7816983000084292,504.18536139999924,505.18536190000304,505.18536190000304,None,504.18536139999924,None,504.18536139999924,None,504.18536139999924,None,505.96867363999627,None,505.96867363999627,None,505.96867363999627,None,,,,,,,,,,,,,018,2022-05-12_19h33.04.237,Main,2022.1.1,60.00502841950379,
negative,positive,2,j,l,,,,,,,,,10,1,181,15,,,,,,,,,main,2,2,2,positive,negative,j,j,1,0.6988498999999138,505.9690120000014,506.9686725999927,506.9686725999927,None,505.9690120000014,None,505.9690120000014,None,505.9690120000014,None,507.6689893399962,None,507.6689893399962,None,507.6689893399962,None,,,,,,,,,,,,,018,2022-05-12_19h33.04.237,Main,2022.1.1,60.00502841950379,
positive,negative,2,l,j,,,,,,,,,10,2,182,14,,,,,,,,,main,1,1,2,negative,positive,l,l,1,0.6314186000090558,507.67288669999107,508.6879356999998,508.6712583000044,None,507.67288669999107,None,507.67288669999107,None,507.67288669999107,None,509.30225873999734,None,509.30225873999734,None,509.30225873999734,None,,,,,,,,,,,,,018,2022-05-12_19h33.04.237,Main,2022.1.1,60.00502841950379,
negative,positive,1,j,l,,,,,,,,,10,3,183,6,,,,,,,,,main,2,2,1,positive,negative,j,j,1,0.7318857999925967,509.3062221,510.32114960000035,510.30447370000184,None,509.3062221,None,509.3062221,None,509.3062221,None,511.03555834000144,None,511.03555834000144,None,511.03555834000144,None,,,,,,,,,,,,,018,2022-05-12_19h33.04.237,Main,2022.1.1,60.00502841950379,
negative,negative,2,j,l,,,,,,,,,10,4,184,9,,,,,,,,,main,1,1,2,negative,negative,j,j,1,0.6483813000086229,511.03948179999134,512.0523138999997,512.0211972999969,None,511.03948179999134,None,511.03948179999134,None,511.03948179999134,None,512.6855269400039,None,512.6855269400039,None,512.6855269400039,None,,,,,,,,,,,,,018,2022-05-12_19h33.04.237,Main,2022.1.1,60.00502841950379,
negative,negative,1,j,l,,,,,,,,,10,5,185,0,,,,,,,,,main,1,1,1,negative,negative,j,j,1,0.7150753000023542,512.6888324000029,513.7043849000038,513.6878219999926,None,512.6888324000029,None,512.6888324000029,None,512.6888324000029,None,514.4021407399923,None,514.4021407399923,None,514.4021407399923,None,,,,,,,,,,,,,018,2022-05-12_19h33.04.237,Main,2022.1.1,60.00502841950379,
positive,neutral,2,l,j,,,,,,,,,10,6,186,17,,,,,,,,,main,2,2,2,neutral,positive,l,l,1,0.7481138000002829,514.4055846999981,515.4184381999949,515.401769899996,None,514.4055846999981,None,514.4055846999981,None,514.4055846999981,None,516.1517810400037,None,516.1517810400037,None,516.1517810400037,None,,,,,,,,,,,,,018,2022-05-12_19h33.04.237,Main,2022.1.1,60.00502841950379,
positive,positive,1,l,j,,,,,,,,,10,7,187,2,,,,,,,,,main,2,2,1,positive,positive,l,l,1,0.6817121999920346,516.1517548999982,517.1517795999971,517.1517795999971,None,516.1517548999982,None,516.1517548999982,None,516.1517548999982,None,517.8351119399958,None,517.8351119399958,None,517.8351119399958,None,,,,,,,,,,,,,018,2022-05-12_19h33.04.237,Main,2022.1.1,60.00502841950379,
neutral,positive,1,k,k,,,,,,,,,10,8,188,4,,,,,,,,,main,1,1,1,positive,neutral,k,k,1,0.6815924999973504,517.8355690000026,518.8350890000002,518.8350890000002,None,517.8355690000026,None,517.8355690000026,None,517.8355690000026,None,519.5184615399994,None,519.5184615399994,None,519.5184615399994,None,,,,,,,,,,,,,018,2022-05-12_19h33.04.237,Main,2022.1.1,60.00502841950379,
positive,positive,2,l,j,,,,,,,,,10,9,189,11,,,,,,,,,main,1,1,2,positive,positive,l,l,1,0.9151757999934489,519.5249475000019,520.5376276000025,520.520995400002,None,519.5249475000019,None,519.5249475000019,None,519.5249475000019,None,521.4353491400034,None,521.4353491400034,None,521.4353491400034,None,,,,,,,,,,,,,018,2022-05-12_19h33.04.237,Main,2022.1.1,60.00502841950379,
positive,neutral,1,l,j,,,,,,,,,10,10,190,8,,,,,,,,,main,1,1,1,neutral,positive,l,l,1,0.8985584999900311,521.4390102000034,522.4542819999915,522.4210084999941,None,521.4390102000034,None,521.4390102000034,None,521.4390102000034,None,523.3354602399995,None,523.3354602399995,None,523.3354602399995,None,,,,,,,,,,,,,018,2022-05-12_19h33.04.237,Main,2022.1.1,60.00502841950379,
neutral,neutral,1,k,k,,,,,,,,,10,11,191,1,,,,,,,,,main,2,2,1,neutral,neutral,k,k,1,0.7982653999933973,523.3408647000033,524.3541717000044,524.3375854999904,None,523.3408647000033,None,523.3408647000033,None,523.3408647000033,None,525.1352711400032,None,525.1352711400032,None,525.1352711400032,None,,,,,,,,,,,,,018,2022-05-12_19h33.04.237,Main,2022.1.1,60.00502841950379,
neutral,positive,2,k,k,,,,,,,,,10,12,192,13,,,,,,,,,main,2,2,2,positive,neutral,k,k,1,0.7150677000026917,525.1383257999987,526.1374466999987,526.1374466999987,None,525.1383257999987,None,525.1383257999987,None,525.1383257999987,None,526.8519051399999,None,526.8519051399999,None,526.8519051399999,None,,,,,,,,,,,,,018,2022-05-12_19h33.04.237,Main,2022.1.1,60.00502841950379,
neutral,negative,1,k,k,,,,,,,,,10,13,193,7,,,,,,,,,main,2,2,1,negative,neutral,k,k,1,0.648052300006384,526.8551114000002,527.8682052999939,527.8515354999981,None,526.8551114000002,None,526.8551114000002,None,526.8551114000002,None,528.5015069400033,None,528.5015069400033,None,528.5015069400033,None,,,,,,,,,,,,,018,2022-05-12_19h33.04.237,Main,2022.1.1,60.00502841950379,
negative,neutral,1,j,l,,,,,,,,,10,14,194,3,,,,,,,,,main,2,2,1,neutral,negative,j,j,1,0.8484954000014113,528.5015017999976,529.501545799998,529.501545799998,None,528.5015017999976,None,528.5015017999976,None,528.5015017999976,None,530.3518323399985,None,530.3518323399985,None,530.3518323399985,None,,,,,,,,,,,,,018,2022-05-12_19h33.04.237,Main,2022.1.1,60.00502841950379,
positive,negative,1,l,j,,,,,,,,,10,15,195,5,,,,,,,,,main,2,2,1,negative,positive,l,l,1,0.7311617999948794,530.3558425999945,531.370645899995,531.354045,None,530.3558425999945,None,530.3558425999945,None,530.3558425999945,None,532.0851120399966,None,532.0851120399966,None,532.0851120399966,None,,,,,,,,,,,,,018,2022-05-12_19h33.04.237,Main,2022.1.1,60.00502841950379,
negative,neutral,2,j,l,,,,,,,,,10,16,196,12,,,,,,,,,main,1,1,2,neutral,negative,j,j,1,0.7139705999870785,532.091121999998,533.1039826999913,533.0873356999946,None,532.091121999998,None,532.091121999998,None,532.091121999998,None,533.8017407399966,None,533.8017407399966,None,533.8017407399966,None,,,,,,,,,,,,,018,2022-05-12_19h33.04.237,Main,2022.1.1,60.00502841950379,
neutral,negative,2,k,k,,,,,,,,,10,17,197,16,,,,,,,,,main,1,1,2,negative,neutral,k,k,1,0.7819213999900967,533.8057134999981,534.8206366999948,534.8040638999955,None,533.8057134999981,None,533.8057134999981,None,533.8057134999981,None,535.5851864399956,None,535.5851864399956,None,535.5851864399956,None,,,,,,,,,,,,,018,2022-05-12_19h33.04.237,Main,2022.1.1,60.00502841950379,
positive,negative,2,l,j,,,,,,,,,11,0,198,14,,,,,,,,,main,2,2,2,negative,positive,l,l,1,0.9145293000037782,535.5906047000026,536.6039228000009,536.5873217999906,None,535.5906047000026,None,535.5906047000026,None,535.5906047000026,None,537.5013689400002,None,537.5013689400002,None,537.5013689400002,None,,,,,,,,,,,,,018,2022-05-12_19h33.04.237,Main,2022.1.1,60.00502841950379,
positive,negative,1,l,j,,,,,,,,,11,1,199,5,,,,,,,,,main,2,2,1,negative,positive,l,l,1,0.5818765000003623,537.5073800999962,538.5179645000026,538.5013053000002,None,537.5073800999962,None,537.5073800999962,None,537.5073800999962,None,539.084627340002,None,539.084627340002,None,539.084627340002,None,,,,,,,,,,,,,018,2022-05-12_19h33.04.237,Main,2022.1.1,60.00502841950379,
positive,positive,2,l,j,,,,,,,,,11,2,200,11,,,,,,,,,main,2,2,2,positive,positive,l,l,1,0.5982797000033315,539.084643299997,540.0846357999981,540.0846357999981,None,539.084643299997,None,539.084643299997,None,539.084643299997,None,540.6846267400033,None,540.6846267400033,None,540.6846267400033,None,,,,,,,,,,,,,018,2022-05-12_19h33.04.237,Main,2022.1.1,60.00502841950379,
negative,negative,1,j,l,,,,,,,,,11,3,201,0,,,,,,,,,main,2,2,1,negative,negative,j,j,1,0.7649695000000065,540.6849169999914,541.6846205000038,541.6846205000038,None,540.6849169999914,None,540.6849169999914,None,540.6849169999914,None,542.451282040005,None,542.451282040005,None,542.451282040005,None,,,,,,,,,,,,,018,2022-05-12_19h33.04.237,Main,2022.1.1,60.00502841950379,
negative,neutral,1,j,l,,,,,,,,,11,4,202,3,,,,,,,,,main,1,1,1,neutral,negative,j,j,1,0.749219199991785,542.4554105999996,543.4704714999971,543.4538627000002,None,542.4554105999996,None,542.4554105999996,None,542.4554105999996,None,544.2015804399925,None,544.2015804399925,None,544.2015804399925,None,,,,,,,,,,,,,018,2022-05-12_19h33.04.237,Main,2022.1.1,60.00502841950379,
neutral,neutral,1,k,k,,,,,,,,,11,5,203,1,,,,,,,,,main,1,1,1,neutral,neutral,k,k,1,0.8137743000115734,544.2058733000013,545.2203672000032,545.2038718999975,None,544.2058733000013,None,544.2058733000013,None,544.2058733000013,None,546.0181566399915,None,546.0181566399915,None,546.0181566399915,None,,,,,,,,,,,,,018,2022-05-12_19h33.04.237,Main,2022.1.1,60.00502841950379,
neutral,neutral,2,k,k,,,,,,,,,11,6,204,10,,,,,,,,,main,2,2,2,neutral,neutral,k,k,1,0.6495005999895511,546.0215155999904,547.0370440999977,547.0205060000008,None,546.0215155999904,None,546.0215155999904,None,546.0215155999904,None,547.6681503399959,None,547.6681503399959,None,547.6681503399959,None,,,,,,,,,,,,,018,2022-05-12_19h33.04.237,Main,2022.1.1,60.00502841950379,
negative,neutral,2,j,l,,,,,,,,,11,7,205,12,,,,,,,,,main,1,1,2,neutral,negative,j,j,1,0.8805885000037961,547.6870501999947,548.6870096999919,548.6703940000007,None,547.6870501999947,None,547.6870501999947,None,547.6870501999947,None,549.5514229399923,None,549.5514229399923,None,549.5514229399923,None,,,,,,,,,,,,,018,2022-05-12_19h33.04.237,Main,2022.1.1,60.00502841950379,
neutral,positive,1,k,k,,,,,,,,,11,8,206,4,,,,,,,,,main,2,2,1,positive,neutral,k,k,1,0.7318713999993633,549.5545627999963,550.5673599000002,550.5470418000041,None,549.5545627999963,None,549.5545627999963,None,549.5545627999963,None,551.2847002400013,None,551.2847002400013,None,551.2847002400013,None,,,,,,,,,,,,,018,2022-05-12_19h33.04.237,Main,2022.1.1,60.00502841950379,
positive,neutral,1,l,j,,,,,,,,,11,9,207,8,,,,,,,,,main,2,2,1,neutral,positive,l,l,1,0.7648156999930507,551.2843892999954,552.2843715999916,552.2843715999916,None,551.2843892999954,None,551.2843892999954,None,551.2843892999954,None,553.0510508399966,None,553.0510508399966,None,553.0510508399966,None,,,,,,,,,,,,,018,2022-05-12_19h33.04.237,Main,2022.1.1,60.00502841950379,
neutral,negative,2,k,k,,,,,,,,,11,10,208,16,,,,,,,,,main,2,2,2,negative,neutral,k,k,1,0.8652232000022195,553.056233700001,554.0702545999957,554.0536007000046,None,553.056233700001,None,553.056233700001,None,553.056233700001,None,554.9179863399986,None,554.9179863399986,None,554.9179863399986,None,,,,,,,,,,,,,018,2022-05-12_19h33.04.237,Main,2022.1.1,60.00502841950379,
negative,positive,2,j,l,,,,,,,,,11,11,209,15,,,,,,,,,main,1,1,2,positive,negative,j,j,1,0.9007038999989163,554.9236461999972,555.9368231999979,555.9202508000017,None,554.9236461999972,None,554.9236461999972,None,554.9236461999972,None,556.8202782399967,None,556.8202782399967,None,556.8202782399967,None,,,,,,,,,,,,,018,2022-05-12_19h33.04.237,Main,2022.1.1,60.00502841950379,
positive,neutral,2,l,j,,,,,,,,,11,12,210,17,,,,,,,,,main,2,2,2,neutral,positive,l,l,1,0.912006400001701,556.8247453999938,557.8345955999976,557.8202151000005,None,556.8247453999938,None,556.8247453999938,None,556.8247453999938,None,558.7345764400015,None,558.7345764400015,None,558.7345764400015,None,,,,,,,,,,,,,018,2022-05-12_19h33.04.237,Main,2022.1.1,60.00502841950379,
negative,negative,2,j,l,,,,,,,,,11,13,211,9,,,,,,,,,main,2,2,2,negative,negative,j,j,1,0.7989744000078645,558.7399561999919,559.7534500000038,559.7367884999985,None,558.7399561999919,None,558.7399561999919,None,558.7399561999919,None,560.5345421400052,None,560.5345421400052,None,560.5345421400052,None,,,,,,,,,,,,,018,2022-05-12_19h33.04.237,Main,2022.1.1,60.00502841950379,
neutral,positive,2,k,k,,,,,,,,,11,14,212,13,,,,,,,,,main,2,2,2,positive,neutral,k,l,0,-0.019122199999401346,560.5406577999966,None,None,None,560.5406577999966,None,560.5406577999966,None,560.5406577999966,None,561.5174990999949,None,561.5174990999949,None,561.5174990999949,None,,,,,,,,,,,,,018,2022-05-12_19h33.04.237,Main,2022.1.1,60.00502841950379,
negative,positive,1,j,l,,,,,,,,,11,15,213,6,,,,,,,,,main,2,2,1,positive,negative,j,j,1,0.7178563000052236,564.518614200002,565.5200439000037,565.5034205999982,None,564.518614200002,None,564.518614200002,None,564.518614200002,None,566.2344281399928,None,566.2344281399928,None,566.2344281399928,None,,,,,,,,,,,,,018,2022-05-12_19h33.04.237,Main,2022.1.1,60.00502841950379,
neutral,negative,1,k,k,,,,,,,,,11,16,214,7,,,,,,,,,main,2,2,1,negative,neutral,k,k,1,0.7532313999981852,566.238391699997,567.2533257000032,567.2366701999999,None,566.238391699997,None,566.238391699997,None,566.238391699997,None,567.9866326400006,None,567.9866326400006,None,567.9866326400006,None,,,,,,,,,,,,,018,2022-05-12_19h33.04.237,Main,2022.1.1,60.00502841950379,
positive,positive,1,l,j,,,,,,,,,11,17,215,2,,,,,,,,,main,2,2,1,positive,positive,l,l,1,0.7277896999876248,567.9981486000033,569.0032673999958,568.9843524000025,None,567.9981486000033,None,567.9981486000033,None,567.9981486000033,None,569.7199485399979,None,569.7199485399979,None,569.7199485399979,None,,,,,,,,,,,,,018,2022-05-12_19h33.04.237,Main,2022.1.1,60.00502841950379,
negative,positive,2,j,l,,,,,,,,,12,0,216,15,,,,,,,,,main,1,1,2,positive,negative,j,j,1,0.7790846999996575,569.7228967999981,570.7339924999978,570.7173272999935,None,569.7228967999981,None,569.7228967999981,None,569.7228967999981,None,571.5006146400046,None,571.5006146400046,None,571.5006146400046,None,,,,,,,,,,,,,018,2022-05-12_19h33.04.237,Main,2022.1.1,60.00502841950379,
negative,negative,2,j,l,,,,,,,,,12,1,217,9,,,,,,,,,main,2,2,2,negative,negative,j,j,1,0.7489726000057999,571.5006233000022,572.5006595000013,572.5006595000013,None,571.5006233000022,None,571.5006233000022,None,571.5006233000022,None,573.2509497399951,None,573.2509497399951,None,573.2509497399951,None,,,,,,,,,,,,,018,2022-05-12_19h33.04.237,Main,2022.1.1,60.00502841950379,
negative,neutral,2,j,l,,,,,,,,,12,2,218,12,,,,,,,,,main,1,1,2,neutral,negative,j,j,1,0.6646319999999832,573.2545086000027,574.2698509000038,574.2531981999928,None,573.2545086000027,None,573.2545086000027,None,573.2545086000027,None,574.917567739998,None,574.917567739998,None,574.917567739998,None,,,,,,,,,,,,,018,2022-05-12_19h33.04.237,Main,2022.1.1,60.00502841950379,
positive,negative,1,l,j,,,,,,,,,12,3,219,5,,,,,,,,,main,1,1,1,negative,positive,l,l,1,0.7359148999967147,574.9208366999956,575.9197622999927,575.9197622999927,None,574.9208366999956,None,574.9208366999956,None,574.9208366999956,None,576.6508820399977,None,576.6508820399977,None,576.6508820399977,None,,,,,,,,,,,,,018,2022-05-12_19h33.04.237,Main,2022.1.1,60.00502841950379,
neutral,positive,1,k,k,,,,,,,,,12,4,220,4,,,,,,,,,main,1,1,1,positive,neutral,k,k,1,0.6456474000005983,576.6579446999967,577.6697731000022,577.6531566999911,None,576.6579446999967,None,576.6579446999967,None,576.6579446999967,None,578.3008829399987,None,578.3008829399987,None,578.3008829399987,None,,,,,,,,,,,,,018,2022-05-12_19h33.04.237,Main,2022.1.1,60.00502841950379,
positive,neutral,1,l,j,,,,,,,,,12,5,221,8,,,,,,,,,main,2,2,1,neutral,positive,l,l,1,1.1471441000030609,578.3071114999912,579.3198379999958,579.3031000000046,None,578.3071114999912,None,578.3071114999912,None,578.3071114999912,None,580.4508164399958,None,580.4508164399958,None,580.4508164399958,None,,,,,,,,,,,,,018,2022-05-12_19h33.04.237,Main,2022.1.1,60.00502841950379,
neutral,neutral,1,k,k,,,,,,,,,12,6,222,1,,,,,,,,,main,2,2,1,neutral,neutral,k,k,1,0.6644986000028439,580.4540122000035,581.467064299999,581.4504039000021,None,580.4540122000035,None,580.4540122000035,None,580.4540122000035,None,582.1170830400006,None,582.1170830400006,None,582.1170830400006,None,,,,,,,,,,,,,018,2022-05-12_19h33.04.237,Main,2022.1.1,60.00502841950379,
positive,neutral,2,l,j,,,,,,,,,12,7,223,17,,,,,,,,,main,2,2,2,neutral,positive,l,l,1,0.6495366000017384,582.1170652000001,583.1170973999979,583.1170973999979,None,582.1170652000001,None,582.1170652000001,None,582.1170652000001,None,583.7680736399998,None,583.7680736399998,None,583.7680736399998,None,,,,,,,,,,,,,018,2022-05-12_19h33.04.237,Main,2022.1.1,60.00502841950379,
neutral,positive,2,k,k,,,,,,,,,12,8,224,13,,,,,,,,,main,1,1,2,positive,neutral,k,k,1,0.5808780999941519,583.7863668999926,584.7862231000036,584.7697278999985,None,583.7863668999926,None,583.7863668999926,None,583.7863668999926,None,585.3507240399995,None,585.3507240399995,None,585.3507240399995,None,,,,,,,,,,,,,018,2022-05-12_19h33.04.237,Main,2022.1.1,60.00502841950379,
