target,distractor,set,ans1,ans2,rep_loop2.thisRepN,rep_loop2.thisTrialN,rep_loop2.thisN,rep_loop2.thisIndex,flanker_prac_loop.thisRepN,flanker_prac_loop.thisTrialN,flanker_prac_loop.thisN,flanker_prac_loop.thisIndex,flanker_main_loop.thisRepN,flanker_main_loop.thisTrialN,flanker_main_loop.thisN,flanker_main_loop.thisIndex,fl_inst_resp.keys,fl_inst_resp.rt,sound_1.started,sound_1.stopped,image_4.started,image_4.stopped,back_2.started,back_2.stopped,main_prac,fl_cold,fl_colt,fl_set,fl_dcond,fl_tcond,fl_ans,fl_res,fl_corr,fl_rt,fix_fl.started,fix_fl.stopped,targ.started,targ.stopped,j_button.started,j_button.stopped,k_button.started,k_button.stopped,l_button.started,l_button.stopped,j_button2.started,j_button2.stopped,k_button2.started,k_button2.stopped,l_button2.started,l_button2.stopped,mainback.started,mainback.stopped,key_resp.keys,key_resp.rt,mouse_6.x,mouse_6.y,mouse_6.leftButton,mouse_6.midButton,mouse_6.rightButton,mouse_6.started,mouse_6.stopped,text_2.started,text_2.stopped,id*,date,expName,psychopyVersion,frameRate,
,,,,,0,0,0,0,,,,,,,,,space,62.61048070000834,34.09096041001321,None,96.72580949999974,None,,,,,,,,,,,,,,,,,,,,,,,,,,,,,,,,,,,,,,,,,,019,2022-05-13_15h30.21.601,Main,2022.1.1,58.891358397706654,
,,,,,1,0,1,0,,,,,,,,,space,1.2065064000198618,100.04269411001296,None,101.27273080000305,None,,,,,,,,,,,,,,,,,,,,,,,,,,,,,,,,,,,,,,,,,,019,2022-05-13_15h30.21.601,Main,2022.1.1,58.891358397706654,
positive,negative,1,l,j,,,,,0,0,0,5,,,,,,,,,,,104.65919220002252,None,prac,2,2,1,negative,positive,j,j,1,1.6659228000207804,106.70028070002445,107.70897649999824,107.68954530000337,None,106.70028070002445,None,106.70028070002445,None,106.70028070002445,None,109.36168560001533,None,109.36168560001533,None,109.36168560001533,None,,,,,,,,,,,,,,019,2022-05-13_15h30.21.601,Main,2022.1.1,58.891358397706654,
neutral,negative,2,k,k,,,,,0,1,1,16,,,,,,,,,,,,,prac,2,2,2,negative,neutral,k,k,1,1.1165066999965347,110.3915616000013,111.4061152000213,111.37272370001301,None,110.3915616000013,None,110.3915616000013,None,110.3915616000013,None,112.4894595100166,None,112.4894595100166,None,112.4894595100166,None,,,,,,,,,,,,,,019,2022-05-13_15h30.21.601,Main,2022.1.1,58.891358397706654,
neutral,positive,2,k,k,,,,,0,2,2,13,,,,,,,,,,,,,prac,2,2,2,positive,neutral,k,k,1,0.6815567000012379,112.50479620002443,113.5060397000052,113.48933700000634,None,112.50479620002443,None,112.50479620002443,None,112.50479620002443,None,114.17271591000899,None,114.17271591000899,None,114.17271591000899,None,,,,,,,,,,,,,,019,2022-05-13_15h30.21.601,Main,2022.1.1,58.891358397706654,
negative,positive,2,j,l,,,,,0,3,3,15,,,,,,,,,,,,,prac,2,2,2,positive,negative,l,l,1,0.8663129999767989,114.17583190000732,115.17264900001464,115.17264900001464,None,114.17583190000732,None,114.17583190000732,None,114.17583190000732,None,116.04033481000515,None,116.04033481000515,None,116.04033481000515,None,,,,,,,,,,,,,,019,2022-05-13_15h30.21.601,Main,2022.1.1,58.891358397706654,
negative,neutral,2,j,l,,,,,0,4,4,12,,,,,,,,,,,,,prac,2,2,2,neutral,negative,l,l,1,0.6515841000073124,116.0545654000016,117.05592650000472,117.03926990000764,None,116.0545654000016,None,116.0545654000016,None,116.0545654000016,None,117.68929231000656,None,117.68929231000656,None,117.68929231000656,None,,,,,,,,,,,,,,019,2022-05-13_15h30.21.601,Main,2022.1.1,58.891358397706654,
negative,negative,2,j,l,,,,,0,5,5,9,,,,,,,,,,,,,prac,1,1,2,negative,negative,l,l,1,0.6307380000071134,117.70802730001742,118.72264610001002,118.68924430001061,None,117.70802730001742,None,117.70802730001742,None,117.70802730001742,None,119.32528701002302,None,119.32528701002302,None,119.32528701002302,None,,,,,,,,,,,,,,019,2022-05-13_15h30.21.601,Main,2022.1.1,58.891358397706654,
neutral,positive,1,k,k,,,,,0,6,6,4,,,,,,,,,,,,,prac,1,1,1,positive,neutral,k,k,1,0.6626819999946747,119.3388826000155,120.33919040000183,120.32252710001194,None,119.3388826000155,None,119.3388826000155,None,119.3388826000155,None,120.98927291002182,None,120.98927291002182,None,120.98927291002182,None,,,,,,,,,,,,,,019,2022-05-13_15h30.21.601,Main,2022.1.1,58.891358397706654,
negative,negative,1,j,l,,,,,0,7,7,0,,,,,,,,,,,,,prac,2,2,1,negative,negative,l,l,1,0.881973299983656,120.99228950001998,121.98919030002435,121.97563280002214,None,120.99228950001998,None,120.99228950001998,None,120.99228950001998,None,122.87253031000436,None,122.87253031000436,None,122.87253031000436,None,,,,,,,,,,,,,,019,2022-05-13_15h30.21.601,Main,2022.1.1,58.891358397706654,
positive,positive,1,l,j,,,,,0,8,8,2,,,,,,,,,,,,,prac,1,1,1,positive,positive,j,j,1,0.765176299988525,122.88915630002157,123.89194540001336,123.87248790002195,None,122.88915630002157,None,122.88915630002157,None,122.88915630002157,None,124.63915621000051,None,124.63915621000051,None,124.63915621000051,None,,,,,,,,,,,,,,019,2022-05-13_15h30.21.601,Main,2022.1.1,58.891358397706654,
positive,neutral,2,l,j,,,,,0,9,9,17,,,,,,,,,,,,,prac,1,1,2,neutral,positive,j,j,1,0.6812221000145655,124.65843619999941,125.67534330001217,125.63917480001692,None,124.65843619999941,None,124.65843619999941,None,124.65843619999941,None,126.32265050999995,None,126.32265050999995,None,126.32265050999995,None,,,,,,,,,,,,,,019,2022-05-13_15h30.21.601,Main,2022.1.1,58.891358397706654,
positive,positive,2,l,j,,,,,0,10,10,11,,,,,,,,,,,,,prac,2,2,2,positive,positive,j,j,1,0.5821818999829702,126.33913350000512,127.33906779999961,127.30858189999708,None,126.33913350000512,None,126.33913350000512,None,126.33913350000512,None,127.90608241001318,None,127.90608241001318,None,127.90608241001318,None,,,,,,,,,,,,,,019,2022-05-13_15h30.21.601,Main,2022.1.1,58.891358397706654,
negative,positive,1,j,l,,,,,0,11,11,6,,,,,,,,,,,,,prac,1,1,1,positive,negative,l,l,1,0.7314840999897569,127.91662580001866,128.92235320000327,128.90863099999842,None,127.91662580001866,None,127.91662580001866,None,127.91662580001866,None,129.63877731002577,None,129.63877731002577,None,129.63877731002577,None,,,,,,,,,,,,,,019,2022-05-13_15h30.21.601,Main,2022.1.1,58.891358397706654,
neutral,neutral,2,k,k,,,,,0,12,12,10,,,,,,,,,,,,,prac,2,2,2,neutral,neutral,k,k,1,0.565432300005341,129.64524600000004,130.65568240001448,130.6252409000008,None,129.64524600000004,None,129.64524600000004,None,129.64524600000004,None,131.20565581001284,None,131.20565581001284,None,131.20565581001284,None,,,,,,,,,,,,,,019,2022-05-13_15h30.21.601,Main,2022.1.1,58.891358397706654,
positive,negative,2,l,j,,,,,0,13,13,14,,,,,,,,,,,,,prac,1,1,2,negative,positive,j,j,1,0.6318444000207819,131.20849270001054,132.2223273999989,132.20852240000386,None,131.20849270001054,None,131.20849270001054,None,131.20849270001054,None,132.8389556099981,None,132.8389556099981,None,132.8389556099981,None,,,,,,,,,,,,,,019,2022-05-13_15h30.21.601,Main,2022.1.1,58.891358397706654,
neutral,negative,1,k,k,,,,,0,14,14,7,,,,,,,,,,,,,prac,2,2,1,negative,neutral,k,k,1,0.7990610999986529,132.8520727000141,133.85561920001055,133.82229260000167,None,132.8520727000141,None,132.8520727000141,None,132.8520727000141,None,134.63892331000244,None,134.63892331000244,None,134.63892331000244,None,,,,,,,,,,,,,,019,2022-05-13_15h30.21.601,Main,2022.1.1,58.891358397706654,
negative,neutral,1,j,l,,,,,0,15,15,3,,,,,,,,,,,,,prac,1,1,1,neutral,negative,l,l,1,0.7356000000145286,134.6428221000242,135.65557670002454,135.63891320000403,None,134.6428221000242,None,134.6428221000242,None,134.6428221000242,None,136.3723150100239,None,136.3723150100239,None,136.3723150100239,None,,,,,,,,,,,,,,019,2022-05-13_15h30.21.601,Main,2022.1.1,58.891358397706654,
positive,neutral,1,l,j,,,,,0,16,16,8,,,,,,,,,,,,,prac,1,1,1,neutral,positive,j,j,1,0.810956500004977,136.38479170002392,137.38885940000182,137.37218669999857,None,136.38479170002392,None,136.38479170002392,None,136.38479170002392,None,138.18886211001956,None,138.18886211001956,None,138.18886211001956,None,,,,,,,,,,,,,,019,2022-05-13_15h30.21.601,Main,2022.1.1,58.891358397706654,
neutral,neutral,1,k,k,,,,,0,17,17,1,,,,,,,,,,,,,prac,2,2,1,neutral,neutral,k,k,1,0.7153391000174452,138.20468530000653,139.20554700001958,139.18886460000067,None,138.20468530000653,None,138.20468530000653,None,138.20468530000653,None,139.9054899100127,None,139.9054899100127,None,139.9054899100127,None,,,,,,,,,,,,,,019,2022-05-13_15h30.21.601,Main,2022.1.1,58.891358397706654,
neutral,positive,2,k,k,,,,,1,0,18,13,,,,,,,,,,,,,prac,1,1,2,positive,neutral,k,k,1,0.6150408999819774,139.92526800002088,140.92210880000493,140.90828650002368,None,139.92526800002088,None,139.92526800002088,None,139.92526800002088,None,141.52192131001794,None,141.52192131001794,None,141.52192131001794,None,,,,,,,,,,,,,,019,2022-05-13_15h30.21.601,Main,2022.1.1,58.891358397706654,
positive,positive,2,l,j,,,,,1,1,19,11,,,,,,,,,,,,,prac,1,1,2,positive,positive,j,j,1,0.633479600015562,141.52490170000237,142.5387730000075,142.52216350001981,None,141.52490170000237,None,141.52490170000237,None,141.52490170000237,None,143.1555057100166,None,143.1555057100166,None,143.1555057100166,None,,,,,,,,,,,,,,019,2022-05-13_15h30.21.601,Main,2022.1.1,58.891358397706654,
negative,positive,1,j,l,,,,,1,2,20,6,,,,,,,,,,,,,prac,2,2,1,positive,negative,l,l,1,0.6807837999949697,143.16765730001498,144.17208540000138,144.15831510000862,None,143.16765730001498,None,143.16765730001498,None,143.16765730001498,None,144.83871131000052,None,144.83871131000052,None,144.83871131000052,None,,,,,,,,,,,,,,019,2022-05-13_15h30.21.601,Main,2022.1.1,58.891358397706654,
positive,neutral,1,l,j,,,,,1,3,21,8,,,,,,,,,,,,,prac,1,1,1,neutral,positive,j,j,1,0.6984395000035875,144.85541690001264,145.8553914000222,145.8387136000092,None,144.85541690001264,None,144.85541690001264,None,144.85541690001264,None,146.53866561001342,None,146.53866561001342,None,146.53866561001342,None,,,,,,,,,,,,,,019,2022-05-13_15h30.21.601,Main,2022.1.1,58.891358397706654,
neutral,negative,1,k,k,,,,,1,4,22,7,,,,,,,,,,,,,prac,1,1,1,negative,neutral,k,k,1,0.5822530000004917,146.54413470000145,147.55822720000288,147.5220101000159,None,146.54413470000145,None,146.54413470000145,None,146.54413470000145,None,148.12207511000162,None,148.12207511000162,None,148.12207511000162,None,,,,,,,,,,,,,,019,2022-05-13_15h30.21.601,Main,2022.1.1,58.891358397706654,
positive,negative,2,l,j,,,,,1,5,23,14,,,,,,,,,,,,,prac,1,1,2,negative,positive,j,j,1,0.6483305000001565,148.12514340001508,149.12198000002536,149.12198000002536,None,148.12514340001508,None,148.12514340001508,None,148.12514340001508,None,149.77202601000027,None,149.77202601000027,None,149.77202601000027,None,,,,,,,,,,,,,,019,2022-05-13_15h30.21.601,Main,2022.1.1,58.891358397706654,
neutral,neutral,2,k,k,,,,,1,6,24,10,,,,,,,,,,,,,prac,2,2,2,neutral,neutral,k,k,1,0.648741200013319,149.78864159999648,150.7886154000007,150.77195460000075,None,149.78864159999648,None,149.78864159999648,None,149.78864159999648,None,151.42209461002204,None,151.42209461002204,None,151.42209461002204,None,,,,,,,,,,,,,,019,2022-05-13_15h30.21.601,Main,2022.1.1,58.891358397706654,
negative,neutral,1,j,l,,,,,1,7,25,3,,,,,,,,,,,,,prac,2,2,1,neutral,negative,l,l,1,0.6318711000203621,151.4270379000227,152.43854800000554,152.42188130001887,None,151.4270379000227,None,151.4270379000227,None,151.4270379000227,None,153.05527711001633,None,153.05527711001633,None,153.05527711001633,None,,,,,,,,,,,,,,019,2022-05-13_15h30.21.601,Main,2022.1.1,58.891358397706654,
neutral,positive,1,k,k,,,,,1,8,26,4,,,,,,,,,,,,,prac,1,1,1,positive,neutral,k,k,1,0.615252599993255,153.0582639000204,154.071887099999,154.055262400012,None,153.0582639000204,None,153.0582639000204,None,153.0582639000204,None,154.67185171000602,None,154.67185171000602,None,154.67185171000602,None,,,,,,,,,,,,,,019,2022-05-13_15h30.21.601,Main,2022.1.1,58.891358397706654,
negative,positive,2,j,l,,,,,1,9,27,15,,,,,,,,,,,,,prac,1,1,2,positive,negative,l,l,1,0.7652770999993663,154.67538120000972,155.6885714000091,155.6746955999988,None,154.67538120000972,None,154.67538120000972,None,154.67538120000972,None,156.438460710019,None,156.438460710019,None,156.438460710019,None,,,,,,,,,,,,,,019,2022-05-13_15h30.21.601,Main,2022.1.1,58.891358397706654,
positive,positive,1,l,j,,,,,1,10,28,2,,,,,,,,,,,,,prac,2,2,1,positive,positive,j,j,1,0.5476780000026338,156.444241899997,157.4579795000027,157.4384542000189,None,156.444241899997,None,156.444241899997,None,156.444241899997,None,157.98846231001954,None,157.98846231001954,None,157.98846231001954,None,,,,,,,,,,,,,,019,2022-05-13_15h30.21.601,Main,2022.1.1,58.891358397706654,
negative,negative,1,j,l,,,,,1,11,29,0,,,,,,,,,,,,,prac,1,1,1,negative,negative,l,l,1,0.6837363000086043,157.991780500015,159.007868900022,158.9912571000168,None,157.991780500015,None,157.991780500015,None,157.991780500015,None,159.6728256100003,None,159.6728256100003,None,159.6728256100003,None,,,,,,,,,,,,,,019,2022-05-13_15h30.21.601,Main,2022.1.1,58.891358397706654,
positive,negative,1,l,j,,,,,1,12,30,5,,,,,,,,,,,,,prac,2,2,1,negative,positive,j,j,1,0.746893799980171,159.67906560000847,160.68842690001475,160.67174790002173,None,159.67906560000847,None,159.67906560000847,None,159.67906560000847,None,161.4217586100247,None,161.4217586100247,None,161.4217586100247,None,,,,,,,,,,,,,,019,2022-05-13_15h30.21.601,Main,2022.1.1,58.891358397706654,
positive,neutral,2,l,j,,,,,1,13,31,17,,,,,,,,,,,,,prac,2,2,2,neutral,positive,j,j,1,0.6321616000204813,161.42456800001673,162.4383569000056,162.42174920000252,None,161.42456800001673,None,161.42456800001673,None,161.42456800001673,None,163.05507501001995,None,163.05507501001995,None,163.05507501001995,None,,,,,,,,,,,,,,019,2022-05-13_15h30.21.601,Main,2022.1.1,58.891358397706654,
neutral,neutral,1,k,k,,,,,1,14,32,1,,,,,,,,,,,,,prac,1,1,1,neutral,neutral,k,k,1,0.7988114000181668,163.05822540001827,164.07168510000338,164.05500220000977,None,163.05822540001827,None,163.05822540001827,None,163.05822540001827,None,164.85505981000898,None,164.85505981000898,None,164.85505981000898,None,,,,,,,,,,,,,,019,2022-05-13_15h30.21.601,Main,2022.1.1,58.891358397706654,
neutral,negative,2,k,k,,,,,1,15,33,16,,,,,,,,,,,,,prac,2,2,2,negative,neutral,k,k,1,0.7816929999971762,164.85829190001823,165.8716412000067,165.838310000021,None,164.85829190001823,None,164.85829190001823,None,164.85829190001823,None,166.638282310011,None,166.638282310011,None,166.638282310011,None,,,,,,,,,,,,,,019,2022-05-13_15h30.21.601,Main,2022.1.1,58.891358397706654,
negative,negative,2,j,l,,,,,1,16,34,9,,,,,,,,,,,,,prac,1,1,2,negative,negative,l,l,1,0.650080599996727,166.6412382000126,167.65494970002328,167.6382760000124,None,166.6412382000126,None,166.6412382000126,None,166.6412382000126,None,168.28974711001212,None,168.28974711001212,None,168.28974711001212,None,,,,,,,,,,,,,,019,2022-05-13_15h30.21.601,Main,2022.1.1,58.891358397706654,
negative,neutral,2,j,l,,,,,1,17,35,12,,,,,,,,,,,,,prac,1,1,2,neutral,negative,l,l,1,0.6808879000018351,168.29593490000116,169.30497450000257,169.28826550001395,None,168.29593490000116,None,168.29593490000116,None,168.29593490000116,None,169.97160811000214,None,169.97160811000214,None,169.97160811000214,None,,,,,,,,,,,,,,019,2022-05-13_15h30.21.601,Main,2022.1.1,58.891358397706654,
,,,,,,,,,,,,,,,,,,,,,,,,,,,,,,,,,,,,,,,,,,,,,,,,,,,169.9715634000022,None,space,7.57862399998703,,,,,,,,,,019,2022-05-13_15h30.21.601,Main,2022.1.1,58.891358397706654,
,,,,,,,,,,,,,,,,,,,,,,,,,,,,,,,,,,,,,,,,,,,,,,,,,,,,,,,0.35555556,-0.087037034,0,0,0,0.011068110004998744,None,,,019,2022-05-13_15h30.21.601,Main,2022.1.1,58.891358397706654,
positive,negative,1,l,j,,,,,,,,,0,0,0,5,,,,,,,177.5714615000179,None,main,1,1,1,negative,positive,j,j,1,0.7584669000061695,179.58783740000217,180.58799820000422,180.57132820002153,None,179.58783740000217,None,179.58783740000217,None,179.58783740000217,None,181.33799841001456,None,181.33799841001456,None,181.33799841001456,None,,,,,,,,,,,,,,019,2022-05-13_15h30.21.601,Main,2022.1.1,58.891358397706654,
positive,negative,2,l,j,,,,,,,,,0,1,1,14,,,,,,,,,main,2,2,2,negative,positive,j,j,1,0.5823999999847729,181.3430393000017,182.35745260000112,182.34090470001684,None,181.3430393000017,None,181.3430393000017,None,181.3430393000017,None,182.9214130100125,None,182.9214130100125,None,182.9214130100125,None,,,,,,,,,,,,,,019,2022-05-13_15h30.21.601,Main,2022.1.1,58.891358397706654,
negative,neutral,2,j,l,,,,,,,,,0,2,2,12,,,,,,,,,main,2,2,2,neutral,negative,l,l,1,0.7287217999983113,182.92717510001967,183.93793730001198,183.92128260000027,None,182.92717510001967,None,182.92717510001967,None,182.92717510001967,None,184.65456361000253,None,184.65456361000253,None,184.65456361000253,None,,,,,,,,,,,,,,019,2022-05-13_15h30.21.601,Main,2022.1.1,58.891358397706654,
positive,neutral,1,l,j,,,,,,,,,0,3,3,8,,,,,,,,,main,1,1,1,neutral,positive,j,j,1,0.831510599993635,184.66069780002,185.6717643000011,185.65454770001816,None,184.66069780002,None,184.66069780002,None,184.66069780002,None,186.48788841001516,None,186.48788841001516,None,186.48788841001516,None,,,,,,,,,,,,,,019,2022-05-13_15h30.21.601,Main,2022.1.1,58.891358397706654,
neutral,negative,1,k,k,,,,,,,,,0,4,4,7,,,,,,,,,main,2,2,1,negative,neutral,k,k,1,0.7485572999867145,186.49196340001072,187.50724269999773,187.48787179999636,None,186.49196340001072,None,186.49196340001072,None,186.49196340001072,None,188.23785611000204,None,188.23785611000204,None,188.23785611000204,None,,,,,,,,,,,,,,019,2022-05-13_15h30.21.601,Main,2022.1.1,58.891358397706654,
negative,positive,2,j,l,,,,,,,,,0,5,5,15,,,,,,,,,main,2,2,2,positive,negative,l,l,1,0.748750700004166,188.24218140001176,189.25450999999885,189.2378427000076,None,188.24218140001176,None,188.24218140001176,None,188.24218140001176,None,189.987892210015,None,189.987892210015,None,189.987892210015,None,,,,,,,,,,,,,,019,2022-05-13_15h30.21.601,Main,2022.1.1,58.891358397706654,
negative,negative,1,j,l,,,,,,,,,0,6,6,0,,,,,,,,,main,2,2,1,negative,negative,l,l,1,0.6969939000264276,189.99228030000813,191.0072767000238,190.98779569999897,None,189.99228030000813,None,189.99228030000813,None,189.99228030000813,None,191.68775531000284,None,191.68775531000284,None,191.68775531000284,None,,,,,,,,,,,,,,019,2022-05-13_15h30.21.601,Main,2022.1.1,58.891358397706654,
negative,positive,1,j,l,,,,,,,,,0,7,7,6,,,,,,,,,main,2,2,1,positive,negative,l,l,1,0.5983935999975074,191.69200249999994,192.704538400023,192.68780960000004,None,191.69200249999994,None,191.69200249999994,None,191.69200249999994,None,193.28774451001374,None,193.28774451001374,None,193.28774451001374,None,,,,,,,,,,,,,,019,2022-05-13_15h30.21.601,Main,2022.1.1,58.891358397706654,
neutral,negative,2,k,k,,,,,,,,,0,8,8,16,,,,,,,,,main,1,1,2,negative,neutral,k,k,1,0.548079800006235,193.29096290000598,194.28773840001668,194.28773840001668,None,193.29096290000598,None,193.29096290000598,None,193.29096290000598,None,194.83771461000725,None,194.83771461000725,None,194.83771461000725,None,,,,,,,,,,,,,,019,2022-05-13_15h30.21.601,Main,2022.1.1,58.891358397706654,
positive,positive,1,l,j,,,,,,,,,0,9,9,2,,,,,,,,,main,1,1,1,positive,positive,j,j,1,0.6650994000083301,194.84111970002414,195.83770470001036,195.82386319999932,None,194.84111970002414,None,194.84111970002414,None,194.84111970002414,None,196.50434840999952,None,196.50434840999952,None,196.50434840999952,None,,,,,,,,,,,,,,019,2022-05-13_15h30.21.601,Main,2022.1.1,58.891358397706654,
neutral,neutral,2,k,k,,,,,,,,,0,10,10,10,,,,,,,,,main,2,2,2,neutral,neutral,k,k,1,0.6480938000022434,196.5075698000146,197.52077820000704,197.5072035000194,None,196.5075698000146,None,196.5075698000146,None,196.5075698000146,None,198.15409111001355,None,198.15409111001355,None,198.15409111001355,None,,,,,,,,,,,,,,019,2022-05-13_15h30.21.601,Main,2022.1.1,58.891358397706654,
neutral,positive,1,k,k,,,,,,,,,0,11,11,4,,,,,,,,,main,1,1,1,positive,neutral,k,k,1,0.8153909999819007,198.16023400000995,199.17093950000708,199.15714090000256,None,198.16023400000995,None,198.16023400000995,None,198.16023400000995,None,199.97101201000334,None,199.97101201000334,None,199.97101201000334,None,,,,,,,,,,,,,,019,2022-05-13_15h30.21.601,Main,2022.1.1,58.891358397706654,
neutral,neutral,1,k,k,,,,,,,,,0,12,12,1,,,,,,,,,main,1,1,1,neutral,neutral,k,k,1,0.5840117000043392,199.9740821000014,200.98759580001934,200.97093229999882,None,199.9740821000014,None,199.9740821000014,None,199.9740821000014,None,201.55656371000515,None,201.55656371000515,None,201.55656371000515,None,,,,,,,,,,,,,,019,2022-05-13_15h30.21.601,Main,2022.1.1,58.891358397706654,
negative,neutral,1,j,l,,,,,,,,,0,13,13,3,,,,,,,,,main,2,2,1,neutral,negative,l,l,1,0.5793853999930434,201.56141990001197,202.57087100000354,202.55711370002246,None,201.56141990001197,None,201.56141990001197,None,201.56141990001197,None,203.13752461000405,None,203.13752461000405,None,203.13752461000405,None,,,,,,,,,,,,,,019,2022-05-13_15h30.21.601,Main,2022.1.1,58.891358397706654,
positive,positive,2,l,j,,,,,,,,,0,14,14,11,,,,,,,,,main,1,1,2,positive,positive,j,j,1,0.6661017000151332,203.14100960001815,204.15700920001836,204.1375270000135,None,203.14100960001815,None,203.14100960001815,None,203.14100960001815,None,204.8041794100107,None,204.8041794100107,None,204.8041794100107,None,,,,,,,,,,,,,,019,2022-05-13_15h30.21.601,Main,2022.1.1,58.891358397706654,
positive,neutral,2,l,j,,,,,,,,,0,15,15,17,,,,,,,,,main,2,2,2,neutral,positive,j,j,1,0.5971204999950714,204.80846739999834,205.82082620001165,205.80423530002008,None,204.80846739999834,None,204.80846739999834,None,204.80846739999834,None,206.40417111001153,None,206.40417111001153,None,206.40417111001153,None,,,,,,,,,,,,,,019,2022-05-13_15h30.21.601,Main,2022.1.1,58.891358397706654,
negative,negative,2,j,l,,,,,,,,,0,16,16,9,,,,,,,,,main,1,1,2,negative,negative,l,l,1,0.7317148000001907,206.40729950001696,207.4236543000152,207.4070528000011,None,206.40729950001696,None,206.40729950001696,None,206.40729950001696,None,208.13744511000988,None,208.13744511000988,None,208.13744511000988,None,,,,,,,,,,,,,,019,2022-05-13_15h30.21.601,Main,2022.1.1,58.891358397706654,
neutral,positive,2,k,k,,,,,,,,,0,17,17,13,,,,,,,,,main,2,2,2,positive,neutral,k,k,1,0.6983959999924991,208.1408356000029,209.13741710002068,209.13741710002068,None,208.1408356000029,None,208.1408356000029,None,208.1408356000029,None,209.8374966100062,None,209.8374966100062,None,209.8374966100062,None,,,,,,,,,,,,,,019,2022-05-13_15h30.21.601,Main,2022.1.1,58.891358397706654,
negative,positive,1,j,l,,,,,,,,,1,0,18,6,,,,,,,,,main,2,2,1,positive,negative,l,l,1,0.6983920999919064,209.84099090000382,210.85405360002187,210.84027310000965,None,209.84099090000382,None,209.84099090000382,None,209.84099090000382,None,211.53742631000642,None,211.53742631000642,None,211.53742631000642,None,,,,,,,,,,,,,,019,2022-05-13_15h30.21.601,Main,2022.1.1,58.891358397706654,
neutral,positive,2,k,k,,,,,,,,,1,1,19,13,,,,,,,,,main,1,1,2,positive,neutral,k,k,1,0.531647099996917,211.54080539999995,212.55683120002504,212.53738560000784,None,211.54080539999995,None,211.54080539999995,None,211.54080539999995,None,213.07079151001818,None,213.07079151001818,None,213.07079151001818,None,,,,,,,,,,,,,,019,2022-05-13_15h30.21.601,Main,2022.1.1,58.891358397706654,
neutral,positive,1,k,k,,,,,,,,,1,2,20,4,,,,,,,,,main,2,2,1,positive,neutral,k,k,1,0.581882600003155,213.07421420002356,214.08732489999966,214.07066610001493,None,213.07421420002356,None,213.07421420002356,None,213.07421420002356,None,214.65395401001734,None,214.65395401001734,None,214.65395401001734,None,,,,,,,,,,,,,,019,2022-05-13_15h30.21.601,Main,2022.1.1,58.891358397706654,
positive,positive,1,l,j,,,,,,,,,1,3,21,2,,,,,,,,,main,2,2,1,positive,positive,j,j,1,0.7648278000124265,214.65844880000805,215.6706070000073,215.65395340000396,None,214.65844880000805,None,214.65844880000805,None,214.65844880000805,None,216.42167761001912,None,216.42167761001912,None,216.42167761001912,None,,,,,,,,,,,,,,019,2022-05-13_15h30.21.601,Main,2022.1.1,58.891358397706654,
positive,negative,1,l,j,,,,,,,,,1,4,22,5,,,,,,,,,main,2,2,1,negative,positive,j,j,1,0.6640934000024572,216.42766000001575,217.43727300001774,217.42061660002219,None,216.42766000001575,None,216.42766000001575,None,216.42766000001575,None,218.08735481000332,None,218.08735481000332,None,218.08735481000332,None,,,,,,,,,,,,,,019,2022-05-13_15h30.21.601,Main,2022.1.1,58.891358397706654,
neutral,negative,2,k,k,,,,,,,,,1,5,23,16,,,,,,,,,main,1,1,2,negative,neutral,k,k,1,0.5814252000127453,218.09130390000064,219.10397450000164,219.0872125000169,None,218.09130390000064,None,218.09130390000064,None,218.09130390000064,None,219.67051731000248,None,219.67051731000248,None,219.67051731000248,None,,,,,,,,,,,,,,019,2022-05-13_15h30.21.601,Main,2022.1.1,58.891358397706654,
positive,negative,2,l,j,,,,,,,,,1,6,24,14,,,,,,,,,main,1,1,2,negative,positive,j,j,1,0.681586899998365,219.673583900003,220.68716840000707,220.67050420001033,None,219.673583900003,None,219.673583900003,None,219.673583900003,None,221.35384201002017,None,221.35384201002017,None,221.35384201002017,None,,,,,,,,,,,,,,019,2022-05-13_15h30.21.601,Main,2022.1.1,58.891358397706654,
negative,neutral,2,j,l,,,,,,,,,1,7,25,12,,,,,,,,,main,2,2,2,neutral,negative,l,l,1,0.6157628000073601,221.35900930000935,222.37337590000243,222.35390430002008,None,221.35900930000935,None,221.35900930000935,None,221.35900930000935,None,222.9706020100246,None,222.9706020100246,None,222.9706020100246,None,,,,,,,,,,,,,,019,2022-05-13_15h30.21.601,Main,2022.1.1,58.891358397706654,
negative,negative,2,j,l,,,,,,,,,1,8,26,9,,,,,,,,,main,1,1,2,negative,negative,l,l,1,0.6144604000146501,222.97431250000955,223.98714120002114,223.9704835000157,None,222.97431250000955,None,222.97431250000955,None,222.97431250000955,None,224.58711851000845,None,224.58711851000845,None,224.58711851000845,None,,,,,,,,,,,,,,019,2022-05-13_15h30.21.601,Main,2022.1.1,58.891358397706654,
neutral,neutral,2,k,k,,,,,,,,,1,9,27,10,,,,,,,,,main,2,2,2,neutral,neutral,k,k,1,0.6689260999846738,224.5905485000112,225.58709770001587,225.58709770001587,None,224.5905485000112,None,224.5905485000112,None,224.5905485000112,None,226.2566876099998,None,226.2566876099998,None,226.2566876099998,None,,,,,,,,,,,,,,019,2022-05-13_15h30.21.601,Main,2022.1.1,58.891358397706654,
negative,neutral,1,j,l,,,,,,,,,1,10,28,3,,,,,,,,,main,2,2,1,neutral,negative,l,l,1,0.6778160000103526,226.26061470000423,227.27312359999632,227.25370440000552,None,226.26061470000423,None,226.26061470000423,None,226.26061470000423,None,227.93709601001757,None,227.93709601001757,None,227.93709601001757,None,,,,,,,,,,,,,,019,2022-05-13_15h30.21.601,Main,2022.1.1,58.891358397706654,
negative,negative,1,j,l,,,,,,,,,1,11,29,0,,,,,,,,,main,1,1,1,negative,negative,l,l,1,0.564747999975225,227.94032150000567,228.9565984000219,228.93709110000054,None,227.94032150000567,None,227.94032150000567,None,227.94032150000567,None,229.50366331002152,None,229.50366331002152,None,229.50366331002152,None,,,,,,,,,,,,,,019,2022-05-13_15h30.21.601,Main,2022.1.1,58.891358397706654,
negative,positive,2,j,l,,,,,,,,,1,12,30,15,,,,,,,,,main,1,1,2,positive,negative,l,l,1,0.6516164999920875,229.50667500001146,230.52034670001012,230.4870070000179,None,229.50667500001146,None,229.50667500001146,None,229.50667500001146,None,231.15659761000717,None,231.15659761000717,None,231.15659761000717,None,,,,,,,,,,,,,,019,2022-05-13_15h30.21.601,Main,2022.1.1,58.891358397706654,
neutral,negative,1,k,k,,,,,,,,,1,13,31,7,,,,,,,,,main,2,2,1,negative,neutral,k,k,1,0.5953129999979865,231.16077060002135,232.17036990000634,232.15370940000867,None,231.16077060002135,None,231.16077060002135,None,231.16077060002135,None,232.75359101002397,None,232.75359101002397,None,232.75359101002397,None,,,,,,,,,,,,,,019,2022-05-13_15h30.21.601,Main,2022.1.1,58.891358397706654,
positive,neutral,1,l,j,,,,,,,,,1,14,32,8,,,,,,,,,main,2,2,1,neutral,positive,j,j,1,0.7482972999860067,232.75689010001952,233.7702389000042,233.7536341000232,None,232.75689010001952,None,232.75689010001952,None,232.75689010001952,None,234.50362871002,None,234.50362871002,None,234.50362871002,None,,,,,,,,,,,,,,019,2022-05-13_15h30.21.601,Main,2022.1.1,58.891358397706654,
positive,positive,2,l,j,,,,,,,,,1,15,33,11,,,,,,,,,main,1,1,2,positive,positive,j,j,1,0.5151719000132289,234.50687500002095,235.52023520000512,235.4869038000179,None,234.50687500002095,None,234.50687500002095,None,234.50687500002095,None,236.02027111002536,None,236.02027111002536,None,236.02027111002536,None,,,,,,,,,,,,,,019,2022-05-13_15h30.21.601,Main,2022.1.1,58.891358397706654,
positive,neutral,2,l,j,,,,,,,,,1,16,34,17,,,,,,,,,main,2,2,2,neutral,positive,j,j,1,0.5826000999950338,236.02366690000053,237.03686700001708,237.02021100002457,None,236.02366690000053,None,236.02366690000053,None,236.02366690000053,None,237.60359450999823,None,237.60359450999823,None,237.60359450999823,None,,,,,,,,,,,,,,019,2022-05-13_15h30.21.601,Main,2022.1.1,58.891358397706654,
neutral,neutral,1,k,k,,,,,,,,,1,17,35,1,,,,,,,,,main,2,2,1,neutral,neutral,k,k,1,0.4971685000055004,237.60758730000816,238.62023430000409,238.60354920002283,None,237.60758730000816,None,237.60758730000816,None,237.60758730000816,None,239.10349881002622,None,239.10349881002622,None,239.10349881002622,None,,,,,,,,,,,,,,019,2022-05-13_15h30.21.601,Main,2022.1.1,58.891358397706654,
positive,positive,2,l,j,,,,,,,,,2,0,36,11,,,,,,,,,main,2,2,2,positive,positive,j,j,1,0.6651297000062186,239.10671490000095,240.1201445000188,240.1063245999976,None,239.10671490000095,None,239.10671490000095,None,239.10671490000095,None,240.77013871000673,None,240.77013871000673,None,240.77013871000673,None,,,,,,,,,,,,,,019,2022-05-13_15h30.21.601,Main,2022.1.1,58.891358397706654,
neutral,negative,1,k,k,,,,,,,,,2,1,37,7,,,,,,,,,main,2,2,1,negative,neutral,k,k,1,0.7318349000124726,240.77413930001785,241.78676430002088,241.77008010001737,None,240.77413930001785,None,240.77413930001785,None,240.77413930001785,None,242.50343321001566,None,242.50343321001566,None,242.50343321001566,None,,,,,,,,,,,,,,019,2022-05-13_15h30.21.601,Main,2022.1.1,58.891358397706654,
neutral,positive,2,k,k,,,,,,,,,2,2,38,13,,,,,,,,,main,2,2,2,positive,neutral,k,k,1,0.5818160000198986,242.50745250002365,243.52007140000933,243.50628120001056,None,242.50745250002365,None,242.50745250002365,None,242.50745250002365,None,244.08672711002583,None,244.08672711002583,None,244.08672711002583,None,,,,,,,,,,,,,,019,2022-05-13_15h30.21.601,Main,2022.1.1,58.891358397706654,
positive,neutral,1,l,j,,,,,,,,,2,3,39,8,,,,,,,,,main,2,2,1,neutral,positive,j,j,1,0.631660799990641,244.0900580000016,245.08671460000915,245.08671460000915,None,244.0900580000016,None,244.0900580000016,None,244.0900580000016,None,245.7200773100165,None,245.7200773100165,None,245.7200773100165,None,,,,,,,,,,,,,,019,2022-05-13_15h30.21.601,Main,2022.1.1,58.891358397706654,
negative,negative,1,j,l,,,,,,,,,2,4,40,0,,,,,,,,,main,2,2,1,negative,negative,l,l,1,0.5818190999852959,245.72433320002165,246.73664640000788,246.71998580000945,None,245.72433320002165,None,245.72433320002165,None,245.72433320002165,None,247.3033052100189,None,247.3033052100189,None,247.3033052100189,None,,,,,,,,,,,,,,019,2022-05-13_15h30.21.601,Main,2022.1.1,58.891358397706654,
neutral,positive,1,k,k,,,,,,,,,2,5,41,4,,,,,,,,,main,1,1,1,positive,neutral,k,k,1,0.7651384999917354,247.3067321999988,248.32283310001367,248.30338470000424,None,247.3067321999988,None,247.3067321999988,None,247.3067321999988,None,249.06994331002062,None,249.06994331002062,None,249.06994331002062,None,,,,,,,,,,,,,,019,2022-05-13_15h30.21.601,Main,2022.1.1,58.891358397706654,
positive,positive,1,l,j,,,,,,,,,2,6,42,2,,,,,,,,,main,2,2,1,positive,positive,j,j,1,0.6159051999857184,249.07374430002528,250.0866019000241,250.07287090001046,None,249.07374430002528,None,249.07374430002528,None,249.07374430002528,None,250.6865857100027,None,250.6865857100027,None,250.6865857100027,None,,,,,,,,,,,,,,019,2022-05-13_15h30.21.601,Main,2022.1.1,58.891358397706654,
negative,neutral,2,j,l,,,,,,,,,2,7,43,12,,,,,,,,,main,1,1,2,neutral,negative,l,l,1,0.6968191000050865,250.69060540001374,251.70330540000577,251.6865717000037,None,250.69060540001374,None,250.69060540001374,None,250.69060540001374,None,252.3862823100033,None,252.3862823100033,None,252.3862823100033,None,,,,,,,,,,,,,,019,2022-05-13_15h30.21.601,Main,2022.1.1,58.891358397706654,
neutral,neutral,2,k,k,,,,,,,,,2,8,44,10,,,,,,,,,main,1,1,2,neutral,neutral,k,k,1,0.5983293000026606,252.40329370001564,253.40593570002238,253.38651370001025,None,252.40329370001564,None,252.40329370001564,None,252.40329370001564,None,253.98628041002377,None,253.98628041002377,None,253.98628041002377,None,,,,,,,,,,,,,,019,2022-05-13_15h30.21.601,Main,2022.1.1,58.891358397706654,
neutral,neutral,1,k,k,,,,,,,,,2,9,45,1,,,,,,,,,main,1,1,1,neutral,neutral,k,k,1,0.5152793999877758,253.99239530001068,255.00323450000724,254.96990980001283,None,253.99239530001068,None,253.99239530001068,None,253.99239530001068,None,255.50325811002114,None,255.50325811002114,None,255.50325811002114,None,,,,,,,,,,,,,,019,2022-05-13_15h30.21.601,Main,2022.1.1,58.891358397706654,
positive,negative,1,l,j,,,,,,,,,2,10,46,5,,,,,,,,,main,1,1,1,negative,positive,j,j,1,0.5995026000018697,255.50635270000203,256.5198141000001,256.5032141999982,None,255.50635270000203,None,255.50635270000203,None,255.50635270000203,None,257.10289691001236,None,257.10289691001236,None,257.10289691001236,None,,,,,,,,,,,,,,019,2022-05-13_15h30.21.601,Main,2022.1.1,58.891358397706654,
negative,neutral,1,j,l,,,,,,,,,2,11,47,3,,,,,,,,,main,1,1,1,neutral,negative,l,j,0,0.8167257999884896,257.1071238000004,258.1197784000251,258.10604740001145,None,257.1071238000004,None,257.1071238000004,None,257.1071238000004,None,258.919593300001,None,258.919593300001,None,258.919593300001,None,,,,,,,,,,,,,,019,2022-05-13_15h30.21.601,Main,2022.1.1,58.891358397706654,
positive,negative,2,l,j,,,,,,,,,2,12,48,14,,,,,,,,,main,2,2,2,negative,positive,j,j,1,0.7167393999989145,259.9253864000202,260.9363893000118,260.91972380000516,None,259.9253864000202,None,259.9253864000202,None,259.9253864000202,None,261.6364383099979,None,261.6364383099979,None,261.6364383099979,None,,,,,,,,,,,,,,019,2022-05-13_15h30.21.601,Main,2022.1.1,58.891358397706654,
neutral,negative,2,k,k,,,,,,,,,2,13,49,16,,,,,,,,,main,2,2,2,negative,neutral,k,k,1,0.6813821000105236,261.6398837000015,262.6558905999991,262.63636699999915,None,261.6398837000015,None,261.6398837000015,None,261.6398837000015,None,263.3197478100163,None,263.3197478100163,None,263.3197478100163,None,,,,,,,,,,,,,,019,2022-05-13_15h30.21.601,Main,2022.1.1,58.891358397706654,
negative,positive,1,j,l,,,,,,,,,2,14,50,6,,,,,,,,,main,1,1,1,positive,negative,l,l,1,0.6484891999862157,263.3229983000201,264.31972140001017,264.3058890000102,None,263.3229983000201,None,263.3229983000201,None,263.3229983000201,None,264.96966711000715,None,264.96966711000715,None,264.96966711000715,None,,,,,,,,,,,,,,019,2022-05-13_15h30.21.601,Main,2022.1.1,58.891358397706654,
negative,positive,2,j,l,,,,,,,,,2,15,51,15,,,,,,,,,main,1,1,2,positive,negative,l,l,1,0.6806695999985095,264.97375030000694,265.9862772000197,265.96962930000154,None,264.97375030000694,None,264.97375030000694,None,264.97375030000694,None,266.6529340100213,None,266.6529340100213,None,266.6529340100213,None,,,,,,,,,,,,,,019,2022-05-13_15h30.21.601,Main,2022.1.1,58.891358397706654,
negative,negative,2,j,l,,,,,,,,,2,16,52,9,,,,,,,,,main,2,2,2,negative,negative,l,l,1,0.6510753000038676,266.6561357000028,267.6529318999965,267.6529318999965,None,266.6561357000028,None,266.6561357000028,None,266.6561357000028,None,268.305679710026,None,268.305679710026,None,268.305679710026,None,,,,,,,,,,,,,,019,2022-05-13_15h30.21.601,Main,2022.1.1,58.891358397706654,
positive,neutral,2,l,j,,,,,,,,,2,17,53,17,,,,,,,,,main,1,1,2,neutral,positive,j,j,1,0.795472499972675,268.30838460000814,269.319550300017,269.30579810001655,None,268.30838460000814,None,268.30838460000814,None,268.30838460000814,None,270.1028678100236,None,270.1028678100236,None,270.1028678100236,None,,,,,,,,,,,,,,019,2022-05-13_15h30.21.601,Main,2022.1.1,58.891358397706654,
negative,negative,2,j,l,,,,,,,,,3,0,54,9,,,,,,,,,main,2,2,2,negative,negative,l,,0,0.900824799988186,270.106016500009,271.12233030001516,271.1057345000154,None,270.106016500009,None,270.106016500009,None,270.106016500009,None,272.0029114000208,None,272.0029114000208,None,272.0029114000208,None,,,,,,,,,,,,,,019,2022-05-13_15h30.21.601,Main,2022.1.1,58.891358397706654,
neutral,negative,2,k,k,,,,,,,,,3,1,55,16,,,,,,,,,main,2,2,2,negative,neutral,k,k,1,0.702468300005421,273.0071959000197,274.01946050001425,274.00565560001996,None,273.0071959000197,None,273.0071959000197,None,273.0071959000197,None,274.70276121000353,None,274.70276121000353,None,274.70276121000353,None,,,,,,,,,,,,,,019,2022-05-13_15h30.21.601,Main,2022.1.1,58.891358397706654,
negative,neutral,2,j,l,,,,,,,,,3,2,56,12,,,,,,,,,main,1,1,2,neutral,negative,l,l,1,0.6676729999890085,274.7061363000248,275.7194269000029,275.70562960000825,None,274.7061363000248,None,274.7061363000248,None,274.7061363000248,None,276.37221651000146,None,276.37221651000146,None,276.37221651000146,None,,,,,,,,,,,,,,019,2022-05-13_15h30.21.601,Main,2022.1.1,58.891358397706654,
negative,positive,2,j,l,,,,,,,,,3,3,57,15,,,,,,,,,main,2,2,2,positive,negative,l,l,1,0.681819000019459,276.37502700000186,277.3860505000048,277.36939150001854,None,276.37502700000186,None,276.37502700000186,None,276.37502700000186,None,278.05548221000646,None,278.05548221000646,None,278.05548221000646,None,,,,,,,,,,,,,,019,2022-05-13_15h30.21.601,Main,2022.1.1,58.891358397706654,
neutral,neutral,1,k,k,,,,,,,,,3,4,58,1,,,,,,,,,main,2,2,1,neutral,neutral,k,k,1,0.6777339999971446,278.0595350000076,279.0693518000189,279.0526945000165,None,278.0595350000076,None,278.0595350000076,None,278.0595350000076,None,279.73599871000334,None,279.73599871000334,None,279.73599871000334,None,,,,,,,,,,,,,,019,2022-05-13_15h30.21.601,Main,2022.1.1,58.891358397706654,
neutral,neutral,2,k,k,,,,,,,,,3,5,59,10,,,,,,,,,main,1,1,2,neutral,neutral,k,k,1,0.6344162999885157,279.73915980002494,280.73886610000045,280.73886610000045,None,279.73915980002494,None,279.73915980002494,None,279.73915980002494,None,281.37208771001025,None,281.37208771001025,None,281.37208771001025,None,,,,,,,,,,,,,,019,2022-05-13_15h30.21.601,Main,2022.1.1,58.891358397706654,
positive,positive,1,l,j,,,,,,,,,3,6,60,2,,,,,,,,,main,2,2,1,positive,positive,j,j,1,0.6623073999944609,281.3750750000181,282.38592950001475,282.37216400000034,None,281.3750750000181,None,281.3750750000181,None,281.3750750000181,None,283.03590161000903,None,283.03590161000903,None,283.03590161000903,None,,,,,,,,,,,,,,019,2022-05-13_15h30.21.601,Main,2022.1.1,58.891358397706654,
positive,negative,1,l,j,,,,,,,,,3,7,61,5,,,,,,,,,main,2,2,1,negative,positive,j,j,1,1.1652139999787323,283.03917600002023,284.0525709000067,284.0359516000026,None,283.03917600002023,None,283.03917600002023,None,283.03917600002023,None,285.2025432100025,None,285.2025432100025,None,285.2025432100025,None,,,,,,,,,,,,,,019,2022-05-13_15h30.21.601,Main,2022.1.1,58.891358397706654,
neutral,negative,1,k,k,,,,,,,,,3,8,62,7,,,,,,,,,main,2,2,1,negative,neutral,k,k,1,0.7216336999845225,285.2071091000107,286.2191929999972,286.2026192000194,None,285.2071091000107,None,285.2071091000107,None,285.2071091000107,None,286.9219530100207,None,286.9219530100207,None,286.9219530100207,None,,,,,,,,,,,,,,019,2022-05-13_15h30.21.601,Main,2022.1.1,58.891358397706654,
positive,neutral,1,l,j,,,,,,,,,3,9,63,8,,,,,,,,,main,2,2,1,neutral,positive,j,j,1,0.775981699989643,286.929913400003,287.9358017000195,287.919195399998,None,286.929913400003,None,286.929913400003,None,286.929913400003,None,288.70247581001314,None,288.70247581001314,None,288.70247581001314,None,,,,,,,,,,,,,,019,2022-05-13_15h30.21.601,Main,2022.1.1,58.891358397706654,
neutral,positive,1,k,k,,,,,,,,,3,10,64,4,,,,,,,,,main,2,2,1,positive,neutral,k,k,1,0.6667749999905936,288.7065014000109,289.72191120000207,289.70532950002234,None,288.7065014000109,None,288.7065014000109,None,288.7065014000109,None,290.37187121002063,None,290.37187121002063,None,290.37187121002063,None,,,,,,,,,,,,,,019,2022-05-13_15h30.21.601,Main,2022.1.1,58.891358397706654,
negative,positive,1,j,l,,,,,,,,,3,11,65,6,,,,,,,,,main,1,1,1,positive,negative,l,l,1,0.6956337000010535,290.3756020000146,291.3886713999964,291.3690951000026,None,290.3756020000146,None,290.3756020000146,None,290.3756020000146,None,292.06914041001875,None,292.06914041001875,None,292.06914041001875,None,,,,,,,,,,,,,,019,2022-05-13_15h30.21.601,Main,2022.1.1,58.891358397706654,
positive,neutral,2,l,j,,,,,,,,,3,12,66,17,,,,,,,,,main,1,1,2,neutral,positive,j,j,1,0.7315331999852788,292.07228880000184,293.0857378000219,293.0719854000199,None,292.07228880000184,None,292.07228880000184,None,292.07228880000184,None,293.8023746100051,None,293.8023746100051,None,293.8023746100051,None,,,,,,,,,,,,,,019,2022-05-13_15h30.21.601,Main,2022.1.1,58.891358397706654,
positive,negative,2,l,j,,,,,,,,,3,13,67,14,,,,,,,,,main,1,1,2,negative,positive,j,j,1,0.5812926000216976,293.80639810001594,294.8219155000115,294.8024368000042,None,293.80639810001594,None,293.80639810001594,None,293.80639810001594,None,295.3856743100012,None,295.3856743100012,None,295.3856743100012,None,,,,,,,,,,,,,,019,2022-05-13_15h30.21.601,Main,2022.1.1,58.891358397706654,
neutral,positive,2,k,k,,,,,,,,,3,14,68,13,,,,,,,,,main,2,2,2,positive,neutral,k,k,1,0.6817909000092186,295.3888374000089,296.4050886000041,296.3860598000174,None,295.3888374000089,None,295.3888374000089,None,295.3888374000089,None,297.068971610014,None,297.068971610014,None,297.068971610014,None,,,,,,,,,,,,,,019,2022-05-13_15h30.21.601,Main,2022.1.1,58.891358397706654,
negative,negative,1,j,l,,,,,,,,,3,15,69,0,,,,,,,,,main,2,2,1,negative,negative,l,l,1,0.7014752000104636,297.0721324000042,298.0856226000178,298.06903740001144,None,297.0721324000042,None,297.0721324000042,None,297.0721324000042,None,298.7719157100044,None,298.7719157100044,None,298.7719157100044,None,,,,,,,,,,,,,,019,2022-05-13_15h30.21.601,Main,2022.1.1,58.891358397706654,
positive,positive,2,l,j,,,,,,,,,3,16,70,11,,,,,,,,,main,2,2,2,positive,positive,j,j,1,0.6601774000155274,298.7769862000132,299.78559730001143,299.7689232999983,None,298.7769862000132,None,298.7769862000132,None,298.7769862000132,None,300.4355704100133,None,300.4355704100133,None,300.4355704100133,None,,,,,,,,,,,,,,019,2022-05-13_15h30.21.601,Main,2022.1.1,58.891358397706654,
negative,neutral,1,j,l,,,,,,,,,3,17,71,3,,,,,,,,,main,2,2,1,neutral,negative,l,l,1,0.6651056999980938,300.43878029999905,301.4522146000236,301.41890520000015,None,300.43878029999905,None,300.43878029999905,None,300.43878029999905,None,302.1022466100083,None,302.1022466100083,None,302.1022466100083,None,,,,,,,,,,,,,,019,2022-05-13_15h30.21.601,Main,2022.1.1,58.891358397706654,
positive,positive,1,l,j,,,,,,,,,4,0,72,2,,,,,,,,,main,2,2,1,positive,positive,j,j,1,0.6482567999919411,302.1056317000184,303.118830899999,303.1051301000116,None,302.1056317000184,None,302.1056317000184,None,302.1056317000184,None,303.75217171001424,None,303.75217171001424,None,303.75217171001424,None,,,,,,,,,,,,,,019,2022-05-13_15h30.21.601,Main,2022.1.1,58.891358397706654,
negative,positive,2,j,l,,,,,,,,,4,1,73,15,,,,,,,,,main,1,1,2,positive,negative,l,l,1,0.699572800018359,303.75538680001046,304.7688260000141,304.7549610999995,None,303.75538680001046,None,303.75538680001046,None,303.75538680001046,None,305.4521377099998,None,305.4521377099998,None,305.4521377099998,None,,,,,,,,,,,,,,019,2022-05-13_15h30.21.601,Main,2022.1.1,58.891358397706654,
neutral,positive,1,k,k,,,,,,,,,4,2,74,4,,,,,,,,,main,2,2,1,positive,neutral,k,k,1,0.6638587999914307,305.45650560001377,306.4688062000205,306.452123199997,None,305.45650560001377,None,305.45650560001377,None,305.45650560001377,None,307.11877761000943,None,307.11877761000943,None,307.11877761000943,None,,,,,,,,,,,,,,019,2022-05-13_15h30.21.601,Main,2022.1.1,58.891358397706654,
negative,negative,1,j,l,,,,,,,,,4,3,75,0,,,,,,,,,main,2,2,1,negative,negative,l,l,1,0.6310949000180699,307.12578790000407,308.13542110001436,308.1187632000074,None,307.12578790000407,None,307.12578790000407,None,307.12578790000407,None,308.752068610015,None,308.752068610015,None,308.752068610015,None,,,,,,,,,,,,,,019,2022-05-13_15h30.21.601,Main,2022.1.1,58.891358397706654,
neutral,positive,2,k,k,,,,,,,,,4,4,76,13,,,,,,,,,main,1,1,2,positive,neutral,k,k,1,0.6188533999957144,308.7553963000246,309.7687370000058,309.7550104999973,None,308.7553963000246,None,308.7553963000246,None,308.7553963000246,None,310.36878581001366,None,310.36878581001366,None,310.36878581001366,None,,,,,,,,,,,,,,019,2022-05-13_15h30.21.601,Main,2022.1.1,58.891358397706654,
positive,positive,2,l,j,,,,,,,,,4,5,77,11,,,,,,,,,main,1,1,2,positive,positive,j,j,1,0.6600870000256691,310.37656520001474,311.38535640001646,311.3686990000133,None,310.37656520001474,None,310.37656520001474,None,310.37656520001474,None,312.0353200100042,None,312.0353200100042,None,312.0353200100042,None,,,,,,,,,,,,,,019,2022-05-13_15h30.21.601,Main,2022.1.1,58.891358397706654,
negative,neutral,2,j,l,,,,,,,,,4,6,78,12,,,,,,,,,main,2,2,2,neutral,negative,l,l,1,0.6151205999776721,312.03848700001254,313.0519927999994,313.018636599998,None,312.03848700001254,None,312.03848700001254,None,312.03848700001254,None,313.65202721001407,None,313.65202721001407,None,313.65202721001407,None,,,,,,,,,,,,,,019,2022-05-13_15h30.21.601,Main,2022.1.1,58.891358397706654,
positive,negative,1,l,j,,,,,,,,,4,7,79,5,,,,,,,,,main,1,1,1,negative,positive,j,j,1,0.6662895000190474,313.6552408999996,314.6686314000108,314.6519521000155,None,313.6552408999996,None,313.6552408999996,None,313.6552408999996,None,315.3187234100158,None,315.3187234100158,None,315.3187234100158,None,,,,,,,,,,,,,,019,2022-05-13_15h30.21.601,Main,2022.1.1,58.891358397706654,
neutral,neutral,2,k,k,,,,,,,,,4,8,80,10,,,,,,,,,main,1,1,2,neutral,neutral,k,k,1,0.6635384999972302,315.3232474999968,316.33815570001025,316.3186642000219,None,315.3232474999968,None,315.3232474999968,None,315.3232474999968,None,316.9852133100183,None,316.9852133100183,None,316.9852133100183,None,,,,,,,,,,,,,,019,2022-05-13_15h30.21.601,Main,2022.1.1,58.891358397706654,
neutral,negative,1,k,k,,,,,,,,,4,9,81,7,,,,,,,,,main,1,1,1,negative,neutral,k,k,1,0.8317805000115186,316.9882329000102,318.0047117000213,317.9685505000234,None,316.9882329000102,None,316.9882329000102,None,316.9882329000102,None,318.8186039100081,None,318.8186039100081,None,318.8186039100081,None,,,,,,,,,,,,,,019,2022-05-13_15h30.21.601,Main,2022.1.1,58.891358397706654,
positive,negative,2,l,j,,,,,,,,,4,10,82,14,,,,,,,,,main,2,2,2,negative,positive,j,j,1,0.615002899983665,318.82156820001546,319.8351849000028,319.8185301000194,None,318.82156820001546,None,318.82156820001546,None,318.82156820001546,None,320.43516831000744,None,320.43516831000744,None,320.43516831000744,None,,,,,,,,,,,,,,019,2022-05-13_15h30.21.601,Main,2022.1.1,58.891358397706654,
neutral,neutral,1,k,k,,,,,,,,,4,11,83,1,,,,,,,,,main,1,1,1,neutral,neutral,k,k,1,0.6482757999910973,320.4382222999993,321.43516410002485,321.4213408000069,None,320.4382222999993,None,320.4382222999993,None,320.4382222999993,None,322.0851278100134,None,322.0851278100134,None,322.0851278100134,None,,,,,,,,,,,,,,019,2022-05-13_15h30.21.601,Main,2022.1.1,58.891358397706654,
neutral,negative,2,k,k,,,,,,,,,4,12,84,16,,,,,,,,,main,2,2,2,negative,neutral,k,k,1,0.681694900005823,322.0901900000172,323.10184650000883,323.08509780000895,None,322.0901900000172,None,322.0901900000172,None,322.0901900000172,None,323.768464510006,None,323.768464510006,None,323.768464510006,None,,,,,,,,,,,,,,019,2022-05-13_15h30.21.601,Main,2022.1.1,58.891358397706654,
negative,negative,2,j,l,,,,,,,,,4,13,85,9,,,,,,,,,main,2,2,2,negative,negative,l,l,1,0.8038467000005767,323.7713625000033,324.76842690000194,324.76842690000194,None,323.7713625000033,None,323.7713625000033,None,323.7713625000033,None,325.5712025100045,None,325.5712025100045,None,325.5712025100045,None,,,,,,,,,,,,,,019,2022-05-13_15h30.21.601,Main,2022.1.1,58.891358397706654,
negative,neutral,1,j,l,,,,,,,,,4,14,86,3,,,,,,,,,main,1,1,1,neutral,negative,l,l,1,0.579046600003494,325.57643230000394,326.5850594000076,326.56839520001085,None,325.57643230000394,None,325.57643230000394,None,325.57643230000394,None,327.1544260100025,None,327.1544260100025,None,327.1544260100025,None,,,,,,,,,,,,,,019,2022-05-13_15h30.21.601,Main,2022.1.1,58.891358397706654,
positive,neutral,2,l,j,,,,,,,,,4,15,87,17,,,,,,,,,main,2,2,2,neutral,positive,j,j,1,0.7461302000156138,327.1584777000244,328.16835620001075,328.15461520000827,None,327.1584777000244,None,327.1584777000244,None,327.1584777000244,None,328.90177731000296,None,328.90177731000296,None,328.90177731000296,None,,,,,,,,,,,,,,019,2022-05-13_15h30.21.601,Main,2022.1.1,58.891358397706654,
positive,neutral,1,l,j,,,,,,,,,4,16,88,8,,,,,,,,,main,2,2,1,neutral,positive,j,j,1,0.5635154999908991,328.9059714000032,329.91831890001777,329.90449539999827,None,328.9059714000032,None,328.9059714000032,None,328.9059714000032,None,330.46829041000166,None,330.46829041000166,None,330.46829041000166,None,,,,,,,,,,,,,,019,2022-05-13_15h30.21.601,Main,2022.1.1,58.891358397706654,
negative,positive,1,j,l,,,,,,,,,4,17,89,6,,,,,,,,,main,2,2,1,positive,negative,l,l,1,0.7653053999820258,330.47135840001283,331.46828960001585,331.46828960001585,None,330.47135840001283,None,330.47135840001283,None,330.47135840001283,None,332.23492321002124,None,332.23492321002124,None,332.23492321002124,None,,,,,,,,,,,,,,019,2022-05-13_15h30.21.601,Main,2022.1.1,58.891358397706654,
negative,neutral,2,j,l,,,,,,,,,5,0,90,12,,,,,,,,,main,1,1,2,neutral,negative,l,l,1,0.6872561000054702,332.2381601000088,333.2515707999992,333.2378611000022,None,332.2381601000088,None,332.2381601000088,None,332.2381601000088,None,333.92094611000795,None,333.92094611000795,None,333.92094611000795,None,,,,,,,,,,,,,,019,2022-05-13_15h30.21.601,Main,2022.1.1,58.891358397706654,
neutral,positive,2,k,k,,,,,,,,,5,1,91,13,,,,,,,,,main,1,1,2,positive,neutral,k,k,1,0.6503595000249334,333.9266971000179,334.934878,334.9182195000176,None,333.9266971000179,None,333.9266971000179,None,333.9266971000179,None,335.571032810022,None,335.571032810022,None,335.571032810022,None,,,,,,,,,,,,,,019,2022-05-13_15h30.21.601,Main,2022.1.1,58.891358397706654,
positive,positive,1,l,j,,,,,,,,,5,2,92,2,,,,,,,,,main,2,2,1,positive,positive,j,j,1,0.7739149999979418,335.5792025999981,336.58490889999666,336.56988419999834,None,335.5792025999981,None,335.5792025999981,None,335.5792025999981,None,337.3514937100088,None,337.3514937100088,None,337.3514937100088,None,,,,,,,,,,,,,,019,2022-05-13_15h30.21.601,Main,2022.1.1,58.891358397706654,
neutral,neutral,1,k,k,,,,,,,,,5,3,93,1,,,,,,,,,main,2,2,1,neutral,neutral,k,k,1,0.6690577999979723,337.3546925999981,338.37101240002085,338.33481190001476,None,337.3546925999981,None,337.3546925999981,None,337.3546925999981,None,339.0182113099989,None,339.0182113099989,None,339.0182113099989,None,,,,,,,,,,,,,,019,2022-05-13_15h30.21.601,Main,2022.1.1,58.891358397706654,
negative,neutral,1,j,l,,,,,,,,,5,4,94,3,,,,,,,,,main,2,2,1,neutral,negative,l,l,1,0.676773699990008,339.02617130000726,340.03474580001784,340.01807350001764,None,339.02617130000726,None,339.02617130000726,None,339.02617130000726,None,340.70141471002427,None,340.70141471002427,None,340.70141471002427,None,,,,,,,,,,,,,,019,2022-05-13_15h30.21.601,Main,2022.1.1,58.891358397706654,
neutral,positive,1,k,k,,,,,,,,,5,5,95,4,,,,,,,,,main,1,1,1,positive,neutral,k,k,1,0.6710892000119202,340.704821500025,341.7180853000027,341.7043301000085,None,340.704821500025,None,340.704821500025,None,340.704821500025,None,342.3709158100217,None,342.3709158100217,None,342.3709158100217,None,,,,,,,,,,,,,,019,2022-05-13_15h30.21.601,Main,2022.1.1,58.891358397706654,
positive,negative,1,l,j,,,,,,,,,5,6,96,5,,,,,,,,,main,1,1,1,negative,positive,j,j,1,0.6579638000112027,342.38223519999883,343.3846979000082,343.3680353000236,None,342.38223519999883,None,342.38223519999883,None,342.38223519999883,None,344.0346730100253,None,344.0346730100253,None,344.0346730100253,None,,,,,,,,,,,,,,019,2022-05-13_15h30.21.601,Main,2022.1.1,58.891358397706654,
negative,positive,2,j,l,,,,,,,,,5,7,97,15,,,,,,,,,main,2,2,2,positive,negative,l,l,1,0.6666602999903262,344.0379283000075,345.05132389999926,345.0177403000125,None,344.0379283000075,None,344.0379283000075,None,344.0379283000075,None,345.70132551001444,None,345.70132551001444,None,345.70132551001444,None,,,,,,,,,,,,,,019,2022-05-13_15h30.21.601,Main,2022.1.1,58.891358397706654,
positive,neutral,2,l,j,,,,,,,,,5,8,98,17,,,,,,,,,main,2,2,2,neutral,positive,j,j,1,0.7634154999977909,345.70616520001204,346.7179920000199,346.704206800001,None,345.70616520001204,None,345.70616520001204,None,345.70616520001204,None,347.46795621001803,None,347.46795621001803,None,347.46795621001803,None,,,,,,,,,,,,,,019,2022-05-13_15h30.21.601,Main,2022.1.1,58.891358397706654,
neutral,negative,1,k,k,,,,,,,,,5,9,99,7,,,,,,,,,main,1,1,1,negative,neutral,k,k,1,0.6680201999843121,347.4710601000115,348.47081300002174,348.47081300002174,None,347.4710601000115,None,347.4710601000115,None,347.4710601000115,None,349.13738541002095,None,349.13738541002095,None,349.13738541002095,None,,,,,,,,,,,,,,019,2022-05-13_15h30.21.601,Main,2022.1.1,58.891358397706654,
negative,positive,1,j,l,,,,,,,,,5,10,100,6,,,,,,,,,main,2,2,1,positive,negative,l,l,1,0.6287860999873374,349.1416420000023,350.1512827000115,350.1345504000201,None,349.1416420000023,None,349.1416420000023,None,349.1416420000023,None,350.7677318100148,None,350.7677318100148,None,350.7677318100148,None,,,,,,,,,,,,,,019,2022-05-13_15h30.21.601,Main,2022.1.1,58.891358397706654,
neutral,negative,2,k,k,,,,,,,,,5,11,101,16,,,,,,,,,main,2,2,2,negative,neutral,k,k,1,0.6155979999748524,350.7742871000082,351.7845143000013,351.7678888000082,None,350.7742871000082,None,350.7742871000082,None,350.7742871000082,None,352.38460231001665,None,352.38460231001665,None,352.38460231001665,None,,,,,,,,,,,,,,019,2022-05-13_15h30.21.601,Main,2022.1.1,58.891358397706654,
neutral,neutral,2,k,k,,,,,,,,,5,12,102,10,,,,,,,,,main,2,2,2,neutral,neutral,k,k,1,0.5337331999908201,352.3914997999964,353.4040430000168,353.3844997000124,None,352.3914997999964,None,352.3914997999964,None,352.3914997999964,None,353.92062611001603,None,353.92062611001603,None,353.92062611001603,None,,,,,,,,,,,,,,019,2022-05-13_15h30.21.601,Main,2022.1.1,58.891358397706654,
positive,neutral,1,l,j,,,,,,,,,5,13,103,8,,,,,,,,,main,2,2,1,neutral,positive,j,j,1,0.6120509999745991,353.9232708000054,354.93447639999795,354.91781670000637,None,353.9232708000054,None,353.9232708000054,None,353.9232708000054,None,355.53419031001687,None,355.53419031001687,None,355.53419031001687,None,,,,,,,,,,,,,,019,2022-05-13_15h30.21.601,Main,2022.1.1,58.891358397706654,
negative,negative,2,j,l,,,,,,,,,5,14,104,9,,,,,,,,,main,2,2,2,negative,negative,l,l,1,0.5488071000145283,355.53844450000906,356.5538436000061,356.51775389999966,None,355.53844450000906,None,355.53844450000906,None,355.53844450000906,None,357.08441971000576,None,357.08441971000576,None,357.08441971000576,None,,,,,,,,,,,,,,019,2022-05-13_15h30.21.601,Main,2022.1.1,58.891358397706654,
positive,positive,2,l,j,,,,,,,,,5,15,105,11,,,,,,,,,main,1,1,2,positive,positive,j,j,1,0.7381583999958821,357.0879152000125,358.0872058000241,358.0872058000241,None,357.0879152000125,None,357.0879152000125,None,357.0879152000125,None,358.8205265100085,None,358.8205265100085,None,358.8205265100085,None,,,,,,,,,,,,,,019,2022-05-13_15h30.21.601,Main,2022.1.1,58.891358397706654,
positive,negative,2,l,j,,,,,,,,,5,16,106,14,,,,,,,,,main,2,2,2,negative,positive,j,j,1,0.6749629999976605,358.8272386000026,359.8343655000208,359.82061690001865,None,358.8272386000026,None,358.8272386000026,None,358.8272386000026,None,360.5010432100069,None,360.5010432100069,None,360.5010432100069,None,,,,,,,,,,,,,,019,2022-05-13_15h30.21.601,Main,2022.1.1,58.891358397706654,
negative,negative,1,j,l,,,,,,,,,5,17,107,0,,,,,,,,,main,1,1,1,negative,negative,l,l,1,0.6642724999983329,360.5071242999984,361.51768980000634,361.50388590001967,None,360.5071242999984,None,360.5071242999984,None,360.5071242999984,None,362.1676971100067,None,362.1676971100067,None,362.1676971100067,None,,,,,,,,,,,,,,019,2022-05-13_15h30.21.601,Main,2022.1.1,58.891358397706654,
neutral,negative,2,k,k,,,,,,,,,6,0,108,16,,,,,,,,,main,1,1,2,negative,neutral,k,k,1,0.6009090000006836,362.1709533999965,363.1676083000202,363.1676083000202,None,362.1709533999965,None,362.1709533999965,None,362.1709533999965,None,363.7704094100016,None,363.7704094100016,None,363.7704094100016,None,,,,,,,,,,,,,,019,2022-05-13_15h30.21.601,Main,2022.1.1,58.891358397706654,
positive,positive,1,l,j,,,,,,,,,6,1,109,2,,,,,,,,,main,2,2,1,positive,positive,j,j,1,0.6123864999972284,363.77338950001285,364.78426949999994,364.76761730000726,None,363.77338950001285,None,363.77338950001285,None,363.77338950001285,None,365.3842338100047,None,365.3842338100047,None,365.3842338100047,None,,,,,,,,,,,,,,019,2022-05-13_15h30.21.601,Main,2022.1.1,58.891358397706654,
positive,neutral,1,l,j,,,,,,,,,6,2,110,8,,,,,,,,,main,2,2,1,neutral,positive,j,j,1,0.59831000000122,365.3874652000086,366.4037641000177,366.3675803000224,None,365.3874652000086,None,365.3874652000086,None,365.3874652000086,None,366.98422611001007,None,366.98422611001007,None,366.98422611001007,None,,,,,,,,,,,,,,019,2022-05-13_15h30.21.601,Main,2022.1.1,58.891358397706654,
positive,negative,1,l,j,,,,,,,,,6,3,111,5,,,,,,,,,main,1,1,1,negative,positive,j,j,1,0.5981471000122838,366.98741900001187,368.00095070002135,367.96755709999707,None,366.98741900001187,None,366.98741900001187,None,366.98741900001187,None,368.58395431001264,None,368.58395431001264,None,368.58395431001264,None,,,,,,,,,,,,,,019,2022-05-13_15h30.21.601,Main,2022.1.1,58.891358397706654,
positive,positive,2,l,j,,,,,,,,,6,4,112,11,,,,,,,,,main,2,2,2,positive,positive,j,j,1,0.6153169999888632,368.58728220002376,369.6008852000232,369.56752979999874,None,368.58728220002376,None,368.58728220002376,None,368.58728220002376,None,370.20081601000567,None,370.20081601000567,None,370.20081601000567,None,,,,,,,,,,,,,,019,2022-05-13_15h30.21.601,Main,2022.1.1,58.891358397706654,
negative,neutral,2,j,l,,,,,,,,,6,5,113,12,,,,,,,,,main,2,2,2,neutral,negative,l,,0,0.7677115999977104,370.20408710002084,371.2174571000214,371.2008625000017,None,370.20408710002084,None,370.20408710002084,None,370.20408710002084,None,371.9675050000078,None,371.9675050000078,None,371.9675050000078,None,,,,,,,,,,,,,,019,2022-05-13_15h30.21.601,Main,2022.1.1,58.891358397706654,
negative,positive,2,j,l,,,,,,,,,6,6,114,15,,,,,,,,,main,1,1,2,positive,negative,l,l,1,0.6526044000056572,372.9713191000046,373.986864800012,373.95362840002053,None,372.9713191000046,None,372.9713191000046,None,372.9713191000046,None,374.62019800999843,None,374.62019800999843,None,374.62019800999843,None,,,,,,,,,,,,,,019,2022-05-13_15h30.21.601,Main,2022.1.1,58.891358397706654,
negative,neutral,1,j,l,,,,,,,,,6,7,115,3,,,,,,,,,main,1,1,1,neutral,negative,l,l,1,0.762160699989181,374.62318960000994,375.6340534000192,375.61738609999884,None,374.62318960000994,None,374.62318960000994,None,374.62318960000994,None,376.38416040999874,None,376.38416040999874,None,376.38416040999874,None,,,,,,,,,,,,,,019,2022-05-13_15h30.21.601,Main,2022.1.1,58.891358397706654,
positive,negative,2,l,j,,,,,,,,,6,8,116,14,,,,,,,,,main,1,1,2,negative,positive,j,j,1,0.6979822999855969,376.38736910000443,377.4007539000013,377.3840300000156,None,376.38736910000443,None,376.38736910000443,None,376.38736910000443,None,378.08398481001205,None,378.08398481001205,None,378.08398481001205,None,,,,,,,,,,,,,,019,2022-05-13_15h30.21.601,Main,2022.1.1,58.891358397706654,
negative,positive,1,j,l,,,,,,,,,6,9,117,6,,,,,,,,,main,2,2,1,positive,negative,l,l,1,0.6652853999985382,378.0871532000019,379.1007164000184,379.08398890000535,None,378.0871532000019,None,378.0871532000019,None,378.0871532000019,None,379.7506510100182,None,379.7506510100182,None,379.7506510100182,None,,,,,,,,,,,,,,019,2022-05-13_15h30.21.601,Main,2022.1.1,58.891358397706654,
positive,neutral,2,l,j,,,,,,,,,6,10,118,17,,,,,,,,,main,2,2,2,neutral,positive,j,j,1,1.2301803000154905,379.7553891999996,380.76729000001797,380.75351360000786,None,379.7553891999996,None,379.7553891999996,None,379.7553891999996,None,381.9839709100168,None,381.9839709100168,None,381.9839709100168,None,,,,,,,,,,,,,,019,2022-05-13_15h30.21.601,Main,2022.1.1,58.891358397706654,
neutral,positive,2,k,k,,,,,,,,,6,11,119,13,,,,,,,,,main,1,1,2,positive,neutral,k,k,1,0.7482741999847349,381.9955779000011,383.0006355000078,382.9839023000095,None,381.9955779000011,None,381.9955779000011,None,381.9955779000011,None,383.7336509100249,None,383.7336509100249,None,383.7336509100249,None,,,,,,,,,,,,,,019,2022-05-13_15h30.21.601,Main,2022.1.1,58.891358397706654,
neutral,negative,1,k,k,,,,,,,,,6,12,120,7,,,,,,,,,main,1,1,1,negative,neutral,k,k,1,0.8639194999996107,383.73785030000727,384.7506142000202,384.7338862000033,None,383.73785030000727,None,383.73785030000727,None,383.73785030000727,None,385.6005124100164,None,385.6005124100164,None,385.6005124100164,None,,,,,,,,,,,,,,019,2022-05-13_15h30.21.601,Main,2022.1.1,58.891358397706654,
neutral,neutral,1,k,k,,,,,,,,,6,13,121,1,,,,,,,,,main,1,1,1,neutral,neutral,k,k,1,0.6151987999910489,385.60353520000353,386.6171566999983,386.60339360000216,None,385.60353520000353,None,385.60353520000353,None,385.60353520000353,None,387.21722370999925,None,387.21722370999925,None,387.21722370999925,None,,,,,,,,,,,,,,019,2022-05-13_15h30.21.601,Main,2022.1.1,58.891358397706654,
negative,negative,2,j,l,,,,,,,,,6,14,122,9,,,,,,,,,main,2,2,2,negative,negative,l,l,1,0.66491490000044,387.2202899999975,388.21994540002197,388.21994540002197,None,387.2202899999975,None,387.2202899999975,None,387.2202899999975,None,388.88377361002205,None,388.88377361002205,None,388.88377361002205,None,,,,,,,,,,,,,,019,2022-05-13_15h30.21.601,Main,2022.1.1,58.891358397706654,
neutral,positive,1,k,k,,,,,,,,,6,15,123,4,,,,,,,,,main,1,1,1,positive,neutral,k,k,1,0.6214318000129424,388.8878305000253,389.90322790000937,389.86994770000456,None,388.8878305000253,None,388.8878305000253,None,388.8878305000253,None,390.5067593100219,None,390.5067593100219,None,390.5067593100219,None,,,,,,,,,,,,,,019,2022-05-13_15h30.21.601,Main,2022.1.1,58.891358397706654,
negative,negative,1,j,l,,,,,,,,,6,16,124,0,,,,,,,,,main,1,1,1,negative,negative,l,l,1,0.7420042000012472,390.5096761000168,391.5170693999971,391.500466700003,None,390.5096761000168,None,390.5096761000168,None,390.5096761000168,None,392.25033651000996,None,392.25033651000996,None,392.25033651000996,None,,,,,,,,,,,,,,019,2022-05-13_15h30.21.601,Main,2022.1.1,58.891358397706654,
neutral,neutral,2,k,k,,,,,,,,,6,17,125,10,,,,,,,,,main,1,1,2,neutral,neutral,k,k,1,0.5980558999872301,392.2534662000253,393.26700700001675,393.2336746000219,None,392.2534662000253,None,392.2534662000253,None,392.2534662000253,None,393.85036631000986,None,393.85036631000986,None,393.85036631000986,None,,,,,,,,,,,,,,019,2022-05-13_15h30.21.601,Main,2022.1.1,58.891358397706654,
negative,neutral,2,j,l,,,,,,,,,7,0,126,12,,,,,,,,,main,1,1,2,neutral,negative,l,l,1,0.682091800001217,393.85312970000086,394.8531221000012,394.8531221000012,None,393.85312970000086,None,393.85312970000086,None,393.85312970000086,None,395.5337643100036,None,395.5337643100036,None,395.5337643100036,None,,,,,,,,,,,,,,019,2022-05-13_15h30.21.601,Main,2022.1.1,58.891358397706654,
negative,neutral,1,j,l,,,,,,,,,7,1,127,3,,,,,,,,,main,2,2,1,neutral,negative,l,l,1,1.2648902999935672,395.5402519000054,396.55035010000574,396.53362940001534,None,395.5402519000054,None,395.5402519000054,None,395.5402519000054,None,397.80026731002437,None,397.80026731002437,None,397.80026731002437,None,,,,,,,,,,,,,,019,2022-05-13_15h30.21.601,Main,2022.1.1,58.891358397706654,
negative,negative,2,j,l,,,,,,,,,7,2,128,9,,,,,,,,,main,1,1,2,negative,negative,l,l,1,0.6316650999942794,397.80337180002243,398.81691580000916,398.8031116000202,None,397.80337180002243,None,397.80337180002243,None,397.80337180002243,None,399.43353051002197,None,399.43353051002197,None,399.43353051002197,None,,,,,,,,,,,,,,019,2022-05-13_15h30.21.601,Main,2022.1.1,58.891358397706654,
positive,neutral,2,l,j,,,,,,,,,7,3,129,17,,,,,,,,,main,2,2,2,neutral,positive,j,j,1,0.714935099997092,399.43678400001954,400.4335480000009,400.41968350001844,None,399.43678400001954,None,399.43678400001954,None,399.43678400001954,None,401.15019440999896,None,401.15019440999896,None,401.15019440999896,None,,,,,,,,,,,,,,019,2022-05-13_15h30.21.601,Main,2022.1.1,58.891358397706654,
neutral,neutral,2,k,k,,,,,,,,,7,4,130,10,,,,,,,,,main,2,2,2,neutral,neutral,k,k,1,0.6818152000196278,401.15343669999857,402.1530860000057,402.1530860000057,None,401.15343669999857,None,401.15343669999857,None,401.15343669999857,None,402.83349531001005,None,402.83349531001005,None,402.83349531001005,None,,,,,,,,,,,,,,019,2022-05-13_15h30.21.601,Main,2022.1.1,58.891358397706654,
neutral,negative,2,k,k,,,,,,,,,7,5,131,16,,,,,,,,,main,1,1,2,negative,neutral,k,k,1,0.6316387999977451,402.8366990000068,403.85014770002454,403.8335428000137,None,402.8366990000068,None,402.8366990000068,None,402.8366990000068,None,404.4668125100114,None,404.4668125100114,None,404.4668125100114,None,,,,,,,,,,,,,,019,2022-05-13_15h30.21.601,Main,2022.1.1,58.891358397706654,
positive,positive,2,l,j,,,,,,,,,7,6,132,11,,,,,,,,,main,2,2,2,positive,positive,j,j,1,0.7011708999925759,404.47112699999707,405.48344890002045,405.4667917000188,None,404.47112699999707,None,404.47112699999707,None,404.47112699999707,None,406.1695217100176,None,406.1695217100176,None,406.1695217100176,None,,,,,,,,,,,,,,019,2022-05-13_15h30.21.601,Main,2022.1.1,58.891358397706654,
positive,negative,1,l,j,,,,,,,,,7,7,133,5,,,,,,,,,main,2,2,1,negative,positive,j,j,1,0.8620235999987926,406.1724970000214,407.18342230000417,407.1667460000026,None,406.1724970000214,None,406.1724970000214,None,406.1724970000214,None,408.03334771000374,None,408.03334771000374,None,408.03334771000374,None,,,,,,,,,,,,,,019,2022-05-13_15h30.21.601,Main,2022.1.1,58.891358397706654,
positive,neutral,1,l,j,,,,,,,,,7,8,134,8,,,,,,,,,main,1,1,1,neutral,positive,j,j,1,0.5821303999982774,408.0363202000153,409.050032500003,409.0167096000223,None,408.0363202000153,None,408.0363202000153,None,408.0363202000153,None,409.6167650100222,None,409.6167650100222,None,409.6167650100222,None,,,,,,,,,,,,,,019,2022-05-13_15h30.21.601,Main,2022.1.1,58.891358397706654,
neutral,negative,1,k,k,,,,,,,,,7,9,135,7,,,,,,,,,main,2,2,1,negative,neutral,k,k,1,0.6650332999997772,409.6203833000036,410.6195522000198,410.6195522000198,None,409.6203833000036,None,409.6203833000036,None,409.6203833000036,None,411.2833279099985,None,411.2833279099985,None,411.2833279099985,None,,,,,,,,,,,,,,019,2022-05-13_15h30.21.601,Main,2022.1.1,58.891358397706654,
positive,positive,1,l,j,,,,,,,,,7,10,136,2,,,,,,,,,main,2,2,1,positive,positive,j,j,1,0.7315066999872215,411.2871805000177,412.3028125000128,412.28329040002427,None,411.2871805000177,None,411.2871805000177,None,411.2871805000177,None,413.0167401100014,None,413.0167401100014,None,413.0167401100014,None,,,,,,,,,,,,,,019,2022-05-13_15h30.21.601,Main,2022.1.1,58.891358397706654,
negative,negative,1,j,l,,,,,,,,,7,11,137,0,,,,,,,,,main,1,1,1,negative,negative,l,l,1,0.7316292999894358,413.0200052,414.0332450999995,414.01664630000596,None,413.0200052,None,413.0200052,None,413.0200052,None,414.74992230999925,None,414.74992230999925,None,414.74992230999925,None,,,,,,,,,,,,,,019,2022-05-13_15h30.21.601,Main,2022.1.1,58.891358397706654,
neutral,positive,2,k,k,,,,,,,,,7,12,138,13,,,,,,,,,main,1,1,2,positive,neutral,k,k,1,0.668973099993309,414.75318900001,415.76657800000976,415.7527233000146,None,414.75318900001,None,414.75318900001,None,414.75318900001,None,416.41663681002393,None,416.41663681002393,None,416.41663681002393,None,,,,,,,,,,,,,,019,2022-05-13_15h30.21.601,Main,2022.1.1,58.891358397706654,
negative,positive,1,j,l,,,,,,,,,7,13,139,6,,,,,,,,,main,1,1,1,positive,negative,l,l,1,0.6277510999934748,416.42333430002327,417.4361023000092,417.4193581000145,None,416.42333430002327,None,416.42333430002327,None,416.42333430002327,None,418.0498292100063,None,418.0498292100063,None,418.0498292100063,None,,,,,,,,,,,,,,019,2022-05-13_15h30.21.601,Main,2022.1.1,58.891358397706654,
neutral,neutral,1,k,k,,,,,,,,,7,14,140,1,,,,,,,,,main,2,2,1,neutral,neutral,k,k,1,0.7483405000239145,418.05387910001446,419.0693159000075,419.0526902000129,None,418.05387910001446,None,418.05387910001446,None,418.05387910001446,None,419.7998118100193,None,419.7998118100193,None,419.7998118100193,None,,,,,,,,,,,,,,019,2022-05-13_15h30.21.601,Main,2022.1.1,58.891358397706654,
positive,negative,2,l,j,,,,,,,,,7,15,141,14,,,,,,,,,main,2,2,2,negative,positive,j,j,1,0.6473038999829441,419.8038096000091,420.8164585000195,420.80264970002463,None,419.8038096000091,None,419.8038096000091,None,419.8038096000091,None,421.44975421001146,None,421.44975421001146,None,421.44975421001146,None,,,,,,,,,,,,,,019,2022-05-13_15h30.21.601,Main,2022.1.1,58.891358397706654,
negative,positive,2,j,l,,,,,,,,,7,16,142,15,,,,,,,,,main,1,1,2,positive,negative,l,l,1,0.6819680000189692,421.45286170000327,422.4664346000063,422.4497515000112,None,421.45286170000327,None,421.45286170000327,None,421.45286170000327,None,423.13314201001486,None,423.13314201001486,None,423.13314201001486,None,,,,,,,,,,,,,,019,2022-05-13_15h30.21.601,Main,2022.1.1,58.891358397706654,
neutral,positive,1,k,k,,,,,,,,,7,17,143,4,,,,,,,,,main,2,2,1,positive,neutral,k,k,1,0.6160491000046022,423.13644410000416,424.15259150002385,424.13305709999986,None,423.13644410000416,None,423.13644410000416,None,423.13644410000416,None,424.7498298100225,None,424.7498298100225,None,424.7498298100225,None,,,,,,,,,,,,,,019,2022-05-13_15h30.21.601,Main,2022.1.1,58.891358397706654,
neutral,positive,2,k,k,,,,,,,,,8,0,144,13,,,,,,,,,main,1,1,2,positive,neutral,k,k,1,0.6138624000013806,424.7540674000047,425.7663670000038,425.75257290000445,None,424.7540674000047,None,424.7540674000047,None,424.7540674000047,None,426.36638311002463,None,426.36638311002463,None,426.36638311002463,None,,,,,,,,,,,,,,019,2022-05-13_15h30.21.601,Main,2022.1.1,58.891358397706654,
negative,neutral,1,j,l,,,,,,,,,8,1,145,3,,,,,,,,,main,1,1,1,neutral,negative,l,l,1,0.7483595999947283,426.3694195999997,427.38297170001897,427.366310900019,None,426.3694195999997,None,426.3694195999997,None,426.3694195999997,None,428.116345209998,None,428.116345209998,None,428.116345209998,None,,,,,,,,,,,,,,019,2022-05-13_15h30.21.601,Main,2022.1.1,58.891358397706654,
negative,negative,2,j,l,,,,,,,,,8,2,146,9,,,,,,,,,main,1,1,2,negative,negative,l,l,1,0.698536999989301,428.119305500004,429.1329672000138,429.1162996000203,None,428.119305500004,None,428.119305500004,None,428.119305500004,None,429.8163422100159,None,429.8163422100159,None,429.8163422100159,None,,,,,,,,,,,,,,019,2022-05-13_15h30.21.601,Main,2022.1.1,58.891358397706654,
negative,positive,1,j,l,,,,,,,,,8,3,147,6,,,,,,,,,main,2,2,1,positive,negative,l,l,1,0.681768699985696,429.81968939999933,430.832934200007,430.81627490001847,None,429.81968939999933,None,429.81968939999933,None,429.81968939999933,None,431.4996081100224,None,431.4996081100224,None,431.4996081100224,None,,,,,,,,,,,,,,019,2022-05-13_15h30.21.601,Main,2022.1.1,58.891358397706654,
positive,neutral,1,l,j,,,,,,,,,8,4,148,8,,,,,,,,,main,2,2,1,neutral,positive,j,j,1,0.6981578999839257,431.50481860002037,432.5162270000146,432.4996360000223,None,431.50481860002037,None,431.50481860002037,None,431.50481860002037,None,433.199531410003,None,433.199531410003,None,433.199531410003,None,,,,,,,,,,,,,,019,2022-05-13_15h30.21.601,Main,2022.1.1,58.891358397706654,
positive,neutral,2,l,j,,,,,,,,,8,5,149,17,,,,,,,,,main,1,1,2,neutral,positive,j,j,1,0.567913300008513,433.202658299997,434.2162002999976,434.2024590000219,None,433.202658299997,None,433.202658299997,None,433.202658299997,None,434.7691207100259,None,434.7691207100259,None,434.7691207100259,None,,,,,,,,,,,,,,019,2022-05-13_15h30.21.601,Main,2022.1.1,58.891358397706654,
neutral,negative,2,k,k,,,,,,,,,8,6,150,16,,,,,,,,,main,2,2,2,negative,neutral,k,k,1,0.7482367999909911,434.7718657000223,435.7828862000024,435.7661696000141,None,434.7718657000223,None,434.7718657000223,None,434.7718657000223,None,436.5189236100094,None,436.5189236100094,None,436.5189236100094,None,,,,,,,,,,,,,,019,2022-05-13_15h30.21.601,Main,2022.1.1,58.891358397706654,
positive,positive,2,l,j,,,,,,,,,8,7,151,11,,,,,,,,,main,2,2,2,positive,positive,j,j,1,0.6622767000226304,436.52189460000955,437.53553590000956,437.5161499000096,None,436.52189460000955,None,436.52189460000955,None,436.52189460000955,None,438.1827465100185,None,438.1827465100185,None,438.1827465100185,None,,,,,,,,,,,,,,019,2022-05-13_15h30.21.601,Main,2022.1.1,58.891358397706654,
positive,negative,2,l,j,,,,,,,,,8,8,152,14,,,,,,,,,main,2,2,2,negative,positive,j,j,1,0.5516199999838136,438.1858509000158,439.19948410001234,439.1827536000055,None,438.1858509000158,None,438.1858509000158,None,438.1858509000158,None,439.7356778100046,None,439.7356778100046,None,439.7356778100046,None,,,,,,,,,,,,,,019,2022-05-13_15h30.21.601,Main,2022.1.1,58.891358397706654,
neutral,neutral,1,k,k,,,,,,,,,8,9,153,1,,,,,,,,,main,2,2,1,neutral,neutral,k,k,1,0.6450396000000183,439.73888240000815,440.75218330000644,440.73272550001275,None,439.73888240000815,None,439.73888240000815,None,439.73888240000815,None,441.3827047100029,None,441.3827047100029,None,441.3827047100029,None,,,,,,,,,,,,,,019,2022-05-13_15h30.21.601,Main,2022.1.1,58.891358397706654,
negative,neutral,2,j,l,,,,,,,,,8,10,154,12,,,,,,,,,main,2,2,2,neutral,negative,l,l,1,0.6498477999994066,441.3859304000216,442.40209190000314,442.3660326000245,None,441.3859304000216,None,441.3859304000216,None,441.3859304000216,None,443.03268171002566,None,443.03268171002566,None,443.03268171002566,None,,,,,,,,,,,,,,019,2022-05-13_15h30.21.601,Main,2022.1.1,58.891358397706654,
neutral,negative,1,k,k,,,,,,,,,8,11,155,7,,,,,,,,,main,1,1,1,negative,neutral,k,k,1,0.6636155000014696,443.0370372000034,444.0493164000218,444.03266070000245,None,443.0370372000034,None,443.0370372000034,None,443.0370372000034,None,444.69931601002173,None,444.69931601002173,None,444.69931601002173,None,,,,,,,,,,,,,,019,2022-05-13_15h30.21.601,Main,2022.1.1,58.891358397706654,
negative,positive,2,j,l,,,,,,,,,8,12,156,15,,,,,,,,,main,2,2,2,positive,negative,l,l,1,0.615161599998828,444.7048102999979,445.7159604000044,445.70217430000775,None,444.7048102999979,None,444.7048102999979,None,444.7048102999979,None,446.3160312100052,None,446.3160312100052,None,446.3160312100052,None,,,,,,,,,,,,,,019,2022-05-13_15h30.21.601,Main,2022.1.1,58.891358397706654,
negative,negative,1,j,l,,,,,,,,,8,13,157,0,,,,,,,,,main,2,2,1,negative,negative,l,l,1,0.6815424999804236,446.3194747000234,447.33259060001,447.31593080001767,None,446.3194747000234,None,446.3194747000234,None,446.3194747000234,None,447.99923901000585,None,447.99923901000585,None,447.99923901000585,None,,,,,,,,,,,,,,019,2022-05-13_15h30.21.601,Main,2022.1.1,58.891358397706654,
neutral,positive,1,k,k,,,,,,,,,8,14,158,4,,,,,,,,,main,2,2,1,positive,neutral,k,k,1,0.7407668999803718,448.0026238000137,449.0158861000091,448.99929170001997,None,448.0026238000137,None,448.0026238000137,None,448.0026238000137,None,449.7386508099997,None,449.7386508099997,None,449.7386508099997,None,,,,,,,,,,,,,,019,2022-05-13_15h30.21.601,Main,2022.1.1,58.891358397706654,
positive,negative,1,l,j,,,,,,,,,8,15,159,5,,,,,,,,,main,1,1,1,negative,positive,j,j,1,0.7749939000059385,449.74493970000185,450.7519788000209,450.73257469999953,None,449.74493970000185,None,449.74493970000185,None,449.74493970000185,None,451.51870501000377,None,451.51870501000377,None,451.51870501000377,None,,,,,,,,,,,,,,019,2022-05-13_15h30.21.601,Main,2022.1.1,58.891358397706654,
neutral,neutral,2,k,k,,,,,,,,,8,16,160,10,,,,,,,,,main,2,2,2,neutral,neutral,k,k,1,0.6511175000050571,451.521533799998,452.5325318000105,452.5187313000206,None,451.521533799998,None,451.521533799998,None,451.521533799998,None,453.165954110006,None,453.165954110006,None,453.165954110006,None,,,,,,,,,,,,,,019,2022-05-13_15h30.21.601,Main,2022.1.1,58.891358397706654,
positive,positive,1,l,j,,,,,,,,,8,17,161,2,,,,,,,,,main,2,2,1,positive,positive,j,j,1,0.7092953000101261,453.1749647000106,454.18246560002444,454.16873890001443,None,453.1749647000106,None,453.1749647000106,None,453.1749647000106,None,454.882416210018,None,454.882416210018,None,454.882416210018,None,,,,,,,,,,,,,,019,2022-05-13_15h30.21.601,Main,2022.1.1,58.891358397706654,
negative,negative,1,j,l,,,,,,,,,9,0,162,0,,,,,,,,,main,1,1,1,negative,negative,l,l,1,0.7137004000251181,454.88699600001564,455.89913180001895,455.8852851999982,None,454.88699600001564,None,454.88699600001564,None,454.88699600001564,None,456.5990519100131,None,456.5990519100131,None,456.5990519100131,None,,,,,,,,,,,,,,019,2022-05-13_15h30.21.601,Main,2022.1.1,58.891358397706654,
negative,negative,2,j,l,,,,,,,,,9,1,163,9,,,,,,,,,main,2,2,2,negative,negative,l,l,1,0.631571800011443,456.60887610001373,457.6157041999977,457.59909410000546,None,456.60887610001373,None,456.60887610001373,None,456.60887610001373,None,458.2324688100169,None,458.2324688100169,None,458.2324688100169,None,,,,,,,,,,,,,,019,2022-05-13_15h30.21.601,Main,2022.1.1,58.891358397706654,
positive,neutral,2,l,j,,,,,,,,,9,2,164,17,,,,,,,,,main,2,2,2,neutral,positive,j,j,1,0.8481993000023067,458.2359190999996,459.2490116000117,459.23235160001786,None,458.2359190999996,None,458.2359190999996,None,458.2359190999996,None,460.0823307100189,None,460.0823307100189,None,460.0823307100189,None,,,,,,,,,,,,,,019,2022-05-13_15h30.21.601,Main,2022.1.1,58.891358397706654,
positive,negative,1,l,j,,,,,,,,,9,3,165,5,,,,,,,,,main,2,2,1,negative,positive,j,j,1,0.6474300000118092,460.0885245000245,461.10179260000587,461.08235380001133,None,460.0885245000245,None,460.0885245000245,None,460.0885245000245,None,461.73230021001365,None,461.73230021001365,None,461.73230021001365,None,,,,,,,,,,,,,,019,2022-05-13_15h30.21.601,Main,2022.1.1,58.891358397706654,
neutral,neutral,1,k,k,,,,,,,,,9,4,166,1,,,,,,,,,main,2,2,1,neutral,neutral,k,k,1,0.681731500022579,461.7353240000084,462.7322708000138,462.7185022000049,None,461.7353240000084,None,461.7353240000084,None,461.7353240000084,None,463.4156715100078,None,463.4156715100078,None,463.4156715100078,None,,,,,,,,,,,,,,019,2022-05-13_15h30.21.601,Main,2022.1.1,58.891358397706654,
neutral,negative,1,k,k,,,,,,,,,9,5,167,7,,,,,,,,,main,2,2,1,negative,neutral,k,k,1,0.5984486000088509,463.4190929000033,464.43233229999896,464.41558729999815,None,463.4190929000033,None,463.4190929000033,None,463.4190929000033,None,465.01569501001796,None,465.01569501001796,None,465.01569501001796,None,,,,,,,,,,,,,,019,2022-05-13_15h30.21.601,Main,2022.1.1,58.891358397706654,
positive,positive,2,l,j,,,,,,,,,9,6,168,11,,,,,,,,,main,1,1,2,positive,positive,j,j,1,0.5636234999983571,465.0199142000056,466.03220660000807,466.0155503000133,None,465.0199142000056,None,465.0199142000056,None,465.0199142000056,None,466.58217041002064,None,466.58217041002064,None,466.58217041002064,None,,,,,,,,,,,,,,019,2022-05-13_15h30.21.601,Main,2022.1.1,58.891358397706654,
negative,neutral,2,j,l,,,,,,,,,9,7,169,12,,,,,,,,,main,2,2,2,neutral,negative,l,l,1,0.7654335999977775,466.58521920000203,467.5989015000232,467.5654979000101,None,466.58521920000203,None,466.58521920000203,None,466.58521920000203,None,468.34895571000817,None,468.34895571000817,None,468.34895571000817,None,,,,,,,,,,,,,,019,2022-05-13_15h30.21.601,Main,2022.1.1,58.891358397706654,
negative,positive,1,j,l,,,,,,,,,9,8,170,6,,,,,,,,,main,1,1,1,positive,negative,l,l,1,0.6481056000047829,468.3550550000218,469.36553510001977,469.3517498000001,None,468.3550550000218,None,468.3550550000218,None,468.3550550000218,None,469.9988384100114,None,469.9988384100114,None,469.9988384100114,None,,,,,,,,,,,,,,019,2022-05-13_15h30.21.601,Main,2022.1.1,58.891358397706654,
neutral,positive,1,k,k,,,,,,,,,9,9,171,4,,,,,,,,,main,1,1,1,positive,neutral,k,k,1,0.6648703000100795,470.00478139999905,471.01545150001766,471.0016444000066,None,470.00478139999905,None,470.00478139999905,None,470.00478139999905,None,471.66540241002514,None,471.66540241002514,None,471.66540241002514,None,,,,,,,,,,,,,,019,2022-05-13_15h30.21.601,Main,2022.1.1,58.891358397706654,
positive,negative,2,l,j,,,,,,,,,9,10,172,14,,,,,,,,,main,1,1,2,negative,positive,j,j,1,0.6649813999829348,471.66943400001037,472.6820540000044,472.66539560002275,None,471.66943400001037,None,471.66943400001037,None,471.66943400001037,None,473.3320540100074,None,473.3320540100074,None,473.3320540100074,None,,,,,,,,,,,,,,019,2022-05-13_15h30.21.601,Main,2022.1.1,58.891358397706654,
positive,neutral,1,l,j,,,,,,,,,9,11,173,8,,,,,,,,,main,2,2,1,neutral,positive,j,j,1,0.5317113999917638,473.3350462000235,474.3320351000002,474.3181868000247,None,473.3350462000235,None,473.3350462000235,None,473.3350462000235,None,474.865354210019,None,474.865354210019,None,474.865354210019,None,,,,,,,,,,,,,,019,2022-05-13_15h30.21.601,Main,2022.1.1,58.891358397706654,
positive,positive,1,l,j,,,,,,,,,9,12,174,2,,,,,,,,,main,1,1,1,positive,positive,j,j,1,0.5161510000179987,474.8697530000063,475.8820125000202,475.86537210000097,None,474.8697530000063,None,474.8697530000063,None,474.8697530000063,None,476.3819696100225,None,476.3819696100225,None,476.3819696100225,None,,,,,,,,,,,,,,019,2022-05-13_15h30.21.601,Main,2022.1.1,58.891358397706654,
negative,neutral,1,j,l,,,,,,,,,9,13,175,3,,,,,,,,,main,1,1,1,neutral,negative,l,l,1,0.6139532999950461,476.3859969000041,477.4015264000045,477.38493700002437,None,476.3859969000041,None,476.3859969000041,None,476.3859969000041,None,477.99863671001805,None,477.99863671001805,None,477.99863671001805,None,,,,,,,,,,,,,,019,2022-05-13_15h30.21.601,Main,2022.1.1,58.891358397706654,
neutral,negative,2,k,k,,,,,,,,,9,14,176,16,,,,,,,,,main,1,1,2,negative,neutral,k,k,1,0.6149915999849327,478.001803799998,479.00152089999756,479.00152089999756,None,478.001803799998,None,478.001803799998,None,478.001803799998,None,479.6153066100058,None,479.6153066100058,None,479.6153066100058,None,,,,,,,,,,,,,,019,2022-05-13_15h30.21.601,Main,2022.1.1,58.891358397706654,
neutral,neutral,2,k,k,,,,,,,,,9,15,177,10,,,,,,,,,main,1,1,2,neutral,neutral,k,k,1,0.5150346999871545,479.61822820000816,480.6152232000022,480.6013912000053,None,479.61822820000816,None,479.61822820000816,None,479.61822820000816,None,481.13190351001396,None,481.13190351001396,None,481.13190351001396,None,,,,,,,,,,,,,,019,2022-05-13_15h30.21.601,Main,2022.1.1,58.891358397706654,
negative,positive,2,j,l,,,,,,,,,9,16,178,15,,,,,,,,,main,2,2,2,positive,negative,l,l,1,0.718553399987286,481.1352217000094,482.1486276000214,482.1318853000121,None,481.1352217000094,None,481.1352217000094,None,481.1352217000094,None,482.85184731002374,None,482.85184731002374,None,482.85184731002374,None,,,,,,,,,,,,,,019,2022-05-13_15h30.21.601,Main,2022.1.1,58.891358397706654,
neutral,positive,2,k,k,,,,,,,,,9,17,179,13,,,,,,,,,main,1,1,2,positive,neutral,k,k,1,0.7142763000156265,482.85487900002045,483.86810710001737,483.84852180001326,None,482.85487900002045,None,482.85487900002045,None,482.85487900002045,None,484.5679388100078,None,484.5679388100078,None,484.5679388100078,None,,,,,,,,,,,,,,019,2022-05-13_15h30.21.601,Main,2022.1.1,58.891358397706654,
negative,negative,2,j,l,,,,,,,,,10,0,180,9,,,,,,,,,main,1,1,2,negative,negative,l,l,1,0.5956726000003982,484.57062959999894,485.5845202000055,485.56514280001284,None,484.57062959999894,None,484.57062959999894,None,484.57062959999894,None,486.1652287100122,None,486.1652287100122,None,486.1652287100122,None,,,,,,,,,,,,,,019,2022-05-13_15h30.21.601,Main,2022.1.1,58.891358397706654,
negative,positive,1,j,l,,,,,,,,,10,1,181,6,,,,,,,,,main,2,2,1,positive,negative,l,l,1,0.6317727999994531,486.16851529999985,487.16806950001046,487.16806950001046,None,486.16851529999985,None,486.16851529999985,None,486.16851529999985,None,487.798439610019,None,487.798439610019,None,487.798439610019,None,,,,,,,,,,,,,,019,2022-05-13_15h30.21.601,Main,2022.1.1,58.891358397706654,
positive,negative,2,l,j,,,,,,,,,10,2,182,14,,,,,,,,,main,1,1,2,negative,positive,j,j,1,0.6813093000091612,487.801669700013,488.8150883000053,488.7984806000022,None,487.801669700013,None,487.801669700013,None,487.801669700013,None,489.4814916100266,None,489.4814916100266,None,489.4814916100266,None,,,,,,,,,,,,,,019,2022-05-13_15h30.21.601,Main,2022.1.1,58.891358397706654,
neutral,positive,1,k,k,,,,,,,,,10,3,183,4,,,,,,,,,main,2,2,1,positive,neutral,k,k,1,0.6488292000140063,489.4848497000057,490.4984334000037,490.4816907000204,None,489.4848497000057,None,489.4848497000057,None,489.4848497000057,None,491.1318439100258,None,491.1318439100258,None,491.1318439100258,None,,,,,,,,,,,,,,019,2022-05-13_15h30.21.601,Main,2022.1.1,58.891358397706654,
positive,positive,1,l,j,,,,,,,,,10,4,184,2,,,,,,,,,main,2,2,1,positive,positive,j,j,1,0.6841924999898765,491.1380866999971,492.14842750001117,492.1316787000105,None,491.1380866999971,None,491.1380866999971,None,491.1380866999971,None,492.81776971000073,None,492.81776971000073,None,492.81776971000073,None,,,,,,,,,,,,,,019,2022-05-13_15h30.21.601,Main,2022.1.1,58.891358397706654,
positive,positive,2,l,j,,,,,,,,,10,5,185,11,,,,,,,,,main,1,1,2,positive,positive,j,j,1,0.5790626000089105,492.82038640000974,493.831651000015,493.8149884000013,None,492.82038640000974,None,492.82038640000974,None,492.82038640000974,None,494.39827751001286,None,494.39827751001286,None,494.39827751001286,None,,,,,,,,,,,,,,019,2022-05-13_15h30.21.601,Main,2022.1.1,58.891358397706654,
neutral,negative,1,k,k,,,,,,,,,10,6,186,7,,,,,,,,,main,2,2,1,negative,neutral,k,k,1,0.5985861000081059,494.4016188000096,495.3983599000203,495.3983599000203,None,494.4016188000096,None,494.4016188000096,None,494.4016188000096,None,495.9983232100174,None,495.9983232100174,None,495.9983232100174,None,,,,,,,,,,,,,,019,2022-05-13_15h30.21.601,Main,2022.1.1,58.891358397706654,
negative,negative,1,j,l,,,,,,,,,10,7,187,0,,,,,,,,,main,1,1,1,negative,negative,l,l,1,0.6314421000133734,496.00194159999955,497.0149665000208,497.0010831000109,None,496.00194159999955,None,496.00194159999955,None,496.00194159999955,None,497.6315539100004,None,497.6315539100004,None,497.6315539100004,None,,,,,,,,,,,,,,019,2022-05-13_15h30.21.601,Main,2022.1.1,58.891358397706654,
neutral,negative,2,k,k,,,,,,,,,10,8,188,16,,,,,,,,,main,1,1,2,negative,neutral,k,k,1,0.6981916000077035,497.63493030000245,498.6315373000107,498.6315373000107,None,497.63493030000245,None,497.63493030000245,None,497.63493030000245,None,499.3315268100094,None,499.3315268100094,None,499.3315268100094,None,,,,,,,,,,,,,,019,2022-05-13_15h30.21.601,Main,2022.1.1,58.891358397706654,
positive,neutral,1,l,j,,,,,,,,,10,9,189,8,,,,,,,,,main,1,1,1,neutral,positive,j,j,1,0.6651802000124007,499.33492890000343,500.3482617000118,500.31485270001576,None,499.33492890000343,None,499.33492890000343,None,499.33492890000343,None,500.9981734100118,None,500.9981734100118,None,500.9981734100118,None,,,,,,,,,,,,,,019,2022-05-13_15h30.21.601,Main,2022.1.1,58.891358397706654,
positive,neutral,2,l,j,,,,,,,,,10,10,190,17,,,,,,,,,main,1,1,2,neutral,positive,j,j,1,0.5676113999797963,501.00265910002054,502.01481950000743,501.99818540000706,None,501.00265910002054,None,501.00265910002054,None,501.00265910002054,None,502.56760591000494,None,502.56760591000494,None,502.56760591000494,None,,,,,,,,,,,,,,019,2022-05-13_15h30.21.601,Main,2022.1.1,58.891358397706654,
negative,neutral,1,j,l,,,,,,,,,10,11,191,3,,,,,,,,,main,2,2,1,neutral,negative,l,l,1,0.7123335999785922,502.5702527000103,503.5843556000036,503.56479060000856,None,502.5702527000103,None,502.5702527000103,None,502.5702527000103,None,504.2814073100133,None,504.2814073100133,None,504.2814073100133,None,,,,,,,,,,,,,,019,2022-05-13_15h30.21.601,Main,2022.1.1,58.891358397706654,
positive,negative,1,l,j,,,,,,,,,10,12,192,5,,,,,,,,,main,1,1,1,negative,positive,j,j,1,1.1149786000023596,504.2846117000154,505.29814749999787,505.2814184000017,None,504.2846117000154,None,504.2846117000154,None,504.2846117000154,None,506.39804521001935,None,506.39804521001935,None,506.39804521001935,None,,,,,,,,,,,,,,019,2022-05-13_15h30.21.601,Main,2022.1.1,58.891358397706654,
neutral,positive,2,k,k,,,,,,,,,10,13,193,13,,,,,,,,,main,1,1,2,positive,neutral,k,k,1,0.6476665000081994,506.4025634000136,507.414706200012,507.3980950000114,None,506.4025634000136,None,506.4025634000136,None,506.4025634000136,None,508.0480264100159,None,508.0480264100159,None,508.0480264100159,None,,,,,,,,,,,,,,019,2022-05-13_15h30.21.601,Main,2022.1.1,58.891358397706654,
neutral,neutral,2,k,k,,,,,,,,,10,14,194,10,,,,,,,,,main,2,2,2,neutral,neutral,k,k,1,0.7648064999957569,508.0519036000187,509.06756570001016,509.0480152000091,None,508.0519036000187,None,508.0519036000187,None,508.0519036000187,None,509.81470010999766,None,509.81470010999766,None,509.81470010999766,None,,,,,,,,,,,,,,019,2022-05-13_15h30.21.601,Main,2022.1.1,58.891358397706654,
negative,positive,2,j,l,,,,,,,,,10,15,195,15,,,,,,,,,main,2,2,2,positive,negative,l,l,1,0.6014840999851003,509.81791040001553,510.8146056999976,510.8146056999976,None,509.81791040001553,None,509.81791040001553,None,509.81791040001553,None,511.41744471000567,None,511.41744471000567,None,511.41744471000567,None,,,,,,,,,,,,,,019,2022-05-13_15h30.21.601,Main,2022.1.1,58.891358397706654,
negative,neutral,2,j,l,,,,,,,,,10,16,196,12,,,,,,,,,main,1,1,2,neutral,negative,l,l,1,0.5618991999945138,511.42065840002033,512.4341440999997,512.4146559000073,None,511.42065840002033,None,511.42065840002033,None,511.42065840002033,None,512.981257210017,None,512.981257210017,None,512.981257210017,None,,,,,,,,,,,,,,019,2022-05-13_15h30.21.601,Main,2022.1.1,58.891358397706654,
neutral,neutral,1,k,k,,,,,,,,,10,17,197,1,,,,,,,,,main,1,1,1,neutral,neutral,k,k,1,0.5171212000132073,512.984296700015,514.0006727,513.9812466000149,None,512.984296700015,None,512.984296700015,None,512.984296700015,None,514.5000979100266,None,514.5000979100266,None,514.5000979100266,None,,,,,,,,,,,,,,019,2022-05-13_15h30.21.601,Main,2022.1.1,58.891358397706654,
negative,neutral,1,j,l,,,,,,,,,11,0,198,3,,,,,,,,,main,2,2,1,neutral,negative,l,l,1,0.7810491000127513,514.5051211000246,515.5174372000038,515.5007571000024,None,514.5051211000246,None,514.5051211000246,None,514.5051211000246,None,516.2813288099976,None,516.2813288099976,None,516.2813288099976,None,,,,,,,,,,,,,,019,2022-05-13_15h30.21.601,Main,2022.1.1,58.891358397706654,
neutral,neutral,1,k,k,,,,,,,,,11,1,199,1,,,,,,,,,main,2,2,1,neutral,neutral,k,k,1,0.635140099999262,516.2855619000038,517.300650500023,517.2811725000211,None,516.2855619000038,None,516.2855619000038,None,516.2855619000038,None,517.9172461100068,None,517.9172461100068,None,517.9172461100068,None,,,,,,,,,,,,,,019,2022-05-13_15h30.21.601,Main,2022.1.1,58.891358397706654,
positive,negative,2,l,j,,,,,,,,,11,2,200,14,,,,,,,,,main,1,1,2,negative,positive,j,j,1,0.6090570999949705,517.9274590999994,518.9311578000197,518.9311578000197,None,517.9274590999994,None,517.9274590999994,None,517.9274590999994,None,519.5311111099988,None,519.5311111099988,None,519.5311111099988,None,,,,,,,,,,,,,,019,2022-05-13_15h30.21.601,Main,2022.1.1,58.891358397706654,
neutral,neutral,2,k,k,,,,,,,,,11,3,201,10,,,,,,,,,main,2,2,2,neutral,neutral,k,k,1,0.5484484999906272,519.534262000001,520.5505260000064,520.5144142000063,None,519.534262000001,None,519.534262000001,None,519.534262000001,None,521.0810796100093,None,521.0810796100093,None,521.0810796100093,None,,,,,,,,,,,,,,019,2022-05-13_15h30.21.601,Main,2022.1.1,58.891358397706654,
neutral,negative,2,k,k,,,,,,,,,11,4,202,16,,,,,,,,,main,1,1,2,negative,neutral,k,k,1,0.6024344000034034,521.0841988000029,522.0977756000066,522.0810655000096,None,521.0841988000029,None,521.0841988000029,None,521.0841988000029,None,522.6810383100208,None,522.6810383100208,None,522.6810383100208,None,,,,,,,,,,,,,,019,2022-05-13_15h30.21.601,Main,2022.1.1,58.891358397706654,
positive,neutral,1,l,j,,,,,,,,,11,5,203,8,,,,,,,,,main,2,2,1,neutral,positive,j,j,1,0.5775628999981564,522.6880161000008,523.7006082000153,523.6810365999991,None,522.6880161000008,None,522.6880161000008,None,522.6880161000008,None,524.2643518100056,None,524.2643518100056,None,524.2643518100056,None,,,,,,,,,,,,,,019,2022-05-13_15h30.21.601,Main,2022.1.1,58.891358397706654,
negative,positive,2,j,l,,,,,,,,,11,6,204,15,,,,,,,,,main,2,2,2,positive,negative,l,l,1,0.6650893999903928,524.2677411000186,525.283779200021,525.2643320000207,None,524.2677411000186,None,524.2677411000186,None,524.2677411000186,None,525.9309521100047,None,525.9309521100047,None,525.9309521100047,None,,,,,,,,,,,,,,019,2022-05-13_15h30.21.601,Main,2022.1.1,58.891358397706654,
positive,positive,2,l,j,,,,,,,,,11,7,205,11,,,,,,,,,main,1,1,2,positive,positive,j,j,1,0.7983105999883264,525.9341633000004,526.9476667999988,526.930997700023,None,525.9341633000004,None,525.9341633000004,None,525.9341633000004,None,527.7309481100208,None,527.7309481100208,None,527.7309481100208,None,,,,,,,,,,,,,,019,2022-05-13_15h30.21.601,Main,2022.1.1,58.891358397706654,
negative,negative,1,j,l,,,,,,,,,11,8,206,0,,,,,,,,,main,2,2,1,negative,negative,l,l,1,0.6523444000049494,527.7341774000088,528.7504138000077,528.7310142000206,None,527.7341774000088,None,527.7341774000088,None,527.7341774000088,None,529.384792810012,None,529.384792810012,None,529.384792810012,None,,,,,,,,,,,,,,019,2022-05-13_15h30.21.601,Main,2022.1.1,58.891358397706654,
neutral,positive,2,k,k,,,,,,,,,11,9,207,13,,,,,,,,,main,1,1,2,positive,neutral,k,k,1,0.7612884000118356,529.3881475000235,530.4003869000007,530.3809029000113,None,529.3881475000235,None,529.3881475000235,None,529.3881475000235,None,531.1475452100246,None,531.1475452100246,None,531.1475452100246,None,,,,,,,,,,,,,,019,2022-05-13_15h30.21.601,Main,2022.1.1,58.891358397706654,
positive,negative,1,l,j,,,,,,,,,11,10,208,5,,,,,,,,,main,2,2,1,negative,positive,j,j,1,0.6317352000041865,531.1512673000107,532.1642013000092,532.147560500016,None,531.1512673000107,None,531.1512673000107,None,531.1512673000107,None,532.7809103100124,None,532.7809103100124,None,532.7809103100124,None,,,,,,,,,,,,,,019,2022-05-13_15h30.21.601,Main,2022.1.1,58.891358397706654,
neutral,positive,1,k,k,,,,,,,,,11,11,209,4,,,,,,,,,main,1,1,1,positive,neutral,k,k,1,0.6138740999740548,532.7848835000186,533.800318900001,533.7808404000243,None,532.7848835000186,None,532.7848835000186,None,532.7848835000186,None,534.3972511100262,None,534.3972511100262,None,534.3972511100262,None,,,,,,,,,,,,,,019,2022-05-13_15h30.21.601,Main,2022.1.1,58.891358397706654,
positive,neutral,2,l,j,,,,,,,,,11,12,210,17,,,,,,,,,main,2,2,2,neutral,positive,j,j,1,0.6024477999890223,534.4035720000102,535.41413010002,535.4003385000105,None,534.4035720000102,None,534.4035720000102,None,534.4035720000102,None,536.0003264100203,None,536.0003264100203,None,536.0003264100203,None,,,,,,,,,,,,,,019,2022-05-13_15h30.21.601,Main,2022.1.1,58.891358397706654,
positive,positive,1,l,j,,,,,,,,,11,13,211,2,,,,,,,,,main,2,2,1,positive,positive,j,j,1,0.5945062999962829,536.0044177000236,537.0141890000086,537.0003270000161,None,536.0044177000236,None,536.0044177000236,None,536.0044177000236,None,537.597431310013,None,537.597431310013,None,537.597431310013,None,,,,,,,,,,,,,,019,2022-05-13_15h30.21.601,Main,2022.1.1,58.891358397706654,
negative,neutral,2,j,l,,,,,,,,,11,14,212,12,,,,,,,,,main,1,1,2,neutral,negative,l,l,1,0.7650771000189707,537.6005090000108,538.6140449000231,538.6002941000042,None,537.6005090000108,None,537.6005090000108,None,537.6005090000108,None,539.3641412100085,None,539.3641412100085,None,539.3641412100085,None,,,,,,,,,,,,,,019,2022-05-13_15h30.21.601,Main,2022.1.1,58.891358397706654,
neutral,negative,1,k,k,,,,,,,,,11,15,213,7,,,,,,,,,main,1,1,1,negative,neutral,k,k,1,0.597880500019528,539.3677986999974,540.3807163000165,540.3640269000025,None,539.3677986999974,None,539.3677986999974,None,539.3677986999974,None,540.9640385100181,None,540.9640385100181,None,540.9640385100181,None,,,,,,,,,,,,,,019,2022-05-13_15h30.21.601,Main,2022.1.1,58.891358397706654,
negative,positive,1,j,l,,,,,,,,,11,16,214,6,,,,,,,,,main,2,2,1,positive,negative,l,l,1,0.8147976000036579,540.9673065000097,541.9639887000085,541.9639887000085,None,540.9673065000097,None,540.9673065000097,None,540.9673065000097,None,542.7803900100087,None,542.7803900100087,None,542.7803900100087,None,,,,,,,,,,,,,,019,2022-05-13_15h30.21.601,Main,2022.1.1,58.891358397706654,
negative,negative,2,j,l,,,,,,,,,11,17,215,9,,,,,,,,,main,2,2,2,negative,negative,l,l,1,0.6653793000150472,542.7866584000003,543.7973482000234,543.7639759000158,None,542.7866584000003,None,542.7866584000003,None,542.7866584000003,None,544.4474048100208,None,544.4474048100208,None,544.4474048100208,None,,,,,,,,,,,,,,019,2022-05-13_15h30.21.601,Main,2022.1.1,58.891358397706654,
negative,neutral,1,j,l,,,,,,,,,12,0,216,3,,,,,,,,,main,2,2,1,neutral,negative,l,l,1,0.5814251000119839,544.4578494000016,545.466799900023,545.4472659000021,None,544.4578494000016,None,544.4578494000016,None,544.4578494000016,None,546.0305581100081,None,546.0305581100081,None,546.0305581100081,None,,,,,,,,,,,,,,019,2022-05-13_15h30.21.601,Main,2022.1.1,58.891358397706654,
negative,positive,2,j,l,,,,,,,,,12,1,217,15,,,,,,,,,main,1,1,2,positive,negative,l,l,1,0.6846558000252116,546.0337737000082,547.0472330000193,547.0335651000205,None,546.0337737000082,None,546.0337737000082,None,546.0337737000082,None,547.7168455100007,None,547.7168455100007,None,547.7168455100007,None,,,,,,,,,,,,,,019,2022-05-13_15h30.21.601,Main,2022.1.1,58.891358397706654,
neutral,neutral,1,k,k,,,,,,,,,12,2,218,1,,,,,,,,,main,2,2,1,neutral,neutral,k,k,1,1.061957599973539,547.7195770000108,548.730529100023,548.7138738000067,None,547.7195770000108,None,547.7195770000108,None,547.7195770000108,None,549.7804936100117,None,549.7804936100117,None,549.7804936100117,None,,,,,,,,,,,,,,019,2022-05-13_15h30.21.601,Main,2022.1.1,58.891358397706654,
negative,neutral,2,j,l,,,,,,,,,12,3,219,12,,,,,,,,,main,1,1,2,neutral,negative,l,l,1,0.6985108999942895,549.7836242000049,550.799937600008,550.763829500007,None,549.7836242000049,None,549.7836242000049,None,549.7836242000049,None,551.4805496100132,None,551.4805496100132,None,551.4805496100132,None,,,,,,,,,,,,,,019,2022-05-13_15h30.21.601,Main,2022.1.1,58.891358397706654,
neutral,positive,1,k,k,,,,,,,,,12,4,220,4,,,,,,,,,main,1,1,1,positive,neutral,k,k,1,0.5494252999778837,551.4837165000208,552.4999348999991,552.480455700017,None,551.4837165000208,None,551.4837165000208,None,551.4837165000208,None,553.0304066100186,None,553.0304066100186,None,553.0304066100186,None,,,,,,,,,,,,,,019,2022-05-13_15h30.21.601,Main,2022.1.1,58.891358397706654,
positive,negative,2,l,j,,,,,,,,,12,5,221,14,,,,,,,,,main,2,2,2,negative,positive,j,j,1,0.5472577000036836,553.0364868000033,554.049808300013,554.0332452000002,None,553.0364868000033,None,553.0364868000033,None,553.0364868000033,None,554.5805298100138,None,554.5805298100138,None,554.5805298100138,None,,,,,,,,,,,,,,019,2022-05-13_15h30.21.601,Main,2022.1.1,58.891358397706654,
neutral,negative,2,k,k,,,,,,,,,12,6,222,16,,,,,,,,,main,2,2,2,negative,neutral,k,k,1,0.9162329999962822,554.5841842000082,555.5971220000065,555.5804023000237,None,554.5841842000082,None,554.5841842000082,None,554.5841842000082,None,556.4970838100096,None,556.4970838100096,None,556.4970838100096,None,,,,,,,,,,,,,,019,2022-05-13_15h30.21.601,Main,2022.1.1,58.891358397706654,
