target,distractor,set,ans1,ans2,rep_loop2.thisRepN,rep_loop2.thisTrialN,rep_loop2.thisN,rep_loop2.thisIndex,flanker_prac_loop.thisRepN,flanker_prac_loop.thisTrialN,flanker_prac_loop.thisN,flanker_prac_loop.thisIndex,flanker_main_loop.thisRepN,flanker_main_loop.thisTrialN,flanker_main_loop.thisN,flanker_main_loop.thisIndex,fl_inst_resp.keys,fl_inst_resp.rt,sound_1.started,sound_1.stopped,image_4.started,image_4.stopped,back_2.started,back_2.stopped,main_prac,fl_cold,fl_colt,fl_set,fl_dcond,fl_tcond,fl_ans,fl_res,fl_corr,fl_rt,fix_fl.started,fix_fl.stopped,targ.started,targ.stopped,j_button.started,j_button.stopped,k_button.started,k_button.stopped,l_button.started,l_button.stopped,j_button2.started,j_button2.stopped,k_button2.started,k_button2.stopped,l_button2.started,l_button2.stopped,mainback.started,mainback.stopped,key_resp.keys,key_resp.rt,mouse_6.x,mouse_6.y,mouse_6.leftButton,mouse_6.midButton,mouse_6.rightButton,mouse_6.started,mouse_6.stopped,text_2.started,text_2.stopped,id*,date,expName,psychopyVersion,frameRate,
,,,,,0,0,0,0,,,,,,,,,space,54.53758010000456,27.83380150999583,None,82.3974188999855,None,,,,,,,,,,,,,,,,,,,,,,,,,,,,,,,,,,,,,,,,,,020,2022-05-17_10h34.31.400,Main,2022.1.1,60.00841317722351,
positive,positive,1,l,j,,,,,0,0,0,2,,,,,,,,,,,86.03268779997597,None,prac,2,2,1,positive,positive,l,l,1,1.6290024000045378,88.07234739998239,89.07996419997653,89.06328559998656,None,88.07234739998239,None,88.07234739998239,None,88.07234739998239,None,90.70371919998433,None,90.70371919998433,None,90.70371919998433,None,,,,,,,,,,,,,,020,2022-05-17_10h34.31.400,Main,2022.1.1,60.00841317722351,
positive,negative,1,l,j,,,,,0,1,1,5,,,,,,,,,,,,,prac,1,1,1,negative,positive,l,l,1,0.9020715999940876,91.71721599999,92.73246199998539,92.71581799999694,None,91.71721599999,None,91.71721599999,None,91.71721599999,None,93.61349150999158,None,93.61349150999158,None,93.61349150999158,None,,,,,,,,,,,,,,020,2022-05-17_10h34.31.400,Main,2022.1.1,60.00841317722351,
negative,neutral,1,j,l,,,,,0,2,2,3,,,,,,,,,,,,,prac,1,1,1,neutral,negative,j,j,1,1.1797456999775022,93.62690089998068,94.63242660000105,94.61585799997556,None,93.62690089998068,None,93.62690089998068,None,93.62690089998068,None,95.79678130997635,None,95.79678130997635,None,95.79678130997635,None,,,,,,,,,,,,,,020,2022-05-17_10h34.31.400,Main,2022.1.1,60.00841317722351,
neutral,negative,2,k,k,,,,,0,3,3,16,,,,,,,,,,,,,prac,2,2,2,negative,neutral,k,k,1,0.8823417999956291,95.81099919998087,96.81571919997805,96.79912419998436,None,95.81099919998087,None,95.81099919998087,None,95.81099919998087,None,97.68042810998449,None,97.68042810998449,None,97.68042810998449,None,,,,,,,,,,,,,,020,2022-05-17_10h34.31.400,Main,2022.1.1,60.00841317722351,
neutral,neutral,1,k,k,,,,,0,4,4,1,,,,,,,,,,,,,prac,1,1,1,neutral,neutral,k,k,1,0.9980288999795448,97.68583750000107,98.69642480000039,98.6797650999797,None,97.68583750000107,None,97.68583750000107,None,97.68583750000107,None,99.6796713099844,None,99.6796713099844,None,99.6796713099844,None,,,,,,,,,,,,,,020,2022-05-17_10h34.31.400,Main,2022.1.1,60.00841317722351,
neutral,positive,1,k,k,,,,,0,5,5,4,,,,,,,,,,,,,prac,1,1,1,positive,neutral,k,k,1,0.7659228999982588,99.6892230999947,100.69644719999633,100.67977879999671,None,99.6892230999947,None,99.6892230999947,None,99.6892230999947,None,101.44667540997906,None,101.44667540997906,None,101.44667540997906,None,,,,,,,,,,,,,,020,2022-05-17_10h34.31.400,Main,2022.1.1,60.00841317722351,
negative,positive,1,j,l,,,,,0,6,6,6,,,,,,,,,,,,,prac,1,1,1,positive,negative,j,j,1,0.9161992000008468,101.45205719998921,102.46563189997687,102.44906499999342,None,101.45205719998921,None,101.45205719998921,None,101.45205719998921,None,103.3632930099935,None,103.3632930099935,None,103.3632930099935,None,,,,,,,,,,,,,,020,2022-05-17_10h34.31.400,Main,2022.1.1,60.00841317722351,
positive,positive,2,l,j,,,,,0,7,7,11,,,,,,,,,,,,,prac,2,2,2,positive,positive,l,l,1,0.8812710999918636,103.37814449999132,104.37992249999661,104.36560759998974,None,103.37814449999132,None,103.37814449999132,None,103.37814449999132,None,105.24666740999382,None,105.24666740999382,None,105.24666740999382,None,,,,,,,,,,,,,,020,2022-05-17_10h34.31.400,Main,2022.1.1,60.00841317722351,
positive,negative,2,l,j,,,,,0,8,8,14,,,,,,,,,,,,,prac,1,1,2,negative,positive,l,l,1,0.6856407000159379,105.26102439998067,106.2633124999993,106.24666109998361,None,105.26102439998067,None,105.26102439998067,None,105.26102439998067,None,106.92988870998087,None,106.92988870998087,None,106.92988870998087,None,,,,,,,,,,,,,,020,2022-05-17_10h34.31.400,Main,2022.1.1,60.00841317722351,
positive,neutral,2,l,j,,,,,0,9,9,17,,,,,,,,,,,,,prac,1,1,2,neutral,positive,l,l,1,0.6445909999893047,106.94902179998462,107.96258259998285,107.94595779999509,None,106.94902179998462,None,106.94902179998462,None,106.94902179998462,None,108.5795023100014,None,108.5795023100014,None,108.5795023100014,None,,,,,,,,,,,,,,020,2022-05-17_10h34.31.400,Main,2022.1.1,60.00841317722351,
negative,neutral,2,j,l,,,,,0,10,10,12,,,,,,,,,,,,,prac,1,1,2,neutral,negative,j,j,1,0.8477461999864317,108.57991669999319,109.57957789997454,109.57957789997454,None,108.57991669999319,None,108.57991669999319,None,108.57991669999319,None,110.42951540999056,None,110.42951540999056,None,110.42951540999056,None,,,,,,,,,,,,,,020,2022-05-17_10h34.31.400,Main,2022.1.1,60.00841317722351,
negative,negative,1,j,l,,,,,0,11,11,0,,,,,,,,,,,,,prac,1,1,1,negative,negative,j,j,1,0.7660969999851659,110.43271259998437,111.43222659997991,111.43222659997991,None,110.43271259998437,None,110.43271259998437,None,110.43271259998437,None,112.19656040997651,None,112.19656040997651,None,112.19656040997651,None,,,,,,,,,,,,,,020,2022-05-17_10h34.31.400,Main,2022.1.1,60.00841317722351,
negative,positive,2,j,l,,,,,0,12,12,15,,,,,,,,,,,,,prac,2,2,2,positive,negative,j,j,1,0.764001500006998,112.20291559997713,113.21544359999825,113.19872159999795,None,112.20291559997713,None,112.20291559997713,None,112.20291559997713,None,113.96309550997975,None,113.96309550997975,None,113.96309550997975,None,,,,,,,,,,,,,,020,2022-05-17_10h34.31.400,Main,2022.1.1,60.00841317722351,
neutral,neutral,2,k,k,,,,,0,13,13,10,,,,,,,,,,,,,prac,1,1,2,neutral,neutral,k,k,1,0.6983965999970678,113.96863550000126,114.9797882999992,114.9654255999776,None,113.96863550000126,None,113.96863550000126,None,113.96863550000126,None,115.66316130999766,None,115.66316130999766,None,115.66316130999766,None,,,,,,,,,,,,,,020,2022-05-17_10h34.31.400,Main,2022.1.1,60.00841317722351,
neutral,negative,1,k,k,,,,,0,14,14,7,,,,,,,,,,,,,prac,1,1,1,negative,neutral,k,k,1,0.6156390999967698,115.66826619999483,116.67978229999426,116.64880199998152,None,115.66826619999483,None,115.66826619999483,None,115.66826619999483,None,117.27971220998151,None,117.27971220998151,None,117.27971220998151,None,,,,,,,,,,,,,,020,2022-05-17_10h34.31.400,Main,2022.1.1,60.00841317722351,
neutral,positive,2,k,k,,,,,0,15,15,13,,,,,,,,,,,,,prac,1,1,2,positive,neutral,k,k,1,0.6147122000111267,117.29809289998957,118.31273340000189,118.27961869997671,None,117.29809289998957,None,117.29809289998957,None,117.29809289998957,None,118.89597200998978,None,118.89597200998978,None,118.89597200998978,None,,,,,,,,,,,,,,020,2022-05-17_10h34.31.400,Main,2022.1.1,60.00841317722351,
positive,neutral,1,l,j,,,,,0,16,16,8,,,,,,,,,,,,,prac,2,2,1,neutral,positive,l,l,1,0.7157654000038747,118.90417819999857,119.91287119998015,119.89636189999874,None,118.90417819999857,None,118.90417819999857,None,118.90417819999857,None,120.61303630998881,None,120.61303630998881,None,120.61303630998881,None,,,,,,,,,,,,,,020,2022-05-17_10h34.31.400,Main,2022.1.1,60.00841317722351,
negative,negative,2,j,l,,,,,0,17,17,9,,,,,,,,,,,,,prac,1,1,2,negative,negative,j,j,1,0.8985539999848697,120.61923099998967,121.62972070000251,121.59873689999222,None,120.61923099998967,None,120.61923099998967,None,120.61923099998967,None,122.51294480998476,None,122.51294480998476,None,122.51294480998476,None,,,,,,,,,,,,,,020,2022-05-17_10h34.31.400,Main,2022.1.1,60.00841317722351,
positive,positive,2,l,j,,,,,1,0,18,11,,,,,,,,,,,,,prac,1,1,2,positive,positive,l,l,1,0.9322225000069011,122.5185317999858,123.53186160000041,123.51525989998481,None,122.5185317999858,None,122.5185317999858,None,122.5185317999858,None,124.4461946099851,None,124.4461946099851,None,124.4461946099851,None,,,,,,,,,,,,,,020,2022-05-17_10h34.31.400,Main,2022.1.1,60.00841317722351,
neutral,neutral,1,k,k,,,,,1,1,19,1,,,,,,,,,,,,,prac,2,2,1,neutral,neutral,k,k,1,0.8151118000096176,124.45187849999638,125.46521749999374,125.44629689998692,None,124.45187849999638,None,124.45187849999638,None,124.45187849999638,None,126.26288640997663,None,126.26288640997663,None,126.26288640997663,None,,,,,,,,,,,,,,020,2022-05-17_10h34.31.400,Main,2022.1.1,60.00841317722351,
positive,negative,2,l,j,,,,,1,2,20,14,,,,,,,,,,,,,prac,1,1,2,negative,positive,l,l,1,0.6486304999853019,126.26825399999507,127.281794599985,127.24855469999602,None,126.26825399999507,None,126.26825399999507,None,126.26825399999507,None,127.912830809984,None,127.912830809984,None,127.912830809984,None,,,,,,,,,,,,,,020,2022-05-17_10h34.31.400,Main,2022.1.1,60.00841317722351,
negative,neutral,2,j,l,,,,,1,3,21,12,,,,,,,,,,,,,prac,1,1,2,neutral,negative,j,j,1,1.048179400007939,127.91855229999055,128.9291932999913,128.91276659999858,None,127.91855229999055,None,127.91855229999055,None,127.91855229999055,None,129.962428109991,None,129.962428109991,None,129.962428109991,None,,,,,,,,,,,,,,020,2022-05-17_10h34.31.400,Main,2022.1.1,60.00841317722351,
neutral,neutral,2,k,k,,,,,1,4,22,10,,,,,,,,,,,,,prac,2,2,2,neutral,neutral,k,k,1,0.869712800020352,129.97290299998713,130.97920239999075,130.96254259999841,None,129.97290299998713,None,129.97290299998713,None,129.97290299998713,None,131.83326820998045,None,131.83326820998045,None,131.83326820998045,None,,,,,,,,,,,,,,020,2022-05-17_10h34.31.400,Main,2022.1.1,60.00841317722351,
negative,negative,1,j,l,,,,,1,5,23,0,,,,,,,,,,,,,prac,1,1,1,negative,negative,j,j,1,1.111896499991417,131.8361842999875,132.84833779998007,132.83174409999629,None,131.8361842999875,None,131.8361842999875,None,131.8361842999875,None,133.94669460997974,None,133.94669460997974,None,133.94669460997974,None,,,,,,,,,,,,,,020,2022-05-17_10h34.31.400,Main,2022.1.1,60.00841317722351,
negative,positive,2,j,l,,,,,1,6,24,15,,,,,,,,,,,,,prac,2,2,2,positive,negative,j,j,1,0.9150556999957189,133.95244079999975,134.96273829997517,134.9484254999843,None,133.95244079999975,None,133.95244079999975,None,133.95244079999975,None,135.86267270998505,None,135.86267270998505,None,135.86267270998505,None,,,,,,,,,,,,,,020,2022-05-17_10h34.31.400,Main,2022.1.1,60.00841317722351,
positive,positive,1,l,j,,,,,1,7,25,2,,,,,,,,,,,,,prac,2,2,1,positive,positive,l,l,1,0.8642229000106454,135.87420759999077,136.87936429999536,136.86498129999381,None,135.87420759999077,None,135.87420759999077,None,135.87420759999077,None,137.72924750997626,None,137.72924750997626,None,137.72924750997626,None,,,,,,,,,,,,,,020,2022-05-17_10h34.31.400,Main,2022.1.1,60.00841317722351,
neutral,negative,2,k,k,,,,,1,8,26,16,,,,,,,,,,,,,prac,2,2,2,negative,neutral,k,k,1,0.7316838999977335,137.73572029999923,138.74525279999943,138.72813389997464,None,137.73572029999923,None,137.73572029999923,None,137.73572029999923,None,139.46224510999454,None,139.46224510999454,None,139.46224510999454,None,,,,,,,,,,,,,,020,2022-05-17_10h34.31.400,Main,2022.1.1,60.00841317722351,
neutral,negative,1,k,k,,,,,1,9,27,7,,,,,,,,,,,,,prac,2,2,1,negative,neutral,k,k,1,0.9157753999752458,139.4706052999827,140.47893439998734,140.46257099998184,None,139.4706052999827,None,139.4706052999827,None,139.4706052999827,None,141.37927730999363,None,141.37927730999363,None,141.37927730999363,None,,,,,,,,,,,,,,020,2022-05-17_10h34.31.400,Main,2022.1.1,60.00841317722351,
negative,positive,1,j,l,,,,,1,10,28,6,,,,,,,,,,,,,prac,2,2,1,positive,negative,j,j,1,1.0197103999962565,141.38530509997508,142.39822029997595,142.38159939998877,None,141.38530509997508,None,141.38530509997508,None,141.38530509997508,None,143.39595600998436,None,143.39595600998436,None,143.39595600998436,None,,,,,,,,,,,,,,020,2022-05-17_10h34.31.400,Main,2022.1.1,60.00841317722351,
negative,neutral,1,j,l,,,,,1,11,29,3,,,,,,,,,,,,,prac,1,1,1,neutral,negative,j,j,1,1.0101041999878362,143.41124570000102,144.41481139999814,144.39821919999667,None,143.41124570000102,None,143.41124570000102,None,143.41124570000102,None,145.4124626099743,None,145.4124626099743,None,145.4124626099743,None,,,,,,,,,,,,,,020,2022-05-17_10h34.31.400,Main,2022.1.1,60.00841317722351,
positive,neutral,2,l,j,,,,,1,12,30,17,,,,,,,,,,,,,prac,2,2,2,neutral,positive,l,l,1,1.065679999999702,145.41878109998652,146.42919480000273,146.4125320999883,None,145.41878109998652,None,145.41878109998652,None,145.41878109998652,None,147.47924440998176,None,147.47924440998176,None,147.47924440998176,None,,,,,,,,,,,,,,020,2022-05-17_10h34.31.400,Main,2022.1.1,60.00841317722351,
neutral,positive,1,k,k,,,,,1,13,31,4,,,,,,,,,,,,,prac,2,2,1,positive,neutral,k,k,1,0.7813329000200611,147.48504099997808,148.49580279999645,148.47914749998017,None,147.48504099997808,None,147.48504099997808,None,147.48504099997808,None,149.2620218099997,None,149.2620218099997,None,149.2620218099997,None,,,,,,,,,,,,,,020,2022-05-17_10h34.31.400,Main,2022.1.1,60.00841317722351,
neutral,positive,2,k,k,,,,,1,14,32,13,,,,,,,,,,,,,prac,2,2,2,positive,neutral,k,k,1,0.6329638000170235,149.26211299997522,150.26241219998337,150.26241219998337,None,149.26211299997522,None,149.26211299997522,None,149.26211299997522,None,150.8953443099832,None,150.8953443099832,None,150.8953443099832,None,,,,,,,,,,,,,,020,2022-05-17_10h34.31.400,Main,2022.1.1,60.00841317722351,
positive,neutral,1,l,j,,,,,1,15,33,8,,,,,,,,,,,,,prac,2,2,1,neutral,positive,l,l,1,0.7640755999891553,150.91213739998057,151.91207449999638,151.89540799998213,None,150.91213739998057,None,150.91213739998057,None,150.91213739998057,None,152.662011410002,None,152.662011410002,None,152.662011410002,None,,,,,,,,,,,,,,020,2022-05-17_10h34.31.400,Main,2022.1.1,60.00841317722351,
positive,negative,1,l,j,,,,,1,16,34,5,,,,,,,,,,,,,prac,2,2,1,negative,positive,l,l,1,0.7378377999993972,152.6678161000018,153.6793891999987,153.66473979997681,None,152.6678161000018,None,152.6678161000018,None,152.6678161000018,None,154.39974920999666,None,154.39974920999666,None,154.39974920999666,None,,,,,,,,,,,,,,020,2022-05-17_10h34.31.400,Main,2022.1.1,60.00841317722351,
negative,negative,2,j,l,,,,,1,17,35,9,,,,,,,,,,,,,prac,1,1,2,negative,negative,j,j,1,1.0159155000001192,154.40422539997962,155.41471459998866,155.3980659999943,None,154.40422539997962,None,154.40422539997962,None,154.40422539997962,None,156.41837980997806,None,156.41837980997806,None,156.41837980997806,None,,,,,,,,,,,,,,020,2022-05-17_10h34.31.400,Main,2022.1.1,60.00841317722351,
,,,,,,,,,,,,,,,,,,,,,,,,,,,,,,,,,,,,,,,,,,,,,,,,,,,156.4154453999945,None,space,8.76151359998039,,,,,,,,,,020,2022-05-17_10h34.31.400,Main,2022.1.1,60.00841317722351,
,,,,,,,,,,,,,,,,,,,,,,,,,,,,,,,,,,,,,,,,,,,,,,,,,,,,,,,0.66851854,-0.2361111,0,0,0,0.010811910004122183,None,,,020,2022-05-17_10h34.31.400,Main,2022.1.1,60.00841317722351,
negative,positive,2,j,l,,,,,,,,,0,0,0,15,,,,,,,165.1978068999888,None,main,1,1,2,positive,negative,j,j,1,1.0281843999982812,167.20173159998376,168.21436449998873,168.1980593999906,None,167.20173159998376,None,167.20173159998376,None,167.20173159998376,None,169.22870140997983,None,169.22870140997983,None,169.22870140997983,None,,,,,,,,,,,,,,020,2022-05-17_10h34.31.400,Main,2022.1.1,60.00841317722351,
positive,neutral,1,l,j,,,,,,,,,0,1,1,8,,,,,,,,,main,2,2,1,neutral,positive,l,l,1,0.7805874999903608,169.23509419997572,170.24767599999905,170.23102379997727,None,169.23509419997572,None,169.23509419997572,None,169.23509419997572,None,171.01159600998798,None,171.01159600998798,None,171.01159600998798,None,,,,,,,,,,,,,,020,2022-05-17_10h34.31.400,Main,2022.1.1,60.00841317722351,
negative,negative,2,j,l,,,,,,,,,0,2,2,9,,,,,,,,,main,1,1,2,negative,negative,j,j,1,0.847112500021467,171.01398249997874,172.02855139999883,172.01166369998828,None,171.01398249997874,None,171.01398249997874,None,171.01398249997874,None,172.861589310001,None,172.861589310001,None,172.861589310001,None,,,,,,,,,,,,,,020,2022-05-17_10h34.31.400,Main,2022.1.1,60.00841317722351,
neutral,negative,1,k,k,,,,,,,,,0,3,3,7,,,,,,,,,main,1,1,1,negative,neutral,k,k,1,0.6988936999987345,172.8670754999912,173.8809454999864,173.86434030000237,None,172.8670754999912,None,172.8670754999912,None,172.8670754999912,None,174.5619138099806,None,174.5619138099806,None,174.5619138099806,None,,,,,,,,,,,,,,020,2022-05-17_10h34.31.400,Main,2022.1.1,60.00841317722351,
neutral,positive,2,k,k,,,,,,,,,0,4,4,13,,,,,,,,,main,1,1,2,positive,neutral,k,k,1,0.7308130000019446,174.5685383999953,175.57883009998477,175.56432069998118,None,174.5685383999953,None,174.5685383999953,None,174.5685383999953,None,176.29517350998648,None,176.29517350998648,None,176.29517350998648,None,,,,,,,,,,,,,,020,2022-05-17_10h34.31.400,Main,2022.1.1,60.00841317722351,
positive,positive,1,l,j,,,,,,,,,0,5,5,2,,,,,,,,,main,2,2,1,positive,positive,l,l,1,0.7644148000108544,176.30170089998865,177.3140657999902,177.29746069997782,None,176.30170089998865,None,176.30170089998865,None,176.30170089998865,None,178.0618191099871,None,178.0618191099871,None,178.0618191099871,None,,,,,,,,,,,,,,020,2022-05-17_10h34.31.400,Main,2022.1.1,60.00841317722351,
neutral,negative,2,k,k,,,,,,,,,0,6,6,16,,,,,,,,,main,1,1,2,negative,neutral,k,k,1,0.7313581999915186,178.06774679999216,179.07889489998342,179.06417959998362,None,178.06774679999216,None,178.06774679999216,None,178.06774679999216,None,179.79507760998385,None,179.79507760998385,None,179.79507760998385,None,,,,,,,,,,,,,,020,2022-05-17_10h34.31.400,Main,2022.1.1,60.00841317722351,
negative,negative,1,j,l,,,,,,,,,0,7,7,0,,,,,,,,,main,2,2,1,negative,negative,j,j,1,0.5314570000045933,179.80072369999834,180.81146029999945,180.79478229998494,None,179.80072369999834,None,179.80072369999834,None,179.80072369999834,None,181.32807480998744,None,181.32807480998744,None,181.32807480998744,None,,,,,,,,,,,,,,020,2022-05-17_10h34.31.400,Main,2022.1.1,60.00841317722351,
neutral,positive,1,k,k,,,,,,,,,0,8,8,4,,,,,,,,,main,2,2,1,positive,neutral,k,k,1,0.8711774999974295,181.32812619998003,182.32816539998748,182.32816539998748,None,181.32812619998003,None,181.32812619998003,None,181.32812619998003,None,183.199217009978,None,183.199217009978,None,183.199217009978,None,,,,,,,,,,,,,,020,2022-05-17_10h34.31.400,Main,2022.1.1,60.00841317722351,
negative,neutral,1,j,l,,,,,,,,,0,9,9,3,,,,,,,,,main,2,2,1,neutral,negative,j,j,1,0.792824300006032,183.2050082999922,184.21408199999132,184.19513169999118,None,183.2050082999922,None,183.2050082999922,None,183.2050082999922,None,184.99505640997958,None,184.99505640997958,None,184.99505640997958,None,,,,,,,,,,,,,,020,2022-05-17_10h34.31.400,Main,2022.1.1,60.00841317722351,
positive,negative,1,l,j,,,,,,,,,0,10,10,5,,,,,,,,,main,1,1,1,negative,positive,l,k,0,0.6652472999994643,185.0009259999788,186.01392679999117,185.99736259999918,None,185.0009259999788,None,185.0009259999788,None,185.0009259999788,None,186.66173019999405,None,186.66173019999405,None,186.66173019999405,None,,,,,,,,,,,,,,020,2022-05-17_10h34.31.400,Main,2022.1.1,60.00841317722351,
positive,neutral,2,l,j,,,,,,,,,0,11,11,17,,,,,,,,,main,2,2,2,neutral,positive,l,l,1,0.8179683000198565,187.66264319999027,188.663948899979,188.64734329999192,None,187.66264319999027,None,187.66264319999027,None,187.66264319999027,None,189.47822580999636,None,189.47822580999636,None,189.47822580999636,None,,,,,,,,,,,,,,020,2022-05-17_10h34.31.400,Main,2022.1.1,60.00841317722351,
negative,positive,1,j,l,,,,,,,,,0,12,12,6,,,,,,,,,main,2,2,1,positive,negative,j,j,1,0.9348709000041708,189.49720149999484,190.49719789999654,190.480579199997,None,189.49720149999484,None,189.49720149999484,None,189.49720149999484,None,191.41127080997975,None,191.41127080997975,None,191.41127080997975,None,,,,,,,,,,,,,,020,2022-05-17_10h34.31.400,Main,2022.1.1,60.00841317722351,
neutral,neutral,1,k,k,,,,,,,,,0,13,13,1,,,,,,,,,main,2,2,1,neutral,neutral,k,k,1,0.6932213000254706,191.41644219998852,192.42792289998033,192.41125439997995,None,191.41644219998852,None,191.41644219998852,None,191.41644219998852,None,193.11121010999486,None,193.11121010999486,None,193.11121010999486,None,,,,,,,,,,,,,,020,2022-05-17_10h34.31.400,Main,2022.1.1,60.00841317722351,
neutral,neutral,2,k,k,,,,,,,,,0,14,14,10,,,,,,,,,main,2,2,2,neutral,neutral,k,k,1,0.7655018999939784,193.11459620000096,194.11391339998227,194.11391339998227,None,193.11459620000096,None,193.11459620000096,None,193.11459620000096,None,194.87814610999484,None,194.87814610999484,None,194.87814610999484,None,,,,,,,,,,,,,,020,2022-05-17_10h34.31.400,Main,2022.1.1,60.00841317722351,
negative,neutral,2,j,l,,,,,,,,,0,15,15,12,,,,,,,,,main,1,1,2,neutral,negative,j,j,1,0.9983929000154603,194.8838598000002,195.8971132999868,195.8804440999811,None,194.8838598000002,None,194.8838598000002,None,194.8838598000002,None,196.8782016099809,None,196.8782016099809,None,196.8782016099809,None,,,,,,,,,,,,,,020,2022-05-17_10h34.31.400,Main,2022.1.1,60.00841317722351,
positive,positive,2,l,j,,,,,,,,,0,16,16,11,,,,,,,,,main,1,1,2,positive,positive,l,l,1,0.7317853000131436,196.88383559999056,197.89704069998697,197.8804730999982,None,196.88383559999056,None,196.88383559999056,None,196.88383559999056,None,198.61141210999048,None,198.61141210999048,None,198.61141210999048,None,,,,,,,,,,,,,,020,2022-05-17_10h34.31.400,Main,2022.1.1,60.00841317722351,
positive,negative,2,l,j,,,,,,,,,0,17,17,14,,,,,,,,,main,1,1,2,negative,positive,l,l,1,0.6694676000042818,198.6171276999812,199.6281320999842,199.6114553999796,None,198.6171276999812,None,198.6171276999812,None,198.6171276999812,None,200.2813021099806,None,200.2813021099806,None,200.2813021099806,None,,,,,,,,,,,,,,020,2022-05-17_10h34.31.400,Main,2022.1.1,60.00841317722351,
negative,positive,1,j,l,,,,,,,,,1,0,18,6,,,,,,,,,main,1,1,1,positive,negative,j,j,1,0.8268273000139743,200.29470099997707,201.29469299997436,201.27801270000055,None,200.29470099997707,None,200.29470099997707,None,200.29470099997707,None,202.11098330998502,None,202.11098330998502,None,202.11098330998502,None,,,,,,,,,,,,,,020,2022-05-17_10h34.31.400,Main,2022.1.1,60.00841317722351,
neutral,positive,2,k,k,,,,,,,,,1,1,19,13,,,,,,,,,main,1,1,2,positive,neutral,k,k,1,0.715006699989317,202.11106379999546,203.11125200000242,203.11125200000242,None,202.11106379999546,None,202.11106379999546,None,202.11106379999546,None,203.8276048099884,None,203.8276048099884,None,203.8276048099884,None,,,,,,,,,,,,,,020,2022-05-17_10h34.31.400,Main,2022.1.1,60.00841317722351,
neutral,negative,1,k,k,,,,,,,,,1,2,20,7,,,,,,,,,main,1,1,1,negative,neutral,k,k,1,0.6887105999921914,203.82787019998068,204.83025669999188,204.81373739999253,None,203.82787019998068,None,203.82787019998068,None,203.82787019998068,None,205.51373680999095,None,205.51373680999095,None,205.51373680999095,None,,,,,,,,,,,,,,020,2022-05-17_10h34.31.400,Main,2022.1.1,60.00841317722351,
positive,neutral,1,l,j,,,,,,,,,1,3,21,8,,,,,,,,,main,2,2,1,neutral,positive,l,l,1,0.744437100016512,205.5217236999888,206.53019649998168,206.51353149997885,None,205.5217236999888,None,205.5217236999888,None,205.5217236999888,None,207.2644197099813,None,207.2644197099813,None,207.2644197099813,None,,,,,,,,,,,,,,020,2022-05-17_10h34.31.400,Main,2022.1.1,60.00841317722351,
positive,positive,2,l,j,,,,,,,,,1,4,22,11,,,,,,,,,main,2,2,2,positive,positive,l,l,1,0.6824392999988049,207.26769629999762,208.28014769998845,208.2636452000006,None,207.26769629999762,None,207.26769629999762,None,207.26769629999762,None,208.94825180999177,None,208.94825180999177,None,208.94825180999177,None,,,,,,,,,,,,,,020,2022-05-17_10h34.31.400,Main,2022.1.1,60.00841317722351,
neutral,neutral,1,k,k,,,,,,,,,1,5,23,1,,,,,,,,,main,2,2,1,neutral,neutral,k,k,1,1.194489399989834,208.95164399998612,209.96355570000014,209.9468725999759,None,208.95164399998612,None,208.95164399998612,None,208.95164399998612,None,211.1446255099814,None,211.1446255099814,None,211.1446255099814,None,,,,,,,,,,,,,,020,2022-05-17_10h34.31.400,Main,2022.1.1,60.00841317722351,
neutral,positive,1,k,k,,,,,,,,,1,6,24,4,,,,,,,,,main,2,2,1,positive,neutral,k,k,1,0.6981186000048183,211.15035089998855,212.16085879999446,212.1443940999743,None,211.15035089998855,None,211.15035089998855,None,211.15035089998855,None,212.84410590999468,None,212.84410590999468,None,212.84410590999468,None,,,,,,,,,,,,,,020,2022-05-17_10h34.31.400,Main,2022.1.1,60.00841317722351,
positive,positive,1,l,j,,,,,,,,,1,7,25,2,,,,,,,,,main,1,1,1,positive,positive,l,l,1,1.1986630000174046,212.84416089998558,213.84442729997681,213.84442729997681,None,212.84416089998558,None,212.84416089998558,None,212.84416089998558,None,215.04440770997607,None,215.04440770997607,None,215.04440770997607,None,,,,,,,,,,,,,,020,2022-05-17_10h34.31.400,Main,2022.1.1,60.00841317722351,
negative,positive,2,j,l,,,,,,,,,1,8,26,15,,,,,,,,,main,1,1,2,positive,negative,j,j,1,1.0319395000115037,215.05060809999122,216.06378419999965,216.04447899997467,None,215.05060809999122,None,215.05060809999122,None,215.05060809999122,None,217.07771260999434,None,217.07771260999434,None,217.07771260999434,None,,,,,,,,,,,,,,020,2022-05-17_10h34.31.400,Main,2022.1.1,60.00841317722351,
neutral,negative,2,k,k,,,,,,,,,1,9,27,16,,,,,,,,,main,1,1,2,negative,neutral,k,k,1,0.831296399992425,217.08377629998722,218.0944358999841,218.0800745000015,None,217.08377629998722,None,217.08377629998722,None,217.08377629998722,None,218.91096760999935,None,218.91096760999935,None,218.91096760999935,None,,,,,,,,,,,,,,020,2022-05-17_10h34.31.400,Main,2022.1.1,60.00841317722351,
negative,neutral,2,j,l,,,,,,,,,1,10,28,12,,,,,,,,,main,2,2,2,neutral,negative,j,j,1,1.0524556000018492,218.91655539997737,219.92771459999494,219.91104429998086,None,218.91655539997737,None,218.91655539997737,None,218.91655539997737,None,220.96098200998094,None,220.96098200998094,None,220.96098200998094,None,,,,,,,,,,,,,,020,2022-05-17_10h34.31.400,Main,2022.1.1,60.00841317722351,
positive,negative,2,l,j,,,,,,,,,1,11,29,14,,,,,,,,,main,1,1,2,negative,positive,l,l,1,0.8264344000199344,220.96937599999364,221.977324699983,221.96066079998855,None,220.96937599999364,None,220.96937599999364,None,220.96937599999364,None,222.79387740998354,None,222.79387740998354,None,222.79387740998354,None,,,,,,,,,,,,,,020,2022-05-17_10h34.31.400,Main,2022.1.1,60.00841317722351,
negative,negative,1,j,l,,,,,,,,,1,12,30,0,,,,,,,,,main,2,2,1,negative,negative,j,j,1,0.9483933000010438,222.8106407999876,223.81063239998184,223.7939580999955,None,222.8106407999876,None,222.8106407999876,None,222.8106407999876,None,224.74385420999315,None,224.74385420999315,None,224.74385420999315,None,,,,,,,,,,,,,,020,2022-05-17_10h34.31.400,Main,2022.1.1,60.00841317722351,
positive,neutral,2,l,j,,,,,,,,,1,13,31,17,,,,,,,,,main,1,1,2,neutral,positive,l,l,1,0.9321918000059668,224.7440810999833,225.74393689999124,225.74393689999124,None,224.7440810999833,None,224.7440810999833,None,224.7440810999833,None,226.67760420998965,None,226.67760420998965,None,226.67760420998965,None,,,,,,,,,,,,,,020,2022-05-17_10h34.31.400,Main,2022.1.1,60.00841317722351,
neutral,neutral,2,k,k,,,,,,,,,1,14,32,10,,,,,,,,,main,1,1,2,neutral,neutral,k,k,1,0.8649829000059981,226.68346649999148,227.69647759999498,227.67988250000053,None,226.68346649999148,None,226.68346649999148,None,226.68346649999148,None,228.54415830999787,None,228.54415830999787,None,228.54415830999787,None,,,,,,,,,,,,,,020,2022-05-17_10h34.31.400,Main,2022.1.1,60.00841317722351,
negative,negative,2,j,l,,,,,,,,,1,15,33,9,,,,,,,,,main,2,2,2,negative,negative,j,j,1,0.8815066000097431,228.5499426999886,229.56315489998087,229.54654619999928,None,228.5499426999886,None,228.5499426999886,None,228.5499426999886,None,230.4274315099843,None,230.4274315099843,None,230.4274315099843,None,,,,,,,,,,,,,,020,2022-05-17_10h34.31.400,Main,2022.1.1,60.00841317722351,
negative,neutral,1,j,l,,,,,,,,,1,16,34,3,,,,,,,,,main,1,1,1,neutral,negative,j,j,1,0.7660488999972586,230.4328343999805,231.44415169997956,231.4297500999819,None,230.4328343999805,None,230.4328343999805,None,230.4328343999805,None,232.19506340998632,None,232.19506340998632,None,232.19506340998632,None,,,,,,,,,,,,,,020,2022-05-17_10h34.31.400,Main,2022.1.1,60.00841317722351,
positive,negative,1,l,j,,,,,,,,,1,17,35,5,,,,,,,,,main,1,1,1,negative,positive,l,l,1,0.9140464999945834,232.20097269999678,233.2107829999877,233.19646109998575,None,232.20097269999678,None,232.20097269999678,None,232.20097269999678,None,234.11032791000034,None,234.11032791000034,None,234.11032791000034,None,,,,,,,,,,,,,,020,2022-05-17_10h34.31.400,Main,2022.1.1,60.00841317722351,
positive,negative,1,l,j,,,,,,,,,2,0,36,5,,,,,,,,,main,1,1,1,negative,positive,l,l,1,0.7816247000009753,234.11039560000063,235.11067419999745,235.11067419999745,None,234.11039560000063,None,234.11039560000063,None,234.11039560000063,None,235.89366960997867,None,235.89366960997867,None,235.89366960997867,None,,,,,,,,,,,,,,020,2022-05-17_10h34.31.400,Main,2022.1.1,60.00841317722351,
neutral,negative,1,k,k,,,,,,,,,2,1,37,7,,,,,,,,,main,1,1,1,negative,neutral,k,k,1,0.7491567000106443,235.89382450000267,236.89372549997643,236.89372549997643,None,235.89382450000267,None,235.89382450000267,None,235.89382450000267,None,237.64424950999964,None,237.64424950999964,None,237.64424950999964,None,,,,,,,,,,,,,,020,2022-05-17_10h34.31.400,Main,2022.1.1,60.00841317722351,
positive,neutral,1,l,j,,,,,,,,,2,2,38,8,,,,,,,,,main,2,2,1,neutral,positive,l,l,1,0.7146529999736231,237.65088829997694,238.66291669997736,238.6463892000029,None,237.65088829997694,None,237.65088829997694,None,237.65088829997694,None,239.3605973099853,None,239.3605973099853,None,239.3605973099853,None,,,,,,,,,,,,,,020,2022-05-17_10h34.31.400,Main,2022.1.1,60.00841317722351,
positive,neutral,2,l,j,,,,,,,,,2,3,39,17,,,,,,,,,main,2,2,2,neutral,positive,l,l,1,0.7321213999821339,239.36475849998533,240.37733249997837,240.36298720000195,None,239.36475849998533,None,239.36475849998533,None,239.36475849998533,None,241.09386950999905,None,241.09386950999905,None,241.09386950999905,None,,,,,,,,,,,,,,020,2022-05-17_10h34.31.400,Main,2022.1.1,60.00841317722351,
neutral,positive,1,k,k,,,,,,,,,2,4,40,4,,,,,,,,,main,2,2,1,positive,neutral,k,k,1,0.7148576999898069,241.10061579998,242.11284019998857,242.0939419999777,None,241.10061579998,None,241.10061579998,None,241.10061579998,None,242.810520609995,None,242.810520609995,None,242.810520609995,None,,,,,,,,,,,,,,020,2022-05-17_10h34.31.400,Main,2022.1.1,60.00841317722351,
positive,positive,2,l,j,,,,,,,,,2,5,41,11,,,,,,,,,main,2,2,2,positive,positive,l,l,1,0.6651567999797408,242.81703139998717,243.82723119997536,243.8128192999866,None,242.81703139998717,None,242.81703139998717,None,242.81703139998717,None,244.4771675099997,None,244.4771675099997,None,244.4771675099997,None,,,,,,,,,,,,,,020,2022-05-17_10h34.31.400,Main,2022.1.1,60.00841317722351,
neutral,neutral,1,k,k,,,,,,,,,2,6,42,1,,,,,,,,,main,2,2,1,neutral,neutral,k,k,1,0.614374000026146,244.4830709999951,245.49352009998984,245.47700600000098,None,244.4830709999951,None,244.4830709999951,None,244.4830709999951,None,246.09343900998064,None,246.09343900998064,None,246.09343900998064,None,,,,,,,,,,,,,,020,2022-05-17_10h34.31.400,Main,2022.1.1,60.00841317722351,
neutral,neutral,2,k,k,,,,,,,,,2,7,43,10,,,,,,,,,main,1,1,2,neutral,neutral,k,k,1,0.6819908999896143,246.09350969997467,247.09351179999067,247.09351179999067,None,246.09350969997467,None,246.09350969997467,None,246.09350969997467,None,247.77675770998175,None,247.77675770998175,None,247.77675770998175,None,,,,,,,,,,,,,,020,2022-05-17_10h34.31.400,Main,2022.1.1,60.00841317722351,
negative,positive,1,j,l,,,,,,,,,2,8,44,6,,,,,,,,,main,2,2,1,positive,negative,j,j,1,0.9007809000031557,247.7811914999911,248.7960116000031,248.77710819998174,None,247.7811914999911,None,247.7811914999911,None,247.7811914999911,None,249.67722110998292,None,249.67722110998292,None,249.67722110998292,None,,,,,,,,,,,,,,020,2022-05-17_10h34.31.400,Main,2022.1.1,60.00841317722351,
positive,negative,2,l,j,,,,,,,,,2,9,45,14,,,,,,,,,main,1,1,2,negative,positive,l,l,1,0.7810515000019222,249.68333229998825,250.6941864999826,250.677371400001,None,249.68333229998825,None,249.68333229998825,None,249.68333229998825,None,251.46272400997404,None,251.46272400997404,None,251.46272400997404,None,,,,,,,,,,,,,,020,2022-05-17_10h34.31.400,Main,2022.1.1,60.00841317722351,
negative,neutral,1,j,l,,,,,,,,,2,10,46,3,,,,,,,,,main,1,1,1,neutral,negative,j,j,1,0.762644000002183,251.46652979997452,252.47930229999474,252.46040309997625,None,251.46652979997452,None,251.46652979997452,None,251.46652979997452,None,253.22699710998276,None,253.22699710998276,None,253.22699710998276,None,,,,,,,,,,,,,,020,2022-05-17_10h34.31.400,Main,2022.1.1,60.00841317722351,
negative,positive,2,j,l,,,,,,,,,2,11,47,15,,,,,,,,,main,2,2,2,positive,negative,j,j,1,0.7973816999874543,253.23118599998998,254.24589929997455,254.22936029999983,None,253.23118599998998,None,253.23118599998998,None,253.23118599998998,None,255.0269356099976,None,255.0269356099976,None,255.0269356099976,None,,,,,,,,,,,,,,020,2022-05-17_10h34.31.400,Main,2022.1.1,60.00841317722351,
neutral,negative,2,k,k,,,,,,,,,2,12,48,16,,,,,,,,,main,2,2,2,negative,neutral,k,k,1,0.7148262999835424,255.03026800000225,256.0433065999823,256.0269463000004,None,255.03026800000225,None,255.03026800000225,None,255.03026800000225,None,256.7431902100012,None,256.7431902100012,None,256.7431902100012,None,,,,,,,,,,,,,,020,2022-05-17_10h34.31.400,Main,2022.1.1,60.00841317722351,
neutral,positive,2,k,k,,,,,,,,,2,13,49,13,,,,,,,,,main,1,1,2,positive,neutral,k,k,1,0.5989158999873325,256.74323929997627,257.7432772999746,257.7432772999746,None,256.74323929997627,None,256.74323929997627,None,256.74323929997627,None,258.34355621,None,258.34355621,None,258.34355621,None,,,,,,,,,,,,,,020,2022-05-17_10h34.31.400,Main,2022.1.1,60.00841317722351,
negative,negative,2,j,l,,,,,,,,,2,14,50,9,,,,,,,,,main,1,1,2,negative,negative,j,j,1,0.7147565000050236,258.3469861999911,259.36244129997795,259.34582999997656,None,258.3469861999911,None,258.3469861999911,None,258.3469861999911,None,260.06016760998466,None,260.06016760998466,None,260.06016760998466,None,,,,,,,,,,,,,,020,2022-05-17_10h34.31.400,Main,2022.1.1,60.00841317722351,
negative,negative,1,j,l,,,,,,,,,2,15,51,0,,,,,,,,,main,2,2,1,negative,negative,j,j,1,0.6319202999875415,260.06323439997504,261.0625095999858,261.0625095999858,None,260.06323439997504,None,260.06323439997504,None,260.06323439997504,None,261.693453709982,None,261.693453709982,None,261.693453709982,None,,,,,,,,,,,,,,020,2022-05-17_10h34.31.400,Main,2022.1.1,60.00841317722351,
positive,positive,1,l,j,,,,,,,,,2,16,52,2,,,,,,,,,main,2,2,1,positive,positive,l,l,1,0.9486610000021756,261.6969027000014,262.7123964999919,262.6957843999844,None,261.6969027000014,None,261.6969027000014,None,261.6969027000014,None,263.6435369099869,None,263.6435369099869,None,263.6435369099869,None,,,,,,,,,,,,,,020,2022-05-17_10h34.31.400,Main,2022.1.1,60.00841317722351,
negative,neutral,2,j,l,,,,,,,,,2,17,53,12,,,,,,,,,main,1,1,2,neutral,negative,j,j,1,0.898134300019592,263.6492281999963,264.66013619999285,264.645786899986,None,263.6492281999963,None,263.6492281999963,None,263.6492281999963,None,265.54346890998715,None,265.54346890998715,None,265.54346890998715,None,,,,,,,,,,,,,,020,2022-05-17_10h34.31.400,Main,2022.1.1,60.00841317722351,
negative,positive,2,j,l,,,,,,,,,3,0,54,15,,,,,,,,,main,2,2,2,positive,negative,j,j,1,0.6480659999942873,265.55536989998654,266.55976639999426,266.5430960999802,None,265.55536989998654,None,265.55536989998654,None,265.55536989998654,None,267.1929968099954,None,267.1929968099954,None,267.1929968099954,None,,,,,,,,,,,,,,020,2022-05-17_10h34.31.400,Main,2022.1.1,60.00841317722351,
neutral,positive,1,k,k,,,,,,,,,3,1,55,4,,,,,,,,,main,1,1,1,positive,neutral,k,k,1,0.6190427000110503,267.1930548999808,268.1930943999905,268.1930943999905,None,267.1930548999808,None,267.1930548999808,None,267.1930548999808,None,268.8123987099767,None,268.8123987099767,None,268.8123987099767,None,,,,,,,,,,,,,,020,2022-05-17_10h34.31.400,Main,2022.1.1,60.00841317722351,
positive,negative,2,l,j,,,,,,,,,3,2,56,14,,,,,,,,,main,2,2,2,negative,positive,l,l,1,0.6948422999994364,268.8164809999871,269.8289220999868,269.81232389999786,None,268.8164809999871,None,268.8164809999871,None,268.8164809999871,None,270.50994860998765,None,270.50994860998765,None,270.50994860998765,None,,,,,,,,,,,,,,020,2022-05-17_10h34.31.400,Main,2022.1.1,60.00841317722351,
positive,neutral,2,l,j,,,,,,,,,3,3,57,17,,,,,,,,,main,1,1,2,neutral,positive,l,l,1,0.601273999986006,270.51621139998315,271.52890969999135,271.5100041999831,None,270.51621139998315,None,270.51621139998315,None,270.51621139998315,None,272.1129371099902,None,272.1129371099902,None,272.1129371099902,None,,,,,,,,,,,,,,020,2022-05-17_10h34.31.400,Main,2022.1.1,60.00841317722351,
positive,positive,2,l,j,,,,,,,,,3,4,58,11,,,,,,,,,main,1,1,2,positive,positive,l,l,1,0.4622846999845933,272.11679949998506,273.1288637999969,273.1122550999862,None,272.11679949998506,None,272.11679949998506,None,272.11679949998506,None,273.5765382099868,None,273.5765382099868,None,273.5765382099868,None,,,,,,,,,,,,,,020,2022-05-17_10h34.31.400,Main,2022.1.1,60.00841317722351,
neutral,positive,2,k,k,,,,,,,,,3,5,59,13,,,,,,,,,main,1,1,2,positive,neutral,k,k,1,0.681689200020628,273.5799130999949,274.59604089998174,274.5765984999889,None,273.5799130999949,None,273.5799130999949,None,273.5799130999949,None,275.2598400099756,None,275.2598400099756,None,275.2598400099756,None,,,,,,,,,,,,,,020,2022-05-17_10h34.31.400,Main,2022.1.1,60.00841317722351,
neutral,neutral,1,k,k,,,,,,,,,3,6,60,1,,,,,,,,,main,1,1,1,neutral,neutral,k,k,1,0.747830200009048,275.2632342999859,276.2765447999991,276.25956519998726,None,275.2632342999859,None,275.2632342999859,None,275.2632342999859,None,277.0094615099748,None,277.0094615099748,None,277.0094615099748,None,,,,,,,,,,,,,,020,2022-05-17_10h34.31.400,Main,2022.1.1,60.00841317722351,
positive,neutral,1,l,j,,,,,,,,,3,7,61,8,,,,,,,,,main,1,1,1,neutral,positive,l,l,1,0.7819771000067703,277.0095328000025,278.0095555000007,278.0095555000007,None,277.0095328000025,None,277.0095328000025,None,277.0095328000025,None,278.792782209997,None,278.792782209997,None,278.792782209997,None,,,,,,,,,,,,,,020,2022-05-17_10h34.31.400,Main,2022.1.1,60.00841317722351,
negative,negative,1,j,l,,,,,,,,,3,8,62,0,,,,,,,,,main,2,2,1,negative,negative,j,j,1,0.765751899976749,278.7934176999843,279.79285689999233,279.79285689999233,None,278.7934176999843,None,278.7934176999843,None,278.7934176999843,None,280.55983800997785,None,280.55983800997785,None,280.55983800997785,None,,,,,,,,,,,,,,020,2022-05-17_10h34.31.400,Main,2022.1.1,60.00841317722351,
negative,positive,1,j,l,,,,,,,,,3,9,63,6,,,,,,,,,main,1,1,1,positive,negative,j,j,1,0.4977460000081919,280.5711851999804,281.57877759999246,281.5621351999871,None,280.5711851999804,None,280.5711851999804,None,280.5711851999804,None,282.05978860998005,None,282.05978860998005,None,282.05978860998005,None,,,,,,,,,,,,,,020,2022-05-17_10h34.31.400,Main,2022.1.1,60.00841317722351,
neutral,neutral,2,k,k,,,,,,,,,3,10,64,10,,,,,,,,,main,1,1,2,neutral,neutral,k,k,1,0.615070800005924,282.0631157000025,283.0787653999869,283.05961019999813,None,282.0631157000025,None,282.0631157000025,None,282.0631157000025,None,283.67645300998413,None,283.67645300998413,None,283.67645300998413,None,,,,,,,,,,,,,,020,2022-05-17_10h34.31.400,Main,2022.1.1,60.00841317722351,
neutral,negative,2,k,k,,,,,,,,,3,11,65,16,,,,,,,,,main,1,1,2,negative,neutral,k,k,1,0.6150027999829035,283.67969279998215,284.67878109999583,284.67878109999583,None,283.67969279998215,None,283.67969279998215,None,283.67969279998215,None,285.2929712099809,None,285.2929712099809,None,285.2929712099809,None,,,,,,,,,,,,,,020,2022-05-17_10h34.31.400,Main,2022.1.1,60.00841317722351,
positive,negative,1,l,j,,,,,,,,,3,12,66,5,,,,,,,,,main,2,2,1,negative,positive,l,l,1,1.1318316999822855,285.29612610000186,286.2956310999871,286.2956310999871,None,285.29612610000186,None,285.29612610000186,None,285.29612610000186,None,287.42628060998106,None,287.42628060998106,None,287.42628060998106,None,,,,,,,,,,,,,,020,2022-05-17_10h34.31.400,Main,2022.1.1,60.00841317722351,
negative,neutral,2,j,l,,,,,,,,,3,13,67,12,,,,,,,,,main,2,2,2,neutral,negative,j,j,1,0.8478933000005782,287.4297546999878,288.44266169998446,288.4262172000017,None,287.4297546999878,None,287.4297546999878,None,287.4297546999878,None,289.27589600999784,None,289.27589600999784,None,289.27589600999784,None,,,,,,,,,,,,,,020,2022-05-17_10h34.31.400,Main,2022.1.1,60.00841317722351,
neutral,negative,1,k,k,,,,,,,,,3,14,68,7,,,,,,,,,main,2,2,1,negative,neutral,k,k,1,0.7484564000042155,289.27649859999656,290.27621379998163,290.27621379998163,None,289.27649859999656,None,289.27649859999656,None,289.27649859999656,None,291.02592290999894,None,291.02592290999894,None,291.02592290999894,None,,,,,,,,,,,,,,020,2022-05-17_10h34.31.400,Main,2022.1.1,60.00841317722351,
negative,negative,2,j,l,,,,,,,,,3,15,69,9,,,,,,,,,main,2,2,2,negative,negative,j,j,1,1.1646317999984603,291.0325252999901,292.04520379999303,292.0285837999836,None,291.0325252999901,None,291.0325252999901,None,291.0325252999901,None,293.1928460099822,None,293.1928460099822,None,293.1928460099822,None,,,,,,,,,,,,,,020,2022-05-17_10h34.31.400,Main,2022.1.1,60.00841317722351,
positive,positive,1,l,j,,,,,,,,,3,16,70,2,,,,,,,,,main,2,2,1,positive,positive,l,l,1,0.8161392000038177,293.1962017999904,294.20955239998875,294.1951765999838,None,293.1962017999904,None,293.1962017999904,None,293.1962017999904,None,295.00948550998294,None,295.00948550998294,None,295.00948550998294,None,,,,,,,,,,,,,,020,2022-05-17_10h34.31.400,Main,2022.1.1,60.00841317722351,
negative,neutral,1,j,l,,,,,,,,,3,17,71,3,,,,,,,,,main,2,2,1,neutral,negative,j,j,1,1.3503843000216875,295.01376619999064,296.02839019999374,296.0118134999939,None,295.01376619999064,None,295.01376619999064,None,295.01376619999064,None,297.3625611099793,None,297.3625611099793,None,297.3625611099793,None,,,,,,,,,,,,,,020,2022-05-17_10h34.31.400,Main,2022.1.1,60.00841317722351,
neutral,positive,1,k,k,,,,,,,,,4,0,72,4,,,,,,,,,main,1,1,1,positive,neutral,k,k,1,0.7288383000122849,297.36633949997486,298.3783274999878,298.3594792999793,None,297.36633949997486,None,297.36633949997486,None,297.36633949997486,None,299.09270710999556,None,299.09270710999556,None,299.09270710999556,None,,,,,,,,,,,,,,020,2022-05-17_10h34.31.400,Main,2022.1.1,60.00841317722351,
positive,positive,1,l,j,,,,,,,,,4,1,73,2,,,,,,,,,main,2,2,1,positive,positive,l,l,1,0.9813666999980342,299.0987338999985,300.1090699999768,300.09239569999045,None,299.0987338999985,None,299.0987338999985,None,299.0987338999985,None,301.07566280998583,None,301.07566280998583,None,301.07566280998583,None,,,,,,,,,,,,,,020,2022-05-17_10h34.31.400,Main,2022.1.1,60.00841317722351,
positive,positive,2,l,j,,,,,,,,,4,2,74,11,,,,,,,,,main,2,2,2,positive,positive,l,l,1,0.8652979000180494,301.07589229999576,302.07633209999767,302.07633209999767,None,301.07589229999576,None,301.07589229999576,None,301.07589229999576,None,302.9426302099979,None,302.9426302099979,None,302.9426302099979,None,,,,,,,,,,,,,,020,2022-05-17_10h34.31.400,Main,2022.1.1,60.00841317722351,
neutral,neutral,2,k,k,,,,,,,,,4,3,75,10,,,,,,,,,main,2,2,2,neutral,neutral,k,k,1,0.8977754000225104,302.9490101999836,303.95940619998146,303.94304899999406,None,302.9490101999836,None,302.9490101999836,None,302.9490101999836,None,304.8425887099962,None,304.8425887099962,None,304.8425887099962,None,,,,,,,,,,,,,,020,2022-05-17_10h34.31.400,Main,2022.1.1,60.00841317722351,
positive,negative,1,l,j,,,,,,,,,4,4,76,5,,,,,,,,,main,2,2,1,negative,positive,l,l,1,0.981716599984793,304.84857949998695,305.8615603999933,305.8426355999836,None,304.84857949998695,None,304.84857949998695,None,304.84857949998695,None,306.8258738099918,None,306.8258738099918,None,306.8258738099918,None,,,,,,,,,,,,,,020,2022-05-17_10h34.31.400,Main,2022.1.1,60.00841317722351,
negative,neutral,2,j,l,,,,,,,,,4,5,77,12,,,,,,,,,main,2,2,2,neutral,negative,j,j,1,1.0314116000081412,306.8318656999909,307.8424115999951,307.8282470999984,None,306.8318656999909,None,306.8318656999909,None,306.8318656999909,None,308.85922270999583,None,308.85922270999583,None,308.85922270999583,None,,,,,,,,,,,,,,020,2022-05-17_10h34.31.400,Main,2022.1.1,60.00841317722351,
negative,neutral,1,j,l,,,,,,,,,4,6,78,3,,,,,,,,,main,2,2,1,neutral,negative,j,j,1,0.7983311999996658,308.86528810000164,309.87459809999564,309.85851900000125,None,308.86528810000164,None,308.86528810000164,None,308.86528810000164,None,310.65906650998807,None,310.65906650998807,None,310.65906650998807,None,,,,,,,,,,,,,,020,2022-05-17_10h34.31.400,Main,2022.1.1,60.00841317722351,
positive,neutral,1,l,j,,,,,,,,,4,7,79,8,,,,,,,,,main,1,1,1,neutral,positive,l,l,1,0.7981425000180025,310.65885680000065,311.65885059998254,311.65885059998254,None,310.65885680000065,None,310.65885680000065,None,310.65885680000065,None,312.458815109983,None,312.458815109983,None,312.458815109983,None,,,,,,,,,,,,,,020,2022-05-17_10h34.31.400,Main,2022.1.1,60.00841317722351,
neutral,positive,2,k,k,,,,,,,,,4,8,80,13,,,,,,,,,main,1,1,2,positive,neutral,k,k,1,0.6988335000060033,312.46181320000323,313.46140199998626,313.4447647999914,None,312.46181320000323,None,312.46181320000323,None,312.46181320000323,None,314.1590941099945,None,314.1590941099945,None,314.1590941099945,None,,,,,,,,,,,,,,020,2022-05-17_10h34.31.400,Main,2022.1.1,60.00841317722351,
negative,positive,1,j,l,,,,,,,,,4,9,81,6,,,,,,,,,main,1,1,1,positive,negative,j,j,1,0.8149202000058722,314.1654217999894,315.17803929999354,315.15912149997894,None,314.1654217999894,None,314.1654217999894,None,314.1654217999894,None,315.9757050099812,None,315.9757050099812,None,315.9757050099812,None,,,,,,,,,,,,,,020,2022-05-17_10h34.31.400,Main,2022.1.1,60.00841317722351,
positive,neutral,2,l,j,,,,,,,,,4,10,82,17,,,,,,,,,main,1,1,2,neutral,positive,l,l,1,0.7650858999986667,315.9814751999802,316.99469179997686,316.9781096999941,None,315.9814751999802,None,315.9814751999802,None,315.9814751999802,None,317.7423455100012,None,317.7423455100012,None,317.7423455100012,None,,,,,,,,,,,,,,020,2022-05-17_10h34.31.400,Main,2022.1.1,60.00841317722351,
neutral,negative,1,k,k,,,,,,,,,4,11,83,7,,,,,,,,,main,1,1,1,negative,neutral,k,k,1,0.7647859000135213,317.7480059999798,318.75905890000286,318.7447142000019,None,317.7480059999798,None,317.7480059999798,None,317.7480059999798,None,319.50897060999125,None,319.50897060999125,None,319.50897060999125,None,,,,,,,,,,,,,,020,2022-05-17_10h34.31.400,Main,2022.1.1,60.00841317722351,
negative,positive,2,j,l,,,,,,,,,4,12,84,15,,,,,,,,,main,1,1,2,positive,negative,j,j,1,1.0317806000239216,319.5162505999906,320.52534419999574,320.50867939999443,None,319.5162505999906,None,319.5162505999906,None,319.5162505999906,None,321.5419144099957,None,321.5419144099957,None,321.5419144099957,None,,,,,,,,,,,,,,020,2022-05-17_10h34.31.400,Main,2022.1.1,60.00841317722351,
negative,negative,2,j,l,,,,,,,,,4,13,85,9,,,,,,,,,main,2,2,2,negative,negative,j,j,1,0.7653805999725591,321.5420021999744,322.5422494999948,322.5422494999948,None,321.5420021999744,None,321.5420021999744,None,321.5420021999744,None,323.30923620999386,None,323.30923620999386,None,323.30923620999386,None,,,,,,,,,,,,,,020,2022-05-17_10h34.31.400,Main,2022.1.1,60.00841317722351,
negative,negative,1,j,l,,,,,,,,,4,14,86,0,,,,,,,,,main,1,1,1,negative,negative,j,j,1,0.7315172999806236,323.3151702999894,324.3260647999996,324.30898999999044,None,323.3151702999894,None,323.3151702999894,None,323.3151702999894,None,325.0422078099888,None,325.0422078099888,None,325.0422078099888,None,,,,,,,,,,,,,,020,2022-05-17_10h34.31.400,Main,2022.1.1,60.00841317722351,
neutral,neutral,1,k,k,,,,,,,,,4,15,87,1,,,,,,,,,main,1,1,1,neutral,neutral,k,k,1,0.6981725000077859,325.04534240000066,326.0611975999782,326.04251869997825,None,325.04534240000066,None,325.04534240000066,None,325.04534240000066,None,326.74196400997755,None,326.74196400997755,None,326.74196400997755,None,,,,,,,,,,,,,,020,2022-05-17_10h34.31.400,Main,2022.1.1,60.00841317722351,
neutral,negative,2,k,k,,,,,,,,,4,16,88,16,,,,,,,,,main,2,2,2,negative,neutral,k,k,1,0.6651277999917511,326.74835379997967,327.75883869998506,327.74450319999596,None,326.74835379997967,None,326.74835379997967,None,326.74835379997967,None,328.40885080997543,None,328.40885080997543,None,328.40885080997543,None,,,,,,,,,,,,,,020,2022-05-17_10h34.31.400,Main,2022.1.1,60.00841317722351,
positive,negative,2,l,j,,,,,,,,,4,17,89,14,,,,,,,,,main,2,2,2,negative,positive,l,l,1,0.7332345999893732,328.4255199999898,329.42552569997497,329.4088494000025,None,328.4255199999898,None,328.4255199999898,None,328.4255199999898,None,330.14364750998504,None,330.14364750998504,None,330.14364750998504,None,,,,,,,,,,,,,,020,2022-05-17_10h34.31.400,Main,2022.1.1,60.00841317722351,
positive,positive,2,l,j,,,,,,,,,5,0,90,11,,,,,,,,,main,2,2,2,positive,positive,l,l,1,0.6633720000099856,330.14901789999567,331.1584602999792,331.14179559997865,None,330.14901789999567,None,330.14901789999567,None,330.14901789999567,None,331.80832600998986,None,331.80832600998986,None,331.80832600998986,None,,,,,,,,,,,,,,020,2022-05-17_10h34.31.400,Main,2022.1.1,60.00841317722351,
neutral,positive,2,k,k,,,,,,,,,5,1,91,13,,,,,,,,,main,2,2,2,positive,neutral,k,k,1,0.7484584000194445,331.8084128999908,332.80842829999165,332.80842829999165,None,331.8084128999908,None,331.8084128999908,None,331.8084128999908,None,333.55833790999316,None,333.55833790999316,None,333.55833790999316,None,,,,,,,,,,,,,,020,2022-05-17_10h34.31.400,Main,2022.1.1,60.00841317722351,
negative,positive,2,j,l,,,,,,,,,5,2,92,15,,,,,,,,,main,2,2,2,positive,negative,j,j,1,0.8654395999910776,333.5586713999801,334.558452199999,334.558452199999,None,333.5586713999801,None,333.5586713999801,None,333.5586713999801,None,335.42538290998493,None,335.42538290998493,None,335.42538290998493,None,,,,,,,,,,,,,,020,2022-05-17_10h34.31.400,Main,2022.1.1,60.00841317722351,
negative,neutral,1,j,l,,,,,,,,,5,3,93,3,,,,,,,,,main,1,1,1,neutral,negative,j,j,1,0.7673132999916561,335.4286256999767,336.4277602999937,336.4277602999937,None,335.4286256999767,None,335.4286256999767,None,335.4286256999767,None,337.19420860999674,None,337.19420860999674,None,337.19420860999674,None,,,,,,,,,,,,,,020,2022-05-17_10h34.31.400,Main,2022.1.1,60.00841317722351,
negative,positive,1,j,l,,,,,,,,,5,4,94,6,,,,,,,,,main,2,2,1,positive,negative,j,j,1,0.6963512000220362,337.19736019999254,338.2086717999773,338.1943070999987,None,337.19736019999254,None,337.19736019999254,None,337.19736019999254,None,338.8918963099801,None,338.8918963099801,None,338.8918963099801,None,,,,,,,,,,,,,,020,2022-05-17_10h34.31.400,Main,2022.1.1,60.00841317722351,
neutral,neutral,2,k,k,,,,,,,,,5,5,95,10,,,,,,,,,main,2,2,2,neutral,neutral,k,k,1,0.7483414000016637,338.8955428999907,339.9109554000024,339.8942504999868,None,338.8955428999907,None,338.8955428999907,None,338.8955428999907,None,340.6419124099863,None,340.6419124099863,None,340.6419124099863,None,,,,,,,,,,,,,,020,2022-05-17_10h34.31.400,Main,2022.1.1,60.00841317722351,
neutral,positive,1,k,k,,,,,,,,,5,6,96,4,,,,,,,,,main,2,2,1,positive,neutral,k,k,1,0.8980076999869198,340.6477226999996,341.66086579998955,341.6442439999955,None,340.6477226999996,None,340.6477226999996,None,340.6477226999996,None,342.5414914099762,None,342.5414914099762,None,342.5414914099762,None,,,,,,,,,,,,,,020,2022-05-17_10h34.31.400,Main,2022.1.1,60.00841317722351,
negative,negative,1,j,l,,,,,,,,,5,7,97,0,,,,,,,,,main,2,2,1,negative,negative,j,j,1,0.8978424000088125,342.54362399998354,343.55836769999587,343.5417699999816,None,342.54362399998354,None,342.54362399998354,None,342.54362399998354,None,344.4418183099857,None,344.4418183099857,None,344.4418183099857,None,,,,,,,,,,,,,,020,2022-05-17_10h34.31.400,Main,2022.1.1,60.00841317722351,
positive,negative,1,l,j,,,,,,,,,5,8,98,5,,,,,,,,,main,2,2,1,negative,positive,l,l,1,1.031843500008108,344.4477193999919,345.46080719999736,345.4442268999992,None,344.4477193999919,None,344.4477193999919,None,344.4477193999919,None,346.47510990999,None,346.47510990999,None,346.47510990999,None,,,,,,,,,,,,,,020,2022-05-17_10h34.31.400,Main,2022.1.1,60.00841317722351,
positive,negative,2,l,j,,,,,,,,,5,9,99,14,,,,,,,,,main,2,2,2,negative,positive,l,l,1,0.9693666999810375,346.4813402,347.49181009997847,347.4775063999987,None,346.4813402,None,346.4813402,None,346.4813402,None,348.44622970999046,None,348.44622970999046,None,348.44622970999046,None,,,,,,,,,,,,,,020,2022-05-17_10h34.31.400,Main,2022.1.1,60.00841317722351,
positive,neutral,1,l,j,,,,,,,,,5,10,100,8,,,,,,,,,main,1,1,1,neutral,positive,l,l,1,1.1773913000070024,348.4486810999806,349.4584542999801,349.4420441999973,None,348.4486810999806,None,348.4486810999806,None,348.4486810999806,None,350.6250172099768,None,350.6250172099768,None,350.6250172099768,None,,,,,,,,,,,,,,020,2022-05-17_10h34.31.400,Main,2022.1.1,60.00841317722351,
neutral,negative,2,k,k,,,,,,,,,5,11,101,16,,,,,,,,,main,2,2,2,negative,neutral,k,k,1,1.3813060999964364,350.63085659997887,351.64134209998883,351.6080458999786,None,350.63085659997887,None,350.63085659997887,None,350.63085659997887,None,353.0079289099755,None,353.0079289099755,None,353.0079289099755,None,,,,,,,,,,,,,,020,2022-05-17_10h34.31.400,Main,2022.1.1,60.00841317722351,
positive,neutral,2,l,j,,,,,,,,,5,12,102,17,,,,,,,,,main,2,2,2,neutral,positive,l,l,1,0.9819942000031006,353.0080008999794,354.00801029999275,354.00801029999275,None,353.0080008999794,None,353.0080008999794,None,353.0080008999794,None,354.99130060999016,None,354.99130060999016,None,354.99130060999016,None,,,,,,,,,,,,,,020,2022-05-17_10h34.31.400,Main,2022.1.1,60.00841317722351,
negative,negative,2,j,l,,,,,,,,,5,13,103,9,,,,,,,,,main,2,2,2,negative,negative,j,j,1,0.848576000018511,354.9972346999857,356.01053859997774,355.9939478999877,None,354.9972346999857,None,354.9972346999857,None,354.9972346999857,None,356.84165640999856,None,356.84165640999856,None,356.84165640999856,None,,,,,,,,,,,,,,020,2022-05-17_10h34.31.400,Main,2022.1.1,60.00841317722351,
neutral,negative,1,k,k,,,,,,,,,5,14,104,7,,,,,,,,,main,1,1,1,negative,neutral,k,k,1,0.7317817999864928,356.8473224999907,357.86054719999083,357.84385599999223,None,356.8473224999907,None,356.8473224999907,None,356.8473224999907,None,358.57483950997414,None,358.57483950997414,None,358.57483950997414,None,,,,,,,,,,,,,,020,2022-05-17_10h34.31.400,Main,2022.1.1,60.00841317722351,
negative,neutral,2,j,l,,,,,,,,,5,15,105,12,,,,,,,,,main,2,2,2,neutral,negative,j,j,1,1.0318446999881417,358.5785859999887,359.59377649999806,359.5771712999849,None,358.5785859999887,None,358.5785859999887,None,358.5785859999887,None,360.6081434099848,None,360.6081434099848,None,360.6081434099848,None,,,,,,,,,,,,,,020,2022-05-17_10h34.31.400,Main,2022.1.1,60.00841317722351,
neutral,neutral,1,k,k,,,,,,,,,5,16,106,1,,,,,,,,,main,2,2,1,neutral,neutral,k,k,1,0.9480878999747802,360.61382030000095,361.6248483999807,361.6104801999754,None,360.61382030000095,None,360.61382030000095,None,360.61382030000095,None,362.55808980999575,None,362.55808980999575,None,362.55808980999575,None,,,,,,,,,,,,,,020,2022-05-17_10h34.31.400,Main,2022.1.1,60.00841317722351,
positive,positive,1,l,j,,,,,,,,,5,17,107,2,,,,,,,,,main,2,2,1,positive,positive,l,l,1,0.9147950999904424,362.5615806999849,363.5744450999773,363.5577837000019,None,362.5615806999849,None,362.5615806999849,None,362.5615806999849,None,364.4743633099803,None,364.4743633099803,None,364.4743633099803,None,,,,,,,,,,,,,,020,2022-05-17_10h34.31.400,Main,2022.1.1,60.00841317722351,
neutral,positive,2,k,k,,,,,,,,,6,0,108,13,,,,,,,,,main,1,1,2,positive,neutral,k,k,1,0.7677099000138696,364.4744258999999,365.47706089998246,365.47706089998246,None,364.4744258999999,None,364.4744258999999,None,364.4744258999999,None,366.2437173099985,None,366.2437173099985,None,366.2437173099985,None,,,,,,,,,,,,,,020,2022-05-17_10h34.31.400,Main,2022.1.1,60.00841317722351,
positive,neutral,1,l,j,,,,,,,,,6,1,109,8,,,,,,,,,main,1,1,1,neutral,positive,l,l,1,0.829256400000304,366.24658209999325,367.260228500003,367.2437364999787,None,366.24658209999325,None,366.24658209999325,None,366.24658209999325,None,368.07464340999434,None,368.07464340999434,None,368.07464340999434,None,,,,,,,,,,,,,,020,2022-05-17_10h34.31.400,Main,2022.1.1,60.00841317722351,
negative,positive,1,j,l,,,,,,,,,6,2,110,6,,,,,,,,,main,1,1,1,positive,negative,j,j,1,0.9817827000224497,368.09371929999907,369.11025919998065,369.0747260999924,None,368.09371929999907,None,368.09371929999907,None,368.09371929999907,None,370.05794650998143,None,370.05794650998143,None,370.05794650998143,None,,,,,,,,,,,,,,020,2022-05-17_10h34.31.400,Main,2022.1.1,60.00841317722351,
negative,neutral,2,j,l,,,,,,,,,6,3,111,12,,,,,,,,,main,1,1,2,neutral,negative,j,j,1,0.7820706999918912,370.06191699998453,371.07467349999934,371.0436672999931,None,370.06191699998453,None,370.06191699998453,None,370.06191699998453,None,371.8412136099738,None,371.8412136099738,None,371.8412136099738,None,,,,,,,,,,,,,,020,2022-05-17_10h34.31.400,Main,2022.1.1,60.00841317722351,
negative,negative,1,j,l,,,,,,,,,6,4,112,0,,,,,,,,,main,2,2,1,negative,negative,j,j,1,0.750626299995929,371.84706469997764,372.85792879998917,372.84346659999574,None,371.84706469997764,None,371.84706469997764,None,371.84706469997764,None,373.59089790998553,None,373.59089790998553,None,373.59089790998553,None,,,,,,,,,,,,,,020,2022-05-17_10h34.31.400,Main,2022.1.1,60.00841317722351,
positive,neutral,2,l,j,,,,,,,,,6,5,113,17,,,,,,,,,main,1,1,2,neutral,positive,l,l,1,1.0125537000130862,373.5935062999779,374.60758219999843,374.5909129999927,None,373.5935062999779,None,373.5935062999779,None,373.5935062999779,None,375.6078120099934,None,375.6078120099934,None,375.6078120099934,None,,,,,,,,,,,,,,020,2022-05-17_10h34.31.400,Main,2022.1.1,60.00841317722351,
neutral,negative,2,k,k,,,,,,,,,6,6,114,16,,,,,,,,,main,1,1,2,negative,neutral,k,k,1,0.7982375000137836,375.6242895999749,376.6267697000003,376.61016789998394,None,375.6242895999749,None,375.6242895999749,None,375.6242895999749,None,377.4077842099738,None,377.4077842099738,None,377.4077842099738,None,,,,,,,,,,,,,,020,2022-05-17_10h34.31.400,Main,2022.1.1,60.00841317722351,
neutral,positive,1,k,k,,,,,,,,,6,7,115,4,,,,,,,,,main,1,1,1,positive,neutral,k,k,1,0.9320539000036661,377.42698629997903,378.4266649999772,378.4101949999749,None,377.42698629997903,None,377.42698629997903,None,377.42698629997903,None,379.3410951099737,None,379.3410951099737,None,379.3410951099737,None,,,,,,,,,,,,,,020,2022-05-17_10h34.31.400,Main,2022.1.1,60.00841317722351,
neutral,neutral,1,k,k,,,,,,,,,6,8,116,1,,,,,,,,,main,2,2,1,neutral,neutral,k,k,1,0.7150932000076864,379.34680800000206,380.36005629997817,380.3434247999976,None,379.34680800000206,None,379.34680800000206,None,379.34680800000206,None,381.0577153099963,None,381.0577153099963,None,381.0577153099963,None,,,,,,,,,,,,,,020,2022-05-17_10h34.31.400,Main,2022.1.1,60.00841317722351,
negative,negative,2,j,l,,,,,,,,,6,9,117,9,,,,,,,,,main,2,2,2,negative,negative,j,j,1,0.9649452000157908,381.0632667999889,382.0767068999994,382.0600692000007,None,381.0632667999889,None,381.0632667999889,None,381.0632667999889,None,383.0243386099843,None,383.0243386099843,None,383.0243386099843,None,,,,,,,,,,,,,,020,2022-05-17_10h34.31.400,Main,2022.1.1,60.00841317722351,
positive,negative,2,l,j,,,,,,,,,6,10,118,14,,,,,,,,,main,2,2,2,negative,positive,l,l,1,0.8649600000062492,383.0275491999928,384.04075309998007,384.0241401999956,None,383.0275491999928,None,383.0275491999928,None,383.0275491999928,None,384.8906140099949,None,384.8906140099949,None,384.8906140099949,None,,,,,,,,,,,,,,020,2022-05-17_10h34.31.400,Main,2022.1.1,60.00841317722351,
neutral,neutral,2,k,k,,,,,,,,,6,11,119,10,,,,,,,,,main,1,1,2,neutral,neutral,k,k,1,0.9320590999850538,384.89068799998495,385.89070639997954,385.89070639997954,None,384.89068799998495,None,384.89068799998495,None,384.89068799998495,None,386.82426050998913,None,386.82426050998913,None,386.82426050998913,None,,,,,,,,,,,,,,020,2022-05-17_10h34.31.400,Main,2022.1.1,60.00841317722351,
negative,neutral,1,j,l,,,,,,,,,6,12,120,3,,,,,,,,,main,1,1,1,neutral,negative,j,j,1,1.0009068000072148,386.83002860000124,387.8432305000024,387.8243200999859,None,386.83002860000124,None,386.83002860000124,None,386.83002860000124,None,388.82683610998504,None,388.82683610998504,None,388.82683610998504,None,,,,,,,,,,,,,,020,2022-05-17_10h34.31.400,Main,2022.1.1,60.00841317722351,
neutral,negative,1,k,k,,,,,,,,,6,13,121,7,,,,,,,,,main,1,1,1,negative,neutral,k,k,1,0.9628943999996409,388.83133899999666,389.8430919999955,389.82659630000126,None,388.83133899999666,None,388.83133899999666,None,388.83133899999666,None,390.7909410099761,None,390.7909410099761,None,390.7909410099761,None,,,,,,,,,,,,,,020,2022-05-17_10h34.31.400,Main,2022.1.1,60.00841317722351,
positive,positive,1,l,j,,,,,,,,,6,14,122,2,,,,,,,,,main,2,2,1,positive,positive,l,l,1,0.8982993999961764,390.79687999997986,391.80980829999316,391.79092679999303,None,390.79687999997986,None,390.79687999997986,None,390.79687999997986,None,392.69082960999515,None,392.69082960999515,None,392.69082960999515,None,,,,,,,,,,,,,,020,2022-05-17_10h34.31.400,Main,2022.1.1,60.00841317722351,
negative,positive,2,j,l,,,,,,,,,6,15,123,15,,,,,,,,,main,1,1,2,positive,negative,j,j,1,1.1644206999917515,392.69667249999475,393.7152070000011,393.6933590999979,None,392.69667249999475,None,392.69667249999475,None,392.69667249999475,None,394.85705120999194,None,394.85705120999194,None,394.85705120999194,None,,,,,,,,,,,,,,020,2022-05-17_10h34.31.400,Main,2022.1.1,60.00841317722351,
positive,negative,1,l,j,,,,,,,,,6,16,124,5,,,,,,,,,main,1,1,1,negative,positive,l,l,1,1.1643837000010535,394.8576815999986,395.8571612999949,395.8571612999949,None,394.8576815999986,None,394.8576815999986,None,394.8576815999986,None,397.0237797099777,None,397.0237797099777,None,397.0237797099777,None,,,,,,,,,,,,,,020,2022-05-17_10h34.31.400,Main,2022.1.1,60.00841317722351,
positive,positive,2,l,j,,,,,,,,,6,17,125,11,,,,,,,,,main,2,2,2,positive,positive,l,l,1,1.0832491999899503,397.0270233999763,398.026458599983,398.026458599983,None,397.0270233999763,None,397.0270233999763,None,397.0270233999763,None,399.1073729099968,None,399.1073729099968,None,399.1073729099968,None,,,,,,,,,,,,,,020,2022-05-17_10h34.31.400,Main,2022.1.1,60.00841317722351,
positive,neutral,2,l,j,,,,,,,,,7,0,126,17,,,,,,,,,main,2,2,2,neutral,positive,l,l,1,0.7151162999798544,399.11160589999054,400.1262693000026,400.1098885999818,None,399.11160589999054,None,399.11160589999054,None,399.11160589999054,None,400.82396550998385,None,400.82396550998385,None,400.82396550998385,None,,,,,,,,,,,,,,020,2022-05-17_10h34.31.400,Main,2022.1.1,60.00841317722351,
neutral,negative,2,k,k,,,,,,,,,7,1,127,16,,,,,,,,,main,2,2,2,negative,neutral,k,k,1,0.6974080000072718,400.82811989999027,401.84292039999855,401.8263369999768,None,400.82811989999027,None,400.82811989999027,None,400.82811989999027,None,402.5239592099766,None,402.5239592099766,None,402.5239592099766,None,,,,,,,,,,,,,,020,2022-05-17_10h34.31.400,Main,2022.1.1,60.00841317722351,
neutral,positive,1,k,k,,,,,,,,,7,2,128,4,,,,,,,,,main,1,1,1,positive,neutral,k,k,1,0.6649478000181261,402.5287105999887,403.54094669999904,403.5240249999915,None,402.5287105999887,None,402.5287105999887,None,402.5287105999887,None,404.19059800997786,None,404.19059800997786,None,404.19059800997786,None,,,,,,,,,,,,,,020,2022-05-17_10h34.31.400,Main,2022.1.1,60.00841317722351,
negative,negative,1,j,l,,,,,,,,,7,3,129,0,,,,,,,,,main,2,2,1,negative,negative,j,j,1,0.864806800003862,404.1942490999936,405.206958099996,405.1902934999962,None,404.1942490999936,None,404.1942490999936,None,404.1942490999936,None,406.0571300099924,None,406.0571300099924,None,406.0571300099924,None,,,,,,,,,,,,,,020,2022-05-17_10h34.31.400,Main,2022.1.1,60.00841317722351,
negative,neutral,2,j,l,,,,,,,,,7,4,130,12,,,,,,,,,main,2,2,2,neutral,negative,j,j,1,0.9653419000096619,406.0569647999946,407.0572222999763,407.0572222999763,None,406.0569647999946,None,406.0569647999946,None,406.0569647999946,None,408.023811509987,None,408.023811509987,None,408.023811509987,None,,,,,,,,,,,,,,020,2022-05-17_10h34.31.400,Main,2022.1.1,60.00841317722351,
neutral,neutral,2,k,k,,,,,,,,,7,5,131,10,,,,,,,,,main,2,2,2,neutral,neutral,k,k,1,0.7980905000003986,408.02980999997817,409.04281049998826,409.0262311999977,None,408.02980999997817,None,408.02980999997817,None,408.02980999997817,None,409.8237739099801,None,409.8237739099801,None,409.8237739099801,None,,,,,,,,,,,,,,020,2022-05-17_10h34.31.400,Main,2022.1.1,60.00841317722351,
neutral,negative,1,k,k,,,,,,,,,7,6,132,7,,,,,,,,,main,1,1,1,negative,neutral,k,k,1,0.7985548000142444,409.82693339997786,410.8261537999788,410.8261537999788,None,409.82693339997786,None,409.82693339997786,None,409.82693339997786,None,411.6238070099877,None,411.6238070099877,None,411.6238070099877,None,,,,,,,,,,,,,,020,2022-05-17_10h34.31.400,Main,2022.1.1,60.00841317722351,
positive,negative,2,l,j,,,,,,,,,7,7,133,14,,,,,,,,,main,1,1,2,negative,positive,l,l,1,0.8326360999781173,411.62709889997495,412.64274849998765,412.62383609998506,None,411.62709889997495,None,411.62709889997495,None,411.62709889997495,None,413.4570803099865,None,413.4570803099865,None,413.4570803099865,None,,,,,,,,,,,,,,020,2022-05-17_10h34.31.400,Main,2022.1.1,60.00841317722351,
positive,positive,2,l,j,,,,,,,,,7,8,134,11,,,,,,,,,main,2,2,2,positive,positive,l,l,1,0.6805060000042431,413.461361099995,414.4759284000029,414.4571176999889,None,413.461361099995,None,413.461361099995,None,413.461361099995,None,415.14001110997344,None,415.14001110997344,None,415.14001110997344,None,,,,,,,,,,,,,,020,2022-05-17_10h34.31.400,Main,2022.1.1,60.00841317722351,
neutral,positive,2,k,k,,,,,,,,,7,9,135,13,,,,,,,,,main,1,1,2,positive,neutral,k,k,1,0.7482825000188313,415.1400660999934,416.14028079999844,416.14028079999844,None,415.1400660999934,None,415.1400660999934,None,415.1400660999934,None,416.8899776099803,None,416.8899776099803,None,416.8899776099803,None,,,,,,,,,,,,,,020,2022-05-17_10h34.31.400,Main,2022.1.1,60.00841317722351,
positive,negative,1,l,j,,,,,,,,,7,10,136,5,,,,,,,,,main,1,1,1,negative,positive,l,l,1,1.2319486000051256,416.8926103999838,417.90674009997747,417.89007139997557,None,416.8926103999838,None,416.8926103999838,None,416.8926103999838,None,419.12366420997716,None,419.12366420997716,None,419.12366420997716,None,,,,,,,,,,,,,,020,2022-05-17_10h34.31.400,Main,2022.1.1,60.00841317722351,
negative,positive,1,j,l,,,,,,,,,7,11,137,6,,,,,,,,,main,1,1,1,positive,negative,j,j,1,0.8518159000086598,419.1317993999983,420.1426644999883,420.1259220999782,None,419.1317993999983,None,419.1317993999983,None,419.1317993999983,None,420.9737108099886,None,420.9737108099886,None,420.9737108099886,None,,,,,,,,,,,,,,020,2022-05-17_10h34.31.400,Main,2022.1.1,60.00841317722351,
positive,positive,1,l,j,,,,,,,,,7,12,138,2,,,,,,,,,main,2,2,1,positive,positive,l,l,1,0.7276380000112113,420.98078919999534,421.9925993999932,421.97590289998334,None,420.98078919999534,None,420.98078919999534,None,420.98078919999534,None,422.70687730998327,None,422.70687730998327,None,422.70687730998327,None,,,,,,,,,,,,,,020,2022-05-17_10h34.31.400,Main,2022.1.1,60.00841317722351,
negative,neutral,1,j,l,,,,,,,,,7,13,139,3,,,,,,,,,main,2,2,1,neutral,negative,j,j,1,1.1148721000063233,422.7102354999806,423.7236165999784,423.707319499983,None,422.7102354999806,None,422.7102354999806,None,422.7102354999806,None,424.82350141000063,None,424.82350141000063,None,424.82350141000063,None,,,,,,,,,,,,,,020,2022-05-17_10h34.31.400,Main,2022.1.1,60.00841317722351,
positive,neutral,1,l,j,,,,,,,,,7,14,140,8,,,,,,,,,main,2,2,1,neutral,positive,l,l,1,0.883594400016591,424.82739209997817,425.83884620000026,425.8228366999829,None,424.82739209997817,None,424.82739209997817,None,424.82739209997817,None,426.70645040999227,None,426.70645040999227,None,426.70645040999227,None,,,,,,,,,,,,,,020,2022-05-17_10h34.31.400,Main,2022.1.1,60.00841317722351,
neutral,neutral,1,k,k,,,,,,,,,7,15,141,1,,,,,,,,,main,2,2,1,neutral,neutral,k,k,1,0.6630562999926042,426.70821819998673,427.7231610000017,427.7065302999981,None,426.70821819998673,None,426.70821819998673,None,426.70821819998673,None,428.3731273099926,None,428.3731273099926,None,428.3731273099926,None,,,,,,,,,,,,,,020,2022-05-17_10h34.31.400,Main,2022.1.1,60.00841317722351,
negative,positive,2,j,l,,,,,,,,,7,16,142,15,,,,,,,,,main,1,1,2,positive,negative,j,j,1,0.8820225000090431,428.37638479997986,429.375811099977,429.375811099977,None,428.37638479997986,None,428.37638479997986,None,428.37638479997986,None,430.2568388099986,None,430.2568388099986,None,430.2568388099986,None,,,,,,,,,,,,,,020,2022-05-17_10h34.31.400,Main,2022.1.1,60.00841317722351,
negative,negative,2,j,l,,,,,,,,,7,17,143,9,,,,,,,,,main,2,2,2,negative,negative,j,j,1,0.6650379000057001,430.2629253999912,431.2734667999903,431.2590549000015,None,430.2629253999912,None,430.2629253999912,None,430.2629253999912,None,431.9233305099857,None,431.9233305099857,None,431.9233305099857,None,,,,,,,,,,,,,,020,2022-05-17_10h34.31.400,Main,2022.1.1,60.00841317722351,
negative,positive,1,j,l,,,,,,,,,8,0,144,6,,,,,,,,,main,1,1,1,positive,negative,j,j,1,0.648629199975403,431.92894379998324,432.94226409998373,432.925714699988,None,431.92894379998324,None,431.92894379998324,None,431.92894379998324,None,433.5733775099885,None,433.5733775099885,None,433.5733775099885,None,,,,,,,,,,,,,,020,2022-05-17_10h34.31.400,Main,2022.1.1,60.00841317722351,
neutral,negative,1,k,k,,,,,,,,,8,1,145,7,,,,,,,,,main,2,2,1,negative,neutral,k,k,1,0.7152431000140496,433.5770590999746,434.5900413999916,434.57565759998397,None,433.5770590999746,None,433.5770590999746,None,433.5770590999746,None,435.2899700099748,None,435.2899700099748,None,435.2899700099748,None,,,,,,,,,,,,,,020,2022-05-17_10h34.31.400,Main,2022.1.1,60.00841317722351,
neutral,neutral,1,k,k,,,,,,,,,8,2,146,1,,,,,,,,,main,1,1,1,neutral,neutral,k,k,1,0.5476873999868985,435.2934558999841,436.3063235000009,436.2896442999772,None,435.2934558999841,None,435.2934558999841,None,435.2934558999841,None,436.83954470998435,None,436.83954470998435,None,436.83954470998435,None,,,,,,,,,,,,,,020,2022-05-17_10h34.31.400,Main,2022.1.1,60.00841317722351,
negative,negative,1,j,l,,,,,,,,,8,3,147,0,,,,,,,,,main,2,2,1,negative,negative,j,j,1,0.7818807000003289,436.8396269999794,437.83959959997446,437.83959959997446,None,436.8396269999794,None,436.8396269999794,None,436.8396269999794,None,438.6229019099934,None,438.6229019099934,None,438.6229019099934,None,,,,,,,,,,,,,,020,2022-05-17_10h34.31.400,Main,2022.1.1,60.00841317722351,
positive,negative,2,l,j,,,,,,,,,8,4,148,14,,,,,,,,,main,2,2,2,negative,positive,l,l,1,0.7818202000053134,438.6276739999885,439.6399281999911,439.6229899000027,None,438.6276739999885,None,438.6276739999885,None,438.6276739999885,None,440.40658850997863,None,440.40658850997863,None,440.40658850997863,None,,,,,,,,,,,,,,020,2022-05-17_10h34.31.400,Main,2022.1.1,60.00841317722351,
negative,neutral,2,j,l,,,,,,,,,8,5,149,12,,,,,,,,,main,2,2,2,neutral,negative,j,j,1,0.8975312999973539,440.4129654999997,441.4255913999805,441.40895789998467,None,440.4129654999997,None,440.4129654999997,None,440.4129654999997,None,442.3065125099762,None,442.3065125099762,None,442.3065125099762,None,,,,,,,,,,,,,,020,2022-05-17_10h34.31.400,Main,2022.1.1,60.00841317722351,
neutral,positive,1,k,k,,,,,,,,,8,6,150,4,,,,,,,,,main,2,2,1,positive,neutral,k,k,1,0.8326650999952108,442.309998599987,443.3088252999878,443.3088252999878,None,442.309998599987,None,442.309998599987,None,442.309998599987,None,444.13986620997605,None,444.13986620997605,None,444.13986620997605,None,,,,,,,,,,,,,,020,2022-05-17_10h34.31.400,Main,2022.1.1,60.00841317722351,
positive,positive,2,l,j,,,,,,,,,8,7,151,11,,,,,,,,,main,2,2,2,positive,positive,l,l,1,0.7977937999821734,444.1462530999852,445.15649439999834,445.13982620000024,None,444.1462530999852,None,444.1462530999852,None,444.1462530999852,None,445.93988631000104,None,445.93988631000104,None,445.93988631000104,None,,,,,,,,,,,,,,020,2022-05-17_10h34.31.400,Main,2022.1.1,60.00841317722351,
positive,neutral,2,l,j,,,,,,,,,8,8,152,17,,,,,,,,,main,1,1,2,neutral,positive,l,l,1,0.7642857000173535,445.94355509997695,446.95581429998856,446.9339411999972,None,445.94355509997695,None,445.94355509997695,None,445.94355509997695,None,447.70602620999273,None,447.70602620999273,None,447.70602620999273,None,,,,,,,,,,,,,,020,2022-05-17_10h34.31.400,Main,2022.1.1,60.00841317722351,
negative,negative,2,j,l,,,,,,,,,8,9,153,9,,,,,,,,,main,2,2,2,negative,negative,j,j,1,0.7983994999958668,447.70607769998605,448.70622909997473,448.70622909997473,None,447.70607769998605,None,447.70607769998605,None,447.70607769998605,None,449.50625860997536,None,449.50625860997536,None,449.50625860997536,None,,,,,,,,,,,,,,020,2022-05-17_10h34.31.400,Main,2022.1.1,60.00841317722351,
positive,positive,1,l,j,,,,,,,,,8,10,154,2,,,,,,,,,main,1,1,1,positive,positive,l,l,1,0.7323960000067018,449.50939629998174,450.50873519998277,450.50873519998277,None,449.50939629998174,None,449.50939629998174,None,449.50939629998174,None,451.239901809991,None,451.239901809991,None,451.239901809991,None,,,,,,,,,,,,,,020,2022-05-17_10h34.31.400,Main,2022.1.1,60.00841317722351,
negative,neutral,1,j,l,,,,,,,,,8,11,155,3,,,,,,,,,main,2,2,1,neutral,negative,j,j,1,0.9314090000116266,451.24561699997867,452.25859029998537,452.24199849998695,None,451.24561699997867,None,451.24561699997867,None,451.24561699997867,None,453.1729189099948,None,453.1729189099948,None,453.1729189099948,None,,,,,,,,,,,,,,020,2022-05-17_10h34.31.400,Main,2022.1.1,60.00841317722351,
neutral,neutral,2,k,k,,,,,,,,,8,12,156,10,,,,,,,,,main,2,2,2,neutral,neutral,k,k,1,1.3484338999842294,453.1788510999759,454.1896213,454.1729587999871,None,453.1788510999759,None,453.1788510999759,None,453.1788510999759,None,455.5228920099995,None,455.5228920099995,None,455.5228920099995,None,,,,,,,,,,,,,,020,2022-05-17_10h34.31.400,Main,2022.1.1,60.00841317722351,
neutral,negative,2,k,k,,,,,,,,,8,13,157,16,,,,,,,,,main,2,2,2,negative,neutral,k,k,1,0.8970439999829978,455.529298199981,456.54179429999203,456.52519519999623,None,455.529298199981,None,455.529298199981,None,455.529298199981,None,457.4224919099739,None,457.4224919099739,None,457.4224919099739,None,,,,,,,,,,,,,,020,2022-05-17_10h34.31.400,Main,2022.1.1,60.00841317722351,
positive,negative,1,l,j,,,,,,,,,8,14,158,5,,,,,,,,,main,1,1,1,negative,positive,l,l,1,1.1031037999782711,457.4225696999929,458.4228637999913,458.4228637999913,None,457.4225696999929,None,457.4225696999929,None,457.4225696999929,None,459.52251910998314,None,459.52251910998314,None,459.52251910998314,None,,,,,,,,,,,,,,020,2022-05-17_10h34.31.400,Main,2022.1.1,60.00841317722351,
negative,positive,2,j,l,,,,,,,,,8,15,159,15,,,,,,,,,main,1,1,2,positive,negative,j,j,1,0.9268575999885798,459.52854819997447,460.53923029999714,460.5227852999815,None,459.52854819997447,None,459.52854819997447,None,459.52854819997447,None,461.4561466099782,None,461.4561466099782,None,461.4561466099782,None,,,,,,,,,,,,,,020,2022-05-17_10h34.31.400,Main,2022.1.1,60.00841317722351,
neutral,positive,2,k,k,,,,,,,,,8,16,160,13,,,,,,,,,main,1,1,2,positive,neutral,k,k,1,0.9319690999982413,461.46249199999147,462.47517169997445,462.4561799999792,None,461.46249199999147,None,461.46249199999147,None,461.46249199999147,None,463.3894790099963,None,463.3894790099963,None,463.3894790099963,None,,,,,,,,,,,,,,020,2022-05-17_10h34.31.400,Main,2022.1.1,60.00841317722351,
positive,neutral,1,l,j,,,,,,,,,8,17,161,8,,,,,,,,,main,2,2,1,neutral,positive,l,l,1,1.41476149999653,463.3953979999933,464.408442999993,464.39181479997933,None,463.3953979999933,None,463.3953979999933,None,463.3953979999933,None,465.8059652099997,None,465.8059652099997,None,465.8059652099997,None,,,,,,,,,,,,,,020,2022-05-17_10h34.31.400,Main,2022.1.1,60.00841317722351,
positive,neutral,2,l,j,,,,,,,,,9,0,162,17,,,,,,,,,main,1,1,2,neutral,positive,l,l,1,0.749106600007508,465.8091856999963,466.80603169999085,466.80603169999085,None,465.8091856999963,None,465.8091856999963,None,465.8091856999963,None,467.55609740998773,None,467.55609740998773,None,467.55609740998773,None,,,,,,,,,,,,,,020,2022-05-17_10h34.31.400,Main,2022.1.1,60.00841317722351,
neutral,negative,1,k,k,,,,,,,,,9,1,163,7,,,,,,,,,main,2,2,1,negative,neutral,k,k,1,0.8134464000177104,467.56079329998465,468.57231649997993,468.55565860000206,None,467.56079329998465,None,467.56079329998465,None,467.56079329998465,None,469.37261100999024,None,469.37261100999024,None,469.37261100999024,None,,,,,,,,,,,,,,020,2022-05-17_10h34.31.400,Main,2022.1.1,60.00841317722351,
negative,neutral,2,j,l,,,,,,,,,9,2,164,12,,,,,,,,,main,2,2,2,neutral,negative,j,j,1,0.9982305000012275,469.3724274999986,470.37235179997515,470.37235179997515,None,469.3724274999986,None,469.3724274999986,None,469.3724274999986,None,471.37259440998025,None,471.37259440998025,None,471.37259440998025,None,,,,,,,,,,,,,,020,2022-05-17_10h34.31.400,Main,2022.1.1,60.00841317722351,
negative,positive,2,j,l,,,,,,,,,9,3,165,15,,,,,,,,,main,1,1,2,positive,negative,j,j,1,0.7698444000270683,471.37899749999633,472.39145329999155,472.3749163999746,None,471.37899749999633,None,471.37899749999633,None,471.37899749999633,None,473.1428195099958,None,473.1428195099958,None,473.1428195099958,None,,,,,,,,,,,,,,020,2022-05-17_10h34.31.400,Main,2022.1.1,60.00841317722351,
negative,negative,2,j,l,,,,,,,,,9,4,166,9,,,,,,,,,main,1,1,2,negative,negative,j,j,1,0.7771075000055134,473.1468821000017,474.155929200002,474.141606899997,None,473.1468821000017,None,473.1468821000017,None,473.1468821000017,None,474.92247530999305,None,474.92247530999305,None,474.92247530999305,None,,,,,,,,,,,,,,020,2022-05-17_10h34.31.400,Main,2022.1.1,60.00841317722351,
negative,neutral,1,j,l,,,,,,,,,9,5,167,3,,,,,,,,,main,2,2,1,neutral,negative,j,j,1,0.765060400008224,474.92835539998487,475.93918649997795,475.9225261999818,None,474.92835539998487,None,474.92835539998487,None,474.92835539998487,None,476.6891043099837,None,476.6891043099837,None,476.6891043099837,None,,,,,,,,,,,,,,020,2022-05-17_10h34.31.400,Main,2022.1.1,60.00841317722351,
positive,negative,2,l,j,,,,,,,,,9,6,168,14,,,,,,,,,main,2,2,2,negative,positive,l,l,1,1.165722600009758,476.694889699982,477.7079496999795,477.6914271999849,None,476.694889699982,None,476.694889699982,None,476.694889699982,None,478.8553748099745,None,478.8553748099745,None,478.8553748099745,None,,,,,,,,,,,,,,020,2022-05-17_10h34.31.400,Main,2022.1.1,60.00841317722351,
neutral,negative,2,k,k,,,,,,,,,9,7,169,16,,,,,,,,,main,2,2,2,negative,neutral,k,k,1,0.8805304999987129,478.8721474999911,479.872091600002,479.85542409998016,None,478.8721474999911,None,478.8721474999911,None,478.8721474999911,None,480.7386918099743,None,480.7386918099743,None,480.7386918099743,None,,,,,,,,,,,,,,020,2022-05-17_10h34.31.400,Main,2022.1.1,60.00841317722351,
neutral,positive,1,k,k,,,,,,,,,9,8,170,4,,,,,,,,,main,1,1,1,positive,neutral,k,k,1,1.3514884000178427,480.7387821000011,481.73876779997954,481.73876779997954,None,480.7387821000011,None,480.7387821000011,None,480.7387821000011,None,483.0916265099746,None,483.0916265099746,None,483.0916265099746,None,,,,,,,,,,,,,,020,2022-05-17_10h34.31.400,Main,2022.1.1,60.00841317722351,
neutral,positive,2,k,k,,,,,,,,,9,9,171,13,,,,,,,,,main,2,2,2,positive,neutral,k,k,1,0.7291804999986198,483.09627479998744,484.1078961000021,484.0913213999884,None,483.09627479998744,None,483.09627479998744,None,483.09627479998744,None,484.8222811099928,None,484.8222811099928,None,484.8222811099928,None,,,,,,,,,,,,,,020,2022-05-17_10h34.31.400,Main,2022.1.1,60.00841317722351,
negative,positive,1,j,l,,,,,,,,,9,10,172,6,,,,,,,,,main,1,1,1,positive,negative,j,j,1,0.931572600005893,484.82820769998943,485.84119799998007,485.8246099999815,None,484.82820769998943,None,484.82820769998943,None,484.82820769998943,None,486.7555913099874,None,486.7555913099874,None,486.7555913099874,None,,,,,,,,,,,,,,020,2022-05-17_10h34.31.400,Main,2022.1.1,60.00841317722351,
positive,negative,1,l,j,,,,,,,,,9,11,173,5,,,,,,,,,main,2,2,1,negative,positive,l,l,1,1.1309954000171274,486.7619869999762,487.7745147999958,487.75791479999316,None,486.7619869999762,None,486.7619869999762,None,486.7619869999762,None,488.88885100998743,None,488.88885100998743,None,488.88885100998743,None,,,,,,,,,,,,,,020,2022-05-17_10h34.31.400,Main,2022.1.1,60.00841317722351,
neutral,neutral,1,k,k,,,,,,,,,9,12,174,1,,,,,,,,,main,1,1,1,neutral,neutral,k,k,1,0.9646102999977302,488.89208429999417,489.9048487999826,489.8875788000005,None,488.89208429999417,None,488.89208429999417,None,488.89208429999417,None,490.8551228099765,None,490.8551228099765,None,490.8551228099765,None,,,,,,,,,,,,,,020,2022-05-17_10h34.31.400,Main,2022.1.1,60.00841317722351,
neutral,neutral,2,k,k,,,,,,,,,9,13,175,10,,,,,,,,,main,1,1,2,neutral,neutral,k,k,1,0.7986115000094287,490.855224799976,491.8552208999754,491.8552208999754,None,490.855224799976,None,490.855224799976,None,490.855224799976,None,492.6555558100023,None,492.6555558100023,None,492.6555558100023,None,,,,,,,,,,,,,,020,2022-05-17_10h34.31.400,Main,2022.1.1,60.00841317722351,
positive,positive,1,l,j,,,,,,,,,9,14,176,2,,,,,,,,,main,2,2,1,positive,positive,l,l,1,0.8652813000080641,492.66109189999406,493.6743709000002,493.65787159997853,None,492.66109189999406,None,492.66109189999406,None,492.66109189999406,None,494.52208210997344,None,494.52208210997344,None,494.52208210997344,None,,,,,,,,,,,,,,020,2022-05-17_10h34.31.400,Main,2022.1.1,60.00841317722351,
positive,positive,2,l,j,,,,,,,,,9,15,177,11,,,,,,,,,main,2,2,2,positive,positive,l,l,1,0.7815395000216085,494.52582619999885,495.5409798999899,495.52212999999756,None,494.52582619999885,None,494.52582619999885,None,494.52582619999885,None,496.30535740999915,None,496.30535740999915,None,496.30535740999915,None,,,,,,,,,,,,,,020,2022-05-17_10h34.31.400,Main,2022.1.1,60.00841317722351,
negative,negative,1,j,l,,,,,,,,,9,16,178,0,,,,,,,,,main,1,1,1,negative,negative,j,j,1,1.4689935999922454,496.30890949998866,497.3220870999794,497.30773439997574,None,496.30890949998866,None,496.30890949998866,None,496.30890949998866,None,498.77199070997597,None,498.77199070997597,None,498.77199070997597,None,,,,,,,,,,,,,,020,2022-05-17_10h34.31.400,Main,2022.1.1,60.00841317722351,
positive,neutral,1,l,j,,,,,,,,,9,17,179,8,,,,,,,,,main,2,2,1,neutral,positive,l,l,1,0.89298959998996,498.7805956999946,499.78833739997935,499.77168809997966,None,498.7805956999946,None,498.7805956999946,None,498.7805956999946,None,500.67159300999776,None,500.67159300999776,None,500.67159300999776,None,,,,,,,,,,,,,,020,2022-05-17_10h34.31.400,Main,2022.1.1,60.00841317722351,
negative,positive,1,j,l,,,,,,,,,10,0,180,6,,,,,,,,,main,1,1,1,positive,negative,j,j,1,0.9818908000015654,500.6716795999964,501.67167379998136,501.67167379998136,None,500.6716795999964,None,500.6716795999964,None,500.6716795999964,None,502.6549560099753,None,502.6549560099753,None,502.6549560099753,None,,,,,,,,,,,,,,020,2022-05-17_10h34.31.400,Main,2022.1.1,60.00841317722351,
negative,positive,2,j,l,,,,,,,,,10,1,181,15,,,,,,,,,main,1,1,2,positive,negative,j,j,1,0.8650364999775775,502.658509699977,503.6576926999842,503.6576926999842,None,502.658509699977,None,502.658509699977,None,502.658509699977,None,504.5219205099944,None,504.5219205099944,None,504.5219205099944,None,,,,,,,,,,,,,,020,2022-05-17_10h34.31.400,Main,2022.1.1,60.00841317722351,
neutral,neutral,2,k,k,,,,,,,,,10,2,182,10,,,,,,,,,main,2,2,2,neutral,neutral,k,k,1,0.8327353000058793,504.5251731000026,505.5408133000019,505.5242584999942,None,504.5251731000026,None,504.5251731000026,None,504.5251731000026,None,506.35517820999087,None,506.35517820999087,None,506.35517820999087,None,,,,,,,,,,,,,,020,2022-05-17_10h34.31.400,Main,2022.1.1,60.00841317722351,
positive,positive,2,l,j,,,,,,,,,10,3,183,11,,,,,,,,,main,2,2,2,positive,positive,l,l,1,0.9140996999922208,506.361551399983,507.3741023999755,507.35751459997846,None,506.361551399983,None,506.361551399983,None,506.361551399983,None,508.2717837100005,None,508.2717837100005,None,508.2717837100005,None,,,,,,,,,,,,,,020,2022-05-17_10h34.31.400,Main,2022.1.1,60.00841317722351,
positive,negative,1,l,j,,,,,,,,,10,4,184,5,,,,,,,,,main,1,1,1,negative,positive,l,l,1,0.9485503000032622,508.2772143999755,509.2907201999915,509.2740658999828,None,508.2772143999755,None,508.2772143999755,None,508.2772143999755,None,510.2217535099859,None,510.2217535099859,None,510.2217535099859,None,,,,,,,,,,,,,,020,2022-05-17_10h34.31.400,Main,2022.1.1,60.00841317722351,
negative,negative,1,j,l,,,,,,,,,10,5,185,0,,,,,,,,,main,1,1,1,negative,negative,j,j,1,1.0144364000007045,510.227464399999,511.2381187999854,511.2214557999978,None,510.227464399999,None,510.227464399999,None,510.227464399999,None,512.2380282099854,None,512.2380282099854,None,512.2380282099854,None,,,,,,,,,,,,,,020,2022-05-17_10h34.31.400,Main,2022.1.1,60.00841317722351,
neutral,positive,1,k,k,,,,,,,,,10,6,186,4,,,,,,,,,main,1,1,1,positive,neutral,k,k,1,0.865459099994041,512.2384185999981,513.2381254999782,513.2381254999782,None,512.2384185999981,None,512.2384185999981,None,512.2384185999981,None,514.105051309985,None,514.105051309985,None,514.105051309985,None,,,,,,,,,,,,,,020,2022-05-17_10h34.31.400,Main,2022.1.1,60.00841317722351,
positive,neutral,1,l,j,,,,,,,,,10,7,187,8,,,,,,,,,main,1,1,1,neutral,positive,l,l,1,1.0318781999812927,514.1105816999916,515.123986999999,515.1050428999879,None,514.1105816999916,None,514.1105816999916,None,514.1105816999916,None,516.138336009995,None,516.138336009995,None,516.138336009995,None,,,,,,,,,,,,,,020,2022-05-17_10h34.31.400,Main,2022.1.1,60.00841317722351,
negative,negative,2,j,l,,,,,,,,,10,8,188,9,,,,,,,,,main,1,1,2,negative,negative,j,j,1,1.1316218000138178,516.1441965999838,517.1550768000016,517.1386321999889,None,516.1441965999838,None,516.1441965999838,None,516.1441965999838,None,518.2717186099995,None,518.2717186099995,None,518.2717186099995,None,,,,,,,,,,,,,,020,2022-05-17_10h34.31.400,Main,2022.1.1,60.00841317722351,
neutral,negative,1,k,k,,,,,,,,,10,9,189,7,,,,,,,,,main,2,2,1,negative,neutral,k,k,1,0.9650311000004876,518.2773988999834,519.2882899999968,519.2739417999983,None,518.2773988999834,None,518.2773988999834,None,518.2773988999834,None,520.2381650099793,None,520.2381650099793,None,520.2381650099793,None,,,,,,,,,,,,,,020,2022-05-17_10h34.31.400,Main,2022.1.1,60.00841317722351,
neutral,positive,2,k,k,,,,,,,,,10,10,190,13,,,,,,,,,main,2,2,2,positive,neutral,k,k,1,0.8980950999830384,520.2447499999835,521.2546244999976,521.2379707999935,None,520.2447499999835,None,520.2447499999835,None,520.2447499999835,None,522.1378462099907,None,522.1378462099907,None,522.1378462099907,None,,,,,,,,,,,,,,020,2022-05-17_10h34.31.400,Main,2022.1.1,60.00841317722351,
negative,neutral,1,j,l,,,,,,,,,10,11,191,3,,,,,,,,,main,2,2,1,neutral,negative,j,j,1,0.848298099997919,522.1379216999921,523.1379306000017,523.1379306000017,None,522.1379216999921,None,522.1379216999921,None,522.1379216999921,None,523.9878738099738,None,523.9878738099738,None,523.9878738099738,None,,,,,,,,,,,,,,020,2022-05-17_10h34.31.400,Main,2022.1.1,60.00841317722351,
positive,positive,1,l,j,,,,,,,,,10,12,192,2,,,,,,,,,main,2,2,1,positive,positive,l,l,1,0.8181086000113282,523.9936832999811,525.007216500002,524.9905239999935,None,523.9936832999811,None,523.9936832999811,None,523.9936832999811,None,525.8072115100018,None,525.8072115100018,None,525.8072115100018,None,,,,,,,,,,,,,,020,2022-05-17_10h34.31.400,Main,2022.1.1,60.00841317722351,
positive,negative,2,l,j,,,,,,,,,10,13,193,14,,,,,,,,,main,1,1,2,negative,positive,l,l,1,0.7289318999974057,525.8118353999744,526.8236371999956,526.8048295999761,None,525.8118353999744,None,525.8118353999744,None,525.8118353999744,None,527.5380902099802,None,527.5380902099802,None,527.5380902099802,None,,,,,,,,,,,,,,020,2022-05-17_10h34.31.400,Main,2022.1.1,60.00841317722351,
neutral,negative,2,k,k,,,,,,,,,10,14,194,16,,,,,,,,,main,2,2,2,negative,neutral,k,k,1,0.8651385999983177,527.5414201999956,528.5570376999967,528.5403662000026,None,527.5414201999956,None,527.5414201999956,None,527.5414201999956,None,529.4047106099985,None,529.4047106099985,None,529.4047106099985,None,,,,,,,,,,,,,,020,2022-05-17_10h34.31.400,Main,2022.1.1,60.00841317722351,
negative,neutral,2,j,l,,,,,,,,,10,15,195,12,,,,,,,,,main,2,2,2,neutral,negative,j,j,1,0.9341495000116993,529.4102590999973,530.4237228999846,530.4070976999938,None,529.4102590999973,None,529.4102590999973,None,529.4102590999973,None,531.3403752099927,None,531.3403752099927,None,531.3403752099927,None,,,,,,,,,,,,,,020,2022-05-17_10h34.31.400,Main,2022.1.1,60.00841317722351,
positive,neutral,2,l,j,,,,,,,,,10,16,196,17,,,,,,,,,main,2,2,2,neutral,positive,l,l,1,0.8156007000070531,531.3444681999972,532.3409126999904,532.3342605999787,None,531.3444681999972,None,531.3444681999972,None,531.3444681999972,None,533.1542920099834,None,533.1542920099834,None,533.1542920099834,None,,,,,,,,,,,,,,020,2022-05-17_10h34.31.400,Main,2022.1.1,60.00841317722351,
neutral,neutral,1,k,k,,,,,,,,,10,17,197,1,,,,,,,,,main,2,2,1,neutral,neutral,k,k,1,0.7435988999786787,533.1604063999839,534.1712715999747,534.1543916999944,None,533.1604063999839,None,533.1604063999839,None,533.1604063999839,None,534.9045950099913,None,534.9045950099913,None,534.9045950099913,None,,,,,,,,,,,,,,020,2022-05-17_10h34.31.400,Main,2022.1.1,60.00841317722351,
neutral,neutral,2,k,k,,,,,,,,,11,0,198,10,,,,,,,,,main,1,1,2,neutral,neutral,k,k,1,0.6149512999982107,534.9104243999755,535.9234836999967,535.9069616999768,None,534.9104243999755,None,534.9104243999755,None,534.9104243999755,None,536.521278209993,None,536.521278209993,None,536.521278209993,None,,,,,,,,,,,,,,020,2022-05-17_10h34.31.400,Main,2022.1.1,60.00841317722351,
negative,neutral,1,j,l,,,,,,,,,11,1,199,3,,,,,,,,,main,1,1,1,neutral,negative,j,j,1,0.8984405000228435,536.5276502999768,537.5401872999792,537.521295899991,None,536.5276502999768,None,536.5276502999768,None,536.5276502999768,None,538.4211994099984,None,538.4211994099984,None,538.4211994099984,None,,,,,,,,,,,,,,020,2022-05-17_10h34.31.400,Main,2022.1.1,60.00841317722351,
negative,neutral,2,j,l,,,,,,,,,11,2,200,12,,,,,,,,,main,1,1,2,neutral,negative,j,j,1,0.7486833000148181,538.4267614999844,539.4383180000004,539.4215134999831,None,538.4267614999844,None,538.4267614999844,None,538.4267614999844,None,540.1711194100004,None,540.1711194100004,None,540.1711194100004,None,,,,,,,,,,,,,,020,2022-05-17_10h34.31.400,Main,2022.1.1,60.00841317722351,
positive,neutral,2,l,j,,,,,,,,,11,3,201,17,,,,,,,,,main,2,2,2,neutral,positive,l,l,1,0.8325642999843694,540.1771050999814,541.190042799979,541.1734570999979,None,540.1771050999814,None,540.1771050999814,None,540.1771050999814,None,542.0044696099736,None,542.0044696099736,None,542.0044696099736,None,,,,,,,,,,,,,,020,2022-05-17_10h34.31.400,Main,2022.1.1,60.00841317722351,
positive,negative,2,l,j,,,,,,,,,11,4,202,14,,,,,,,,,main,1,1,2,negative,positive,l,l,1,0.8470481999975163,542.0113689999853,543.0208102999895,543.0041465999966,None,542.0113689999853,None,542.0113689999853,None,542.0113689999853,None,543.8540439099976,None,543.8540439099976,None,543.8540439099976,None,,,,,,,,,,,,,,020,2022-05-17_10h34.31.400,Main,2022.1.1,60.00841317722351,
positive,negative,1,l,j,,,,,,,,,11,5,203,5,,,,,,,,,main,1,1,1,negative,positive,l,l,1,0.7987110999820288,543.854121899989,544.854145499994,544.854145499994,None,543.854121899989,None,543.854121899989,None,543.854121899989,None,545.6543862100021,None,545.6543862100021,None,545.6543862100021,None,,,,,,,,,,,,,,020,2022-05-17_10h34.31.400,Main,2022.1.1,60.00841317722351,
neutral,neutral,1,k,k,,,,,,,,,11,6,204,1,,,,,,,,,main,2,2,1,neutral,neutral,k,k,1,0.7150949999922886,545.6575403999886,546.6710880000028,546.6380367999955,None,545.6575403999886,None,545.6575403999886,None,545.6575403999886,None,547.3710076099757,None,547.3710076099757,None,547.3710076099757,None,,,,,,,,,,,,,,020,2022-05-17_10h34.31.400,Main,2022.1.1,60.00841317722351,
positive,neutral,1,l,j,,,,,,,,,11,7,205,8,,,,,,,,,main,2,2,1,neutral,positive,l,l,1,0.7187408999889158,547.3764818999916,548.3878355999768,548.3710735999921,None,547.3764818999916,None,547.3764818999916,None,547.3764818999916,None,549.0873433099856,None,549.0873433099856,None,549.0873433099856,None,,,,,,,,,,,,,,020,2022-05-17_10h34.31.400,Main,2022.1.1,60.00841317722351,
positive,positive,1,l,j,,,,,,,,,11,8,206,2,,,,,,,,,main,1,1,1,positive,positive,l,l,1,0.7443189999903552,549.0948439999775,550.1044685999805,550.0900412999908,None,549.0948439999775,None,549.0948439999775,None,549.0948439999775,None,550.8375696099916,None,550.8375696099916,None,550.8375696099916,None,,,,,,,,,,,,,,020,2022-05-17_10h34.31.400,Main,2022.1.1,60.00841317722351,
neutral,negative,1,k,k,,,,,,,,,11,9,207,7,,,,,,,,,main,1,1,1,negative,neutral,k,k,1,0.7814245999907143,550.8437962000025,551.8565713999851,551.8376435999817,None,550.8437962000025,None,550.8437962000025,None,550.8437962000025,None,552.6205365099974,None,552.6205365099974,None,552.6205365099974,None,,,,,,,,,,,,,,020,2022-05-17_10h34.31.400,Main,2022.1.1,60.00841317722351,
negative,negative,2,j,l,,,,,,,,,11,10,208,9,,,,,,,,,main,1,1,2,negative,negative,j,j,1,1.0315471999929287,552.6205914999882,553.6205860999762,553.6205860999762,None,552.6205914999882,None,552.6205914999882,None,552.6205914999882,None,554.6539141099871,None,554.6539141099871,None,554.6539141099871,None,,,,,,,,,,,,,,020,2022-05-17_10h34.31.400,Main,2022.1.1,60.00841317722351,
negative,positive,1,j,l,,,,,,,,,11,11,209,6,,,,,,,,,main,1,1,1,positive,negative,j,j,1,0.8486982000176795,554.6593561999907,555.6731225999829,555.6565059999994,None,554.6593561999907,None,554.6593561999907,None,554.6593561999907,None,556.5041507099901,None,556.5041507099901,None,556.5041507099901,None,,,,,,,,,,,,,,020,2022-05-17_10h34.31.400,Main,2022.1.1,60.00841317722351,
neutral,positive,2,k,k,,,,,,,,,11,12,210,13,,,,,,,,,main,2,2,2,positive,neutral,k,k,1,1.0327715000021271,556.5097220999887,557.520880600001,557.506491099979,None,556.5097220999887,None,556.5097220999887,None,556.5097220999887,None,558.5374425099959,None,558.5374425099959,None,558.5374425099959,None,,,,,,,,,,,,,,020,2022-05-17_10h34.31.400,Main,2022.1.1,60.00841317722351,
neutral,positive,1,k,k,,,,,,,,,11,13,211,4,,,,,,,,,main,2,2,1,positive,neutral,k,k,1,0.797507899987977,558.5420067999803,559.5542132999981,559.5398375999939,None,558.5420067999803,None,558.5420067999803,None,558.5420067999803,None,560.3374352099869,None,560.3374352099869,None,560.3374352099869,None,,,,,,,,,,,,,,020,2022-05-17_10h34.31.400,Main,2022.1.1,60.00841317722351,
positive,positive,2,l,j,,,,,,,,,11,14,212,11,,,,,,,,,main,2,2,2,positive,positive,l,l,1,0.8149268999986816,560.3436133999785,561.3564106999838,561.3397588999942,None,560.3436133999785,None,560.3436133999785,None,560.3436133999785,None,562.154044309989,None,562.154044309989,None,562.154044309989,None,,,,,,,,,,,,,,020,2022-05-17_10h34.31.400,Main,2022.1.1,60.00841317722351,
neutral,negative,2,k,k,,,,,,,,,11,15,213,16,,,,,,,,,main,1,1,2,negative,neutral,k,l,0,0.7644896999991033,562.1603145999834,563.1704007999797,563.1537352000014,None,562.1603145999834,None,562.1603145999834,None,562.1603145999834,None,563.9203943999892,None,563.9203943999892,None,563.9203943999892,None,,,,,,,,,,,,,,020,2022-05-17_10h34.31.400,Main,2022.1.1,60.00841317722351,
negative,negative,1,j,l,,,,,,,,,11,16,214,0,,,,,,,,,main,2,2,1,negative,negative,j,j,1,0.9695540000102483,564.9278760000016,565.9373746999772,565.9063658999803,None,564.9278760000016,None,564.9278760000016,None,564.9278760000016,None,566.8872765099892,None,566.8872765099892,None,566.8872765099892,None,,,,,,,,,,,,,,020,2022-05-17_10h34.31.400,Main,2022.1.1,60.00841317722351,
negative,positive,2,j,l,,,,,,,,,11,17,215,15,,,,,,,,,main,1,1,2,positive,negative,j,j,1,1.2838322000170592,566.8909300999949,567.9039726999763,567.8895863999787,None,566.8909300999949,None,566.8909300999949,None,566.8909300999949,None,569.1729814099759,None,569.1729814099759,None,569.1729814099759,None,,,,,,,,,,,,,,020,2022-05-17_10h34.31.400,Main,2022.1.1,60.00841317722351,
positive,neutral,2,l,j,,,,,,,,,12,0,216,17,,,,,,,,,main,2,2,2,neutral,positive,l,l,1,0.7952072999905795,569.177608500002,570.18957029999,570.1706228999828,None,569.177608500002,None,569.177608500002,None,569.177608500002,None,570.9705024099763,None,570.9705024099763,None,570.9705024099763,None,,,,,,,,,,,,,,020,2022-05-17_10h34.31.400,Main,2022.1.1,60.00841317722351,
neutral,positive,2,k,k,,,,,,,,,12,1,217,13,,,,,,,,,main,2,2,2,positive,neutral,k,k,1,0.6824998999945819,570.9763096999959,571.9876996999956,571.9705915999948,None,570.9763096999959,None,570.9763096999959,None,570.9763096999959,None,572.6534853099816,None,572.6534853099816,None,572.6534853099816,None,,,,,,,,,,,,,,020,2022-05-17_10h34.31.400,Main,2022.1.1,60.00841317722351,
neutral,neutral,2,k,k,,,,,,,,,12,2,218,10,,,,,,,,,main,1,1,2,neutral,neutral,k,k,1,0.6636659000068903,572.670280899998,573.6701898000028,573.6535141999775,None,572.670280899998,None,572.670280899998,None,572.670280899998,None,574.3201190100023,None,574.3201190100023,None,574.3201190100023,None,,,,,,,,,,,,,,020,2022-05-17_10h34.31.400,Main,2022.1.1,60.00841317722351,
negative,positive,2,j,l,,,,,,,,,12,3,219,15,,,,,,,,,main,2,2,2,positive,negative,j,j,1,0.9323679999797605,574.3202030999819,575.3206613999791,575.3206613999791,None,574.3202030999819,None,574.3202030999819,None,574.3202030999819,None,576.2538392099756,None,576.2538392099756,None,576.2538392099756,None,,,,,,,,,,,,,,020,2022-05-17_10h34.31.400,Main,2022.1.1,60.00841317722351,
positive,negative,1,l,j,,,,,,,,,12,4,220,5,,,,,,,,,main,1,1,1,negative,positive,l,l,1,0.7516084999952,576.2573170999822,577.2727614000032,577.2561722999963,None,576.2573170999822,None,576.2573170999822,None,576.2573170999822,None,578.003815009995,None,578.003815009995,None,578.003815009995,None,,,,,,,,,,,,,,020,2022-05-17_10h34.31.400,Main,2022.1.1,60.00841317722351,
positive,neutral,1,l,j,,,,,,,,,12,5,221,8,,,,,,,,,main,1,1,1,neutral,positive,l,l,1,0.6618580000067595,578.0097108999908,579.0227214999904,579.0060797999904,None,578.0097108999908,None,578.0097108999908,None,578.0097108999908,None,579.6704329099827,None,579.6704329099827,None,579.6704329099827,None,,,,,,,,,,,,,,020,2022-05-17_10h34.31.400,Main,2022.1.1,60.00841317722351,
neutral,negative,1,k,k,,,,,,,,,12,6,222,7,,,,,,,,,main,2,2,1,negative,neutral,k,k,1,0.6991851999773644,579.6762564999808,580.6892966000014,580.6704022999911,None,579.6762564999808,None,579.6762564999808,None,579.6762564999808,None,581.371162509991,None,581.371162509991,None,581.371162509991,None,,,,,,,,,,,,,,020,2022-05-17_10h34.31.400,Main,2022.1.1,60.00841317722351,
negative,negative,2,j,l,,,,,,,,,12,7,223,9,,,,,,,,,main,2,2,2,negative,negative,j,j,1,0.8638426999968942,581.3770686999778,582.3893086999888,582.372641599999,None,581.3770686999778,None,581.3770686999778,None,581.3770686999778,None,583.2365844099928,None,583.2365844099928,None,583.2365844099928,None,,,,,,,,,,,,,,020,2022-05-17_10h34.31.400,Main,2022.1.1,60.00841317722351,
