target,distractor,set,ans1,ans2,rep_loop2.thisRepN,rep_loop2.thisTrialN,rep_loop2.thisN,rep_loop2.thisIndex,flanker_prac_loop.thisRepN,flanker_prac_loop.thisTrialN,flanker_prac_loop.thisN,flanker_prac_loop.thisIndex,flanker_main_loop.thisRepN,flanker_main_loop.thisTrialN,flanker_main_loop.thisN,flanker_main_loop.thisIndex,fl_inst_resp.keys,fl_inst_resp.rt,sound_1.started,sound_1.stopped,image_4.started,image_4.stopped,back_2.started,back_2.stopped,main_prac,fl_cold,fl_colt,fl_set,fl_dcond,fl_tcond,fl_ans,fl_res,fl_corr,fl_rt,fix_fl.started,fix_fl.stopped,targ.started,targ.stopped,j_button.started,j_button.stopped,k_button.started,k_button.stopped,l_button.started,l_button.stopped,j_button2.started,j_button2.stopped,k_button2.started,k_button2.stopped,l_button2.started,l_button2.stopped,mainback.started,mainback.stopped,key_resp.keys,mouse_6.x,mouse_6.y,mouse_6.leftButton,mouse_6.midButton,mouse_6.rightButton,mouse_6.started,mouse_6.stopped,text_2.started,text_2.stopped,id*,date,expName,psychopyVersion,frameRate,
,,,,,0,0,0,0,,,,,,,,,space,56.072334800002864,37.949902519991156,None,94.06226509998669,None,,,,,,,,,,,,,,,,,,,,,,,,,,,,,,,,,,,,,,,,,021,2022-05-18_10h46.38.281,Main,2022.1.1,60.01111405562336,
neutral,neutral,1,k,k,,,,,0,0,0,1,,,,,,,,,,,97.44614859999274,None,prac,2,2,1,neutral,neutral,k,k,1,1.5211495000112336,99.47812580000027,100.48184759999276,100.46525879998808,None,99.47812580000027,None,99.47812580000027,None,99.47812580000027,None,101.9992232999939,None,101.9992232999939,None,101.9992232999939,None,,,,,,,,,,,,,021,2022-05-18_10h46.38.281,Main,2022.1.1,60.01111405562336,
negative,negative,2,j,l,,,,,0,1,1,9,,,,,,,,,,,,,prac,1,1,2,negative,negative,l,l,1,1.901396900007967,103.0072005999973,104.01289240000187,104.01289240000187,None,103.0072005999973,None,103.0072005999973,None,103.0072005999973,None,105.89618949999567,None,105.89618949999567,None,105.89618949999567,None,,,,,,,,,,,,,021,2022-05-18_10h46.38.281,Main,2022.1.1,60.01111405562336,
neutral,neutral,2,k,k,,,,,0,2,2,10,,,,,,,,,,,,,prac,2,2,2,neutral,neutral,k,k,1,1.036775700020371,106.90881679998711,107.91246339998906,107.89579489998869,None,106.90881679998711,None,106.90881679998711,None,106.90881679998711,None,108.92949631999363,None,108.92949631999363,None,108.92949631999363,None,,,,,,,,,,,,,021,2022-05-18_10h46.38.281,Main,2022.1.1,60.01111405562336,
positive,neutral,1,l,j,,,,,0,3,3,8,,,,,,,,,,,,,prac,1,1,1,neutral,positive,j,j,1,0.8986016999988351,108.93381230000523,109.9483395999996,109.931814999989,None,108.93381230000523,None,108.93381230000523,None,108.93381230000523,None,110.82946611999068,None,110.82946611999068,None,110.82946611999068,None,,,,,,,,,,,,,021,2022-05-18_10h46.38.281,Main,2022.1.1,60.01111405562336,
positive,positive,2,l,j,,,,,0,4,4,11,,,,,,,,,,,,,prac,1,1,2,positive,positive,j,j,1,0.7651081999938469,110.8431714999897,111.84828360000392,111.83170330000576,None,110.8431714999897,None,110.8431714999897,None,110.8431714999897,None,112.596082019998,None,112.596082019998,None,112.596082019998,None,,,,,,,,,,,,,021,2022-05-18_10h46.38.281,Main,2022.1.1,60.01111405562336,
neutral,negative,1,k,k,,,,,0,5,5,7,,,,,,,,,,,,,prac,1,1,1,negative,neutral,k,k,1,0.8319508999993559,112.610165399994,113.61485499999253,113.59831969998777,None,112.610165399994,None,112.610165399994,None,112.610165399994,None,114.42938861998846,None,114.42938861998846,None,114.42938861998846,None,,,,,,,,,,,,,021,2022-05-18_10h46.38.281,Main,2022.1.1,60.01111405562336,
negative,positive,2,j,l,,,,,0,6,6,15,,,,,,,,,,,,,prac,1,1,2,positive,negative,l,l,1,0.8153574999887496,114.434883000009,115.44825789998868,115.43163410000852,None,114.434883000009,None,114.434883000009,None,114.434883000009,None,116.24599851999665,None,116.24599851999665,None,116.24599851999665,None,,,,,,,,,,,,,021,2022-05-18_10h46.38.281,Main,2022.1.1,60.01111405562336,
neutral,negative,2,k,k,,,,,0,7,7,16,,,,,,,,,,,,,prac,2,2,2,negative,neutral,k,k,1,0.864044499990996,116.26216690000729,117.2622951999947,117.24571610000567,None,116.26216690000729,None,116.26216690000729,None,116.26216690000729,None,118.11225761999958,None,118.11225761999958,None,118.11225761999958,None,,,,,,,,,,,,,021,2022-05-18_10h46.38.281,Main,2022.1.1,60.01111405562336,
negative,neutral,2,j,l,,,,,0,8,8,12,,,,,,,,,,,,,prac,1,1,2,neutral,negative,l,l,1,1.3333248999842908,118.11250950000249,119.11226530000567,119.11226530000567,None,118.11250950000249,None,118.11250950000249,None,118.11250950000249,None,120.4456440199865,None,120.4456440199865,None,120.4456440199865,None,,,,,,,,,,,,,021,2022-05-18_10h46.38.281,Main,2022.1.1,60.01111405562336,
positive,negative,2,l,j,,,,,0,9,9,14,,,,,,,,,,,,,prac,2,2,2,negative,positive,j,j,1,0.8305399999953806,120.4536233000108,121.46479920001002,121.44824199998402,None,120.4536233000108,None,120.4536233000108,None,120.4536233000108,None,122.2792297200067,None,122.2792297200067,None,122.2792297200067,None,,,,,,,,,,,,,021,2022-05-18_10h46.38.281,Main,2022.1.1,60.01111405562336,
negative,positive,1,j,l,,,,,0,10,10,6,,,,,,,,,,,,,prac,2,2,1,positive,negative,l,k,0,1.532216099993093,122.28334699998959,123.29818630000227,123.28146259998903,None,122.28334699998959,None,122.28334699998959,None,122.28334699998959,None,124.81944560000557,None,124.81944560000557,None,124.81944560000557,None,,,,,,,,,,,,,021,2022-05-18_10h46.38.281,Main,2022.1.1,60.01111405562336,
negative,negative,1,j,l,,,,,0,11,11,0,,,,,,,,,,,,,prac,1,1,1,negative,negative,l,j,0,1.2621275999990758,125.83032179999282,126.83137679999345,126.81273089998285,None,125.83032179999282,None,125.83032179999282,None,125.83032179999282,None,128.09524379999493,None,128.09524379999493,None,128.09524379999493,None,,,,,,,,,,,,,021,2022-05-18_10h46.38.281,Main,2022.1.1,60.01111405562336,
positive,neutral,2,l,j,,,,,0,12,12,17,,,,,,,,,,,,,prac,2,2,2,neutral,positive,j,j,1,1.0378888999985065,129.095401700004,130.09540099999867,130.07873280000058,None,129.095401700004,None,129.095401700004,None,129.095401700004,None,131.12905061998754,None,131.12905061998754,None,131.12905061998754,None,,,,,,,,,,,,,021,2022-05-18_10h46.38.281,Main,2022.1.1,60.01111405562336,
neutral,positive,2,k,k,,,,,0,13,13,13,,,,,,,,,,,,,prac,2,2,2,positive,neutral,k,k,1,1.2997363000176847,131.14924299999257,132.16453320000437,132.1313092999917,None,131.14924299999257,None,131.14924299999257,None,131.14924299999257,None,133.4314495199942,None,133.4314495199942,None,133.4314495199942,None,,,,,,,,,,,,,021,2022-05-18_10h46.38.281,Main,2022.1.1,60.01111405562336,
neutral,positive,1,k,k,,,,,0,14,14,4,,,,,,,,,,,,,prac,1,1,1,positive,neutral,k,k,1,0.7461465000233147,133.44493910000892,134.44781429998693,134.43122800000128,None,133.44493910000892,None,133.44493910000892,None,133.44493910000892,None,135.17895522000617,None,135.17895522000617,None,135.17895522000617,None,,,,,,,,,,,,,021,2022-05-18_10h46.38.281,Main,2022.1.1,60.01111405562336,
negative,neutral,1,j,l,,,,,0,15,15,3,,,,,,,,,,,,,prac,2,2,1,neutral,negative,l,j,0,0.8018405000038911,135.18426249999902,136.19778139999835,136.16448790000868,None,135.18426249999902,None,135.18426249999902,None,135.18426249999902,None,136.97892709998996,None,136.97892709998996,None,136.97892709998996,None,,,,,,,,,,,,,021,2022-05-18_10h46.38.281,Main,2022.1.1,60.01111405562336,
positive,positive,1,l,j,,,,,0,16,16,2,,,,,,,,,,,,,prac,1,1,1,positive,positive,j,k,0,0.9543645999801811,137.97881539998343,138.9785308999999,138.9618680999847,None,137.97881539998343,None,137.97881539998343,None,137.97881539998343,None,139.92855620000046,None,139.92855620000046,None,139.92855620000046,None,,,,,,,,,,,,,021,2022-05-18_10h46.38.281,Main,2022.1.1,60.01111405562336,
positive,negative,1,l,j,,,,,0,17,17,5,,,,,,,,,,,,,prac,2,2,1,negative,positive,j,j,1,0.9701587000163272,140.94072600000072,141.94774199998938,141.91449080000166,None,140.94072600000072,None,140.94072600000072,None,140.94072600000072,None,142.89565431998926,None,142.89565431998926,None,142.89565431998926,None,,,,,,,,,,,,,021,2022-05-18_10h46.38.281,Main,2022.1.1,60.01111405562336,
neutral,negative,2,k,k,,,,,1,0,18,16,,,,,,,,,,,,,prac,1,1,2,negative,neutral,k,k,1,0.731145599973388,142.9012844999961,143.91431469999952,143.8977304,None,142.9012844999961,None,142.9012844999961,None,142.9012844999961,None,144.6284696199873,None,144.6284696199873,None,144.6284696199873,None,,,,,,,,,,,,,021,2022-05-18_10h46.38.281,Main,2022.1.1,60.01111405562336,
negative,neutral,2,j,l,,,,,1,1,19,12,,,,,,,,,,,,,prac,2,2,2,neutral,negative,l,l,1,0.8836182999948505,144.6339491000108,145.64763679998578,145.61439519998385,None,144.6339491000108,None,144.6339491000108,None,144.6339491000108,None,146.51224322000053,None,146.51224322000053,None,146.51224322000053,None,,,,,,,,,,,,,021,2022-05-18_10h46.38.281,Main,2022.1.1,60.01111405562336,
negative,positive,1,j,l,,,,,1,2,20,6,,,,,,,,,,,,,prac,1,1,1,positive,negative,l,k,0,0.9306959999958053,146.5183977999841,147.53098310000496,147.51434110000264,None,146.5183977999841,None,146.5183977999841,None,146.5183977999841,None,148.44755569999688,None,148.44755569999688,None,148.44755569999688,None,,,,,,,,,,,,,021,2022-05-18_10h46.38.281,Main,2022.1.1,60.01111405562336,
negative,negative,2,j,l,,,,,1,3,21,9,,,,,,,,,,,,,prac,2,2,2,negative,negative,l,l,1,0.9866051000135485,149.46163249999518,150.46161709999433,150.46161709999433,None,149.46163249999518,None,149.46163249999518,None,149.46163249999518,None,151.44500442000572,None,151.44500442000572,None,151.44500442000572,None,,,,,,,,,,,,,021,2022-05-18_10h46.38.281,Main,2022.1.1,60.01111405562336,
neutral,neutral,2,k,k,,,,,1,4,22,10,,,,,,,,,,,,,prac,2,2,2,neutral,neutral,k,k,1,0.8477198999898974,151.4518892999913,152.46422709999024,152.44758010000805,None,151.4518892999913,None,151.4518892999913,None,151.4518892999913,None,153.29539812001167,None,153.29539812001167,None,153.29539812001167,None,,,,,,,,,,,,,021,2022-05-18_10h46.38.281,Main,2022.1.1,60.01111405562336,
negative,positive,2,j,l,,,,,1,5,23,15,,,,,,,,,,,,,prac,1,1,2,positive,negative,l,l,1,0.8486153999983799,153.30077860000893,154.31414000000223,154.29522800000268,None,153.30077860000893,None,153.30077860000893,None,153.30077860000893,None,155.1452260199876,None,155.1452260199876,None,155.1452260199876,None,,,,,,,,,,,,,021,2022-05-18_10h46.38.281,Main,2022.1.1,60.01111405562336,
positive,positive,2,l,j,,,,,1,6,24,11,,,,,,,,,,,,,prac,2,2,2,positive,positive,j,j,1,0.7311055999889504,155.15120649998426,156.1640236999956,156.14744460000657,None,155.15120649998426,None,155.15120649998426,None,155.15120649998426,None,156.87851251999382,None,156.87851251999382,None,156.87851251999382,None,,,,,,,,,,,,,021,2022-05-18_10h46.38.281,Main,2022.1.1,60.01111405562336,
positive,neutral,1,l,j,,,,,1,7,25,8,,,,,,,,,,,,,prac,1,1,1,neutral,positive,j,j,1,0.7978337000240572,156.88475820000167,157.8951548000041,157.88085409998894,None,156.88475820000167,None,156.88475820000167,None,156.88475820000167,None,158.67848801999935,None,158.67848801999935,None,158.67848801999935,None,,,,,,,,,,,,,021,2022-05-18_10h46.38.281,Main,2022.1.1,60.01111405562336,
negative,negative,1,j,l,,,,,1,8,26,0,,,,,,,,,,,,,prac,2,2,1,negative,negative,l,j,0,0.9817876000015531,158.68397169999662,159.69479179999325,159.6781198999961,None,158.68397169999662,None,158.68397169999662,None,158.68397169999662,None,160.6616648999916,None,160.6616648999916,None,160.6616648999916,None,,,,,,,,,,,,,021,2022-05-18_10h46.38.281,Main,2022.1.1,60.01111405562336,
neutral,negative,1,k,k,,,,,1,9,27,7,,,,,,,,,,,,,prac,1,1,1,negative,neutral,k,l,0,-0.763671200023964,161.66803830000572,None,None,None,161.66803830000572,None,161.66803830000572,None,161.66803830000572,None,161.89478850000887,None,161.89478850000887,None,161.89478850000887,None,,,,,,,,,,,,,021,2022-05-18_10h46.38.281,Main,2022.1.1,60.01111405562336,
positive,positive,1,l,j,,,,,1,10,28,2,,,,,,,,,,,,,prac,2,2,1,positive,positive,j,j,1,0.8852493000158574,164.8956010999973,165.89736269999412,165.8806518999918,None,164.8956010999973,None,164.8956010999973,None,164.8956010999973,None,166.7784812200116,None,166.7784812200116,None,166.7784812200116,None,,,,,,,,,,,,,021,2022-05-18_10h46.38.281,Main,2022.1.1,60.01111405562336,
negative,neutral,1,j,l,,,,,1,11,29,3,,,,,,,,,,,,,prac,2,2,1,neutral,negative,l,l,1,1.1312756999977864,166.78463609999744,167.79727789998287,167.78063459999976,None,166.78463609999744,None,166.78463609999744,None,166.78463609999744,None,168.91163622000022,None,168.91163622000022,None,168.91163622000022,None,,,,,,,,,,,,,021,2022-05-18_10h46.38.281,Main,2022.1.1,60.01111405562336,
positive,negative,2,l,j,,,,,1,12,30,14,,,,,,,,,,,,,prac,1,1,2,negative,positive,j,j,1,0.8315382000000682,168.91778359998716,169.9112465000071,169.90163269999903,None,168.91778359998716,None,168.91778359998716,None,168.91778359998716,None,170.7445777200046,None,170.7445777200046,None,170.7445777200046,None,,,,,,,,,,,,,021,2022-05-18_10h46.38.281,Main,2022.1.1,60.01111405562336,
positive,neutral,2,l,j,,,,,1,13,31,17,,,,,,,,,,,,,prac,2,2,2,neutral,positive,j,j,1,0.718041699990863,170.74464699998498,171.7446637999965,171.7446637999965,None,170.74464699998498,None,170.74464699998498,None,170.74464699998498,None,172.46174331998918,None,172.46174331998918,None,172.46174331998918,None,,,,,,,,,,,,,021,2022-05-18_10h46.38.281,Main,2022.1.1,60.01111405562336,
neutral,positive,2,k,k,,,,,1,14,32,13,,,,,,,,,,,,,prac,1,1,2,positive,neutral,k,k,1,0.9298731999879237,172.46800580000854,173.4804948999954,173.46389640000416,None,172.46800580000854,None,172.46800580000854,None,172.46800580000854,None,174.3948827199929,None,174.3948827199929,None,174.3948827199929,None,,,,,,,,,,,,,021,2022-05-18_10h46.38.281,Main,2022.1.1,60.01111405562336,
positive,negative,1,l,j,,,,,1,15,33,5,,,,,,,,,,,,,prac,1,1,1,negative,positive,j,j,1,0.7313086000212934,174.41396299999906,175.41375010000775,175.3971428000077,None,174.41396299999906,None,174.41396299999906,None,174.41396299999906,None,176.12821131999954,None,176.12821131999954,None,176.12821131999954,None,,,,,,,,,,,,,021,2022-05-18_10h46.38.281,Main,2022.1.1,60.01111405562336,
neutral,positive,1,k,k,,,,,1,16,34,4,,,,,,,,,,,,,prac,1,1,1,positive,neutral,k,k,1,0.9986480999796186,176.13459939998575,177.14700550000998,177.13038909999887,None,176.13459939998575,None,176.13459939998575,None,176.13459939998575,None,178.12821411999175,None,178.12821411999175,None,178.12821411999175,None,,,,,,,,,,,,,021,2022-05-18_10h46.38.281,Main,2022.1.1,60.01111405562336,
neutral,neutral,1,k,k,,,,,1,17,35,1,,,,,,,,,,,,,prac,2,2,1,neutral,neutral,k,k,1,0.7141427999886218,178.1345478000003,179.14706930000102,179.13029050000478,None,178.1345478000003,None,178.1345478000003,None,178.1345478000003,None,179.84475642000325,None,179.84475642000325,None,179.84475642000325,None,,,,,,,,,,,,,021,2022-05-18_10h46.38.281,Main,2022.1.1,60.01111405562336,
,,,,,,,,,,,,,,,,,,,,,,,,,,,,,,,,,,,,,,,,,,,,,,,,,,,179.8449086000037,None,None,,,,,,,,,,021,2022-05-18_10h46.38.281,Main,2022.1.1,60.01111405562336,
,,,,,,,,,,,,,,,,,,,,,,,,,,,,,,,,,,,,,,,,,,,,,,,,,,,,,,0.3398148,-0.2175926,1,0,0,0.009828320005908608,None,,,021,2022-05-18_10h46.38.281,Main,2022.1.1,60.01111405562336,
positive,negative,1,l,j,,,,,,,,,0,0,0,5,,,,,,,187.56341269999393,None,main,2,2,1,negative,positive,j,j,1,2.1419150000147056,189.5728942999849,190.57748169999104,190.57748169999104,None,189.5728942999849,None,189.5728942999849,None,189.5728942999849,None,192.71084139999584,None,192.71084139999584,None,192.71084139999584,None,,,,,,,,,,,,,021,2022-05-18_10h46.38.281,Main,2022.1.1,60.01111405562336,
neutral,neutral,2,k,k,,,,,,,,,0,1,1,10,,,,,,,,,main,1,1,2,neutral,neutral,k,k,1,0.6841138000017963,193.71222320001107,194.71339389999048,194.69669429998612,None,193.71222320001107,None,193.71222320001107,None,193.71222320001107,None,195.39442982000764,None,195.39442982000764,None,195.39442982000764,None,,,,,,,,,,,,,021,2022-05-18_10h46.38.281,Main,2022.1.1,60.01111405562336,
negative,negative,2,j,l,,,,,,,,,0,2,2,9,,,,,,,,,main,2,2,2,negative,negative,l,l,1,0.7813610000011977,195.40531319999718,196.4110781000054,196.39667929999996,None,195.40531319999718,None,195.40531319999718,None,195.40531319999718,None,197.17774752000696,None,197.17774752000696,None,197.17774752000696,None,,,,,,,,,,,,,021,2022-05-18_10h46.38.281,Main,2022.1.1,60.01111405562336,
negative,positive,1,j,l,,,,,,,,,0,3,3,6,,,,,,,,,main,2,2,1,positive,negative,l,l,1,0.8811108999943826,197.184156000003,198.19657000000007,198.179916699999,None,197.184156000003,None,197.184156000003,None,197.184156000003,None,199.06117661998724,None,199.06117661998724,None,199.06117661998724,None,,,,,,,,,,,,,021,2022-05-18_10h46.38.281,Main,2022.1.1,60.01111405562336,
negative,neutral,2,j,l,,,,,,,,,0,4,4,12,,,,,,,,,main,2,2,2,neutral,negative,l,l,1,0.6698839000018779,199.06705250000232,200.07990509999217,200.06329890000052,None,199.06705250000232,None,199.06705250000232,None,199.06705250000232,None,200.73286781998468,None,200.73286781998468,None,200.73286781998468,None,,,,,,,,,,,,,021,2022-05-18_10h46.38.281,Main,2022.1.1,60.01111405562336,
positive,positive,2,l,j,,,,,,,,,0,5,5,11,,,,,,,,,main,2,2,2,positive,positive,j,j,1,0.8594319999974687,200.73303549998673,201.7440016999899,201.72725960001117,None,200.73303549998673,None,200.73303549998673,None,200.73303549998673,None,202.5939775200095,None,202.5939775200095,None,202.5939775200095,None,,,,,,,,,,,,,021,2022-05-18_10h46.38.281,Main,2022.1.1,60.01111405562336,
neutral,negative,1,k,k,,,,,,,,,0,6,6,7,,,,,,,,,main,1,1,1,negative,neutral,k,k,1,0.8487469000101555,202.59799869998824,203.61315049999394,203.57995479999227,None,202.59799869998824,None,202.59799869998824,None,202.59799869998824,None,204.44426821998786,None,204.44426821998786,None,204.44426821998786,None,,,,,,,,,,,,,021,2022-05-18_10h46.38.281,Main,2022.1.1,60.01111405562336,
neutral,positive,1,k,k,,,,,,,,,0,7,7,4,,,,,,,,,main,1,1,1,positive,neutral,k,k,1,0.6816806000133511,204.45000959999743,205.46307189998333,205.44649919998483,None,204.45000959999743,None,204.45000959999743,None,204.45000959999743,None,206.12756061999244,None,206.12756061999244,None,206.12756061999244,None,,,,,,,,,,,,,021,2022-05-18_10h46.38.281,Main,2022.1.1,60.01111405562336,
neutral,negative,2,k,k,,,,,,,,,0,8,8,16,,,,,,,,,main,2,2,2,negative,neutral,k,k,1,0.6318427999794949,206.13332739999169,207.14632040000288,207.12753510000766,None,206.13332739999169,None,206.13332739999169,None,206.13332739999169,None,207.76098911999725,None,207.76098911999725,None,207.76098911999725,None,,,,,,,,,,,,,021,2022-05-18_10h46.38.281,Main,2022.1.1,60.01111405562336,
negative,positive,2,j,l,,,,,,,,,0,9,9,15,,,,,,,,,main,1,1,2,positive,negative,l,j,0,0.6311397000099532,207.76468459999887,208.7797825000016,208.76315559999784,None,207.76468459999887,None,207.76468459999887,None,207.76468459999887,None,209.39417959999992,None,209.39417959999992,None,209.39417959999992,None,,,,,,,,,,,,,021,2022-05-18_10h46.38.281,Main,2022.1.1,60.01111405562336,
positive,neutral,1,l,j,,,,,,,,,0,10,10,8,,,,,,,,,main,1,1,1,neutral,positive,j,j,1,0.7716094999923371,210.39408180001192,211.39379860000918,211.3770693000115,None,210.39408180001192,None,210.39408180001192,None,210.39408180001192,None,212.16056702000787,None,212.16056702000787,None,212.16056702000787,None,,,,,,,,,,,,,021,2022-05-18_10h46.38.281,Main,2022.1.1,60.01111405562336,
negative,negative,1,j,l,,,,,,,,,0,11,11,0,,,,,,,,,main,1,1,1,negative,negative,l,l,1,1.0097969000053126,212.1715555000119,213.1770792999887,213.16040940000676,None,212.1715555000119,None,212.1715555000119,None,212.1715555000119,None,214.1773880200053,None,214.1773880200053,None,214.1773880200053,None,,,,,,,,,,,,,021,2022-05-18_10h46.38.281,Main,2022.1.1,60.01111405562336,
neutral,positive,2,k,k,,,,,,,,,0,12,12,13,,,,,,,,,main,2,2,2,positive,neutral,k,k,1,0.7315244000055827,214.18334920000052,215.19624119999935,215.1796810000087,None,214.18334920000052,None,214.18334920000052,None,214.18334920000052,None,215.91069391998462,None,215.91069391998462,None,215.91069391998462,None,,,,,,,,,,,,,021,2022-05-18_10h46.38.281,Main,2022.1.1,60.01111405562336,
positive,negative,2,l,j,,,,,,,,,0,13,13,14,,,,,,,,,main,2,2,2,negative,positive,j,j,1,0.7647252999886405,215.9140475000022,216.92958510000608,216.91295949998312,None,215.9140475000022,None,215.9140475000022,None,215.9140475000022,None,217.67701412001043,None,217.67701412001043,None,217.67701412001043,None,,,,,,,,,,,,,021,2022-05-18_10h46.38.281,Main,2022.1.1,60.01111405562336,
negative,neutral,1,j,l,,,,,,,,,0,14,14,3,,,,,,,,,main,2,2,1,neutral,negative,l,l,1,0.8986576000170317,217.68128729998716,218.6939585999935,218.67960129998391,None,217.68128729998716,None,217.68128729998716,None,217.68128729998716,None,219.5772710200108,None,219.5772710200108,None,219.5772710200108,None,,,,,,,,,,,,,021,2022-05-18_10h46.38.281,Main,2022.1.1,60.01111405562336,
neutral,neutral,1,k,k,,,,,,,,,0,15,15,1,,,,,,,,,main,1,1,1,neutral,neutral,k,k,1,0.7113835000200197,219.5827147999953,220.59612040000502,220.57955329999095,None,219.5827147999953,None,219.5827147999953,None,219.5827147999953,None,221.29035111999838,None,221.29035111999838,None,221.29035111999838,None,,,,,,,,,,,,,021,2022-05-18_10h46.38.281,Main,2022.1.1,60.01111405562336,
positive,positive,1,l,j,,,,,,,,,0,16,16,2,,,,,,,,,main,1,1,1,positive,positive,j,j,1,0.6725288000016008,221.28990679999697,222.29352519998793,222.27684410000802,None,221.28990679999697,None,221.28990679999697,None,221.28990679999697,None,222.96039312001085,None,222.96039312001085,None,222.96039312001085,None,,,,,,,,,,,,,021,2022-05-18_10h46.38.281,Main,2022.1.1,60.01111405562336,
positive,neutral,2,l,j,,,,,,,,,0,17,17,17,,,,,,,,,main,1,1,2,neutral,positive,j,j,1,0.6940325000032317,222.9703118999896,223.97945330000948,223.94616490000044,None,222.9703118999896,None,222.9703118999896,None,222.9703118999896,None,224.6606065199885,None,224.6606065199885,None,224.6606065199885,None,,,,,,,,,,,,,021,2022-05-18_10h46.38.281,Main,2022.1.1,60.01111405562336,
negative,negative,2,j,l,,,,,,,,,1,0,18,9,,,,,,,,,main,1,1,2,negative,negative,l,l,1,0.815041800000472,224.66359700000612,225.66274860000703,225.6461169999966,None,224.66359700000612,None,224.66359700000612,None,224.66359700000612,None,226.47713261999888,None,226.47713261999888,None,226.47713261999888,None,,,,,,,,,,,,,021,2022-05-18_10h46.38.281,Main,2022.1.1,60.01111405562336,
positive,neutral,2,l,j,,,,,,,,,1,1,19,17,,,,,,,,,main,1,1,2,neutral,positive,j,j,1,0.6995357999985572,226.48336220000056,227.49602709998726,227.47711549999076,None,226.48336220000056,None,226.48336220000056,None,226.48336220000056,None,228.1772760199965,None,228.1772760199965,None,228.1772760199965,None,,,,,,,,,,,,,021,2022-05-18_10h46.38.281,Main,2022.1.1,60.01111405562336,
neutral,positive,1,k,k,,,,,,,,,1,2,20,4,,,,,,,,,main,2,2,1,positive,neutral,k,k,1,1.3307624000008218,228.18369479998364,229.19595039999695,229.17932560000918,None,228.18369479998364,None,228.18369479998364,None,228.18369479998364,None,230.51039072001004,None,230.51039072001004,None,230.51039072001004,None,,,,,,,,,,,,,021,2022-05-18_10h46.38.281,Main,2022.1.1,60.01111405562336,
negative,positive,2,j,l,,,,,,,,,1,3,21,15,,,,,,,,,main,2,2,2,positive,negative,l,l,1,0.8520074000116438,230.51647890001186,231.52635520001058,231.50909909998882,None,230.51647890001186,None,230.51647890001186,None,230.51647890001186,None,232.36015471999417,None,232.36015471999417,None,232.36015471999417,None,,,,,,,,,,,,,021,2022-05-18_10h46.38.281,Main,2022.1.1,60.01111405562336,
negative,neutral,1,j,l,,,,,,,,,1,4,22,3,,,,,,,,,main,2,2,1,neutral,negative,l,l,1,1.0103461999970023,232.36477029998787,233.376646299992,233.36000250000507,None,232.36477029998787,None,232.36477029998787,None,232.36477029998787,None,234.376687520009,None,234.376687520009,None,234.376687520009,None,,,,,,,,,,,,,021,2022-05-18_10h46.38.281,Main,2022.1.1,60.01111405562336,
neutral,neutral,2,k,k,,,,,,,,,1,5,23,10,,,,,,,,,main,1,1,2,neutral,neutral,k,k,1,0.6829193999874406,234.38227619999088,235.3958854000084,235.37926940000034,None,234.38227619999088,None,234.38227619999088,None,234.38227619999088,None,236.06040991999907,None,236.06040991999907,None,236.06040991999907,None,,,,,,,,,,,,,021,2022-05-18_10h46.38.281,Main,2022.1.1,60.01111405562336,
negative,negative,1,j,l,,,,,,,,,1,6,24,0,,,,,,,,,main,1,1,1,negative,negative,l,l,1,0.8001042999967467,236.06438279998838,237.0791964000091,237.06262250000145,None,236.06438279998838,None,236.06438279998838,None,236.06438279998838,None,237.8627398200042,None,237.8627398200042,None,237.8627398200042,None,,,,,,,,,,,,,021,2022-05-18_10h46.38.281,Main,2022.1.1,60.01111405562336,
positive,positive,2,l,j,,,,,,,,,1,7,25,11,,,,,,,,,main,2,2,2,positive,positive,j,j,1,0.7125207000062801,237.86650999999256,238.8791276999982,238.86254120001104,None,237.86650999999256,None,237.86650999999256,None,237.86650999999256,None,239.57688221998978,None,239.57688221998978,None,239.57688221998978,None,,,,,,,,,,,,,021,2022-05-18_10h46.38.281,Main,2022.1.1,60.01111405562336,
neutral,neutral,1,k,k,,,,,,,,,1,8,26,1,,,,,,,,,main,1,1,1,neutral,neutral,k,k,1,0.6981470000173431,239.58255110000027,240.595722500002,240.57918539998354,None,239.58255110000027,None,239.58255110000027,None,239.58255110000027,None,241.27684661999228,None,241.27684661999228,None,241.27684661999228,None,,,,,,,,,,,,,021,2022-05-18_10h46.38.281,Main,2022.1.1,60.01111405562336,
negative,neutral,2,j,l,,,,,,,,,1,9,27,12,,,,,,,,,main,2,2,2,neutral,negative,l,l,1,0.691736500011757,241.28232669999124,242.29561949998606,242.2791406000033,None,241.28232669999124,None,241.28232669999124,None,241.28232669999124,None,242.9698781199986,None,242.9698781199986,None,242.9698781199986,None,,,,,,,,,,,,,021,2022-05-18_10h46.38.281,Main,2022.1.1,60.01111405562336,
positive,negative,1,l,j,,,,,,,,,1,10,28,5,,,,,,,,,main,2,2,1,negative,positive,j,j,1,0.8549138999951538,242.98660790000577,243.99314509998658,243.95973989999038,None,242.98660790000577,None,242.98660790000577,None,242.98660790000577,None,244.82640992000233,None,244.82640992000233,None,244.82640992000233,None,,,,,,,,,,,,,021,2022-05-18_10h46.38.281,Main,2022.1.1,60.01111405562336,
positive,neutral,1,l,j,,,,,,,,,1,11,29,8,,,,,,,,,main,1,1,1,neutral,positive,j,j,1,0.6012195000075735,244.82642480000504,245.82903839999926,245.82903839999926,None,244.82642480000504,None,244.82642480000504,None,244.82642480000504,None,246.42919841999537,None,246.42919841999537,None,246.42919841999537,None,,,,,,,,,,,,,021,2022-05-18_10h46.38.281,Main,2022.1.1,60.01111405562336,
positive,positive,1,l,j,,,,,,,,,1,12,30,2,,,,,,,,,main,1,1,1,positive,positive,j,j,1,0.6627165999962017,246.43313419999322,247.4455772000074,247.42674049999914,None,246.43313419999322,None,246.43313419999322,None,246.43313419999322,None,248.0933835199976,None,248.0933835199976,None,248.0933835199976,None,,,,,,,,,,,,,021,2022-05-18_10h46.38.281,Main,2022.1.1,60.01111405562336,
neutral,negative,1,k,k,,,,,,,,,1,13,31,7,,,,,,,,,main,2,2,1,negative,neutral,k,k,1,0.7985729000065476,248.1017961000034,249.11227859999053,249.093349200004,None,248.1017961000034,None,248.1017961000034,None,248.1017961000034,None,249.89342022000346,None,249.89342022000346,None,249.89342022000346,None,,,,,,,,,,,,,021,2022-05-18_10h46.38.281,Main,2022.1.1,60.01111405562336,
neutral,negative,2,k,k,,,,,,,,,1,14,32,16,,,,,,,,,main,2,2,2,negative,neutral,k,k,1,0.7839094999944791,249.90246409998508,250.91211810000823,250.89330820000032,None,249.90246409998508,None,249.90246409998508,None,249.90246409998508,None,251.6791536200035,None,251.6791536200035,None,251.6791536200035,None,,,,,,,,,,,,,021,2022-05-18_10h46.38.281,Main,2022.1.1,60.01111405562336,
positive,negative,2,l,j,,,,,,,,,1,15,33,14,,,,,,,,,main,2,2,2,negative,positive,j,j,1,0.7293198000115808,251.6837419999938,252.69549759998336,252.67890739999712,None,251.6837419999938,None,251.6837419999938,None,251.6837419999938,None,253.4100334199902,None,253.4100334199902,None,253.4100334199902,None,,,,,,,,,,,,,021,2022-05-18_10h46.38.281,Main,2022.1.1,60.01111405562336,
neutral,positive,2,k,k,,,,,,,,,1,16,34,13,,,,,,,,,main,1,1,2,positive,neutral,k,k,1,0.7648118999786675,253.41333449998638,254.42621209999197,254.40954829999828,None,253.41333449998638,None,253.41333449998638,None,253.41333449998638,None,255.17618432000745,None,255.17618432000745,None,255.17618432000745,None,,,,,,,,,,,,,021,2022-05-18_10h46.38.281,Main,2022.1.1,60.01111405562336,
negative,positive,1,j,l,,,,,,,,,1,17,35,6,,,,,,,,,main,2,2,1,positive,negative,l,l,1,0.9492344000027515,255.17619329999434,256.1762161999941,256.1762161999941,None,255.17619329999434,None,255.17619329999434,None,255.17619329999434,None,257.1265481199953,None,257.1265481199953,None,257.1265481199953,None,,,,,,,,,,,,,021,2022-05-18_10h46.38.281,Main,2022.1.1,60.01111405562336,
positive,positive,2,l,j,,,,,,,,,2,0,36,11,,,,,,,,,main,1,1,2,positive,positive,j,j,1,0.7157873000251129,257.1327030000102,258.145405999996,258.12876180000603,None,257.1327030000102,None,257.1327030000102,None,257.1327030000102,None,258.8428562199988,None,258.8428562199988,None,258.8428562199988,None,,,,,,,,,,,,,021,2022-05-18_10h46.38.281,Main,2022.1.1,60.01111405562336,
negative,positive,1,j,l,,,,,,,,,2,1,37,6,,,,,,,,,main,2,2,1,positive,negative,l,l,1,0.9476091999968048,258.84941259998595,259.8620660000015,259.8454184999864,None,258.84941259998595,None,258.84941259998595,None,258.84941259998595,None,260.79315832001157,None,260.79315832001157,None,260.79315832001157,None,,,,,,,,,,,,,021,2022-05-18_10h46.38.281,Main,2022.1.1,60.01111405562336,
negative,neutral,1,j,l,,,,,,,,,2,2,38,3,,,,,,,,,main,2,2,1,neutral,negative,l,l,1,0.9149524999957066,260.79981369999587,261.81203830000595,261.795470299985,None,260.79981369999587,None,260.79981369999587,None,260.79981369999587,None,262.70977352000773,None,262.70977352000773,None,262.70977352000773,None,,,,,,,,,,,,,021,2022-05-18_10h46.38.281,Main,2022.1.1,60.01111405562336,
positive,negative,2,l,j,,,,,,,,,2,3,39,14,,,,,,,,,main,2,2,2,negative,positive,j,j,1,0.8645327000122052,262.71574919999694,263.7288572000107,263.7120883000025,None,262.71574919999694,None,262.71574919999694,None,262.71574919999694,None,264.5760320200061,None,264.5760320200061,None,264.5760320200061,None,,,,,,,,,,,,,021,2022-05-18_10h46.38.281,Main,2022.1.1,60.01111405562336,
neutral,positive,1,k,k,,,,,,,,,2,4,40,4,,,,,,,,,main,2,2,1,positive,neutral,k,k,1,0.8319135000056121,264.576023600006,265.5762825999991,265.5762825999991,None,264.576023600006,None,264.576023600006,None,264.576023600006,None,266.4094503200031,None,266.4094503200031,None,266.4094503200031,None,,,,,,,,,,,,,021,2022-05-18_10h46.38.281,Main,2022.1.1,60.01111405562336,
neutral,neutral,1,k,k,,,,,,,,,2,5,41,1,,,,,,,,,main,1,1,1,neutral,neutral,k,k,1,0.6150439000048209,266.4147520000115,267.4285525000014,267.3953026999952,None,266.4147520000115,None,266.4147520000115,None,266.4147520000115,None,268.0261782199959,None,268.0261782199959,None,268.0261782199959,None,,,,,,,,,,,,,021,2022-05-18_10h46.38.281,Main,2022.1.1,60.01111405562336,
negative,negative,2,j,l,,,,,,,,,2,6,42,9,,,,,,,,,main,2,2,2,negative,negative,l,l,1,0.76554260001285,268.0321780999948,269.0452155999956,269.0119982000033,None,268.0321780999948,None,268.0321780999948,None,268.0321780999948,None,269.79305442000623,None,269.79305442000623,None,269.79305442000623,None,,,,,,,,,,,,,021,2022-05-18_10h46.38.281,Main,2022.1.1,60.01111405562336,
neutral,negative,2,k,k,,,,,,,,,2,7,43,16,,,,,,,,,main,2,2,2,negative,neutral,k,k,1,0.6984416000195779,269.8041094999935,270.8118659000029,270.7952351999993,None,269.8041094999935,None,269.8041094999935,None,269.8041094999935,None,271.4929426200106,None,271.4929426200106,None,271.4929426200106,None,,,,,,,,,,,,,021,2022-05-18_10h46.38.281,Main,2022.1.1,60.01111405562336,
positive,neutral,2,l,j,,,,,,,,,2,8,44,17,,,,,,,,,main,1,1,2,neutral,positive,j,j,1,0.6671150999900419,271.4990098999988,272.51179650000995,272.4952515999903,None,271.4990098999988,None,271.4990098999988,None,271.4990098999988,None,273.16190291999374,None,273.16190291999374,None,273.16190291999374,None,,,,,,,,,,,,,021,2022-05-18_10h46.38.281,Main,2022.1.1,60.01111405562336,
positive,negative,1,l,j,,,,,,,,,2,9,45,5,,,,,,,,,main,1,1,1,negative,positive,j,j,1,0.612353600008646,273.16615239999373,274.17579609999666,274.1591205000004,None,273.16615239999373,None,273.16615239999373,None,273.16615239999373,None,274.7758368199866,None,274.7758368199866,None,274.7758368199866,None,,,,,,,,,,,,,021,2022-05-18_10h46.38.281,Main,2022.1.1,60.01111405562336,
negative,negative,1,j,l,,,,,,,,,2,10,46,0,,,,,,,,,main,2,2,1,negative,negative,l,l,1,0.7652620000008028,274.77584479999496,275.77583189998404,275.77583189998404,None,274.77584479999496,None,274.77584479999496,None,274.77584479999496,None,276.5427248199994,None,276.5427248199994,None,276.5427248199994,None,,,,,,,,,,,,,021,2022-05-18_10h46.38.281,Main,2022.1.1,60.01111405562336,
positive,neutral,1,l,j,,,,,,,,,2,11,47,8,,,,,,,,,main,2,2,1,neutral,positive,j,j,1,0.748216300009517,276.5448015999864,277.55916279999656,277.54257540000253,None,276.5448015999864,None,276.5448015999864,None,276.5448015999864,None,278.29265131999273,None,278.29265131999273,None,278.29265131999273,None,,,,,,,,,,,,,021,2022-05-18_10h46.38.281,Main,2022.1.1,60.01111405562336,
neutral,negative,1,k,k,,,,,,,,,2,12,48,7,,,,,,,,,main,1,1,1,negative,neutral,k,k,1,0.6985524999909103,278.29859359998954,279.3093518000096,279.2949909000017,None,278.29859359998954,None,278.29859359998954,None,278.29859359998954,None,279.992812720011,None,279.992812720011,None,279.992812720011,None,,,,,,,,,,,,,021,2022-05-18_10h46.38.281,Main,2022.1.1,60.01111405562336,
neutral,positive,2,k,k,,,,,,,,,2,13,49,13,,,,,,,,,main,2,2,2,positive,neutral,k,k,1,0.6163112999929581,279.9962711999833,281.01164489999064,280.9950254999858,None,279.9962711999833,None,279.9962711999833,None,279.9962711999833,None,281.6094674199994,None,281.6094674199994,None,281.6094674199994,None,,,,,,,,,,,,,021,2022-05-18_10h46.38.281,Main,2022.1.1,60.01111405562336,
positive,positive,1,l,j,,,,,,,,,2,14,50,2,,,,,,,,,main,1,1,1,positive,positive,j,j,1,0.813820500014117,281.61587899998995,282.6283073000086,282.6117307000095,None,281.61587899998995,None,281.61587899998995,None,281.61587899998995,None,283.42603241998586,None,283.42603241998586,None,283.42603241998586,None,,,,,,,,,,,,,021,2022-05-18_10h46.38.281,Main,2022.1.1,60.01111405562336,
negative,positive,2,j,l,,,,,,,,,2,15,51,15,,,,,,,,,main,1,1,2,positive,negative,l,l,1,0.7629424000042491,283.43186139999307,284.44485979998717,284.4282286000089,None,283.43186139999307,None,283.43186139999307,None,283.43186139999307,None,285.1904604200099,None,285.1904604200099,None,285.1904604200099,None,,,,,,,,,,,,,021,2022-05-18_10h46.38.281,Main,2022.1.1,60.01111405562336,
negative,neutral,2,j,l,,,,,,,,,2,16,52,12,,,,,,,,,main,1,1,2,neutral,negative,l,l,1,0.6836714999808464,285.20592089998536,286.208911099995,286.19231680000667,None,285.20592089998536,None,285.20592089998536,None,285.20592089998536,None,286.8755944200093,None,286.8755944200093,None,286.8755944200093,None,,,,,,,,,,,,,021,2022-05-18_10h46.38.281,Main,2022.1.1,60.01111405562336,
neutral,neutral,2,k,k,,,,,,,,,2,17,53,10,,,,,,,,,main,2,2,2,neutral,neutral,k,k,1,0.6654028999910224,286.875601000007,287.87594450000324,287.87594450000324,None,286.875601000007,None,286.875601000007,None,286.875601000007,None,288.54270171999815,None,288.54270171999815,None,288.54270171999815,None,,,,,,,,,,,,,021,2022-05-18_10h46.38.281,Main,2022.1.1,60.01111405562336,
negative,negative,2,j,l,,,,,,,,,3,0,54,9,,,,,,,,,main,2,2,2,negative,negative,l,l,1,0.8689874999981839,288.5488578999939,289.5614943999972,289.54483790000086,None,288.5488578999939,None,288.5488578999939,None,288.5488578999939,None,290.4095501200063,None,290.4095501200063,None,290.4095501200063,None,,,,,,,,,,,,,021,2022-05-18_10h46.38.281,Main,2022.1.1,60.01111405562336,
positive,positive,2,l,j,,,,,,,,,3,1,55,11,,,,,,,,,main,2,2,2,positive,positive,j,j,1,0.8090910000028089,290.4184402000101,291.4261017999961,291.411480699986,None,290.4184402000101,None,290.4184402000101,None,290.4184402000101,None,292.22560751999845,None,292.22560751999845,None,292.22560751999845,None,,,,,,,,,,,,,021,2022-05-18_10h46.38.281,Main,2022.1.1,60.01111405562336,
neutral,negative,2,k,k,,,,,,,,,3,2,56,16,,,,,,,,,main,1,1,2,negative,neutral,k,k,1,0.7993749000015669,292.2325617999886,293.24475730000995,293.22811080000247,None,292.2325617999886,None,292.2325617999886,None,292.2325617999886,None,294.0267553199956,None,294.0267553199956,None,294.0267553199956,None,,,,,,,,,,,,,021,2022-05-18_10h46.38.281,Main,2022.1.1,60.01111405562336,
positive,neutral,1,l,j,,,,,,,,,3,3,57,8,,,,,,,,,main,1,1,1,neutral,positive,j,j,1,0.7305203000141773,294.0447750999883,295.0587329999835,295.01714439998614,None,294.0447750999883,None,294.0447750999883,None,294.0447750999883,None,295.75883621998946,None,295.75883621998946,None,295.75883621998946,None,,,,,,,,,,,,,021,2022-05-18_10h46.38.281,Main,2022.1.1,60.01111405562336,
neutral,neutral,1,k,k,,,,,,,,,3,4,58,1,,,,,,,,,main,2,2,1,neutral,neutral,k,k,1,0.7485869000083767,295.75872389998403,296.7587033000018,296.7587033000018,None,295.75872389998403,None,295.75872389998403,None,295.75872389998403,None,297.5087290199881,None,297.5087290199881,None,297.5087290199881,None,,,,,,,,,,,,,021,2022-05-18_10h46.38.281,Main,2022.1.1,60.01111405562336,
negative,negative,1,j,l,,,,,,,,,3,5,59,0,,,,,,,,,main,1,1,1,negative,negative,l,l,1,0.881924200017238,297.50931920000585,298.50872620000155,298.50872620000155,None,297.50931920000585,None,297.50931920000585,None,297.50931920000585,None,299.3923883200041,None,299.3923883200041,None,299.3923883200041,None,,,,,,,,,,,,,021,2022-05-18_10h46.38.281,Main,2022.1.1,60.01111405562336,
negative,positive,2,j,l,,,,,,,,,3,6,60,15,,,,,,,,,main,1,1,2,positive,negative,l,l,1,0.7318271999829449,299.39857349998783,300.40903039998375,300.394652899995,None,299.39857349998783,None,299.39857349998783,None,299.39857349998783,None,301.1256495199923,None,301.1256495199923,None,301.1256495199923,None,,,,,,,,,,,,,021,2022-05-18_10h46.38.281,Main,2022.1.1,60.01111405562336,
negative,neutral,2,j,l,,,,,,,,,3,7,61,12,,,,,,,,,main,1,1,2,neutral,negative,l,l,1,0.6983486000099219,301.1317288999853,302.1445219999878,302.1256377999962,None,301.1317288999853,None,301.1317288999853,None,301.1317288999853,None,302.82561451999936,None,302.82561451999936,None,302.82561451999936,None,,,,,,,,,,,,,021,2022-05-18_10h46.38.281,Main,2022.1.1,60.01111405562336,
positive,neutral,2,l,j,,,,,,,,,3,8,62,17,,,,,,,,,main,2,2,2,neutral,positive,j,j,1,0.94847820000723,302.8316308000067,303.84448669999256,303.8278706999845,None,302.8316308000067,None,302.8316308000067,None,302.8316308000067,None,304.7755827200017,None,304.7755827200017,None,304.7755827200017,None,,,,,,,,,,,,,021,2022-05-18_10h46.38.281,Main,2022.1.1,60.01111405562336,
neutral,positive,2,k,k,,,,,,,,,3,9,63,13,,,,,,,,,main,1,1,2,positive,neutral,k,k,1,0.9646320999891032,304.78137869999046,305.79446529998677,305.77785069998936,None,304.78137869999046,None,304.78137869999046,None,304.78137869999046,None,306.74184651998803,None,306.74184651998803,None,306.74184651998803,None,,,,,,,,,,,,,021,2022-05-18_10h46.38.281,Main,2022.1.1,60.01111405562336,
positive,negative,1,l,j,,,,,,,,,3,10,64,5,,,,,,,,,main,1,1,1,negative,positive,j,j,1,0.715091099991696,306.74190230001113,307.741915599996,307.741915599996,None,306.74190230001113,None,306.74190230001113,None,306.74190230001113,None,308.4586057199922,None,308.4586057199922,None,308.4586057199922,None,,,,,,,,,,,,,021,2022-05-18_10h46.38.281,Main,2022.1.1,60.01111405562336,
neutral,neutral,2,k,k,,,,,,,,,3,11,65,10,,,,,,,,,main,2,2,2,neutral,neutral,k,k,1,0.7319384999864269,308.4620023999887,309.46117769999546,309.46117769999546,None,308.4620023999887,None,308.4620023999887,None,308.4620023999887,None,310.19212212000275,None,310.19212212000275,None,310.19212212000275,None,,,,,,,,,,,,,021,2022-05-18_10h46.38.281,Main,2022.1.1,60.01111405562336,
negative,neutral,1,j,l,,,,,,,,,3,12,66,3,,,,,,,,,main,2,2,1,neutral,negative,l,l,1,0.89816179999616,310.20136760000605,311.21100099998876,311.19438820000505,None,310.20136760000605,None,310.20136760000605,None,310.20136760000605,None,312.09210452000843,None,312.09210452000843,None,312.09210452000843,None,,,,,,,,,,,,,021,2022-05-18_10h46.38.281,Main,2022.1.1,60.01111405562336,
negative,positive,1,j,l,,,,,,,,,3,13,67,6,,,,,,,,,main,2,2,1,positive,negative,l,l,1,0.6983486999815796,312.0978080999921,313.1087403999991,313.09437750000507,None,312.0978080999921,None,312.0978080999921,None,312.0978080999921,None,313.7919758200005,None,313.7919758200005,None,313.7919758200005,None,,,,,,,,,,,,,021,2022-05-18_10h46.38.281,Main,2022.1.1,60.01111405562336,
positive,positive,1,l,j,,,,,,,,,3,14,68,2,,,,,,,,,main,1,1,1,positive,positive,j,j,1,1.3484406000061426,313.7981056999997,314.81099150000955,314.7943510999903,None,313.7981056999997,None,313.7981056999997,None,313.7981056999997,None,316.14203302000533,None,316.14203302000533,None,316.14203302000533,None,,,,,,,,,,,,,021,2022-05-18_10h46.38.281,Main,2022.1.1,60.01111405562336,
neutral,negative,1,k,k,,,,,,,,,3,15,69,7,,,,,,,,,main,1,1,1,negative,neutral,k,k,1,0.6813210000109393,316.14784829999553,317.15831790000084,317.1417730000103,None,316.14784829999553,None,316.14784829999553,None,316.14784829999553,None,317.82497811998473,None,317.82497811998473,None,317.82497811998473,None,,,,,,,,,,,,,021,2022-05-18_10h46.38.281,Main,2022.1.1,60.01111405562336,
positive,negative,2,l,j,,,,,,,,,3,16,70,14,,,,,,,,,main,1,1,2,negative,positive,j,j,1,0.7320464999938849,317.825130799989,318.82497769998736,318.82497769998736,None,317.825130799989,None,317.825130799989,None,317.825130799989,None,319.5587710200052,None,319.5587710200052,None,319.5587710200052,None,,,,,,,,,,,,,021,2022-05-18_10h46.38.281,Main,2022.1.1,60.01111405562336,
neutral,positive,1,k,k,,,,,,,,,3,17,71,4,,,,,,,,,main,2,2,1,positive,neutral,k,k,1,0.6682030000083614,319.5644797999994,320.57746770000085,320.5609459000116,None,319.5644797999994,None,319.5644797999994,None,319.5644797999994,None,321.228388419986,None,321.228388419986,None,321.228388419986,None,,,,,,,,,,,,,021,2022-05-18_10h46.38.281,Main,2022.1.1,60.01111405562336,
positive,negative,2,l,j,,,,,,,,,4,0,72,14,,,,,,,,,main,1,1,2,negative,positive,j,j,1,0.6954528000205755,321.23228639998706,322.24409880000167,322.2274952000007,None,321.23228639998706,None,321.23228639998706,None,321.23228639998706,None,322.92523921999964,None,322.92523921999964,None,322.92523921999964,None,,,,,,,,,,,,,021,2022-05-18_10h46.38.281,Main,2022.1.1,60.01111405562336,
negative,neutral,2,j,l,,,,,,,,,4,1,73,12,,,,,,,,,main,2,2,2,neutral,negative,l,l,1,0.7972628000134137,322.9318284000037,323.9441142999858,323.9274913999834,None,322.9318284000037,None,322.9318284000037,None,322.9318284000037,None,324.7251733200101,None,324.7251733200101,None,324.7251733200101,None,,,,,,,,,,,,,021,2022-05-18_10h46.38.281,Main,2022.1.1,60.01111405562336,
neutral,negative,1,k,k,,,,,,,,,4,2,74,7,,,,,,,,,main,2,2,1,negative,neutral,k,k,1,1.0318720000213943,324.7307831000071,325.74401029999717,325.72739680000814,None,324.7307831000071,None,324.7307831000071,None,324.7307831000071,None,326.75864012000966,None,326.75864012000966,None,326.75864012000966,None,,,,,,,,,,,,,021,2022-05-18_10h46.38.281,Main,2022.1.1,60.01111405562336,
neutral,neutral,1,k,k,,,,,,,,,4,3,75,1,,,,,,,,,main,1,1,1,neutral,neutral,k,k,1,0.7146511999890208,326.76413979998324,327.7747465999855,327.7580866999924,None,326.76413979998324,None,326.76413979998324,None,326.76413979998324,None,328.474746819993,None,328.474746819993,None,328.474746819993,None,,,,,,,,,,,,,021,2022-05-18_10h46.38.281,Main,2022.1.1,60.01111405562336,
neutral,positive,1,k,k,,,,,,,,,4,4,76,4,,,,,,,,,main,1,1,1,positive,neutral,k,k,1,0.5988859999924898,328.4747320000024,329.4747664000024,329.4747664000024,None,328.4747320000024,None,328.4747320000024,None,328.4747320000024,None,330.0751573200105,None,330.0751573200105,None,330.0751573200105,None,,,,,,,,,,,,,021,2022-05-18_10h46.38.281,Main,2022.1.1,60.01111405562336,
neutral,negative,2,k,k,,,,,,,,,4,5,77,16,,,,,,,,,main,1,1,2,negative,neutral,k,k,1,0.7318099999974947,330.08135249998304,331.09394260001136,331.0772578000033,None,330.08135249998304,None,330.08135249998304,None,330.08135249998304,None,331.8086018199974,None,331.8086018199974,None,331.8086018199974,None,,,,,,,,,,,,,021,2022-05-18_10h46.38.281,Main,2022.1.1,60.01111405562336,
neutral,neutral,2,k,k,,,,,,,,,4,6,78,10,,,,,,,,,main,1,1,2,neutral,neutral,k,k,1,0.6482256000163034,331.814910999994,332.82727730000624,332.8106172999833,None,331.814910999994,None,331.814910999994,None,331.814910999994,None,333.45841692000977,None,333.45841692000977,None,333.45841692000977,None,,,,,,,,,,,,,021,2022-05-18_10h46.38.281,Main,2022.1.1,60.01111405562336,
negative,neutral,1,j,l,,,,,,,,,4,7,79,3,,,,,,,,,main,1,1,1,neutral,negative,l,l,1,0.7819598000205588,333.46388819999993,334.47721929999534,334.46061529999133,None,333.46388819999993,None,333.46388819999993,None,333.46388819999993,None,335.2417157200107,None,335.2417157200107,None,335.2417157200107,None,,,,,,,,,,,,,021,2022-05-18_10h46.38.281,Main,2022.1.1,60.01111405562336,
negative,positive,2,j,l,,,,,,,,,4,8,80,15,,,,,,,,,main,2,2,2,positive,negative,l,l,1,0.8649938000016846,335.24746340001,336.25826000000234,336.24387679999927,None,335.24746340001,None,335.24746340001,None,335.24746340001,None,337.1082538199844,None,337.1082538199844,None,337.1082538199844,None,,,,,,,,,,,,,021,2022-05-18_10h46.38.281,Main,2022.1.1,60.01111405562336,
neutral,positive,2,k,k,,,,,,,,,4,9,81,13,,,,,,,,,main,2,2,2,positive,neutral,k,k,1,1.0145932999730576,337.1143369000056,338.1245406999951,338.10787169999094,None,337.1143369000056,None,337.1143369000056,None,337.1143369000056,None,339.1245310200029,None,339.1245310200029,None,339.1245310200029,None,,,,,,,,,,,,,021,2022-05-18_10h46.38.281,Main,2022.1.1,60.01111405562336,
positive,neutral,2,l,j,,,,,,,,,4,10,82,17,,,,,,,,,main,2,2,2,neutral,positive,j,j,1,0.7817525999853387,339.12452610000037,340.12455380000756,340.12455380000756,None,339.12452610000037,None,339.12452610000037,None,339.12452610000037,None,340.90791641999385,None,340.90791641999385,None,340.90791641999385,None,,,,,,,,,,,,,021,2022-05-18_10h46.38.281,Main,2022.1.1,60.01111405562336,
positive,neutral,1,l,j,,,,,,,,,4,11,83,8,,,,,,,,,main,1,1,1,neutral,positive,j,j,1,0.6819709000119474,340.9135043999995,341.92715060000774,341.91047770000296,None,340.9135043999995,None,340.9135043999995,None,340.9135043999995,None,342.59149411998806,None,342.59149411998806,None,342.59149411998806,None,,,,,,,,,,,,,021,2022-05-18_10h46.38.281,Main,2022.1.1,60.01111405562336,
positive,positive,1,l,j,,,,,,,,,4,12,84,2,,,,,,,,,main,2,2,1,positive,positive,j,j,1,0.6174642999831121,342.60104599999613,343.610414099996,343.5937678999908,None,342.60104599999613,None,342.60104599999613,None,342.60104599999613,None,344.210490019992,None,344.210490019992,None,344.210490019992,None,,,,,,,,,,,,,021,2022-05-18_10h46.38.281,Main,2022.1.1,60.01111405562336,
negative,negative,1,j,l,,,,,,,,,4,13,85,0,,,,,,,,,main,2,2,1,negative,negative,l,l,1,0.8125880000006873,344.21518850000575,345.2269446999999,345.21037459999206,None,344.21518850000575,None,344.21518850000575,None,344.21518850000575,None,346.02485841998714,None,346.02485841998714,None,346.02485841998714,None,,,,,,,,,,,,,021,2022-05-18_10h46.38.281,Main,2022.1.1,60.01111405562336,
positive,negative,1,l,j,,,,,,,,,4,14,86,5,,,,,,,,,main,1,1,1,negative,positive,j,j,1,0.8653578000084963,346.0304843999911,347.04361339999014,347.0270290999906,None,346.0304843999911,None,346.0304843999911,None,346.0304843999911,None,347.8915136200085,None,347.8915136200085,None,347.8915136200085,None,,,,,,,,,,,,,021,2022-05-18_10h46.38.281,Main,2022.1.1,60.01111405562336,
negative,positive,1,j,l,,,,,,,,,4,15,87,6,,,,,,,,,main,2,2,1,positive,negative,l,l,1,0.6803995999798644,347.898085599998,348.9076574000064,348.89099590000114,None,347.898085599998,None,347.898085599998,None,347.898085599998,None,349.5743203200109,None,349.5743203200109,None,349.5743203200109,None,,,,,,,,,,,,,021,2022-05-18_10h46.38.281,Main,2022.1.1,60.01111405562336,
positive,positive,2,l,j,,,,,,,,,4,16,88,11,,,,,,,,,main,1,1,2,positive,positive,j,j,1,0.8481552000157535,349.57433870001114,350.57430609999574,350.57430609999574,None,349.57433870001114,None,349.57433870001114,None,349.57433870001114,None,351.4243614200095,None,351.4243614200095,None,351.4243614200095,None,,,,,,,,,,,,,021,2022-05-18_10h46.38.281,Main,2022.1.1,60.01111405562336,
negative,negative,2,j,l,,,,,,,,,4,17,89,9,,,,,,,,,main,2,2,2,negative,negative,l,l,1,0.8655526000075042,351.4296830999956,352.44361640000716,352.4103029000107,None,351.4296830999956,None,351.4296830999956,None,351.4296830999956,None,353.2912837199983,None,353.2912837199983,None,353.2912837199983,None,,,,,,,,,,,,,021,2022-05-18_10h46.38.281,Main,2022.1.1,60.01111405562336,
negative,neutral,2,j,l,,,,,,,,,5,0,90,12,,,,,,,,,main,1,1,2,neutral,negative,l,l,1,0.6651121999893803,353.2994529999851,354.3079443000024,354.29354220000096,None,353.2994529999851,None,353.2994529999851,None,353.2994529999851,None,354.95808221999323,None,354.95808221999323,None,354.95808221999323,None,,,,,,,,,,,,,021,2022-05-18_10h46.38.281,Main,2022.1.1,60.01111405562336,
neutral,neutral,2,k,k,,,,,,,,,5,1,91,10,,,,,,,,,main,2,2,2,neutral,neutral,k,k,1,0.7481825000140816,354.96413730000495,355.97685269999783,355.96024419998867,None,354.96413730000495,None,354.96413730000495,None,354.96413730000495,None,356.70789531999617,None,356.70789531999617,None,356.70789531999617,None,,,,,,,,,,,,,021,2022-05-18_10h46.38.281,Main,2022.1.1,60.01111405562336,
neutral,positive,1,k,k,,,,,,,,,5,2,92,4,,,,,,,,,main,2,2,1,positive,neutral,k,k,1,0.6320142000040505,356.71378019999247,357.726789599983,357.7102073999995,None,356.71378019999247,None,356.71378019999247,None,356.71378019999247,None,358.34118992000003,None,358.34118992000003,None,358.34118992000003,None,,,,,,,,,,,,,021,2022-05-18_10h46.38.281,Main,2022.1.1,60.01111405562336,
positive,negative,1,l,j,,,,,,,,,5,3,93,5,,,,,,,,,main,1,1,1,negative,positive,j,j,1,0.6299694000044838,358.35178379999707,359.35745310000493,359.34084930000245,None,358.35178379999707,None,358.35178379999707,None,358.35178379999707,None,359.97411772000487,None,359.97411772000487,None,359.97411772000487,None,,,,,,,,,,,,,021,2022-05-18_10h46.38.281,Main,2022.1.1,60.01111405562336,
negative,positive,1,j,l,,,,,,,,,5,4,94,6,,,,,,,,,main,1,1,1,positive,negative,l,l,1,0.7487445000151638,359.97614189999877,360.9908824999875,360.97413499999675,None,359.97614189999877,None,359.97614189999877,None,359.97614189999877,None,361.72414392000064,None,361.72414392000064,None,361.72414392000064,None,,,,,,,,,,,,,021,2022-05-18_10h46.38.281,Main,2022.1.1,60.01111405562336,
negative,positive,2,j,l,,,,,,,,,5,5,95,15,,,,,,,,,main,2,2,2,positive,negative,l,l,1,0.7172815999947488,361.73055499998736,362.74332420001156,362.72669409998343,None,361.73055499998736,None,361.73055499998736,None,361.73055499998736,None,363.44403742000577,None,363.44403742000577,None,363.44403742000577,None,,,,,,,,,,,,,021,2022-05-18_10h46.38.281,Main,2022.1.1,60.01111405562336,
positive,positive,2,l,j,,,,,,,,,5,6,96,11,,,,,,,,,main,2,2,2,positive,positive,j,j,1,0.71122270001797,363.4483794000116,364.4600174000079,364.4433497999853,None,363.4483794000116,None,363.4483794000116,None,363.4483794000116,None,365.1578350199852,None,365.1578350199852,None,365.1578350199852,None,,,,,,,,,,,,,021,2022-05-18_10h46.38.281,Main,2022.1.1,60.01111405562336,
neutral,neutral,1,k,k,,,,,,,,,5,7,97,1,,,,,,,,,main,1,1,1,neutral,neutral,k,k,1,0.6815566000004765,365.1642753999913,366.1764453999931,366.1576805000077,None,365.1642753999913,None,365.1642753999913,None,365.1642753999913,None,366.84100901999045,None,366.84100901999045,None,366.84100901999045,None,,,,,,,,,,,,,021,2022-05-18_10h46.38.281,Main,2022.1.1,60.01111405562336,
neutral,positive,2,k,k,,,,,,,,,5,8,98,13,,,,,,,,,main,1,1,2,positive,neutral,k,k,1,0.5984120999928564,366.84453719999874,367.86030400000163,367.8433163999871,None,366.84453719999874,None,366.84453719999874,None,366.84453719999874,None,368.44098782000947,None,368.44098782000947,None,368.44098782000947,None,,,,,,,,,,,,,021,2022-05-18_10h46.38.281,Main,2022.1.1,60.01111405562336,
neutral,negative,1,k,k,,,,,,,,,5,9,99,7,,,,,,,,,main,1,1,1,negative,neutral,k,k,1,0.5813348000228871,368.4444236999843,369.4576176000119,369.4406572000007,None,368.4444236999843,None,368.4444236999843,None,368.4444236999843,None,370.02392651999253,None,370.02392651999253,None,370.02392651999253,None,,,,,,,,,,,,,021,2022-05-18_10h46.38.281,Main,2022.1.1,60.01111405562336,
negative,neutral,1,j,l,,,,,,,,,5,10,100,3,,,,,,,,,main,2,2,1,neutral,negative,l,k,0,0.5987935999874026,370.0238823000109,371.02417600000626,371.02417600000626,None,370.0238823000109,None,370.0238823000109,None,370.0238823000109,None,371.6243753999879,None,371.6243753999879,None,371.6243753999879,None,,,,,,,,,,,,,021,2022-05-18_10h46.38.281,Main,2022.1.1,60.01111405562336,
positive,positive,1,l,j,,,,,,,,,5,11,101,2,,,,,,,,,main,2,2,1,positive,positive,j,j,1,0.7681368000048678,372.6245654000086,373.6264334000007,373.60988380000344,None,372.6245654000086,None,372.6245654000086,None,372.6245654000086,None,374.3908862200042,None,374.3908862200042,None,374.3908862200042,None,,,,,,,,,,,,,021,2022-05-18_10h46.38.281,Main,2022.1.1,60.01111405562336,
positive,neutral,1,l,j,,,,,,,,,5,12,102,8,,,,,,,,,main,1,1,1,neutral,positive,j,l,0,0.8501683000067715,374.397189899988,375.4073197999969,375.3930681000056,None,374.397189899988,None,374.397189899988,None,374.397189899988,None,376.2431194999954,None,376.2431194999954,None,376.2431194999954,None,,,,,,,,,,,,,021,2022-05-18_10h46.38.281,Main,2022.1.1,60.01111405562336,
positive,neutral,2,l,j,,,,,,,,,5,13,103,17,,,,,,,,,main,2,2,2,neutral,positive,j,j,1,0.8167613999976311,377.2418020000041,378.2430524000083,378.2263668999949,None,377.2418020000041,None,377.2418020000041,None,377.2418020000041,None,379.0561253199994,None,379.0561253199994,None,379.0561253199994,None,,,,,,,,,,,,,021,2022-05-18_10h46.38.281,Main,2022.1.1,60.01111405562336,
negative,negative,2,j,l,,,,,,,,,5,14,104,9,,,,,,,,,main,1,1,2,negative,negative,l,l,1,0.7661687999789137,379.056224400003,380.0570493999985,380.0570493999985,None,379.056224400003,None,379.056224400003,None,379.056224400003,None,380.8241185199877,None,380.8241185199877,None,380.8241185199877,None,,,,,,,,,,,,,021,2022-05-18_10h46.38.281,Main,2022.1.1,60.01111405562336,
neutral,negative,2,k,k,,,,,,,,,5,15,105,16,,,,,,,,,main,2,2,2,negative,neutral,k,k,1,0.7983240000030492,380.8253504000022,381.840458199993,381.8240424999967,None,380.8253504000022,None,380.8253504000022,None,380.8253504000022,None,382.6240726200049,None,382.6240726200049,None,382.6240726200049,None,,,,,,,,,,,,,021,2022-05-18_10h46.38.281,Main,2022.1.1,60.01111405562336,
negative,negative,1,j,l,,,,,,,,,5,16,106,0,,,,,,,,,main,1,1,1,negative,negative,l,l,1,0.7482571000000462,382.63032009999733,383.6429170999909,383.62628060000134,None,382.63032009999733,None,382.63032009999733,None,382.63032009999733,None,384.37376511999173,None,384.37376511999173,None,384.37376511999173,None,,,,,,,,,,,,,021,2022-05-18_10h46.38.281,Main,2022.1.1,60.01111405562336,
positive,negative,2,l,j,,,,,,,,,5,17,107,14,,,,,,,,,main,1,1,2,negative,positive,j,j,1,0.7316405999881681,384.380378700007,385.3928403999889,385.3763324999891,None,384.380378700007,None,384.380378700007,None,384.380378700007,None,386.1072611199925,None,386.1072611199925,None,386.1072611199925,None,,,,,,,,,,,,,021,2022-05-18_10h46.38.281,Main,2022.1.1,60.01111405562336,
negative,negative,2,j,l,,,,,,,,,6,0,108,9,,,,,,,,,main,2,2,2,negative,negative,l,l,1,0.8487575000035577,386.11069959998713,387.1261761999922,387.1096067999897,None,386.11069959998713,None,386.11069959998713,None,386.11069959998713,None,387.9573969199846,None,387.9573969199846,None,387.9573969199846,None,,,,,,,,,,,,,021,2022-05-18_10h46.38.281,Main,2022.1.1,60.01111405562336,
negative,negative,1,j,l,,,,,,,,,6,1,109,0,,,,,,,,,main,2,2,1,negative,negative,l,l,1,1.1150290000077803,387.96342939999886,388.9735972000053,388.9570938000106,None,387.96342939999886,None,387.96342939999886,None,387.96342939999886,None,390.0737440199882,None,390.0737440199882,None,390.0737440199882,None,,,,,,,,,,,,,021,2022-05-18_10h46.38.281,Main,2022.1.1,60.01111405562336,
positive,negative,1,l,j,,,,,,,,,6,2,110,5,,,,,,,,,main,2,2,1,negative,positive,j,j,1,0.7828404999745544,390.0763228999858,391.0902031000005,391.0735318000079,None,390.0763228999858,None,390.0763228999858,None,390.0763228999858,None,391.8569364199939,None,391.8569364199939,None,391.8569364199939,None,,,,,,,,,,,,,021,2022-05-18_10h46.38.281,Main,2022.1.1,60.01111405562336,
positive,positive,2,l,j,,,,,,,,,6,3,111,11,,,,,,,,,main,2,2,2,positive,positive,j,j,1,0.5972350999945775,391.8632995999942,392.8760335999832,392.85944239998935,None,391.8632995999942,None,391.8632995999942,None,391.8632995999942,None,393.45731351998984,None,393.45731351998984,None,393.45731351998984,None,,,,,,,,,,,,,021,2022-05-18_10h46.38.281,Main,2022.1.1,60.01111405562336,
neutral,negative,2,k,k,,,,,,,,,6,4,112,16,,,,,,,,,main,2,2,2,negative,neutral,k,k,1,0.6817788000043947,393.46322939998936,394.4760010000027,394.4594519000093,None,393.46322939998936,None,393.46322939998936,None,393.46322939998936,None,395.140543120011,None,395.140543120011,None,395.140543120011,None,,,,,,,,,,,,,021,2022-05-18_10h46.38.281,Main,2022.1.1,60.01111405562336,
negative,neutral,2,j,l,,,,,,,,,6,5,113,12,,,,,,,,,main,1,1,2,neutral,negative,l,l,1,0.7484962000162341,395.1443506999931,396.1594152000034,396.1426826000097,None,395.1443506999931,None,395.1443506999931,None,395.1443506999931,None,396.8904033199942,None,396.8904033199942,None,396.8904033199942,None,,,,,,,,,,,,,021,2022-05-18_10h46.38.281,Main,2022.1.1,60.01111405562336,
positive,neutral,1,l,j,,,,,,,,,6,6,114,8,,,,,,,,,main,1,1,1,neutral,positive,j,j,1,0.648080699989805,396.90706900000805,397.90921819998766,397.89268200000515,None,396.90706900000805,None,396.90706900000805,None,396.90706900000805,None,398.5403629200009,None,398.5403629200009,None,398.5403629200009,None,,,,,,,,,,,,,021,2022-05-18_10h46.38.281,Main,2022.1.1,60.01111405562336,
positive,neutral,2,l,j,,,,,,,,,6,7,115,17,,,,,,,,,main,2,2,2,neutral,positive,j,j,1,0.7312997000117321,398.5474400999956,399.5570063999912,399.54260509999585,None,398.5474400999956,None,398.5474400999956,None,398.5474400999956,None,400.27330142000574,None,400.27330142000574,None,400.27330142000574,None,,,,,,,,,,,,,021,2022-05-18_10h46.38.281,Main,2022.1.1,60.01111405562336,
neutral,positive,2,k,k,,,,,,,,,6,8,116,13,,,,,,,,,main,1,1,2,positive,neutral,k,k,1,0.8359798000019509,400.2735687000095,401.27327390000573,401.27327390000573,None,400.2735687000095,None,400.2735687000095,None,400.2735687000095,None,402.1081787199946,None,402.1081787199946,None,402.1081787199946,None,,,,,,,,,,,,,021,2022-05-18_10h46.38.281,Main,2022.1.1,60.01111405562336,
neutral,negative,1,k,k,,,,,,,,,6,9,117,7,,,,,,,,,main,2,2,1,negative,neutral,k,k,1,0.7613558000011835,402.1145399000088,403.1236255999829,403.1093126999913,None,402.1145399000088,None,402.1145399000088,None,402.1145399000088,None,403.8736082199903,None,403.8736082199903,None,403.8736082199903,None,,,,,,,,,,,,,021,2022-05-18_10h46.38.281,Main,2022.1.1,60.01111405562336,
neutral,positive,1,k,k,,,,,,,,,6,10,118,4,,,,,,,,,main,2,2,1,positive,neutral,k,k,1,0.665235099993879,403.8778726999881,404.89250660000835,404.8735636000056,None,403.8778726999881,None,403.8778726999881,None,403.8778726999881,None,405.54024381999625,None,405.54024381999625,None,405.54024381999625,None,,,,,,,,,,,,,021,2022-05-18_10h46.38.281,Main,2022.1.1,60.01111405562336,
negative,neutral,1,j,l,,,,,,,,,6,11,119,3,,,,,,,,,main,2,2,1,neutral,negative,l,l,1,0.7148305999871809,405.5465403999842,406.55918949999614,406.5424825999944,None,405.5465403999842,None,405.5465403999842,None,405.5465403999842,None,407.2569583200093,None,407.2569583200093,None,407.2569583200093,None,,,,,,,,,,,,,021,2022-05-18_10h46.38.281,Main,2022.1.1,60.01111405562336,
positive,negative,2,l,j,,,,,,,,,6,12,120,14,,,,,,,,,main,2,2,2,negative,positive,j,j,1,0.8147996000188868,407.26306170001044,408.27571779998834,408.25910389999626,None,407.26306170001044,None,407.26306170001044,None,407.26306170001044,None,409.07351111999014,None,409.07351111999014,None,409.07351111999014,None,,,,,,,,,,,,,021,2022-05-18_10h46.38.281,Main,2022.1.1,60.01111405562336,
negative,positive,2,j,l,,,,,,,,,6,13,121,15,,,,,,,,,main,1,1,2,positive,negative,l,l,1,0.7814126000157557,409.0797287999885,410.09012609999627,410.07347350000055,None,409.0797287999885,None,409.0797287999885,None,409.0797287999885,None,410.85648081998806,None,410.85648081998806,None,410.85648081998806,None,,,,,,,,,,,,,021,2022-05-18_10h46.38.281,Main,2022.1.1,60.01111405562336,
neutral,neutral,1,k,k,,,,,,,,,6,14,122,1,,,,,,,,,main,1,1,1,neutral,neutral,k,k,1,0.6816537999839056,410.85643700000946,411.8566737000074,411.8566737000074,None,410.85643700000946,None,410.85643700000946,None,410.85643700000946,None,412.53980091999983,None,412.53980091999983,None,412.53980091999983,None,,,,,,,,,,,,,021,2022-05-18_10h46.38.281,Main,2022.1.1,60.01111405562336,
negative,positive,1,j,l,,,,,,,,,6,15,123,6,,,,,,,,,main,2,2,1,positive,negative,l,l,1,0.7987910000083502,412.54383429998416,413.55923449998954,413.54239399998914,None,412.54383429998416,None,412.54383429998416,None,412.54383429998416,None,414.34007581998594,None,414.34007581998594,None,414.34007581998594,None,,,,,,,,,,,,,021,2022-05-18_10h46.38.281,Main,2022.1.1,60.01111405562336,
neutral,neutral,2,k,k,,,,,,,,,6,16,124,10,,,,,,,,,main,1,1,2,neutral,neutral,k,k,1,0.7814632000226993,414.34691180000664,415.35890610000934,415.3422722000105,None,414.34691180000664,None,414.34691180000664,None,414.34691180000664,None,416.12334702000953,None,416.12334702000953,None,416.12334702000953,None,,,,,,,,,,,,,021,2022-05-18_10h46.38.281,Main,2022.1.1,60.01111405562336,
positive,positive,1,l,j,,,,,,,,,6,17,125,2,,,,,,,,,main,2,2,1,positive,positive,j,j,1,0.7489178999967407,416.1294115000055,417.1421951999946,417.12564199999906,None,416.1294115000055,None,416.1294115000055,None,416.1294115000055,None,417.87333271998796,None,417.87333271998796,None,417.87333271998796,None,,,,,,,,,,,,,021,2022-05-18_10h46.38.281,Main,2022.1.1,60.01111405562336,
neutral,negative,1,k,k,,,,,,,,,7,0,126,7,,,,,,,,,main,2,2,1,negative,neutral,k,k,1,0.7814506000140682,417.8795398999937,418.8921890000056,418.8733080000093,None,417.8795398999937,None,417.8795398999937,None,417.8795398999937,None,419.6567300200113,None,419.6567300200113,None,419.6567300200113,None,,,,,,,,,,,,,021,2022-05-18_10h46.38.281,Main,2022.1.1,60.01111405562336,
positive,negative,1,l,j,,,,,,,,,7,1,127,5,,,,,,,,,main,2,2,1,negative,positive,j,j,1,0.6813777000061236,419.66291439998895,420.67195899999933,420.65547779999906,None,419.66291439998895,None,419.66291439998895,None,419.66291439998895,None,421.33952521998435,None,421.33952521998435,None,421.33952521998435,None,,,,,,,,,,,,,021,2022-05-18_10h46.38.281,Main,2022.1.1,60.01111405562336,
neutral,positive,2,k,k,,,,,,,,,7,2,128,13,,,,,,,,,main,1,1,2,positive,neutral,k,k,1,0.7317625000141561,421.33967419998953,422.3395854999835,422.3395854999835,None,421.33967419998953,None,421.33967419998953,None,421.33967419998953,None,423.0729206200049,None,423.0729206200049,None,423.0729206200049,None,,,,,,,,,,,,,021,2022-05-18_10h46.38.281,Main,2022.1.1,60.01111405562336,
negative,neutral,1,j,l,,,,,,,,,7,3,129,3,,,,,,,,,main,1,1,1,neutral,negative,l,l,1,0.7154769000189845,423.0789068999875,424.08984669999336,424.0731730000116,None,423.0789068999875,None,423.0789068999875,None,423.0789068999875,None,424.7898393200012,None,424.7898393200012,None,424.7898393200012,None,,,,,,,,,,,,,021,2022-05-18_10h46.38.281,Main,2022.1.1,60.01111405562336,
positive,negative,2,l,j,,,,,,,,,7,4,130,14,,,,,,,,,main,1,1,2,negative,positive,j,j,1,0.731607099995017,424.79580759999226,425.8064955000009,425.79218290001154,None,424.79580759999226,None,424.79580759999226,None,424.79580759999226,None,426.52311042000656,None,426.52311042000656,None,426.52311042000656,None,,,,,,,,,,,,,021,2022-05-18_10h46.38.281,Main,2022.1.1,60.01111405562336,
neutral,neutral,1,k,k,,,,,,,,,7,5,131,1,,,,,,,,,main,1,1,1,neutral,neutral,k,k,1,0.6848777999985032,426.52919010000187,427.542011499987,427.5253999999841,None,426.52919010000187,None,426.52919010000187,None,426.52919010000187,None,428.2095042199944,None,428.2095042199944,None,428.2095042199944,None,,,,,,,,,,,,,021,2022-05-18_10h46.38.281,Main,2022.1.1,60.01111405562336,
neutral,neutral,2,k,k,,,,,,,,,7,6,132,10,,,,,,,,,main,1,1,2,neutral,neutral,k,k,1,0.7287899999937508,428.21431740000844,429.22527419999824,429.2063954999903,None,428.21431740000844,None,428.21431740000844,None,428.21431740000844,None,429.93982301998767,None,429.93982301998767,None,429.93982301998767,None,,,,,,,,,,,,,021,2022-05-18_10h46.38.281,Main,2022.1.1,60.01111405562336,
negative,positive,1,j,l,,,,,,,,,7,7,133,6,,,,,,,,,main,2,2,1,positive,negative,l,l,1,0.7315237000002526,429.94497290000436,430.95604980000644,430.9383998999838,None,429.94497290000436,None,429.94497290000436,None,429.94497290000436,None,431.67269331999705,None,431.67269331999705,None,431.67269331999705,None,,,,,,,,,,,,,021,2022-05-18_10h46.38.281,Main,2022.1.1,60.01111405562336,
positive,positive,1,l,j,,,,,,,,,7,8,134,2,,,,,,,,,main,2,2,1,positive,positive,j,j,1,0.8810088000027463,431.67507820000174,432.6893288999854,432.6729052999872,None,431.67507820000174,None,431.67507820000174,None,431.67507820000174,None,433.55611221998697,None,433.55611221998697,None,433.55611221998697,None,,,,,,,,,,,,,021,2022-05-18_10h46.38.281,Main,2022.1.1,60.01111405562336,
negative,negative,2,j,l,,,,,,,,,7,9,135,9,,,,,,,,,main,2,2,2,negative,negative,l,l,1,0.7816924000217114,433.5569176999852,434.55601130001014,434.55601130001014,None,433.5569176999852,None,433.5569176999852,None,433.5569176999852,None,435.3396501200041,None,435.3396501200041,None,435.3396501200041,None,,,,,,,,,,,,,021,2022-05-18_10h46.38.281,Main,2022.1.1,60.01111405562336,
negative,negative,1,j,l,,,,,,,,,7,10,136,0,,,,,,,,,main,1,1,1,negative,negative,l,l,1,1.0175746000022627,435.34553069999674,436.3562896999938,436.34188469999935,None,435.34553069999674,None,435.34553069999674,None,435.34553069999674,None,437.3584776200005,None,437.3584776200005,None,437.3584776200005,None,,,,,,,,,,,,,021,2022-05-18_10h46.38.281,Main,2022.1.1,60.01111405562336,
positive,positive,2,l,j,,,,,,,,,7,11,137,11,,,,,,,,,main,2,2,2,positive,positive,j,j,1,0.7462090000044554,437.3631715000083,438.37288559999433,438.35852030001115,None,437.3631715000083,None,437.3631715000083,None,437.3631715000083,None,439.1062158200075,None,439.1062158200075,None,439.1062158200075,None,,,,,,,,,,,,,021,2022-05-18_10h46.38.281,Main,2022.1.1,60.01111405562336,
neutral,negative,2,k,k,,,,,,,,,7,12,138,16,,,,,,,,,main,1,1,2,negative,neutral,k,k,1,0.7806718000210822,439.1106085999927,440.1250468000071,440.1084663000074,None,439.1106085999927,None,439.1106085999927,None,439.1106085999927,None,440.88952592000715,None,440.88952592000715,None,440.88952592000715,None,,,,,,,,,,,,,021,2022-05-18_10h46.38.281,Main,2022.1.1,60.01111405562336,
neutral,positive,1,k,k,,,,,,,,,7,13,139,4,,,,,,,,,main,1,1,1,positive,neutral,k,k,1,0.9321452000003774,440.8979812999896,441.9054778999998,441.8883468999993,None,440.8979812999896,None,440.8979812999896,None,440.8979812999896,None,442.82246431999374,None,442.82246431999374,None,442.82246431999374,None,,,,,,,,,,,,,021,2022-05-18_10h46.38.281,Main,2022.1.1,60.01111405562336,
negative,positive,2,j,l,,,,,,,,,7,14,140,15,,,,,,,,,main,1,1,2,positive,negative,l,l,1,0.7514654000115115,442.82479250000324,443.8391905000026,443.8224665999878,None,442.82479250000324,None,442.82479250000324,None,442.82479250000324,None,444.5764754200063,None,444.5764754200063,None,444.5764754200063,None,,,,,,,,,,,,,021,2022-05-18_10h46.38.281,Main,2022.1.1,60.01111405562336,
negative,neutral,2,j,l,,,,,,,,,7,15,141,12,,,,,,,,,main,2,2,2,neutral,negative,l,l,1,0.7124118999927305,444.5803934999858,445.5916193999874,445.5750709999993,None,444.5803934999858,None,444.5803934999858,None,444.5803934999858,None,446.2894000200031,None,446.2894000200031,None,446.2894000200031,None,,,,,,,,,,,,,021,2022-05-18_10h46.38.281,Main,2022.1.1,60.01111405562336,
positive,neutral,1,l,j,,,,,,,,,7,16,142,8,,,,,,,,,main,1,1,1,neutral,positive,j,j,1,0.7638808000192512,446.294003899995,447.3082206000108,447.2916784999834,None,446.294003899995,None,446.294003899995,None,446.294003899995,None,448.05612542000017,None,448.05612542000017,None,448.05612542000017,None,,,,,,,,,,,,,021,2022-05-18_10h46.38.281,Main,2022.1.1,60.01111405562336,
positive,neutral,2,l,j,,,,,,,,,7,17,143,17,,,,,,,,,main,2,2,2,neutral,positive,j,j,1,0.7651503999950364,448.0597206999955,449.074962099985,449.05827589999535,None,448.0597206999955,None,448.0597206999955,None,448.0597206999955,None,449.8226892199891,None,449.8226892199891,None,449.8226892199891,None,,,,,,,,,,,,,021,2022-05-18_10h46.38.281,Main,2022.1.1,60.01111405562336,
positive,negative,1,l,j,,,,,,,,,8,0,144,5,,,,,,,,,main,2,2,1,negative,positive,j,j,1,0.7487562999885995,449.82658980000997,450.8415010999888,450.8226309999882,None,449.82658980000997,None,449.82658980000997,None,449.82658980000997,None,451.57263742000214,None,451.57263742000214,None,451.57263742000214,None,,,,,,,,,,,,,021,2022-05-18_10h46.38.281,Main,2022.1.1,60.01111405562336,
neutral,neutral,1,k,k,,,,,,,,,8,1,145,1,,,,,,,,,main,2,2,1,neutral,neutral,k,k,1,0.6311010000063106,451.5893587000028,452.59044699999504,452.5748641999962,None,451.5893587000028,None,451.5893587000028,None,451.5893587000028,None,453.2056956200104,None,453.2056956200104,None,453.2056956200104,None,,,,,,,,,,,,,021,2022-05-18_10h46.38.281,Main,2022.1.1,60.01111405562336,
negative,positive,1,j,l,,,,,,,,,8,2,146,6,,,,,,,,,main,1,1,1,positive,negative,l,l,1,0.814629899978172,453.20724329998484,454.2221930999949,454.2055496000103,None,453.20724329998484,None,453.20724329998484,None,453.20724329998484,None,455.0222785199876,None,455.0222785199876,None,455.0222785199876,None,,,,,,,,,,,,,021,2022-05-18_10h46.38.281,Main,2022.1.1,60.01111405562336,
neutral,neutral,2,k,k,,,,,,,,,8,3,147,10,,,,,,,,,main,1,1,2,neutral,neutral,k,k,1,0.715142700006254,455.02859199998784,456.041447399999,456.02482960000634,None,455.02859199998784,None,455.02859199998784,None,455.02859199998784,None,456.739332319994,None,456.739332319994,None,456.739332319994,None,,,,,,,,,,,,,021,2022-05-18_10h46.38.281,Main,2022.1.1,60.01111405562336,
positive,negative,2,l,j,,,,,,,,,8,4,148,14,,,,,,,,,main,2,2,2,negative,positive,j,j,1,0.6313172999944072,456.7453545999888,457.7584302999894,457.7414795999939,None,456.7453545999888,None,456.7453545999888,None,456.7453545999888,None,458.37248491999344,None,458.37248491999344,None,458.37248491999344,None,,,,,,,,,,,,,021,2022-05-18_10h46.38.281,Main,2022.1.1,60.01111405562336,
positive,neutral,1,l,j,,,,,,,,,8,5,149,8,,,,,,,,,main,2,2,1,neutral,positive,j,j,1,1.3484175000048708,458.3769318999839,459.39135960000567,459.3729873999837,None,458.3769318999839,None,458.3769318999839,None,458.3769318999839,None,460.72245231998386,None,460.72245231998386,None,460.72245231998386,None,,,,,,,,,,,,,021,2022-05-18_10h46.38.281,Main,2022.1.1,60.01111405562336,
neutral,negative,2,k,k,,,,,,,,,8,6,150,16,,,,,,,,,main,1,1,2,negative,neutral,k,k,1,0.6731726999860257,460.7262204999861,461.7413996999967,461.72243359999266,None,460.7262204999861,None,460.7262204999861,None,460.7262204999861,None,462.3972130199836,None,462.3972130199836,None,462.3972130199836,None,,,,,,,,,,,,,021,2022-05-18_10h46.38.281,Main,2022.1.1,60.01111405562336,
negative,negative,1,j,l,,,,,,,,,8,7,151,0,,,,,,,,,main,2,2,1,negative,negative,l,l,1,0.6559587999945506,462.41446110000834,463.4222646999988,463.3890901999839,None,462.41446110000834,None,462.41446110000834,None,462.41446110000834,None,464.0556984200084,None,464.0556984200084,None,464.0556984200084,None,,,,,,,,,,,,,021,2022-05-18_10h46.38.281,Main,2022.1.1,60.01111405562336,
positive,neutral,2,l,j,,,,,,,,,8,8,152,17,,,,,,,,,main,2,2,2,neutral,positive,j,j,1,0.7318073000060394,464.0614704999898,465.0725615999836,465.0558864999912,None,464.0614704999898,None,464.0614704999898,None,464.0614704999898,None,465.78926761998446,None,465.78926761998446,None,465.78926761998446,None,,,,,,,,,,,,,021,2022-05-18_10h46.38.281,Main,2022.1.1,60.01111405562336,
negative,neutral,2,j,l,,,,,,,,,8,9,153,12,,,,,,,,,main,2,2,2,neutral,negative,l,l,1,0.9148026999901049,465.794739200006,466.80559209999046,466.7889783999999,None,465.794739200006,None,465.794739200006,None,465.794739200006,None,467.7055556199921,None,467.7055556199921,None,467.7055556199921,None,,,,,,,,,,,,,021,2022-05-18_10h46.38.281,Main,2022.1.1,60.01111405562336,
positive,positive,2,l,j,,,,,,,,,8,10,154,11,,,,,,,,,main,1,1,2,positive,positive,j,j,1,0.6985524999909103,467.7110059999977,468.72471969999606,468.7056074999855,None,467.7110059999977,None,467.7110059999977,None,467.7110059999977,None,469.40561531999265,None,469.40561531999265,None,469.40561531999265,None,,,,,,,,,,,,,021,2022-05-18_10h46.38.281,Main,2022.1.1,60.01111405562336,
negative,neutral,1,j,l,,,,,,,,,8,11,155,3,,,,,,,,,main,1,1,1,neutral,negative,l,l,1,0.7819834999972954,469.4093060999876,470.4221980999864,470.4055187999911,None,469.4093060999876,None,469.4093060999876,None,469.4093060999876,None,471.1891450200055,None,471.1891450200055,None,471.1891450200055,None,,,,,,,,,,,,,021,2022-05-18_10h46.38.281,Main,2022.1.1,60.01111405562336,
positive,positive,1,l,j,,,,,,,,,8,12,156,2,,,,,,,,,main,2,2,1,positive,positive,j,j,1,0.6815817999886349,471.19497650000267,472.20550310000544,472.19111069999053,None,471.19497650000267,None,471.19497650000267,None,471.19497650000267,None,472.8721636199916,None,472.8721636199916,None,472.8721636199916,None,,,,,,,,,,,,,021,2022-05-18_10h46.38.281,Main,2022.1.1,60.01111405562336,
negative,positive,2,j,l,,,,,,,,,8,13,157,15,,,,,,,,,main,2,2,2,positive,negative,l,l,1,0.7646708999818657,472.88885409999057,473.88849969999865,473.8718338999897,None,472.88885409999057,None,472.88885409999057,None,472.88885409999057,None,474.63847472000634,None,474.63847472000634,None,474.63847472000634,None,,,,,,,,,,,,,021,2022-05-18_10h46.38.281,Main,2022.1.1,60.01111405562336,
negative,negative,2,j,l,,,,,,,,,8,14,158,9,,,,,,,,,main,2,2,2,negative,negative,l,l,1,0.7196084999886807,474.6385556999885,475.63873589999275,475.63873589999275,None,474.6385556999885,None,474.6385556999885,None,474.6385556999885,None,476.3556893199857,None,476.3556893199857,None,476.3556893199857,None,,,,,,,,,,,,,021,2022-05-18_10h46.38.281,Main,2022.1.1,60.01111405562336,
neutral,positive,1,k,k,,,,,,,,,8,15,159,4,,,,,,,,,main,2,2,1,positive,neutral,k,k,1,0.6931214999931399,476.3699978000077,477.37459829999716,477.3581539999868,None,476.3699978000077,None,476.3699978000077,None,476.3699978000077,None,478.0555204199918,None,478.0555204199918,None,478.0555204199918,None,,,,,,,,,,,,,021,2022-05-18_10h46.38.281,Main,2022.1.1,60.01111405562336,
neutral,negative,1,k,k,,,,,,,,,8,16,160,7,,,,,,,,,main,2,2,1,negative,neutral,k,k,1,0.6483458000002429,478.0743666999915,479.07425669999793,479.0576005000039,None,478.0743666999915,None,478.0743666999915,None,478.0743666999915,None,479.7054190199997,None,479.7054190199997,None,479.7054190199997,None,,,,,,,,,,,,,021,2022-05-18_10h46.38.281,Main,2022.1.1,60.01111405562336,
neutral,positive,2,k,k,,,,,,,,,8,17,161,13,,,,,,,,,main,1,1,2,positive,neutral,k,k,1,0.7483089999877848,479.71208820000174,480.7223202000023,480.7056440000015,None,479.71208820000174,None,479.71208820000174,None,479.71208820000174,None,481.4554324199853,None,481.4554324199853,None,481.4554324199853,None,,,,,,,,,,,,,021,2022-05-18_10h46.38.281,Main,2022.1.1,60.01111405562336,
positive,positive,2,l,j,,,,,,,,,9,0,162,11,,,,,,,,,main,2,2,2,positive,positive,j,j,1,0.8478172000031918,481.4621969999862,482.4742852000054,482.45536490000086,None,481.4621969999862,None,481.4621969999862,None,481.4621969999862,None,483.30535422000685,None,483.30535422000685,None,483.30535422000685,None,,,,,,,,,,,,,021,2022-05-18_10h46.38.281,Main,2022.1.1,60.01111405562336,
negative,positive,2,j,l,,,,,,,,,9,1,163,15,,,,,,,,,main,2,2,2,positive,negative,l,j,0,0.5809647999994922,483.3243627999909,484.33837069998845,484.30493059998844,None,483.3243627999909,None,483.3243627999909,None,483.3243627999909,None,484.8882830000075,None,484.8882830000075,None,484.8882830000075,None,,,,,,,,,,,,,021,2022-05-18_10h46.38.281,Main,2022.1.1,60.01111405562336,
positive,negative,1,l,j,,,,,,,,,9,2,164,5,,,,,,,,,main,2,2,1,negative,positive,j,j,1,0.7573220000194851,485.89156509999884,486.8886089999869,486.8886089999869,None,485.89156509999884,None,485.89156509999884,None,485.89156509999884,None,487.642621720006,None,487.642621720006,None,487.642621720006,None,,,,,,,,,,,,,021,2022-05-18_10h46.38.281,Main,2022.1.1,60.01111405562336,
neutral,neutral,2,k,k,,,,,,,,,9,3,165,10,,,,,,,,,main,1,1,2,neutral,neutral,k,k,1,0.6938000000081956,487.6462177000067,488.6575459000014,488.6408489999885,None,487.6462177000067,None,487.6462177000067,None,487.6462177000067,None,489.3385328199947,None,489.3385328199947,None,489.3385328199947,None,,,,,,,,,,,,,021,2022-05-18_10h46.38.281,Main,2022.1.1,60.01111405562336,
positive,negative,2,l,j,,,,,,,,,9,4,166,14,,,,,,,,,main,2,2,2,negative,positive,j,j,1,0.7151089999824762,489.342673200008,490.3573406999931,490.3407828999916,None,489.342673200008,None,489.342673200008,None,489.342673200008,None,491.0552591200103,None,491.0552591200103,None,491.0552591200103,None,,,,,,,,,,,,,021,2022-05-18_10h46.38.281,Main,2022.1.1,60.01111405562336,
neutral,neutral,1,k,k,,,,,,,,,9,5,167,1,,,,,,,,,main,2,2,1,neutral,neutral,k,k,1,0.7827664000215009,491.0594937999849,492.0718185000005,492.0551523999893,None,491.0594937999849,None,491.0594937999849,None,491.0594937999849,None,492.8384940199903,None,492.8384940199903,None,492.8384940199903,None,,,,,,,,,,,,,021,2022-05-18_10h46.38.281,Main,2022.1.1,60.01111405562336,
positive,neutral,1,l,j,,,,,,,,,9,6,168,8,,,,,,,,,main,1,1,1,neutral,positive,j,j,1,0.6305926000059117,492.84478759998456,493.8573749999923,493.8407431000087,None,492.84478759998456,None,492.84478759998456,None,492.84478759998456,None,494.47185962001095,None,494.47185962001095,None,494.47185962001095,None,,,,,,,,,,,,,021,2022-05-18_10h46.38.281,Main,2022.1.1,60.01111405562336,
positive,positive,1,l,j,,,,,,,,,9,7,169,2,,,,,,,,,main,1,1,1,positive,positive,j,j,1,0.8812539999780711,494.477635999996,495.48806410000543,495.4713962000096,None,494.477635999996,None,494.477635999996,None,494.477635999996,None,496.35479261999717,None,496.35479261999717,None,496.35479261999717,None,,,,,,,,,,,,,021,2022-05-18_10h46.38.281,Main,2022.1.1,60.01111405562336,
negative,neutral,2,j,l,,,,,,,,,9,8,170,12,,,,,,,,,main,1,1,2,neutral,negative,l,l,1,0.8197214999818243,496.35469479998574,497.35474680000334,497.35474680000334,None,496.35469479998574,None,496.35469479998574,None,496.35469479998574,None,498.17572582000867,None,498.17572582000867,None,498.17572582000867,None,,,,,,,,,,,,,021,2022-05-18_10h46.38.281,Main,2022.1.1,60.01111405562336,
positive,neutral,2,l,j,,,,,,,,,9,9,171,17,,,,,,,,,main,2,2,2,neutral,positive,j,j,1,0.7610474999819417,498.1791382000083,499.19067260000156,499.17395219998434,None,498.1791382000083,None,498.1791382000083,None,498.1791382000083,None,499.93836441999883,None,499.93836441999883,None,499.93836441999883,None,,,,,,,,,,,,,021,2022-05-18_10h46.38.281,Main,2022.1.1,60.01111405562336,
neutral,positive,1,k,k,,,,,,,,,9,10,172,4,,,,,,,,,main,1,1,1,positive,neutral,k,k,1,0.7825657000066712,499.9442478999845,500.95499110000674,500.9405784000119,None,499.9442478999845,None,499.9442478999845,None,499.9442478999845,None,501.7216126199928,None,501.7216126199928,None,501.7216126199928,None,,,,,,,,,,,,,021,2022-05-18_10h46.38.281,Main,2022.1.1,60.01111405562336,
neutral,negative,1,k,k,,,,,,,,,9,11,173,7,,,,,,,,,main,2,2,1,negative,neutral,k,k,1,0.7666252999915741,501.7281624999887,502.74051589999,502.721881400008,None,501.7281624999887,None,501.7281624999887,None,501.7281624999887,None,503.490737420012,None,503.490737420012,None,503.490737420012,None,,,,,,,,,,,,,021,2022-05-18_10h46.38.281,Main,2022.1.1,60.01111405562336,
negative,negative,1,j,l,,,,,,,,,9,12,174,0,,,,,,,,,main,2,2,1,negative,negative,l,l,1,0.6298991999938153,503.4953130999929,504.50517670001136,504.49056979999295,None,503.4953130999929,None,503.4953130999929,None,503.4953130999929,None,505.1219112199906,None,505.1219112199906,None,505.1219112199906,None,,,,,,,,,,,,,021,2022-05-18_10h46.38.281,Main,2022.1.1,60.01111405562336,
neutral,positive,2,k,k,,,,,,,,,9,13,175,13,,,,,,,,,main,1,1,2,positive,neutral,k,k,1,0.6809050000156276,505.14064820000203,506.15450219999184,506.12115600000834,None,505.14064820000203,None,505.14064820000203,None,505.14064820000203,None,506.8045870199858,None,506.8045870199858,None,506.8045870199858,None,,,,,,,,,,,,,021,2022-05-18_10h46.38.281,Main,2022.1.1,60.01111405562336,
negative,positive,1,j,l,,,,,,,,,9,14,176,6,,,,,,,,,main,1,1,1,positive,negative,l,l,1,1.0487704999977723,506.8045407999889,507.8045436000102,507.8045436000102,None,506.8045407999889,None,506.8045407999889,None,506.8045407999889,None,508.85489772001165,None,508.85489772001165,None,508.85489772001165,None,,,,,,,,,,,,,021,2022-05-18_10h46.38.281,Main,2022.1.1,60.01111405562336,
negative,negative,2,j,l,,,,,,,,,9,15,177,9,,,,,,,,,main,1,1,2,negative,negative,l,l,1,0.7661470000166446,508.8612540999893,509.87375979998615,509.8548079000029,None,508.8612540999893,None,508.8612540999893,None,508.8612540999893,None,510.6214719199925,None,510.6214719199925,None,510.6214719199925,None,,,,,,,,,,,,,021,2022-05-18_10h46.38.281,Main,2022.1.1,60.01111405562336,
neutral,negative,2,k,k,,,,,,,,,9,16,178,16,,,,,,,,,main,2,2,2,negative,neutral,k,k,1,0.7806615000008605,510.62803520000307,511.6379079000035,511.6237322000088,None,510.62803520000307,None,510.62803520000307,None,510.62803520000307,None,512.4048219200049,None,512.4048219200049,None,512.4048219200049,None,,,,,,,,,,,,,021,2022-05-18_10h46.38.281,Main,2022.1.1,60.01111405562336,
negative,neutral,1,j,l,,,,,,,,,9,17,179,3,,,,,,,,,main,2,2,1,neutral,negative,l,l,1,1.1996611999929883,512.4082409999974,513.4235805000062,513.4070191000064,None,512.4082409999974,None,512.4082409999974,None,512.4082409999974,None,514.6047812199977,None,514.6047812199977,None,514.6047812199977,None,,,,,,,,,,,,,021,2022-05-18_10h46.38.281,Main,2022.1.1,60.01111405562336,
positive,positive,2,l,j,,,,,,,,,10,0,180,11,,,,,,,,,main,2,2,2,positive,positive,j,j,1,0.846811900002649,514.611453199992,515.6235653999902,515.6069454000099,None,514.611453199992,None,514.611453199992,None,514.611453199992,None,516.4543450199999,None,516.4543450199999,None,516.4543450199999,None,,,,,,,,,,,,,021,2022-05-18_10h46.38.281,Main,2022.1.1,60.01111405562336,
negative,negative,1,j,l,,,,,,,,,10,1,181,0,,,,,,,,,main,1,1,1,negative,negative,l,l,1,1.0654909999866504,516.454276000004,517.4545953999914,517.4545953999914,None,516.454276000004,None,516.454276000004,None,516.454276000004,None,518.5212126199913,None,518.5212126199913,None,518.5212126199913,None,,,,,,,,,,,,,021,2022-05-18_10h46.38.281,Main,2022.1.1,60.01111405562336,
neutral,positive,1,k,k,,,,,,,,,10,2,182,4,,,,,,,,,main,1,1,1,positive,neutral,k,k,1,0.8646420000004582,518.5280899000063,519.540196899994,519.5215462000051,None,518.5280899000063,None,518.5280899000063,None,518.5280899000063,None,520.3876188200084,None,520.3876188200084,None,520.3876188200084,None,,,,,,,,,,,,,021,2022-05-18_10h46.38.281,Main,2022.1.1,60.01111405562336,
positive,neutral,1,l,j,,,,,,,,,10,3,183,8,,,,,,,,,main,2,2,1,neutral,positive,j,j,1,1.315269199985778,520.393385000003,521.4068562999892,521.3901864000072,None,520.393385000003,None,520.393385000003,None,520.393385000003,None,522.7045503199915,None,522.7045503199915,None,522.7045503199915,None,,,,,,,,,,,,,021,2022-05-18_10h46.38.281,Main,2022.1.1,60.01111405562336,
negative,neutral,1,j,l,,,,,,,,,10,4,184,3,,,,,,,,,main,1,1,1,neutral,negative,l,l,1,0.9986705000046641,522.7100921999954,523.7233975999989,523.7068050999951,None,522.7100921999954,None,522.7100921999954,None,522.7100921999954,None,524.7046072199882,None,524.7046072199882,None,524.7046072199882,None,,,,,,,,,,,,,021,2022-05-18_10h46.38.281,Main,2022.1.1,60.01111405562336,
negative,positive,1,j,l,,,,,,,,,10,5,185,6,,,,,,,,,main,1,1,1,positive,negative,l,l,1,1.081204300018726,524.7109101999959,525.7211317000038,525.7066690000065,None,524.7109101999959,None,524.7109101999959,None,524.7109101999959,None,526.787415519997,None,526.787415519997,None,526.787415519997,None,,,,,,,,,,,,,021,2022-05-18_10h46.38.281,Main,2022.1.1,60.01111405562336,
neutral,positive,2,k,k,,,,,,,,,10,6,186,13,,,,,,,,,main,1,1,2,positive,neutral,k,k,1,0.7653475999832153,526.787516899989,527.7877222000097,527.7877222000097,None,526.787516899989,None,526.787516899989,None,526.787516899989,None,528.5542151200061,None,528.5542151200061,None,528.5542151200061,None,,,,,,,,,,,,,021,2022-05-18_10h46.38.281,Main,2022.1.1,60.01111405562336,
negative,neutral,2,j,l,,,,,,,,,10,7,187,12,,,,,,,,,main,1,1,2,neutral,negative,l,l,1,0.671763699996518,528.560329400003,529.5733527999837,529.5567098000029,None,528.560329400003,None,528.560329400003,None,528.560329400003,None,530.2263719199982,None,530.2263719199982,None,530.2263719199982,None,,,,,,,,,,,,,021,2022-05-18_10h46.38.281,Main,2022.1.1,60.01111405562336,
neutral,neutral,1,k,k,,,,,,,,,10,8,188,1,,,,,,,,,main,2,2,1,neutral,neutral,k,k,1,0.6417993000068236,530.2305857999891,531.2398462999845,531.2232942999981,None,530.2305857999891,None,530.2305857999891,None,530.2305857999891,None,531.8710171199928,None,531.8710171199928,None,531.8710171199928,None,,,,,,,,,,,,,021,2022-05-18_10h46.38.281,Main,2022.1.1,60.01111405562336,
neutral,neutral,2,k,k,,,,,,,,,10,9,189,10,,,,,,,,,main,1,1,2,neutral,neutral,k,k,1,0.6485136000264902,531.8743901999842,532.8876607999846,532.8709908000019,None,531.8743901999842,None,531.8743901999842,None,531.8743901999842,None,533.52099972,None,533.52099972,None,533.52099972,None,,,,,,,,,,,,,021,2022-05-18_10h46.38.281,Main,2022.1.1,60.01111405562336,
positive,positive,1,l,j,,,,,,,,,10,10,190,2,,,,,,,,,main,1,1,1,positive,positive,j,j,1,0.6488982999871951,533.5270307000028,534.5399348000064,534.5209715999954,None,533.5270307000028,None,533.5270307000028,None,533.5270307000028,None,535.1713660199894,None,535.1713660199894,None,535.1713660199894,None,,,,,,,,,,,,,021,2022-05-18_10h46.38.281,Main,2022.1.1,60.01111405562336,
neutral,negative,1,k,k,,,,,,,,,10,11,191,7,,,,,,,,,main,1,1,1,negative,neutral,k,l,0,0.7142606999841519,535.1748990000051,536.1879637000093,536.173241099983,None,535.1748990000051,None,535.1748990000051,None,535.1748990000051,None,536.8872278000053,None,536.8872278000053,None,536.8872278000053,None,,,,,,,,,,,,,021,2022-05-18_10h46.38.281,Main,2022.1.1,60.01111405562336,
neutral,negative,2,k,k,,,,,,,,,10,12,192,16,,,,,,,,,main,2,2,2,negative,neutral,k,k,1,0.7694703000015579,537.8871820000059,538.887198899989,538.887198899989,None,537.8871820000059,None,537.8871820000059,None,537.8871820000059,None,539.6539243200095,None,539.6539243200095,None,539.6539243200095,None,,,,,,,,,,,,,021,2022-05-18_10h46.38.281,Main,2022.1.1,60.01111405562336,
positive,neutral,2,l,j,,,,,,,,,10,13,193,17,,,,,,,,,main,2,2,2,neutral,positive,j,l,0,0.7654540999792516,539.6576292999962,540.6730249999964,540.6564420000068,None,539.6576292999962,None,539.6576292999962,None,539.6576292999962,None,541.4209517999843,None,541.4209517999843,None,541.4209517999843,None,,,,,,,,,,,,,021,2022-05-18_10h46.38.281,Main,2022.1.1,60.01111405562336,
negative,negative,2,j,l,,,,,,,,,10,14,194,9,,,,,,,,,main,1,1,2,negative,negative,l,l,1,0.9370452000002842,542.4208717999863,543.4208323000057,543.406372700003,None,542.4208717999863,None,542.4208717999863,None,542.4208717999863,None,544.3564387199876,None,544.3564387199876,None,544.3564387199876,None,,,,,,,,,,,,,021,2022-05-18_10h46.38.281,Main,2022.1.1,60.01111405562336,
negative,positive,2,j,l,,,,,,,,,10,15,195,15,,,,,,,,,main,1,1,2,positive,negative,l,l,1,0.7456415999913588,544.3598716999986,545.3729986000108,545.356311999989,None,544.3598716999986,None,544.3598716999986,None,544.3598716999986,None,546.1040502199903,None,546.1040502199903,None,546.1040502199903,None,,,,,,,,,,,,,021,2022-05-18_10h46.38.281,Main,2022.1.1,60.01111405562336,
positive,negative,1,l,j,,,,,,,,,10,16,196,5,,,,,,,,,main,1,1,1,negative,positive,j,j,1,1.0804740999883506,546.1074635999976,547.1206907999876,547.1062821999949,None,546.1074635999976,None,546.1074635999976,None,546.1074635999976,None,548.1861098200025,None,548.1861098200025,None,548.1861098200025,None,,,,,,,,,,,,,021,2022-05-18_10h46.38.281,Main,2022.1.1,60.01111405562336,
positive,negative,2,l,j,,,,,,,,,10,17,197,14,,,,,,,,,main,2,2,2,negative,positive,j,j,1,1.549306600005366,548.2013270999887,549.2036443999968,549.1870191000053,None,548.2013270999887,None,548.2013270999887,None,548.2013270999887,None,550.7370538999967,None,550.7370538999967,None,550.7370538999967,None,,,,,,,,,,,,,021,2022-05-18_10h46.38.281,Main,2022.1.1,60.01111405562336,
negative,positive,1,j,l,,,,,,,,,11,0,198,6,,,,,,,,,main,2,2,1,positive,negative,l,l,1,2.4015046000131406,551.7381612999889,552.7394327000075,552.722853299987,None,551.7381612999889,None,551.7381612999889,None,551.7381612999889,None,555.1394434999966,None,555.1394434999966,None,555.1394434999966,None,,,,,,,,,,,,,021,2022-05-18_10h46.38.281,Main,2022.1.1,60.01111405562336,
positive,positive,1,l,j,,,,,,,,,11,1,199,2,,,,,,,,,main,2,2,1,positive,positive,j,j,1,0.9191469000070356,556.1371354000003,557.1393999999855,557.1227749999962,None,556.1371354000003,None,556.1371354000003,None,556.1371354000003,None,558.0539293199836,None,558.0539293199836,None,558.0539293199836,None,,,,,,,,,,,,,021,2022-05-18_10h46.38.281,Main,2022.1.1,60.01111405562336,
negative,positive,2,j,l,,,,,,,,,11,2,200,15,,,,,,,,,main,2,2,2,positive,negative,l,l,1,0.963352799997665,558.0602626999898,559.0700945999997,559.0534222999995,None,558.0602626999898,None,558.0602626999898,None,558.0602626999898,None,560.0200785199995,None,560.0200785199995,None,560.0200785199995,None,,,,,,,,,,,,,021,2022-05-18_10h46.38.281,Main,2022.1.1,60.01111405562336,
positive,positive,2,l,j,,,,,,,,,11,3,201,11,,,,,,,,,main,2,2,2,positive,positive,j,j,1,0.6813048000039998,560.0368696000078,561.0367878999969,561.020105500007,None,560.0368696000078,None,560.0368696000078,None,560.0368696000078,None,561.7037668199919,None,561.7037668199919,None,561.7037668199919,None,,,,,,,,,,,,,021,2022-05-18_10h46.38.281,Main,2022.1.1,60.01111405562336,
neutral,negative,1,k,k,,,,,,,,,11,4,202,7,,,,,,,,,main,2,2,1,negative,neutral,k,k,1,0.6505698000255506,561.7073582999874,562.7203963999928,562.7037342999829,None,561.7073582999874,None,561.7073582999874,None,561.7073582999874,None,563.3559479200048,None,563.3559479200048,None,563.3559479200048,None,,,,,,,,,,,,,021,2022-05-18_10h46.38.281,Main,2022.1.1,60.01111405562336,
negative,negative,1,j,l,,,,,,,,,11,5,203,0,,,,,,,,,main,2,2,1,negative,negative,l,l,1,0.7796096999954898,563.3589266999916,564.3726169999863,564.3536767000041,None,563.3589266999916,None,563.3589266999916,None,563.3589266999916,None,565.1370147200068,None,565.1370147200068,None,565.1370147200068,None,,,,,,,,,,,,,021,2022-05-18_10h46.38.281,Main,2022.1.1,60.01111405562336,
neutral,neutral,2,k,k,,,,,,,,,11,6,204,10,,,,,,,,,main,1,1,2,neutral,neutral,k,k,1,0.7147192999836989,565.1403426000034,566.153642499994,566.1392396999872,None,565.1403426000034,None,565.1403426000034,None,565.1403426000034,None,566.8535275199974,None,566.8535275199974,None,566.8535275199974,None,,,,,,,,,,,,,021,2022-05-18_10h46.38.281,Main,2022.1.1,60.01111405562336,
neutral,negative,2,k,k,,,,,,,,,11,7,205,16,,,,,,,,,main,2,2,2,negative,neutral,k,k,1,0.6653411000152119,566.8594008999935,567.8724270999955,567.8392168999999,None,566.8594008999935,None,566.8594008999935,None,566.8594008999935,None,568.5202562199847,None,568.5202562199847,None,568.5202562199847,None,,,,,,,,,,,,,021,2022-05-18_10h46.38.281,Main,2022.1.1,60.01111405562336,
neutral,neutral,1,k,k,,,,,,,,,11,8,206,1,,,,,,,,,main,2,2,1,neutral,neutral,k,k,1,0.6481434000015724,568.5234753999976,569.5366184999875,569.5198803000094,None,568.5234753999976,None,568.5234753999976,None,568.5234753999976,None,570.1698816200078,None,570.1698816200078,None,570.1698816200078,None,,,,,,,,,,,,,021,2022-05-18_10h46.38.281,Main,2022.1.1,60.01111405562336,
positive,negative,1,l,j,,,,,,,,,11,9,207,5,,,,,,,,,main,1,1,1,negative,positive,j,j,1,0.7825083000061568,570.1698700999841,571.169920699991,571.169920699991,None,570.1698700999841,None,570.1698700999841,None,570.1698700999841,None,571.9537897199916,None,571.9537897199916,None,571.9537897199916,None,,,,,,,,,,,,,021,2022-05-18_10h46.38.281,Main,2022.1.1,60.01111405562336,
positive,negative,2,l,j,,,,,,,,,11,10,208,14,,,,,,,,,main,2,2,2,negative,positive,j,j,1,0.7313100999745075,571.9596886000072,572.9723664000048,572.9558086000034,None,571.9596886000072,None,571.9596886000072,None,571.9596886000072,None,573.686938519997,None,573.686938519997,None,573.686938519997,None,,,,,,,,,,,,,021,2022-05-18_10h46.38.281,Main,2022.1.1,60.01111405562336,
negative,negative,2,j,l,,,,,,,,,11,11,209,9,,,,,,,,,main,1,1,2,negative,negative,l,j,0,0.6148463999852538,573.6938069000025,574.7056938000023,574.6891123999958,None,573.6938069000025,None,573.6938069000025,None,573.6938069000025,None,575.3056105999858,None,575.3056105999858,None,575.3056105999858,None,,,,,,,,,,,,,021,2022-05-18_10h46.38.281,Main,2022.1.1,60.01111405562336,
negative,neutral,2,j,l,,,,,,,,,11,12,210,12,,,,,,,,,main,2,2,2,neutral,negative,l,l,1,0.8848130999831483,576.3037941000075,577.305600599997,577.2890488999838,None,576.3037941000075,None,576.3037941000075,None,576.3037941000075,None,578.1868709200062,None,578.1868709200062,None,578.1868709200062,None,,,,,,,,,,,,,021,2022-05-18_10h46.38.281,Main,2022.1.1,60.01111405562336,
positive,neutral,2,l,j,,,,,,,,,11,13,211,17,,,,,,,,,main,1,1,2,neutral,positive,j,j,1,0.7974826999998186,578.1927618999907,579.1864198999829,579.1751749000105,None,578.1927618999907,None,578.1927618999907,None,578.1927618999907,None,579.9863506199908,None,579.9863506199908,None,579.9863506199908,None,,,,,,,,,,,,,021,2022-05-18_10h46.38.281,Main,2022.1.1,60.01111405562336,
neutral,positive,1,k,k,,,,,,,,,11,14,212,4,,,,,,,,,main,1,1,1,positive,neutral,k,k,1,0.6985839999979362,579.9867390999862,580.9864028999873,580.9864028999873,None,579.9867390999862,None,579.9867390999862,None,579.9867390999862,None,581.6863701200054,None,581.6863701200054,None,581.6863701200054,None,,,,,,,,,,,,,021,2022-05-18_10h46.38.281,Main,2022.1.1,60.01111405562336,
neutral,positive,2,k,k,,,,,,,,,11,15,213,13,,,,,,,,,main,1,1,2,positive,neutral,k,k,1,1.432128599990392,581.6895585999882,582.6889579999843,582.6722863999894,None,581.6895585999882,None,581.6895585999882,None,581.6895585999882,None,584.1199701199948,None,584.1199701199948,None,584.1199701199948,None,,,,,,,,,,,,,021,2022-05-18_10h46.38.281,Main,2022.1.1,60.01111405562336,
positive,neutral,1,l,j,,,,,,,,,11,16,214,8,,,,,,,,,main,2,2,1,neutral,positive,j,j,1,1.3484328000049572,584.123231000005,585.1222777999938,585.1222777999938,None,584.123231000005,None,584.123231000005,None,584.123231000005,None,586.4699856200023,None,586.4699856200023,None,586.4699856200023,None,,,,,,,,,,,,,021,2022-05-18_10h46.38.281,Main,2022.1.1,60.01111405562336,
negative,neutral,1,j,l,,,,,,,,,11,17,215,3,,,,,,,,,main,1,1,1,neutral,negative,l,l,1,0.9811329999938607,586.4761373999936,587.4887677000079,587.4699166000064,None,586.4761373999936,None,586.4761373999936,None,586.4761373999936,None,588.45337552001,None,588.45337552001,None,588.45337552001,None,,,,,,,,,,,,,021,2022-05-18_10h46.38.281,Main,2022.1.1,60.01111405562336,
positive,neutral,2,l,j,,,,,,,,,12,0,216,17,,,,,,,,,main,2,2,2,neutral,positive,j,j,1,0.8468951999966521,588.4598832000047,589.4701114000054,589.4534417999967,None,588.4598832000047,None,588.4598832000047,None,588.4598832000047,None,590.3027996199962,None,590.3027996199962,None,590.3027996199962,None,,,,,,,,,,,,,021,2022-05-18_10h46.38.281,Main,2022.1.1,60.01111405562336,
negative,negative,1,j,l,,,,,,,,,12,1,217,0,,,,,,,,,main,2,2,1,negative,negative,l,l,1,0.948662200011313,590.3028331999958,591.302768900001,591.302768900001,None,590.3028331999958,None,590.3028331999958,None,590.3028331999958,None,592.2528898199962,None,592.2528898199962,None,592.2528898199962,None,,,,,,,,,,,,,021,2022-05-18_10h46.38.281,Main,2022.1.1,60.01111405562336,
neutral,neutral,2,k,k,,,,,,,,,12,2,218,10,,,,,,,,,main,1,1,2,neutral,neutral,k,k,1,0.8482758000027388,592.2563833000022,593.2554005999991,593.2554005999991,None,592.2563833000022,None,592.2563833000022,None,592.2563833000022,None,594.1030863199849,None,594.1030863199849,None,594.1030863199849,None,,,,,,,,,,,,,021,2022-05-18_10h46.38.281,Main,2022.1.1,60.01111405562336,
positive,positive,2,l,j,,,,,,,,,12,3,219,11,,,,,,,,,main,1,1,2,positive,positive,j,j,1,0.7840190999850165,594.1066210999852,595.1197347999841,595.1042083000066,None,594.1066210999852,None,594.1066210999852,None,594.1066210999852,None,595.8886878199992,None,595.8886878199992,None,595.8886878199992,None,,,,,,,,,,,,,021,2022-05-18_10h46.38.281,Main,2022.1.1,60.01111405562336,
negative,neutral,2,j,l,,,,,,,,,12,4,220,12,,,,,,,,,main,2,2,2,neutral,negative,l,l,1,1.5630012000037823,595.8931779999984,596.9055418999924,596.8863984000054,None,595.8931779999984,None,595.8931779999984,None,595.8931779999984,None,598.4530240999884,None,598.4530240999884,None,598.4530240999884,None,,,,,,,,,,,,,021,2022-05-18_10h46.38.281,Main,2022.1.1,60.01111405562336,
negative,negative,2,j,l,,,,,,,,,12,5,221,9,,,,,,,,,main,2,2,2,negative,negative,l,l,1,0.8346580000070389,599.4581688999897,600.4692653999955,600.4525892999955,None,599.4581688999897,None,599.4581688999897,None,599.4581688999897,None,601.2858841200068,None,601.2858841200068,None,601.2858841200068,None,,,,,,,,,,,,,021,2022-05-18_10h46.38.281,Main,2022.1.1,60.01111405562336,
neutral,positive,2,k,k,,,,,,,,,12,6,222,13,,,,,,,,,main,2,2,2,positive,neutral,k,k,1,0.6639845999889076,601.2880011000088,602.3025662,602.285899599985,None,601.2880011000088,None,601.2880011000088,None,601.2880011000088,None,602.952669219987,None,602.952669219987,None,602.952669219987,None,,,,,,,,,,,,,021,2022-05-18_10h46.38.281,Main,2022.1.1,60.01111405562336,
positive,negative,1,l,j,,,,,,,,,12,7,223,5,,,,,,,,,main,1,1,1,negative,positive,j,j,1,0.8148917999933474,602.9532678000105,603.9525801999844,603.9525801999844,None,602.9532678000105,None,602.9532678000105,None,602.9532678000105,None,604.7693663199898,None,604.7693663199898,None,604.7693663199898,None,,,,,,,,,,,,,021,2022-05-18_10h46.38.281,Main,2022.1.1,60.01111405562336,
positive,positive,1,l,j,,,,,,,,,12,8,224,2,,,,,,,,,main,2,2,1,positive,positive,j,j,1,0.601451199996518,604.7756126000022,605.7884323000035,605.7718880999892,None,604.7756126000022,None,604.7756126000022,None,604.7756126000022,None,606.372396419989,None,606.372396419989,None,606.372396419989,None,,,,,,,,,,,,,021,2022-05-18_10h46.38.281,Main,2022.1.1,60.01111405562336,
