target,distractor,set,ans1,ans2,rep_loop2.thisRepN,rep_loop2.thisTrialN,rep_loop2.thisN,rep_loop2.thisIndex,flanker_prac_loop.thisRepN,flanker_prac_loop.thisTrialN,flanker_prac_loop.thisN,flanker_prac_loop.thisIndex,flanker_main_loop.thisRepN,flanker_main_loop.thisTrialN,flanker_main_loop.thisN,flanker_main_loop.thisIndex,fl_inst_resp.keys,fl_inst_resp.rt,sound_1.started,sound_1.stopped,image_4.started,image_4.stopped,back_2.started,back_2.stopped,main_prac,fl_cold,fl_colt,fl_set,fl_dcond,fl_tcond,fl_ans,fl_res,fl_corr,fl_rt,fix_fl.started,fix_fl.stopped,targ.started,targ.stopped,j_button.started,j_button.stopped,k_button.started,k_button.stopped,l_button.started,l_button.stopped,j_button2.started,j_button2.stopped,k_button2.started,k_button2.stopped,l_button2.started,l_button2.stopped,mainback.started,mainback.stopped,key_resp.keys,mouse_6.x,mouse_6.y,mouse_6.leftButton,mouse_6.midButton,mouse_6.rightButton,mouse_6.started,mouse_6.stopped,text_2.started,text_2.stopped,id*,date,expName,psychopyVersion,frameRate,
,,,,,0,0,0,0,,,,,,,,,space,53.02617359999567,16.57499659002351,None,69.62141910000355,None,,,,,,,,,,,,,,,,,,,,,,,,,,,,,,,,,,,,,,,,,022,2022-05-18_13h31.13.219,Main,2022.1.1,60.150882474084156,
negative,negative,2,j,l,,,,,0,0,0,9,,,,,,,,,,,73.24039380002068,None,prac,2,2,2,negative,negative,j,j,1,6.346036000002641,75.24648400000297,76.25694870000007,76.24032550002448,None,75.24648400000297,None,75.24648400000297,None,75.24648400000297,None,82.59148830000777,None,82.59148830000777,None,82.59148830000777,None,,,,,,,,,,,,,022,2022-05-18_13h31.13.219,Main,2022.1.1,60.150882474084156,
positive,neutral,1,l,j,,,,,0,1,1,8,,,,,,,,,,,,,prac,1,1,1,neutral,positive,l,l,1,1.3034125000122003,83.60551210000995,84.60677050001686,84.59011650001048,None,83.60551210000995,None,83.60551210000995,None,83.60551210000995,None,85.90674619000347,None,85.90674619000347,None,85.90674619000347,None,,,,,,,,,,,,,022,2022-05-18_13h31.13.219,Main,2022.1.1,60.150882474084156,
neutral,negative,2,k,k,,,,,0,2,2,16,,,,,,,,,,,,,prac,1,1,2,negative,neutral,k,k,1,0.9458992999861948,85.90999590000138,86.92333870002767,86.90674560001935,None,85.90999590000138,None,85.90999590000138,None,85.90999590000138,None,87.85447519001028,None,87.85447519001028,None,87.85447519001028,None,,,,,,,,,,,,,022,2022-05-18_13h31.13.219,Main,2022.1.1,60.150882474084156,
negative,neutral,1,j,l,,,,,0,3,3,3,,,,,,,,,,,,,prac,1,1,1,neutral,negative,j,l,0,1.948563500016462,87.85742150002625,88.85668850000366,88.84002300002612,None,87.85742150002625,None,87.85742150002625,None,87.85742150002625,None,90.80409350001719,None,90.80409350001719,None,90.80409350001719,None,,,,,,,,,,,,,022,2022-05-18_13h31.13.219,Main,2022.1.1,60.150882474084156,
positive,negative,1,l,j,,,,,0,4,4,5,,,,,,,,,,,,,prac,2,2,1,negative,positive,l,l,1,1.1391046000062488,91.80593240002054,92.82071920001181,92.80405380000593,None,91.80593240002054,None,91.80593240002054,None,91.80593240002054,None,93.93998759000388,None,93.93998759000388,None,93.93998759000388,None,,,,,,,,,,,,,022,2022-05-18_13h31.13.219,Main,2022.1.1,60.150882474084156,
negative,positive,1,j,l,,,,,0,5,5,6,,,,,,,,,,,,,prac,1,1,1,positive,negative,j,j,1,1.1126268999942113,93.94326930001262,94.95651800002088,94.93989650000003,None,93.94326930001262,None,93.94326930001262,None,93.94326930001262,None,96.05429019001022,None,96.05429019001022,None,96.05429019001022,None,,,,,,,,,,,,,022,2022-05-18_13h31.13.219,Main,2022.1.1,60.150882474084156,
positive,neutral,2,l,j,,,,,0,6,6,17,,,,,,,,,,,,,prac,1,1,2,neutral,positive,l,l,1,0.9175662000197917,96.05729970001266,97.05651940000826,97.05651940000826,None,96.05729970001266,None,96.05729970001266,None,96.05729970001266,None,97.97312979000563,None,97.97312979000563,None,97.97312979000563,None,,,,,,,,,,,,,022,2022-05-18_13h31.13.219,Main,2022.1.1,60.150882474084156,
neutral,positive,2,k,k,,,,,0,7,7,13,,,,,,,,,,,,,prac,2,2,2,positive,neutral,k,k,1,0.74863170000026,97.97609280000324,98.98983390000649,98.97114980002516,None,97.97609280000324,None,97.97609280000324,None,97.97609280000324,None,99.72306579001307,None,99.72306579001307,None,99.72306579001307,None,,,,,,,,,,,,,022,2022-05-18_13h31.13.219,Main,2022.1.1,60.150882474084156,
neutral,positive,1,k,k,,,,,0,8,8,4,,,,,,,,,,,,,prac,1,1,1,positive,neutral,k,k,1,0.77948369999649,99.72564730001613,100.73717040001065,100.72070850001182,None,99.72564730001613,None,99.72564730001613,None,99.72564730001613,None,101.5038085900218,None,101.5038085900218,None,101.5038085900218,None,,,,,,,,,,,,,022,2022-05-18_13h31.13.219,Main,2022.1.1,60.150882474084156,
neutral,negative,1,k,k,,,,,0,9,9,7,,,,,,,,,,,,,prac,1,1,1,negative,neutral,k,k,1,0.6815573999774642,101.50890680000884,102.52052410002216,102.50426590000279,None,101.50890680000884,None,101.50890680000884,None,101.50890680000884,None,103.18715599000862,None,103.18715599000862,None,103.18715599000862,None,,,,,,,,,,,,,022,2022-05-18_13h31.13.219,Main,2022.1.1,60.150882474084156,
negative,neutral,2,j,l,,,,,0,10,10,12,,,,,,,,,,,,,prac,1,1,2,neutral,negative,j,j,1,0.9154578000016045,103.19034530001227,104.18966600002022,104.17308930002037,None,103.19034530001227,None,103.19034530001227,None,103.19034530001227,None,105.10411068999966,None,105.10411068999966,None,105.10411068999966,None,,,,,,,,,,,,,022,2022-05-18_13h31.13.219,Main,2022.1.1,60.150882474084156,
neutral,neutral,2,k,k,,,,,0,11,11,10,,,,,,,,,,,,,prac,2,2,2,neutral,neutral,k,k,1,0.732331700011855,105.10717450000811,106.10627170000225,106.08968610002194,None,105.10717450000811,None,105.10717450000811,None,105.10717450000811,None,106.83718589002675,None,106.83718589002675,None,106.83718589002675,None,,,,,,,,,,,,,022,2022-05-18_13h31.13.219,Main,2022.1.1,60.150882474084156,
positive,negative,2,l,j,,,,,0,12,12,14,,,,,,,,,,,,,prac,1,1,2,negative,positive,l,l,1,0.6673136999888811,106.8433953000058,107.85621450000326,107.8396492000029,None,106.8433953000058,None,106.8433953000058,None,106.8433953000058,None,108.50620809001558,None,108.50620809001558,None,108.50620809001558,None,,,,,,,,,,,,,022,2022-05-18_13h31.13.219,Main,2022.1.1,60.150882474084156,
negative,negative,1,j,l,,,,,0,13,13,0,,,,,,,,,,,,,prac,1,1,1,negative,negative,j,j,1,0.979580299986992,108.50994420002098,109.52284540000255,109.50628960001632,None,108.50994420002098,None,108.50994420002098,None,108.50994420002098,None,110.48698479000305,None,110.48698479000305,None,110.48698479000305,None,,,,,,,,,,,,,022,2022-05-18_13h31.13.219,Main,2022.1.1,60.150882474084156,
negative,positive,2,j,l,,,,,0,14,14,15,,,,,,,,,,,,,prac,1,1,2,positive,negative,j,j,1,0.8153115999884903,110.48733610002091,111.48692330002086,111.48692330002086,None,110.48733610002091,None,110.48733610002091,None,110.48733610002091,None,112.30363829002309,None,112.30363829002309,None,112.30363829002309,None,,,,,,,,,,,,,022,2022-05-18_13h31.13.219,Main,2022.1.1,60.150882474084156,
neutral,neutral,1,k,k,,,,,0,15,15,1,,,,,,,,,,,,,prac,1,1,1,neutral,neutral,k,k,1,0.6677807999949437,112.30642570002237,113.30611920001684,113.28955060002045,None,112.30642570002237,None,112.30642570002237,None,112.30642570002237,None,113.97275949000905,None,113.97275949000905,None,113.97275949000905,None,,,,,,,,,,,,,022,2022-05-18_13h31.13.219,Main,2022.1.1,60.150882474084156,
positive,positive,1,l,j,,,,,0,16,16,2,,,,,,,,,,,,,prac,1,1,1,positive,positive,l,l,1,0.6814384000026621,113.97621310001705,114.98985060001723,114.9708131000225,None,113.97621310001705,None,113.97621310001705,None,113.97621310001705,None,115.65608159000695,None,115.65608159000695,None,115.65608159000695,None,,,,,,,,,,,,,022,2022-05-18_13h31.13.219,Main,2022.1.1,60.150882474084156,
positive,positive,2,l,j,,,,,0,17,17,11,,,,,,,,,,,,,prac,2,2,2,positive,positive,l,l,1,0.7648358000151347,115.6593850000063,116.6727050000045,116.65617130001192,None,115.6593850000063,None,115.6593850000063,None,115.6593850000063,None,117.42266249000969,None,117.42266249000969,None,117.42266249000969,None,,,,,,,,,,,,,022,2022-05-18_13h31.13.219,Main,2022.1.1,60.150882474084156,
negative,neutral,1,j,l,,,,,1,0,18,3,,,,,,,,,,,,,prac,1,1,1,neutral,negative,j,j,1,0.8310734999831766,117.4260832,118.43937050001114,118.42277260002447,None,117.4260832,None,117.4260832,None,117.4260832,None,119.2559738900076,None,119.2559738900076,None,119.2559738900076,None,,,,,,,,,,,,,022,2022-05-18_13h31.13.219,Main,2022.1.1,60.150882474084156,
positive,negative,2,l,j,,,,,1,1,19,14,,,,,,,,,,,,,prac,2,2,2,negative,positive,l,l,1,0.7629229000012856,119.25841900001979,120.2726582000032,120.25607870001113,None,119.25841900001979,None,119.25841900001979,None,119.25841900001979,None,121.02006469002518,None,121.02006469002518,None,121.02006469002518,None,,,,,,,,,,,,,022,2022-05-18_13h31.13.219,Main,2022.1.1,60.150882474084156,
neutral,neutral,1,k,k,,,,,1,2,20,1,,,,,,,,,,,,,prac,1,1,1,neutral,neutral,k,k,1,0.7657189999881666,121.02006960002473,122.02029330001096,122.02029330001096,None,121.02006960002473,None,121.02006960002473,None,121.02006960002473,None,122.78707779000106,None,122.78707779000106,None,122.78707779000106,None,,,,,,,,,,,,,022,2022-05-18_13h31.13.219,Main,2022.1.1,60.150882474084156,
negative,positive,1,j,l,,,,,1,3,21,6,,,,,,,,,,,,,prac,2,2,1,positive,negative,j,j,1,0.8493566999968607,122.79071280002245,123.80601280002156,123.78934310001205,None,122.79071280002245,None,122.79071280002245,None,122.79071280002245,None,124.63752989001514,None,124.63752989001514,None,124.63752989001514,None,,,,,,,,,,,,,022,2022-05-18_13h31.13.219,Main,2022.1.1,60.150882474084156,
neutral,neutral,2,k,k,,,,,1,4,22,10,,,,,,,,,,,,,prac,2,2,2,neutral,neutral,k,k,1,0.7180564999871422,124.64365530002397,125.65584350001882,125.63928120001219,None,124.64365530002397,None,124.64365530002397,None,124.64365530002397,None,126.35592499001942,None,126.35592499001942,None,126.35592499001942,None,,,,,,,,,,,,,022,2022-05-18_13h31.13.219,Main,2022.1.1,60.150882474084156,
negative,negative,2,j,l,,,,,1,5,23,9,,,,,,,,,,,,,prac,2,2,2,negative,negative,j,j,1,0.7615729999961331,126.35958540000138,127.37247970001772,127.355944800016,None,126.35958540000138,None,126.35958540000138,None,126.35958540000138,None,128.11998159000942,None,128.11998159000942,None,128.11998159000942,None,,,,,,,,,,,,,022,2022-05-18_13h31.13.219,Main,2022.1.1,60.150882474084156,
neutral,negative,1,k,k,,,,,1,6,24,7,,,,,,,,,,,,,prac,1,1,1,negative,neutral,k,k,1,0.7026682000141591,128.1229483000061,129.12252380000427,129.10590770002455,None,128.1229483000061,None,128.1229483000061,None,128.1229483000061,None,129.82250339001476,None,129.82250339001476,None,129.82250339001476,None,,,,,,,,,,,,,022,2022-05-18_13h31.13.219,Main,2022.1.1,60.150882474084156,
neutral,positive,2,k,k,,,,,1,7,25,13,,,,,,,,,,,,,prac,2,2,2,positive,neutral,k,k,1,0.5781755000061821,129.82668680002098,130.8366451000038,130.8201366000285,None,129.82668680002098,None,129.82668680002098,None,129.82668680002098,None,131.4031772900111,None,131.4031772900111,None,131.4031772900111,None,,,,,,,,,,,,,022,2022-05-18_13h31.13.219,Main,2022.1.1,60.150882474084156,
positive,positive,2,l,j,,,,,1,8,26,11,,,,,,,,,,,,,prac,2,2,2,positive,positive,l,l,1,0.6987426999839954,131.40343930001836,132.40319170002476,132.40319170002476,None,131.40343930001836,None,131.40343930001836,None,131.40343930001836,None,133.10316759000708,None,133.10316759000708,None,133.10316759000708,None,,,,,,,,,,,,,022,2022-05-18_13h31.13.219,Main,2022.1.1,60.150882474084156,
neutral,positive,1,k,k,,,,,1,9,27,4,,,,,,,,,,,,,prac,1,1,1,positive,neutral,k,k,1,0.7177833000023384,133.10863860000973,134.1221861000231,134.10557970000082,None,133.10863860000973,None,133.10863860000973,None,133.10863860000973,None,134.82220509001345,None,134.82220509001345,None,134.82220509001345,None,,,,,,,,,,,,,022,2022-05-18_13h31.13.219,Main,2022.1.1,60.150882474084156,
positive,negative,1,l,j,,,,,1,10,28,5,,,,,,,,,,,,,prac,1,1,1,negative,positive,l,l,1,0.781905400013784,134.8249921000097,135.83890750000137,135.82231700001284,None,134.8249921000097,None,134.8249921000097,None,134.8249921000097,None,136.60554299002106,None,136.60554299002106,None,136.60554299002106,None,,,,,,,,,,,,,022,2022-05-18_13h31.13.219,Main,2022.1.1,60.150882474084156,
positive,positive,1,l,j,,,,,1,11,29,2,,,,,,,,,,,,,prac,1,1,1,positive,positive,l,l,1,0.6634378999879118,136.60795570001937,137.62224980001338,137.6057942000043,None,136.60795570001937,None,136.60795570001937,None,136.60795570001937,None,138.27005409000267,None,138.27005409000267,None,138.27005409000267,None,,,,,,,,,,,,,022,2022-05-18_13h31.13.219,Main,2022.1.1,60.150882474084156,
negative,negative,1,j,l,,,,,1,12,30,0,,,,,,,,,,,,,prac,2,2,1,negative,negative,j,j,1,0.8479789000120945,138.27339310001116,139.2727167000121,139.2727167000121,None,138.27339310001116,None,138.27339310001116,None,138.27339310001116,None,140.11965929,None,140.11965929,None,140.11965929,None,,,,,,,,,,,,,022,2022-05-18_13h31.13.219,Main,2022.1.1,60.150882474084156,
positive,neutral,1,l,j,,,,,1,13,31,8,,,,,,,,,,,,,prac,1,1,1,neutral,positive,l,l,1,0.8166553000046406,140.11964970000554,141.1196252000227,141.1196252000227,None,140.11964970000554,None,140.11964970000554,None,140.11964970000554,None,141.93634839000006,None,141.93634839000006,None,141.93634839000006,None,,,,,,,,,,,,,022,2022-05-18_13h31.13.219,Main,2022.1.1,60.150882474084156,
negative,neutral,2,j,l,,,,,1,14,32,12,,,,,,,,,,,,,prac,1,1,2,neutral,negative,j,j,1,1.3500951000023633,141.94017330001225,142.9554406000243,142.9389103000285,None,141.94017330001225,None,141.94017330001225,None,141.94017330001225,None,144.28877529000457,None,144.28877529000457,None,144.28877529000457,None,,,,,,,,,,,,,022,2022-05-18_13h31.13.219,Main,2022.1.1,60.150882474084156,
negative,positive,2,j,l,,,,,1,15,33,15,,,,,,,,,,,,,prac,1,1,2,positive,negative,j,j,1,0.629835900006583,144.29126520000864,145.30540710000787,145.28945770001155,None,144.29126520000864,None,144.29126520000864,None,144.29126520000864,None,145.9195975900133,None,145.9195975900133,None,145.9195975900133,None,,,,,,,,,,,,,022,2022-05-18_13h31.13.219,Main,2022.1.1,60.150882474084156,
neutral,negative,2,k,k,,,,,1,16,34,16,,,,,,,,,,,,,prac,1,1,2,negative,neutral,k,k,1,0.584466699976474,145.92492340001627,146.93868950000615,146.9054399000015,None,145.92492340001627,None,145.92492340001627,None,145.92492340001627,None,147.50533939000744,None,147.50533939000744,None,147.50533939000744,None,,,,,,,,,,,,,022,2022-05-18_13h31.13.219,Main,2022.1.1,60.150882474084156,
positive,neutral,2,l,j,,,,,1,17,35,17,,,,,,,,,,,,,prac,1,1,2,neutral,positive,l,l,1,0.815418000012869,147.50800090000848,148.52212750000763,148.50535910000326,None,147.50800090000848,None,147.50800090000848,None,147.50800090000848,None,149.32205899000692,None,149.32205899000692,None,149.32205899000692,None,,,,,,,,,,,,,022,2022-05-18_13h31.13.219,Main,2022.1.1,60.150882474084156,
,,,,,,,,,,,,,,,,,,,,,,,,,,,,,,,,,,,,,,,,,,,,,,,,,,,149.32198970002355,None,None,,,,,,,,,,022,2022-05-18_13h31.13.219,Main,2022.1.1,60.150882474084156,
,,,,,,,,,,,,,,,,,,,,,,,,,,,,,,,,,,,,,,,,,,,,,,,,,,,,,,0.14166667,-0.16203703,1,0,0,0.011283890024060383,None,,,022,2022-05-18_13h31.13.219,Main,2022.1.1,60.150882474084156,
positive,positive,2,l,j,,,,,,,,,0,0,0,11,,,,,,,155.10548020002898,None,main,2,2,2,positive,positive,l,l,1,0.7939898000040557,157.11313670000527,158.12180230001104,158.10519820000627,None,157.11313670000527,None,157.11313670000527,None,157.11313670000527,None,158.9051192900137,None,158.9051192900137,None,158.9051192900137,None,,,,,,,,,,,,,022,2022-05-18_13h31.13.219,Main,2022.1.1,60.150882474084156,
neutral,positive,1,k,k,,,,,,,,,0,1,1,4,,,,,,,,,main,2,2,1,positive,neutral,k,k,1,0.7614506999962032,158.90940920001594,159.9198518000194,159.90342280000914,None,158.90940920001594,None,158.90940920001594,None,158.90940920001594,None,160.6692645900097,None,160.6692645900097,None,160.6692645900097,None,,,,,,,,,,,,,022,2022-05-18_13h31.13.219,Main,2022.1.1,60.150882474084156,
negative,neutral,1,j,l,,,,,,,,,0,2,2,3,,,,,,,,,main,2,2,1,neutral,negative,j,j,1,0.6983976000046823,160.66952070000116,161.6709904000163,161.6709904000163,None,160.66952070000116,None,160.66952070000116,None,160.66952070000116,None,162.36926839002118,None,162.36926839002118,None,162.36926839002118,None,,,,,,,,,,,,,022,2022-05-18_13h31.13.219,Main,2022.1.1,60.150882474084156,
neutral,negative,1,k,k,,,,,,,,,0,3,3,7,,,,,,,,,main,1,1,1,negative,neutral,k,k,1,0.6021902000065893,162.3693986000144,163.3694946000178,163.3694946000178,None,162.3693986000144,None,162.3693986000144,None,162.3693986000144,None,163.97175569001993,None,163.97175569001993,None,163.97175569001993,None,,,,,,,,,,,,,022,2022-05-18_13h31.13.219,Main,2022.1.1,60.150882474084156,
negative,negative,1,j,l,,,,,,,,,0,4,4,0,,,,,,,,,main,2,2,1,negative,negative,j,j,1,0.7139310000056867,163.9761304000276,164.98850670002867,164.9720480000251,None,163.9761304000276,None,163.9761304000276,None,163.9761304000276,None,165.68828529002204,None,165.68828529002204,None,165.68828529002204,None,,,,,,,,,,,,,022,2022-05-18_13h31.13.219,Main,2022.1.1,60.150882474084156,
neutral,neutral,2,k,k,,,,,,,,,0,5,5,10,,,,,,,,,main,1,1,2,neutral,neutral,k,k,1,0.5810200000123587,165.69193710002583,166.7049604000058,166.68835750001017,None,165.69193710002583,None,165.69193710002583,None,165.69193710002583,None,167.2716076900164,None,167.2716076900164,None,167.2716076900164,None,,,,,,,,,,,,,022,2022-05-18_13h31.13.219,Main,2022.1.1,60.150882474084156,
negative,neutral,2,j,l,,,,,,,,,0,6,6,12,,,,,,,,,main,2,2,2,neutral,negative,j,j,1,0.6986510000133421,167.27447120001307,168.28823480001302,168.27161950001027,None,167.27447120001307,None,167.27447120001307,None,167.27447120001307,None,168.97158649001213,None,168.97158649001213,None,168.97158649001213,None,,,,,,,,,,,,,022,2022-05-18_13h31.13.219,Main,2022.1.1,60.150882474084156,
positive,negative,1,l,j,,,,,,,,,0,7,7,5,,,,,,,,,main,1,1,1,negative,positive,l,l,1,0.6454728000098839,168.97465400001965,169.98822140000993,169.9716133000038,None,168.97465400001965,None,168.97465400001965,None,168.97465400001965,None,170.61874709000986,None,170.61874709000986,None,170.61874709000986,None,,,,,,,,,,,,,022,2022-05-18_13h31.13.219,Main,2022.1.1,60.150882474084156,
positive,neutral,2,l,j,,,,,,,,,0,8,8,17,,,,,,,,,main,2,2,2,neutral,positive,l,l,1,0.5655756999913137,170.6302462000167,171.63668420002796,171.61901480000233,None,170.6302462000167,None,170.6302462000167,None,170.6302462000167,None,172.18567189000024,None,172.18567189000024,None,172.18567189000024,None,,,,,,,,,,,,,022,2022-05-18_13h31.13.219,Main,2022.1.1,60.150882474084156,
negative,negative,2,j,l,,,,,,,,,0,9,9,9,,,,,,,,,main,1,1,2,negative,negative,j,j,1,0.684345099987695,172.18565340002533,173.18811560000177,173.17151660000673,None,172.18565340002533,None,172.18565340002533,None,172.18565340002533,None,173.87151779000706,None,173.87151779000706,None,173.87151779000706,None,,,,,,,,,,,,,022,2022-05-18_13h31.13.219,Main,2022.1.1,60.150882474084156,
negative,positive,2,j,l,,,,,,,,,0,10,10,15,,,,,,,,,main,2,2,2,positive,negative,j,j,1,0.6650138999975752,173.87443840000196,174.88812840002356,174.8715284000209,None,173.87443840000196,None,173.87443840000196,None,173.87443840000196,None,175.53811279002403,None,175.53811279002403,None,175.53811279002403,None,,,,,,,,,,,,,022,2022-05-18_13h31.13.219,Main,2022.1.1,60.150882474084156,
positive,positive,1,l,j,,,,,,,,,0,11,11,2,,,,,,,,,main,2,2,1,positive,positive,l,l,1,0.6962789999961387,175.54233710002154,176.55474070002674,176.53814940000302,None,175.54233710002154,None,175.54233710002154,None,175.54233710002154,None,177.2359370899998,None,177.2359370899998,None,177.2359370899998,None,,,,,,,,,,,,,022,2022-05-18_13h31.13.219,Main,2022.1.1,60.150882474084156,
neutral,positive,2,k,k,,,,,,,,,0,12,12,13,,,,,,,,,main,1,1,2,positive,neutral,k,k,1,0.633719099976588,177.24034450002364,178.25468110002112,178.2380859000259,None,177.24034450002364,None,177.24034450002364,None,177.24034450002364,None,178.87137469002337,None,178.87137469002337,None,178.87137469002337,None,,,,,,,,,,,,,022,2022-05-18_13h31.13.219,Main,2022.1.1,60.150882474084156,
positive,neutral,1,l,j,,,,,,,,,0,13,13,8,,,,,,,,,main,1,1,1,neutral,positive,l,l,1,0.8290477999835275,178.87413470001775,179.88799850002397,179.87141660001362,None,178.87413470001775,None,178.87413470001775,None,178.87413470001775,None,180.70215689000034,None,180.70215689000034,None,180.70215689000034,None,,,,,,,,,,,,,022,2022-05-18_13h31.13.219,Main,2022.1.1,60.150882474084156,
neutral,neutral,1,k,k,,,,,,,,,0,14,14,1,,,,,,,,,main,2,2,1,neutral,neutral,k,k,1,0.6655094000161625,180.70215420000022,181.70295700000133,181.70295700000133,None,180.70215420000022,None,180.70215420000022,None,180.70215420000022,None,182.36902609000973,None,182.36902609000973,None,182.36902609000973,None,,,,,,,,,,,,,022,2022-05-18_13h31.13.219,Main,2022.1.1,60.150882474084156,
positive,negative,2,l,j,,,,,,,,,0,15,15,14,,,,,,,,,main,1,1,2,negative,positive,l,l,1,0.7981326000008266,182.36881010001525,183.3701230000006,183.3701230000006,None,182.36881010001525,None,182.36881010001525,None,182.36881010001525,None,184.16880009002344,None,184.16880009002344,None,184.16880009002344,None,,,,,,,,,,,,,022,2022-05-18_13h31.13.219,Main,2022.1.1,60.150882474084156,
neutral,negative,2,k,k,,,,,,,,,0,16,16,16,,,,,,,,,main,2,2,2,negative,neutral,k,k,1,0.6011070999957155,184.1725283000269,185.18798440002138,185.15463410000666,None,184.1725283000269,None,184.1725283000269,None,184.1725283000269,None,185.77125029000163,None,185.77125029000163,None,185.77125029000163,None,,,,,,,,,,,,,022,2022-05-18_13h31.13.219,Main,2022.1.1,60.150882474084156,
negative,positive,1,j,l,,,,,,,,,0,17,17,6,,,,,,,,,main,2,2,1,positive,negative,j,j,1,0.5983171999978367,185.77433030001703,186.7885448000161,186.7712906000088,None,185.77433030001703,None,185.77433030001703,None,185.77433030001703,None,187.37122079001566,None,187.37122079001566,None,187.37122079001566,None,,,,,,,,,,,,,022,2022-05-18_13h31.13.219,Main,2022.1.1,60.150882474084156,
negative,negative,1,j,l,,,,,,,,,1,0,18,0,,,,,,,,,main,1,1,1,negative,negative,j,j,1,0.6152975999866612,187.37473600002704,188.38784310000483,188.3713279000076,None,187.37473600002704,None,187.37473600002704,None,187.37473600002704,None,188.98783159001906,None,188.98783159001906,None,188.98783159001906,None,,,,,,,,,,,,,022,2022-05-18_13h31.13.219,Main,2022.1.1,60.150882474084156,
neutral,negative,2,k,k,,,,,,,,,1,1,19,16,,,,,,,,,main,2,2,2,negative,neutral,k,k,1,0.6501941999886185,188.99110440001823,190.00452270000824,189.98793900001328,None,188.99110440001823,None,188.99110440001823,None,188.99110440001823,None,190.63959429001844,None,190.63959429001844,None,190.63959429001844,None,,,,,,,,,,,,,022,2022-05-18_13h31.13.219,Main,2022.1.1,60.150882474084156,
neutral,neutral,2,k,k,,,,,,,,,1,2,20,10,,,,,,,,,main,1,1,2,neutral,neutral,k,k,1,0.5965883000171743,190.65220180002507,191.6543476000079,191.6377397000033,None,190.65220180002507,None,190.65220180002507,None,190.65220180002507,None,192.2376138900203,None,192.2376138900203,None,192.2376138900203,None,,,,,,,,,,,,,022,2022-05-18_13h31.13.219,Main,2022.1.1,60.150882474084156,
neutral,positive,2,k,k,,,,,,,,,1,3,21,13,,,,,,,,,main,2,2,2,positive,neutral,k,k,1,0.6296228000137489,192.24035660002846,193.25215950002894,193.23548630002188,None,192.24035660002846,None,192.24035660002846,None,192.24035660002846,None,193.8688248900202,None,193.8688248900202,None,193.8688248900202,None,,,,,,,,,,,,,022,2022-05-18_13h31.13.219,Main,2022.1.1,60.150882474084156,
positive,positive,2,l,j,,,,,,,,,1,4,22,11,,,,,,,,,main,2,2,2,positive,positive,l,l,1,0.6343936999910511,193.8746608000074,194.88753410000936,194.87094640001305,None,193.8746608000074,None,193.8746608000074,None,193.8746608000074,None,195.50468869000034,None,195.50468869000034,None,195.50468869000034,None,,,,,,,,,,,,,022,2022-05-18_13h31.13.219,Main,2022.1.1,60.150882474084156,
neutral,neutral,1,k,k,,,,,,,,,1,5,23,1,,,,,,,,,main,1,1,1,neutral,neutral,k,k,1,0.614985299995169,195.5074379000289,196.52093800000148,196.50427770000533,None,195.5074379000289,None,195.5074379000289,None,195.5074379000289,None,197.12128759000043,None,197.12128759000043,None,197.12128759000043,None,,,,,,,,,,,,,022,2022-05-18_13h31.13.219,Main,2022.1.1,60.150882474084156,
negative,negative,2,j,l,,,,,,,,,1,6,24,9,,,,,,,,,main,1,1,2,negative,negative,j,j,1,1.1813506000034977,197.123776500026,198.13542970002163,198.11877770000137,None,197.123776500026,None,197.123776500026,None,197.123776500026,None,199.30416999002628,None,199.30416999002628,None,199.30416999002628,None,,,,,,,,,,,,,022,2022-05-18_13h31.13.219,Main,2022.1.1,60.150882474084156,
negative,positive,2,j,l,,,,,,,,,1,7,25,15,,,,,,,,,main,1,1,2,positive,negative,j,j,1,0.5985715999850072,199.30680480002775,200.319129600015,200.30241450000904,None,199.30680480002775,None,199.30680480002775,None,199.30680480002775,None,200.9041823900101,None,200.9041823900101,None,200.9041823900101,None,,,,,,,,,,,,,022,2022-05-18_13h31.13.219,Main,2022.1.1,60.150882474084156,
positive,negative,1,l,j,,,,,,,,,1,8,26,5,,,,,,,,,main,2,2,1,negative,positive,l,l,1,0.6637218999967445,200.90687930001877,201.92079650002415,201.90423060001922,None,200.90687930001877,None,200.90687930001877,None,200.90687930001877,None,202.56896429001645,None,202.56896429001645,None,202.56896429001645,None,,,,,,,,,,,,,022,2022-05-18_13h31.13.219,Main,2022.1.1,60.150882474084156,
positive,negative,2,l,j,,,,,,,,,1,9,27,14,,,,,,,,,main,2,2,2,negative,positive,l,l,1,0.9156025999982376,202.587826700008,203.5875750000123,203.5708579000202,None,202.587826700008,None,202.587826700008,None,202.587826700008,None,204.48657909002796,None,204.48657909002796,None,204.48657909002796,None,,,,,,,,,,,,,022,2022-05-18_13h31.13.219,Main,2022.1.1,60.150882474084156,
negative,neutral,1,j,l,,,,,,,,,1,10,28,3,,,,,,,,,main,1,1,1,neutral,negative,j,j,1,0.7968986000050791,204.49194400000852,205.5018879000272,205.48558140001842,None,204.49194400000852,None,204.49194400000852,None,204.49194400000852,None,206.28496749002662,None,206.28496749002662,None,206.28496749002662,None,,,,,,,,,,,,,022,2022-05-18_13h31.13.219,Main,2022.1.1,60.150882474084156,
negative,positive,1,j,l,,,,,,,,,1,11,29,6,,,,,,,,,main,1,1,1,positive,negative,j,j,1,0.5509202999819536,206.28496720001567,207.28814630000852,207.28814630000852,None,206.28496720001567,None,206.28496720001567,None,206.28496720001567,None,207.83743089000055,None,207.83743089000055,None,207.83743089000055,None,,,,,,,,,,,,,022,2022-05-18_13h31.13.219,Main,2022.1.1,60.150882474084156,
neutral,positive,1,k,k,,,,,,,,,1,12,30,4,,,,,,,,,main,1,1,1,positive,neutral,k,k,1,0.6154089999909047,207.84003500000108,208.8540745000064,208.83751450001728,None,207.84003500000108,None,207.84003500000108,None,207.84003500000108,None,209.45417899000168,None,209.45417899000168,None,209.45417899000168,None,,,,,,,,,,,,,022,2022-05-18_13h31.13.219,Main,2022.1.1,60.150882474084156,
negative,neutral,2,j,l,,,,,,,,,1,13,31,12,,,,,,,,,main,2,2,2,neutral,negative,j,j,1,0.6649146999989171,209.4573658000154,210.47071850000066,210.45412620002753,None,209.4573658000154,None,209.4573658000154,None,209.4573658000154,None,211.1207130900206,None,211.1207130900206,None,211.1207130900206,None,,,,,,,,,,,,,022,2022-05-18_13h31.13.219,Main,2022.1.1,60.150882474084156,
positive,neutral,2,l,j,,,,,,,,,1,14,32,17,,,,,,,,,main,2,2,2,neutral,positive,l,l,1,0.6622814000002109,211.1246215000283,212.13733550001052,212.12082060001558,None,211.1246215000283,None,211.1246215000283,None,211.1246215000283,None,212.78519869001175,None,212.78519869001175,None,212.78519869001175,None,,,,,,,,,,,,,022,2022-05-18_13h31.13.219,Main,2022.1.1,60.150882474084156,
positive,neutral,1,l,j,,,,,,,,,1,15,33,8,,,,,,,,,main,1,1,1,neutral,positive,l,l,1,0.8312371000065468,212.78833510002005,213.7873373000184,213.7873373000184,None,212.78833510002005,None,212.78833510002005,None,212.78833510002005,None,214.61814069001994,None,214.61814069001994,None,214.61814069001994,None,,,,,,,,,,,,,022,2022-05-18_13h31.13.219,Main,2022.1.1,60.150882474084156,
neutral,negative,1,k,k,,,,,,,,,1,16,34,7,,,,,,,,,main,2,2,1,negative,neutral,k,k,1,0.6821702000161167,214.61812040000223,215.61809450000874,215.61809450000874,None,214.61812040000223,None,214.61812040000223,None,214.61812040000223,None,216.3014646900032,None,216.3014646900032,None,216.3014646900032,None,,,,,,,,,,,,,022,2022-05-18_13h31.13.219,Main,2022.1.1,60.150882474084156,
positive,positive,1,l,j,,,,,,,,,1,17,35,2,,,,,,,,,main,1,1,1,positive,positive,l,l,1,0.6822308000118937,216.3063022000133,217.32123560001492,217.30396840002504,None,216.3063022000133,None,216.3063022000133,None,216.3063022000133,None,217.98721219001746,None,217.98721219001746,None,217.98721219001746,None,,,,,,,,,,,,,022,2022-05-18_13h31.13.219,Main,2022.1.1,60.150882474084156,
negative,negative,2,j,l,,,,,,,,,2,0,36,9,,,,,,,,,main,2,2,2,negative,negative,j,j,1,0.7317628999880981,217.98948540000129,219.00386180001078,218.98792790001608,None,217.98948540000129,None,217.98948540000129,None,217.98948540000129,None,219.7205976900208,None,219.7205976900208,None,219.7205976900208,None,,,,,,,,,,,,,022,2022-05-18_13h31.13.219,Main,2022.1.1,60.150882474084156,
positive,neutral,2,l,j,,,,,,,,,2,1,37,17,,,,,,,,,main,2,2,2,neutral,positive,l,l,1,0.5985900000086986,219.7243504000071,220.737279700028,220.72065000000293,None,219.7243504000071,None,219.7243504000071,None,219.7243504000071,None,221.32047069002002,None,221.32047069002002,None,221.32047069002002,None,,,,,,,,,,,,,022,2022-05-18_13h31.13.219,Main,2022.1.1,60.150882474084156,
negative,negative,1,j,l,,,,,,,,,2,2,38,0,,,,,,,,,main,1,1,1,negative,negative,j,j,1,0.7819629999867175,221.3233655000222,222.33718620002037,222.32064360001823,None,221.3233655000222,None,221.3233655000222,None,221.3233655000222,None,223.1040290900186,None,223.1040290900186,None,223.1040290900186,None,,,,,,,,,,,,,022,2022-05-18_13h31.13.219,Main,2022.1.1,60.150882474084156,
negative,neutral,2,j,l,,,,,,,,,2,3,39,12,,,,,,,,,main,2,2,2,neutral,negative,j,l,0,0.8790984000079334,223.10698710000725,224.11793890001718,224.1015529000142,None,223.10698710000725,None,223.10698710000725,None,223.10698710000725,None,224.98456630000146,None,224.98456630000146,None,224.98456630000146,None,,,,,,,,,,,,,022,2022-05-18_13h31.13.219,Main,2022.1.1,60.150882474084156,
neutral,neutral,1,k,k,,,,,,,,,2,4,40,1,,,,,,,,,main,2,2,1,neutral,neutral,k,k,1,0.7394620999984909,225.98461320000933,226.98705110000446,226.97042770002736,None,225.98461320000933,None,225.98461320000933,None,225.98461320000933,None,227.72053709002503,None,227.72053709002503,None,227.72053709002503,None,,,,,,,,,,,,,022,2022-05-18_13h31.13.219,Main,2022.1.1,60.150882474084156,
positive,positive,1,l,j,,,,,,,,,2,5,41,2,,,,,,,,,main,2,2,1,positive,positive,l,l,1,0.6644537000101991,227.72392560000299,228.73764370000572,228.72040940000443,None,227.72392560000299,None,227.72392560000299,None,227.72392560000299,None,229.38697289002303,None,229.38697289002303,None,229.38697289002303,None,,,,,,,,,,,,,022,2022-05-18_13h31.13.219,Main,2022.1.1,60.150882474084156,
neutral,negative,2,k,k,,,,,,,,,2,6,42,16,,,,,,,,,main,2,2,2,negative,neutral,k,k,1,0.6644821999943815,229.39081770001212,230.4038304000278,230.38703220000025,None,229.39081770001212,None,229.39081770001212,None,229.39081770001212,None,231.05361079001742,None,231.05361079001742,None,231.05361079001742,None,,,,,,,,,,,,,022,2022-05-18_13h31.13.219,Main,2022.1.1,60.150882474084156,
positive,neutral,1,l,j,,,,,,,,,2,7,43,8,,,,,,,,,main,2,2,1,neutral,positive,l,l,1,0.6818464000243694,231.05622300002142,232.07027720002225,232.05382740002824,None,231.05622300002142,None,231.05622300002142,None,231.05622300002142,None,232.73689289000177,None,232.73689289000177,None,232.73689289000177,None,,,,,,,,,,,,,022,2022-05-18_13h31.13.219,Main,2022.1.1,60.150882474084156,
neutral,negative,1,k,k,,,,,,,,,2,8,44,7,,,,,,,,,main,2,2,1,negative,neutral,k,k,1,0.7291871999914292,232.73993670000345,233.7510520000069,233.7344099000038,None,232.73993670000345,None,232.73993670000345,None,232.73993670000345,None,234.46771879001463,None,234.46771879001463,None,234.46771879001463,None,,,,,,,,,,,,,022,2022-05-18_13h31.13.219,Main,2022.1.1,60.150882474084156,
neutral,positive,2,k,k,,,,,,,,,2,9,45,13,,,,,,,,,main,2,2,2,positive,neutral,k,k,1,0.6655632999900263,234.46771060000174,235.4677428000141,235.4677428000141,None,234.46771060000174,None,234.46771060000174,None,234.46771060000174,None,236.13443779001537,None,236.13443779001537,None,236.13443779001537,None,,,,,,,,,,,,,022,2022-05-18_13h31.13.219,Main,2022.1.1,60.150882474084156,
positive,negative,2,l,j,,,,,,,,,2,10,46,14,,,,,,,,,main,1,1,2,negative,positive,l,l,1,0.6680152000044473,236.13837400000193,237.15389370001503,237.1372039000271,None,236.13837400000193,None,236.13837400000193,None,236.13837400000193,None,237.80352359002282,None,237.80352359002282,None,237.80352359002282,None,,,,,,,,,,,,,022,2022-05-18_13h31.13.219,Main,2022.1.1,60.150882474084156,
negative,positive,1,j,l,,,,,,,,,2,11,47,6,,,,,,,,,main,1,1,1,positive,negative,j,j,1,0.64752359999693,237.8073268000153,238.82010740000987,238.8035320000199,None,237.8073268000153,None,237.8073268000153,None,237.8073268000153,None,239.45344229000912,None,239.45344229000912,None,239.45344229000912,None,,,,,,,,,,,,,022,2022-05-18_13h31.13.219,Main,2022.1.1,60.150882474084156,
neutral,neutral,2,k,k,,,,,,,,,2,12,48,10,,,,,,,,,main,2,2,2,neutral,neutral,k,k,1,0.6321311999927275,239.45611010002904,240.47008550001192,240.4536075000069,None,239.45611010002904,None,239.45611010002904,None,239.45611010002904,None,241.08692199002544,None,241.08692199002544,None,241.08692199002544,None,,,,,,,,,,,,,022,2022-05-18_13h31.13.219,Main,2022.1.1,60.150882474084156,
positive,positive,2,l,j,,,,,,,,,2,13,49,11,,,,,,,,,main,2,2,2,positive,positive,l,l,1,0.6814066000224557,241.0903612000111,242.10406060001696,242.08688670000993,None,241.0903612000111,None,241.0903612000111,None,241.0903612000111,None,242.77006009001926,None,242.77006009001926,None,242.77006009001926,None,,,,,,,,,,,,,022,2022-05-18_13h31.13.219,Main,2022.1.1,60.150882474084156,
neutral,positive,1,k,k,,,,,,,,,2,14,50,4,,,,,,,,,main,2,2,1,positive,neutral,k,k,1,0.6457618999993429,242.77311080001527,243.78477990001556,243.76842840001336,None,242.77311080001527,None,242.77311080001527,None,242.77311080001527,None,244.41751289000095,None,244.41751289000095,None,244.41751289000095,None,,,,,,,,,,,,,022,2022-05-18_13h31.13.219,Main,2022.1.1,60.150882474084156,
negative,neutral,1,j,l,,,,,,,,,2,15,51,3,,,,,,,,,main,1,1,1,neutral,negative,j,j,1,0.7683071000210475,244.41771250002785,245.41753430000972,245.41753430000972,None,244.41771250002785,None,244.41771250002785,None,244.41771250002785,None,246.18665289001947,None,246.18665289001947,None,246.18665289001947,None,,,,,,,,,,,,,022,2022-05-18_13h31.13.219,Main,2022.1.1,60.150882474084156,
positive,negative,1,l,j,,,,,,,,,2,16,52,5,,,,,,,,,main,2,2,1,negative,positive,l,l,1,0.697945299994899,246.19036160001997,247.2032228000171,247.1867207000032,None,246.19036160001997,None,246.19036160001997,None,246.19036160001997,None,247.886606890001,None,247.886606890001,None,247.886606890001,None,,,,,,,,,,,,,022,2022-05-18_13h31.13.219,Main,2022.1.1,60.150882474084156,
negative,positive,2,j,l,,,,,,,,,2,17,53,15,,,,,,,,,main,2,2,2,positive,negative,j,j,1,0.7316387000028044,247.89066530001583,248.90319880002062,248.88662000000477,None,247.89066530001583,None,247.89066530001583,None,247.89066530001583,None,249.61990009000002,None,249.61990009000002,None,249.61990009000002,None,,,,,,,,,,,,,022,2022-05-18_13h31.13.219,Main,2022.1.1,60.150882474084156,
neutral,positive,2,k,k,,,,,,,,,3,0,54,13,,,,,,,,,main,2,2,2,positive,neutral,k,k,1,0.6486356999957934,249.62380740002845,250.63666840002406,250.61994280002546,None,249.62380740002845,None,249.62380740002845,None,249.62380740002845,None,251.2698436900013,None,251.2698436900013,None,251.2698436900013,None,,,,,,,,,,,,,022,2022-05-18_13h31.13.219,Main,2022.1.1,60.150882474084156,
negative,negative,2,j,l,,,,,,,,,3,1,55,9,,,,,,,,,main,2,2,2,negative,negative,j,j,1,0.6560305000166409,251.27269890002208,252.28656260002754,252.26998140002252,None,251.27269890002208,None,251.27269890002208,None,251.27269890002208,None,252.9276519900217,None,252.9276519900217,None,252.9276519900217,None,,,,,,,,,,,,,022,2022-05-18_13h31.13.219,Main,2022.1.1,60.150882474084156,
positive,positive,2,l,j,,,,,,,,,3,2,56,11,,,,,,,,,main,1,1,2,positive,positive,l,l,1,0.6215744000219274,252.9378907000064,253.95062410001992,253.91729640000267,None,252.9378907000064,None,252.9378907000064,None,252.9378907000064,None,254.55064989002713,None,254.55064989002713,None,254.55064989002713,None,,,,,,,,,,,,,022,2022-05-18_13h31.13.219,Main,2022.1.1,60.150882474084156,
positive,neutral,2,l,j,,,,,,,,,3,3,57,17,,,,,,,,,main,1,1,2,neutral,positive,l,l,1,0.7149315999995451,254.55077820000588,255.55089040001621,255.55089040001621,None,254.55077820000588,None,254.55077820000588,None,254.55077820000588,None,256.26728959002355,None,256.26728959002355,None,256.26728959002355,None,,,,,,,,,,,,,022,2022-05-18_13h31.13.219,Main,2022.1.1,60.150882474084156,
neutral,neutral,2,k,k,,,,,,,,,3,4,58,10,,,,,,,,,main,2,2,2,neutral,neutral,k,k,1,0.6678281999775209,256.2679823000217,257.2672829000221,257.25064830001793,None,256.2679823000217,None,256.2679823000217,None,256.2679823000217,None,257.9364462900179,None,257.9364462900179,None,257.9364462900179,None,,,,,,,,,,,,,022,2022-05-18_13h31.13.219,Main,2022.1.1,60.150882474084156,
negative,positive,1,j,l,,,,,,,,,3,5,59,6,,,,,,,,,main,2,2,1,positive,negative,j,j,1,0.6650145000021439,257.93947160002426,258.9533587000042,258.9365559000289,None,257.93947160002426,None,257.93947160002426,None,257.93947160002426,None,259.60300719000804,None,259.60300719000804,None,259.60300719000804,None,,,,,,,,,,,,,022,2022-05-18_13h31.13.219,Main,2022.1.1,60.150882474084156,
negative,positive,2,j,l,,,,,,,,,3,6,60,15,,,,,,,,,main,1,1,2,positive,negative,j,j,1,0.6818344000203069,259.60586810001405,260.61966800002847,260.60308550001355,None,259.60586810001405,None,259.60586810001405,None,259.60586810001405,None,261.2863280900259,None,261.2863280900259,None,261.2863280900259,None,,,,,,,,,,,,,022,2022-05-18_13h31.13.219,Main,2022.1.1,60.150882474084156,
positive,negative,2,l,j,,,,,,,,,3,7,61,14,,,,,,,,,main,1,1,2,negative,positive,l,l,1,0.7485816999978852,261.28895220000413,262.3029431000177,262.28634890000103,None,261.28895220000413,None,261.28895220000413,None,261.28895220000413,None,263.0362915900099,None,263.0362915900099,None,263.0362915900099,None,,,,,,,,,,,,,022,2022-05-18_13h31.13.219,Main,2022.1.1,60.150882474084156,
negative,negative,1,j,l,,,,,,,,,3,8,62,0,,,,,,,,,main,2,2,1,negative,negative,j,j,1,0.7126699000073131,263.0393828000233,264.05294800002594,264.03632010001456,None,263.0393828000233,None,263.0393828000233,None,263.0393828000233,None,264.7504523900192,None,264.7504523900192,None,264.7504523900192,None,,,,,,,,,,,,,022,2022-05-18_13h31.13.219,Main,2022.1.1,60.150882474084156,
negative,neutral,2,j,l,,,,,,,,,3,9,63,12,,,,,,,,,main,2,2,2,neutral,negative,j,j,1,0.8015496000007261,264.7504481000069,265.7504212000058,265.7504212000058,None,264.7504481000069,None,264.7504481000069,None,264.7504481000069,None,266.5505160900269,None,266.5505160900269,None,266.5505160900269,None,,,,,,,,,,,,,022,2022-05-18_13h31.13.219,Main,2022.1.1,60.150882474084156,
neutral,positive,1,k,k,,,,,,,,,3,10,64,4,,,,,,,,,main,1,1,1,positive,neutral,k,k,1,0.6845341000007465,266.5591976000287,267.56952300001285,267.5529553000233,None,266.5591976000287,None,266.5591976000287,None,266.5591976000287,None,268.23628459002646,None,268.23628459002646,None,268.23628459002646,None,,,,,,,,,,,,,022,2022-05-18_13h31.13.219,Main,2022.1.1,60.150882474084156,
neutral,neutral,1,k,k,,,,,,,,,3,11,65,1,,,,,,,,,main,2,2,1,neutral,neutral,k,k,1,0.6910016000038013,268.24619500001427,269.2529034000181,269.23631900001783,None,268.24619500001427,None,268.24619500001427,None,268.24619500001427,None,269.9340030900115,None,269.9340030900115,None,269.9340030900115,None,,,,,,,,,,,,,022,2022-05-18_13h31.13.219,Main,2022.1.1,60.150882474084156,
neutral,negative,1,k,k,,,,,,,,,3,12,66,7,,,,,,,,,main,2,2,1,negative,neutral,k,k,1,0.5506403000035789,269.93969650001964,270.9527460000245,270.93614130001515,None,269.93969650001964,None,269.93969650001964,None,269.93969650001964,None,271.48611069001197,None,271.48611069001197,None,271.48611069001197,None,,,,,,,,,,,,,022,2022-05-18_13h31.13.219,Main,2022.1.1,60.150882474084156,
positive,positive,1,l,j,,,,,,,,,3,13,67,2,,,,,,,,,main,1,1,1,positive,positive,l,l,1,0.7792258000117727,271.488952100015,272.5027937000268,272.4861468000163,None,271.488952100015,None,271.488952100015,None,271.488952100015,None,273.2669414900214,None,273.2669414900214,None,273.2669414900214,None,,,,,,,,,,,,,022,2022-05-18_13h31.13.219,Main,2022.1.1,60.150882474084156,
negative,neutral,1,j,l,,,,,,,,,3,14,68,3,,,,,,,,,main,2,2,1,neutral,negative,j,j,1,0.7484073000086937,273.27012360002846,274.28357040000265,274.26690970000345,None,273.27012360002846,None,273.27012360002846,None,273.27012360002846,None,275.0168725900206,None,275.0168725900206,None,275.0168725900206,None,,,,,,,,,,,,,022,2022-05-18_13h31.13.219,Main,2022.1.1,60.150882474084156,
positive,negative,1,l,j,,,,,,,,,3,15,69,5,,,,,,,,,main,2,2,1,negative,positive,l,l,1,0.7987644000095315,275.0168739000219,276.01689750002697,276.01689750002697,None,275.0168739000219,None,275.0168739000219,None,275.0168739000219,None,276.81711489002043,None,276.81711489002043,None,276.81711489002043,None,,,,,,,,,,,,,022,2022-05-18_13h31.13.219,Main,2022.1.1,60.150882474084156,
neutral,negative,2,k,k,,,,,,,,,3,16,70,16,,,,,,,,,main,1,1,2,negative,neutral,k,k,1,0.6148287999967579,276.8184654000215,277.8335231000092,277.8168637000199,None,276.8184654000215,None,276.8184654000215,None,276.8184654000215,None,278.43354869001485,None,278.43354869001485,None,278.43354869001485,None,,,,,,,,,,,,,022,2022-05-18_13h31.13.219,Main,2022.1.1,60.150882474084156,
positive,neutral,1,l,j,,,,,,,,,3,17,71,8,,,,,,,,,main,1,1,1,neutral,positive,l,l,1,0.7342220999998972,278.4365288000263,279.43610840002657,279.43610840002657,None,278.4365288000263,None,278.4365288000263,None,278.4365288000263,None,280.16926849001027,None,280.16926849001027,None,280.16926849001027,None,,,,,,,,,,,,,022,2022-05-18_13h31.13.219,Main,2022.1.1,60.150882474084156,
positive,neutral,1,l,j,,,,,,,,,4,0,72,8,,,,,,,,,main,2,2,1,neutral,positive,l,l,1,0.7484872000059113,280.17208320001373,281.18604190001497,281.1693457000074,None,280.17208320001373,None,280.17208320001373,None,280.17208320001373,None,281.9192566900077,None,281.9192566900077,None,281.9192566900077,None,,,,,,,,,,,,,022,2022-05-18_13h31.13.219,Main,2022.1.1,60.150882474084156,
positive,positive,2,l,j,,,,,,,,,4,1,73,11,,,,,,,,,main,2,2,2,positive,positive,l,l,1,0.7153684999793768,281.9220067000133,282.9358762000047,282.91928010000265,None,281.9220067000133,None,281.9220067000133,None,281.9220067000133,None,283.6358716900198,None,283.6358716900198,None,283.6358716900198,None,,,,,,,,,,,,,022,2022-05-18_13h31.13.219,Main,2022.1.1,60.150882474084156,
neutral,neutral,2,k,k,,,,,,,,,4,2,74,10,,,,,,,,,main,2,2,2,neutral,neutral,k,k,1,0.8064073999994434,283.63926060000085,284.6524975000066,284.6358833000122,None,283.63926060000085,None,283.63926060000085,None,283.63926060000085,None,285.44395749002285,None,285.44395749002285,None,285.44395749002285,None,,,,,,,,,,,,,022,2022-05-18_13h31.13.219,Main,2022.1.1,60.150882474084156,
positive,negative,1,l,j,,,,,,,,,4,3,75,5,,,,,,,,,main,1,1,1,negative,positive,l,l,1,0.7543912999972235,285.45901840002625,286.46661980001954,286.4332931000099,None,285.45901840002625,None,285.45901840002625,None,285.45901840002625,None,287.19994829000495,None,287.19994829000495,None,287.19994829000495,None,,,,,,,,,,,,,022,2022-05-18_13h31.13.219,Main,2022.1.1,60.150882474084156,
negative,negative,1,j,l,,,,,,,,,4,4,76,0,,,,,,,,,main,2,2,1,negative,negative,j,j,1,0.6323531999951228,287.2003804000269,288.20247930000187,288.1858956000069,None,287.2003804000269,None,287.2003804000269,None,287.2003804000269,None,288.8336552900058,None,288.8336552900058,None,288.8336552900058,None,,,,,,,,,,,,,022,2022-05-18_13h31.13.219,Main,2022.1.1,60.150882474084156,
positive,neutral,2,l,j,,,,,,,,,4,5,77,17,,,,,,,,,main,2,2,2,neutral,positive,l,l,1,0.7004379999998491,288.83727320001344,289.8523992000264,289.83581140000024,None,288.83727320001344,None,288.83727320001344,None,288.83727320001344,None,290.5356978900003,None,290.5356978900003,None,290.5356978900003,None,,,,,,,,,,,,,022,2022-05-18_13h31.13.219,Main,2022.1.1,60.150882474084156,
positive,negative,2,l,j,,,,,,,,,4,6,78,14,,,,,,,,,main,2,2,2,negative,positive,l,l,1,0.5821713999903295,290.5385054000071,291.55246100001386,291.53582210000604,None,290.5385054000071,None,290.5385054000071,None,290.5385054000071,None,292.11901689002696,None,292.11901689002696,None,292.11901689002696,None,,,,,,,,,,,,,022,2022-05-18_13h31.13.219,Main,2022.1.1,60.150882474084156,
neutral,positive,2,k,k,,,,,,,,,4,7,79,13,,,,,,,,,main,1,1,2,positive,neutral,k,k,1,0.6314029000059236,292.1221912000037,293.1356601000007,293.11905770000885,None,292.1221912000037,None,292.1221912000037,None,292.1221912000037,None,293.75231189000476,None,293.75231189000476,None,293.75231189000476,None,,,,,,,,,,,,,022,2022-05-18_13h31.13.219,Main,2022.1.1,60.150882474084156,
negative,positive,2,j,l,,,,,,,,,4,8,80,15,,,,,,,,,main,1,1,2,positive,negative,j,j,1,1.0969203999848105,293.7550317000132,294.7689199000015,294.7523384000233,None,293.7550317000132,None,293.7550317000132,None,293.7550317000132,None,295.8497664900118,None,295.8497664900118,None,295.8497664900118,None,,,,,,,,,,,,,022,2022-05-18_13h31.13.219,Main,2022.1.1,60.150882474084156,
negative,neutral,2,j,l,,,,,,,,,4,9,81,12,,,,,,,,,main,1,1,2,neutral,negative,j,j,1,0.6474534000153653,295.85014280001633,296.8505556000164,296.8505556000164,None,295.85014280001633,None,295.85014280001633,None,295.85014280001633,None,297.4997542900004,None,297.4997542900004,None,297.4997542900004,None,,,,,,,,,,,,,022,2022-05-18_13h31.13.219,Main,2022.1.1,60.150882474084156,
neutral,negative,2,k,k,,,,,,,,,4,10,82,16,,,,,,,,,main,2,2,2,negative,neutral,k,k,1,0.6821115000057034,297.49975050002104,298.50104260002263,298.50104260002263,None,297.49975050002104,None,297.49975050002104,None,297.49975050002104,None,299.18325089001735,None,299.18325089001735,None,299.18325089001735,None,,,,,,,,,,,,,022,2022-05-18_13h31.13.219,Main,2022.1.1,60.150882474084156,
neutral,positive,1,k,k,,,,,,,,,4,11,83,4,,,,,,,,,main,2,2,1,positive,neutral,k,k,1,0.5995820999960415,299.18640210002195,300.1855906000128,300.1855906000128,None,299.18640210002195,None,299.18640210002195,None,299.18640210002195,None,300.7831027900014,None,300.7831027900014,None,300.7831027900014,None,,,,,,,,,,,,,022,2022-05-18_13h31.13.219,Main,2022.1.1,60.150882474084156,
neutral,neutral,1,k,k,,,,,,,,,4,12,84,1,,,,,,,,,main,1,1,1,neutral,neutral,k,k,1,0.5497793999966234,300.7897614000249,301.8020014000067,301.78556960000424,None,300.7897614000249,None,300.7897614000249,None,300.7897614000249,None,302.33549579002135,None,302.33549579002135,None,302.33549579002135,None,,,,,,,,,,,,,022,2022-05-18_13h31.13.219,Main,2022.1.1,60.150882474084156,
negative,neutral,1,j,l,,,,,,,,,4,13,85,3,,,,,,,,,main,2,2,1,neutral,negative,j,j,1,0.731906600005459,302.33841860000393,303.35214630002156,303.3354901000275,None,302.33841860000393,None,302.33841860000393,None,302.33841860000393,None,304.06879349002554,None,304.06879349002554,None,304.06879349002554,None,,,,,,,,,,,,,022,2022-05-18_13h31.13.219,Main,2022.1.1,60.150882474084156,
negative,negative,2,j,l,,,,,,,,,4,14,86,9,,,,,,,,,main,1,1,2,negative,negative,j,j,1,0.7982062000082806,304.0717464000045,305.0860824000265,305.0688773000147,None,304.0717464000045,None,304.0717464000045,None,304.0717464000045,None,305.86873849000256,None,305.86873849000256,None,305.86873849000256,None,,,,,,,,,,,,,022,2022-05-18_13h31.13.219,Main,2022.1.1,60.150882474084156,
neutral,negative,1,k,k,,,,,,,,,4,15,87,7,,,,,,,,,main,2,2,1,negative,neutral,k,k,1,0.6629980999859981,305.8712839000218,306.88346570002614,306.86653870000737,None,305.8712839000218,None,305.8712839000218,None,305.8712839000218,None,307.5330844900076,None,307.5330844900076,None,307.5330844900076,None,,,,,,,,,,,,,022,2022-05-18_13h31.13.219,Main,2022.1.1,60.150882474084156,
negative,positive,1,j,l,,,,,,,,,4,16,88,6,,,,,,,,,main,2,2,1,positive,negative,j,j,1,0.6495135999866761,307.5328753000067,308.5334463000181,308.5334463000181,None,307.5328753000067,None,307.5328753000067,None,307.5328753000067,None,309.18310959001826,None,309.18310959001826,None,309.18310959001826,None,,,,,,,,,,,,,022,2022-05-18_13h31.13.219,Main,2022.1.1,60.150882474084156,
positive,positive,1,l,j,,,,,,,,,4,17,89,2,,,,,,,,,main,2,2,1,positive,positive,l,l,1,0.7473394999979064,309.1871694000147,310.20206750000943,310.1857854000118,None,309.1871694000147,None,309.1871694000147,None,309.1871694000147,None,310.93285399002195,None,310.93285399002195,None,310.93285399002195,None,,,,,,,,,,,,,022,2022-05-18_13h31.13.219,Main,2022.1.1,60.150882474084156,
neutral,positive,1,k,k,,,,,,,,,5,0,90,4,,,,,,,,,main,1,1,1,positive,neutral,k,k,1,0.6174229999887757,310.9360887000221,311.9354219000088,311.9354219000088,None,310.9360887000221,None,310.9360887000221,None,310.9360887000221,None,312.55191699001296,None,312.55191699001296,None,312.55191699001296,None,,,,,,,,,,,,,022,2022-05-18_13h31.13.219,Main,2022.1.1,60.150882474084156,
neutral,negative,2,k,k,,,,,,,,,5,1,91,16,,,,,,,,,main,1,1,2,negative,neutral,k,k,1,0.5483586000045761,312.5544075000216,313.5690126000263,313.5519722000172,None,312.5544075000216,None,312.5544075000216,None,312.5544075000216,None,314.10200199000826,None,314.10200199000826,None,314.10200199000826,None,,,,,,,,,,,,,022,2022-05-18_13h31.13.219,Main,2022.1.1,60.150882474084156,
positive,neutral,2,l,j,,,,,,,,,5,2,92,17,,,,,,,,,main,1,1,2,neutral,positive,l,l,1,0.8144900999905076,314.1055466000107,315.11859560001176,315.1020241000224,None,314.1055466000107,None,314.1055466000107,None,314.1055466000107,None,315.91852959000096,None,315.91852959000096,None,315.91852959000096,None,,,,,,,,,,,,,022,2022-05-18_13h31.13.219,Main,2022.1.1,60.150882474084156,
positive,positive,1,l,j,,,,,,,,,5,3,93,2,,,,,,,,,main,1,1,1,positive,positive,l,l,1,0.6803404999955092,315.92132840002887,316.9326872000238,316.91624470002716,None,315.92132840002887,None,315.92132840002887,None,315.92132840002887,None,317.60031899002786,None,317.60031899002786,None,317.60031899002786,None,,,,,,,,,,,,,022,2022-05-18_13h31.13.219,Main,2022.1.1,60.150882474084156,
neutral,neutral,1,k,k,,,,,,,,,5,4,94,1,,,,,,,,,main,1,1,1,neutral,neutral,k,k,1,0.6809156000090297,317.59983050002484,318.59932080001454,318.59932080001454,None,317.59983050002484,None,317.59983050002484,None,317.59983050002484,None,319.2830218900257,None,319.2830218900257,None,319.2830218900257,None,,,,,,,,,,,,,022,2022-05-18_13h31.13.219,Main,2022.1.1,60.150882474084156,
negative,positive,1,j,l,,,,,,,,,5,5,95,6,,,,,,,,,main,2,2,1,positive,negative,j,j,1,0.7684237999783363,319.28430440000375,320.2993181000056,320.2826451000001,None,319.28430440000375,None,319.28430440000375,None,319.28430440000375,None,321.05178999000634,None,321.05178999000634,None,321.05178999000634,None,,,,,,,,,,,,,022,2022-05-18_13h31.13.219,Main,2022.1.1,60.150882474084156,
neutral,positive,2,k,k,,,,,,,,,5,6,96,13,,,,,,,,,main,2,2,2,positive,neutral,k,k,1,0.7978051000100095,321.0557788000151,322.0685579000274,322.0519085000269,None,321.0557788000151,None,321.0557788000151,None,321.0557788000151,None,322.8517320900195,None,322.8517320900195,None,322.8517320900195,None,,,,,,,,,,,,,022,2022-05-18_13h31.13.219,Main,2022.1.1,60.150882474084156,
negative,neutral,2,j,l,,,,,,,,,5,7,97,12,,,,,,,,,main,2,2,2,neutral,negative,j,j,1,0.7647613000008278,322.8558553000039,323.8683588000131,323.85242880001897,None,322.8558553000039,None,322.8558553000039,None,322.8558553000039,None,324.61832769001774,None,324.61832769001774,None,324.61832769001774,None,,,,,,,,,,,,,022,2022-05-18_13h31.13.219,Main,2022.1.1,60.150882474084156,
negative,negative,2,j,l,,,,,,,,,5,8,98,9,,,,,,,,,main,2,2,2,negative,negative,j,j,1,0.581690199993318,324.6223194000195,325.63498080000863,325.61836590000894,None,324.6223194000195,None,324.6223194000195,None,324.6223194000195,None,326.2016609900078,None,326.2016609900078,None,326.2016609900078,None,,,,,,,,,,,,,022,2022-05-18_13h31.13.219,Main,2022.1.1,60.150882474084156,
positive,negative,1,l,j,,,,,,,,,5,9,99,5,,,,,,,,,main,1,1,1,negative,positive,l,l,1,0.7612185000034515,326.20505470002536,327.21827980002854,327.2017559000233,None,326.20505470002536,None,326.20505470002536,None,326.20505470002536,None,327.96415779002416,None,327.96415779002416,None,327.96415779002416,None,,,,,,,,,,,,,022,2022-05-18_13h31.13.219,Main,2022.1.1,60.150882474084156,
negative,neutral,1,j,l,,,,,,,,,5,10,100,3,,,,,,,,,main,2,2,1,neutral,negative,j,j,1,0.6491965999884997,327.96482890000334,328.9657591000141,328.9657591000141,None,327.96482890000334,None,327.96482890000334,None,327.96482890000334,None,329.6157389900094,None,329.6157389900094,None,329.6157389900094,None,,,,,,,,,,,,,022,2022-05-18_13h31.13.219,Main,2022.1.1,60.150882474084156,
neutral,neutral,2,k,k,,,,,,,,,5,11,101,10,,,,,,,,,main,2,2,2,neutral,neutral,k,k,1,0.667985400010366,329.6157306000241,330.61831230000826,330.6017434000096,None,329.6157306000241,None,329.6157306000241,None,329.6157306000241,None,331.28487369001084,None,331.28487369001084,None,331.28487369001084,None,,,,,,,,,,,,,022,2022-05-18_13h31.13.219,Main,2022.1.1,60.150882474084156,
positive,neutral,1,l,j,,,,,,,,,5,12,102,8,,,,,,,,,main,2,2,1,neutral,positive,l,l,1,0.6815077999781352,331.28804040001705,332.3019103000115,332.2850059000193,None,331.28804040001705,None,331.28804040001705,None,331.28804040001705,None,332.9681762900058,None,332.9681762900058,None,332.9681762900058,None,,,,,,,,,,,,,022,2022-05-18_13h31.13.219,Main,2022.1.1,60.150882474084156,
positive,positive,2,l,j,,,,,,,,,5,13,103,11,,,,,,,,,main,2,2,2,positive,positive,l,l,1,1.146344799984945,332.9713932000159,333.9848070000007,333.96825990002253,None,332.9713932000159,None,332.9713932000159,None,332.9713932000159,None,335.11591348999934,None,335.11591348999934,None,335.11591348999934,None,,,,,,,,,,,,,022,2022-05-18_13h31.13.219,Main,2022.1.1,60.150882474084156,
neutral,negative,1,k,k,,,,,,,,,5,14,104,7,,,,,,,,,main,2,2,1,negative,neutral,k,k,1,0.5505093999963719,335.1192661000241,336.118165700027,336.118165700027,None,335.1192661000241,None,335.1192661000241,None,335.1192661000241,None,336.66810139000006,None,336.66810139000006,None,336.66810139000006,None,,,,,,,,,,,,,022,2022-05-18_13h31.13.219,Main,2022.1.1,60.150882474084156,
positive,negative,2,l,j,,,,,,,,,5,15,105,14,,,,,,,,,main,2,2,2,negative,positive,l,l,1,0.6793613999907393,336.67090050000115,337.6822298000043,337.66646750000655,None,336.67090050000115,None,336.67090050000115,None,336.67090050000115,None,338.3488718900102,None,338.3488718900102,None,338.3488718900102,None,,,,,,,,,,,,,022,2022-05-18_13h31.13.219,Main,2022.1.1,60.150882474084156,
negative,positive,2,j,l,,,,,,,,,5,16,106,15,,,,,,,,,main,2,2,2,positive,negative,j,j,1,0.6991676000179723,338.34888510001474,339.34887390001677,339.34887390001677,None,338.34888510001474,None,338.34888510001474,None,338.34888510001474,None,340.0494992900261,None,340.0494992900261,None,340.0494992900261,None,,,,,,,,,,,,,022,2022-05-18_13h31.13.219,Main,2022.1.1,60.150882474084156,
negative,negative,1,j,l,,,,,,,,,5,17,107,0,,,,,,,,,main,2,2,1,negative,negative,j,j,1,0.6988804999855347,340.04971720001777,341.0488864000072,341.0488864000072,None,340.04971720001777,None,340.04971720001777,None,340.04971720001777,None,341.74890859002187,None,341.74890859002187,None,341.74890859002187,None,,,,,,,,,,,,,022,2022-05-18_13h31.13.219,Main,2022.1.1,60.150882474084156,
neutral,neutral,1,k,k,,,,,,,,,6,0,108,1,,,,,,,,,main,2,2,1,neutral,neutral,k,k,1,0.6829786000016611,341.75313150000875,342.7681732000201,342.7514008000144,None,341.75313150000875,None,341.75313150000875,None,341.75313150000875,None,343.43464179001455,None,343.43464179001455,None,343.43464179001455,None,,,,,,,,,,,,,022,2022-05-18_13h31.13.219,Main,2022.1.1,60.150882474084156,
positive,neutral,2,l,j,,,,,,,,,6,1,109,17,,,,,,,,,main,2,2,2,neutral,positive,l,l,1,0.6987798000045586,343.43814380001277,344.45127190000494,344.4346895000199,None,343.43814380001277,None,343.43814380001277,None,343.43814380001277,None,345.1346293900191,None,345.1346293900191,None,345.1346293900191,None,,,,,,,,,,,,,022,2022-05-18_13h31.13.219,Main,2022.1.1,60.150882474084156,
negative,neutral,2,j,l,,,,,,,,,6,2,110,12,,,,,,,,,main,1,1,2,neutral,negative,j,j,1,0.8150789999926928,345.1371465000266,346.15123090002453,346.1346223000146,None,345.1371465000266,None,345.1371465000266,None,345.1371465000266,None,346.9512311900238,None,346.9512311900238,None,346.9512311900238,None,,,,,,,,,,,,,022,2022-05-18_13h31.13.219,Main,2022.1.1,60.150882474084156,
positive,positive,1,l,j,,,,,,,,,6,3,111,2,,,,,,,,,main,1,1,1,positive,positive,l,l,1,0.648273499973584,346.9551982000121,347.96818120000535,347.9513618000201,None,346.9551982000121,None,346.9551982000121,None,346.9551982000121,None,348.6011667900224,None,348.6011667900224,None,348.6011667900224,None,,,,,,,,,,,,,022,2022-05-18_13h31.13.219,Main,2022.1.1,60.150882474084156,
neutral,negative,1,k,k,,,,,,,,,6,4,112,7,,,,,,,,,main,2,2,1,negative,neutral,k,k,1,0.6462089999986347,348.6046049000288,349.6155343000137,349.5986415000225,None,348.6046049000288,None,348.6046049000288,None,348.6046049000288,None,350.2486429900076,None,350.2486429900076,None,350.2486429900076,None,,,,,,,,,,,,,022,2022-05-18_13h31.13.219,Main,2022.1.1,60.150882474084156,
neutral,positive,1,k,k,,,,,,,,,6,5,113,4,,,,,,,,,main,2,2,1,positive,neutral,k,k,1,0.5673707000096329,350.24865580000915,351.24866870002006,351.24866870002006,None,350.24865580000915,None,350.24865580000915,None,350.24865580000915,None,351.8177581900003,None,351.8177581900003,None,351.8177581900003,None,,,,,,,,,,,,,022,2022-05-18_13h31.13.219,Main,2022.1.1,60.150882474084156,
positive,negative,1,l,j,,,,,,,,,6,6,114,5,,,,,,,,,main,2,2,1,negative,positive,l,l,1,0.6321972000005189,351.8216478000104,352.83441240002867,352.8179224000196,None,351.8216478000104,None,351.8216478000104,None,351.8216478000104,None,353.45108699000264,None,353.45108699000264,None,353.45108699000264,None,,,,,,,,,,,,,022,2022-05-18_13h31.13.219,Main,2022.1.1,60.150882474084156,
positive,negative,2,l,j,,,,,,,,,6,7,115,14,,,,,,,,,main,2,2,2,negative,positive,l,l,1,0.8313511000014842,353.45415690002847,354.4676740000141,354.45108820000314,None,353.45415690002847,None,353.45415690002847,None,353.45415690002847,None,355.2843591900222,None,355.2843591900222,None,355.2843591900222,None,,,,,,,,,,,,,022,2022-05-18_13h31.13.219,Main,2022.1.1,60.150882474084156,
positive,neutral,1,l,j,,,,,,,,,6,8,116,8,,,,,,,,,main,1,1,1,neutral,positive,l,l,1,0.6155082999903243,355.28837540000677,356.30102540002554,356.2844302000012,None,355.28837540000677,None,355.28837540000677,None,355.28837540000677,None,356.9010183900158,None,356.9010183900158,None,356.9010183900158,None,,,,,,,,,,,,,022,2022-05-18_13h31.13.219,Main,2022.1.1,60.150882474084156,
negative,negative,2,j,l,,,,,,,,,6,9,117,9,,,,,,,,,main,2,2,2,negative,negative,j,j,1,0.7463959999731742,356.90490270001465,357.9151699000213,357.8984960000089,None,356.90490270001465,None,356.90490270001465,None,356.90490270001465,None,358.64914089000956,None,358.64914089000956,None,358.64914089000956,None,,,,,,,,,,,,,022,2022-05-18_13h31.13.219,Main,2022.1.1,60.150882474084156,
positive,positive,2,l,j,,,,,,,,,6,10,118,11,,,,,,,,,main,2,2,2,positive,positive,l,l,1,0.7482750999915879,358.648825900018,359.6487275000254,359.6487275000254,None,358.648825900018,None,358.648825900018,None,358.648825900018,None,360.39869589002626,None,360.39869589002626,None,360.39869589002626,None,,,,,,,,,,,,,022,2022-05-18_13h31.13.219,Main,2022.1.1,60.150882474084156,
negative,negative,1,j,l,,,,,,,,,6,11,119,0,,,,,,,,,main,1,1,1,negative,negative,j,j,1,0.7837067999935243,360.4052185000037,361.4175553000241,361.4009542000131,None,360.4052185000037,None,360.4052185000037,None,360.4052185000037,None,362.18421649000663,None,362.18421649000663,None,362.18421649000663,None,,,,,,,,,,,,,022,2022-05-18_13h31.13.219,Main,2022.1.1,60.150882474084156,
negative,positive,1,j,l,,,,,,,,,6,12,120,6,,,,,,,,,main,2,2,1,positive,negative,j,j,1,0.7816584999964107,362.18757910002023,363.200854900002,363.18442160001723,None,362.18757910002023,None,362.18757910002023,None,362.18757910002023,None,363.9674933900154,None,363.9674933900154,None,363.9674933900154,None,,,,,,,,,,,,,022,2022-05-18_13h31.13.219,Main,2022.1.1,60.150882474084156,
neutral,neutral,2,k,k,,,,,,,,,6,13,121,10,,,,,,,,,main,1,1,2,neutral,neutral,k,k,1,0.6150254000094719,363.9712278000079,364.9841672000184,364.9675557000155,None,363.9712278000079,None,363.9712278000079,None,363.9712278000079,None,365.5841585900256,None,365.5841585900256,None,365.5841585900256,None,,,,,,,,,,,,,022,2022-05-18_13h31.13.219,Main,2022.1.1,60.150882474084156,
negative,positive,2,j,l,,,,,,,,,6,14,122,15,,,,,,,,,main,2,2,2,positive,negative,j,j,1,0.7987102000042796,365.5867690000159,366.60081020000507,366.5841583000147,None,365.5867690000159,None,365.5867690000159,None,365.5867690000159,None,367.38409419001835,None,367.38409419001835,None,367.38409419001835,None,,,,,,,,,,,,,022,2022-05-18_13h31.13.219,Main,2022.1.1,60.150882474084156,
neutral,negative,2,k,k,,,,,,,,,6,15,123,16,,,,,,,,,main,2,2,2,negative,neutral,k,k,1,0.679252700007055,367.3865809000272,368.39825440000277,368.381591900019,None,367.3865809000272,None,367.3865809000272,None,367.3865809000272,None,369.06489629000714,None,369.06489629000714,None,369.06489629000714,None,,,,,,,,,,,,,022,2022-05-18_13h31.13.219,Main,2022.1.1,60.150882474084156,
negative,neutral,1,j,l,,,,,,,,,6,16,124,3,,,,,,,,,main,2,2,1,neutral,negative,j,j,1,0.69862650000141,369.0648994000221,370.065168000001,370.065168000001,None,369.0648994000221,None,369.0648994000221,None,369.0648994000221,None,370.76491919001853,None,370.76491919001853,None,370.76491919001853,None,,,,,,,,,,,,,022,2022-05-18_13h31.13.219,Main,2022.1.1,60.150882474084156,
neutral,positive,2,k,k,,,,,,,,,6,17,125,13,,,,,,,,,main,2,2,2,positive,neutral,k,k,1,0.8845356999954674,370.7652540000272,371.76742300001206,371.74824570000055,None,370.7652540000272,None,370.7652540000272,None,370.7652540000272,None,372.65071499000476,None,372.65071499000476,None,372.65071499000476,None,,,,,,,,,,,,,022,2022-05-18_13h31.13.219,Main,2022.1.1,60.150882474084156,
negative,neutral,1,j,l,,,,,,,,,7,0,126,3,,,,,,,,,main,1,1,1,neutral,negative,j,j,1,0.7291906999889761,372.65375570001197,373.66802420001477,373.65074740001,None,372.65375570001197,None,372.65375570001197,None,372.65375570001197,None,374.3817344900075,None,374.3817344900075,None,374.3817344900075,None,,,,,,,,,,,,,022,2022-05-18_13h31.13.219,Main,2022.1.1,60.150882474084156,
neutral,positive,1,k,k,,,,,,,,,7,1,127,4,,,,,,,,,main,2,2,1,positive,neutral,k,k,1,0.7187653000000864,374.3875617000158,375.4012918000226,375.36736100001144,None,374.3875617000158,None,374.3875617000158,None,374.3875617000158,None,376.1006865900039,None,376.1006865900039,None,376.1006865900039,None,,,,,,,,,,,,,022,2022-05-18_13h31.13.219,Main,2022.1.1,60.150882474084156,
neutral,positive,2,k,k,,,,,,,,,7,2,128,13,,,,,,,,,main,1,1,2,positive,neutral,k,k,1,0.678550600016024,376.10470200001146,377.1172395000176,377.1006782000186,None,376.10470200001146,None,376.10470200001146,None,376.10470200001146,None,377.7817783900158,None,377.7817783900158,None,377.7817783900158,None,,,,,,,,,,,,,022,2022-05-18_13h31.13.219,Main,2022.1.1,60.150882474084156,
negative,negative,1,j,l,,,,,,,,,7,3,129,0,,,,,,,,,main,2,2,1,negative,negative,j,j,1,0.7472163999918848,377.7863772000128,378.80059070000425,378.78408680000575,None,377.7863772000128,None,377.7863772000128,None,377.7863772000128,None,379.531342690016,None,379.531342690016,None,379.531342690016,None,,,,,,,,,,,,,022,2022-05-18_13h31.13.219,Main,2022.1.1,60.150882474084156,
negative,positive,1,j,l,,,,,,,,,7,4,130,6,,,,,,,,,main,1,1,1,positive,negative,j,j,1,0.6647531999915373,379.531798800017,380.53131900000153,380.53131900000153,None,379.531798800017,None,379.531798800017,None,379.531798800017,None,381.19830439000214,None,381.19830439000214,None,381.19830439000214,None,,,,,,,,,,,,,022,2022-05-18_13h31.13.219,Main,2022.1.1,60.150882474084156,
neutral,neutral,2,k,k,,,,,,,,,7,5,131,10,,,,,,,,,main,2,2,2,neutral,neutral,k,k,1,1.200672000006307,381.2013486000069,382.2006197000155,382.2006197000155,None,381.2013486000069,None,381.2013486000069,None,381.2013486000069,None,383.4005334900197,None,383.4005334900197,None,383.4005334900197,None,,,,,,,,,,,,,022,2022-05-18_13h31.13.219,Main,2022.1.1,60.150882474084156,
positive,positive,2,l,j,,,,,,,,,7,6,132,11,,,,,,,,,main,2,2,2,positive,positive,l,l,1,0.7651337000133935,383.4033668000193,384.4171626000025,384.4004929000221,None,383.4033668000193,None,383.4033668000193,None,383.4033668000193,None,385.1670816900063,None,385.1670816900063,None,385.1670816900063,None,,,,,,,,,,,,,022,2022-05-18_13h31.13.219,Main,2022.1.1,60.150882474084156,
positive,neutral,1,l,j,,,,,,,,,7,7,133,8,,,,,,,,,main,1,1,1,neutral,positive,l,l,1,0.7816677000082564,385.1698683000286,386.1836929000274,386.1670780000277,None,385.1698683000286,None,385.1698683000286,None,385.1698683000286,None,386.95038739000154,None,386.95038739000154,None,386.95038739000154,None,,,,,,,,,,,,,022,2022-05-18_13h31.13.219,Main,2022.1.1,60.150882474084156,
positive,negative,2,l,j,,,,,,,,,7,8,134,14,,,,,,,,,main,1,1,2,negative,positive,l,l,1,0.8319872999854852,386.95417380001163,387.9676618000085,387.95049570000265,None,386.95417380001163,None,386.95417380001163,None,386.95417380001163,None,388.7842939900205,None,388.7842939900205,None,388.7842939900205,None,,,,,,,,,,,,,022,2022-05-18_13h31.13.219,Main,2022.1.1,60.150882474084156,
negative,positive,2,j,l,,,,,,,,,7,9,135,15,,,,,,,,,main,2,2,2,positive,negative,j,j,1,0.8308193999982905,388.79331660000025,389.79780960001517,389.7812606000225,None,388.79331660000025,None,388.79331660000025,None,388.79331660000025,None,390.6144805900025,None,390.6144805900025,None,390.6144805900025,None,,,,,,,,,,,,,022,2022-05-18_13h31.13.219,Main,2022.1.1,60.150882474084156,
neutral,negative,1,k,k,,,,,,,,,7,10,136,7,,,,,,,,,main,1,1,1,negative,neutral,k,k,1,0.646069099981105,390.61634130001767,391.6311344000278,391.614470600005,None,390.61634130001767,None,390.61634130001767,None,390.61634130001767,None,392.26446719001103,None,392.26446719001103,None,392.26446719001103,None,,,,,,,,,,,,,022,2022-05-18_13h31.13.219,Main,2022.1.1,60.150882474084156,
positive,neutral,2,l,j,,,,,,,,,7,11,137,17,,,,,,,,,main,2,2,2,neutral,positive,l,l,1,0.8821715999802109,392.2646525000164,393.2669448000088,393.25017430001753,None,392.2646525000164,None,392.2646525000164,None,392.2646525000164,None,394.1479599900107,None,394.1479599900107,None,394.1479599900107,None,,,,,,,,,,,,,022,2022-05-18_13h31.13.219,Main,2022.1.1,60.150882474084156,
negative,negative,2,j,l,,,,,,,,,7,12,138,9,,,,,,,,,main,1,1,2,negative,negative,j,j,1,0.817037699976936,394.15405980002834,395.16707060000044,395.1483661000093,None,394.15405980002834,None,394.15405980002834,None,394.15405980002834,None,395.9668946900259,None,395.9668946900259,None,395.9668946900259,None,,,,,,,,,,,,,022,2022-05-18_13h31.13.219,Main,2022.1.1,60.150882474084156,
neutral,neutral,1,k,k,,,,,,,,,7,13,139,1,,,,,,,,,main,1,1,1,neutral,neutral,k,k,1,0.6486096000007819,395.9694346000033,396.98418910001055,396.96712900002603,None,395.9694346000033,None,395.9694346000033,None,395.9694346000033,None,397.616867790019,None,397.616867790019,None,397.616867790019,None,,,,,,,,,,,,,022,2022-05-18_13h31.13.219,Main,2022.1.1,60.150882474084156,
positive,negative,1,l,j,,,,,,,,,7,14,140,5,,,,,,,,,main,2,2,1,negative,positive,l,l,1,0.6656935999926645,397.6215592000226,398.63340610000887,398.61683190002805,None,397.6215592000226,None,397.6215592000226,None,397.6215592000226,None,399.284096090027,None,399.284096090027,None,399.284096090027,None,,,,,,,,,,,,,022,2022-05-18_13h31.13.219,Main,2022.1.1,60.150882474084156,
positive,positive,1,l,j,,,,,,,,,7,15,141,2,,,,,,,,,main,2,2,1,positive,positive,l,l,1,0.7161985999846365,399.28777500000433,400.30702550002025,400.283345200005,None,399.28777500000433,None,399.28777500000433,None,399.28777500000433,None,400.99761159001207,None,400.99761159001207,None,400.99761159001207,None,,,,,,,,,,,,,022,2022-05-18_13h31.13.219,Main,2022.1.1,60.150882474084156,
neutral,negative,2,k,k,,,,,,,,,7,16,142,16,,,,,,,,,main,2,2,2,negative,neutral,k,k,1,0.6941879999940284,401.0018970000092,402.014250200009,401.99762890001875,None,401.0018970000092,None,401.0018970000092,None,401.0018970000092,None,402.69760499000256,None,402.69760499000256,None,402.69760499000256,None,,,,,,,,,,,,,022,2022-05-18_13h31.13.219,Main,2022.1.1,60.150882474084156,
negative,neutral,2,j,l,,,,,,,,,7,17,143,12,,,,,,,,,main,1,1,2,neutral,negative,j,j,1,0.7820155999797862,402.70055550002144,403.7000650000118,403.6834313000145,None,402.70055550002144,None,402.70055550002144,None,402.70055550002144,None,404.48121689000106,None,404.48121689000106,None,404.48121689000106,None,,,,,,,,,,,,,022,2022-05-18_13h31.13.219,Main,2022.1.1,60.150882474084156,
positive,negative,2,l,j,,,,,,,,,8,0,144,14,,,,,,,,,main,2,2,2,negative,positive,l,l,1,0.7144533000246156,404.4852171000093,405.49992740000016,405.48338080002577,None,404.4852171000093,None,404.4852171000093,None,404.4852171000093,None,406.1981230900186,None,406.1981230900186,None,406.1981230900186,None,,,,,,,,,,,,,022,2022-05-18_13h31.13.219,Main,2022.1.1,60.150882474084156,
neutral,positive,1,k,k,,,,,,,,,8,1,145,4,,,,,,,,,main,2,2,1,positive,neutral,k,k,1,0.6673888000077568,406.20217540001613,407.21674040000653,407.20001710002543,None,406.20217540001613,None,406.20217540001613,None,406.20217540001613,None,407.86660889002667,None,407.86660889002667,None,407.86660889002667,None,,,,,,,,,,,,,022,2022-05-18_13h31.13.219,Main,2022.1.1,60.150882474084156,
positive,negative,1,l,j,,,,,,,,,8,2,146,5,,,,,,,,,main,2,2,1,negative,positive,l,l,1,0.698105299990857,407.8696038000053,408.88324080000166,408.86664250001195,None,407.8696038000053,None,407.8696038000053,None,407.8696038000053,None,409.566526090019,None,409.566526090019,None,409.566526090019,None,,,,,,,,,,,,,022,2022-05-18_13h31.13.219,Main,2022.1.1,60.150882474084156,
negative,positive,2,j,l,,,,,,,,,8,3,147,15,,,,,,,,,main,1,1,2,positive,negative,j,j,1,0.8635110000032,409.5696605000121,410.5817852000182,410.56512880002265,None,409.5696605000121,None,409.5696605000121,None,409.5696605000121,None,411.430714389999,None,411.430714389999,None,411.430714389999,None,,,,,,,,,,,,,022,2022-05-18_13h31.13.219,Main,2022.1.1,60.150882474084156,
negative,negative,2,j,l,,,,,,,,,8,4,148,9,,,,,,,,,main,1,1,2,negative,negative,j,j,1,0.6973679000220727,411.4310453000071,412.43070180001087,412.43070180001087,None,411.4310453000071,None,411.4310453000071,None,411.4310453000071,None,413.1307336900121,None,413.1307336900121,None,413.1307336900121,None,,,,,,,,,,,,,022,2022-05-18_13h31.13.219,Main,2022.1.1,60.150882474084156,
positive,positive,1,l,j,,,,,,,,,8,5,149,2,,,,,,,,,main,2,2,1,positive,positive,l,l,1,0.8843784999917261,413.1473886000167,414.1473610000103,414.13070530002005,None,413.1473886000167,None,413.1473886000167,None,413.1473886000167,None,415.0164899900177,None,415.0164899900177,None,415.0164899900177,None,,,,,,,,,,,,,022,2022-05-18_13h31.13.219,Main,2022.1.1,60.150882474084156,
positive,positive,2,l,j,,,,,,,,,8,6,150,11,,,,,,,,,main,1,1,2,positive,positive,l,l,1,0.7484683999791741,415.0195057000092,416.0331010000082,416.01649860001635,None,415.0195057000092,None,415.0195057000092,None,415.0195057000092,None,416.76642309000306,None,416.76642309000306,None,416.76642309000306,None,,,,,,,,,,,,,022,2022-05-18_13h31.13.219,Main,2022.1.1,60.150882474084156,
neutral,neutral,1,k,k,,,,,,,,,8,7,151,1,,,,,,,,,main,2,2,1,neutral,neutral,k,k,1,0.6483364999876358,416.76926410000306,417.78311810002197,417.7664651000232,None,416.76926410000306,None,416.76926410000306,None,416.76926410000306,None,418.4163938900077,None,418.4163938900077,None,418.4163938900077,None,,,,,,,,,,,,,022,2022-05-18_13h31.13.219,Main,2022.1.1,60.150882474084156,
neutral,neutral,2,k,k,,,,,,,,,8,8,152,10,,,,,,,,,main,1,1,2,neutral,neutral,k,k,1,0.645721400011098,418.42015200000606,419.43313770001987,419.41654460001155,None,418.42015200000606,None,418.42015200000606,None,418.42015200000606,None,420.0639137900056,None,420.0639137900056,None,420.0639137900056,None,,,,,,,,,,,,,022,2022-05-18_13h31.13.219,Main,2022.1.1,60.150882474084156,
negative,neutral,2,j,l,,,,,,,,,8,9,153,12,,,,,,,,,main,1,1,2,neutral,negative,j,j,1,0.8320861000102013,420.0702096000023,421.08322180001414,421.06644000002416,None,420.0702096000023,None,420.0702096000023,None,420.0702096000023,None,421.897136689999,None,421.897136689999,None,421.897136689999,None,,,,,,,,,,,,,022,2022-05-18_13h31.13.219,Main,2022.1.1,60.150882474084156,
negative,positive,1,j,l,,,,,,,,,8,10,154,6,,,,,,,,,main,1,1,1,positive,negative,j,j,1,0.8649994999868795,421.897171300021,422.89710860000923,422.89710860000923,None,421.897171300021,None,421.897171300021,None,421.897171300021,None,423.7638385900267,None,423.7638385900267,None,423.7638385900267,None,,,,,,,,,,,,,022,2022-05-18_13h31.13.219,Main,2022.1.1,60.150882474084156,
positive,neutral,2,l,j,,,,,,,,,8,11,155,17,,,,,,,,,main,1,1,2,neutral,positive,l,l,1,0.7986075000080746,423.76729190000333,424.78289460000815,424.749607500009,None,423.76729190000333,None,423.76729190000333,None,423.76729190000333,None,425.5637724900065,None,425.5637724900065,None,425.5637724900065,None,,,,,,,,,,,,,022,2022-05-18_13h31.13.219,Main,2022.1.1,60.150882474084156,
neutral,negative,1,k,k,,,,,,,,,8,12,156,7,,,,,,,,,main,1,1,1,negative,neutral,k,k,1,0.8983372999937274,425.56685470000957,426.566283400025,426.5495992000215,None,425.56685470000957,None,425.56685470000957,None,425.56685470000957,None,427.46376279001413,None,427.46376279001413,None,427.46376279001413,None,,,,,,,,,,,,,022,2022-05-18_13h31.13.219,Main,2022.1.1,60.150882474084156,
neutral,negative,2,k,k,,,,,,,,,8,13,157,16,,,,,,,,,main,1,1,2,negative,neutral,k,k,1,0.748784199997317,427.4689213000238,428.482819100027,428.44956740000634,None,427.4689213000238,None,427.4689213000238,None,427.4689213000238,None,429.21407219001264,None,429.21407219001264,None,429.21407219001264,None,,,,,,,,,,,,,022,2022-05-18_13h31.13.219,Main,2022.1.1,60.150882474084156,
positive,neutral,1,l,j,,,,,,,,,8,14,158,8,,,,,,,,,main,1,1,1,neutral,positive,l,l,1,0.7150631000113208,429.2180264000199,430.23278630001005,430.19979580002837,None,429.2180264000199,None,429.2180264000199,None,429.2180264000199,None,430.9306580900069,None,430.9306580900069,None,430.9306580900069,None,,,,,,,,,,,,,022,2022-05-18_13h31.13.219,Main,2022.1.1,60.150882474084156,
neutral,positive,2,k,k,,,,,,,,,8,15,159,13,,,,,,,,,main,1,1,2,positive,neutral,k,k,1,0.8313862000068184,430.93464280001353,431.9469326000253,431.93064260002575,None,430.93464280001353,None,430.93464280001353,None,430.93464280001353,None,432.7635956900107,None,432.7635956900107,None,432.7635956900107,None,,,,,,,,,,,,,022,2022-05-18_13h31.13.219,Main,2022.1.1,60.150882474084156,
negative,neutral,1,j,l,,,,,,,,,8,16,160,3,,,,,,,,,main,1,1,1,neutral,negative,j,j,1,0.7651076999900397,432.76358950001304,433.763620600017,433.763620600017,None,432.76358950001304,None,432.76358950001304,None,432.76358950001304,None,434.5302327900048,None,434.5302327900048,None,434.5302327900048,None,,,,,,,,,,,,,022,2022-05-18_13h31.13.219,Main,2022.1.1,60.150882474084156,
negative,negative,1,j,l,,,,,,,,,8,17,161,0,,,,,,,,,main,2,2,1,negative,negative,j,j,1,0.7013940000033472,434.5304519000056,435.53025330000673,435.53025330000673,None,434.5304519000056,None,434.5304519000056,None,434.5304519000056,None,436.2329853900213,None,436.2329853900213,None,436.2329853900213,None,,,,,,,,,,,,,022,2022-05-18_13h31.13.219,Main,2022.1.1,60.150882474084156,
neutral,positive,1,k,k,,,,,,,,,9,0,162,4,,,,,,,,,main,1,1,1,positive,neutral,k,k,1,0.8311032000056002,436.23605810001027,437.2493429000024,437.23274280002806,None,436.23605810001027,None,436.23605810001027,None,436.23605810001027,None,438.0659882900276,None,438.0659882900276,None,438.0659882900276,None,,,,,,,,,,,,,022,2022-05-18_13h31.13.219,Main,2022.1.1,60.150882474084156,
positive,neutral,2,l,j,,,,,,,,,9,1,163,17,,,,,,,,,main,2,2,2,neutral,positive,l,l,1,0.7320539000211284,438.0684530000144,439.08261020001373,439.06608370001777,None,438.0684530000144,None,438.0684530000144,None,438.0684530000144,None,439.79928649000647,None,439.79928649000647,None,439.79928649000647,None,,,,,,,,,,,,,022,2022-05-18_13h31.13.219,Main,2022.1.1,60.150882474084156,
positive,positive,1,l,j,,,,,,,,,9,2,164,2,,,,,,,,,main,1,1,1,positive,positive,l,l,1,0.9151002000144217,439.8018488000089,440.8158746000263,440.7992913000053,None,439.8018488000089,None,439.8018488000089,None,439.8018488000089,None,441.71590219000643,None,441.71590219000643,None,441.71590219000643,None,,,,,,,,,,,,,022,2022-05-18_13h31.13.219,Main,2022.1.1,60.150882474084156,
positive,neutral,1,l,j,,,,,,,,,9,3,165,8,,,,,,,,,main,2,2,1,neutral,positive,l,l,1,0.6635457999946084,441.71862980001606,442.72988800000167,442.7124707000039,None,441.71862980001606,None,441.71862980001606,None,441.71862980001606,None,443.38063759000795,None,443.38063759000795,None,443.38063759000795,None,,,,,,,,,,,,,022,2022-05-18_13h31.13.219,Main,2022.1.1,60.150882474084156,
positive,negative,2,l,j,,,,,,,,,9,4,166,14,,,,,,,,,main,2,2,2,negative,positive,l,l,1,0.797828099981416,443.38071020002826,444.380015600007,444.380015600007,None,443.38071020002826,None,443.38071020002826,None,443.38071020002826,None,445.180275890007,None,445.180275890007,None,445.180275890007,None,,,,,,,,,,,,,022,2022-05-18_13h31.13.219,Main,2022.1.1,60.150882474084156,
negative,positive,2,j,l,,,,,,,,,9,5,167,15,,,,,,,,,main,2,2,2,positive,negative,j,j,1,0.8172286000044551,445.18340220002574,446.1825803000247,446.1825803000247,None,445.18340220002574,None,445.18340220002574,None,445.18340220002574,None,446.9991454900213,None,446.9991454900213,None,446.9991454900213,None,,,,,,,,,,,,,022,2022-05-18_13h31.13.219,Main,2022.1.1,60.150882474084156,
negative,negative,1,j,l,,,,,,,,,9,6,168,0,,,,,,,,,main,1,1,1,negative,negative,j,j,1,1.1984283000056166,447.0023723000195,448.0157508000266,447.9991667000286,None,447.0023723000195,None,447.0023723000195,None,447.0023723000195,None,449.19907479001847,None,449.19907479001847,None,449.19907479001847,None,,,,,,,,,,,,,022,2022-05-18_13h31.13.219,Main,2022.1.1,60.150882474084156,
neutral,negative,1,k,k,,,,,,,,,9,7,169,7,,,,,,,,,main,1,1,1,negative,neutral,k,k,1,0.6654060000146274,449.2016210000147,450.216358900012,450.199110800022,None,449.2016210000147,None,449.2016210000147,None,449.2016210000147,None,450.8658245900209,None,450.8658245900209,None,450.8658245900209,None,,,,,,,,,,,,,022,2022-05-18_13h31.13.219,Main,2022.1.1,60.150882474084156,
neutral,positive,2,k,k,,,,,,,,,9,8,170,13,,,,,,,,,main,1,1,2,positive,neutral,k,k,1,0.5647783000022173,450.86925310001243,451.8823714000173,451.8663792000152,None,450.86925310001243,None,450.86925310001243,None,450.86925310001243,None,452.4323503899999,None,452.4323503899999,None,452.4323503899999,None,,,,,,,,,,,,,022,2022-05-18_13h31.13.219,Main,2022.1.1,60.150882474084156,
negative,negative,2,j,l,,,,,,,,,9,9,171,9,,,,,,,,,main,1,1,2,negative,negative,j,j,1,0.7970276999985799,452.44671180000296,453.44649350002874,453.4306352000276,None,452.44671180000296,None,452.44671180000296,None,452.44671180000296,None,454.23075229001404,None,454.23075229001404,None,454.23075229001404,None,,,,,,,,,,,,,022,2022-05-18_13h31.13.219,Main,2022.1.1,60.150882474084156,
neutral,negative,2,k,k,,,,,,,,,9,10,172,16,,,,,,,,,main,1,1,2,negative,neutral,k,k,1,0.7310418999986723,454.2302996000217,455.2298005000048,455.2298005000048,None,454.2302996000217,None,454.2302996000217,None,454.2302996000217,None,455.96316119000255,None,455.96316119000255,None,455.96316119000255,None,,,,,,,,,,,,,022,2022-05-18_13h31.13.219,Main,2022.1.1,60.150882474084156,
positive,positive,2,l,j,,,,,,,,,9,11,173,11,,,,,,,,,main,2,2,2,positive,positive,l,l,1,1.1673110999981873,455.9667154000199,456.98227090001456,456.9656799000222,None,455.9667154000199,None,455.9667154000199,None,455.9667154000199,None,458.13224459002083,None,458.13224459002083,None,458.13224459002083,None,,,,,,,,,,,,,022,2022-05-18_13h31.13.219,Main,2022.1.1,60.150882474084156,
negative,positive,1,j,l,,,,,,,,,9,12,174,6,,,,,,,,,main,2,2,1,positive,negative,j,j,1,0.7151321000128519,458.1358489000122,459.14889760001097,459.1329543000029,None,458.1358489000122,None,458.1358489000122,None,458.1358489000122,None,459.8488531900133,None,459.8488531900133,None,459.8488531900133,None,,,,,,,,,,,,,022,2022-05-18_13h31.13.219,Main,2022.1.1,60.150882474084156,
neutral,neutral,2,k,k,,,,,,,,,9,13,175,10,,,,,,,,,main,1,1,2,neutral,neutral,k,k,1,0.598448400007328,459.8522054000059,460.8654965000169,460.84886640001787,None,459.8522054000059,None,459.8522054000059,None,459.8522054000059,None,461.44884739000406,None,461.44884739000406,None,461.44884739000406,None,,,,,,,,,,,,,022,2022-05-18_13h31.13.219,Main,2022.1.1,60.150882474084156,
negative,neutral,2,j,l,,,,,,,,,9,14,176,12,,,,,,,,,main,2,2,2,neutral,negative,j,j,1,0.7818890000053216,461.4515933000075,462.46546540001873,462.4488594000286,None,461.4515933000075,None,461.4515933000075,None,461.4515933000075,None,463.23213309002165,None,463.23213309002165,None,463.23213309002165,None,,,,,,,,,,,,,022,2022-05-18_13h31.13.219,Main,2022.1.1,60.150882474084156,
negative,neutral,1,j,l,,,,,,,,,9,15,177,3,,,,,,,,,main,2,2,1,neutral,negative,j,j,1,0.8292873999744188,463.2349427000154,464.2462715000147,464.22961250002845,None,463.2349427000154,None,463.2349427000154,None,463.2349427000154,None,465.0629108900233,None,465.0629108900233,None,465.0629108900233,None,,,,,,,,,,,,,022,2022-05-18_13h31.13.219,Main,2022.1.1,60.150882474084156,
neutral,neutral,1,k,k,,,,,,,,,9,16,178,1,,,,,,,,,main,1,1,1,neutral,neutral,k,k,1,0.716895099991234,465.06326470000204,466.06296380001004,466.06296380001004,None,465.06326470000204,None,465.06326470000204,None,465.06326470000204,None,466.78212889000713,None,466.78212889000713,None,466.78212889000713,None,,,,,,,,,,,,,022,2022-05-18_13h31.13.219,Main,2022.1.1,60.150882474084156,
positive,negative,1,l,j,,,,,,,,,9,17,179,5,,,,,,,,,main,2,2,1,negative,positive,l,l,1,0.6650784999947064,466.78608830002486,467.79869270001655,467.78207420001854,None,466.78608830002486,None,466.78608830002486,None,466.78608830002486,None,468.44866349000074,None,468.44866349000074,None,468.44866349000074,None,,,,,,,,,,,,,022,2022-05-18_13h31.13.219,Main,2022.1.1,60.150882474084156,
negative,neutral,2,j,l,,,,,,,,,10,0,180,12,,,,,,,,,main,1,1,2,neutral,negative,j,j,1,0.7815314999897964,468.4512971000222,469.4653094000241,469.4487103000283,None,468.4512971000222,None,468.4512971000222,None,468.4512971000222,None,470.23198799002273,None,470.23198799002273,None,470.23198799002273,None,,,,,,,,,,,,,022,2022-05-18_13h31.13.219,Main,2022.1.1,60.150882474084156,
neutral,neutral,1,k,k,,,,,,,,,10,1,181,1,,,,,,,,,main,1,1,1,neutral,neutral,k,k,1,0.6319293999986257,470.23535750000156,471.2486957000219,471.23206440001377,None,470.23535750000156,None,470.23535750000156,None,470.23535750000156,None,471.8652988900052,None,471.8652988900052,None,471.8652988900052,None,,,,,,,,,,,,,022,2022-05-18_13h31.13.219,Main,2022.1.1,60.150882474084156,
neutral,positive,1,k,k,,,,,,,,,10,2,182,4,,,,,,,,,main,2,2,1,positive,neutral,k,k,1,0.682286200026283,471.86807140000747,472.88186150000547,472.8652649000287,None,471.86807140000747,None,471.86807140000747,None,471.86807140000747,None,473.5489420900034,None,473.5489420900034,None,473.5489420900034,None,,,,,,,,,,,,,022,2022-05-18_13h31.13.219,Main,2022.1.1,60.150882474084156,
negative,positive,2,j,l,,,,,,,,,10,3,183,15,,,,,,,,,main,2,2,2,positive,negative,j,j,1,0.7980198999866843,473.5684763000172,474.581697000016,474.5485189000028,None,473.5684763000172,None,473.5684763000172,None,473.5684763000172,None,475.34838499002797,None,475.34838499002797,None,475.34838499002797,None,,,,,,,,,,,,,022,2022-05-18_13h31.13.219,Main,2022.1.1,60.150882474084156,
positive,neutral,2,l,j,,,,,,,,,10,4,184,17,,,,,,,,,main,1,1,2,neutral,positive,l,l,1,0.7483714999980293,475.3510797000199,476.3650494000176,476.3484356000263,None,475.3510797000199,None,475.3510797000199,None,475.3510797000199,None,477.0983625900029,None,477.0983625900029,None,477.0983625900029,None,,,,,,,,,,,,,022,2022-05-18_13h31.13.219,Main,2022.1.1,60.150882474084156,
negative,negative,2,j,l,,,,,,,,,10,5,185,9,,,,,,,,,main,2,2,2,negative,negative,j,j,1,0.7463062000169884,477.1009400000039,478.1150336000137,478.0984060000046,None,477.1009400000039,None,477.1009400000039,None,477.1009400000039,None,478.8462368900276,None,478.8462368900276,None,478.8462368900276,None,,,,,,,,,,,,,022,2022-05-18_13h31.13.219,Main,2022.1.1,60.150882474084156,
negative,neutral,1,j,l,,,,,,,,,10,6,186,3,,,,,,,,,main,2,2,1,neutral,negative,j,j,1,0.6837750999839045,478.8494070000015,479.84842560000834,479.84842560000834,None,478.8494070000015,None,478.8494070000015,None,478.8494070000015,None,480.5316365900129,None,480.5316365900129,None,480.5316365900129,None,,,,,,,,,,,,,022,2022-05-18_13h31.13.219,Main,2022.1.1,60.150882474084156,
negative,negative,1,j,l,,,,,,,,,10,7,187,0,,,,,,,,,main,2,2,1,negative,negative,j,j,1,0.581782099994598,480.5343338000239,481.54647830000613,481.52988920002826,None,480.5343338000239,None,480.5343338000239,None,480.5343338000239,None,482.1149594900111,None,482.1149594900111,None,482.1149594900111,None,,,,,,,,,,,,,022,2022-05-18_13h31.13.219,Main,2022.1.1,60.150882474084156,
negative,positive,1,j,l,,,,,,,,,10,8,188,6,,,,,,,,,main,2,2,1,positive,negative,j,j,1,0.5327465000154916,482.11761510002543,483.13212080000085,483.11553770001046,None,482.11761510002543,None,482.11761510002543,None,482.11761510002543,None,483.64822299000514,None,483.64822299000514,None,483.64822299000514,None,,,,,,,,,,,,,022,2022-05-18_13h31.13.219,Main,2022.1.1,60.150882474084156,
positive,positive,1,l,j,,,,,,,,,10,9,189,2,,,,,,,,,main,2,2,1,positive,positive,l,l,1,0.6976307000149973,483.6518716000137,484.66489160002675,484.64826870002435,None,483.6518716000137,None,483.6518716000137,None,483.6518716000137,None,485.3482629900012,None,485.3482629900012,None,485.3482629900012,None,,,,,,,,,,,,,022,2022-05-18_13h31.13.219,Main,2022.1.1,60.150882474084156,
neutral,positive,2,k,k,,,,,,,,,10,10,190,13,,,,,,,,,main,2,2,2,positive,neutral,k,k,1,0.5986559999873862,485.3522629000072,486.3649006000196,486.34830270000384,None,485.3522629000072,None,485.3522629000072,None,485.3522629000072,None,486.94820449002725,None,486.94820449002725,None,486.94820449002725,None,,,,,,,,,,,,,022,2022-05-18_13h31.13.219,Main,2022.1.1,60.150882474084156,
positive,negative,2,l,j,,,,,,,,,10,11,191,14,,,,,,,,,main,2,2,2,negative,positive,l,l,1,0.7482687000010628,486.9516078000015,487.9648882000183,487.94835210000747,None,486.9516078000015,None,486.9516078000015,None,486.9516078000015,None,488.6982001900236,None,488.6982001900236,None,488.6982001900236,None,,,,,,,,,,,,,022,2022-05-18_13h31.13.219,Main,2022.1.1,60.150882474084156,
neutral,negative,1,k,k,,,,,,,,,10,12,192,7,,,,,,,,,main,2,2,1,negative,neutral,k,k,1,0.6955261999974027,488.700883100013,489.71483090001857,489.69821480000974,None,488.700883100013,None,488.700883100013,None,488.700883100013,None,490.3950725900271,None,490.3950725900271,None,490.3950725900271,None,,,,,,,,,,,,,022,2022-05-18_13h31.13.219,Main,2022.1.1,60.150882474084156,
neutral,negative,2,k,k,,,,,,,,,10,13,193,16,,,,,,,,,main,2,2,2,negative,neutral,k,k,1,0.6660900000133552,490.3951079000253,491.3957092000055,491.3957092000055,None,490.3951079000253,None,490.3951079000253,None,490.3951079000253,None,492.0623887900059,None,492.0623887900059,None,492.0623887900059,None,,,,,,,,,,,,,022,2022-05-18_13h31.13.219,Main,2022.1.1,60.150882474084156,
positive,positive,2,l,j,,,,,,,,,10,14,194,11,,,,,,,,,main,1,1,2,positive,positive,l,l,1,0.6504609000112396,492.0625600000203,493.0651960000105,493.0651960000105,None,492.0625600000203,None,492.0625600000203,None,492.0625600000203,None,493.71482639002204,None,493.71482639002204,None,493.71482639002204,None,,,,,,,,,,,,,022,2022-05-18_13h31.13.219,Main,2022.1.1,60.150882474084156,
neutral,neutral,2,k,k,,,,,,,,,10,15,195,10,,,,,,,,,main,2,2,2,neutral,neutral,k,k,1,0.6151457999949344,493.7175749000162,494.73144330002833,494.71485140000004,None,493.7175749000162,None,493.7175749000162,None,493.7175749000162,None,495.3314496900042,None,495.3314496900042,None,495.3314496900042,None,,,,,,,,,,,,,022,2022-05-18_13h31.13.219,Main,2022.1.1,60.150882474084156,
positive,neutral,1,l,j,,,,,,,,,10,16,196,8,,,,,,,,,main,2,2,1,neutral,positive,l,l,1,0.6149839999852702,495.334271300002,496.3483828000026,496.33156850002706,None,495.334271300002,None,495.334271300002,None,495.334271300002,None,496.94808759001023,None,496.94808759001023,None,496.94808759001023,None,,,,,,,,,,,,,022,2022-05-18_13h31.13.219,Main,2022.1.1,60.150882474084156,
positive,negative,1,l,j,,,,,,,,,10,17,197,5,,,,,,,,,main,1,1,1,negative,positive,l,l,1,0.6320314999902621,496.95182690001093,497.9647022000281,497.9481748000253,None,496.95182690001093,None,496.95182690001093,None,496.95182690001093,None,498.5813815900095,None,498.5813815900095,None,498.5813815900095,None,,,,,,,,,,,,,022,2022-05-18_13h31.13.219,Main,2022.1.1,60.150882474084156,
positive,neutral,1,l,j,,,,,,,,,11,0,198,8,,,,,,,,,main,1,1,1,neutral,positive,l,l,1,0.6500691999972332,498.58411230001366,499.5980309000006,499.5814088000043,None,498.58411230001366,None,498.58411230001366,None,498.58411230001366,None,500.2330082900211,None,500.2330082900211,None,500.2330082900211,None,,,,,,,,,,,,,022,2022-05-18_13h31.13.219,Main,2022.1.1,60.150882474084156,
neutral,neutral,2,k,k,,,,,,,,,11,1,199,10,,,,,,,,,main,2,2,2,neutral,neutral,k,k,1,0.6608580999891274,500.24573610001244,501.245501300029,501.22885730001144,None,500.24573610001244,None,500.24573610001244,None,500.24573610001244,None,501.89547689002063,None,501.89547689002063,None,501.89547689002063,None,,,,,,,,,,,,,022,2022-05-18_13h31.13.219,Main,2022.1.1,60.150882474084156,
positive,negative,2,l,j,,,,,,,,,11,2,200,14,,,,,,,,,main,2,2,2,negative,positive,l,l,1,0.6510292000020854,501.8959064000228,502.8986929000239,502.8986929000239,None,501.8959064000228,None,501.8959064000228,None,501.8959064000228,None,503.54795589000275,None,503.54795589000275,None,503.54795589000275,None,,,,,,,,,,,,,022,2022-05-18_13h31.13.219,Main,2022.1.1,60.150882474084156,
positive,negative,1,l,j,,,,,,,,,11,3,201,5,,,,,,,,,main,2,2,1,negative,positive,l,l,1,0.6986161000095308,503.5509438000154,504.5649978000147,504.5482703000016,None,503.5509438000154,None,503.5509438000154,None,503.5509438000154,None,505.2479038900259,None,505.2479038900259,None,505.2479038900259,None,,,,,,,,,,,,,022,2022-05-18_13h31.13.219,Main,2022.1.1,60.150882474084156,
negative,neutral,2,j,l,,,,,,,,,11,4,202,12,,,,,,,,,main,2,2,2,neutral,negative,j,j,1,0.8983450999949127,505.2509092000255,506.2646579000284,506.2483199000126,None,505.2509092000255,None,505.2509092000255,None,505.2509092000255,None,507.14793629000485,None,507.14793629000485,None,507.14793629000485,None,,,,,,,,,,,,,022,2022-05-18_13h31.13.219,Main,2022.1.1,60.150882474084156,
negative,positive,2,j,l,,,,,,,,,11,5,203,15,,,,,,,,,main,2,2,2,positive,negative,j,j,1,0.6649761000007857,507.1508835000277,508.16452160000335,508.1481456000183,None,507.1508835000277,None,507.1508835000277,None,507.1508835000277,None,508.8144704900245,None,508.8144704900245,None,508.8144704900245,None,,,,,,,,,,,,,022,2022-05-18_13h31.13.219,Main,2022.1.1,60.150882474084156,
negative,neutral,1,j,l,,,,,,,,,11,6,204,3,,,,,,,,,main,1,1,1,neutral,negative,j,j,1,0.7127441000193357,508.8178044000233,509.81760580002447,509.81760580002447,None,508.8178044000233,None,508.8178044000233,None,508.8178044000233,None,510.5287072900013,None,510.5287072900013,None,510.5287072900013,None,,,,,,,,,,,,,022,2022-05-18_13h31.13.219,Main,2022.1.1,60.150882474084156,
positive,neutral,2,l,j,,,,,,,,,11,7,205,17,,,,,,,,,main,1,1,2,neutral,positive,l,l,1,0.7320530000142753,510.52866120002,511.52859660002287,511.52859660002287,None,510.52866120002,None,510.52866120002,None,510.52866120002,None,512.2622083900118,None,512.2622083900118,None,512.2622083900118,None,,,,,,,,,,,,,022,2022-05-18_13h31.13.219,Main,2022.1.1,60.150882474084156,
neutral,neutral,1,k,k,,,,,,,,,11,8,206,1,,,,,,,,,main,1,1,1,neutral,neutral,k,k,1,0.5672302999882959,512.2620871000108,513.2619572000112,513.2485495000146,None,512.2620871000108,None,512.2620871000108,None,512.2620871000108,None,513.8311031900142,None,513.8311031900142,None,513.8311031900142,None,,,,,,,,,,,,,022,2022-05-18_13h31.13.219,Main,2022.1.1,60.150882474084156,
negative,negative,1,j,l,,,,,,,,,11,9,207,0,,,,,,,,,main,1,1,1,negative,negative,j,j,1,0.7320197999943048,513.8338618000271,514.8476989000046,514.8311190000095,None,513.8338618000271,None,513.8338618000271,None,513.8338618000271,None,515.5643503900122,None,515.5643503900122,None,515.5643503900122,None,,,,,,,,,,,,,022,2022-05-18_13h31.13.219,Main,2022.1.1,60.150882474084156,
positive,positive,2,l,j,,,,,,,,,11,10,208,11,,,,,,,,,main,2,2,2,positive,positive,l,l,1,0.7485785000026226,515.5674316000077,516.5810915000038,516.5644241000118,None,515.5674316000077,None,515.5674316000077,None,515.5674316000077,None,517.3143336900015,None,517.3143336900015,None,517.3143336900015,None,,,,,,,,,,,,,022,2022-05-18_13h31.13.219,Main,2022.1.1,60.150882474084156,
negative,negative,2,j,l,,,,,,,,,11,11,209,9,,,,,,,,,main,1,1,2,negative,negative,j,j,1,0.8148578999971505,517.3172268000199,518.3310329000233,518.314437300025,None,517.3172268000199,None,517.3172268000199,None,517.3172268000199,None,519.1309805900004,None,519.1309805900004,None,519.1309805900004,None,,,,,,,,,,,,,022,2022-05-18_13h31.13.219,Main,2022.1.1,60.150882474084156,
neutral,negative,2,k,k,,,,,,,,,11,12,210,16,,,,,,,,,main,2,2,2,negative,neutral,k,k,1,0.6821309000079054,519.1335417000228,520.147698100016,520.1310822000087,None,519.1335417000228,None,519.1335417000228,None,519.1335417000228,None,520.8144955900119,None,520.8144955900119,None,520.8144955900119,None,,,,,,,,,,,,,022,2022-05-18_13h31.13.219,Main,2022.1.1,60.150882474084156,
neutral,positive,1,k,k,,,,,,,,,11,13,211,4,,,,,,,,,main,1,1,1,positive,neutral,k,k,1,0.7291315000038594,520.8139323000214,521.8283769000263,521.8123109000153,None,520.8139323000214,None,520.8139323000214,None,520.8139323000214,None,522.545039089999,None,522.545039089999,None,522.545039089999,None,,,,,,,,,,,,,022,2022-05-18_13h31.13.219,Main,2022.1.1,60.150882474084156,
neutral,negative,1,k,k,,,,,,,,,11,14,212,7,,,,,,,,,main,1,1,1,negative,neutral,k,k,1,0.5826315999729559,522.5450466000184,523.5475323000283,523.5310628000007,None,522.5450466000184,None,522.5450466000184,None,522.5450466000184,None,524.1291348900035,None,524.1291348900035,None,524.1291348900035,None,,,,,,,,,,,,,022,2022-05-18_13h31.13.219,Main,2022.1.1,60.150882474084156,
negative,positive,1,j,l,,,,,,,,,11,15,213,6,,,,,,,,,main,2,2,1,positive,negative,j,j,1,0.8010096000216436,524.1348255000194,525.1475701000018,525.1309223000135,None,524.1348255000194,None,524.1348255000194,None,524.1348255000194,None,525.9308228900103,None,525.9308228900103,None,525.9308228900103,None,,,,,,,,,,,,,022,2022-05-18_13h31.13.219,Main,2022.1.1,60.150882474084156,
positive,positive,1,l,j,,,,,,,,,11,16,214,2,,,,,,,,,main,1,1,1,positive,positive,l,l,1,0.6808080000046175,525.9347685000103,526.9474575000058,526.9308894000133,None,525.9347685000103,None,525.9347685000103,None,525.9347685000103,None,527.6141086900228,None,527.6141086900228,None,527.6141086900228,None,,,,,,,,,,,,,022,2022-05-18_13h31.13.219,Main,2022.1.1,60.150882474084156,
neutral,positive,2,k,k,,,,,,,,,11,17,215,13,,,,,,,,,main,1,1,2,positive,neutral,k,k,1,0.7485168999992311,527.6176283000095,528.6308180000051,528.6142737000191,None,527.6176283000095,None,527.6176283000095,None,527.6176283000095,None,529.3640913900075,None,529.3640913900075,None,529.3640913900075,None,,,,,,,,,,,,,022,2022-05-18_13h31.13.219,Main,2022.1.1,60.150882474084156,
negative,positive,2,j,l,,,,,,,,,12,0,216,15,,,,,,,,,main,1,1,2,positive,negative,j,j,1,0.7621791000128724,529.3678639000282,530.3778350000212,530.3605876000074,None,529.3678639000282,None,529.3678639000282,None,529.3678639000282,None,531.1281951900077,None,531.1281951900077,None,531.1281951900077,None,,,,,,,,,,,,,022,2022-05-18_13h31.13.219,Main,2022.1.1,60.150882474084156,
neutral,neutral,1,k,k,,,,,,,,,12,1,217,1,,,,,,,,,main,1,1,1,neutral,neutral,k,k,1,0.7316593000141438,531.1282095000206,532.1289929000195,532.1289929000195,None,531.1282095000206,None,531.1282095000206,None,531.1282095000206,None,532.8615596900257,None,532.8615596900257,None,532.8615596900257,None,,,,,,,,,,,,,022,2022-05-18_13h31.13.219,Main,2022.1.1,60.150882474084156,
negative,negative,1,j,l,,,,,,,,,12,2,218,0,,,,,,,,,main,1,1,1,negative,negative,j,j,1,0.7697754000255372,532.8645355000044,533.8639178000158,533.847356800019,None,532.8645355000044,None,532.8645355000044,None,532.8645355000044,None,534.6319537900184,None,534.6319537900184,None,534.6319537900184,None,,,,,,,,,,,,,022,2022-05-18_13h31.13.219,Main,2022.1.1,60.150882474084156,
neutral,positive,1,k,k,,,,,,,,,12,3,219,4,,,,,,,,,main,1,1,1,positive,neutral,k,k,1,0.763193599996157,534.6360780000105,535.6473316000192,535.6306555000192,None,534.6360780000105,None,534.6360780000105,None,534.6360780000105,None,536.3973058900068,None,536.3973058900068,None,536.3973058900068,None,,,,,,,,,,,,,022,2022-05-18_13h31.13.219,Main,2022.1.1,60.150882474084156,
positive,neutral,1,l,j,,,,,,,,,12,4,220,8,,,,,,,,,main,2,2,1,neutral,positive,l,l,1,0.7153031000052579,536.4003716000007,537.4138914000068,537.3972806000093,None,536.4003716000007,None,536.4003716000007,None,536.4003716000007,None,538.1138870900235,None,538.1138870900235,None,538.1138870900235,None,,,,,,,,,,,,,022,2022-05-18_13h31.13.219,Main,2022.1.1,60.150882474084156,
neutral,negative,2,k,k,,,,,,,,,12,5,221,16,,,,,,,,,main,2,2,2,negative,neutral,k,k,1,0.6636582000064664,538.1170821000123,539.1305004000023,539.1138821000059,None,538.1170821000123,None,538.1170821000123,None,538.1170821000123,None,539.778376690016,None,539.778376690016,None,539.778376690016,None,,,,,,,,,,,,,022,2022-05-18_13h31.13.219,Main,2022.1.1,60.150882474084156,
negative,neutral,1,j,l,,,,,,,,,12,6,222,3,,,,,,,,,main,2,2,1,neutral,negative,j,j,1,0.7343447000021115,539.7824620000029,540.7946532000205,540.7779862000025,None,539.7824620000029,None,539.7824620000029,None,539.7824620000029,None,541.5114042900008,None,541.5114042900008,None,541.5114042900008,None,,,,,,,,,,,,,022,2022-05-18_13h31.13.219,Main,2022.1.1,60.150882474084156,
positive,positive,2,l,j,,,,,,,,,12,7,223,11,,,,,,,,,main,1,1,2,positive,positive,l,k,0,0.6277896999963559,541.5154627000156,542.5296515000227,542.5130049000145,None,541.5154627000156,None,541.5154627000156,None,541.5154627000156,None,543.1446396000101,None,543.1446396000101,None,543.1446396000101,None,,,,,,,,,,,,,022,2022-05-18_13h31.13.219,Main,2022.1.1,60.150882474084156,
