target,distractor,set,ans1,ans2,rep_loop2.thisRepN,rep_loop2.thisTrialN,rep_loop2.thisN,rep_loop2.thisIndex,flanker_prac_loop.thisRepN,flanker_prac_loop.thisTrialN,flanker_prac_loop.thisN,flanker_prac_loop.thisIndex,flanker_main_loop.thisRepN,flanker_main_loop.thisTrialN,flanker_main_loop.thisN,flanker_main_loop.thisIndex,fl_inst_resp.keys,fl_inst_resp.rt,sound_1.started,sound_1.stopped,image_4.started,image_4.stopped,back_2.started,back_2.stopped,main_prac,fl_cold,fl_colt,fl_set,fl_dcond,fl_tcond,fl_ans,fl_res,fl_corr,fl_rt,fix_fl.started,fix_fl.stopped,targ.started,targ.stopped,j_button.started,j_button.stopped,k_button.started,k_button.stopped,l_button.started,l_button.stopped,j_button2.started,j_button2.stopped,k_button2.started,k_button2.stopped,l_button2.started,l_button2.stopped,mainback.started,mainback.stopped,key_resp.keys,mouse_6.x,mouse_6.y,mouse_6.leftButton,mouse_6.midButton,mouse_6.rightButton,mouse_6.started,mouse_6.stopped,text_2.started,text_2.stopped,id*,date,expName,psychopyVersion,frameRate,
,,,,,0,0,0,0,,,,,,,,,space,55.822813399950974,26.973497969977323,None,82.82244620000711,None,,,,,,,,,,,,,,,,,,,,,,,,,,,,,,,,,,,,,,,,,023,2022-05-18_17h22.39.163,Main,2022.1.1,61.09123609088335,
positive,negative,1,l,j,,,,,0,0,0,5,,,,,,,,,,,86.42234210000606,None,prac,2,2,1,negative,positive,j,j,1,2.7911194000043906,88.44586859998526,89.45296799996868,89.43657879997045,None,88.44586859998526,None,88.44586859998526,None,88.44586859998526,None,92.23922769998899,None,92.23922769998899,None,92.23922769998899,None,,,,,,,,,,,,,023,2022-05-18_17h22.39.163,Main,2022.1.1,61.09123609088335,
negative,positive,2,j,l,,,,,0,1,1,15,,,,,,,,,,,,,prac,2,2,2,positive,negative,l,l,1,1.034103599959053,93.257987399993,94.27213549998123,94.23654499999247,None,93.257987399993,None,93.257987399993,None,93.257987399993,None,95.28646227002028,None,95.28646227002028,None,95.28646227002028,None,,,,,,,,,,,,,023,2022-05-18_17h22.39.163,Main,2022.1.1,61.09123609088335,
neutral,neutral,2,k,k,,,,,0,2,2,10,,,,,,,,,,,,,prac,2,2,2,neutral,neutral,k,k,1,0.731340900005307,95.29263929999433,96.30536120000761,96.28876139997737,None,95.29263929999433,None,95.29263929999433,None,95.29263929999433,None,97.01976746996516,None,97.01976746996516,None,97.01976746996516,None,,,,,,,,,,,,,023,2022-05-18_17h22.39.163,Main,2022.1.1,61.09123609088335,
positive,positive,2,l,j,,,,,0,3,3,11,,,,,,,,,,,,,prac,1,1,2,positive,positive,j,j,1,0.6816014999640174,97.02656749996822,98.03610099997604,98.0194337000139,None,97.02656749996822,None,97.02656749996822,None,97.02656749996822,None,98.70273046999355,None,98.70273046999355,None,98.70273046999355,None,,,,,,,,,,,,,023,2022-05-18_17h22.39.163,Main,2022.1.1,61.09123609088335,
neutral,negative,2,k,k,,,,,0,4,4,16,,,,,,,,,,,,,prac,1,1,2,negative,neutral,k,k,1,0.6655407000216655,98.70278330001747,99.70281049999176,99.70281049999176,None,98.70278330001747,None,98.70278330001747,None,98.70278330001747,None,100.36945376999793,None,100.36945376999793,None,100.36945376999793,None,,,,,,,,,,,,,023,2022-05-18_17h22.39.163,Main,2022.1.1,61.09123609088335,
positive,neutral,2,l,j,,,,,0,5,5,17,,,,,,,,,,,,,prac,1,1,2,neutral,positive,j,j,1,0.5979379999917,100.38128440000582,101.3886340999743,101.37203959998442,None,100.38128440000582,None,100.38128440000582,None,100.38128440000582,None,101.96966537001427,None,101.96966537001427,None,101.96966537001427,None,,,,,,,,,,,,,023,2022-05-18_17h22.39.163,Main,2022.1.1,61.09123609088335,
neutral,positive,1,k,k,,,,,0,6,6,4,,,,,,,,,,,,,prac,2,2,1,positive,neutral,k,k,1,0.6156493999878876,101.97520919999806,102.9887440999737,102.95530929998495,None,101.97520919999806,None,101.97520919999806,None,101.97520919999806,None,103.58638896997437,None,103.58638896997437,None,103.58638896997437,None,,,,,,,,,,,,,023,2022-05-18_17h22.39.163,Main,2022.1.1,61.09123609088335,
positive,positive,1,l,j,,,,,0,7,7,2,,,,,,,,,,,,,prac,2,2,1,positive,positive,j,j,1,0.6819454000215046,103.59019000001717,104.60521579999477,104.58631300000707,None,103.59019000001717,None,103.59019000001717,None,103.59019000001717,None,105.26958846999915,None,105.26958846999915,None,105.26958846999915,None,,,,,,,,,,,,,023,2022-05-18_17h22.39.163,Main,2022.1.1,61.09123609088335,
negative,negative,2,j,l,,,,,0,8,8,9,,,,,,,,,,,,,prac,1,1,2,negative,negative,l,l,1,0.6650240000453778,105.27542640001047,106.28841909999028,106.26961989997653,None,105.27542640001047,None,105.27542640001047,None,105.27542640001047,None,106.9362419699959,None,106.9362419699959,None,106.9362419699959,None,,,,,,,,,,,,,023,2022-05-18_17h22.39.163,Main,2022.1.1,61.09123609088335,
positive,neutral,1,l,j,,,,,0,9,9,8,,,,,,,,,,,,,prac,2,2,1,neutral,positive,j,j,1,0.7660144999972545,106.95314120000694,107.95288529997924,107.93591120000929,None,106.95314120000694,None,106.95314120000694,None,106.95314120000694,None,108.7025075699843,None,108.7025075699843,None,108.7025075699843,None,,,,,,,,,,,,,023,2022-05-18_17h22.39.163,Main,2022.1.1,61.09123609088335,
negative,positive,1,j,l,,,,,0,10,10,6,,,,,,,,,,,,,prac,2,2,1,positive,negative,l,j,0,0.6312421999755315,108.70307799999136,109.70258280000417,109.70258280000417,None,108.70307799999136,None,108.70307799999136,None,108.70307799999136,None,110.33591329999035,None,110.33591329999035,None,110.33591329999035,None,,,,,,,,,,,,,023,2022-05-18_17h22.39.163,Main,2022.1.1,61.09123609088335,
negative,neutral,2,j,l,,,,,0,11,11,12,,,,,,,,,,,,,prac,1,1,2,neutral,negative,l,l,1,1.0377274999627843,111.3370186999673,112.33846850000555,112.32179650000762,None,111.3370186999673,None,111.3370186999673,None,111.3370186999673,None,113.36941587000038,None,113.36941587000038,None,113.36941587000038,None,,,,,,,,,,,,,023,2022-05-18_17h22.39.163,Main,2022.1.1,61.09123609088335,
positive,negative,2,l,j,,,,,0,12,12,14,,,,,,,,,,,,,prac,1,1,2,negative,positive,j,j,1,0.6806134000071324,113.37384309998015,114.386165599979,114.3694886000012,None,113.37384309998015,None,113.37384309998015,None,113.37384309998015,None,115.05286316999118,None,115.05286316999118,None,115.05286316999118,None,,,,,,,,,,,,,023,2022-05-18_17h22.39.163,Main,2022.1.1,61.09123609088335,
neutral,positive,2,k,k,,,,,0,13,13,13,,,,,,,,,,,,,prac,2,2,2,positive,neutral,k,k,1,0.4985177000053227,115.0567744,116.06946470000548,116.03848039999139,None,115.0567744,None,115.0567744,None,115.0567744,None,116.55243456998724,None,116.55243456998724,None,116.55243456998724,None,,,,,,,,,,,,,023,2022-05-18_17h22.39.163,Main,2022.1.1,61.09123609088335,
negative,negative,1,j,l,,,,,0,14,14,0,,,,,,,,,,,,,prac,2,2,1,negative,negative,l,l,1,0.6318541000364348,116.55932629999006,117.5696736999671,117.55275530001381,None,116.55932629999006,None,116.55932629999006,None,116.55932629999006,None,118.18601377000451,None,118.18601377000451,None,118.18601377000451,None,,,,,,,,,,,,,023,2022-05-18_17h22.39.163,Main,2022.1.1,61.09123609088335,
neutral,neutral,1,k,k,,,,,0,15,15,1,,,,,,,,,,,,,prac,1,1,1,neutral,neutral,k,k,1,0.6814490000251681,118.19166579999728,119.2023350999807,119.18589759996394,None,118.19166579999728,None,118.19166579999728,None,118.19166579999728,None,119.86895087001031,None,119.86895087001031,None,119.86895087001031,None,,,,,,,,,,,,,023,2022-05-18_17h22.39.163,Main,2022.1.1,61.09123609088335,
neutral,negative,1,k,k,,,,,0,16,16,7,,,,,,,,,,,,,prac,1,1,1,negative,neutral,k,k,1,0.5826559000415727,119.86901249998482,120.86902669997653,120.86902669997653,None,119.86901249998482,None,119.86901249998482,None,119.86901249998482,None,121.45295966999257,None,121.45295966999257,None,121.45295966999257,None,,,,,,,,,,,,,023,2022-05-18_17h22.39.163,Main,2022.1.1,61.09123609088335,
negative,neutral,1,j,l,,,,,0,17,17,3,,,,,,,,,,,,,prac,1,1,1,neutral,negative,l,l,1,0.9318457000190392,121.45666510000592,122.46932819997892,122.4549542000168,None,121.45666510000592,None,121.45666510000592,None,121.45666510000592,None,123.38590346999118,None,123.38590346999118,None,123.38590346999118,None,,,,,,,,,,,,,023,2022-05-18_17h22.39.163,Main,2022.1.1,61.09123609088335,
neutral,neutral,1,k,k,,,,,1,0,18,1,,,,,,,,,,,,,prac,2,2,1,neutral,neutral,k,k,1,0.6152314999490045,123.39128599996911,124.40480379998917,124.38817749998998,None,123.39128599996911,None,123.39128599996911,None,123.39128599996911,None,125.00253906997969,None,125.00253906997969,None,125.00253906997969,None,,,,,,,,,,,,,023,2022-05-18_17h22.39.163,Main,2022.1.1,61.09123609088335,
neutral,negative,1,k,k,,,,,1,1,19,7,,,,,,,,,,,,,prac,2,2,1,negative,neutral,k,k,1,0.5668484999914654,125.00626970001031,126.02151320001576,126.00257359998068,None,125.00626970001031,None,125.00626970001031,None,125.00626970001031,None,126.5706386700098,None,126.5706386700098,None,126.5706386700098,None,,,,,,,,,,,,,023,2022-05-18_17h22.39.163,Main,2022.1.1,61.09123609088335,
negative,negative,1,j,l,,,,,1,2,20,0,,,,,,,,,,,,,prac,2,2,1,negative,negative,l,l,1,0.8138760000001639,126.57618570001796,127.58588659996167,127.57142609998118,None,126.57618570001796,None,126.57618570001796,None,126.57618570001796,None,128.3857810699905,None,128.3857810699905,None,128.3857810699905,None,,,,,,,,,,,,,023,2022-05-18_17h22.39.163,Main,2022.1.1,61.09123609088335,
positive,positive,2,l,j,,,,,1,3,21,11,,,,,,,,,,,,,prac,1,1,2,positive,positive,j,j,1,0.5816406999947503,128.4078372999793,129.41912249999586,129.38569059997099,None,128.4078372999793,None,128.4078372999793,None,128.4078372999793,None,129.9687638700183,None,129.9687638700183,None,129.9687638700183,None,,,,,,,,,,,,,023,2022-05-18_17h22.39.163,Main,2022.1.1,61.09123609088335,
neutral,positive,2,k,k,,,,,1,4,22,13,,,,,,,,,,,,,prac,2,2,2,positive,neutral,k,k,1,0.5657457999768667,129.96879159996752,130.96909089997644,130.96909089997644,None,129.96879159996752,None,129.96879159996752,None,129.96879159996752,None,131.53571997001418,None,131.53571997001418,None,131.53571997001418,None,,,,,,,,,,,,,023,2022-05-18_17h22.39.163,Main,2022.1.1,61.09123609088335,
positive,neutral,2,l,j,,,,,1,5,23,17,,,,,,,,,,,,,prac,1,1,2,neutral,positive,j,j,1,0.548471000045538,131.53605419996893,132.5354749999824,132.5354749999824,None,131.53605419996893,None,131.53605419996893,None,131.53605419996893,None,133.08573806996574,None,133.08573806996574,None,133.08573806996574,None,,,,,,,,,,,,,023,2022-05-18_17h22.39.163,Main,2022.1.1,61.09123609088335,
negative,negative,2,j,l,,,,,1,6,24,9,,,,,,,,,,,,,prac,1,1,2,negative,negative,l,l,1,0.6363089000224136,133.08969699998852,134.10468340001535,134.0714513999992,None,133.08969699998852,None,133.08969699998852,None,133.08969699998852,None,134.7203105699795,None,134.7203105699795,None,134.7203105699795,None,,,,,,,,,,,,,023,2022-05-18_17h22.39.163,Main,2022.1.1,61.09123609088335,
negative,positive,2,j,l,,,,,1,7,25,15,,,,,,,,,,,,,prac,2,2,2,positive,negative,l,l,1,0.7280597999924794,134.72607109998353,135.73784640000667,135.72130889998516,None,134.72607109998353,None,134.72607109998353,None,134.72607109998353,None,136.4523096699908,None,136.4523096699908,None,136.4523096699908,None,,,,,,,,,,,,,023,2022-05-18_17h22.39.163,Main,2022.1.1,61.09123609088335,
negative,neutral,2,j,l,,,,,1,8,26,12,,,,,,,,,,,,,prac,2,2,2,neutral,negative,l,l,1,0.551061199977994,136.45578409999143,137.4712797999964,137.45464870001888,None,136.45578409999143,None,136.45578409999143,None,136.45578409999143,None,138.004378870019,None,138.004378870019,None,138.004378870019,None,,,,,,,,,,,,,023,2022-05-18_17h22.39.163,Main,2022.1.1,61.09123609088335,
negative,positive,1,j,l,,,,,1,9,27,6,,,,,,,,,,,,,prac,2,2,1,positive,negative,l,l,1,0.59664259996498,138.00894329999574,139.01922379998723,139.00259360001655,None,138.00894329999574,None,138.00894329999574,None,138.00894329999574,None,139.60224737000536,None,139.60224737000536,None,139.60224737000536,None,,,,,,,,,,,,,023,2022-05-18_17h22.39.163,Main,2022.1.1,61.09123609088335,
neutral,neutral,2,k,k,,,,,1,10,28,10,,,,,,,,,,,,,prac,2,2,2,neutral,neutral,k,k,1,0.6147622000426054,139.60613400000148,140.6187964999699,140.60191019997,None,139.60613400000148,None,139.60613400000148,None,139.60613400000148,None,141.218490369973,None,141.218490369973,None,141.218490369973,None,,,,,,,,,,,,,023,2022-05-18_17h22.39.163,Main,2022.1.1,61.09123609088335,
negative,neutral,1,j,l,,,,,1,11,29,3,,,,,,,,,,,,,prac,1,1,1,neutral,negative,l,l,1,0.5990152999875136,141.21912759996485,142.2185486999806,142.2185486999806,None,141.21912759996485,None,141.21912759996485,None,141.21912759996485,None,142.81883706997033,None,142.81883706997033,None,142.81883706997033,None,,,,,,,,,,,,,023,2022-05-18_17h22.39.163,Main,2022.1.1,61.09123609088335,
positive,positive,1,l,j,,,,,1,12,30,2,,,,,,,,,,,,,prac,2,2,1,positive,positive,j,l,0,0.5652053999947384,142.8224307000055,143.83570349996444,143.81911789998412,None,142.8224307000055,None,142.8224307000055,None,142.8224307000055,None,144.38551300001564,None,144.38551300001564,None,144.38551300001564,None,,,,,,,,,,,,,023,2022-05-18_17h22.39.163,Main,2022.1.1,61.09123609088335,
positive,neutral,1,l,j,,,,,1,13,31,8,,,,,,,,,,,,,prac,1,1,1,neutral,positive,j,j,1,1.1678975999820977,145.38683540001512,146.38547029998153,146.37110129999928,None,145.38683540001512,None,145.38683540001512,None,145.38683540001512,None,147.55204877001816,None,147.55204877001816,None,147.55204877001816,None,,,,,,,,,,,,,023,2022-05-18_17h22.39.163,Main,2022.1.1,61.09123609088335,
neutral,positive,1,k,k,,,,,1,14,32,4,,,,,,,,,,,,,prac,1,1,1,positive,neutral,k,k,1,0.7486425000242889,147.55541630001971,148.57104750000872,148.55440129997442,None,147.55541630001971,None,147.55541630001971,None,147.55541630001971,None,149.30201976997196,None,149.30201976997196,None,149.30201976997196,None,,,,,,,,,,,,,023,2022-05-18_17h22.39.163,Main,2022.1.1,61.09123609088335,
positive,negative,1,l,j,,,,,1,15,33,5,,,,,,,,,,,,,prac,1,1,1,negative,positive,j,j,1,0.9512180999736302,149.3053412999725,150.31836139998632,150.30166290001944,None,149.3053412999725,None,149.3053412999725,None,149.3053412999725,None,151.2516743699729,None,151.2516743699729,None,151.2516743699729,None,,,,,,,,,,,,,023,2022-05-18_17h22.39.163,Main,2022.1.1,61.09123609088335,
neutral,negative,2,k,k,,,,,1,16,34,16,,,,,,,,,,,,,prac,2,2,2,negative,neutral,k,k,1,0.6457845999975689,151.2543338999967,152.26834070001496,152.25167079997482,None,151.2543338999967,None,151.2543338999967,None,151.2543338999967,None,152.90161706996733,None,152.90161706996733,None,152.90161706996733,None,,,,,,,,,,,,,023,2022-05-18_17h22.39.163,Main,2022.1.1,61.09123609088335,
positive,negative,2,l,j,,,,,1,17,35,14,,,,,,,,,,,,,prac,1,1,2,negative,positive,j,j,1,0.6156453000148758,152.90184449998196,153.90197890001582,153.90197890001582,None,152.90184449998196,None,152.90184449998196,None,152.90184449998196,None,154.51864496997442,None,154.51864496997442,None,154.51864496997442,None,,,,,,,,,,,,,023,2022-05-18_17h22.39.163,Main,2022.1.1,61.09123609088335,
,,,,,,,,,,,,,,,,,,,,,,,,,,,,,,,,,,,,,,,,,,,,,,,,,,,154.5210341999773,None,None,,,,,,,,,,023,2022-05-18_17h22.39.163,Main,2022.1.1,61.09123609088335,
,,,,,,,,,,,,,,,,,,,,,,,,,,,,,,,,,,,,,,,,,,,,,,,,,,,,,,0.65833336,-0.33425927,1,0,0,0.011006170010659844,None,,,023,2022-05-18_17h22.39.163,Main,2022.1.1,61.09123609088335,
neutral,positive,2,k,k,,,,,,,,,0,0,0,13,,,,,,,160.33526339998934,None,main,1,1,2,positive,neutral,k,k,1,0.6438909000135027,162.3395285999868,163.3514259000076,163.33476970001357,None,162.3395285999868,None,162.3395285999868,None,162.3395285999868,None,163.98472716997495,None,163.98472716997495,None,163.98472716997495,None,,,,,,,,,,,,,023,2022-05-18_17h22.39.163,Main,2022.1.1,61.09123609088335,
negative,negative,1,j,l,,,,,,,,,0,1,1,0,,,,,,,,,main,2,2,1,negative,negative,l,l,1,0.6808739999542013,163.9863446999807,165.00143389997538,164.9847679999657,None,163.9863446999807,None,163.9863446999807,None,163.9863446999807,None,165.66806396999746,None,165.66806396999746,None,165.66806396999746,None,,,,,,,,,,,,,023,2022-05-18_17h22.39.163,Main,2022.1.1,61.09123609088335,
neutral,positive,1,k,k,,,,,,,,,0,2,2,4,,,,,,,,,main,1,1,1,positive,neutral,k,k,1,0.6162599000381306,165.67442070000106,166.6848831999814,166.6707001000177,None,165.67442070000106,None,165.67442070000106,None,165.67442070000106,None,167.28498587001232,None,167.28498587001232,None,167.28498587001232,None,,,,,,,,,,,,,023,2022-05-18_17h22.39.163,Main,2022.1.1,61.09123609088335,
neutral,neutral,2,k,k,,,,,,,,,0,3,3,10,,,,,,,,,main,1,1,2,neutral,neutral,k,k,1,0.6305318999802694,167.28944580000825,168.30386609997367,168.28503450000426,None,167.28944580000825,None,167.28944580000825,None,167.28944580000825,None,168.91830636998057,None,168.91830636998057,None,168.91830636998057,None,,,,,,,,,,,,,023,2022-05-18_17h22.39.163,Main,2022.1.1,61.09123609088335,
negative,neutral,2,j,l,,,,,,,,,0,4,4,12,,,,,,,,,main,2,2,2,neutral,negative,l,l,1,0.7151227000285871,168.92431590001797,169.93526529998053,169.91867549996823,None,168.92431590001797,None,168.92431590001797,None,168.92431590001797,None,170.6349215699651,None,170.6349215699651,None,170.6349215699651,None,,,,,,,,,,,,,023,2022-05-18_17h22.39.163,Main,2022.1.1,61.09123609088335,
positive,positive,1,l,j,,,,,,,,,0,5,5,2,,,,,,,,,main,1,1,1,positive,positive,j,j,1,0.9316025000298396,170.6410409999662,171.65395389997866,171.63544819998788,None,170.6410409999662,None,170.6410409999662,None,170.6410409999662,None,172.5682006700139,None,172.5682006700139,None,172.5682006700139,None,,,,,,,,,,,,,023,2022-05-18_17h22.39.163,Main,2022.1.1,61.09123609088335,
positive,neutral,2,l,j,,,,,,,,,0,6,6,17,,,,,,,,,main,2,2,2,neutral,positive,j,j,1,0.6647147000185214,172.58496010000817,173.58707359997788,173.5705556999892,None,172.58496010000817,None,172.58496010000817,None,172.58496010000817,None,174.2344367699756,None,174.2344367699756,None,174.2344367699756,None,,,,,,,,,,,,,023,2022-05-18_17h22.39.163,Main,2022.1.1,61.09123609088335,
neutral,neutral,1,k,k,,,,,,,,,0,7,7,1,,,,,,,,,main,2,2,1,neutral,neutral,k,k,1,0.6482451999909244,174.23450209997827,175.23449770000298,175.23449770000298,None,174.23450209997827,None,174.23450209997827,None,174.23450209997827,None,175.88448297000141,None,175.88448297000141,None,175.88448297000141,None,,,,,,,,,,,,,023,2022-05-18_17h22.39.163,Main,2022.1.1,61.09123609088335,
neutral,negative,1,k,k,,,,,,,,,0,8,8,7,,,,,,,,,main,1,1,1,negative,neutral,k,k,1,0.5649947000201792,175.88463719998254,176.88447980000637,176.88447980000637,None,175.88463719998254,None,175.88463719998254,None,175.88463719998254,None,177.4511422700074,None,177.4511422700074,None,177.4511422700074,None,,,,,,,,,,,,,023,2022-05-18_17h22.39.163,Main,2022.1.1,61.09123609088335,
negative,negative,2,j,l,,,,,,,,,0,9,9,9,,,,,,,,,main,1,1,2,negative,negative,l,l,1,0.782159700000193,177.4544778999989,178.45388809998985,178.45388809998985,None,177.4544778999989,None,177.4544778999989,None,177.4544778999989,None,179.23470897001098,None,179.23470897001098,None,179.23470897001098,None,,,,,,,,,,,,,023,2022-05-18_17h22.39.163,Main,2022.1.1,61.09123609088335,
positive,negative,2,l,j,,,,,,,,,0,10,10,14,,,,,,,,,main,2,2,2,negative,positive,j,j,1,0.6815589000470936,179.23852840001928,180.25367920001736,180.23704719997477,None,179.23852840001928,None,179.23852840001928,None,179.23852840001928,None,180.91800886998536,None,180.91800886998536,None,180.91800886998536,None,,,,,,,,,,,,,023,2022-05-18_17h22.39.163,Main,2022.1.1,61.09123609088335,
negative,positive,2,j,l,,,,,,,,,0,11,11,15,,,,,,,,,main,2,2,2,positive,negative,l,l,1,0.7320757000125013,180.92163629998686,181.93698419997236,181.91805119998753,None,180.92163629998686,None,180.92163629998686,None,180.92163629998686,None,182.651322969998,None,182.651322969998,None,182.651322969998,None,,,,,,,,,,,,,023,2022-05-18_17h22.39.163,Main,2022.1.1,61.09123609088335,
negative,neutral,1,j,l,,,,,,,,,0,12,12,3,,,,,,,,,main,1,1,1,neutral,negative,l,l,1,0.615192900004331,182.65523570001824,183.67025239998475,183.65364550001686,None,182.65523570001824,None,182.65523570001824,None,182.65523570001824,None,184.26845676999656,None,184.26845676999656,None,184.26845676999656,None,,,,,,,,,,,,,023,2022-05-18_17h22.39.163,Main,2022.1.1,61.09123609088335,
positive,negative,1,l,j,,,,,,,,,0,13,13,5,,,,,,,,,main,1,1,1,negative,positive,j,j,1,0.7986134000238962,184.27420649997657,185.29808599996613,185.27591540000867,None,184.27420649997657,None,184.27420649997657,None,184.27420649997657,None,186.0675794699986,None,186.0675794699986,None,186.0675794699986,None,,,,,,,,,,,,,023,2022-05-18_17h22.39.163,Main,2022.1.1,61.09123609088335,
positive,positive,2,l,j,,,,,,,,,0,14,14,11,,,,,,,,,main,1,1,2,positive,positive,j,j,1,0.8311153000104241,186.06912820000434,187.08448999997927,187.06760790001135,None,186.06912820000434,None,186.06912820000434,None,186.06912820000434,None,187.90125406999724,None,187.90125406999724,None,187.90125406999724,None,,,,,,,,,,,,,023,2022-05-18_17h22.39.163,Main,2022.1.1,61.09123609088335,
neutral,negative,2,k,k,,,,,,,,,0,15,15,16,,,,,,,,,main,2,2,2,negative,neutral,k,k,1,0.7150921000284143,187.9073614999652,188.92012309998972,188.90358430001652,None,187.9073614999652,None,187.9073614999652,None,187.9073614999652,None,189.61786056997371,None,189.61786056997371,None,189.61786056997371,None,,,,,,,,,,,,,023,2022-05-18_17h22.39.163,Main,2022.1.1,61.09123609088335,
negative,positive,1,j,l,,,,,,,,,0,16,16,6,,,,,,,,,main,1,1,1,positive,negative,l,l,1,0.7315952000208199,189.63697160000447,190.65337279997766,190.61789080000017,None,189.63697160000447,None,189.63697160000447,None,189.63697160000447,None,191.35116957000574,None,191.35116957000574,None,191.35116957000574,None,,,,,,,,,,,,,023,2022-05-18_17h22.39.163,Main,2022.1.1,61.09123609088335,
positive,neutral,1,l,j,,,,,,,,,0,17,17,8,,,,,,,,,main,2,2,1,neutral,positive,j,j,1,0.8149315999471582,191.35732880001888,192.36786369996844,192.3534925999702,None,191.35732880001888,None,191.35732880001888,None,191.35732880001888,None,193.16778656998068,None,193.16778656998068,None,193.16778656998068,None,,,,,,,,,,,,,023,2022-05-18_17h22.39.163,Main,2022.1.1,61.09123609088335,
negative,positive,2,j,l,,,,,,,,,1,0,18,15,,,,,,,,,main,2,2,2,positive,negative,l,l,1,0.7649155000108294,193.17142909998074,194.18709239998134,194.17034249997232,None,193.17142909998074,None,193.17142909998074,None,193.17142909998074,None,194.93439016998164,None,194.93439016998164,None,194.93439016998164,None,,,,,,,,,,,,,023,2022-05-18_17h22.39.163,Main,2022.1.1,61.09123609088335,
positive,negative,2,l,j,,,,,,,,,1,1,19,14,,,,,,,,,main,1,1,2,negative,positive,j,j,1,0.7144222999922931,194.93842500000028,195.95076009997865,195.9340627999627,None,194.93842500000028,None,194.93842500000028,None,194.93842500000028,None,196.65066976997187,None,196.65066976997187,None,196.65066976997187,None,,,,,,,,,,,,,023,2022-05-18_17h22.39.163,Main,2022.1.1,61.09123609088335,
neutral,neutral,1,k,k,,,,,,,,,1,2,20,1,,,,,,,,,main,1,1,1,neutral,neutral,k,k,1,0.6986791000235826,196.65073409996694,197.65087199996924,197.65087199996924,None,196.65073409996694,None,196.65073409996694,None,196.65073409996694,None,198.35070297000348,None,198.35070297000348,None,198.35070297000348,None,,,,,,,,,,,,,023,2022-05-18_17h22.39.163,Main,2022.1.1,61.09123609088335,
neutral,negative,1,k,k,,,,,,,,,1,3,21,7,,,,,,,,,main,2,2,1,negative,neutral,k,k,1,0.5486967000178993,198.35635839996394,199.36773749999702,199.351056399988,None,198.35635839996394,None,198.35635839996394,None,198.35635839996394,None,199.90099016996683,None,199.90099016996683,None,199.90099016996683,None,,,,,,,,,,,,,023,2022-05-18_17h22.39.163,Main,2022.1.1,61.09123609088335,
positive,positive,1,l,j,,,,,,,,,1,4,22,2,,,,,,,,,main,2,2,1,positive,positive,j,j,1,0.8483819999964908,199.90458839997882,200.91987410001457,200.90336679999018,None,199.90458839997882,None,199.90458839997882,None,199.90458839997882,None,201.75095076999278,None,201.75095076999278,None,201.75095076999278,None,,,,,,,,,,,,,023,2022-05-18_17h22.39.163,Main,2022.1.1,61.09123609088335,
positive,neutral,2,l,j,,,,,,,,,1,5,23,17,,,,,,,,,main,2,2,2,neutral,positive,j,j,1,0.8317053000209853,201.754754900001,202.76989870000398,202.75325159996282,None,201.754754900001,None,201.754754900001,None,201.754754900001,None,203.58422297001235,None,203.58422297001235,None,203.58422297001235,None,,,,,,,,,,,,,023,2022-05-18_17h22.39.163,Main,2022.1.1,61.09123609088335,
negative,positive,1,j,l,,,,,,,,,1,6,24,6,,,,,,,,,main,2,2,1,positive,negative,l,l,1,0.6975272999843583,203.588438900013,204.60676920000697,204.58954559999984,None,203.588438900013,None,203.588438900013,None,203.588438900013,None,205.28381306998781,None,205.28381306998781,None,205.28381306998781,None,,,,,,,,,,,,,023,2022-05-18_17h22.39.163,Main,2022.1.1,61.09123609088335,
negative,neutral,1,j,l,,,,,,,,,1,7,25,3,,,,,,,,,main,2,2,1,neutral,negative,l,l,1,0.7315840999945067,205.28406679996988,206.28385619999608,206.28385619999608,None,205.28406679996988,None,205.28406679996988,None,205.28406679996988,None,207.0171544699755,None,207.0171544699755,None,207.0171544699755,None,,,,,,,,,,,,,023,2022-05-18_17h22.39.163,Main,2022.1.1,61.09123609088335,
positive,negative,1,l,j,,,,,,,,,1,8,26,5,,,,,,,,,main,1,1,1,negative,positive,j,j,1,0.715117999992799,207.02082649996737,208.03651959996205,208.01987620000727,None,207.02082649996737,None,207.02082649996737,None,207.02082649996737,None,208.73413517000736,None,208.73413517000736,None,208.73413517000736,None,,,,,,,,,,,,,023,2022-05-18_17h22.39.163,Main,2022.1.1,61.09123609088335,
neutral,positive,2,k,k,,,,,,,,,1,9,27,13,,,,,,,,,main,2,2,2,positive,neutral,k,k,1,0.6487012999714352,208.73820279998472,209.75301190000027,209.73650759999873,None,208.73820279998472,None,208.73820279998472,None,208.73820279998472,None,210.38407306996524,None,210.38407306996524,None,210.38407306996524,None,,,,,,,,,,,,,023,2022-05-18_17h22.39.163,Main,2022.1.1,61.09123609088335,
negative,negative,2,j,l,,,,,,,,,1,10,28,9,,,,,,,,,main,2,2,2,negative,negative,l,l,1,0.7481602000189014,210.38780959998257,211.40302410000004,211.38439479999943,None,210.38780959998257,None,210.38780959998257,None,210.38780959998257,None,212.13404927001685,None,212.13404927001685,None,212.13404927001685,None,,,,,,,,,,,,,023,2022-05-18_17h22.39.163,Main,2022.1.1,61.09123609088335,
negative,neutral,2,j,l,,,,,,,,,1,11,29,12,,,,,,,,,main,1,1,2,neutral,negative,l,l,1,0.6486747000017203,212.13986549997935,213.1507324000122,213.13407649996225,None,212.13986549997935,None,212.13986549997935,None,212.13986549997935,None,213.78401896998403,None,213.78401896998403,None,213.78401896998403,None,,,,,,,,,,,,,023,2022-05-18_17h22.39.163,Main,2022.1.1,61.09123609088335,
neutral,positive,1,k,k,,,,,,,,,1,12,30,4,,,,,,,,,main,2,2,1,positive,neutral,k,k,1,0.6479613999836147,213.78784040000755,214.8003607999999,214.78390189999482,None,213.78784040000755,None,213.78784040000755,None,213.78784040000755,None,215.43359386997182,None,215.43359386997182,None,215.43359386997182,None,,,,,,,,,,,,,023,2022-05-18_17h22.39.163,Main,2022.1.1,61.09123609088335,
negative,negative,1,j,l,,,,,,,,,1,13,31,0,,,,,,,,,main,2,2,1,negative,negative,l,l,1,0.58201569999801,215.4336401000037,216.4337075999938,216.4337075999938,None,215.4336401000037,None,215.4336401000037,None,215.4336401000037,None,217.01698896999588,None,217.01698896999588,None,217.01698896999588,None,,,,,,,,,,,,,023,2022-05-18_17h22.39.163,Main,2022.1.1,61.09123609088335,
positive,positive,2,l,j,,,,,,,,,1,14,32,11,,,,,,,,,main,1,1,2,positive,positive,j,j,1,0.6173409000039101,217.02078720001737,218.0340141999768,218.01963120000437,None,217.02078720001737,None,217.02078720001737,None,217.02078720001737,None,218.63607437001193,None,218.63607437001193,None,218.63607437001193,None,,,,,,,,,,,,,023,2022-05-18_17h22.39.163,Main,2022.1.1,61.09123609088335,
neutral,neutral,2,k,k,,,,,,,,,1,15,33,10,,,,,,,,,main,2,2,2,neutral,neutral,k,k,1,0.5964503000141121,218.63908310001716,219.6528916999814,219.63629799999762,None,218.63908310001716,None,218.63908310001716,None,218.63908310001716,None,220.23387406999828,None,220.23387406999828,None,220.23387406999828,None,,,,,,,,,,,,,023,2022-05-18_17h22.39.163,Main,2022.1.1,61.09123609088335,
positive,neutral,1,l,j,,,,,,,,,1,16,34,8,,,,,,,,,main,1,1,1,neutral,positive,j,j,1,0.6149239999940619,220.2376227999921,221.2527631999692,221.23610139999073,None,220.2376227999921,None,220.2376227999921,None,220.2376227999921,None,221.8505049700092,None,221.8505049700092,None,221.8505049700092,None,,,,,,,,,,,,,023,2022-05-18_17h22.39.163,Main,2022.1.1,61.09123609088335,
neutral,negative,2,k,k,,,,,,,,,1,17,35,16,,,,,,,,,main,2,2,2,negative,neutral,k,k,1,0.6823157999897376,221.85667850001482,222.8672241999884,222.85288439999567,None,221.85667850001482,None,221.85667850001482,None,221.85667850001482,None,223.53387266997598,None,223.53387266997598,None,223.53387266997598,None,,,,,,,,,,,,,023,2022-05-18_17h22.39.163,Main,2022.1.1,61.09123609088335,
positive,positive,1,l,j,,,,,,,,,2,0,36,2,,,,,,,,,main,1,1,1,positive,positive,j,j,1,0.6481110999593511,223.53784589999123,224.539389499987,224.539389499987,None,223.53784589999123,None,223.53784589999123,None,223.53784589999123,None,225.18343656999642,None,225.18343656999642,None,225.18343656999642,None,,,,,,,,,,,,,023,2022-05-18_17h22.39.163,Main,2022.1.1,61.09123609088335,
positive,negative,2,l,j,,,,,,,,,2,1,37,14,,,,,,,,,main,2,2,2,negative,positive,j,j,1,0.7481375999632291,225.18392609996954,226.18348760000663,226.18348760000663,None,225.18392609996954,None,225.18392609996954,None,225.18392609996954,None,226.93343406997738,None,226.93343406997738,None,226.93343406997738,None,,,,,,,,,,,,,023,2022-05-18_17h22.39.163,Main,2022.1.1,61.09123609088335,
negative,positive,2,j,l,,,,,,,,,2,2,38,15,,,,,,,,,main,2,2,2,positive,negative,l,l,1,0.7321413999889046,226.93740130000515,227.95045429997845,227.9360971999704,None,226.93740130000515,None,226.93740130000515,None,226.93740130000515,None,228.66702076997026,None,228.66702076997026,None,228.66702076997026,None,,,,,,,,,,,,,023,2022-05-18_17h22.39.163,Main,2022.1.1,61.09123609088335,
neutral,positive,2,k,k,,,,,,,,,2,3,39,13,,,,,,,,,main,2,2,2,positive,neutral,k,k,1,0.6649585000122897,228.67315679998137,229.6859527999768,229.66709960001754,None,228.67315679998137,None,228.67315679998137,None,228.67315679998137,None,230.33367137000315,None,230.33367137000315,None,230.33367137000315,None,,,,,,,,,,,,,023,2022-05-18_17h22.39.163,Main,2022.1.1,61.09123609088335,
neutral,negative,1,k,k,,,,,,,,,2,4,40,7,,,,,,,,,main,1,1,1,negative,neutral,k,k,1,0.7317484000232071,230.33739920001244,231.35035610001069,231.33598490001168,None,230.33739920001244,None,230.33739920001244,None,230.33739920001244,None,232.06696556998068,None,232.06696556998068,None,232.06696556998068,None,,,,,,,,,,,,,023,2022-05-18_17h22.39.163,Main,2022.1.1,61.09123609088335,
neutral,positive,1,k,k,,,,,,,,,2,5,41,4,,,,,,,,,main,2,2,1,positive,neutral,k,k,1,0.5484248999855481,232.07096739998087,233.08364409999922,233.06699749996187,None,232.07096739998087,None,232.07096739998087,None,232.07096739998087,None,233.61695266998723,None,233.61695266998723,None,233.61695266998723,None,,,,,,,,,,,,,023,2022-05-18_17h22.39.163,Main,2022.1.1,61.09123609088335,
neutral,neutral,2,k,k,,,,,,,,,2,6,42,10,,,,,,,,,main,2,2,2,neutral,neutral,k,k,1,0.5314713999978267,233.62095499999123,234.6335165000055,234.61661899997853,None,233.62095499999123,None,233.62095499999123,None,233.62095499999123,None,235.149888070015,None,235.149888070015,None,235.149888070015,None,,,,,,,,,,,,,023,2022-05-18_17h22.39.163,Main,2022.1.1,61.09123609088335,
positive,neutral,2,l,j,,,,,,,,,2,7,43,17,,,,,,,,,main,2,2,2,neutral,positive,j,j,1,0.6984081999980845,235.15000660001533,236.15005469997413,236.15005469997413,None,235.15000660001533,None,235.15000660001533,None,235.15000660001533,None,236.8498780700087,None,236.8498780700087,None,236.8498780700087,None,,,,,,,,,,,,,023,2022-05-18_17h22.39.163,Main,2022.1.1,61.09123609088335,
neutral,negative,2,k,k,,,,,,,,,2,8,44,16,,,,,,,,,main,1,1,2,negative,neutral,k,k,1,0.5983546000206843,236.85049899999285,237.8500755999703,237.8500755999703,None,236.85049899999285,None,236.85049899999285,None,236.85049899999285,None,238.4498809700075,None,238.4498809700075,None,238.4498809700075,None,,,,,,,,,,,,,023,2022-05-18_17h22.39.163,Main,2022.1.1,61.09123609088335,
neutral,neutral,1,k,k,,,,,,,,,2,9,45,1,,,,,,,,,main,1,1,1,neutral,neutral,k,k,1,0.6142075999523513,238.46664790000068,239.4692130999756,239.45249389996752,None,238.46664790000068,None,238.46664790000068,None,238.46664790000068,None,240.06651117001311,None,240.06651117001311,None,240.06651117001311,None,,,,,,,,,,,,,023,2022-05-18_17h22.39.163,Main,2022.1.1,61.09123609088335,
negative,negative,1,j,l,,,,,,,,,2,10,46,0,,,,,,,,,main,2,2,1,negative,negative,l,l,1,0.7322573999990709,240.07322520000162,241.08347680000588,241.0690317999688,None,240.07322520000162,None,240.07322520000162,None,240.07322520000162,None,241.80011656997377,None,241.80011656997377,None,241.80011656997377,None,,,,,,,,,,,,,023,2022-05-18_17h22.39.163,Main,2022.1.1,61.09123609088335,
negative,positive,1,j,l,,,,,,,,,2,11,47,6,,,,,,,,,main,1,1,1,positive,negative,l,l,1,0.5809670999879017,241.80646789999446,242.8190975000034,242.80014669999946,None,241.80646789999446,None,241.80646789999446,None,241.80646789999446,None,243.38308886997984,None,243.38308886997984,None,243.38308886997984,None,,,,,,,,,,,,,023,2022-05-18_17h22.39.163,Main,2022.1.1,61.09123609088335,
positive,negative,1,l,j,,,,,,,,,2,12,48,5,,,,,,,,,main,1,1,1,negative,positive,j,j,1,0.5814777999767102,243.39021789998515,244.4023589999997,244.38570719998097,None,243.39021789998515,None,243.39021789998515,None,243.39021789998515,None,244.9667028699827,None,244.9667028699827,None,244.9667028699827,None,,,,,,,,,,,,,023,2022-05-18_17h22.39.163,Main,2022.1.1,61.09123609088335,
negative,negative,2,j,l,,,,,,,,,2,13,49,9,,,,,,,,,main,1,1,2,negative,negative,l,l,1,0.5978077999898233,244.9701232999796,245.98334390000673,245.96667910000542,None,244.9701232999796,None,244.9701232999796,None,244.9701232999796,None,246.5663083699823,None,246.5663083699823,None,246.5663083699823,None,,,,,,,,,,,,,023,2022-05-18_17h22.39.163,Main,2022.1.1,61.09123609088335,
positive,positive,2,l,j,,,,,,,,,2,14,50,11,,,,,,,,,main,1,1,2,positive,positive,j,j,1,0.581982399977278,246.56681769998977,247.56632470001932,247.56632470001932,None,246.56681769998977,None,246.56681769998977,None,246.56681769998977,None,248.14966046996997,None,248.14966046996997,None,248.14966046996997,None,,,,,,,,,,,,,023,2022-05-18_17h22.39.163,Main,2022.1.1,61.09123609088335,
positive,neutral,1,l,j,,,,,,,,,2,15,51,8,,,,,,,,,main,1,1,1,neutral,positive,j,j,1,0.6153380999458022,248.15307970001595,249.16663639998296,249.1522312000161,None,248.15307970001595,None,248.15307970001595,None,248.15307970001595,None,249.766598469991,None,249.766598469991,None,249.766598469991,None,,,,,,,,,,,,,023,2022-05-18_17h22.39.163,Main,2022.1.1,61.09123609088335,
negative,neutral,2,j,l,,,,,,,,,2,16,52,12,,,,,,,,,main,2,2,2,neutral,negative,l,l,1,0.6487423999933526,249.78566779999528,250.78332410001894,250.76896339998348,None,249.78566779999528,None,249.78566779999528,None,249.78566779999528,None,251.4165821700066,None,251.4165821700066,None,251.4165821700066,None,,,,,,,,,,,,,023,2022-05-18_17h22.39.163,Main,2022.1.1,61.09123609088335,
negative,neutral,1,j,l,,,,,,,,,2,17,53,3,,,,,,,,,main,2,2,1,neutral,negative,l,l,1,0.8147993000457063,251.42039909999585,252.43553879996762,252.41917999996804,None,251.42039909999585,None,251.42039909999585,None,251.42039909999585,None,253.23316557001672,None,253.23316557001672,None,253.23316557001672,None,,,,,,,,,,,,,023,2022-05-18_17h22.39.163,Main,2022.1.1,61.09123609088335,
negative,neutral,2,j,l,,,,,,,,,3,0,54,12,,,,,,,,,main,1,1,2,neutral,negative,l,l,1,0.5652163999620825,253.23723249998875,254.25203889998375,254.23321159998886,None,253.23723249998875,None,253.23723249998875,None,253.23723249998875,None,254.79982197000064,None,254.79982197000064,None,254.79982197000064,None,,,,,,,,,,,,,023,2022-05-18_17h22.39.163,Main,2022.1.1,61.09123609088335,
positive,positive,2,l,j,,,,,,,,,3,1,55,11,,,,,,,,,main,2,2,2,positive,positive,j,j,1,0.5981879000319168,254.8033878999995,255.81640229996992,255.79950530000497,None,254.8033878999995,None,254.8033878999995,None,254.8033878999995,None,256.3994227699644,None,256.3994227699644,None,256.3994227699644,None,,,,,,,,,,,,,023,2022-05-18_17h22.39.163,Main,2022.1.1,61.09123609088335,
negative,negative,1,j,l,,,,,,,,,3,2,56,0,,,,,,,,,main,2,2,1,negative,negative,l,l,1,0.5486183000029996,256.39946759998566,257.39955460000783,257.39955460000783,None,256.39946759998566,None,256.39946759998566,None,256.39946759998566,None,257.9494299700076,None,257.9494299700076,None,257.9494299700076,None,,,,,,,,,,,,,023,2022-05-18_17h22.39.163,Main,2022.1.1,61.09123609088335,
neutral,neutral,2,k,k,,,,,,,,,3,3,57,10,,,,,,,,,main,2,2,2,neutral,neutral,k,k,1,0.6482194000273012,257.95151970000006,258.96637889998965,258.94957960001193,None,257.95151970000006,None,257.95151970000006,None,257.95151970000006,None,259.59941967001066,None,259.59941967001066,None,259.59941967001066,None,,,,,,,,,,,,,023,2022-05-18_17h22.39.163,Main,2022.1.1,61.09123609088335,
positive,negative,1,l,j,,,,,,,,,3,4,58,5,,,,,,,,,main,1,1,1,negative,positive,j,j,1,0.565476099960506,259.60277729999507,260.6020579999895,260.6020579999895,None,259.60277729999507,None,259.60277729999507,None,259.60277729999507,None,261.1664195699908,None,261.1664195699908,None,261.1664195699908,None,,,,,,,,,,,,,023,2022-05-18_17h22.39.163,Main,2022.1.1,61.09123609088335,
positive,negative,2,l,j,,,,,,,,,3,5,59,14,,,,,,,,,main,2,2,2,negative,positive,j,j,1,0.6150340000167489,261.1701081999927,262.185296199983,262.16642949997913,None,261.1701081999927,None,261.1701081999927,None,261.1701081999927,None,262.7831366700178,None,262.7831366700178,None,262.7831366700178,None,,,,,,,,,,,,,023,2022-05-18_17h22.39.163,Main,2022.1.1,61.09123609088335,
neutral,negative,1,k,k,,,,,,,,,3,6,60,7,,,,,,,,,main,2,2,1,negative,neutral,k,k,1,1.4984611999825574,262.78879359998973,263.8019790999824,263.7852897999692,None,262.78879359998973,None,262.78879359998973,None,262.78879359998973,None,265.2830189699947,None,265.2830189699947,None,265.2830189699947,None,,,,,,,,,,,,,023,2022-05-18_17h22.39.163,Main,2022.1.1,61.09123609088335,
negative,negative,2,j,l,,,,,,,,,3,7,61,9,,,,,,,,,main,1,1,2,negative,negative,l,l,1,0.7190961999585852,265.2865696999943,266.30176559998654,266.28525079996325,None,265.2865696999943,None,265.2865696999943,None,265.2865696999943,None,266.9996688700106,None,266.9996688700106,None,266.9996688700106,None,,,,,,,,,,,,,023,2022-05-18_17h22.39.163,Main,2022.1.1,61.09123609088335,
neutral,positive,2,k,k,,,,,,,,,3,8,62,13,,,,,,,,,main,1,1,2,positive,neutral,k,k,1,0.7105111999553628,267.00905860000057,268.01593280001543,267.9997097000014,None,267.00905860000057,None,267.00905860000057,None,267.00905860000057,None,268.71584466996717,None,268.71584466996717,None,268.71584466996717,None,,,,,,,,,,,,,023,2022-05-18_17h22.39.163,Main,2022.1.1,61.09123609088335,
positive,neutral,1,l,j,,,,,,,,,3,9,63,8,,,,,,,,,main,2,2,1,neutral,positive,j,j,1,0.6306870999978855,268.71680110000307,269.715909099963,269.715909099963,None,268.71680110000307,None,268.71680110000307,None,268.71680110000307,None,270.3491646699898,None,270.3491646699898,None,270.3491646699898,None,,,,,,,,,,,,,023,2022-05-18_17h22.39.163,Main,2022.1.1,61.09123609088335,
positive,neutral,2,l,j,,,,,,,,,3,10,64,17,,,,,,,,,main,1,1,2,neutral,positive,j,j,1,0.5659203000250272,270.34938620001776,271.3491958999657,271.3491958999657,None,270.34938620001776,None,270.34938620001776,None,270.34938620001776,None,271.91582336999124,None,271.91582336999124,None,271.91582336999124,None,,,,,,,,,,,,,023,2022-05-18_17h22.39.163,Main,2022.1.1,61.09123609088335,
neutral,neutral,1,k,k,,,,,,,,,3,11,65,1,,,,,,,,,main,1,1,1,neutral,neutral,k,k,1,0.6146652000024915,271.91997119999724,272.93502149998676,272.9185231999727,None,271.91997119999724,None,271.91997119999724,None,271.91997119999724,None,273.53278136998995,None,273.53278136998995,None,273.53278136998995,None,,,,,,,,,,,,,023,2022-05-18_17h22.39.163,Main,2022.1.1,61.09123609088335,
negative,positive,1,j,l,,,,,,,,,3,12,66,6,,,,,,,,,main,2,2,1,positive,negative,l,l,1,0.6319936000509188,273.5363428000128,274.5517540000146,274.5328072999837,None,273.5363428000128,None,273.5363428000128,None,273.5363428000128,None,275.1660534699971,None,275.1660534699971,None,275.1660534699971,None,,,,,,,,,,,,,023,2022-05-18_17h22.39.163,Main,2022.1.1,61.09123609088335,
neutral,positive,1,k,k,,,,,,,,,3,13,67,4,,,,,,,,,main,1,1,1,positive,neutral,k,k,1,0.5983346999855712,275.1696520000114,276.1827624000143,276.16608950000955,None,275.1696520000114,None,275.1696520000114,None,275.1696520000114,None,276.7660395699844,None,276.7660395699844,None,276.7660395699844,None,,,,,,,,,,,,,023,2022-05-18_17h22.39.163,Main,2022.1.1,61.09123609088335,
negative,positive,2,j,l,,,,,,,,,3,14,68,15,,,,,,,,,main,1,1,2,positive,negative,l,l,1,0.6985555999563076,276.7692945000017,277.76605229999404,277.76605229999404,None,276.7692945000017,None,276.7692945000017,None,276.7692945000017,None,278.46600486996465,None,278.46600486996465,None,278.46600486996465,None,,,,,,,,,,,,,023,2022-05-18_17h22.39.163,Main,2022.1.1,61.09123609088335,
neutral,negative,2,k,k,,,,,,,,,3,15,69,16,,,,,,,,,main,1,1,2,negative,neutral,k,k,1,0.6982644000090659,278.46936799999094,279.4825420000125,279.46593110001413,None,278.46936799999094,None,278.46936799999094,None,278.46936799999094,None,280.1658178700076,None,280.1658178700076,None,280.1658178700076,None,,,,,,,,,,,,,023,2022-05-18_17h22.39.163,Main,2022.1.1,61.09123609088335,
positive,positive,1,l,j,,,,,,,,,3,16,70,2,,,,,,,,,main,1,1,1,positive,positive,j,j,1,0.6317431999486871,280.1658892999985,281.1659257999854,281.1659257999854,None,280.1658892999985,None,280.1658892999985,None,280.1658892999985,None,281.7992876700067,None,281.7992876700067,None,281.7992876700067,None,,,,,,,,,,,,,023,2022-05-18_17h22.39.163,Main,2022.1.1,61.09123609088335,
negative,neutral,1,j,l,,,,,,,,,3,17,71,3,,,,,,,,,main,2,2,1,neutral,negative,l,l,1,0.648464799975045,281.80515199998626,282.8159617999918,282.8014978999854,None,281.80515199998626,None,281.80515199998626,None,281.80515199998626,None,283.44923736999624,None,283.44923736999624,None,283.44923736999624,None,,,,,,,,,,,,,023,2022-05-18_17h22.39.163,Main,2022.1.1,61.09123609088335,
positive,neutral,1,l,j,,,,,,,,,4,0,72,8,,,,,,,,,main,2,2,1,neutral,positive,j,j,1,0.648477099952288,283.4525983000058,284.46619599999394,284.4515507000033,None,283.4525983000058,None,283.4525983000058,None,283.4525983000058,None,285.09934796998857,None,285.09934796998857,None,285.09934796998857,None,,,,,,,,,,,,,023,2022-05-18_17h22.39.163,Main,2022.1.1,61.09123609088335,
positive,positive,1,l,j,,,,,,,,,4,1,73,2,,,,,,,,,main,2,2,1,positive,positive,j,j,1,0.6817261999822222,285.10292199999094,286.1181956999935,286.1014912999817,None,285.10292199999094,None,285.10292199999094,None,285.10292199999094,None,286.78256357001953,None,286.78256357001953,None,286.78256357001953,None,,,,,,,,,,,,,023,2022-05-18_17h22.39.163,Main,2022.1.1,61.09123609088335,
neutral,negative,2,k,k,,,,,,,,,4,2,74,16,,,,,,,,,main,2,2,2,negative,neutral,k,k,1,0.5817734000156634,286.786136300012,287.80146669998066,287.7848770999699,None,286.786136300012,None,286.786136300012,None,286.786136300012,None,288.36590187001855,None,288.36590187001855,None,288.36590187001855,None,,,,,,,,,,,,,023,2022-05-18_17h22.39.163,Main,2022.1.1,61.09123609088335,
neutral,positive,2,k,k,,,,,,,,,4,3,75,13,,,,,,,,,main,2,2,2,positive,neutral,k,k,1,0.5145746999769472,288.369245400012,289.38210469996557,289.36543599999277,None,288.369245400012,None,288.369245400012,None,288.369245400012,None,289.88205546996903,None,289.88205546996903,None,289.88205546996903,None,,,,,,,,,,,,,023,2022-05-18_17h22.39.163,Main,2022.1.1,61.09123609088335,
neutral,neutral,1,k,k,,,,,,,,,4,4,76,1,,,,,,,,,main,2,2,1,neutral,neutral,k,k,1,0.5483863999834284,289.89877889998024,290.89879619999556,290.8824400000158,None,289.89877889998024,None,289.89877889998024,None,289.89877889998024,None,291.43204087002084,None,291.43204087002084,None,291.43204087002084,None,,,,,,,,,,,,,023,2022-05-18_17h22.39.163,Main,2022.1.1,61.09123609088335,
positive,negative,1,l,j,,,,,,,,,4,5,77,5,,,,,,,,,main,2,2,1,negative,positive,j,j,1,0.7323830000241287,291.43273900001077,292.432117999997,292.432117999997,None,291.43273900001077,None,291.43273900001077,None,291.43273900001077,None,293.1660293699882,None,293.1660293699882,None,293.1660293699882,None,,,,,,,,,,,,,023,2022-05-18_17h22.39.163,Main,2022.1.1,61.09123609088335,
negative,negative,2,j,l,,,,,,,,,4,6,78,9,,,,,,,,,main,1,1,2,negative,negative,l,l,1,0.6479930999921635,293.1695897000027,294.18458449997706,294.165732799971,None,293.1695897000027,None,293.1695897000027,None,293.1695897000027,None,294.81576616998643,None,294.81576616998643,None,294.81576616998643,None,,,,,,,,,,,,,023,2022-05-18_17h22.39.163,Main,2022.1.1,61.09123609088335,
negative,positive,1,j,l,,,,,,,,,4,7,79,6,,,,,,,,,main,2,2,1,positive,negative,l,l,1,0.7314493999583647,294.81981099996483,295.8346215999918,295.8157076999778,None,294.81981099996483,None,294.81981099996483,None,294.81981099996483,None,296.54863167001747,None,296.54863167001747,None,296.54863167001747,None,,,,,,,,,,,,,023,2022-05-18_17h22.39.163,Main,2022.1.1,61.09123609088335,
positive,positive,2,l,j,,,,,,,,,4,8,80,11,,,,,,,,,main,1,1,2,positive,positive,j,j,1,0.7318257000297308,296.553141899989,297.5656639999943,297.54899129999103,None,296.553141899989,None,296.553141899989,None,296.553141899989,None,298.28221787000655,None,298.28221787000655,None,298.28221787000655,None,,,,,,,,,,,,,023,2022-05-18_17h22.39.163,Main,2022.1.1,61.09123609088335,
negative,neutral,2,j,l,,,,,,,,,4,9,81,12,,,,,,,,,main,1,1,2,neutral,negative,l,l,1,0.6986417999723926,298.2989957999671,299.301074100018,299.2846214000019,None,298.2989957999671,None,298.2989957999671,None,298.2989957999671,None,299.98230566998825,None,299.98230566998825,None,299.98230566998825,None,,,,,,,,,,,,,023,2022-05-18_17h22.39.163,Main,2022.1.1,61.09123609088335,
negative,neutral,1,j,l,,,,,,,,,4,10,82,3,,,,,,,,,main,2,2,1,neutral,negative,l,l,1,0.7477746999938972,299.98795639997115,300.9985617999919,300.98188899998786,None,299.98795639997115,None,299.98795639997115,None,299.98795639997115,None,301.73179886997093,None,301.73179886997093,None,301.73179886997093,None,,,,,,,,,,,,,023,2022-05-18_17h22.39.163,Main,2022.1.1,61.09123609088335,
neutral,neutral,2,k,k,,,,,,,,,4,11,83,10,,,,,,,,,main,2,2,2,neutral,neutral,k,k,1,0.7985790999955498,301.73248000000603,302.73186679999344,302.73186679999344,None,301.73248000000603,None,301.73248000000603,None,301.73248000000603,None,303.53179376997866,None,303.53179376997866,None,303.53179376997866,None,,,,,,,,,,,,,023,2022-05-18_17h22.39.163,Main,2022.1.1,61.09123609088335,
negative,positive,2,j,l,,,,,,,,,4,12,84,15,,,,,,,,,main,1,1,2,positive,negative,l,l,1,0.748505599971395,303.53223740000976,304.5318547000061,304.5318547000061,None,303.53223740000976,None,303.53223740000976,None,303.53223740000976,None,305.28179047001174,None,305.28179047001174,None,305.28179047001174,None,,,,,,,,,,,,,023,2022-05-18_17h22.39.163,Main,2022.1.1,61.09123609088335,
neutral,negative,1,k,k,,,,,,,,,4,13,85,7,,,,,,,,,main,1,1,1,negative,neutral,k,k,1,0.6321214999770746,305.28751439996995,306.30109109997284,306.2843928000075,None,305.28751439996995,None,305.28751439996995,None,305.28751439996995,None,306.91552087001617,None,306.91552087001617,None,306.91552087001617,None,,,,,,,,,,,,,023,2022-05-18_17h22.39.163,Main,2022.1.1,61.09123609088335,
positive,negative,2,l,j,,,,,,,,,4,14,86,14,,,,,,,,,main,2,2,2,negative,positive,j,j,1,0.9316163000185043,306.92166039999574,307.9343497999944,307.9177376999869,None,306.92166039999574,None,306.92166039999574,None,306.92166039999574,None,308.8486886699742,None,308.8486886699742,None,308.8486886699742,None,,,,,,,,,,,,,023,2022-05-18_17h22.39.163,Main,2022.1.1,61.09123609088335,
neutral,positive,1,k,k,,,,,,,,,4,15,87,4,,,,,,,,,main,2,2,1,positive,neutral,k,k,1,0.7154933999991044,308.85435169999255,309.8675865000114,309.8509830000112,None,308.85435169999255,None,308.85435169999255,None,308.85435169999255,None,310.5655530699936,None,310.5655530699936,None,310.5655530699936,None,,,,,,,,,,,,,023,2022-05-18_17h22.39.163,Main,2022.1.1,61.09123609088335,
negative,negative,1,j,l,,,,,,,,,4,16,88,0,,,,,,,,,main,2,2,1,negative,negative,l,l,1,0.7483436999609694,310.5712728999788,311.58200990001205,311.5676619000151,None,310.5712728999788,None,310.5712728999788,None,310.5712728999788,None,312.3152614699851,None,312.3152614699851,None,312.3152614699851,None,,,,,,,,,,,,,023,2022-05-18_17h22.39.163,Main,2022.1.1,61.09123609088335,
positive,neutral,2,l,j,,,,,,,,,4,17,89,17,,,,,,,,,main,2,2,2,neutral,positive,j,j,1,0.797718400019221,312.3210687999963,313.3316164999851,313.3149395000073,None,312.3210687999963,None,312.3210687999963,None,312.3210687999963,None,314.11487076996707,None,314.11487076996707,None,314.11487076996707,None,,,,,,,,,,,,,023,2022-05-18_17h22.39.163,Main,2022.1.1,61.09123609088335,
neutral,positive,1,k,k,,,,,,,,,5,0,90,4,,,,,,,,,main,2,2,1,positive,neutral,k,k,1,0.6654025000170805,314.13161549996585,315.1316002999665,315.1149388999911,None,314.13161549996585,None,314.13161549996585,None,314.13161549996585,None,315.78153927001983,None,315.78153927001983,None,315.78153927001983,None,,,,,,,,,,,,,023,2022-05-18_17h22.39.163,Main,2022.1.1,61.09123609088335,
positive,neutral,2,l,j,,,,,,,,,5,1,91,17,,,,,,,,,main,1,1,2,neutral,positive,j,j,1,0.7986247999942861,315.78192569996463,316.78176240000175,316.78176240000175,None,315.78192569996463,None,315.78192569996463,None,315.78192569996463,None,317.58191407000993,None,317.58191407000993,None,317.58191407000993,None,,,,,,,,,,,,,023,2022-05-18_17h22.39.163,Main,2022.1.1,61.09123609088335,
neutral,positive,2,k,k,,,,,,,,,5,2,92,13,,,,,,,,,main,2,2,2,positive,neutral,k,k,1,0.7150106999906711,317.58856709999964,318.6008636999759,318.58414799999446,None,317.58856709999964,None,317.58856709999964,None,317.58856709999964,None,319.29846766999106,None,319.29846766999106,None,319.29846766999106,None,,,,,,,,,,,,,023,2022-05-18_17h22.39.163,Main,2022.1.1,61.09123609088335,
neutral,negative,1,k,k,,,,,,,,,5,3,93,7,,,,,,,,,main,2,2,1,negative,neutral,k,k,1,0.567605399992317,319.3046925999806,320.315193300019,320.3008182999911,None,319.3046925999806,None,319.3046925999806,None,319.3046925999806,None,320.8675202700018,None,320.8675202700018,None,320.8675202700018,None,,,,,,,,,,,,,023,2022-05-18_17h22.39.163,Main,2022.1.1,61.09123609088335,
negative,neutral,1,j,l,,,,,,,,,5,4,94,3,,,,,,,,,main,1,1,1,neutral,negative,l,l,1,0.6459095999598503,320.87056760000996,321.8818195000058,321.8673745999695,None,320.87056760000996,None,320.87056760000996,None,320.87056760000996,None,322.51507436996906,None,322.51507436996906,None,322.51507436996906,None,,,,,,,,,,,,,023,2022-05-18_17h22.39.163,Main,2022.1.1,61.09123609088335,
negative,neutral,2,j,l,,,,,,,,,5,5,95,12,,,,,,,,,main,1,1,2,neutral,negative,l,l,1,0.7660412000259385,322.51925249997294,323.5339971999638,323.51509910001187,None,322.51925249997294,None,322.51925249997294,None,322.51925249997294,None,324.28167687001985,None,324.28167687001985,None,324.28167687001985,None,,,,,,,,,,,,,023,2022-05-18_17h22.39.163,Main,2022.1.1,61.09123609088335,
neutral,negative,2,k,k,,,,,,,,,5,6,96,16,,,,,,,,,main,1,1,2,negative,neutral,k,k,1,0.5472147000255063,324.2857285999926,325.2980317000183,325.28132800001185,None,324.2857285999926,None,324.2857285999926,None,324.2857285999926,None,325.8315368699899,None,325.8315368699899,None,325.8315368699899,None,,,,,,,,,,,,,023,2022-05-18_17h22.39.163,Main,2022.1.1,61.09123609088335,
neutral,neutral,1,k,k,,,,,,,,,5,7,97,1,,,,,,,,,main,1,1,1,neutral,neutral,k,k,1,0.5481469999649562,325.8317870000028,326.8313526000129,326.8313526000129,None,325.8317870000028,None,325.8317870000028,None,325.8317870000028,None,327.38129216997766,None,327.38129216997766,None,327.38129216997766,None,,,,,,,,,,,,,023,2022-05-18_17h22.39.163,Main,2022.1.1,61.09123609088335,
positive,negative,2,l,j,,,,,,,,,5,8,98,14,,,,,,,,,main,2,2,2,negative,positive,j,j,1,0.8153592000016943,327.3815020999755,328.38134799996624,328.38134799996624,None,327.3815020999755,None,327.3815020999755,None,327.3815020999755,None,329.1979763699986,None,329.1979763699986,None,329.1979763699986,None,,,,,,,,,,,,,023,2022-05-18_17h22.39.163,Main,2022.1.1,61.09123609088335,
negative,negative,1,j,l,,,,,,,,,5,9,99,0,,,,,,,,,main,2,2,1,negative,negative,l,l,1,0.6646111999871209,329.2045763999922,330.21709579997696,330.20060879999073,None,329.2045763999922,None,329.2045763999922,None,329.2045763999922,None,330.86498566996886,None,330.86498566996886,None,330.86498566996886,None,,,,,,,,,,,,,023,2022-05-18_17h22.39.163,Main,2022.1.1,61.09123609088335,
neutral,neutral,2,k,k,,,,,,,,,5,10,100,10,,,,,,,,,main,2,2,2,neutral,neutral,k,k,1,0.7363265999592841,330.86852600000566,331.8838406999712,331.86711859999923,None,330.86852600000566,None,330.86852600000566,None,330.86852600000566,None,332.60314127000163,None,332.60314127000163,None,332.60314127000163,None,,,,,,,,,,,,,023,2022-05-18_17h22.39.163,Main,2022.1.1,61.09123609088335,
negative,positive,2,j,l,,,,,,,,,5,11,101,15,,,,,,,,,main,2,2,2,positive,negative,l,l,1,0.7268458000035025,332.60625309997704,333.61489199998323,333.6005478000152,None,332.60625309997704,None,332.60625309997704,None,332.60625309997704,None,334.33156397002165,None,334.33156397002165,None,334.33156397002165,None,,,,,,,,,,,,,023,2022-05-18_17h22.39.163,Main,2022.1.1,61.09123609088335,
positive,positive,1,l,j,,,,,,,,,5,12,102,2,,,,,,,,,main,2,2,1,positive,positive,j,j,1,0.6151676999870688,334.3356680999859,335.35051249997923,335.33150490000844,None,334.3356680999859,None,334.3356680999859,None,334.3356680999859,None,335.94822726998825,None,335.94822726998825,None,335.94822726998825,None,,,,,,,,,,,,,023,2022-05-18_17h22.39.163,Main,2022.1.1,61.09123609088335,
positive,neutral,1,l,j,,,,,,,,,5,13,103,8,,,,,,,,,main,2,2,1,neutral,positive,j,j,1,0.5978294999804348,335.9517906999681,336.9644680999918,336.94780490000267,None,335.9517906999681,None,335.9517906999681,None,335.9517906999681,None,337.5477135700115,None,337.5477135700115,None,337.5477135700115,None,,,,,,,,,,,,,023,2022-05-18_17h22.39.163,Main,2022.1.1,61.09123609088335,
negative,positive,1,j,l,,,,,,,,,5,14,104,6,,,,,,,,,main,1,1,1,positive,negative,l,l,1,0.7155476000043564,337.56443769996986,338.5644693999784,338.54781249997905,None,337.56443769996986,None,337.56443769996986,None,337.56443769996986,None,339.2646952699928,None,339.2646952699928,None,339.2646952699928,None,,,,,,,,,,,,,023,2022-05-18_17h22.39.163,Main,2022.1.1,61.09123609088335,
positive,positive,2,l,j,,,,,,,,,5,15,105,11,,,,,,,,,main,1,1,2,positive,positive,j,j,1,0.6154169000219554,339.2687508999952,340.28360139997676,340.26698389998637,None,339.2687508999952,None,339.2687508999952,None,339.2687508999952,None,340.88163367001687,None,340.88163367001687,None,340.88163367001687,None,,,,,,,,,,,,,023,2022-05-18_17h22.39.163,Main,2022.1.1,61.09123609088335,
positive,negative,1,l,j,,,,,,,,,5,16,106,5,,,,,,,,,main,2,2,1,negative,positive,j,j,1,0.6647360000060871,340.88535559998127,341.9003087999881,341.88362320000306,None,340.88535559998127,None,340.88535559998127,None,340.88535559998127,None,342.5479995699774,None,342.5479995699774,None,342.5479995699774,None,,,,,,,,,,,,,023,2022-05-18_17h22.39.163,Main,2022.1.1,61.09123609088335,
negative,negative,2,j,l,,,,,,,,,5,17,107,9,,,,,,,,,main,2,2,2,negative,negative,l,l,1,0.6650599999702536,342.551342199964,343.5668422000017,343.54798560001655,None,342.551342199964,None,342.551342199964,None,342.551342199964,None,344.21460517001685,None,344.21460517001685,None,344.21460517001685,None,,,,,,,,,,,,,023,2022-05-18_17h22.39.163,Main,2022.1.1,61.09123609088335,
positive,neutral,1,l,j,,,,,,,,,6,0,108,8,,,,,,,,,main,2,2,1,neutral,positive,j,j,1,0.7691527000279166,344.21890360000543,345.23342249996495,345.2146605000016,None,344.21890360000543,None,344.21890360000543,None,344.21890360000543,None,345.98299286998224,None,345.98299286998224,None,345.98299286998224,None,,,,,,,,,,,,,023,2022-05-18_17h22.39.163,Main,2022.1.1,61.09123609088335,
positive,negative,1,l,j,,,,,,,,,6,1,109,5,,,,,,,,,main,1,1,1,negative,positive,j,j,1,1.1604237999999896,345.9885143999709,346.99759350001113,346.9809205000056,None,345.9885143999709,None,345.9885143999709,None,345.9885143999709,None,348.14754017000666,None,348.14754017000666,None,348.14754017000666,None,,,,,,,,,,,,,023,2022-05-18_17h22.39.163,Main,2022.1.1,61.09123609088335,
negative,positive,1,j,l,,,,,,,,,6,2,110,6,,,,,,,,,main,1,1,1,positive,negative,l,l,1,0.7145449000527151,348.1501623999793,349.1642252000165,349.1475676000118,None,348.1501623999793,None,348.1501623999793,None,348.1501623999793,None,349.86418466998146,None,349.86418466998146,None,349.86418466998146,None,,,,,,,,,,,,,023,2022-05-18_17h22.39.163,Main,2022.1.1,61.09123609088335,
positive,neutral,2,l,j,,,,,,,,,6,3,111,17,,,,,,,,,main,2,2,2,neutral,positive,j,j,1,0.6480379999848083,349.86853199999314,350.8834576999652,350.86695220001275,None,349.86853199999314,None,349.86853199999314,None,349.86853199999314,None,351.51446356997474,None,351.51446356997474,None,351.51446356997474,None,,,,,,,,,,,,,023,2022-05-18_17h22.39.163,Main,2022.1.1,61.09123609088335,
negative,positive,2,j,l,,,,,,,,,6,4,112,15,,,,,,,,,main,2,2,2,positive,negative,l,l,1,0.748392799985595,351.5180456999806,352.5334770999616,352.51676899997983,None,351.5180456999806,None,351.5180456999806,None,351.5180456999806,None,353.26441956998895,None,353.26441956998895,None,353.26441956998895,None,,,,,,,,,,,,,023,2022-05-18_17h22.39.163,Main,2022.1.1,61.09123609088335,
positive,positive,1,l,j,,,,,,,,,6,5,113,2,,,,,,,,,main,1,1,1,positive,positive,j,j,1,0.6691758999950252,353.2679732000106,354.2833984000026,354.2667367999675,None,353.2679732000106,None,353.2679732000106,None,353.2679732000106,None,354.93530776998375,None,354.93530776998375,None,354.93530776998375,None,,,,,,,,,,,,,023,2022-05-18_17h22.39.163,Main,2022.1.1,61.09123609088335,
negative,neutral,1,j,l,,,,,,,,,6,6,114,3,,,,,,,,,main,2,2,1,neutral,negative,l,l,1,0.6941436000051908,354.9387051999802,355.948030199972,355.9311105000088,None,354.9387051999802,None,354.9387051999802,None,354.9387051999802,None,356.6310377700196,None,356.6310377700196,None,356.6310377700196,None,,,,,,,,,,,,,023,2022-05-18_17h22.39.163,Main,2022.1.1,61.09123609088335,
neutral,neutral,1,k,k,,,,,,,,,6,7,115,1,,,,,,,,,main,2,2,1,neutral,neutral,k,k,1,0.7310282000107691,356.6478732000105,357.6633128999965,357.62978159997147,None,356.6478732000105,None,356.6478732000105,None,356.6478732000105,None,358.36393577000706,None,358.36393577000706,None,358.36393577000706,None,,,,,,,,,,,,,023,2022-05-18_17h22.39.163,Main,2022.1.1,61.09123609088335,
neutral,neutral,2,k,k,,,,,,,,,6,8,116,10,,,,,,,,,main,1,1,2,neutral,neutral,k,k,1,0.7675353999948129,358.3640003000037,359.36430209997343,359.36430209997343,None,358.3640003000037,None,358.3640003000037,None,358.3640003000037,None,360.13279617002115,None,360.13279617002115,None,360.13279617002115,None,,,,,,,,,,,,,023,2022-05-18_17h22.39.163,Main,2022.1.1,61.09123609088335,
neutral,positive,2,k,k,,,,,,,,,6,9,117,13,,,,,,,,,main,1,1,2,positive,neutral,k,k,1,0.5973551999777555,360.13786239997717,361.14765629998874,361.1332776999916,None,360.13786239997717,None,360.13786239997717,None,360.13786239997717,None,361.73089377000576,None,361.73089377000576,None,361.73089377000576,None,,,,,,,,,,,,,023,2022-05-18_17h22.39.163,Main,2022.1.1,61.09123609088335,
negative,neutral,2,j,l,,,,,,,,,6,10,118,12,,,,,,,,,main,1,1,2,neutral,negative,l,l,1,0.664144300040789,361.73503199999686,362.7498273999663,362.7332681000116,None,361.73503199999686,None,361.73503199999686,None,361.73503199999686,None,363.3975540699961,None,363.3975540699961,None,363.3975540699961,None,,,,,,,,,,,,,023,2022-05-18_17h22.39.163,Main,2022.1.1,61.09123609088335,
negative,negative,2,j,l,,,,,,,,,6,11,119,9,,,,,,,,,main,1,1,2,negative,negative,l,l,1,0.7985474999877624,363.40062410000246,364.39986710000085,364.39986710000085,None,363.40062410000246,None,363.40062410000246,None,363.40062410000246,None,365.1973011699796,None,365.1973011699796,None,365.1973011699796,None,,,,,,,,,,,,,023,2022-05-18_17h22.39.163,Main,2022.1.1,61.09123609088335,
negative,negative,1,j,l,,,,,,,,,6,12,120,0,,,,,,,,,main,2,2,1,negative,negative,l,l,1,0.7652963000000454,365.2038688000175,366.21637759997975,366.1975444999989,None,365.2038688000175,None,365.2038688000175,None,365.2038688000175,None,366.9641383700131,None,366.9641383700131,None,366.9641383700131,None,,,,,,,,,,,,,023,2022-05-18_17h22.39.163,Main,2022.1.1,61.09123609088335,
positive,negative,2,l,j,,,,,,,,,6,13,121,14,,,,,,,,,main,1,1,2,negative,positive,j,j,1,0.6131580999935977,366.97603660001187,367.9804824999883,367.9640513000195,None,366.97603660001187,None,366.97603660001187,None,366.97603660001187,None,368.5804174699646,None,368.5804174699646,None,368.5804174699646,None,,,,,,,,,,,,,023,2022-05-18_17h22.39.163,Main,2022.1.1,61.09123609088335,
neutral,negative,1,k,k,,,,,,,,,6,14,122,7,,,,,,,,,main,2,2,1,negative,neutral,k,k,1,0.6152314000064507,368.58047310000984,369.5804855999886,369.5804855999886,None,368.58047310000984,None,368.58047310000984,None,368.58047310000984,None,370.1970807699894,None,370.1970807699894,None,370.1970807699894,None,,,,,,,,,,,,,023,2022-05-18_17h22.39.163,Main,2022.1.1,61.09123609088335,
positive,positive,2,l,j,,,,,,,,,6,15,123,11,,,,,,,,,main,1,1,2,positive,positive,j,j,1,0.6161759999813512,370.20022020000033,371.2137562999851,371.19712779996917,None,370.20022020000033,None,370.20022020000033,None,370.20022020000033,None,371.8146347699861,None,371.8146347699861,None,371.8146347699861,None,,,,,,,,,,,,,023,2022-05-18_17h22.39.163,Main,2022.1.1,61.09123609088335,
neutral,negative,2,k,k,,,,,,,,,6,16,124,16,,,,,,,,,main,1,1,2,negative,neutral,k,l,0,0.6472473000176251,371.82113150000805,372.83309630001895,372.8164057999966,None,371.82113150000805,None,371.82113150000805,None,371.82113150000805,None,373.4640788999968,None,373.4640788999968,None,373.4640788999968,None,,,,,,,,,,,,,023,2022-05-18_17h22.39.163,Main,2022.1.1,61.09123609088335,
neutral,positive,1,k,k,,,,,,,,,6,17,125,4,,,,,,,,,main,1,1,1,positive,neutral,k,k,1,0.6511430999962613,374.4645473000128,375.4661733999965,375.4496410000138,None,374.4645473000128,None,374.4645473000128,None,374.4645473000128,None,376.1139351700025,None,376.1139351700025,None,376.1139351700025,None,,,,,,,,,,,,,023,2022-05-18_17h22.39.163,Main,2022.1.1,61.09123609088335,
neutral,positive,2,k,k,,,,,,,,,7,0,126,13,,,,,,,,,main,2,2,2,positive,neutral,k,k,1,0.5984024999779649,376.118267999962,377.1328871999867,377.1161870000069,None,376.118267999962,None,376.118267999962,None,376.118267999962,None,377.71408437000935,None,377.71408437000935,None,377.71408437000935,None,,,,,,,,,,,,,023,2022-05-18_17h22.39.163,Main,2022.1.1,61.09123609088335,
neutral,positive,1,k,k,,,,,,,,,7,1,127,4,,,,,,,,,main,1,1,1,positive,neutral,k,k,1,0.5644615999772213,377.7175261999946,378.7258563999785,378.7258563999785,None,377.7175261999946,None,377.7175261999946,None,377.7175261999946,None,379.28016927000715,None,379.28016927000715,None,379.28016927000715,None,,,,,,,,,,,,,023,2022-05-18_17h22.39.163,Main,2022.1.1,61.09123609088335,
negative,negative,1,j,l,,,,,,,,,7,2,128,0,,,,,,,,,main,2,2,1,negative,negative,l,l,1,0.7163769999751821,379.2802230999805,380.2801992999739,380.2801992999739,None,379.2802230999805,None,379.2802230999805,None,379.2802230999805,None,380.99685926997915,None,380.99685926997915,None,380.99685926997915,None,,,,,,,,,,,,,023,2022-05-18_17h22.39.163,Main,2022.1.1,61.09123609088335,
neutral,negative,2,k,k,,,,,,,,,7,3,129,16,,,,,,,,,main,2,2,2,negative,neutral,k,k,1,0.5978141000377946,381.0034323,382.01600210001925,381.9994951999979,None,381.0034323,None,381.0034323,None,381.0034323,None,382.59714786999973,None,382.59714786999973,None,382.59714786999973,None,,,,,,,,,,,,,023,2022-05-18_17h22.39.163,Main,2022.1.1,61.09123609088335,
neutral,neutral,2,k,k,,,,,,,,,7,4,130,10,,,,,,,,,main,2,2,2,neutral,neutral,k,k,1,0.5816076999763027,382.60365229996387,383.61384329997236,383.5971531000105,None,382.60365229996387,None,382.60365229996387,None,382.60365229996387,None,384.18042637000906,None,384.18042637000906,None,384.18042637000906,None,,,,,,,,,,,,,023,2022-05-18_17h22.39.163,Main,2022.1.1,61.09123609088335,
negative,neutral,1,j,l,,,,,,,,,7,5,131,3,,,,,,,,,main,2,2,1,neutral,negative,l,l,1,0.5976972000207752,384.1867506999988,385.19945069996174,385.18046100001084,None,384.1867506999988,None,384.1867506999988,None,384.1867506999988,None,385.7803853699646,None,385.7803853699646,None,385.7803853699646,None,,,,,,,,,,,,,023,2022-05-18_17h22.39.163,Main,2022.1.1,61.09123609088335,
negative,negative,2,j,l,,,,,,,,,7,6,132,9,,,,,,,,,main,1,1,2,negative,negative,l,l,1,0.7837741000112146,385.7841155999922,386.7970883999951,386.78272979997564,None,385.7841155999922,None,385.7841155999922,None,385.7841155999922,None,387.5659678700089,None,387.5659678700089,None,387.5659678700089,None,,,,,,,,,,,,,023,2022-05-18_17h22.39.163,Main,2022.1.1,61.09123609088335,
positive,positive,2,l,j,,,,,,,,,7,7,133,11,,,,,,,,,main,2,2,2,positive,positive,j,j,1,0.6957761000376195,387.568937700009,388.56876599998213,388.56223310000496,None,387.568937700009,None,387.568937700009,None,387.568937700009,None,389.2632774699654,None,389.2632774699654,None,389.2632774699654,None,,,,,,,,,,,,,023,2022-05-18_17h22.39.163,Main,2022.1.1,61.09123609088335,
positive,positive,1,l,j,,,,,,,,,7,8,134,2,,,,,,,,,main,1,1,1,positive,positive,j,j,1,0.5992973000393249,389.2633468999993,390.2633260000148,390.2633260000148,None,389.2633468999993,None,389.2633468999993,None,389.2633468999993,None,390.8632883699669,None,390.8632883699669,None,390.8632883699669,None,,,,,,,,,,,,,023,2022-05-18_17h22.39.163,Main,2022.1.1,61.09123609088335,
neutral,neutral,1,k,k,,,,,,,,,7,9,135,1,,,,,,,,,main,2,2,1,neutral,neutral,k,k,1,0.5642303999629803,390.86462030000985,391.87998319999315,391.8633327999851,None,390.86462030000985,None,390.86462030000985,None,390.86462030000985,None,392.42995937000376,None,392.42995937000376,None,392.42995937000376,None,,,,,,,,,,,,,023,2022-05-18_17h22.39.163,Main,2022.1.1,61.09123609088335,
neutral,negative,1,k,k,,,,,,,,,7,10,136,7,,,,,,,,,main,2,2,1,negative,neutral,k,k,1,0.4987601000466384,392.43339829996694,393.4327026999672,393.4327026999672,None,392.43339829996694,None,392.43339829996694,None,392.43339829996694,None,393.93024317001107,None,393.93024317001107,None,393.93024317001107,None,,,,,,,,,,,,,023,2022-05-18_17h22.39.163,Main,2022.1.1,61.09123609088335,
negative,neutral,2,j,l,,,,,,,,,7,11,137,12,,,,,,,,,main,1,1,2,neutral,negative,l,l,1,0.5983115999842994,393.9338343999698,394.94917460001307,394.9325109999627,None,393.9338343999698,None,393.9338343999698,None,393.9338343999698,None,395.5301939700206,None,395.5301939700206,None,395.5301939700206,None,,,,,,,,,,,,,023,2022-05-18_17h22.39.163,Main,2022.1.1,61.09123609088335,
positive,negative,2,l,j,,,,,,,,,7,12,138,14,,,,,,,,,main,2,2,2,negative,positive,j,j,1,0.5851758000208065,395.5342266999651,396.5490406000172,396.53022820001934,None,395.5342266999651,None,395.5342266999651,None,395.5342266999651,None,397.1136826700007,None,397.1136826700007,None,397.1136826700007,None,,,,,,,,,,,,,023,2022-05-18_17h22.39.163,Main,2022.1.1,61.09123609088335,
negative,positive,1,j,l,,,,,,,,,7,13,139,6,,,,,,,,,main,1,1,1,positive,negative,l,l,1,0.5605529000167735,397.1255974000087,398.1301935999654,398.09911269997247,None,397.1255974000087,None,397.1255974000087,None,397.1255974000087,None,398.68011486996545,None,398.68011486996545,None,398.68011486996545,None,,,,,,,,,,,,,023,2022-05-18_17h22.39.163,Main,2022.1.1,61.09123609088335,
positive,neutral,2,l,j,,,,,,,,,7,14,140,17,,,,,,,,,main,2,2,2,neutral,positive,j,j,1,0.8316157999797724,398.6832514000125,399.6824731999659,399.6824731999659,None,398.6832514000125,None,398.6832514000125,None,398.6832514000125,None,400.51307186997144,None,400.51307186997144,None,400.51307186997144,None,,,,,,,,,,,,,023,2022-05-18_17h22.39.163,Main,2022.1.1,61.09123609088335,
negative,positive,2,j,l,,,,,,,,,7,15,141,15,,,,,,,,,main,2,2,2,positive,negative,l,l,1,0.665184700046666,400.5132386999903,401.513112799963,401.513112799963,None,400.5132386999903,None,400.5132386999903,None,400.5132386999903,None,402.17976197001406,None,402.17976197001406,None,402.17976197001406,None,,,,,,,,,,,,,023,2022-05-18_17h22.39.163,Main,2022.1.1,61.09123609088335,
positive,neutral,1,l,j,,,,,,,,,7,16,142,8,,,,,,,,,main,2,2,1,neutral,positive,j,j,1,0.5984525000094436,402.1864012000151,403.1967768999748,403.18010749999667,None,402.1864012000151,None,402.1864012000151,None,402.1864012000151,None,403.78081967001197,None,403.78081967001197,None,403.78081967001197,None,,,,,,,,,,,,,023,2022-05-18_17h22.39.163,Main,2022.1.1,61.09123609088335,
positive,negative,1,l,j,,,,,,,,,7,17,143,5,,,,,,,,,main,1,1,1,negative,positive,j,j,1,1.0979264000197873,403.7989782000077,404.8134100000025,404.7800768999732,None,403.7989782000077,None,403.7989782000077,None,403.7989782000077,None,405.8800511700159,None,405.8800511700159,None,405.8800511700159,None,,,,,,,,,,,,,023,2022-05-18_17h22.39.163,Main,2022.1.1,61.09123609088335,
neutral,positive,2,k,k,,,,,,,,,8,0,144,13,,,,,,,,,main,1,1,2,positive,neutral,k,k,1,0.59840370004531,405.8836627000128,406.8989611999714,406.8800314000109,None,405.8836627000128,None,405.8836627000128,None,405.8836627000128,None,407.4799617700104,None,407.4799617700104,None,407.4799617700104,None,,,,,,,,,,,,,023,2022-05-18_17h22.39.163,Main,2022.1.1,61.09123609088335,
negative,neutral,2,j,l,,,,,,,,,8,1,145,12,,,,,,,,,main,2,2,2,neutral,negative,l,l,1,0.7149551000329666,407.4837601999752,408.49664369999664,408.47997029998805,None,407.4837601999752,None,407.4837601999752,None,407.4837601999752,None,409.1965826699801,None,409.1965826699801,None,409.1965826699801,None,,,,,,,,,,,,,023,2022-05-18_17h22.39.163,Main,2022.1.1,61.09123609088335,
positive,positive,1,l,j,,,,,,,,,8,2,146,2,,,,,,,,,main,2,2,1,positive,positive,j,j,1,0.5983317000209354,409.20014869997976,410.2129237999907,410.1962635999662,None,409.20014869997976,None,409.20014869997976,None,409.20014869997976,None,410.796196769987,None,410.796196769987,None,410.796196769987,None,,,,,,,,,,,,,023,2022-05-18_17h22.39.163,Main,2022.1.1,61.09123609088335,
neutral,neutral,2,k,k,,,,,,,,,8,3,147,10,,,,,,,,,main,1,1,2,neutral,neutral,k,k,1,0.6825487000169232,410.7963360999711,411.79625389998546,411.79625389998546,None,410.7963360999711,None,410.7963360999711,None,410.7963360999711,None,412.47954277002134,None,412.47954277002134,None,412.47954277002134,None,,,,,,,,,,,,,023,2022-05-18_17h22.39.163,Main,2022.1.1,61.09123609088335,
positive,negative,2,l,j,,,,,,,,,8,4,148,14,,,,,,,,,main,2,2,2,negative,positive,j,j,1,0.6642880999715999,412.48202300001867,413.49625399999786,413.4795882999897,None,412.48202300001867,None,412.48202300001867,None,412.48202300001867,None,414.14655726997296,None,414.14655726997296,None,414.14655726997296,None,,,,,,,,,,,,,023,2022-05-18_17h22.39.163,Main,2022.1.1,61.09123609088335,
negative,neutral,1,j,l,,,,,,,,,8,5,149,3,,,,,,,,,main,1,1,1,neutral,negative,l,l,1,0.6652006999938749,414.1522115999833,415.16546519997064,415.1488648999948,None,414.1522115999833,None,414.1522115999833,None,414.1522115999833,None,415.8131156700023,None,415.8131156700023,None,415.8131156700023,None,,,,,,,,,,,,,023,2022-05-18_17h22.39.163,Main,2022.1.1,61.09123609088335,
positive,neutral,2,l,j,,,,,,,,,8,6,150,17,,,,,,,,,main,1,1,2,neutral,positive,j,j,1,0.7486125000286847,415.8165960999904,416.82982859999174,416.8135143999825,None,415.8165960999904,None,415.8165960999904,None,415.8165960999904,None,417.56307486998264,None,417.56307486998264,None,417.56307486998264,None,,,,,,,,,,,,,023,2022-05-18_17h22.39.163,Main,2022.1.1,61.09123609088335,
neutral,neutral,1,k,k,,,,,,,,,8,7,151,1,,,,,,,,,main,1,1,1,neutral,neutral,k,k,1,0.7315705000073649,417.5666105999844,418.5822040999774,418.5654238999705,None,417.5666105999844,None,417.5666105999844,None,417.5666105999844,None,419.296348869981,None,419.296348869981,None,419.296348869981,None,,,,,,,,,,,,,023,2022-05-18_17h22.39.163,Main,2022.1.1,61.09123609088335,
negative,negative,2,j,l,,,,,,,,,8,8,152,9,,,,,,,,,main,2,2,2,negative,negative,l,l,1,0.8692839000141248,419.29988080001203,420.3130381999654,420.2986734000151,None,419.29988080001203,None,419.29988080001203,None,419.29988080001203,None,421.1671463699953,None,421.1671463699953,None,421.1671463699953,None,,,,,,,,,,,,,023,2022-05-18_17h22.39.163,Main,2022.1.1,61.09123609088335,
positive,positive,2,l,j,,,,,,,,,8,9,153,11,,,,,,,,,main,1,1,2,positive,positive,j,j,1,0.6271296999766491,421.1796532999724,422.17934400000377,422.16267869999865,None,421.1796532999724,None,421.1796532999724,None,421.1796532999724,None,422.7959429699753,None,422.7959429699753,None,422.7959429699753,None,,,,,,,,,,,,,023,2022-05-18_17h22.39.163,Main,2022.1.1,61.09123609088335,
negative,positive,1,j,l,,,,,,,,,8,10,154,6,,,,,,,,,main,1,1,1,positive,negative,l,l,1,0.7821202000486664,422.7960135000176,423.79633829998784,423.79633829998784,None,422.7960135000176,None,422.7960135000176,None,422.7960135000176,None,424.57959296997285,None,424.57959296997285,None,424.57959296997285,None,,,,,,,,,,,,,023,2022-05-18_17h22.39.163,Main,2022.1.1,61.09123609088335,
negative,negative,1,j,l,,,,,,,,,8,11,155,0,,,,,,,,,main,2,2,1,negative,negative,l,l,1,0.6983140999800526,424.5833102000179,425.59629909996875,425.5796760999947,None,424.5833102000179,None,424.5833102000179,None,424.5833102000179,None,426.2795355700131,None,426.2795355700131,None,426.2795355700131,None,,,,,,,,,,,,,023,2022-05-18_17h22.39.163,Main,2022.1.1,61.09123609088335,
positive,negative,1,l,j,,,,,,,,,8,12,156,5,,,,,,,,,main,1,1,1,negative,positive,j,j,1,0.7816346000181511,426.28529789997265,427.29849989997456,427.2795784000191,None,426.28529789997265,None,426.28529789997265,None,426.28529789997265,None,428.06284307002204,None,428.06284307002204,None,428.06284307002204,None,,,,,,,,,,,,,023,2022-05-18_17h22.39.163,Main,2022.1.1,61.09123609088335,
positive,neutral,1,l,j,,,,,,,,,8,13,157,8,,,,,,,,,main,2,2,1,neutral,positive,j,j,1,1.3983417000272311,428.0694628999918,429.0819134999765,429.06518699997105,None,428.0694628999918,None,428.0694628999918,None,428.0694628999918,None,430.4627897699887,None,430.4627897699887,None,430.4627897699887,None,,,,,,,,,,,,,023,2022-05-18_17h22.39.163,Main,2022.1.1,61.09123609088335,
neutral,negative,1,k,k,,,,,,,,,8,14,158,7,,,,,,,,,main,1,1,1,negative,neutral,k,k,1,0.6647846000269055,430.4706941000186,431.479147200007,431.4627213999629,None,430.4706941000186,None,430.4706941000186,None,430.4706941000186,None,432.1290796700108,None,432.1290796700108,None,432.1290796700108,None,,,,,,,,,,,,,023,2022-05-18_17h22.39.163,Main,2022.1.1,61.09123609088335,
neutral,positive,1,k,k,,,,,,,,,8,15,159,4,,,,,,,,,main,1,1,1,positive,neutral,k,k,1,0.6154010000173002,432.1291271999944,433.12914340000134,433.12914340000134,None,432.1291271999944,None,432.1291271999944,None,432.1291271999944,None,433.74605096999437,None,433.74605096999437,None,433.74605096999437,None,,,,,,,,,,,,,023,2022-05-18_17h22.39.163,Main,2022.1.1,61.09123609088335,
negative,positive,2,j,l,,,,,,,,,8,16,160,15,,,,,,,,,main,2,2,2,positive,negative,l,l,1,0.6320531000383198,433.7484257000033,434.76246689999243,434.7458086999832,None,433.7484257000033,None,433.7484257000033,None,433.7484257000033,None,435.3795234700141,None,435.3795234700141,None,435.3795234700141,None,,,,,,,,,,,,,023,2022-05-18_17h22.39.163,Main,2022.1.1,61.09123609088335,
neutral,negative,2,k,k,,,,,,,,,8,17,161,16,,,,,,,,,main,2,2,2,negative,neutral,k,k,1,0.7482711999909952,435.38573779998114,436.39832949999254,436.3817793999915,None,435.38573779998114,None,435.38573779998114,None,435.38573779998114,None,437.1295999700145,None,437.1295999700145,None,437.1295999700145,None,,,,,,,,,,,,,023,2022-05-18_17h22.39.163,Main,2022.1.1,61.09123609088335,
negative,neutral,1,j,l,,,,,,,,,9,0,162,3,,,,,,,,,main,2,2,1,neutral,negative,l,l,1,0.6813500000280328,437.1359525999869,438.1460447999998,438.12939489999553,None,437.1359525999869,None,437.1359525999869,None,437.1359525999869,None,438.81265546999055,None,438.81265546999055,None,438.81265546999055,None,,,,,,,,,,,,,023,2022-05-18_17h22.39.163,Main,2022.1.1,61.09123609088335,
positive,negative,2,l,j,,,,,,,,,9,1,163,14,,,,,,,,,main,1,1,2,negative,positive,j,j,1,0.6984734000288881,438.8157982999692,439.8150121999788,439.8150121999788,None,438.8157982999692,None,438.8157982999692,None,438.8157982999692,None,440.5126187700138,None,440.5126187700138,None,440.5126187700138,None,,,,,,,,,,,,,023,2022-05-18_17h22.39.163,Main,2022.1.1,61.09123609088335,
negative,negative,2,j,l,,,,,,,,,9,2,164,9,,,,,,,,,main,2,2,2,negative,negative,l,l,1,0.6984736999729648,440.518219999969,441.53143380000256,441.51491879997775,None,440.518219999969,None,440.518219999969,None,440.518219999969,None,442.21256876999394,None,442.21256876999394,None,442.21256876999394,None,,,,,,,,,,,,,023,2022-05-18_17h22.39.163,Main,2022.1.1,61.09123609088335,
negative,positive,1,j,l,,,,,,,,,9,3,165,6,,,,,,,,,main,2,2,1,positive,negative,l,l,1,0.8313297999557108,442.21641459997045,443.2288860999979,443.2122046999866,None,442.21641459997045,None,442.21641459997045,None,442.21641459997045,None,444.0454750700213,None,444.0454750700213,None,444.0454750700213,None,,,,,,,,,,,,,023,2022-05-18_17h22.39.163,Main,2022.1.1,61.09123609088335,
neutral,positive,1,k,k,,,,,,,,,9,4,166,4,,,,,,,,,main,2,2,1,positive,neutral,k,k,1,0.5986740000080317,444.04748519998975,445.0622030000086,445.0455324999639,None,444.04748519998975,None,444.04748519998975,None,444.04748519998975,None,445.6454753700003,None,445.6454753700003,None,445.6454753700003,None,,,,,,,,,,,,,023,2022-05-18_17h22.39.163,Main,2022.1.1,61.09123609088335,
neutral,neutral,1,k,k,,,,,,,,,9,5,167,1,,,,,,,,,main,2,2,1,neutral,neutral,k,k,1,0.615020299970638,445.64606200001435,446.64552439999534,446.64552439999534,None,445.64606200001435,None,445.64606200001435,None,445.64606200001435,None,447.2621327699802,None,447.2621327699802,None,447.2621327699802,None,,,,,,,,,,,,,023,2022-05-18_17h22.39.163,Main,2022.1.1,61.09123609088335,
neutral,negative,1,k,k,,,,,,,,,9,6,168,7,,,,,,,,,main,1,1,1,negative,neutral,k,k,1,0.5651127999881282,447.26851769996574,448.2813423000043,448.2624708999647,None,447.26851769996574,None,447.26851769996574,None,447.26851769996574,None,448.82909516996585,None,448.82909516996585,None,448.82909516996585,None,,,,,,,,,,,,,023,2022-05-18_17h22.39.163,Main,2022.1.1,61.09123609088335,
negative,positive,2,j,l,,,,,,,,,9,7,169,15,,,,,,,,,main,2,2,2,positive,negative,l,l,1,0.6355830999673344,448.8351010999759,449.8480214999872,449.8313366000075,None,448.8351010999759,None,448.8351010999759,None,448.8351010999759,None,450.462371470005,None,450.462371470005,None,450.462371470005,None,,,,,,,,,,,,,023,2022-05-18_17h22.39.163,Main,2022.1.1,61.09123609088335,
negative,neutral,2,j,l,,,,,,,,,9,8,170,12,,,,,,,,,main,2,2,2,neutral,negative,l,l,1,0.5934714999748394,450.4718362999847,451.4812218999723,451.4624082999653,None,450.4718362999847,None,450.4718362999847,None,450.4718362999847,None,452.06233697001005,None,452.06233697001005,None,452.06233697001005,None,,,,,,,,,,,,,023,2022-05-18_17h22.39.163,Main,2022.1.1,61.09123609088335,
positive,positive,2,l,j,,,,,,,,,9,9,171,11,,,,,,,,,main,2,2,2,positive,positive,j,j,1,0.6816796999773942,452.06603300001007,453.0790277000051,453.0646805000142,None,452.06603300001007,None,452.06603300001007,None,452.06603300001007,None,453.7456301699916,None,453.7456301699916,None,453.7456301699916,None,,,,,,,,,,,,,023,2022-05-18_17h22.39.163,Main,2022.1.1,61.09123609088335,
neutral,neutral,2,k,k,,,,,,,,,9,10,172,10,,,,,,,,,main,2,2,2,neutral,neutral,k,k,1,0.5313495000009425,453.7493492999929,454.761971800006,454.74530989996856,None,453.7493492999929,None,453.7493492999929,None,453.7493492999929,None,455.27855017001855,None,455.27855017001855,None,455.27855017001855,None,,,,,,,,,,,,,023,2022-05-18_17h22.39.163,Main,2022.1.1,61.09123609088335,
positive,neutral,1,l,j,,,,,,,,,9,11,173,8,,,,,,,,,main,2,2,1,neutral,positive,j,j,1,0.7319712999742478,455.27864550001686,456.2786371000111,456.2786371000111,None,455.27864550001686,None,455.27864550001686,None,455.27864550001686,None,457.01226226997676,None,457.01226226997676,None,457.01226226997676,None,,,,,,,,,,,,,023,2022-05-18_17h22.39.163,Main,2022.1.1,61.09123609088335,
neutral,negative,2,k,k,,,,,,,,,9,12,174,16,,,,,,,,,main,2,2,2,negative,neutral,k,k,1,0.6483071999973617,457.018219999969,458.02893219998805,458.01459179999074,None,457.018219999969,None,457.018219999969,None,457.018219999969,None,458.66217967001137,None,458.66217967001137,None,458.66217967001137,None,,,,,,,,,,,,,023,2022-05-18_17h22.39.163,Main,2022.1.1,61.09123609088335,
positive,negative,1,l,j,,,,,,,,,9,13,175,5,,,,,,,,,main,2,2,1,negative,positive,j,j,1,0.6316121999989264,458.6662207999616,459.681130699988,459.6644805999822,None,458.6662207999616,None,458.6662207999616,None,458.6662207999616,None,460.2954927699815,None,460.2954927699815,None,460.2954927699815,None,,,,,,,,,,,,,023,2022-05-18_17h22.39.163,Main,2022.1.1,61.09123609088335,
neutral,positive,2,k,k,,,,,,,,,9,14,176,13,,,,,,,,,main,1,1,2,positive,neutral,k,k,1,0.5486137999687344,460.300906999968,461.31221090001054,461.29775660001906,None,460.300906999968,None,460.300906999968,None,460.300906999968,None,461.84546246997195,None,461.84546246997195,None,461.84546246997195,None,,,,,,,,,,,,,023,2022-05-18_17h22.39.163,Main,2022.1.1,61.09123609088335,
positive,positive,1,l,j,,,,,,,,,9,15,177,2,,,,,,,,,main,2,2,1,positive,positive,j,j,1,0.5651321000186726,461.85118930001045,462.8643484999775,462.8477196000167,None,461.85118930001045,None,461.85118930001045,None,461.85118930001045,None,463.4120817699644,None,463.4120817699644,None,463.4120817699644,None,,,,,,,,,,,,,023,2022-05-18_17h22.39.163,Main,2022.1.1,61.09123609088335,
positive,neutral,2,l,j,,,,,,,,,9,16,178,17,,,,,,,,,main,2,2,2,neutral,positive,j,j,1,0.8145622000447474,463.4181010000175,464.42843129998073,464.41176439996343,None,463.4181010000175,None,463.4181010000175,None,463.4181010000175,None,465.22837506997746,None,465.22837506997746,None,465.22837506997746,None,,,,,,,,,,,,,023,2022-05-18_17h22.39.163,Main,2022.1.1,61.09123609088335,
negative,negative,1,j,l,,,,,,,,,9,17,179,0,,,,,,,,,main,2,2,1,negative,negative,l,l,1,0.6652841999894008,465.2284188999911,466.22842240001773,466.22842240001773,None,465.2284188999911,None,465.2284188999911,None,465.2284188999911,None,466.8950197699654,None,466.8950197699654,None,466.8950197699654,None,,,,,,,,,,,,,023,2022-05-18_17h22.39.163,Main,2022.1.1,61.09123609088335,
neutral,positive,1,k,k,,,,,,,,,10,0,180,4,,,,,,,,,main,1,1,1,positive,neutral,k,k,1,0.6822268000105396,466.8955629999982,467.8950909000123,467.8950909000123,None,466.8955629999982,None,466.8955629999982,None,466.8955629999982,None,468.5787017699971,None,468.5787017699971,None,468.5787017699971,None,,,,,,,,,,,,,023,2022-05-18_17h22.39.163,Main,2022.1.1,61.09123609088335,
neutral,neutral,1,k,k,,,,,,,,,10,1,181,1,,,,,,,,,main,1,1,1,neutral,neutral,k,k,1,0.5709756999858655,468.58238480001455,469.5975577000063,469.58092430001125,None,468.58238480001455,None,468.58238480001455,None,468.58238480001455,None,470.1476177700155,None,470.1476177700155,None,470.1476177700155,None,,,,,,,,,,,,,023,2022-05-18_17h22.39.163,Main,2022.1.1,61.09123609088335,
positive,positive,1,l,j,,,,,,,,,10,2,182,2,,,,,,,,,main,2,2,1,positive,positive,j,j,1,0.6082628999720328,470.1553499000147,471.1642780000111,471.1476434000069,None,470.1553499000147,None,470.1553499000147,None,470.1553499000147,None,471.7618980699975,None,471.7618980699975,None,471.7618980699975,None,,,,,,,,,,,,,023,2022-05-18_17h22.39.163,Main,2022.1.1,61.09123609088335,
neutral,positive,2,k,k,,,,,,,,,10,3,183,13,,,,,,,,,main,2,2,2,positive,neutral,k,k,1,0.6149985000374727,471.7680110000074,472.780893499963,472.7642298999708,None,471.7680110000074,None,471.7680110000074,None,471.7680110000074,None,473.3785510700021,None,473.3785510700021,None,473.3785510700021,None,,,,,,,,,,,,,023,2022-05-18_17h22.39.163,Main,2022.1.1,61.09123609088335,
negative,negative,1,j,l,,,,,,,,,10,4,184,0,,,,,,,,,main,2,2,1,negative,negative,l,l,1,0.6981315999873914,473.38474399998086,474.39745579997543,474.3808590999688,None,473.38474399998086,None,473.38474399998086,None,473.38474399998086,None,475.0782086699677,None,475.0782086699677,None,475.0782086699677,None,,,,,,,,,,,,,023,2022-05-18_17h22.39.163,Main,2022.1.1,61.09123609088335,
positive,negative,2,l,j,,,,,,,,,10,5,185,14,,,,,,,,,main,2,2,2,negative,positive,j,j,1,0.6649977000197396,475.08127769996645,476.0938804000034,476.07794200000353,None,475.08127769996645,None,475.08127769996645,None,475.08127769996645,None,476.7447857699648,None,476.7447857699648,None,476.7447857699648,None,,,,,,,,,,,,,023,2022-05-18_17h22.39.163,Main,2022.1.1,61.09123609088335,
neutral,negative,2,k,k,,,,,,,,,10,6,186,16,,,,,,,,,main,1,1,2,negative,neutral,k,k,1,0.665138799988199,476.7448373999796,477.7448223999818,477.7448223999818,None,476.7448373999796,None,476.7448373999796,None,476.7448373999796,None,478.4114424699859,None,478.4114424699859,None,478.4114424699859,None,,,,,,,,,,,,,023,2022-05-18_17h22.39.163,Main,2022.1.1,61.09123609088335,
neutral,negative,1,k,k,,,,,,,,,10,7,187,7,,,,,,,,,main,2,2,1,negative,neutral,k,k,1,0.7153065999737009,478.4117947999621,479.41148989996873,479.41148989996873,None,478.4117947999621,None,478.4117947999621,None,478.4117947999621,None,480.1281052699836,None,480.1281052699836,None,480.1281052699836,None,,,,,,,,,,,,,023,2022-05-18_17h22.39.163,Main,2022.1.1,61.09123609088335,
negative,neutral,2,j,l,,,,,,,,,10,8,188,12,,,,,,,,,main,1,1,2,neutral,negative,l,l,1,0.7653135000145994,480.13420430000406,481.14734269998735,481.1308228999842,None,480.13420430000406,None,480.13420430000406,None,480.13420430000406,None,481.89504867001085,None,481.89504867001085,None,481.89504867001085,None,,,,,,,,,,,,,023,2022-05-18_17h22.39.163,Main,2022.1.1,61.09123609088335,
neutral,neutral,2,k,k,,,,,,,,,10,9,189,10,,,,,,,,,main,2,2,2,neutral,neutral,k,k,1,0.7485966000240296,481.90096539998194,482.9140896999743,482.89735179999843,None,481.90096539998194,None,481.90096539998194,None,481.90096539998194,None,483.6450262700149,None,483.6450262700149,None,483.6450262700149,None,,,,,,,,,,,,,023,2022-05-18_17h22.39.163,Main,2022.1.1,61.09123609088335,
positive,neutral,1,l,j,,,,,,,,,10,10,190,8,,,,,,,,,main,2,2,1,neutral,positive,j,j,1,0.6328395000309683,483.65124530001776,484.66394589998526,484.64740710001206,None,483.65124530001776,None,483.65124530001776,None,483.65124530001776,None,485.27839986998003,None,485.27839986998003,None,485.27839986998003,None,,,,,,,,,,,,,023,2022-05-18_17h22.39.163,Main,2022.1.1,61.09123609088335,
negative,positive,2,j,l,,,,,,,,,10,11,191,15,,,,,,,,,main,1,1,2,positive,negative,l,l,1,0.7141185000073165,485.2850086999824,486.29498800000874,486.28053940000245,None,485.2850086999824,None,485.2850086999824,None,485.2850086999824,None,486.9950876699935,None,486.9950876699935,None,486.9950876699935,None,,,,,,,,,,,,,023,2022-05-18_17h22.39.163,Main,2022.1.1,61.09123609088335,
positive,positive,2,l,j,,,,,,,,,10,12,192,11,,,,,,,,,main,1,1,2,positive,positive,j,j,1,0.748165600001812,487.00149739999324,488.0112938999664,487.9946276000119,None,487.00149739999324,None,487.00149739999324,None,487.00149739999324,None,488.7445512699836,None,488.7445512699836,None,488.7445512699836,None,,,,,,,,,,,,,023,2022-05-18_17h22.39.163,Main,2022.1.1,61.09123609088335,
positive,negative,1,l,j,,,,,,,,,10,13,193,5,,,,,,,,,main,2,2,1,negative,positive,j,j,1,0.6345632000011392,488.7467029999825,489.76130780001404,489.7446418000036,None,488.7467029999825,None,488.7467029999825,None,488.7467029999825,None,490.38182076998635,None,490.38182076998635,None,490.38182076998635,None,,,,,,,,,,,,,023,2022-05-18_17h22.39.163,Main,2022.1.1,61.09123609088335,
positive,neutral,2,l,j,,,,,,,,,10,14,194,17,,,,,,,,,main,1,1,2,neutral,positive,j,j,1,0.6614983000326902,490.38481730001513,491.39493030001177,491.3784311999916,None,490.38481730001513,None,490.38481730001513,None,490.38481730001513,None,492.0448598699935,None,492.0448598699935,None,492.0448598699935,None,,,,,,,,,,,,,023,2022-05-18_17h22.39.163,Main,2022.1.1,61.09123609088335,
negative,negative,2,j,l,,,,,,,,,10,15,195,9,,,,,,,,,main,2,2,2,negative,negative,l,l,1,0.6878096999716945,492.05066060001263,493.0615413999767,493.0471599000157,None,492.05066060001263,None,492.05066060001263,None,492.05066060001263,None,493.73222206999196,None,493.73222206999196,None,493.73222206999196,None,,,,,,,,,,,,,023,2022-05-18_17h22.39.163,Main,2022.1.1,61.09123609088335,
negative,positive,1,j,l,,,,,,,,,10,16,196,6,,,,,,,,,main,2,2,1,positive,negative,l,l,1,0.7451103999628685,493.73742209997727,494.74482560000615,494.7307807999896,None,493.73742209997727,None,493.73742209997727,None,493.73742209997727,None,495.48045037000554,None,495.48045037000554,None,495.48045037000554,None,,,,,,,,,,,,,023,2022-05-18_17h22.39.163,Main,2022.1.1,61.09123609088335,
negative,neutral,1,j,l,,,,,,,,,10,17,197,3,,,,,,,,,main,2,2,1,neutral,negative,l,l,1,0.5976635999977589,495.48386520001804,496.49478599999566,496.4805852000136,None,495.48386520001804,None,495.48386520001804,None,495.48386520001804,None,497.078459370014,None,497.078459370014,None,497.078459370014,None,,,,,,,,,,,,,023,2022-05-18_17h22.39.163,Main,2022.1.1,61.09123609088335,
positive,neutral,2,l,j,,,,,,,,,11,0,198,17,,,,,,,,,main,1,1,2,neutral,positive,j,j,1,0.6132939999806695,497.08507169998484,498.094399900001,498.0777306999662,None,497.08507169998484,None,497.08507169998484,None,497.08507169998484,None,498.6946277699957,None,498.6946277699957,None,498.6946277699957,None,,,,,,,,,,,,,023,2022-05-18_17h22.39.163,Main,2022.1.1,61.09123609088335,
positive,negative,1,l,j,,,,,,,,,11,1,199,5,,,,,,,,,main,2,2,1,negative,positive,j,j,1,0.7147691999562085,498.71118809998734,499.7110776999616,499.6944073999766,None,498.71118809998734,None,498.71118809998734,None,498.71118809998734,None,500.4109875700145,None,500.4109875700145,None,500.4109875700145,None,,,,,,,,,,,,,023,2022-05-18_17h22.39.163,Main,2022.1.1,61.09123609088335,
negative,negative,2,j,l,,,,,,,,,11,2,200,9,,,,,,,,,main,1,1,2,negative,negative,l,l,1,0.6152648000279441,500.41148830001475,501.4110477999784,501.4110477999784,None,500.41148830001475,None,500.41148830001475,None,500.41148830001475,None,502.0279823700024,None,502.0279823700024,None,502.0279823700024,None,,,,,,,,,,,,,023,2022-05-18_17h22.39.163,Main,2022.1.1,61.09123609088335,
neutral,positive,2,k,k,,,,,,,,,11,3,201,13,,,,,,,,,main,2,2,2,positive,neutral,k,k,1,0.6652813000255264,502.03203920001397,503.04466999997385,503.03033859998686,None,502.03203920001397,None,502.03203920001397,None,502.03203920001397,None,503.69459526998105,None,503.69459526998105,None,503.69459526998105,None,,,,,,,,,,,,,023,2022-05-18_17h22.39.163,Main,2022.1.1,61.09123609088335,
negative,neutral,1,j,l,,,,,,,,,11,4,202,3,,,,,,,,,main,1,1,1,neutral,negative,l,l,1,0.8495641000336036,503.69791360001545,504.7134326999658,504.6969299999764,None,503.69791360001545,None,503.69791360001545,None,503.69791360001545,None,505.5456953700108,None,505.5456953700108,None,505.5456953700108,None,,,,,,,,,,,,,023,2022-05-18_17h22.39.163,Main,2022.1.1,61.09123609088335,
positive,negative,2,l,j,,,,,,,,,11,5,203,14,,,,,,,,,main,1,1,2,negative,positive,j,j,1,0.6299077000003308,505.5514395000064,506.563476899988,506.54689250001684,None,505.5514395000064,None,505.5514395000064,None,505.5514395000064,None,507.1779434700205,None,507.1779434700205,None,507.1779434700205,None,,,,,,,,,,,,,023,2022-05-18_17h22.39.163,Main,2022.1.1,61.09123609088335,
neutral,positive,1,k,k,,,,,,,,,11,6,204,4,,,,,,,,,main,2,2,1,positive,neutral,k,k,1,0.7150844000279903,507.1835680999793,508.1945425000158,508.17787060001865,None,507.1835680999793,None,507.1835680999793,None,507.1835680999793,None,508.8945378700213,None,508.8945378700213,None,508.8945378700213,None,,,,,,,,,,,,,023,2022-05-18_17h22.39.163,Main,2022.1.1,61.09123609088335,
negative,positive,1,j,l,,,,,,,,,11,7,205,6,,,,,,,,,main,1,1,1,positive,negative,l,l,1,1.0479094000183977,508.90027919999557,509.91081099997973,509.89414230000693,None,508.90027919999557,None,508.90027919999557,None,508.90027919999557,None,510.94409026997744,None,510.94409026997744,None,510.94409026997744,None,,,,,,,,,,,,,023,2022-05-18_17h22.39.163,Main,2022.1.1,61.09123609088335,
neutral,neutral,2,k,k,,,,,,,,,11,8,206,10,,,,,,,,,main,1,1,2,neutral,neutral,k,k,1,0.8808465999900363,510.9458022000035,511.96081530000083,511.9441596000106,None,510.9458022000035,None,510.9458022000035,None,510.9458022000035,None,512.827403670008,None,512.827403670008,None,512.827403670008,None,,,,,,,,,,,,,023,2022-05-18_17h22.39.163,Main,2022.1.1,61.09123609088335,
negative,positive,2,j,l,,,,,,,,,11,9,207,15,,,,,,,,,main,2,2,2,positive,negative,l,l,1,0.6820437000133097,512.8281037000124,513.8301694999682,513.8301694999682,None,512.8281037000124,None,512.8281037000124,None,512.8281037000124,None,514.5108769700222,None,514.5108769700222,None,514.5108769700222,None,,,,,,,,,,,,,023,2022-05-18_17h22.39.163,Main,2022.1.1,61.09123609088335,
neutral,neutral,1,k,k,,,,,,,,,11,10,208,1,,,,,,,,,main,2,2,1,neutral,neutral,k,k,1,1.065179299970623,514.5175933999708,515.5299845999689,515.5133933000034,None,514.5175933999708,None,514.5175933999708,None,514.5175933999708,None,516.5776658699673,None,516.5776658699673,None,516.5776658699673,None,,,,,,,,,,,,,023,2022-05-18_17h22.39.163,Main,2022.1.1,61.09123609088335,
negative,neutral,2,j,l,,,,,,,,,11,11,209,12,,,,,,,,,main,2,2,2,neutral,negative,l,l,1,0.7481627999804914,516.5813369000098,517.5964813000173,517.5776674000081,None,516.5813369000098,None,516.5813369000098,None,516.5813369000098,None,518.3276624699996,None,518.3276624699996,None,518.3276624699996,None,,,,,,,,,,,,,023,2022-05-18_17h22.39.163,Main,2022.1.1,61.09123609088335,
positive,positive,2,l,j,,,,,,,,,11,12,210,11,,,,,,,,,main,1,1,2,positive,positive,j,j,1,0.6985407000174746,518.3309933000128,519.3465147999814,519.3299123999896,None,518.3309933000128,None,518.3309933000128,None,518.3309933000128,None,520.0275956699683,None,520.0275956699683,None,520.0275956699683,None,,,,,,,,,,,,,023,2022-05-18_17h22.39.163,Main,2022.1.1,61.09123609088335,
positive,positive,1,l,j,,,,,,,,,11,13,211,2,,,,,,,,,main,2,2,1,positive,positive,j,j,1,0.5812923000194132,520.0310709999758,521.0465678999899,521.0276120000053,None,520.0310709999758,None,520.0310709999758,None,520.0310709999758,None,521.6105008699873,None,521.6105008699873,None,521.6105008699873,None,,,,,,,,,,,,,023,2022-05-18_17h22.39.163,Main,2022.1.1,61.09123609088335,
neutral,negative,2,k,k,,,,,,,,,11,14,212,16,,,,,,,,,main,2,2,2,negative,neutral,k,k,1,0.6150817000307143,521.6105659999885,522.6105628999649,522.6105628999649,None,521.6105659999885,None,521.6105659999885,None,521.6105659999885,None,523.2271618699946,None,523.2271618699946,None,523.2271618699946,None,,,,,,,,,,,,,023,2022-05-18_17h22.39.163,Main,2022.1.1,61.09123609088335,
negative,negative,1,j,l,,,,,,,,,11,15,213,0,,,,,,,,,main,1,1,1,negative,negative,l,l,1,0.6153506999835372,523.2272178999847,524.2275070999749,524.2275070999749,None,523.2272178999847,None,523.2272178999847,None,523.2272178999847,None,524.8438147699984,None,524.8438147699984,None,524.8438147699984,None,,,,,,,,,,,,,023,2022-05-18_17h22.39.163,Main,2022.1.1,61.09123609088335,
neutral,negative,1,k,k,,,,,,,,,11,16,214,7,,,,,,,,,main,2,2,1,negative,neutral,k,k,1,0.5982414000318386,524.8445874999743,525.8438603999675,525.8438603999675,None,524.8445874999743,None,524.8445874999743,None,524.8445874999743,None,526.4439247699978,None,526.4439247699978,None,526.4439247699978,None,,,,,,,,,,,,,023,2022-05-18_17h22.39.163,Main,2022.1.1,61.09123609088335,
positive,neutral,1,l,j,,,,,,,,,11,17,215,8,,,,,,,,,main,2,2,1,neutral,positive,j,j,1,0.6154011000180617,526.4499538000091,527.4608422999736,527.4464735999936,None,526.4499538000091,None,526.4499538000091,None,526.4499538000091,None,528.060756170022,None,528.060756170022,None,528.060756170022,None,,,,,,,,,,,,,023,2022-05-18_17h22.39.163,Main,2022.1.1,61.09123609088335,
positive,negative,1,l,j,,,,,,,,,12,0,216,5,,,,,,,,,main,2,2,1,negative,positive,j,j,1,0.5480619000154547,528.066765399999,529.077451899997,529.0608024999965,None,528.066765399999,None,528.066765399999,None,528.066765399999,None,529.6104604699707,None,529.6104604699707,None,529.6104604699707,None,,,,,,,,,,,,,023,2022-05-18_17h22.39.163,Main,2022.1.1,61.09123609088335,
negative,negative,1,j,l,,,,,,,,,12,1,217,0,,,,,,,,,main,2,2,1,negative,negative,l,l,1,0.699151000007987,529.616441399965,530.6274239000049,530.6130438999971,None,529.616441399965,None,529.616441399965,None,529.616441399965,None,531.3108293699974,None,531.3108293699974,None,531.3108293699974,None,,,,,,,,,,,,,023,2022-05-18_17h22.39.163,Main,2022.1.1,61.09123609088335,
positive,neutral,1,l,j,,,,,,,,,12,2,218,8,,,,,,,,,main,1,1,1,neutral,positive,j,j,1,0.8809827999793924,531.3143148999661,532.3295999999973,532.3129879999906,None,531.3143148999661,None,531.3143148999661,None,531.3143148999661,None,533.1936202700075,None,533.1936202700075,None,533.1936202700075,None,,,,,,,,,,,,,023,2022-05-18_17h22.39.163,Main,2022.1.1,61.09123609088335,
positive,negative,2,l,j,,,,,,,,,12,3,219,14,,,,,,,,,main,1,1,2,negative,positive,j,j,1,0.9985910999821499,533.193675699993,534.1936540000024,534.1936540000024,None,533.193675699993,None,533.193675699993,None,533.193675699993,None,535.193620470009,None,535.193620470009,None,535.193620470009,None,,,,,,,,,,,,,023,2022-05-18_17h22.39.163,Main,2022.1.1,61.09123609088335,
negative,positive,1,j,l,,,,,,,,,12,4,220,6,,,,,,,,,main,2,2,1,positive,negative,l,l,1,0.8155128000071272,535.1971864000079,536.2106444999808,536.1939809999894,None,535.1971864000079,None,535.1971864000079,None,535.1971864000079,None,537.0105551700166,None,537.0105551700166,None,537.0105551700166,None,,,,,,,,,,,,,023,2022-05-18_17h22.39.163,Main,2022.1.1,61.09123609088335,
neutral,positive,1,k,k,,,,,,,,,12,5,221,4,,,,,,,,,main,2,2,1,positive,neutral,k,j,0,0.5982126999879256,537.0143033000058,538.027263499971,538.0128414999926,None,537.0143033000058,None,537.0143033000058,None,537.0143033000058,None,538.6129666999914,None,538.6129666999914,None,538.6129666999914,None,,,,,,,,,,,,,023,2022-05-18_17h22.39.163,Main,2022.1.1,61.09123609088335,
neutral,positive,2,k,k,,,,,,,,,12,6,222,13,,,,,,,,,main,2,2,2,positive,neutral,k,k,1,0.6513971000094898,539.6283027000027,540.6271681999788,540.6127632000134,None,539.6283027000027,None,539.6283027000027,None,539.6283027000027,None,541.2771047700138,None,541.2771047700138,None,541.2771047700138,None,,,,,,,,,,,,,023,2022-05-18_17h22.39.163,Main,2022.1.1,61.09123609088335,
negative,neutral,1,j,l,,,,,,,,,12,7,223,3,,,,,,,,,main,1,1,1,neutral,negative,l,l,1,0.6642449999926612,541.2811010999721,542.2938002999872,542.2771252999664,None,541.2811010999721,None,541.2811010999721,None,541.2811010999721,None,542.9434127699991,None,542.9434127699991,None,542.9434127699991,None,,,,,,,,,,,,,023,2022-05-18_17h22.39.163,Main,2022.1.1,61.09123609088335,
negative,neutral,2,j,l,,,,,,,,,12,8,224,12,,,,,,,,,main,2,2,2,neutral,negative,l,l,1,0.7320055000018328,542.943462700001,543.943731300009,543.943731300009,None,542.943462700001,None,542.943462700001,None,542.943462700001,None,544.6767428700172,None,544.6767428700172,None,544.6767428700172,None,,,,,,,,,,,,,023,2022-05-18_17h22.39.163,Main,2022.1.1,61.09123609088335,
