target,distractor,set,ans1,ans2,rep_loop2.thisRepN,rep_loop2.thisTrialN,rep_loop2.thisN,rep_loop2.thisIndex,flanker_prac_loop.thisRepN,flanker_prac_loop.thisTrialN,flanker_prac_loop.thisN,flanker_prac_loop.thisIndex,flanker_main_loop.thisRepN,flanker_main_loop.thisTrialN,flanker_main_loop.thisN,flanker_main_loop.thisIndex,fl_inst_resp.keys,fl_inst_resp.rt,sound_1.started,sound_1.stopped,image_4.started,image_4.stopped,back_2.started,back_2.stopped,main_prac,fl_cold,fl_colt,fl_set,fl_dcond,fl_tcond,fl_ans,fl_res,fl_corr,fl_rt,fix_fl.started,fix_fl.stopped,targ.started,targ.stopped,j_button.started,j_button.stopped,k_button.started,k_button.stopped,l_button.started,l_button.stopped,j_button2.started,j_button2.stopped,k_button2.started,k_button2.stopped,l_button2.started,l_button2.stopped,mainback.started,mainback.stopped,key_resp.keys,mouse_6.x,mouse_6.y,mouse_6.leftButton,mouse_6.midButton,mouse_6.rightButton,mouse_6.started,mouse_6.stopped,text_2.started,text_2.stopped,id*,date,expName,psychopyVersion,frameRate,
,,,,,0,0,0,0,,,,,,,,,space,55.909615300013684,16.897892400011187,None,72.8322478000191,None,,,,,,,,,,,,,,,,,,,,,,,,,,,,,,,,,,,,,,,,,024,2022-05-19_10h31.42.260,Main,2022.1.1,60.92601448807755,
negative,neutral,2,j,l,,,,,0,0,0,12,,,,,,,,,,,75.78225639997981,None,prac,1,1,2,neutral,negative,j,j,1,2.1033151999581605,77.81314230000135,78.81543929997133,78.79884529998526,None,77.81314230000135,None,77.81314230000135,None,77.81314230000135,None,80.91706379997777,None,80.91706379997777,None,80.91706379997777,None,,,,,,,,,,,,,024,2022-05-19_10h31.42.260,Main,2022.1.1,60.92601448807755,
neutral,negative,1,k,k,,,,,0,1,1,7,,,,,,,,,,,,,prac,2,2,1,negative,neutral,k,k,1,1.3195002999855205,81.94280469999649,82.94873479998205,82.91545149998274,None,81.94280469999649,None,81.94280469999649,None,81.94280469999649,None,84.24644450002233,None,84.24644450002233,None,84.24644450002233,None,,,,,,,,,,,,,024,2022-05-19_10h31.42.260,Main,2022.1.1,60.92601448807755,
negative,negative,2,j,l,,,,,0,2,2,9,,,,,,,,,,,,,prac,2,2,2,negative,negative,j,j,1,1.014862300013192,84.26018029998522,85.26532760000555,85.24869400000898,None,84.26018029998522,None,84.26018029998522,None,84.26018029998522,None,86.26303780000308,None,86.26303780000308,None,86.26303780000308,None,,,,,,,,,,,,,024,2022-05-19_10h31.42.260,Main,2022.1.1,60.92601448807755,
neutral,positive,2,k,k,,,,,0,3,3,13,,,,,,,,,,,,,prac,1,1,2,positive,neutral,k,k,1,0.8655921000172384,86.2735296000028,87.28193619998638,87.24867970001651,None,86.2735296000028,None,86.2735296000028,None,86.2735296000028,None,88.12979509998695,None,88.12979509998695,None,88.12979509998695,None,,,,,,,,,,,,,024,2022-05-19_10h31.42.260,Main,2022.1.1,60.92601448807755,
neutral,neutral,2,k,k,,,,,0,4,4,10,,,,,,,,,,,,,prac,1,1,2,neutral,neutral,k,k,1,0.7663619000231847,88.13567079999484,89.14856760000112,89.13195900002029,None,88.13567079999484,None,88.13567079999484,None,88.13567079999484,None,89.8963395000028,None,89.8963395000028,None,89.8963395000028,None,,,,,,,,,,,,,024,2022-05-19_10h31.42.260,Main,2022.1.1,60.92601448807755,
neutral,positive,1,k,k,,,,,0,5,5,4,,,,,,,,,,,,,prac,2,2,1,positive,neutral,k,k,1,1.0139751000097021,89.90826719999313,90.91262349998578,90.89595380000537,None,89.90826719999313,None,89.90826719999313,None,89.90826719999313,None,91.91258869998273,None,91.91258869998273,None,91.91258869998273,None,,,,,,,,,,,,,024,2022-05-19_10h31.42.260,Main,2022.1.1,60.92601448807755,
positive,positive,2,l,j,,,,,0,6,6,11,,,,,,,,,,,,,prac,1,1,2,positive,positive,l,l,1,0.9826958000194281,91.91259520000312,92.9153013000032,92.9153013000032,None,91.91259520000312,None,91.91259520000312,None,91.91259520000312,None,93.89626919999137,None,93.89626919999137,None,93.89626919999137,None,,,,,,,,,,,,,024,2022-05-19_10h31.42.260,Main,2022.1.1,60.92601448807755,
positive,neutral,2,l,j,,,,,0,7,7,17,,,,,,,,,,,,,prac,2,2,2,neutral,positive,l,l,1,0.848658400005661,93.91091360000428,94.91542370000388,94.89650660002371,None,93.91091360000428,None,93.91091360000428,None,93.91091360000428,None,95.74647629997344,None,95.74647629997344,None,95.74647629997344,None,,,,,,,,,,,,,024,2022-05-19_10h31.42.260,Main,2022.1.1,60.92601448807755,
negative,positive,2,j,l,,,,,0,8,8,15,,,,,,,,,,,,,prac,2,2,2,positive,negative,j,j,1,0.9982976000173949,95.76054059999296,96.76506529998733,96.74846400000388,None,95.76054059999296,None,95.76054059999296,None,95.76054059999296,None,97.74617849997594,None,97.74617849997594,None,97.74617849997594,None,,,,,,,,,,,,,024,2022-05-19_10h31.42.260,Main,2022.1.1,60.92601448807755,
negative,positive,1,j,l,,,,,0,9,9,6,,,,,,,,,,,,,prac,1,1,1,positive,negative,j,j,1,0.9654825000325218,97.76021340000443,98.76507999998285,98.74849979998544,None,97.76021340000443,None,97.76021340000443,None,97.76021340000443,None,99.7130619000236,None,99.7130619000236,None,99.7130619000236,None,,,,,,,,,,,,,024,2022-05-19_10h31.42.260,Main,2022.1.1,60.92601448807755,
positive,positive,1,l,j,,,,,0,10,10,2,,,,,,,,,,,,,prac,2,2,1,positive,positive,l,l,1,1.498090700013563,99.71866319997935,100.72908139997162,100.71284940000623,None,99.71866319997935,None,99.71866319997935,None,99.71866319997935,None,102.21234589998494,None,102.21234589998494,None,102.21234589998494,None,,,,,,,,,,,,,024,2022-05-19_10h31.42.260,Main,2022.1.1,60.92601448807755,
positive,negative,2,l,j,,,,,0,11,11,14,,,,,,,,,,,,,prac,1,1,2,negative,positive,l,l,1,0.9823080999776721,102.22260659997119,103.22908040002221,103.21241719997488,None,102.22260659997119,None,102.22260659997119,None,102.22260659997119,None,104.1960354000039,None,104.1960354000039,None,104.1960354000039,None,,,,,,,,,,,,,024,2022-05-19_10h31.42.260,Main,2022.1.1,60.92601448807755,
positive,negative,1,l,j,,,,,0,12,12,5,,,,,,,,,,,,,prac,2,2,1,negative,positive,l,l,1,1.4654448999790475,104.20234279998112,105.2148791999789,105.18160050001461,None,104.20234279998112,None,104.20234279998112,None,104.20234279998112,None,106.66265019998536,None,106.66265019998536,None,106.66265019998536,None,,,,,,,,,,,,,024,2022-05-19_10h31.42.260,Main,2022.1.1,60.92601448807755,
neutral,neutral,1,k,k,,,,,0,13,13,1,,,,,,,,,,,,,prac,1,1,1,neutral,neutral,k,k,1,0.9487473000190221,106.67594939999981,107.68151069997111,107.66489389998605,None,106.67594939999981,None,106.67594939999981,None,106.67594939999981,None,108.61260219998076,None,108.61260219998076,None,108.61260219998076,None,,,,,,,,,,,,,024,2022-05-19_10h31.42.260,Main,2022.1.1,60.92601448807755,
neutral,negative,2,k,k,,,,,0,14,14,16,,,,,,,,,,,,,prac,1,1,2,negative,neutral,k,k,1,0.8998714000335895,108.61783310002647,109.6314242000226,109.598250799987,None,108.61783310002647,None,108.61783310002647,None,108.61783310002647,None,110.51296320001711,None,110.51296320001711,None,110.51296320001711,None,,,,,,,,,,,,,024,2022-05-19_10h31.42.260,Main,2022.1.1,60.92601448807755,
negative,neutral,1,j,l,,,,,0,15,15,3,,,,,,,,,,,,,prac,1,1,1,neutral,negative,j,j,1,0.9974912999896333,110.5187653999892,111.52889030001825,111.51252809999278,None,110.5187653999892,None,110.5187653999892,None,110.5187653999892,None,112.51254409996909,None,112.51254409996909,None,112.51254409996909,None,,,,,,,,,,,,,024,2022-05-19_10h31.42.260,Main,2022.1.1,60.92601448807755,
positive,neutral,1,l,j,,,,,0,16,16,8,,,,,,,,,,,,,prac,2,2,1,neutral,positive,l,l,1,1.0317451999871992,112.52008500002557,113.52889090002282,113.51254030002747,None,112.52008500002557,None,112.52008500002557,None,112.52008500002557,None,114.54584529998829,None,114.54584529998829,None,114.54584529998829,None,,,,,,,,,,,,,024,2022-05-19_10h31.42.260,Main,2022.1.1,60.92601448807755,
negative,negative,1,j,l,,,,,0,17,17,0,,,,,,,,,,,,,prac,1,1,1,negative,negative,j,j,1,1.2154008999932557,114.55152109998744,115.56470510002691,115.54812819999643,None,114.55152109998744,None,114.55152109998744,None,114.55152109998744,None,116.76249959997949,None,116.76249959997949,None,116.76249959997949,None,,,,,,,,,,,,,024,2022-05-19_10h31.42.260,Main,2022.1.1,60.92601448807755,
neutral,negative,1,k,k,,,,,1,0,18,7,,,,,,,,,,,,,prac,2,2,1,negative,neutral,k,k,1,0.9320792999933474,116.76580539997667,117.77934720000485,117.76278759998968,None,116.76580539997667,None,116.76580539997667,None,116.76580539997667,None,118.69583930002409,None,118.69583930002409,None,118.69583930002409,None,,,,,,,,,,,,,024,2022-05-19_10h31.42.260,Main,2022.1.1,60.92601448807755,
neutral,negative,2,k,k,,,,,1,1,19,16,,,,,,,,,,,,,prac,2,2,2,negative,neutral,k,k,1,1.0314742000191472,118.70185190002667,119.71462370001245,119.6979770999751,None,118.70185190002667,None,118.70185190002667,None,118.70185190002667,None,120.7295838999853,None,120.7295838999853,None,120.7295838999853,None,,,,,,,,,,,,,024,2022-05-19_10h31.42.260,Main,2022.1.1,60.92601448807755,
positive,neutral,2,l,j,,,,,1,2,20,17,,,,,,,,,,,,,prac,2,2,2,neutral,positive,l,l,1,0.9977568999747746,120.73520789999748,121.74532099999487,121.72867470001802,None,120.73520789999748,None,120.73520789999748,None,120.73520789999748,None,122.72862490001717,None,122.72862490001717,None,122.72862490001717,None,,,,,,,,,,,,,024,2022-05-19_10h31.42.260,Main,2022.1.1,60.92601448807755,
negative,neutral,2,j,l,,,,,1,3,21,12,,,,,,,,,,,,,prac,2,2,2,neutral,negative,j,j,1,0.9824126000166871,122.7286367000197,123.7312333000009,123.71474899997702,None,122.7286367000197,None,122.7286367000197,None,122.7286367000197,None,124.71228629999678,None,124.71228629999678,None,124.71228629999678,None,,,,,,,,,,,,,024,2022-05-19_10h31.42.260,Main,2022.1.1,60.92601448807755,
negative,positive,1,j,l,,,,,1,4,22,6,,,,,,,,,,,,,prac,2,2,1,positive,negative,j,j,1,1.0351306999800727,124.71812739997404,125.7292090000119,125.71253090002574,None,124.71812739997404,None,124.71812739997404,None,124.71812739997404,None,126.74870859997463,None,126.74870859997463,None,126.74870859997463,None,,,,,,,,,,,,,024,2022-05-19_10h31.42.260,Main,2022.1.1,60.92601448807755,
neutral,positive,2,k,k,,,,,1,5,23,13,,,,,,,,,,,,,prac,2,2,2,positive,neutral,k,k,1,0.8122295999783091,126.75251139997272,127.7625935000251,127.74601359997177,None,126.75251139997272,None,126.75251139997272,None,126.75251139997272,None,128.5622029999795,None,128.5622029999795,None,128.5622029999795,None,,,,,,,,,,,,,024,2022-05-19_10h31.42.260,Main,2022.1.1,60.92601448807755,
neutral,positive,1,k,k,,,,,1,6,24,4,,,,,,,,,,,,,prac,1,1,1,positive,neutral,k,k,1,0.8074168000021018,128.56853129999945,129.58109200000763,129.5477535999962,None,128.56853129999945,None,128.56853129999945,None,128.56853129999945,None,130.36811080001644,None,130.36811080001644,None,130.36811080001644,None,,,,,,,,,,,,,024,2022-05-19_10h31.42.260,Main,2022.1.1,60.92601448807755,
positive,neutral,1,l,j,,,,,1,7,25,8,,,,,,,,,,,,,prac,1,1,1,neutral,positive,l,l,1,0.9562233999604359,130.37383070000215,131.38104519998888,131.36191859998507,None,130.37383070000215,None,130.37383070000215,None,130.37383070000215,None,132.32842369997525,None,132.32842369997525,None,132.32842369997525,None,,,,,,,,,,,,,024,2022-05-19_10h31.42.260,Main,2022.1.1,60.92601448807755,
negative,negative,1,j,l,,,,,1,8,26,0,,,,,,,,,,,,,prac,1,1,1,negative,negative,j,j,1,0.9987365999841131,132.32975769997574,133.32843180000782,133.32843180000782,None,132.32975769997574,None,132.32975769997574,None,132.32975769997574,None,134.32843869997305,None,134.32843869997305,None,134.32843869997305,None,,,,,,,,,,,,,024,2022-05-19_10h31.42.260,Main,2022.1.1,60.92601448807755,
negative,negative,2,j,l,,,,,1,9,27,9,,,,,,,,,,,,,prac,2,2,2,negative,negative,j,j,1,1.0005680000176653,134.33468750002794,135.3476158999838,135.33103910001228,None,134.33468750002794,None,134.33468750002794,None,134.33468750002794,None,136.3310903000238,None,136.3310903000238,None,136.3310903000238,None,,,,,,,,,,,,,024,2022-05-19_10h31.42.260,Main,2022.1.1,60.92601448807755,
positive,positive,2,l,j,,,,,1,10,28,11,,,,,,,,,,,,,prac,2,2,2,positive,positive,l,l,1,1.1964260999811813,136.3356547000003,137.34753869997803,137.33102799998596,None,136.3356547000003,None,136.3356547000003,None,136.3356547000003,None,138.52868979997584,None,138.52868979997584,None,138.52868979997584,None,,,,,,,,,,,,,024,2022-05-19_10h31.42.260,Main,2022.1.1,60.92601448807755,
neutral,neutral,1,k,k,,,,,1,11,29,1,,,,,,,,,,,,,prac,1,1,1,neutral,neutral,k,k,1,0.9986232999945059,138.54537840001285,139.54752279998502,139.53097750002053,None,138.54537840001285,None,138.54537840001285,None,138.54537840001285,None,140.52860649998183,None,140.52860649998183,None,140.52860649998183,None,,,,,,,,,,,,,024,2022-05-19_10h31.42.260,Main,2022.1.1,60.92601448807755,
positive,positive,1,l,j,,,,,1,12,30,2,,,,,,,,,,,,,prac,2,2,1,positive,positive,l,l,1,1.0980020999559201,140.54531419998966,141.54746249999152,141.5309177999734,None,140.54531419998966,None,140.54531419998966,None,140.54531419998966,None,142.62855709998985,None,142.62855709998985,None,142.62855709998985,None,,,,,,,,,,,,,024,2022-05-19_10h31.42.260,Main,2022.1.1,60.92601448807755,
negative,positive,2,j,l,,,,,1,13,31,15,,,,,,,,,,,,,prac,2,2,2,positive,negative,j,j,1,1.1982526000356302,142.6340073000174,143.6448689000099,143.62820560002,None,142.6340073000174,None,142.6340073000174,None,142.6340073000174,None,144.82820279998123,None,144.82820279998123,None,144.82820279998123,None,,,,,,,,,,,,,024,2022-05-19_10h31.42.260,Main,2022.1.1,60.92601448807755,
neutral,neutral,2,k,k,,,,,1,14,32,10,,,,,,,,,,,,,prac,2,2,2,neutral,neutral,k,k,1,0.9168021000223234,144.83362180000404,145.84737249999307,145.83080990001326,None,144.83362180000404,None,144.83362180000404,None,144.83362180000404,None,146.74515359997167,None,146.74515359997167,None,146.74515359997167,None,,,,,,,,,,,,,024,2022-05-19_10h31.42.260,Main,2022.1.1,60.92601448807755,
negative,neutral,1,j,l,,,,,1,15,33,3,,,,,,,,,,,,,prac,1,1,1,neutral,negative,j,j,1,0.9140677000395954,146.75142410001718,147.76400079997256,147.7474675999838,None,146.75142410001718,None,146.75142410001718,None,146.75142410001718,None,148.66177470001276,None,148.66177470001276,None,148.66177470001276,None,,,,,,,,,,,,,024,2022-05-19_10h31.42.260,Main,2022.1.1,60.92601448807755,
positive,negative,2,l,j,,,,,1,16,34,14,,,,,,,,,,,,,prac,2,2,2,negative,positive,l,l,1,0.9156423999811523,148.6665173000074,149.6806924000266,149.64738719997695,None,148.6665173000074,None,148.6665173000074,None,148.6665173000074,None,150.5784100999881,None,150.5784100999881,None,150.5784100999881,None,,,,,,,,,,,,,024,2022-05-19_10h31.42.260,Main,2022.1.1,60.92601448807755,
positive,negative,1,l,j,,,,,1,17,35,5,,,,,,,,,,,,,prac,2,2,1,negative,positive,l,l,1,0.9823034000000916,150.58367239998188,151.59723880002275,151.56405059999088,None,150.58367239998188,None,150.58367239998188,None,150.58367239998188,None,152.56168690000777,None,152.56168690000777,None,152.56168690000777,None,,,,,,,,,,,,,024,2022-05-19_10h31.42.260,Main,2022.1.1,60.92601448807755,
,,,,,,,,,,,,,,,,,,,,,,,,,,,,,,,,,,,,,,,,,,,,,,,,,,,152.56171590002486,None,None,,,,,,,,,,024,2022-05-19_10h31.42.260,Main,2022.1.1,60.92601448807755,
,,,,,,,,,,,,,,,,,,,,,,,,,,,,,,,,,,,,,,,,,,,,,,,,,,,,,,0.74351853,-0.26759258,1,0,0,0.010891699930652976,None,,,024,2022-05-19_10h31.42.260,Main,2022.1.1,60.92601448807755,
negative,neutral,1,j,l,,,,,,,,,0,0,0,3,,,,,,,159.41382309998153,None,main,1,1,1,neutral,negative,j,j,1,1.1245912999729626,161.42181319999509,162.43048939999426,162.41388880001614,None,161.42181319999509,None,161.42181319999509,None,161.42181319999509,None,163.54482530002133,None,163.54482530002133,None,163.54482530002133,None,,,,,,,,,,,,,024,2022-05-19_10h31.42.260,Main,2022.1.1,60.92601448807755,
positive,positive,1,l,j,,,,,,,,,0,1,1,2,,,,,,,,,main,2,2,1,positive,positive,l,l,1,0.8140277999918908,163.54921969998395,164.5613549000118,164.54471190000186,None,163.54921969998395,None,163.54921969998395,None,163.54921969998395,None,165.36131939999177,None,165.36131939999177,None,165.36131939999177,None,,,,,,,,,,,,,024,2022-05-19_10h31.42.260,Main,2022.1.1,60.92601448807755,
positive,neutral,2,l,j,,,,,,,,,0,2,2,17,,,,,,,,,main,2,2,2,neutral,positive,l,l,1,0.8189616000163369,165.36132720002206,166.36151429999154,166.36151429999154,None,165.36132720002206,None,165.36132720002206,None,165.36132720002206,None,167.18187310002395,None,167.18187310002395,None,167.18187310002395,None,,,,,,,,,,,,,024,2022-05-19_10h31.42.260,Main,2022.1.1,60.92601448807755,
neutral,positive,2,k,k,,,,,,,,,0,3,3,13,,,,,,,,,main,2,2,2,positive,neutral,k,k,1,0.730227800027933,167.18624279997312,168.19693789997837,168.18031889997656,None,167.18624279997312,None,167.18624279997312,None,167.18624279997312,None,168.91370449998067,None,168.91370449998067,None,168.91370449998067,None,,,,,,,,,,,,,024,2022-05-19_10h31.42.260,Main,2022.1.1,60.92601448807755,
negative,negative,1,j,l,,,,,,,,,0,4,4,0,,,,,,,,,main,1,1,1,negative,negative,j,j,1,1.0137610000092536,168.91767499997513,169.93032490002224,169.91370089998236,None,168.91767499997513,None,168.91767499997513,None,168.91767499997513,None,170.9279737000179,None,170.9279737000179,None,170.9279737000179,None,,,,,,,,,,,,,024,2022-05-19_10h31.42.260,Main,2022.1.1,60.92601448807755,
neutral,neutral,1,k,k,,,,,,,,,0,5,5,1,,,,,,,,,main,2,2,1,neutral,neutral,k,k,1,0.7639718999853358,170.93211300001713,171.94688230002066,171.9303448999999,None,170.93211300001713,None,170.93211300001713,None,170.93211300001713,None,172.69462539997767,None,172.69462539997767,None,172.69462539997767,None,,,,,,,,,,,,,024,2022-05-19_10h31.42.260,Main,2022.1.1,60.92601448807755,
neutral,neutral,2,k,k,,,,,,,,,0,6,6,10,,,,,,,,,main,2,2,2,neutral,neutral,k,k,1,0.7815272000152618,172.6978849999723,173.69688619999215,173.69688619999215,None,172.6978849999723,None,172.6978849999723,None,172.6978849999723,None,174.47756930001196,None,174.47756930001196,None,174.47756930001196,None,,,,,,,,,,,,,024,2022-05-19_10h31.42.260,Main,2022.1.1,60.92601448807755,
neutral,positive,1,k,k,,,,,,,,,0,7,7,4,,,,,,,,,main,1,1,1,positive,neutral,k,k,1,0.765142599993851,174.47756949998438,175.47754970000824,175.47754970000824,None,174.47756949998438,None,174.47756949998438,None,174.47756949998438,None,176.24425000001793,None,176.24425000001793,None,176.24425000001793,None,,,,,,,,,,,,,024,2022-05-19_10h31.42.260,Main,2022.1.1,60.92601448807755,
positive,negative,1,l,j,,,,,,,,,0,8,8,5,,,,,,,,,main,2,2,1,negative,positive,l,l,1,0.9155927000101656,176.24986179999541,177.2634808999719,177.24682780000148,None,176.24986179999541,None,176.24986179999541,None,176.24986179999541,None,178.16119410001556,None,178.16119410001556,None,178.16119410001556,None,,,,,,,,,,,,,024,2022-05-19_10h31.42.260,Main,2022.1.1,60.92601448807755,
negative,positive,2,j,l,,,,,,,,,0,9,9,15,,,,,,,,,main,1,1,2,positive,negative,j,j,1,0.8148710000095889,178.16693579999264,179.1800484000123,179.16344069998013,None,178.16693579999264,None,178.16693579999264,None,178.16693579999264,None,179.97781490001944,None,179.97781490001944,None,179.97781490001944,None,,,,,,,,,,,,,024,2022-05-19_10h31.42.260,Main,2022.1.1,60.92601448807755,
neutral,negative,1,k,k,,,,,,,,,0,10,10,7,,,,,,,,,main,2,2,1,negative,neutral,k,k,1,0.9175815000198781,179.9833118999959,180.99471250001807,180.9801077999873,None,179.9833118999959,None,179.9833118999959,None,179.9833118999959,None,181.89667080002255,None,181.89667080002255,None,181.89667080002255,None,,,,,,,,,,,,,024,2022-05-19_10h31.42.260,Main,2022.1.1,60.92601448807755,
neutral,negative,2,k,k,,,,,,,,,0,11,11,16,,,,,,,,,main,1,1,2,negative,neutral,k,k,1,0.6458673000452109,181.90020580001874,182.91328570002224,182.89673129998846,None,181.90020580001874,None,181.90020580001874,None,181.90020580001874,None,183.54438439998194,None,183.54438439998194,None,183.54438439998194,None,,,,,,,,,,,,,024,2022-05-19_10h31.42.260,Main,2022.1.1,60.92601448807755,
negative,positive,1,j,l,,,,,,,,,0,12,12,6,,,,,,,,,main,1,1,1,positive,negative,j,j,1,1.3138962999801151,183.5484384999727,184.5604034999851,184.53945789998397,None,183.5484384999727,None,183.5484384999727,None,183.5484384999727,None,185.86065369998687,None,185.86065369998687,None,185.86065369998687,None,,,,,,,,,,,,,024,2022-05-19_10h31.42.260,Main,2022.1.1,60.92601448807755,
negative,negative,2,j,l,,,,,,,,,0,13,13,9,,,,,,,,,main,2,2,2,negative,negative,j,j,1,0.8817252000444569,185.8606777000241,186.86070000001928,186.86070000001928,None,185.8606777000241,None,185.8606777000241,None,185.8606777000241,None,187.74401210001088,None,187.74401210001088,None,187.74401210001088,None,,,,,,,,,,,,,024,2022-05-19_10h31.42.260,Main,2022.1.1,60.92601448807755,
negative,neutral,2,j,l,,,,,,,,,0,14,14,12,,,,,,,,,main,1,1,2,neutral,negative,j,j,1,0.9488788999733515,187.75033820001408,188.76321250002366,188.7299518000218,None,187.75033820001408,None,187.75033820001408,None,187.75033820001408,None,189.69429550002678,None,189.69429550002678,None,189.69429550002678,None,,,,,,,,,,,,,024,2022-05-19_10h31.42.260,Main,2022.1.1,60.92601448807755,
positive,positive,2,l,j,,,,,,,,,0,15,15,11,,,,,,,,,main,1,1,2,positive,positive,l,l,1,0.8319468999980018,189.6998242000118,190.71075929998187,190.69653150002705,None,189.6998242000118,None,189.6998242000118,None,189.6998242000118,None,191.52758079997147,None,191.52758079997147,None,191.52758079997147,None,,,,,,,,,,,,,024,2022-05-19_10h31.42.260,Main,2022.1.1,60.92601448807755,
positive,neutral,1,l,j,,,,,,,,,0,16,16,8,,,,,,,,,main,1,1,1,neutral,positive,l,l,1,1.065821100026369,191.53334449999966,192.5464414000162,192.52990449999925,None,191.53334449999966,None,191.53334449999966,None,191.53334449999966,None,193.59418739998364,None,193.59418739998364,None,193.59418739998364,None,,,,,,,,,,,,,024,2022-05-19_10h31.42.260,Main,2022.1.1,60.92601448807755,
positive,negative,2,l,j,,,,,,,,,0,17,17,14,,,,,,,,,main,2,2,2,negative,positive,l,l,1,0.8671885000076145,193.60021880001295,194.61304979998386,194.59643420000793,None,193.60021880001295,None,193.60021880001295,None,193.60021880001295,None,195.46364800000447,None,195.46364800000447,None,195.46364800000447,None,,,,,,,,,,,,,024,2022-05-19_10h31.42.260,Main,2022.1.1,60.92601448807755,
neutral,negative,2,k,k,,,,,,,,,1,0,18,16,,,,,,,,,main,2,2,2,negative,neutral,k,k,1,0.8156248000450432,195.47745140001643,196.4771179999807,196.46045610000147,None,195.47745140001643,None,195.47745140001643,None,195.47745140001643,None,197.2770967000106,None,197.2770967000106,None,197.2770967000106,None,,,,,,,,,,,,,024,2022-05-19_10h31.42.260,Main,2022.1.1,60.92601448807755,
positive,positive,1,l,j,,,,,,,,,1,1,19,2,,,,,,,,,main,2,2,1,positive,positive,l,l,1,1.04400589998113,197.28586210001959,198.2963568000123,198.27972990000853,None,197.28586210001959,None,197.28586210001959,None,197.28586210001959,None,199.32742529999814,None,199.32742529999814,None,199.32742529999814,None,,,,,,,,,,,,,024,2022-05-19_10h31.42.260,Main,2022.1.1,60.92601448807755,
negative,positive,1,j,l,,,,,,,,,1,2,20,6,,,,,,,,,main,2,2,1,positive,negative,j,j,1,0.8663659000303596,199.33323709998513,200.34626269998262,200.32972049998352,None,199.33323709998513,None,199.33323709998513,None,199.33323709998513,None,201.19412109997938,None,201.19412109997938,None,201.19412109997938,None,,,,,,,,,,,,,024,2022-05-19_10h31.42.260,Main,2022.1.1,60.92601448807755,
positive,negative,2,l,j,,,,,,,,,1,3,21,14,,,,,,,,,main,2,2,2,negative,positive,l,l,1,0.8636039000120945,201.20100399997318,202.21285710000666,202.19628959998954,None,201.20100399997318,None,201.20100399997318,None,201.20100399997318,None,203.06065590001526,None,203.06065590001526,None,203.06065590001526,None,,,,,,,,,,,,,024,2022-05-19_10h31.42.260,Main,2022.1.1,60.92601448807755,
neutral,positive,2,k,k,,,,,,,,,1,4,22,13,,,,,,,,,main,2,2,2,positive,neutral,k,k,1,0.8154885999974795,203.06641329999547,204.07959809998283,204.06301370001165,None,203.06641329999547,None,203.06641329999547,None,203.06641329999547,None,204.87754889999633,None,204.87754889999633,None,204.87754889999633,None,,,,,,,,,,,,,024,2022-05-19_10h31.42.260,Main,2022.1.1,60.92601448807755,
neutral,positive,1,k,k,,,,,,,,,1,5,23,4,,,,,,,,,main,2,2,1,positive,neutral,k,k,1,0.6643582999822684,204.88359260000288,205.89358279999578,205.87693819997367,None,204.88359260000288,None,204.88359260000288,None,204.88359260000288,None,206.54357269997126,None,206.54357269997126,None,206.54357269997126,None,,,,,,,,,,,,,024,2022-05-19_10h31.42.260,Main,2022.1.1,60.92601448807755,
positive,neutral,1,l,j,,,,,,,,,1,6,24,8,,,,,,,,,main,2,2,1,neutral,positive,l,l,1,0.8329396999906749,206.54356239998015,207.54356309998548,207.54356309998548,None,206.54356239998015,None,206.54356239998015,None,206.54356239998015,None,208.37692580002476,None,208.37692580002476,None,208.37692580002476,None,,,,,,,,,,,,,024,2022-05-19_10h31.42.260,Main,2022.1.1,60.92601448807755,
negative,neutral,1,j,l,,,,,,,,,1,7,25,3,,,,,,,,,main,2,2,1,neutral,negative,j,j,1,0.8975850999704562,208.39360609999858,209.3960854000179,209.37950510001974,None,208.39360609999858,None,208.39360609999858,None,208.39360609999858,None,210.27720109999063,None,210.27720109999063,None,210.27720109999063,None,,,,,,,,,,,,,024,2022-05-19_10h31.42.260,Main,2022.1.1,60.92601448807755,
positive,neutral,2,l,j,,,,,,,,,1,8,26,17,,,,,,,,,main,2,2,2,neutral,positive,l,l,1,0.7986360000213608,210.2829633000074,211.29605920001632,211.2794477000134,None,210.2829633000074,None,210.2829633000074,None,210.2829633000074,None,212.07715850000386,None,212.07715850000386,None,212.07715850000386,None,,,,,,,,,,,,,024,2022-05-19_10h31.42.260,Main,2022.1.1,60.92601448807755,
negative,neutral,2,j,l,,,,,,,,,1,9,27,12,,,,,,,,,main,1,1,2,neutral,negative,j,j,1,0.8472792999818921,212.08352739998372,213.09603580000112,213.07944539998425,None,212.08352739998372,None,212.08352739998372,None,212.08352739998372,None,213.92684739999822,None,213.92684739999822,None,213.92684739999822,None,,,,,,,,,,,,,024,2022-05-19_10h31.42.260,Main,2022.1.1,60.92601448807755,
neutral,negative,1,k,k,,,,,,,,,1,10,28,7,,,,,,,,,main,2,2,1,negative,neutral,k,k,1,0.7487060000421479,213.93322860001354,214.94597389997216,214.92941679997602,None,213.93322860001354,None,213.93322860001354,None,213.93322860001354,None,215.67707830001018,None,215.67707830001018,None,215.67707830001018,None,,,,,,,,,,,,,024,2022-05-19_10h31.42.260,Main,2022.1.1,60.92601448807755,
neutral,neutral,1,k,k,,,,,,,,,1,11,29,1,,,,,,,,,main,2,2,1,neutral,neutral,k,k,1,0.7501308000064455,215.6826651999727,216.69305110001005,216.67579690000275,None,215.6826651999727,None,215.6826651999727,None,215.6826651999727,None,217.42666199998348,None,217.42666199998348,None,217.42666199998348,None,,,,,,,,,,,,,024,2022-05-19_10h31.42.260,Main,2022.1.1,60.92601448807755,
negative,positive,2,j,l,,,,,,,,,1,12,30,15,,,,,,,,,main,1,1,2,positive,negative,j,j,1,0.9633020000183024,217.42866390000563,218.44333630002802,218.4266652999795,None,217.42866390000563,None,217.42866390000563,None,217.42866390000563,None,219.3936870000034,None,219.3936870000034,None,219.3936870000034,None,,,,,,,,,,,,,024,2022-05-19_10h31.42.260,Main,2022.1.1,60.92601448807755,
neutral,neutral,2,k,k,,,,,,,,,1,13,31,10,,,,,,,,,main,2,2,2,neutral,neutral,k,k,1,0.7652447000145912,219.3992952000117,220.412514799973,220.39599059999455,None,219.3992952000117,None,219.3992952000117,None,219.3992952000117,None,221.16028799998458,None,221.16028799998458,None,221.16028799998458,None,,,,,,,,,,,,,024,2022-05-19_10h31.42.260,Main,2022.1.1,60.92601448807755,
positive,negative,1,l,j,,,,,,,,,1,14,32,5,,,,,,,,,main,1,1,1,negative,positive,l,l,1,0.9318379000178538,221.1657401000266,222.1791703000199,222.16259439999703,None,221.1657401000266,None,221.1657401000266,None,221.1657401000266,None,223.0935908999818,None,223.0935908999818,None,223.0935908999818,None,,,,,,,,,,,,,024,2022-05-19_10h31.42.260,Main,2022.1.1,60.92601448807755,
negative,negative,2,j,l,,,,,,,,,1,15,33,9,,,,,,,,,main,2,2,2,negative,negative,j,j,1,0.814985400007572,223.09928369999398,224.11250779998954,224.09384450002108,None,223.09928369999398,None,223.09928369999398,None,223.09928369999398,None,224.9104758000176,None,224.9104758000176,None,224.9104758000176,None,,,,,,,,,,,,,024,2022-05-19_10h31.42.260,Main,2022.1.1,60.92601448807755,
negative,negative,1,j,l,,,,,,,,,1,16,34,0,,,,,,,,,main,2,2,1,negative,negative,j,j,1,0.784770300029777,224.9136945999926,225.91265720000956,225.91265720000956,None,224.9136945999926,None,224.9136945999926,None,224.9136945999926,None,226.695704999991,None,226.695704999991,None,226.695704999991,None,,,,,,,,,,,,,024,2022-05-19_10h31.42.260,Main,2022.1.1,60.92601448807755,
positive,positive,2,l,j,,,,,,,,,1,17,35,11,,,,,,,,,main,2,2,2,positive,positive,l,l,1,0.8287367000011727,226.69998759997543,227.71004819998052,227.69347769999877,None,226.69998759997543,None,226.69998759997543,None,226.69998759997543,None,228.52677500000573,None,228.52677500000573,None,228.52677500000573,None,,,,,,,,,,,,,024,2022-05-19_10h31.42.260,Main,2022.1.1,60.92601448807755,
negative,neutral,1,j,l,,,,,,,,,2,0,36,3,,,,,,,,,main,1,1,1,neutral,negative,j,j,1,0.882458999985829,228.5267377999844,229.5267096000025,229.5267096000025,None,228.5267377999844,None,228.5267377999844,None,228.5267377999844,None,230.41004279998015,None,230.41004279998015,None,230.41004279998015,None,,,,,,,,,,,,,024,2022-05-19_10h31.42.260,Main,2022.1.1,60.92601448807755,
positive,negative,2,l,j,,,,,,,,,2,1,37,14,,,,,,,,,main,1,1,2,negative,positive,l,l,1,0.8306608999846503,230.4141206999775,231.4290054999874,231.41243700002087,None,230.4141206999775,None,230.4141206999775,None,230.4141206999775,None,232.24340329997358,None,232.24340329997358,None,232.24340329997358,None,,,,,,,,,,,,,024,2022-05-19_10h31.42.260,Main,2022.1.1,60.92601448807755,
negative,negative,2,j,l,,,,,,,,,2,2,38,9,,,,,,,,,main,2,2,2,negative,negative,j,j,1,0.9665498999529518,232.2549209999852,233.26220639998792,233.24561450001784,None,232.2549209999852,None,232.2549209999852,None,232.2549209999852,None,234.2122326999961,None,234.2122326999961,None,234.2122326999961,None,,,,,,,,,,,,,024,2022-05-19_10h31.42.260,Main,2022.1.1,60.92601448807755,
neutral,neutral,2,k,k,,,,,,,,,2,3,39,10,,,,,,,,,main,1,1,2,neutral,neutral,k,k,1,0.7797471999656409,234.2150432000053,235.22886909998488,235.21228739997605,None,234.2150432000053,None,234.2150432000053,None,234.2150432000053,None,235.9933184000256,None,235.9933184000256,None,235.9933184000256,None,,,,,,,,,,,,,024,2022-05-19_10h31.42.260,Main,2022.1.1,60.92601448807755,
negative,positive,2,j,l,,,,,,,,,2,4,40,15,,,,,,,,,main,1,1,2,positive,negative,j,j,1,1.0817335000028834,235.99894899997162,237.0122098000138,236.99561129999347,None,235.99894899997162,None,235.99894899997162,None,235.99894899997162,None,238.07658750002156,None,238.07658750002156,None,238.07658750002156,None,,,,,,,,,,,,,024,2022-05-19_10h31.42.260,Main,2022.1.1,60.92601448807755,
neutral,positive,2,k,k,,,,,,,,,2,5,41,13,,,,,,,,,main,1,1,2,positive,neutral,k,k,1,0.9468844999792054,238.08277239999734,239.09290119999787,239.07624580000993,None,238.08277239999734,None,238.08277239999734,None,238.08277239999734,None,240.02621429998544,None,240.02621429998544,None,240.02621429998544,None,,,,,,,,,,,,,024,2022-05-19_10h31.42.260,Main,2022.1.1,60.92601448807755,
positive,positive,1,l,j,,,,,,,,,2,6,42,2,,,,,,,,,main,1,1,1,positive,positive,l,l,1,0.9014567999984138,240.026532399992,241.02891079999972,241.02891079999972,None,240.026532399992,None,240.026532399992,None,240.026532399992,None,241.92886160002672,None,241.92886160002672,None,241.92886160002672,None,,,,,,,,,,,,,024,2022-05-19_10h31.42.260,Main,2022.1.1,60.92601448807755,
neutral,negative,2,k,k,,,,,,,,,2,7,43,16,,,,,,,,,main,2,2,2,negative,neutral,k,k,1,1.0461880999500863,241.93276519997744,242.9456825000234,242.92678570002317,None,241.93276519997744,None,241.93276519997744,None,241.93276519997744,None,243.97688220001874,None,243.97688220001874,None,243.97688220001874,None,,,,,,,,,,,,,024,2022-05-19_10h31.42.260,Main,2022.1.1,60.92601448807755,
neutral,negative,1,k,k,,,,,,,,,2,8,44,7,,,,,,,,,main,2,2,1,negative,neutral,k,k,1,0.864719100005459,243.98240420001093,244.99559770000633,244.97699890000513,None,243.98240420001093,None,243.98240420001093,None,243.98240420001093,None,245.84310650001862,None,245.84310650001862,None,245.84310650001862,None,,,,,,,,,,,,,024,2022-05-19_10h31.42.260,Main,2022.1.1,60.92601448807755,
positive,negative,1,l,j,,,,,,,,,2,9,45,5,,,,,,,,,main,1,1,1,negative,positive,l,l,1,1.0655936999828555,245.8488473999896,246.86201380001148,246.84544840001035,None,245.8488473999896,None,245.8488473999896,None,245.8488473999896,None,247.90983119999873,None,247.90983119999873,None,247.90983119999873,None,,,,,,,,,,,,,024,2022-05-19_10h31.42.260,Main,2022.1.1,60.92601448807755,
positive,positive,2,l,j,,,,,,,,,2,10,46,11,,,,,,,,,main,1,1,2,positive,positive,l,l,1,1.2638843999593519,247.91583589999937,248.92863069998566,248.91204919997836,None,247.91583589999937,None,247.91583589999937,None,247.91583589999937,None,250.1759864000196,None,250.1759864000196,None,250.1759864000196,None,,,,,,,,,,,,,024,2022-05-19_10h31.42.260,Main,2022.1.1,60.92601448807755,
negative,neutral,2,j,l,,,,,,,,,2,11,47,12,,,,,,,,,main,2,2,2,neutral,negative,j,j,1,0.9487010999582708,250.17600289999973,251.17601970001124,251.17601970001124,None,250.17600289999973,None,250.17600289999973,None,250.17600289999973,None,252.12601310000173,None,252.12601310000173,None,252.12601310000173,None,,,,,,,,,,,,,024,2022-05-19_10h31.42.260,Main,2022.1.1,60.92601448807755,
positive,neutral,1,l,j,,,,,,,,,2,12,48,8,,,,,,,,,main,1,1,1,neutral,positive,l,l,1,0.882247900008224,252.13106280000648,253.14513570000418,253.11193339998135,None,252.13106280000648,None,252.13106280000648,None,252.13106280000648,None,254.0096628999745,None,254.0096628999745,None,254.0096628999745,None,,,,,,,,,,,,,024,2022-05-19_10h31.42.260,Main,2022.1.1,60.92601448807755,
neutral,neutral,1,k,k,,,,,,,,,2,13,49,1,,,,,,,,,main,1,1,1,neutral,neutral,k,k,1,0.8481402000179514,254.0153548999806,255.0285281999968,255.0120291999774,None,254.0153548999806,None,254.0153548999806,None,254.0153548999806,None,255.85960779999732,None,255.85960779999732,None,255.85960779999732,None,,,,,,,,,,,,,024,2022-05-19_10h31.42.260,Main,2022.1.1,60.92601448807755,
negative,negative,1,j,l,,,,,,,,,2,14,50,0,,,,,,,,,main,1,1,1,negative,negative,j,j,1,1.1174405999481678,255.86546120001003,256.87854700000025,256.84527009999147,None,255.86546120001003,None,255.86546120001003,None,255.86546120001003,None,257.97849169999245,None,257.97849169999245,None,257.97849169999245,None,,,,,,,,,,,,,024,2022-05-19_10h31.42.260,Main,2022.1.1,60.92601448807755,
negative,positive,1,j,l,,,,,,,,,2,15,51,6,,,,,,,,,main,1,1,1,positive,negative,j,j,1,0.9163142000325024,257.9823936999892,258.995103400026,258.97849710000446,None,257.9823936999892,None,257.9823936999892,None,257.9823936999892,None,259.89504960001796,None,259.89504960001796,None,259.89504960001796,None,,,,,,,,,,,,,024,2022-05-19_10h31.42.260,Main,2022.1.1,60.92601448807755,
neutral,positive,1,k,k,,,,,,,,,2,16,52,4,,,,,,,,,main,1,1,1,positive,neutral,k,k,1,0.911043600004632,259.8994506999734,260.90913079999154,260.89246210001875,None,259.8994506999734,None,259.8994506999734,None,259.8994506999734,None,261.80909480000264,None,261.80909480000264,None,261.80909480000264,None,,,,,,,,,,,,,024,2022-05-19_10h31.42.260,Main,2022.1.1,60.92601448807755,
positive,neutral,2,l,j,,,,,,,,,2,17,53,17,,,,,,,,,main,2,2,2,neutral,positive,l,l,1,0.9322268000105396,261.8091052999953,262.8091429999913,262.8091429999913,None,261.8091052999953,None,261.8091052999953,None,261.8091052999953,None,263.7427758999693,None,263.7427758999693,None,263.7427758999693,None,,,,,,,,,,,,,024,2022-05-19_10h31.42.260,Main,2022.1.1,60.92601448807755,
neutral,negative,2,k,k,,,,,,,,,3,0,54,16,,,,,,,,,main,1,1,2,negative,neutral,k,k,1,0.8485034999903291,263.74823299999116,264.7615509000025,264.74499789997935,None,263.74823299999116,None,263.74823299999116,None,263.74823299999116,None,265.59272510002484,None,265.59272510002484,None,265.59272510002484,None,,,,,,,,,,,,,024,2022-05-19_10h31.42.260,Main,2022.1.1,60.92601448807755,
neutral,positive,2,k,k,,,,,,,,,3,1,55,13,,,,,,,,,main,2,2,2,positive,neutral,k,k,1,0.8982065000454895,265.5986506000045,266.61157639999874,266.5949904000154,None,265.5986506000045,None,265.5986506000045,None,265.5986506000045,None,267.49268649998703,None,267.49268649998703,None,267.49268649998703,None,,,,,,,,,,,,,024,2022-05-19_10h31.42.260,Main,2022.1.1,60.92601448807755,
positive,negative,1,l,j,,,,,,,,,3,2,56,5,,,,,,,,,main,1,1,1,negative,positive,l,l,1,0.9319182999897748,267.49802419997286,268.51153519999934,268.47833000001265,None,267.49802419997286,None,267.49802419997286,None,267.49802419997286,None,269.42593579998356,None,269.42593579998356,None,269.42593579998356,None,,,,,,,,,,,,,024,2022-05-19_10h31.42.260,Main,2022.1.1,60.92601448807755,
positive,negative,2,l,j,,,,,,,,,3,3,57,14,,,,,,,,,main,2,2,2,negative,positive,l,l,1,0.954010899993591,269.4315978999948,270.4448163000052,270.42822609998984,None,269.4315978999948,None,269.4315978999948,None,269.4315978999948,None,271.37859130001743,None,271.37859130001743,None,271.37859130001743,None,,,,,,,,,,,,,024,2022-05-19_10h31.42.260,Main,2022.1.1,60.92601448807755,
negative,neutral,2,j,l,,,,,,,,,3,4,58,12,,,,,,,,,main,2,2,2,neutral,negative,j,j,1,0.8594801000435837,271.38503820000915,272.39238269999623,272.3755802999949,None,271.38503820000915,None,271.38503820000915,None,271.38503820000915,None,273.2421945000242,None,273.2421945000242,None,273.2421945000242,None,,,,,,,,,,,,,024,2022-05-19_10h31.42.260,Main,2022.1.1,60.92601448807755,
neutral,positive,1,k,k,,,,,,,,,3,5,59,4,,,,,,,,,main,2,2,1,positive,neutral,k,k,1,0.7322814000071958,273.24414770002477,274.25889130000724,274.24222670000745,None,273.24414770002477,None,273.24414770002477,None,273.24414770002477,None,274.97583739997935,None,274.97583739997935,None,274.97583739997935,None,,,,,,,,,,,,,024,2022-05-19_10h31.42.260,Main,2022.1.1,60.92601448807755,
neutral,neutral,1,k,k,,,,,,,,,3,6,60,1,,,,,,,,,main,2,2,1,neutral,neutral,k,k,1,0.7163779999827966,274.9819353999919,275.9927530999994,275.9782211999991,None,274.9819353999919,None,274.9819353999919,None,274.9819353999919,None,276.69483319998835,None,276.69483319998835,None,276.69483319998835,None,,,,,,,,,,,,,024,2022-05-19_10h31.42.260,Main,2022.1.1,60.92601448807755,
positive,neutral,1,l,j,,,,,,,,,3,7,61,8,,,,,,,,,main,1,1,1,neutral,positive,l,l,1,0.8450463000335731,276.698842599988,277.7114535999717,277.69478660001187,None,276.698842599988,None,276.698842599988,None,276.698842599988,None,278.5424383000063,None,278.5424383000063,None,278.5424383000063,None,,,,,,,,,,,,,024,2022-05-19_10h31.42.260,Main,2022.1.1,60.92601448807755,
negative,neutral,1,j,l,,,,,,,,,3,8,62,3,,,,,,,,,main,2,2,1,neutral,negative,j,j,1,0.9150207000202499,278.54818300000625,279.56138129998,279.5447727999999,None,278.54818300000625,None,278.54818300000625,None,278.54818300000625,None,280.45905979999225,None,280.45905979999225,None,280.45905979999225,None,,,,,,,,,,,,,024,2022-05-19_10h31.42.260,Main,2022.1.1,60.92601448807755,
negative,positive,2,j,l,,,,,,,,,3,9,63,15,,,,,,,,,main,2,2,2,positive,negative,j,j,1,0.9491860000416636,280.4623465000186,281.47800870001083,281.4613998000277,None,280.4623465000186,None,280.4623465000186,None,280.4623465000186,None,282.4086897999805,None,282.4086897999805,None,282.4086897999805,None,,,,,,,,,,,,,024,2022-05-19_10h31.42.260,Main,2022.1.1,60.92601448807755,
negative,negative,2,j,l,,,,,,,,,3,10,64,9,,,,,,,,,main,1,1,2,negative,negative,j,j,1,1.0139607000164688,282.4253755999962,283.42534650000744,283.40904930001125,None,282.4253755999962,None,282.4253755999962,None,282.4253755999962,None,284.42535649999627,None,284.42535649999627,None,284.42535649999627,None,,,,,,,,,,,,,024,2022-05-19_10h31.42.260,Main,2022.1.1,60.92601448807755,
neutral,neutral,2,k,k,,,,,,,,,3,11,65,10,,,,,,,,,main,1,1,2,neutral,neutral,k,k,1,0.9859966000076383,284.42843540001195,285.42790399998194,285.41123839997454,None,284.42843540001195,None,284.42843540001195,None,284.42843540001195,None,286.41287329999614,None,286.41287329999614,None,286.41287329999614,None,,,,,,,,,,,,,024,2022-05-19_10h31.42.260,Main,2022.1.1,60.92601448807755,
negative,negative,1,j,l,,,,,,,,,3,12,66,0,,,,,,,,,main,2,2,1,negative,negative,j,j,1,0.9637924000271596,286.4155077000032,287.42776869999943,287.4111872999929,None,286.4155077000032,None,286.4155077000032,None,286.4155077000032,None,288.3777960000152,None,288.3777960000152,None,288.3777960000152,None,,,,,,,,,,,,,024,2022-05-19_10h31.42.260,Main,2022.1.1,60.92601448807755,
positive,positive,2,l,j,,,,,,,,,3,13,67,11,,,,,,,,,main,2,2,2,positive,positive,l,l,1,0.879347299982328,288.38125019997824,289.39442169998074,289.3778447000077,None,288.38125019997824,None,288.38125019997824,None,288.38125019997824,None,290.25885969997034,None,290.25885969997034,None,290.25885969997034,None,,,,,,,,,,,,,024,2022-05-19_10h31.42.260,Main,2022.1.1,60.92601448807755,
positive,positive,1,l,j,,,,,,,,,3,14,68,2,,,,,,,,,main,2,2,1,positive,positive,l,l,1,0.9142729999730363,290.26230639999267,291.2777305999771,291.2610734999762,None,290.26230639999267,None,290.26230639999267,None,290.26230639999267,None,292.1746080000012,None,292.1746080000012,None,292.1746080000012,None,,,,,,,,,,,,,024,2022-05-19_10h31.42.260,Main,2022.1.1,60.92601448807755,
positive,neutral,2,l,j,,,,,,,,,3,15,69,17,,,,,,,,,main,2,2,2,neutral,positive,l,l,1,0.8829563000472263,292.1905380000244,293.19178130000364,293.1751120000263,None,292.1905380000244,None,292.1905380000244,None,292.1905380000244,None,294.0584310000122,None,294.0584310000122,None,294.0584310000122,None,,,,,,,,,,,,,024,2022-05-19_10h31.42.260,Main,2022.1.1,60.92601448807755,
negative,positive,1,j,l,,,,,,,,,3,16,70,6,,,,,,,,,main,2,2,1,positive,negative,j,j,1,0.9145741000538692,294.0604607000132,295.0611021000077,295.0611021000077,None,294.0604607000132,None,294.0604607000132,None,294.0604607000132,None,295.975453400024,None,295.975453400024,None,295.975453400024,None,,,,,,,,,,,,,024,2022-05-19_10h31.42.260,Main,2022.1.1,60.92601448807755,
neutral,negative,1,k,k,,,,,,,,,3,17,71,7,,,,,,,,,main,2,2,1,negative,neutral,k,k,1,0.801435399975162,295.98120989999734,296.9946061000228,296.9777966000256,None,295.98120989999734,None,295.98120989999734,None,295.98120989999734,None,297.7782754000218,None,297.7782754000218,None,297.7782754000218,None,,,,,,,,,,,,,024,2022-05-19_10h31.42.260,Main,2022.1.1,60.92601448807755,
neutral,neutral,1,k,k,,,,,,,,,4,0,72,1,,,,,,,,,main,2,2,1,neutral,neutral,k,k,1,0.7131601999863051,297.78233700001147,298.7943379000062,298.7777092999895,None,297.78233700001147,None,297.78233700001147,None,297.78233700001147,None,299.4920042999729,None,299.4920042999729,None,299.4920042999729,None,,,,,,,,,,,,,024,2022-05-19_10h31.42.260,Main,2022.1.1,60.92601448807755,
negative,negative,2,j,l,,,,,,,,,4,1,73,9,,,,,,,,,main,2,2,2,negative,negative,j,j,1,0.8637838999857195,299.49829540000064,300.5109863000107,300.4944283000077,None,299.49829540000064,None,299.49829540000064,None,299.49829540000064,None,301.358630600007,None,301.358630600007,None,301.358630600007,None,,,,,,,,,,,,,024,2022-05-19_10h31.42.260,Main,2022.1.1,60.92601448807755,
positive,negative,2,l,j,,,,,,,,,4,2,74,14,,,,,,,,,main,2,2,2,negative,positive,l,l,1,0.8649075000430457,301.36439050000627,302.38221080001676,302.3608701999765,None,301.36439050000627,None,301.36439050000627,None,301.36439050000627,None,303.22489570002654,None,303.22489570002654,None,303.22489570002654,None,,,,,,,,,,,,,024,2022-05-19_10h31.42.260,Main,2022.1.1,60.92601448807755,
positive,positive,2,l,j,,,,,,,,,4,3,75,11,,,,,,,,,main,2,2,2,positive,positive,l,l,1,1.1982981000328436,303.22507470002165,304.2248939999845,304.2248939999845,None,303.22507470002165,None,303.22507470002165,None,303.22507470002165,None,305.42491540001356,None,305.42491540001356,None,305.42491540001356,None,,,,,,,,,,,,,024,2022-05-19_10h31.42.260,Main,2022.1.1,60.92601448807755,
neutral,negative,1,k,k,,,,,,,,,4,4,76,7,,,,,,,,,main,2,2,1,negative,neutral,k,k,1,0.9477741000009701,305.4292293000035,306.4440860999748,306.4249350000173,None,305.4292293000035,None,305.4292293000035,None,305.4292293000035,None,307.37525940002524,None,307.37525940002524,None,307.37525940002524,None,,,,,,,,,,,,,024,2022-05-19_10h31.42.260,Main,2022.1.1,60.92601448807755,
negative,neutral,1,j,l,,,,,,,,,4,5,77,3,,,,,,,,,main,1,1,1,neutral,negative,j,j,1,0.9337451999890618,307.3815623000264,308.39435110002523,308.3776056999923,None,307.3815623000264,None,307.3815623000264,None,307.3815623000264,None,309.31072659997153,None,309.31072659997153,None,309.31072659997153,None,,,,,,,,,,,,,024,2022-05-19_10h31.42.260,Main,2022.1.1,60.92601448807755,
negative,negative,1,j,l,,,,,,,,,4,6,78,0,,,,,,,,,main,2,2,1,negative,negative,j,j,1,0.7799854999757372,309.3134010999929,310.3273227000027,310.31071619997965,None,309.3134010999929,None,309.3134010999929,None,309.3134010999929,None,311.0921618999855,None,311.0921618999855,None,311.0921618999855,None,,,,,,,,,,,,,024,2022-05-19_10h31.42.260,Main,2022.1.1,60.92601448807755,
negative,positive,2,j,l,,,,,,,,,4,7,79,15,,,,,,,,,main,2,2,2,positive,negative,j,j,1,1.2480672000092454,311.09878830000525,312.10870889999205,312.09204179997323,None,311.09878830000525,None,311.09878830000525,None,311.09878830000525,None,313.34171500001685,None,313.34171500001685,None,313.34171500001685,None,,,,,,,,,,,,,024,2022-05-19_10h31.42.260,Main,2022.1.1,60.92601448807755,
neutral,positive,1,k,k,,,,,,,,,4,8,80,4,,,,,,,,,main,2,2,1,positive,neutral,k,k,1,0.7982011000276543,313.3482184999739,314.3583698999719,314.3415300999768,None,313.3482184999739,None,313.3482184999739,None,313.3482184999739,None,315.14156280001043,None,315.14156280001043,None,315.14156280001043,None,,,,,,,,,,,,,024,2022-05-19_10h31.42.260,Main,2022.1.1,60.92601448807755,
positive,positive,1,l,j,,,,,,,,,4,9,81,2,,,,,,,,,main,1,1,1,positive,positive,l,l,1,1.6318355000112206,315.1419292999781,316.14137099997606,316.14137099997606,None,315.1419292999781,None,315.1419292999781,None,315.1419292999781,None,317.7772873999784,None,317.7772873999784,None,317.7772873999784,None,,,,,,,,,,,,,024,2022-05-19_10h31.42.260,Main,2022.1.1,60.92601448807755,
positive,neutral,2,l,j,,,,,,,,,4,10,82,17,,,,,,,,,main,1,1,2,neutral,positive,l,l,1,0.8181719000567682,318.7760744999978,319.77719479997177,319.76058950001607,None,318.7760744999978,None,318.7760744999978,None,318.7760744999978,None,320.5915727999818,None,320.5915727999818,None,320.5915727999818,None,,,,,,,,,,,,,024,2022-05-19_10h31.42.260,Main,2022.1.1,60.92601448807755,
neutral,neutral,2,k,k,,,,,,,,,4,11,83,10,,,,,,,,,main,1,1,2,neutral,neutral,k,k,1,0.780939899967052,320.59770290000597,321.6104360999889,321.59379900002386,None,320.59770290000597,None,320.59770290000597,None,320.59770290000597,None,322.3748504999967,None,322.3748504999967,None,322.3748504999967,None,,,,,,,,,,,,,024,2022-05-19_10h31.42.260,Main,2022.1.1,60.92601448807755,
neutral,negative,2,k,k,,,,,,,,,4,12,84,16,,,,,,,,,main,1,1,2,negative,neutral,k,k,1,0.7319081000168808,322.3806605999707,323.3937493999838,323.36040800000774,None,322.3806605999707,None,322.3806605999707,None,322.3806605999707,None,324.1081566000066,None,324.1081566000066,None,324.1081566000066,None,,,,,,,,,,,,,024,2022-05-19_10h31.42.260,Main,2022.1.1,60.92601448807755,
positive,neutral,1,l,j,,,,,,,,,4,13,85,8,,,,,,,,,main,2,2,1,neutral,positive,l,l,1,0.9313519999850541,324.11370719998376,325.12445990002016,325.107800400001,None,324.11370719998376,None,324.11370719998376,None,324.11370719998376,None,326.04110940001556,None,326.04110940001556,None,326.04110940001556,None,,,,,,,,,,,,,024,2022-05-19_10h31.42.260,Main,2022.1.1,60.92601448807755,
negative,positive,1,j,l,,,,,,,,,4,14,86,6,,,,,,,,,main,2,2,1,positive,negative,j,j,1,0.9679426000220701,326.0411122000078,327.0411469999817,327.0411469999817,None,326.0411122000078,None,326.0411122000078,None,326.0411122000078,None,328.0103552000073,None,328.0103552000073,None,328.0103552000073,None,,,,,,,,,,,,,024,2022-05-19_10h31.42.260,Main,2022.1.1,60.92601448807755,
neutral,positive,2,k,k,,,,,,,,,4,15,87,13,,,,,,,,,main,2,2,2,positive,neutral,k,k,1,0.7815801000106148,328.0136198999826,329.0269419000251,329.0103457000223,None,328.0136198999826,None,328.0136198999826,None,328.0136198999826,None,329.7936357999861,None,329.7936357999861,None,329.7936357999861,None,,,,,,,,,,,,,024,2022-05-19_10h31.42.260,Main,2022.1.1,60.92601448807755,
positive,negative,1,l,j,,,,,,,,,4,16,88,5,,,,,,,,,main,2,2,1,negative,positive,l,l,1,0.9162285000202246,329.79763649997767,330.8102345999796,330.79364619997796,None,329.79763649997767,None,329.79763649997767,None,329.79763649997767,None,331.71041909998166,None,331.71041909998166,None,331.71041909998166,None,,,,,,,,,,,,,024,2022-05-19_10h31.42.260,Main,2022.1.1,60.92601448807755,
negative,neutral,2,j,l,,,,,,,,,4,17,89,12,,,,,,,,,main,1,1,2,neutral,negative,j,j,1,1.0114906000089832,331.7212565999944,332.7249945999938,332.71032000001287,None,331.7212565999944,None,331.7212565999944,None,331.7212565999944,None,333.7246482000046,None,333.7246482000046,None,333.7246482000046,None,,,,,,,,,,,,,024,2022-05-19_10h31.42.260,Main,2022.1.1,60.92601448807755,
positive,positive,2,l,j,,,,,,,,,5,0,90,11,,,,,,,,,main,2,2,2,positive,positive,l,l,1,0.7652531000203453,333.7304197999765,334.7412330000079,334.7246812999947,None,333.7304197999765,None,333.7304197999765,None,333.7304197999765,None,335.4912319999712,None,335.4912319999712,None,335.4912319999712,None,,,,,,,,,,,,,024,2022-05-19_10h31.42.260,Main,2022.1.1,60.92601448807755,
positive,neutral,1,l,j,,,,,,,,,5,1,91,8,,,,,,,,,main,2,2,1,neutral,positive,l,l,1,0.8318208999698982,335.49126420001267,336.49120210000547,336.49120210000547,None,335.49126420001267,None,335.49126420001267,None,335.49126420001267,None,337.32456760000787,None,337.32456760000787,None,337.32456760000787,None,,,,,,,,,,,,,024,2022-05-19_10h31.42.260,Main,2022.1.1,60.92601448807755,
neutral,negative,2,k,k,,,,,,,,,5,2,92,16,,,,,,,,,main,2,2,2,negative,neutral,k,k,1,0.7311028999974951,337.3301299000159,338.34346060000826,338.32682890002616,None,337.3301299000159,None,337.3301299000159,None,337.3301299000159,None,339.0575932999782,None,339.0575932999782,None,339.0575932999782,None,,,,,,,,,,,,,024,2022-05-19_10h31.42.260,Main,2022.1.1,60.92601448807755,
neutral,positive,1,k,k,,,,,,,,,5,3,93,4,,,,,,,,,main,1,1,1,positive,neutral,k,k,1,0.6183101999922656,339.063695800025,340.0768010999891,340.04346720001195,None,339.063695800025,None,339.063695800025,None,339.063695800025,None,340.67746459998307,None,340.67746459998307,None,340.67746459998307,None,,,,,,,,,,,,,024,2022-05-19_10h31.42.260,Main,2022.1.1,60.92601448807755,
negative,positive,1,j,l,,,,,,,,,5,4,94,6,,,,,,,,,main,2,2,1,positive,negative,j,j,1,0.7793117000255734,340.6813796000206,341.6933676999761,341.67678290000185,None,340.6813796000206,None,340.6813796000206,None,340.6813796000206,None,342.4580754000053,None,342.4580754000053,None,342.4580754000053,None,,,,,,,,,,,,,024,2022-05-19_10h31.42.260,Main,2022.1.1,60.92601448807755,
neutral,positive,2,k,k,,,,,,,,,5,5,95,13,,,,,,,,,main,2,2,2,positive,neutral,k,k,1,0.7979228000040166,342.4639762999723,343.47697010001866,343.4600323999766,None,342.4639762999723,None,342.4639762999723,None,342.4639762999723,None,344.2577301999845,None,344.2577301999845,None,344.2577301999845,None,,,,,,,,,,,,,024,2022-05-19_10h31.42.260,Main,2022.1.1,60.92601448807755,
positive,negative,2,l,j,,,,,,,,,5,6,96,14,,,,,,,,,main,2,2,2,negative,positive,l,l,1,0.7146686000050977,344.26367590000154,345.27404539997224,345.25737150001805,None,344.26367590000154,None,344.26367590000154,None,344.26367590000154,None,345.9740321999707,None,345.9740321999707,None,345.9740321999707,None,,,,,,,,,,,,,024,2022-05-19_10h31.42.260,Main,2022.1.1,60.92601448807755,
neutral,negative,1,k,k,,,,,,,,,5,7,97,7,,,,,,,,,main,2,2,1,negative,neutral,k,k,1,0.7318318000179715,345.9751514000236,346.99071420001565,346.97404000000097,None,345.9751514000236,None,345.9751514000236,None,345.9751514000236,None,347.7073806000117,None,347.7073806000117,None,347.7073806000117,None,,,,,,,,,,,,,024,2022-05-19_10h31.42.260,Main,2022.1.1,60.92601448807755,
negative,negative,1,j,l,,,,,,,,,5,8,98,0,,,,,,,,,main,2,2,1,negative,negative,j,j,1,0.8319667999749072,347.71396600001026,348.726600199996,348.7100275999983,None,347.71396600001026,None,347.71396600001026,None,347.71396600001026,None,349.54099639997,None,349.54099639997,None,349.54099639997,None,,,,,,,,,,,,,024,2022-05-19_10h31.42.260,Main,2022.1.1,60.92601448807755,
positive,neutral,2,l,j,,,,,,,,,5,9,99,17,,,,,,,,,main,2,2,2,neutral,positive,l,l,1,1.2820868999697268,349.5447691999725,350.5598411000101,350.54325729998527,None,349.5447691999725,None,349.5447691999725,None,349.5447691999725,None,351.8242782000161,None,351.8242782000161,None,351.8242782000161,None,,,,,,,,,,,,,024,2022-05-19_10h31.42.260,Main,2022.1.1,60.92601448807755,
negative,neutral,1,j,l,,,,,,,,,5,10,100,3,,,,,,,,,main,1,1,1,neutral,negative,j,j,1,0.7815318999928422,351.8277977000107,352.8431547000073,352.82652619999135,None,351.8277977000107,None,351.8277977000107,None,351.8277977000107,None,353.60755579997203,None,353.60755579997203,None,353.60755579997203,None,,,,,,,,,,,,,024,2022-05-19_10h31.42.260,Main,2022.1.1,60.92601448807755,
negative,negative,2,j,l,,,,,,,,,5,11,101,9,,,,,,,,,main,2,2,2,negative,negative,j,j,1,0.8816091000335291,353.6108050000039,354.62464619998354,354.6098114000051,None,353.6108050000039,None,353.6108050000039,None,353.6108050000039,None,355.490880599973,None,355.490880599973,None,355.490880599973,None,,,,,,,,,,,,,024,2022-05-19_10h31.42.260,Main,2022.1.1,60.92601448807755,
positive,negative,1,l,j,,,,,,,,,5,12,102,5,,,,,,,,,main,1,1,1,negative,positive,l,l,1,0.8313030999852344,355.4966247000266,356.5074537000037,356.4907655999996,None,355.4966247000266,None,355.4966247000266,None,355.4966247000266,None,357.32378780000727,None,357.32378780000727,None,357.32378780000727,None,,,,,,,,,,,,,024,2022-05-19_10h31.42.260,Main,2022.1.1,60.92601448807755,
positive,positive,1,l,j,,,,,,,,,5,13,103,2,,,,,,,,,main,1,1,1,positive,positive,l,l,1,0.7011729999794625,357.3238191999844,358.3242128000129,358.3242128000129,None,357.3238191999844,None,357.3238191999844,None,357.3238191999844,None,359.02644199997303,None,359.02644199997303,None,359.02644199997303,None,,,,,,,,,,,,,024,2022-05-19_10h31.42.260,Main,2022.1.1,60.92601448807755,
negative,positive,2,j,l,,,,,,,,,5,14,104,15,,,,,,,,,main,1,1,2,positive,negative,j,j,1,0.8792292000143789,359.0302683999762,360.0430287999916,360.02644350001356,None,359.0302683999762,None,359.0302683999762,None,359.0302683999762,None,360.907394400012,None,360.907394400012,None,360.907394400012,None,,,,,,,,,,,,,024,2022-05-19_10h31.42.260,Main,2022.1.1,60.92601448807755,
neutral,neutral,1,k,k,,,,,,,,,5,15,105,1,,,,,,,,,main,2,2,1,neutral,neutral,k,k,1,0.6985993999987841,360.9135566999903,361.92626079998445,361.89300929999445,None,360.9135566999903,None,360.9135566999903,None,360.9135566999903,None,362.6073564000253,None,362.6073564000253,None,362.6073564000253,None,,,,,,,,,,,,,024,2022-05-19_10h31.42.260,Main,2022.1.1,60.92601448807755,
negative,neutral,2,j,l,,,,,,,,,5,16,106,12,,,,,,,,,main,2,2,2,neutral,negative,j,j,1,0.7817612999933772,362.61083249998046,363.62625440000556,363.60964029998286,None,362.61083249998046,None,362.61083249998046,None,362.61083249998046,None,364.390665599989,None,364.390665599989,None,364.390665599989,None,,,,,,,,,,,,,024,2022-05-19_10h31.42.260,Main,2022.1.1,60.92601448807755,
neutral,neutral,2,k,k,,,,,,,,,5,17,107,10,,,,,,,,,main,1,1,2,neutral,neutral,k,k,1,0.8312162999645807,364.39595670002745,365.4095192999812,365.39289750001626,None,364.39595670002745,None,364.39595670002745,None,364.39595670002745,None,366.22358650001115,None,366.22358650001115,None,366.22358650001115,None,,,,,,,,,,,,,024,2022-05-19_10h31.42.260,Main,2022.1.1,60.92601448807755,
positive,negative,1,l,j,,,,,,,,,6,0,108,5,,,,,,,,,main,2,2,1,negative,positive,l,l,1,0.866311899968423,366.223608899978,367.2235876999912,367.2235876999912,None,366.223608899978,None,366.223608899978,None,366.223608899978,None,368.09026300002006,None,368.09026300002006,None,368.09026300002006,None,,,,,,,,,,,,,024,2022-05-19_10h31.42.260,Main,2022.1.1,60.92601448807755,
negative,negative,2,j,l,,,,,,,,,6,1,109,9,,,,,,,,,main,1,1,2,negative,negative,j,j,1,0.7644738999661058,368.107004599995,369.10699170001317,369.09037970000645,None,368.107004599995,None,368.107004599995,None,368.107004599995,None,369.8572635000164,None,369.8572635000164,None,369.8572635000164,None,,,,,,,,,,,,,024,2022-05-19_10h31.42.260,Main,2022.1.1,60.92601448807755,
positive,neutral,1,l,j,,,,,,,,,6,2,110,8,,,,,,,,,main,1,1,1,neutral,positive,l,l,1,0.781718899961561,369.8630005000159,370.8760936000035,370.85952100000577,None,369.8630005000159,None,369.8630005000159,None,369.8630005000159,None,371.640534199978,None,371.640534199978,None,371.640534199978,None,,,,,,,,,,,,,024,2022-05-19_10h31.42.260,Main,2022.1.1,60.92601448807755,
positive,positive,1,l,j,,,,,,,,,6,3,111,2,,,,,,,,,main,2,2,1,positive,positive,l,l,1,0.7316739000380039,371.6440977000166,372.65935329999775,372.6427823000122,None,371.6440977000166,None,371.6440977000166,None,371.6440977000166,None,373.37382780000917,None,373.37382780000917,None,373.37382780000917,None,,,,,,,,,,,,,024,2022-05-19_10h31.42.260,Main,2022.1.1,60.92601448807755,
negative,neutral,1,j,l,,,,,,,,,6,4,112,3,,,,,,,,,main,1,1,1,neutral,negative,j,j,1,0.9483861000044271,373.37725000001956,374.39273869997123,374.3761437999783,None,373.37725000001956,None,373.37725000001956,None,373.37725000001956,None,375.32377980000456,None,375.32377980000456,None,375.32377980000456,None,,,,,,,,,,,,,024,2022-05-19_10h31.42.260,Main,2022.1.1,60.92601448807755,
neutral,negative,1,k,k,,,,,,,,,6,5,113,7,,,,,,,,,main,2,2,1,negative,neutral,k,k,1,0.7485191999585368,375.32724670000607,376.34268000000156,376.3260439999867,None,375.32724670000607,None,375.32724670000607,None,375.32724670000607,None,377.07385509999585,None,377.07385509999585,None,377.07385509999585,None,,,,,,,,,,,,,024,2022-05-19_10h31.42.260,Main,2022.1.1,60.92601448807755,
positive,neutral,2,l,j,,,,,,,,,6,6,114,17,,,,,,,,,main,1,1,2,neutral,positive,l,l,1,0.7644645000109449,377.07926560001215,378.0900423999992,378.0733747999766,None,377.07926560001215,None,377.07926560001215,None,377.07926560001215,None,378.84003200000734,None,378.84003200000734,None,378.84003200000734,None,,,,,,,,,,,,,024,2022-05-19_10h31.42.260,Main,2022.1.1,60.92601448807755,
neutral,positive,1,k,k,,,,,,,,,6,7,115,4,,,,,,,,,main,1,1,1,positive,neutral,k,k,1,0.7698411999735981,378.8401006999775,379.84038020001026,379.84038020001026,None,378.8401006999775,None,378.8401006999775,None,378.8401006999775,None,380.6071366999822,None,380.6071366999822,None,380.6071366999822,None,,,,,,,,,,,,,024,2022-05-19_10h31.42.260,Main,2022.1.1,60.92601448807755,
neutral,positive,2,k,k,,,,,,,,,6,8,116,13,,,,,,,,,main,2,2,2,positive,neutral,k,k,1,0.6952879999880679,380.6160004999838,381.62589040002786,381.60742800001753,None,380.6160004999838,None,380.6160004999838,None,380.6160004999838,None,382.3092634000059,None,382.3092634000059,None,382.3092634000059,None,,,,,,,,,,,,,024,2022-05-19_10h31.42.260,Main,2022.1.1,60.92601448807755,
neutral,neutral,1,k,k,,,,,,,,,6,9,117,1,,,,,,,,,main,2,2,1,neutral,neutral,k,k,1,0.6627378000412136,382.31217900000047,383.3258890999714,383.3092563999817,None,382.31217900000047,None,382.31217900000047,None,382.31217900000047,None,383.9735858000058,None,383.9735858000058,None,383.9735858000058,None,,,,,,,,,,,,,024,2022-05-19_10h31.42.260,Main,2022.1.1,60.92601448807755,
negative,neutral,2,j,l,,,,,,,,,6,10,118,12,,,,,,,,,main,1,1,2,neutral,negative,j,j,1,0.9482764999847859,383.97680479998235,384.9759001000202,384.9759001000202,None,383.97680479998235,None,383.97680479998235,None,383.97680479998235,None,385.9235319000145,None,385.9235319000145,None,385.9235319000145,None,,,,,,,,,,,,,024,2022-05-19_10h31.42.260,Main,2022.1.1,60.92601448807755,
positive,positive,2,l,j,,,,,,,,,6,11,119,11,,,,,,,,,main,1,1,2,positive,positive,l,l,1,0.6810945000033826,385.94250699999975,386.95910659997026,386.92352060001576,None,385.94250699999975,None,385.94250699999975,None,385.94250699999975,None,387.6068286000227,None,387.6068286000227,None,387.6068286000227,None,,,,,,,,,,,,,024,2022-05-19_10h31.42.260,Main,2022.1.1,60.92601448807755,
negative,positive,2,j,l,,,,,,,,,6,12,120,15,,,,,,,,,main,2,2,2,positive,negative,j,j,1,0.7479099000338465,387.61262710002484,388.623156799993,388.60647170001175,None,387.61262710002484,None,387.61262710002484,None,387.61262710002484,None,389.356453800021,None,389.356453800021,None,389.356453800021,None,,,,,,,,,,,,,024,2022-05-19_10h31.42.260,Main,2022.1.1,60.92601448807755,
positive,negative,2,l,j,,,,,,,,,6,13,121,14,,,,,,,,,main,2,2,2,negative,positive,l,l,1,0.9344121000031009,389.35702049999963,390.3564896999742,390.3564896999742,None,389.35702049999963,None,389.35702049999963,None,389.35702049999963,None,391.29238049997366,None,391.29238049997366,None,391.29238049997366,None,,,,,,,,,,,,,024,2022-05-19_10h31.42.260,Main,2022.1.1,60.92601448807755,
neutral,neutral,2,k,k,,,,,,,,,6,14,122,10,,,,,,,,,main,2,2,2,neutral,neutral,k,k,1,0.6461315999622457,391.29508970002644,392.30897140002344,392.292397000012,None,391.29508970002644,None,391.29508970002644,None,391.29508970002644,None,392.9400911999692,None,392.9400911999692,None,392.9400911999692,None,,,,,,,,,,,,,024,2022-05-19_10h31.42.260,Main,2022.1.1,60.92601448807755,
negative,positive,1,j,l,,,,,,,,,6,15,123,6,,,,,,,,,main,1,1,1,positive,negative,j,j,1,0.7319218999473378,392.94564300001366,393.95894420001423,393.94234220002545,None,392.94564300001366,None,392.94564300001366,None,392.94564300001366,None,394.67341349998605,None,394.67341349998605,None,394.67341349998605,None,,,,,,,,,,,,,024,2022-05-19_10h31.42.260,Main,2022.1.1,60.92601448807755,
negative,negative,1,j,l,,,,,,,,,6,16,124,0,,,,,,,,,main,1,1,1,negative,negative,j,j,1,1.065066899987869,394.67672909999965,395.6922374999849,395.67570660001365,None,394.67672909999965,None,394.67672909999965,None,394.67672909999965,None,396.73998410001514,None,396.73998410001514,None,396.73998410001514,None,,,,,,,,,,,,,024,2022-05-19_10h31.42.260,Main,2022.1.1,60.92601448807755,
neutral,negative,2,k,k,,,,,,,,,6,17,125,16,,,,,,,,,main,1,1,2,negative,neutral,k,k,1,0.7677194999996573,396.74308360001305,397.74226189998444,397.74226189998444,None,396.74308360001305,None,396.74308360001305,None,396.74308360001305,None,398.5062726000033,None,398.5062726000033,None,398.5062726000033,None,,,,,,,,,,,,,024,2022-05-19_10h31.42.260,Main,2022.1.1,60.92601448807755,
positive,negative,2,l,j,,,,,,,,,7,0,126,14,,,,,,,,,main,2,2,2,negative,positive,l,l,1,0.8120786999934353,398.5097320000059,399.52292670001043,399.506264799973,None,398.5097320000059,None,398.5097320000059,None,398.5097320000059,None,400.32295969998813,None,400.32295969998813,None,400.32295969998813,None,,,,,,,,,,,,,024,2022-05-19_10h31.42.260,Main,2022.1.1,60.92601448807755,
neutral,positive,1,k,k,,,,,,,,,7,1,127,4,,,,,,,,,main,2,2,1,positive,neutral,k,k,1,0.7320871000410989,400.3287044999888,401.3421022000257,401.32548300002236,None,400.3287044999888,None,400.3287044999888,None,400.3287044999888,None,402.0565566000005,None,402.0565566000005,None,402.0565566000005,None,,,,,,,,,,,,,024,2022-05-19_10h31.42.260,Main,2022.1.1,60.92601448807755,
negative,positive,1,j,l,,,,,,,,,7,2,128,6,,,,,,,,,main,2,2,1,positive,negative,j,j,1,0.8150132999871857,402.062720499991,403.07538390002446,403.05887349997647,None,402.062720499991,None,402.062720499991,None,402.062720499991,None,403.8731829999888,None,403.8731829999888,None,403.8731829999888,None,,,,,,,,,,,,,024,2022-05-19_10h31.42.260,Main,2022.1.1,60.92601448807755,
neutral,neutral,1,k,k,,,,,,,,,7,3,129,1,,,,,,,,,main,2,2,1,neutral,neutral,k,k,1,0.7339562000124715,403.8786831999896,404.89209370000754,404.8754536000197,None,403.8786831999896,None,403.8786831999896,None,403.8786831999896,None,405.60862460001954,None,405.60862460001954,None,405.60862460001954,None,,,,,,,,,,,,,024,2022-05-19_10h31.42.260,Main,2022.1.1,60.92601448807755,
neutral,negative,2,k,k,,,,,,,,,7,4,130,16,,,,,,,,,main,2,2,2,negative,neutral,k,k,1,0.6629892999771982,405.61153910000576,406.62536359997466,406.6087646000087,None,405.61153910000576,None,405.61153910000576,None,405.61153910000576,None,407.27311350000673,None,407.27311350000673,None,407.27311350000673,None,,,,,,,,,,,,,024,2022-05-19_10h31.42.260,Main,2022.1.1,60.92601448807755,
neutral,neutral,2,k,k,,,,,,,,,7,5,131,10,,,,,,,,,main,1,1,2,neutral,neutral,k,k,1,0.6656465000123717,407.27852290001465,408.2890941000078,408.27178880001884,None,407.27852290001465,None,407.27852290001465,None,407.27852290001465,None,408.9393866000173,None,408.9393866000173,None,408.9393866000173,None,,,,,,,,,,,,,024,2022-05-19_10h31.42.260,Main,2022.1.1,60.92601448807755,
negative,negative,2,j,l,,,,,,,,,7,6,132,9,,,,,,,,,main,2,2,2,negative,negative,j,j,1,0.847452899964992,408.9407396999886,409.9560500999796,409.9393836000236,None,408.9407396999886,None,408.9407396999886,None,408.9407396999886,None,410.7893882000062,None,410.7893882000062,None,410.7893882000062,None,,,,,,,,,,,,,024,2022-05-19_10h31.42.260,Main,2022.1.1,60.92601448807755,
positive,neutral,2,l,j,,,,,,,,,7,7,133,17,,,,,,,,,main,2,2,2,neutral,positive,l,l,1,0.8668475999729708,410.78953319997527,411.78939659998287,411.78939659998287,None,410.78953319997527,None,410.78953319997527,None,410.78953319997527,None,412.6566291000054,None,412.6566291000054,None,412.6566291000054,None,,,,,,,,,,,,,024,2022-05-19_10h31.42.260,Main,2022.1.1,60.92601448807755,
negative,neutral,2,j,l,,,,,,,,,7,8,134,12,,,,,,,,,main,1,1,2,neutral,negative,j,j,1,0.8636853999923915,412.66264330002014,413.67318530002376,413.6587787999888,None,412.66264330002014,None,412.66264330002014,None,412.66264330002014,None,414.5229632000264,None,414.5229632000264,None,414.5229632000264,None,,,,,,,,,,,,,024,2022-05-19_10h31.42.260,Main,2022.1.1,60.92601448807755,
positive,neutral,1,l,j,,,,,,,,,7,9,135,8,,,,,,,,,main,1,1,1,neutral,positive,l,l,1,0.8492806000285782,414.5261400999734,415.5399830000242,415.5256127999746,None,414.5261400999734,None,414.5261400999734,None,414.5261400999734,None,416.3729170000006,None,416.3729170000006,None,416.3729170000006,None,,,,,,,,,,,,,024,2022-05-19_10h31.42.260,Main,2022.1.1,60.92601448807755,
positive,negative,1,l,j,,,,,,,,,7,10,136,5,,,,,,,,,main,2,2,1,negative,positive,l,l,1,0.7479657999938354,416.3770183000015,417.3918609999819,417.3752557000262,None,416.3770183000015,None,416.3770183000015,None,416.3770183000015,None,418.1228883000149,None,418.1228883000149,None,418.1228883000149,None,,,,,,,,,,,,,024,2022-05-19_10h31.42.260,Main,2022.1.1,60.92601448807755,
negative,negative,1,j,l,,,,,,,,,7,11,137,0,,,,,,,,,main,1,1,1,negative,negative,j,j,1,0.8807521000271663,418.12908390001394,419.14183570002206,419.12541879998753,None,418.12908390001394,None,418.12908390001394,None,418.12908390001394,None,420.0058249999711,None,420.0058249999711,None,420.0058249999711,None,,,,,,,,,,,,,024,2022-05-19_10h31.42.260,Main,2022.1.1,60.92601448807755,
negative,positive,2,j,l,,,,,,,,,7,12,138,15,,,,,,,,,main,2,2,2,positive,negative,j,j,1,0.8486544999759644,420.00584009999875,421.0060628000065,421.0060628000065,None,420.00584009999875,None,420.00584009999875,None,420.00584009999875,None,421.85584709999966,None,421.85584709999966,None,421.85584709999966,None,,,,,,,,,,,,,024,2022-05-19_10h31.42.260,Main,2022.1.1,60.92601448807755,
positive,positive,2,l,j,,,,,,,,,7,13,139,11,,,,,,,,,main,1,1,2,positive,positive,l,l,1,0.9503112999955192,421.86108330002753,422.8750426999759,422.841773400025,None,421.86108330002753,None,421.86108330002753,None,421.86108330002753,None,423.80663380000624,None,423.80663380000624,None,423.80663380000624,None,,,,,,,,,,,,,024,2022-05-19_10h31.42.260,Main,2022.1.1,60.92601448807755,
positive,positive,1,l,j,,,,,,,,,7,14,140,2,,,,,,,,,main,2,2,1,positive,positive,l,l,1,0.8329590000212193,423.81085569999414,424.8252360000042,424.8063748999848,None,423.81085569999414,None,423.81085569999414,None,423.81085569999414,None,425.64167239997187,None,425.64167239997187,None,425.64167239997187,None,,,,,,,,,,,,,024,2022-05-19_10h31.42.260,Main,2022.1.1,60.92601448807755,
negative,neutral,1,j,l,,,,,,,,,7,15,141,3,,,,,,,,,main,1,1,1,neutral,negative,j,j,1,0.778891499969177,425.645042499993,426.65827080002055,426.64172449999023,None,425.645042499993,None,425.645042499993,None,425.645042499993,None,427.4226819000032,None,427.4226819000032,None,427.4226819000032,None,,,,,,,,,,,,,024,2022-05-19_10h31.42.260,Main,2022.1.1,60.92601448807755,
neutral,positive,2,k,k,,,,,,,,,7,16,142,13,,,,,,,,,main,2,2,2,positive,neutral,k,k,1,1.0152448000153527,427.42625120002776,428.4393542999751,428.42507920000935,None,427.42625120002776,None,427.42625120002776,None,427.42625120002776,None,429.4393071999948,None,429.4393071999948,None,429.4393071999948,None,,,,,,,,,,,,,024,2022-05-19_10h31.42.260,Main,2022.1.1,60.92601448807755,
neutral,negative,1,k,k,,,,,,,,,7,17,143,7,,,,,,,,,main,2,2,1,negative,neutral,k,k,1,0.7814350000116974,429.44510050001554,430.45564070000546,430.4391157000209,None,429.44510050001554,None,429.44510050001554,None,429.44510050001554,None,431.2222646000155,None,431.2222646000155,None,431.2222646000155,None,,,,,,,,,,,,,024,2022-05-19_10h31.42.260,Main,2022.1.1,60.92601448807755,
negative,neutral,1,j,l,,,,,,,,,8,0,144,3,,,,,,,,,main,2,2,1,neutral,negative,j,j,1,0.748683899990283,431.22408969997196,432.23894499999005,432.22232780000195,None,431.22408969997196,None,431.22408969997196,None,431.22408969997196,None,432.97250240002177,None,432.97250240002177,None,432.97250240002177,None,,,,,,,,,,,,,024,2022-05-19_10h31.42.260,Main,2022.1.1,60.92601448807755,
neutral,neutral,2,k,k,,,,,,,,,8,1,145,10,,,,,,,,,main,1,1,2,neutral,neutral,k,k,1,0.6304864999838173,432.97697969997535,433.99144299997715,433.9748000000254,None,432.97697969997535,None,432.97697969997535,None,432.97697969997535,None,434.6056059000257,None,434.6056059000257,None,434.6056059000257,None,,,,,,,,,,,,,024,2022-05-19_10h31.42.260,Main,2022.1.1,60.92601448807755,
neutral,positive,1,k,k,,,,,,,,,8,2,146,4,,,,,,,,,main,2,2,1,positive,neutral,k,k,1,0.9175917000393383,434.6099791000015,435.6248589999741,435.60625229997095,None,434.6099791000015,None,434.6099791000015,None,434.6099791000015,None,436.5247773999872,None,436.5247773999872,None,436.5247773999872,None,,,,,,,,,,,,,024,2022-05-19_10h31.42.260,Main,2022.1.1,60.92601448807755,
positive,negative,2,l,j,,,,,,,,,8,3,147,14,,,,,,,,,main,2,2,2,negative,positive,l,l,1,1.2960992000298575,436.527944499976,437.5415979999816,437.5251235999749,None,436.527944499976,None,436.527944499976,None,436.527944499976,None,438.8225545999885,None,438.8225545999885,None,438.8225545999885,None,,,,,,,,,,,,,024,2022-05-19_10h31.42.260,Main,2022.1.1,60.92601448807755,
neutral,negative,2,k,k,,,,,,,,,8,4,148,16,,,,,,,,,main,2,2,2,negative,neutral,k,k,1,0.798274600005243,438.8281296999776,439.84133979998296,439.8247136999853,None,438.8281296999776,None,438.8281296999776,None,438.8281296999776,None,440.6224041999958,None,440.6224041999958,None,440.6224041999958,None,,,,,,,,,,,,,024,2022-05-19_10h31.42.260,Main,2022.1.1,60.92601448807755,
negative,neutral,2,j,l,,,,,,,,,8,5,149,12,,,,,,,,,main,2,2,2,neutral,negative,j,j,1,0.9984410000033677,440.628603500023,441.638727499987,441.6220717999968,None,440.628603500023,None,440.628603500023,None,440.628603500023,None,442.62201909997384,None,442.62201909997384,None,442.62201909997384,None,,,,,,,,,,,,,024,2022-05-19_10h31.42.260,Main,2022.1.1,60.92601448807755,
negative,positive,1,j,l,,,,,,,,,8,6,150,6,,,,,,,,,main,1,1,1,positive,negative,j,j,1,0.8817532999673858,442.62397660000715,443.6246785999974,443.6246785999974,None,442.62397660000715,None,442.62397660000715,None,442.62397660000715,None,444.5056753999961,None,444.5056753999961,None,444.5056753999961,None,,,,,,,,,,,,,024,2022-05-19_10h31.42.260,Main,2022.1.1,60.92601448807755,
neutral,positive,2,k,k,,,,,,,,,8,7,151,13,,,,,,,,,main,1,1,2,positive,neutral,k,k,1,0.715405400027521,444.5089347999892,445.5245943000191,445.5079758000211,None,444.5089347999892,None,444.5089347999892,None,444.5089347999892,None,446.22230120000313,None,446.22230120000313,None,446.22230120000313,None,,,,,,,,,,,,,024,2022-05-19_10h31.42.260,Main,2022.1.1,60.92601448807755,
positive,neutral,2,l,j,,,,,,,,,8,8,152,17,,,,,,,,,main,1,1,2,neutral,positive,l,l,1,0.8143976999563165,446.22806330001913,447.2389542000019,447.22448009997606,None,446.22806330001913,None,446.22806330001913,None,446.22806330001913,None,448.0386433999811,None,448.0386433999811,None,448.0386433999811,None,,,,,,,,,,,,,024,2022-05-19_10h31.42.260,Main,2022.1.1,60.92601448807755,
neutral,negative,1,k,k,,,,,,,,,8,9,153,7,,,,,,,,,main,2,2,1,negative,neutral,k,k,1,0.6825567000196315,448.04453959997045,449.05775540001923,449.024524700013,None,448.04453959997045,None,448.04453959997045,None,448.04453959997045,None,449.72221910001826,None,449.72221910001826,None,449.72221910001826,None,,,,,,,,,,,,,024,2022-05-19_10h31.42.260,Main,2022.1.1,60.92601448807755,
negative,positive,2,j,l,,,,,,,,,8,10,154,15,,,,,,,,,main,2,2,2,positive,negative,j,j,1,0.81348930002423,449.73096930002794,450.74112790002255,450.72447680000914,None,449.73096930002794,None,449.73096930002794,None,449.73096930002794,None,451.53882609997527,None,451.53882609997527,None,451.53882609997527,None,,,,,,,,,,,,,024,2022-05-19_10h31.42.260,Main,2022.1.1,60.92601448807755,
negative,negative,2,j,l,,,,,,,,,8,11,155,9,,,,,,,,,main,1,1,2,negative,negative,j,j,1,0.68062739999732,451.55772350000916,452.5718268000055,452.53849499998614,None,451.55772350000916,None,451.55772350000916,None,451.55772350000916,None,453.2218010999786,None,453.2218010999786,None,453.2218010999786,None,,,,,,,,,,,,,024,2022-05-19_10h31.42.260,Main,2022.1.1,60.92601448807755,
neutral,neutral,1,k,k,,,,,,,,,8,12,156,1,,,,,,,,,main,2,2,1,neutral,neutral,k,k,1,0.6810538999852724,453.2219608000014,454.22180340002524,454.22180340002524,None,453.2219608000014,None,453.2219608000014,None,453.2219608000014,None,454.90513240001746,None,454.90513240001746,None,454.90513240001746,None,,,,,,,,,,,,,024,2022-05-19_10h31.42.260,Main,2022.1.1,60.92601448807755,
positive,positive,1,l,j,,,,,,,,,8,13,157,2,,,,,,,,,main,2,2,1,positive,positive,l,l,1,0.8492056999821216,454.9053964000195,455.9051467999816,455.9051467999816,None,454.9053964000195,None,454.9053964000195,None,454.9053964000195,None,456.75546290000784,None,456.75546290000784,None,456.75546290000784,None,,,,,,,,,,,,,024,2022-05-19_10h31.42.260,Main,2022.1.1,60.92601448807755,
positive,neutral,1,l,j,,,,,,,,,8,14,158,8,,,,,,,,,main,2,2,1,neutral,positive,l,l,1,0.6813707000110298,456.7615391999716,457.7743075999897,457.7577149000135,None,456.7615391999716,None,456.7615391999716,None,456.7615391999716,None,458.4387220000208,None,458.4387220000208,None,458.4387220000208,None,,,,,,,,,,,,,024,2022-05-19_10h31.42.260,Main,2022.1.1,60.92601448807755,
negative,negative,1,j,l,,,,,,,,,8,15,159,0,,,,,,,,,main,1,1,1,negative,negative,j,j,1,0.8150054000434466,458.44474110001465,459.4576607000199,459.4410472000018,None,458.44474110001465,None,458.44474110001465,None,458.44474110001465,None,460.2553372999828,None,460.2553372999828,None,460.2553372999828,None,,,,,,,,,,,,,024,2022-05-19_10h31.42.260,Main,2022.1.1,60.92601448807755,
positive,negative,1,l,j,,,,,,,,,8,16,160,5,,,,,,,,,main,2,2,1,negative,positive,l,l,1,0.834025299991481,460.2588568999781,461.27420939999865,461.2576695000171,None,460.2588568999781,None,460.2588568999781,None,460.2588568999781,None,462.09087520002504,None,462.09087520002504,None,462.09087520002504,None,,,,,,,,,,,,,024,2022-05-19_10h31.42.260,Main,2022.1.1,60.92601448807755,
positive,positive,2,l,j,,,,,,,,,8,17,161,11,,,,,,,,,main,2,2,2,positive,positive,l,l,1,0.762888600002043,462.09483419999015,463.10753839998506,463.09088239999255,None,462.09483419999015,None,462.09483419999015,None,462.09483419999015,None,463.8552537000214,None,463.8552537000214,None,463.8552537000214,None,,,,,,,,,,,,,024,2022-05-19_10h31.42.260,Main,2022.1.1,60.92601448807755,
negative,positive,2,j,l,,,,,,,,,9,0,162,15,,,,,,,,,main,2,2,2,positive,negative,j,j,1,0.8645876999944448,463.85864990000846,464.87159009999596,464.85490769997705,None,463.85864990000846,None,463.85864990000846,None,463.85864990000846,None,465.72154650001903,None,465.72154650001903,None,465.72154650001903,None,,,,,,,,,,,,,024,2022-05-19_10h31.42.260,Main,2022.1.1,60.92601448807755,
negative,negative,2,j,l,,,,,,,,,9,1,163,9,,,,,,,,,main,2,2,2,negative,negative,j,j,1,0.6521331999683753,465.72155080002267,466.7215835999814,466.7215835999814,None,465.72155080002267,None,465.72155080002267,None,465.72155080002267,None,467.37417689998983,None,467.37417689998983,None,467.37417689998983,None,,,,,,,,,,,,,024,2022-05-19_10h31.42.260,Main,2022.1.1,60.92601448807755,
negative,neutral,2,j,l,,,,,,,,,9,2,164,12,,,,,,,,,main,1,1,2,neutral,negative,j,j,1,0.6803318999591284,467.38392719998956,468.39070659998106,468.3740874999785,None,467.38392719998956,None,467.38392719998956,None,467.38392719998956,None,469.0574926000263,None,469.0574926000263,None,469.0574926000263,None,,,,,,,,,,,,,024,2022-05-19_10h31.42.260,Main,2022.1.1,60.92601448807755,
positive,negative,2,l,j,,,,,,,,,9,3,165,14,,,,,,,,,main,1,1,2,negative,positive,l,l,1,0.846259200014174,469.06132029998116,470.0740872999886,470.0574336000136,None,469.06132029998116,None,469.06132029998116,None,469.06132029998116,None,470.9051168000151,None,470.9051168000151,None,470.9051168000151,None,,,,,,,,,,,,,024,2022-05-19_10h31.42.260,Main,2022.1.1,60.92601448807755,
negative,positive,1,j,l,,,,,,,,,9,4,166,6,,,,,,,,,main,1,1,1,positive,negative,j,j,1,0.7486142999841832,470.91077209997457,471.9239532999927,471.90744779998204,None,470.91077209997457,None,470.91077209997457,None,470.91077209997457,None,472.6553946999775,None,472.6553946999775,None,472.6553946999775,None,,,,,,,,,,,,,024,2022-05-19_10h31.42.260,Main,2022.1.1,60.92601448807755,
positive,neutral,1,l,j,,,,,,,,,9,5,167,8,,,,,,,,,main,1,1,1,neutral,positive,l,l,1,0.8171787000028417,472.6610892000026,473.6739515999798,473.6573430999997,None,472.6610892000026,None,472.6610892000026,None,472.6610892000026,None,474.47402400002466,None,474.47402400002466,None,474.47402400002466,None,,,,,,,,,,,,,024,2022-05-19_10h31.42.260,Main,2022.1.1,60.92601448807755,
positive,neutral,2,l,j,,,,,,,,,9,6,168,17,,,,,,,,,main,2,2,2,neutral,positive,l,l,1,0.7290509999729693,474.47790360002546,475.4880166000221,475.4713464999804,None,474.47790360002546,None,474.47790360002546,None,474.47790360002546,None,476.2046560999879,None,476.2046560999879,None,476.2046560999879,None,,,,,,,,,,,,,024,2022-05-19_10h31.42.260,Main,2022.1.1,60.92601448807755,
neutral,negative,2,k,k,,,,,,,,,9,7,169,16,,,,,,,,,main,2,2,2,negative,neutral,k,k,1,0.7829340000171214,476.2046709000133,477.2046804000274,477.2046804000274,None,476.2046709000133,None,476.2046709000133,None,476.2046709000133,None,477.98801569998614,None,477.98801569998614,None,477.98801569998614,None,,,,,,,,,,,,,024,2022-05-19_10h31.42.260,Main,2022.1.1,60.92601448807755,
negative,negative,1,j,l,,,,,,,,,9,8,170,0,,,,,,,,,main,1,1,1,negative,negative,j,,0,0.833459000044968,477.9943841000204,479.0072812999715,478.9906615000218,None,477.9943841000204,None,477.9943841000204,None,477.9943841000204,None,479.8213154000114,None,479.8213154000114,None,479.8213154000114,None,,,,,,,,,,,,,024,2022-05-19_10h31.42.260,Main,2022.1.1,60.92601448807755,
negative,neutral,1,j,l,,,,,,,,,9,9,171,3,,,,,,,,,main,2,2,1,neutral,negative,j,j,1,0.7680179000017233,480.8219473999925,481.82380000001285,481.80719339998905,None,480.8219473999925,None,480.8219473999925,None,480.8219473999925,None,482.58824390001246,None,482.58824390001246,None,482.58824390001246,None,,,,,,,,,,,,,024,2022-05-19_10h31.42.260,Main,2022.1.1,60.92601448807755,
neutral,neutral,2,k,k,,,,,,,,,9,10,172,10,,,,,,,,,main,1,1,2,neutral,neutral,k,k,1,0.8480467000044882,482.5920881999773,483.6070736999973,483.59051010000985,None,482.5920881999773,None,482.5920881999773,None,482.5920881999773,None,484.4381752999907,None,484.4381752999907,None,484.4381752999907,None,,,,,,,,,,,,,024,2022-05-19_10h31.42.260,Main,2022.1.1,60.92601448807755,
neutral,positive,2,k,k,,,,,,,,,9,11,173,13,,,,,,,,,main,2,2,2,positive,neutral,k,k,1,0.7480238000280224,484.44177400000626,485.45702769997297,485.4404429999995,None,484.44177400000626,None,484.44177400000626,None,484.44177400000626,None,486.1877918999817,None,486.1877918999817,None,486.1877918999817,None,,,,,,,,,,,,,024,2022-05-19_10h31.42.260,Main,2022.1.1,60.92601448807755,
neutral,positive,1,k,k,,,,,,,,,9,12,174,4,,,,,,,,,main,2,2,1,positive,neutral,k,k,1,0.7320476999739185,486.1878786999732,487.18811280000955,487.18811280000955,None,486.1878786999732,None,486.1878786999732,None,486.1878786999732,None,487.92129870000645,None,487.92129870000645,None,487.92129870000645,None,,,,,,,,,,,,,024,2022-05-19_10h31.42.260,Main,2022.1.1,60.92601448807755,
neutral,neutral,1,k,k,,,,,,,,,9,13,175,1,,,,,,,,,main,2,2,1,neutral,neutral,k,k,1,0.7149459000211209,487.92480669997167,488.9237449999782,488.9237449999782,None,487.92480669997167,None,487.92480669997167,None,487.92480669997167,None,489.63809709998895,None,489.63809709998895,None,489.63809709998895,None,,,,,,,,,,,,,024,2022-05-19_10h31.42.260,Main,2022.1.1,60.92601448807755,
neutral,negative,1,k,k,,,,,,,,,9,14,176,7,,,,,,,,,main,2,2,1,negative,neutral,k,k,1,0.6980446999659762,489.64159349998226,490.6569363999879,490.64041609998094,None,489.64159349998226,None,489.64159349998226,None,489.64159349998226,None,491.337777800014,None,491.337777800014,None,491.337777800014,None,,,,,,,,,,,,,024,2022-05-19_10h31.42.260,Main,2022.1.1,60.92601448807755,
positive,positive,1,l,j,,,,,,,,,9,15,177,2,,,,,,,,,main,2,2,1,positive,positive,l,l,1,0.8155041999998502,491.3441881000181,492.3569367000018,492.3402808000101,None,491.3441881000181,None,491.3441881000181,None,491.3441881000181,None,493.1546562000003,None,493.1546562000003,None,493.1546562000003,None,,,,,,,,,,,,,024,2022-05-19_10h31.42.260,Main,2022.1.1,60.92601448807755,
positive,positive,2,l,j,,,,,,,,,9,16,178,11,,,,,,,,,main,2,2,2,positive,positive,l,l,1,0.8314522000146098,493.1606245000148,494.17352680000477,494.1569641000242,None,493.1606245000148,None,493.1606245000148,None,493.1606245000148,None,494.9879260000016,None,494.9879260000016,None,494.9879260000016,None,,,,,,,,,,,,,024,2022-05-19_10h31.42.260,Main,2022.1.1,60.92601448807755,
positive,negative,1,l,j,,,,,,,,,9,17,179,5,,,,,,,,,main,1,1,1,negative,positive,l,l,1,1.2313843999872915,494.99200319999363,496.00470019999193,495.9876152999932,None,494.99200319999363,None,494.99200319999363,None,494.99200319999363,None,497.2209042000177,None,497.2209042000177,None,497.2209042000177,None,,,,,,,,,,,,,024,2022-05-19_10h31.42.260,Main,2022.1.1,60.92601448807755,
neutral,positive,1,k,k,,,,,,,,,10,0,180,4,,,,,,,,,main,2,2,1,positive,neutral,k,k,1,1.0325527000240982,497.222919700027,498.2234844000195,498.2234844000195,None,497.222919700027,None,497.222919700027,None,497.222919700027,None,499.2545331999718,None,499.2545331999718,None,499.2545331999718,None,,,,,,,,,,,,,024,2022-05-19_10h31.42.260,Main,2022.1.1,60.92601448807755,
positive,negative,2,l,j,,,,,,,,,10,1,181,14,,,,,,,,,main,2,2,2,negative,positive,l,l,1,0.8141629000310786,499.2606660000165,500.2733995000017,500.2568115000031,None,499.2606660000165,None,499.2606660000165,None,499.2606660000165,None,501.0711658000073,None,501.0711658000073,None,501.0711658000073,None,,,,,,,,,,,,,024,2022-05-19_10h31.42.260,Main,2022.1.1,60.92601448807755,
neutral,neutral,2,k,k,,,,,,,,,10,2,182,10,,,,,,,,,main,2,2,2,neutral,neutral,k,k,1,0.6649377000285313,501.0768757999758,502.0900708999834,502.0734491000185,None,501.0768757999758,None,501.0768757999758,None,501.0768757999758,None,502.73779060001834,None,502.73779060001834,None,502.73779060001834,None,,,,,,,,,,,,,024,2022-05-19_10h31.42.260,Main,2022.1.1,60.92601448807755,
positive,positive,1,l,j,,,,,,,,,10,3,183,2,,,,,,,,,main,2,2,1,positive,positive,l,l,1,0.9991840000147931,502.743428900023,503.75669359997846,503.74009630002547,None,502.743428900023,None,502.743428900023,None,502.743428900023,None,504.73828040002263,None,504.73828040002263,None,504.73828040002263,None,,,,,,,,,,,,,024,2022-05-19_10h31.42.260,Main,2022.1.1,60.92601448807755,
negative,neutral,2,j,l,,,,,,,,,10,4,184,12,,,,,,,,,main,1,1,2,neutral,negative,j,j,1,0.7140069999732077,504.7443543000263,505.75407450000057,505.7265228999895,None,504.7443543000263,None,504.7443543000263,None,504.7443543000263,None,506.45405680002295,None,506.45405680002295,None,506.45405680002295,None,,,,,,,,,,,,,024,2022-05-19_10h31.42.260,Main,2022.1.1,60.92601448807755,
positive,negative,1,l,j,,,,,,,,,10,5,185,5,,,,,,,,,main,2,2,1,negative,positive,l,l,1,0.9151872000074945,506.4540658000042,507.4542697999859,507.4542697999859,None,506.4540658000042,None,506.4540658000042,None,506.4540658000042,None,508.3707163000072,None,508.3707163000072,None,508.3707163000072,None,,,,,,,,,,,,,024,2022-05-19_10h31.42.260,Main,2022.1.1,60.92601448807755,
positive,neutral,1,l,j,,,,,,,,,10,6,186,8,,,,,,,,,main,1,1,1,neutral,positive,l,l,1,0.8654719000332989,508.37475670001004,509.3900114999851,509.3733372000279,None,508.37475670001004,None,508.37475670001004,None,508.37475670001004,None,510.23764959999244,None,510.23764959999244,None,510.23764959999244,None,,,,,,,,,,,,,024,2022-05-19_10h31.42.260,Main,2022.1.1,60.92601448807755,
positive,neutral,2,l,j,,,,,,,,,10,7,187,17,,,,,,,,,main,2,2,2,neutral,positive,l,l,1,0.7485264000133611,510.2434742000187,511.2564844000153,511.2398765999824,None,510.2434742000187,None,510.2434742000187,None,510.2434742000187,None,511.98761390001164,None,511.98761390001164,None,511.98761390001164,None,,,,,,,,,,,,,024,2022-05-19_10h31.42.260,Main,2022.1.1,60.92601448807755,
negative,neutral,1,j,l,,,,,,,,,10,8,188,3,,,,,,,,,main,1,1,1,neutral,negative,j,j,1,0.914709499978926,511.9915562000242,513.0065117999911,512.9899375999812,None,511.9915562000242,None,511.9915562000242,None,511.9915562000242,None,513.9042363000044,None,513.9042363000044,None,513.9042363000044,None,,,,,,,,,,,,,024,2022-05-19_10h31.42.260,Main,2022.1.1,60.92601448807755,
neutral,negative,1,k,k,,,,,,,,,10,9,189,7,,,,,,,,,main,1,1,1,negative,neutral,k,k,1,0.7985886000096798,513.907527000003,514.9231176999747,514.9065342000104,None,513.907527000003,None,513.907527000003,None,513.907527000003,None,515.7041457000014,None,515.7041457000014,None,515.7041457000014,None,,,,,,,,,,,,,024,2022-05-19_10h31.42.260,Main,2022.1.1,60.92601448807755,
negative,positive,1,j,l,,,,,,,,,10,10,190,6,,,,,,,,,main,2,2,1,positive,negative,j,j,1,0.9812470999895595,515.7106628000038,516.7205570000224,516.7040772999753,None,515.7106628000038,None,515.7106628000038,None,515.7106628000038,None,517.6871388000145,None,517.6871388000145,None,517.6871388000145,None,,,,,,,,,,,,,024,2022-05-19_10h31.42.260,Main,2022.1.1,60.92601448807755,
negative,negative,1,j,l,,,,,,,,,10,11,191,0,,,,,,,,,main,1,1,1,negative,negative,j,j,1,0.7175981000182219,517.6871375999763,518.689745199983,518.689745199983,None,517.6871375999763,None,517.6871375999763,None,517.6871375999763,None,519.4063770000066,None,519.4063770000066,None,519.4063770000066,None,,,,,,,,,,,,,024,2022-05-19_10h31.42.260,Main,2022.1.1,60.92601448807755,
neutral,positive,2,k,k,,,,,,,,,10,12,192,13,,,,,,,,,main,2,2,2,positive,neutral,k,k,1,0.7463256000191905,519.4094423999777,520.4230416999781,520.4064496000065,None,519.4094423999777,None,519.4094423999777,None,519.4094423999777,None,521.1540844000119,None,521.1540844000119,None,521.1540844000119,None,,,,,,,,,,,,,024,2022-05-19_10h31.42.260,Main,2022.1.1,60.92601448807755,
positive,positive,2,l,j,,,,,,,,,10,13,193,11,,,,,,,,,main,2,2,2,positive,positive,l,l,1,0.8485355000011623,521.1598229000228,522.1729843000066,522.1563874999993,None,521.1598229000228,None,521.1598229000228,None,521.1598229000228,None,523.004043599969,None,523.004043599969,None,523.004043599969,None,,,,,,,,,,,,,024,2022-05-19_10h31.42.260,Main,2022.1.1,60.92601448807755,
neutral,negative,2,k,k,,,,,,,,,10,14,194,16,,,,,,,,,main,1,1,2,negative,neutral,k,k,1,0.700293000030797,523.010145600012,524.0228786999942,524.0063448000001,None,523.010145600012,None,523.010145600012,None,523.010145600012,None,524.7062142999785,None,524.7062142999785,None,524.7062142999785,None,,,,,,,,,,,,,024,2022-05-19_10h31.42.260,Main,2022.1.1,60.92601448807755,
negative,negative,2,j,l,,,,,,,,,10,15,195,9,,,,,,,,,main,1,1,2,negative,negative,j,j,1,0.7987961000180803,524.708550099982,525.722895200015,525.7062341999845,None,524.708550099982,None,524.708550099982,None,524.708550099982,None,526.5063054000202,None,526.5063054000202,None,526.5063054000202,None,,,,,,,,,,,,,024,2022-05-19_10h31.42.260,Main,2022.1.1,60.92601448807755,
neutral,neutral,1,k,k,,,,,,,,,10,16,196,1,,,,,,,,,main,2,2,1,neutral,neutral,k,k,1,0.7134788999683224,526.5101967999944,527.5202692999737,527.5036038000253,None,526.5101967999944,None,526.5101967999944,None,526.5101967999944,None,528.2202479000262,None,528.2202479000262,None,528.2202479000262,None,,,,,,,,,,,,,024,2022-05-19_10h31.42.260,Main,2022.1.1,60.92601448807755,
negative,positive,2,j,l,,,,,,,,,10,17,197,15,,,,,,,,,main,2,2,2,positive,negative,j,j,1,0.8830535000306554,528.2214169999934,529.2369429999962,529.2203190000146,None,528.2214169999934,None,528.2214169999934,None,528.2214169999934,None,530.1061829999962,None,530.1061829999962,None,530.1061829999962,None,,,,,,,,,,,,,024,2022-05-19_10h31.42.260,Main,2022.1.1,60.92601448807755,
neutral,neutral,2,k,k,,,,,,,,,11,0,198,10,,,,,,,,,main,2,2,2,neutral,neutral,k,k,1,0.6984557000105269,530.1091489000246,531.1227533000056,531.1061562999967,None,530.1091489000246,None,530.1091489000246,None,530.1091489000246,None,531.8062155000225,None,531.8062155000225,None,531.8062155000225,None,,,,,,,,,,,,,024,2022-05-19_10h31.42.260,Main,2022.1.1,60.92601448807755,
positive,positive,2,l,j,,,,,,,,,11,1,199,11,,,,,,,,,main,1,1,2,positive,positive,l,l,1,0.7628893000073731,531.8101026000222,532.822748799983,532.806187500013,None,531.8101026000222,None,531.8101026000222,None,531.8101026000222,None,533.5704976999841,None,533.5704976999841,None,533.5704976999841,None,,,,,,,,,,,,,024,2022-05-19_10h31.42.260,Main,2022.1.1,60.92601448807755,
negative,negative,1,j,l,,,,,,,,,11,2,200,0,,,,,,,,,main,1,1,1,negative,negative,j,j,1,0.7982779999729246,533.5765326999826,534.5894468000042,534.5727691000211,None,533.5765326999826,None,533.5765326999826,None,533.5765326999826,None,535.3704517999722,None,535.3704517999722,None,535.3704517999722,None,,,,,,,,,,,,,024,2022-05-19_10h31.42.260,Main,2022.1.1,60.92601448807755,
positive,negative,1,l,j,,,,,,,,,11,3,201,5,,,,,,,,,main,2,2,1,negative,positive,l,l,1,0.881374400050845,535.3746041000122,536.3892750000232,536.3727344999788,None,535.3746041000122,None,535.3746041000122,None,535.3746041000122,None,537.253379599977,None,537.253379599977,None,537.253379599977,None,,,,,,,,,,,,,024,2022-05-19_10h31.42.260,Main,2022.1.1,60.92601448807755,
positive,neutral,2,l,j,,,,,,,,,11,4,202,17,,,,,,,,,main,2,2,2,neutral,positive,l,l,1,0.7863300999742933,537.2533948000055,538.253375899978,538.253375899978,None,537.2533948000055,None,537.2533948000055,None,537.2533948000055,None,539.0368404999899,None,539.0368404999899,None,539.0368404999899,None,,,,,,,,,,,,,024,2022-05-19_10h31.42.260,Main,2022.1.1,60.92601448807755,
negative,negative,2,j,l,,,,,,,,,11,5,203,9,,,,,,,,,main,1,1,2,negative,negative,j,j,1,0.8288634000346065,539.0446630999795,540.0559158999822,540.0393069999991,None,539.0446630999795,None,539.0446630999795,None,539.0446630999795,None,540.8725869999907,None,540.8725869999907,None,540.8725869999907,None,,,,,,,,,,,,,024,2022-05-19_10h31.42.260,Main,2022.1.1,60.92601448807755,
neutral,positive,1,k,k,,,,,,,,,11,6,204,4,,,,,,,,,main,1,1,1,positive,neutral,k,k,1,0.7628403999842703,540.8755199000007,541.8892176999943,541.8725985999918,None,540.8755199000007,None,540.8755199000007,None,540.8755199000007,None,542.6369845000154,None,542.6369845000154,None,542.6369845000154,None,,,,,,,,,,,,,024,2022-05-19_10h31.42.260,Main,2022.1.1,60.92601448807755,
negative,positive,1,j,l,,,,,,,,,11,7,205,6,,,,,,,,,main,1,1,1,positive,negative,j,j,1,0.8820647000102326,542.6424748999998,543.656167100009,543.6394015999977,None,542.6424748999998,None,542.6424748999998,None,542.6424748999998,None,544.5206251999771,None,544.5206251999771,None,544.5206251999771,None,,,,,,,,,,,,,024,2022-05-19_10h31.42.260,Main,2022.1.1,60.92601448807755,
neutral,negative,1,k,k,,,,,,,,,11,8,206,7,,,,,,,,,main,1,1,1,negative,neutral,k,k,1,0.7316178000182845,544.526953499997,545.53735280002,545.5205363999703,None,544.526953499997,None,544.526953499997,None,544.526953499997,None,546.2535325999779,None,546.2535325999779,None,546.2535325999779,None,,,,,,,,,,,,,024,2022-05-19_10h31.42.260,Main,2022.1.1,60.92601448807755,
negative,positive,2,j,l,,,,,,,,,11,9,207,15,,,,,,,,,main,1,1,2,positive,negative,j,j,1,0.847935099969618,546.2577612000168,547.2668253000011,547.2668253000011,None,546.2577612000168,None,546.2577612000168,None,546.2577612000168,None,548.1031730000104,None,548.1031730000104,None,548.1031730000104,None,,,,,,,,,,,,,024,2022-05-19_10h31.42.260,Main,2022.1.1,60.92601448807755,
negative,neutral,2,j,l,,,,,,,,,11,10,208,12,,,,,,,,,main,2,2,2,neutral,negative,j,j,1,0.7983484999858774,548.1031774000148,549.1031486999709,549.1031486999709,None,548.1031774000148,None,548.1031774000148,None,548.1031774000148,None,549.9031622999755,None,549.9031622999755,None,549.9031622999755,None,,,,,,,,,,,,,024,2022-05-19_10h31.42.260,Main,2022.1.1,60.92601448807755,
neutral,positive,2,k,k,,,,,,,,,11,11,209,13,,,,,,,,,main,2,2,2,positive,neutral,k,k,1,0.6822037000092678,549.9036468000268,550.9057984999963,550.9057984999963,None,549.9036468000268,None,549.9036468000268,None,549.9036468000268,None,551.5868295000109,None,551.5868295000109,None,551.5868295000109,None,,,,,,,,,,,,,024,2022-05-19_10h31.42.260,Main,2022.1.1,60.92601448807755,
positive,negative,2,l,j,,,,,,,,,11,12,210,14,,,,,,,,,main,1,1,2,negative,positive,l,l,1,0.6817705999710597,551.5905667999759,552.6056658999878,552.5890535999788,None,551.5905667999759,None,551.5905667999759,None,551.5905667999759,None,553.2700813000265,None,553.2700813000265,None,553.2700813000265,None,,,,,,,,,,,,,024,2022-05-19_10h31.42.260,Main,2022.1.1,60.92601448807755,
positive,neutral,1,l,j,,,,,,,,,11,13,211,8,,,,,,,,,main,2,2,1,neutral,positive,l,l,1,0.9485660000354983,553.2759582999861,554.2889475999982,554.272358599992,None,553.2759582999861,None,553.2759582999861,None,553.2759582999861,None,555.2200605999969,None,555.2200605999969,None,555.2200605999969,None,,,,,,,,,,,,,024,2022-05-19_10h31.42.260,Main,2022.1.1,60.92601448807755,
positive,positive,1,l,j,,,,,,,,,11,14,212,2,,,,,,,,,main,1,1,1,positive,positive,l,l,1,2.0311992000206374,555.2261371000204,556.2389536999981,556.222365499998,None,555.2261371000204,None,555.2261371000204,None,555.2261371000204,None,558.2532966000144,None,558.2532966000144,None,558.2532966000144,None,,,,,,,,,,,,,024,2022-05-19_10h31.42.260,Main,2022.1.1,60.92601448807755,
neutral,neutral,1,k,k,,,,,,,,,11,15,213,1,,,,,,,,,main,2,2,1,neutral,neutral,k,k,1,0.8692607000120915,559.2544830000261,560.2695730000269,560.252907600021,None,559.2544830000261,None,559.2544830000261,None,559.2544830000261,None,561.1196445999958,None,561.1196445999958,None,561.1196445999958,None,,,,,,,,,,,,,024,2022-05-19_10h31.42.260,Main,2022.1.1,60.92601448807755,
negative,neutral,1,j,l,,,,,,,,,11,16,214,3,,,,,,,,,main,1,1,1,neutral,negative,j,j,1,0.948483899992425,561.1230314999702,562.1390443000128,562.1224412000156,None,561.1230314999702,None,561.1230314999702,None,561.1230314999702,None,563.0698864999868,None,563.0698864999868,None,563.0698864999868,None,,,,,,,,,,,,,024,2022-05-19_10h31.42.260,Main,2022.1.1,60.92601448807755,
neutral,negative,2,k,k,,,,,,,,,11,17,215,16,,,,,,,,,main,2,2,2,negative,neutral,k,k,1,0.7317469000117853,563.0733373999828,564.0887700999738,564.0722010000027,None,563.0733373999828,None,563.0733373999828,None,563.0733373999828,None,564.8031980999804,None,564.8031980999804,None,564.8031980999804,None,,,,,,,,,,,,,024,2022-05-19_10h31.42.260,Main,2022.1.1,60.92601448807755,
negative,positive,2,j,l,,,,,,,,,12,0,216,15,,,,,,,,,main,1,1,2,positive,negative,j,j,1,0.8244390999898314,564.8066615000134,565.8221353000263,565.8057677000179,None,564.8066615000134,None,564.8066615000134,None,564.8066615000134,None,566.6261752000137,None,566.6261752000137,None,566.6261752000137,None,,,,,,,,,,,,,024,2022-05-19_10h31.42.260,Main,2022.1.1,60.92601448807755,
negative,neutral,2,j,l,,,,,,,,,12,1,217,12,,,,,,,,,main,2,2,2,neutral,negative,j,j,1,0.8048099000006914,566.6388659999939,567.6388121999917,567.6388121999917,None,566.6388659999939,None,566.6388659999939,None,566.6388659999939,None,568.4360834000108,None,568.4360834000108,None,568.4360834000108,None,,,,,,,,,,,,,024,2022-05-19_10h31.42.260,Main,2022.1.1,60.92601448807755,
positive,neutral,2,l,j,,,,,,,,,12,2,218,17,,,,,,,,,main,1,1,2,neutral,positive,l,l,1,0.7983988000196405,568.4360990999849,569.43630880001,569.43630880001,None,568.4360990999849,None,568.4360990999849,None,568.4360990999849,None,570.2361228000082,None,570.2361228000082,None,570.2361228000082,None,,,,,,,,,,,,,024,2022-05-19_10h31.42.260,Main,2022.1.1,60.92601448807755,
neutral,positive,1,k,k,,,,,,,,,12,3,219,4,,,,,,,,,main,1,1,1,positive,neutral,k,k,1,0.8154946000431664,570.239608599979,571.2386080999859,571.2386080999859,None,570.239608599979,None,570.239608599979,None,570.239608599979,None,572.0530484000046,None,572.0530484000046,None,572.0530484000046,None,,,,,,,,,,,,,024,2022-05-19_10h31.42.260,Main,2022.1.1,60.92601448807755,
negative,neutral,1,j,l,,,,,,,,,12,4,220,3,,,,,,,,,main,1,1,1,neutral,negative,j,j,1,0.7649280999903567,572.0589198999805,573.0718659000122,573.0552866000216,None,572.0589198999805,None,572.0589198999805,None,572.0589198999805,None,573.8196749000053,None,573.8196749000053,None,573.8196749000053,None,,,,,,,,,,,,,024,2022-05-19_10h31.42.260,Main,2022.1.1,60.92601448807755,
negative,negative,1,j,l,,,,,,,,,12,5,221,0,,,,,,,,,main,2,2,1,negative,negative,j,j,1,0.7649034999776632,573.8232850999921,574.8385363999987,574.8194705999922,None,573.8232850999921,None,573.8232850999921,None,573.8232850999921,None,575.5862703000021,None,575.5862703000021,None,575.5862703000021,None,,,,,,,,,,,,,024,2022-05-19_10h31.42.260,Main,2022.1.1,60.92601448807755,
positive,neutral,1,l,j,,,,,,,,,12,6,222,8,,,,,,,,,main,2,2,1,neutral,positive,l,l,1,0.7485210000304505,575.5918254000135,576.6051755999797,576.5885135999997,None,575.5918254000135,None,575.5918254000135,None,575.5918254000135,None,577.3362350000243,None,577.3362350000243,None,577.3362350000243,None,,,,,,,,,,,,,024,2022-05-19_10h31.42.260,Main,2022.1.1,60.92601448807755,
neutral,positive,2,k,k,,,,,,,,,12,7,223,13,,,,,,,,,main,1,1,2,positive,neutral,k,k,1,0.6649316999828443,577.342223900021,578.3525554999942,578.3358829999925,None,577.342223900021,None,577.342223900021,None,577.342223900021,None,579.0025195000053,None,579.0025195000053,None,579.0025195000053,None,,,,,,,,,,,,,024,2022-05-19_10h31.42.260,Main,2022.1.1,60.92601448807755,
negative,negative,2,j,l,,,,,,,,,12,8,224,9,,,,,,,,,main,2,2,2,negative,negative,j,l,0,0.6981681000324897,579.0025355999824,580.0025102000218,580.0025102000218,None,579.0025355999824,None,579.0025355999824,None,579.0025355999824,None,580.7025600000052,None,580.7025600000052,None,580.7025600000052,None,,,,,,,,,,,,,024,2022-05-19_10h31.42.260,Main,2022.1.1,60.92601448807755,
