target,distractor,set,ans1,ans2,rep_loop2.thisRepN,rep_loop2.thisTrialN,rep_loop2.thisN,rep_loop2.thisIndex,flanker_prac_loop.thisRepN,flanker_prac_loop.thisTrialN,flanker_prac_loop.thisN,flanker_prac_loop.thisIndex,flanker_main_loop.thisRepN,flanker_main_loop.thisTrialN,flanker_main_loop.thisN,flanker_main_loop.thisIndex,fl_inst_resp.keys,fl_inst_resp.rt,sound_1.started,sound_1.stopped,image_4.started,image_4.stopped,back_2.started,back_2.stopped,main_prac,fl_cold,fl_colt,fl_set,fl_dcond,fl_tcond,fl_ans,fl_res,fl_corr,fl_rt,fix_fl.started,fix_fl.stopped,targ.started,targ.stopped,j_button.started,j_button.stopped,k_button.started,k_button.stopped,l_button.started,l_button.stopped,j_button2.started,j_button2.stopped,k_button2.started,k_button2.stopped,l_button2.started,l_button2.stopped,mainback.started,mainback.stopped,key_resp.keys,mouse_6.x,mouse_6.y,mouse_6.leftButton,mouse_6.midButton,mouse_6.rightButton,mouse_6.started,mouse_6.stopped,text_2.started,text_2.stopped,id*,date,expName,psychopyVersion,frameRate,
,,,,,0,0,0,0,,,,,,,,,space,61.609093000006396,16.953202479996254,None,78.58283989998745,None,,,,,,,,,,,,,,,,,,,,,,,,,,,,,,,,,,,,,,,,,025,2022-05-19_13h37.33.514,Main,2022.1.1,61.45235262462017,
neutral,negative,1,k,k,,,,,0,0,0,7,,,,,,,,,,,81.93525749997934,None,prac,1,1,1,negative,neutral,k,k,1,1.5950030999956653,83.9411914999946,84.95177619997412,84.93520680000074,None,83.9411914999946,None,83.9411914999946,None,83.9411914999946,None,86.54546489997301,None,86.54546489997301,None,86.54546489997301,None,,,,,,,,,,,,,025,2022-05-19_13h37.33.514,Main,2022.1.1,61.45235262462017,
positive,neutral,2,l,j,,,,,0,1,1,17,,,,,,,,,,,,,prac,2,2,2,neutral,positive,j,j,1,1.253122100024484,87.5491258999682,88.54915899998741,88.53248699998949,None,87.5491258999682,None,87.5491258999682,None,87.5491258999682,None,89.7994332799688,None,89.7994332799688,None,89.7994332799688,None,,,,,,,,,,,,,025,2022-05-19_13h37.33.514,Main,2022.1.1,61.45235262462017,
negative,positive,1,j,l,,,,,0,2,2,6,,,,,,,,,,,,,prac,1,1,1,positive,negative,l,l,1,0.9636234000208788,89.81080330000259,90.81829049997032,90.80166779999854,None,89.81080330000259,None,89.81080330000259,None,89.81080330000259,None,91.76604817995103,None,91.76604817995103,None,91.76604817995103,None,,,,,,,,,,,,,025,2022-05-19_13h37.33.514,Main,2022.1.1,61.45235262462017,
positive,positive,1,l,j,,,,,0,3,3,2,,,,,,,,,,,,,prac,2,2,1,positive,positive,j,j,1,1.1489813000080176,91.77223849995062,92.7849357999512,92.7683591999812,None,91.77223849995062,None,91.77223849995062,None,91.77223849995062,None,93.91601647996576,None,93.91601647996576,None,93.91601647996576,None,,,,,,,,,,,,,025,2022-05-19_13h37.33.514,Main,2022.1.1,61.45235262462017,
neutral,neutral,2,k,k,,,,,0,4,4,10,,,,,,,,,,,,,prac,2,2,2,neutral,neutral,k,k,1,0.8652860000147484,93.91958349995548,94.93291419994785,94.91627859999426,None,93.91958349995548,None,93.91958349995548,None,93.91958349995548,None,95.78260627995478,None,95.78260627995478,None,95.78260627995478,None,,,,,,,,,,,,,025,2022-05-19_13h37.33.514,Main,2022.1.1,61.45235262462017,
negative,negative,1,j,l,,,,,0,5,5,0,,,,,,,,,,,,,prac,2,2,1,negative,negative,l,l,1,1.0313764999737032,95.78643290000036,96.79353879997507,96.7714620999759,None,95.78643290000036,None,95.78643290000036,None,95.78643290000036,None,97.81555387995904,None,97.81555387995904,None,97.81555387995904,None,,,,,,,,,,,,,025,2022-05-19_13h37.33.514,Main,2022.1.1,61.45235262462017,
neutral,positive,1,k,k,,,,,0,6,6,4,,,,,,,,,,,,,prac,1,1,1,positive,neutral,k,j,0,0.8485193999949843,97.81557979999343,98.81563519994961,98.81563519994961,None,97.81557979999343,None,97.81557979999343,None,97.81557979999343,None,99.66804899997078,None,99.66804899997078,None,99.66804899997078,None,,,,,,,,,,,,,025,2022-05-19_13h37.33.514,Main,2022.1.1,61.45235262462017,
positive,negative,1,l,j,,,,,0,7,7,5,,,,,,,,,,,,,prac,2,2,1,negative,positive,j,j,1,1.017799900029786,100.66681659995811,101.6679839999997,101.65145349997329,None,100.66681659995811,None,100.66681659995811,None,100.66681659995811,None,102.68227177999215,None,102.68227177999215,None,102.68227177999215,None,,,,,,,,,,,,,025,2022-05-19_13h37.33.514,Main,2022.1.1,61.45235262462017,
negative,positive,2,j,l,,,,,0,8,8,15,,,,,,,,,,,,,prac,2,2,2,positive,negative,l,l,1,0.8652812999789603,102.68862799997441,103.70136729994556,103.68246589996852,None,102.68862799997441,None,102.68862799997441,None,102.68862799997441,None,104.5491085799993,None,104.5491085799993,None,104.5491085799993,None,,,,,,,,,,,,,025,2022-05-19_13h37.33.514,Main,2022.1.1,61.45235262462017,
positive,neutral,1,l,j,,,,,0,9,9,8,,,,,,,,,,,,,prac,2,2,1,neutral,positive,j,j,1,0.8986163000226952,104.55216959997779,105.55136269994546,105.53477049997309,None,104.55216959997779,None,104.55216959997779,None,104.55216959997779,None,106.44905218000058,None,106.44905218000058,None,106.44905218000058,None,,,,,,,,,,,,,025,2022-05-19_13h37.33.514,Main,2022.1.1,61.45235262462017,
negative,negative,2,j,l,,,,,0,10,10,9,,,,,,,,,,,,,prac,2,2,2,negative,negative,l,l,1,0.9158017999725416,106.45230359997367,107.46539549995214,107.44872939999914,None,106.45230359997367,None,106.45230359997367,None,106.45230359997367,None,108.3653582799714,None,108.3653582799714,None,108.3653582799714,None,,,,,,,,,,,,,025,2022-05-19_13h37.33.514,Main,2022.1.1,61.45235262462017,
neutral,negative,2,k,k,,,,,0,11,11,16,,,,,,,,,,,,,prac,1,1,2,negative,neutral,k,k,1,0.7672607999993488,108.36592689994723,109.36571729998104,109.36571729998104,None,108.36592689994723,None,108.36592689994723,None,108.36592689994723,None,110.13462887996575,None,110.13462887996575,None,110.13462887996575,None,,,,,,,,,,,,,025,2022-05-19_13h37.33.514,Main,2022.1.1,61.45235262462017,
positive,positive,2,l,j,,,,,0,12,12,11,,,,,,,,,,,,,prac,2,2,2,positive,positive,j,j,1,0.8650740999728441,110.13773199997377,111.15120039996691,111.13458639994496,None,110.13773199997377,None,110.13773199997377,None,110.13773199997377,None,112.00121607999317,None,112.00121607999317,None,112.00121607999317,None,,,,,,,,,,,,,025,2022-05-19_13h37.33.514,Main,2022.1.1,61.45235262462017,
neutral,neutral,1,k,k,,,,,0,13,13,1,,,,,,,,,,,,,prac,2,2,1,neutral,neutral,k,k,1,1.296350699965842,112.00388819997897,113.01783259998774,113.00122129998636,None,112.00388819997897,None,112.00388819997897,None,112.00388819997897,None,114.2989010799909,None,114.2989010799909,None,114.2989010799909,None,,,,,,,,,,,,,025,2022-05-19_13h37.33.514,Main,2022.1.1,61.45235262462017,
positive,negative,2,l,j,,,,,0,14,14,14,,,,,,,,,,,,,prac,1,1,2,negative,positive,j,j,1,0.8495369000011124,114.30337489995873,115.31774989998667,115.30121159995906,None,114.30337489995873,None,114.30337489995873,None,114.30337489995873,None,116.15109617997659,None,116.15109617997659,None,116.15109617997659,None,,,,,,,,,,,,,025,2022-05-19_13h37.33.514,Main,2022.1.1,61.45235262462017,
neutral,positive,2,k,k,,,,,0,15,15,13,,,,,,,,,,,,,prac,2,2,2,positive,neutral,k,k,1,0.7627379999612458,116.15407679998316,117.16770699998597,117.15116769995075,None,116.15407679998316,None,116.15407679998316,None,116.15407679998316,None,117.91514947999967,None,117.91514947999967,None,117.91514947999967,None,,,,,,,,,,,,,025,2022-05-19_13h37.33.514,Main,2022.1.1,61.45235262462017,
negative,neutral,2,j,l,,,,,0,16,16,12,,,,,,,,,,,,,prac,1,1,2,neutral,negative,l,l,1,1.2153505999594927,117.91513609996764,118.91513759997906,118.91513759997906,None,117.91513609996764,None,117.91513609996764,None,117.91513609996764,None,120.13179788000416,None,120.13179788000416,None,120.13179788000416,None,,,,,,,,,,,,,025,2022-05-19_13h37.33.514,Main,2022.1.1,61.45235262462017,
negative,neutral,1,j,l,,,,,0,17,17,3,,,,,,,,,,,,,prac,2,2,1,neutral,negative,l,l,1,1.1990088999737054,120.13205009995727,121.13181369996164,121.13181369996164,None,120.13205009995727,None,120.13205009995727,None,120.13205009995727,None,122.33212017996702,None,122.33212017996702,None,122.33212017996702,None,,,,,,,,,,,,,025,2022-05-19_13h37.33.514,Main,2022.1.1,61.45235262462017,
negative,positive,2,j,l,,,,,1,0,18,15,,,,,,,,,,,,,prac,2,2,2,positive,negative,l,l,1,0.7986662000184879,122.3357431999757,123.35097599995788,123.3324539999594,None,122.3357431999757,None,122.3357431999757,None,122.3357431999757,None,124.13206827996764,None,124.13206827996764,None,124.13206827996764,None,,,,,,,,,,,,,025,2022-05-19_13h37.33.514,Main,2022.1.1,61.45235262462017,
positive,positive,2,l,j,,,,,1,1,19,11,,,,,,,,,,,,,prac,2,2,2,positive,positive,j,j,1,0.9674562999862246,124.13565369998105,125.14898129994981,125.13460579997627,None,124.13565369998105,None,124.13565369998105,None,124.13565369998105,None,126.10089958000462,None,126.10089958000462,None,126.10089958000462,None,,,,,,,,,,,,,025,2022-05-19_13h37.33.514,Main,2022.1.1,61.45235262462017,
positive,neutral,1,l,j,,,,,1,2,20,8,,,,,,,,,,,,,prac,2,2,1,neutral,positive,j,j,1,0.8798502999707125,126.1038711000001,127.1175121999695,127.10092709999299,None,126.1038711000001,None,126.1038711000001,None,126.1038711000001,None,127.98197547999443,None,127.98197547999443,None,127.98197547999443,None,,,,,,,,,,,,,025,2022-05-19_13h37.33.514,Main,2022.1.1,61.45235262462017,
neutral,negative,1,k,k,,,,,1,3,21,7,,,,,,,,,,,,,prac,1,1,1,negative,neutral,k,k,1,0.6480577000183985,127.98546659998829,129.00093290000223,128.9675683999667,None,127.98546659998829,None,127.98546659998829,None,127.98546659998829,None,129.63157687995118,None,129.63157687995118,None,129.63157687995118,None,,,,,,,,,,,,,025,2022-05-19_13h37.33.514,Main,2022.1.1,61.45235262462017,
neutral,neutral,2,k,k,,,,,1,4,22,10,,,,,,,,,,,,,prac,1,1,2,neutral,neutral,k,k,1,0.8155889000045136,129.63160279998556,130.63156529999105,130.63156529999105,None,129.63160279998556,None,129.63160279998556,None,129.63160279998556,None,131.4484650799539,None,131.4484650799539,None,131.4484650799539,None,,,,,,,,,,,,,025,2022-05-19_13h37.33.514,Main,2022.1.1,61.45235262462017,
positive,positive,1,l,j,,,,,1,5,23,2,,,,,,,,,,,,,prac,1,1,1,positive,positive,j,j,1,0.8814933999674395,131.4489128999994,132.448242799961,132.448242799961,None,131.4489128999994,None,131.4489128999994,None,131.4489128999994,None,133.33154737997103,None,133.33154737997103,None,133.33154737997103,None,,,,,,,,,,,,,025,2022-05-19_13h37.33.514,Main,2022.1.1,61.45235262462017,
neutral,positive,2,k,k,,,,,1,6,24,13,,,,,,,,,,,,,prac,2,2,2,positive,neutral,k,k,1,0.832429800007958,133.33402129996102,134.3341103999992,134.3175143999979,None,133.33402129996102,None,133.33402129996102,None,133.33402129996102,None,135.1648746800027,None,135.1648746800027,None,135.1648746800027,None,,,,,,,,,,,,,025,2022-05-19_13h37.33.514,Main,2022.1.1,61.45235262462017,
positive,negative,2,l,j,,,,,1,7,25,14,,,,,,,,,,,,,prac,2,2,2,negative,positive,j,j,1,0.8653530000010505,135.1710736999521,136.18441170000006,136.15078469994478,None,135.1710736999521,None,135.1710736999521,None,135.1710736999521,None,137.03178617999657,None,137.03178617999657,None,137.03178617999657,None,,,,,,,,,,,,,025,2022-05-19_13h37.33.514,Main,2022.1.1,61.45235262462017,
negative,neutral,2,j,l,,,,,1,8,26,12,,,,,,,,,,,,,prac,1,1,2,neutral,negative,l,l,1,0.9154303999966942,137.03466889995616,138.0339805999538,138.0174044999876,None,137.03466889995616,None,137.03466889995616,None,137.03466889995616,None,138.948388779955,None,138.948388779955,None,138.948388779955,None,,,,,,,,,,,,,025,2022-05-19_13h37.33.514,Main,2022.1.1,61.45235262462017,
neutral,neutral,1,k,k,,,,,1,9,27,1,,,,,,,,,,,,,prac,1,1,1,neutral,neutral,k,k,1,0.781847000005655,138.9514610999613,139.95065849996172,139.93397729995195,None,138.9514610999613,None,138.9514610999613,None,138.9514610999613,None,140.7316720799543,None,140.7316720799543,None,140.7316720799543,None,,,,,,,,,,,,,025,2022-05-19_13h37.33.514,Main,2022.1.1,61.45235262462017,
negative,neutral,1,j,l,,,,,1,10,28,3,,,,,,,,,,,,,prac,1,1,1,neutral,negative,l,l,1,0.8485720000462607,140.7345154999639,141.7479728999897,141.73130499996478,None,140.7345154999639,None,140.7345154999639,None,140.7345154999639,None,142.58127437998775,None,142.58127437998775,None,142.58127437998775,None,,,,,,,,,,,,,025,2022-05-19_13h37.33.514,Main,2022.1.1,61.45235262462017,
positive,neutral,2,l,j,,,,,1,11,29,17,,,,,,,,,,,,,prac,1,1,2,neutral,positive,j,j,1,0.848500200023409,142.5812868999783,143.58164479996776,143.58164479996776,None,142.5812868999783,None,142.5812868999783,None,142.5812868999783,None,144.4312905799714,None,144.4312905799714,None,144.4312905799714,None,,,,,,,,,,,,,025,2022-05-19_13h37.33.514,Main,2022.1.1,61.45235262462017,
neutral,positive,1,k,k,,,,,1,12,30,4,,,,,,,,,,,,,prac,2,2,1,positive,neutral,k,k,1,0.7820056000491604,144.43134399998235,145.43179259996396,145.43179259996396,None,144.43134399998235,None,144.43134399998235,None,144.43134399998235,None,146.21463877999923,None,146.21463877999923,None,146.21463877999923,None,,,,,,,,,,,,,025,2022-05-19_13h37.33.514,Main,2022.1.1,61.45235262462017,
positive,negative,1,l,j,,,,,1,13,31,5,,,,,,,,,,,,,prac,2,2,1,negative,positive,j,j,1,0.8326682000188157,146.21889709995594,147.23410259996308,147.21725359995617,None,146.21889709995594,None,146.21889709995594,None,146.21889709995594,None,148.04864867998987,None,148.04864867998987,None,148.04864867998987,None,,,,,,,,,,,,,025,2022-05-19_13h37.33.514,Main,2022.1.1,61.45235262462017,
neutral,negative,2,k,k,,,,,1,14,32,16,,,,,,,,,,,,,prac,1,1,2,negative,neutral,k,k,1,0.8540059999795631,148.05348039994715,149.06711089995224,149.0505290000001,None,148.05348039994715,None,148.05348039994715,None,148.05348039994715,None,149.90040657996434,None,149.90040657996434,None,149.90040657996434,None,,,,,,,,,,,,,025,2022-05-19_13h37.33.514,Main,2022.1.1,61.45235262462017,
negative,positive,1,j,l,,,,,1,15,33,6,,,,,,,,,,,,,prac,2,2,1,positive,negative,l,l,1,1.258772700035479,149.90750629996182,150.91703779995441,150.90047669998603,None,149.90750629996182,None,149.90750629996182,None,149.90750629996182,None,152.164770879969,None,152.164770879969,None,152.164770879969,None,,,,,,,,,,,,,025,2022-05-19_13h37.33.514,Main,2022.1.1,61.45235262462017,
negative,negative,2,j,l,,,,,1,16,34,9,,,,,,,,,,,,,prac,2,2,2,negative,negative,l,l,1,0.7666023999918252,152.16858169995248,153.1836462999927,153.16708589997143,None,152.16858169995248,None,152.16858169995248,None,152.16858169995248,None,153.93141647999875,None,153.93141647999875,None,153.93141647999875,None,,,,,,,,,,,,,025,2022-05-19_13h37.33.514,Main,2022.1.1,61.45235262462017,
negative,negative,1,j,l,,,,,1,17,35,0,,,,,,,,,,,,,prac,2,2,1,negative,negative,l,l,1,1.330700299993623,153.9356267999974,154.94801039999584,154.93116179999197,None,153.9356267999974,None,153.9356267999974,None,153.9356267999974,None,156.2644009799813,None,156.2644009799813,None,156.2644009799813,None,,,,,,,,,,,,,025,2022-05-19_13h37.33.514,Main,2022.1.1,61.45235262462017,
,,,,,,,,,,,,,,,,,,,,,,,,,,,,,,,,,,,,,,,,,,,,,,,,,,,156.26440970000112,None,None,,,,,,,,,,025,2022-05-19_13h37.33.514,Main,2022.1.1,61.45235262462017,
,,,,,,,,,,,,,,,,,,,,,,,,,,,,,,,,,,,,,,,,,,,,,,,,,,,,,,0.05185185,-0.39537036,1,0,0,0.011020779958926141,None,,,025,2022-05-19_13h37.33.514,Main,2022.1.1,61.45235262462017,
negative,neutral,2,j,l,,,,,,,,,0,0,0,12,,,,,,,163.59791459998814,None,main,2,2,2,neutral,negative,l,l,1,1.1602707999991253,165.60691109998152,166.61420479998924,166.59753379999893,None,165.60691109998152,None,165.60691109998152,None,165.60691109998152,None,167.76667267999147,None,167.76667267999147,None,167.76667267999147,None,,,,,,,,,,,,,025,2022-05-19_13h37.33.514,Main,2022.1.1,61.45235262462017,
positive,positive,1,l,j,,,,,,,,,0,1,1,2,,,,,,,,,main,2,2,1,positive,positive,j,j,1,0.7953621999477036,167.77153420000104,168.78331269999035,168.7667366999667,None,167.77153420000104,None,167.77153420000104,None,167.77153420000104,None,169.56445297995816,None,169.56445297995816,None,169.56445297995816,None,,,,,,,,,,,,,025,2022-05-19_13h37.33.514,Main,2022.1.1,61.45235262462017,
negative,negative,1,j,l,,,,,,,,,0,2,2,0,,,,,,,,,main,2,2,1,negative,negative,l,l,1,0.764991799951531,169.56806489999872,170.58329709997633,170.5667021999834,None,169.56806489999872,None,169.56806489999872,None,169.56806489999872,None,171.33106327995193,None,171.33106327995193,None,171.33106327995193,None,,,,,,,,,,,,,025,2022-05-19_13h37.33.514,Main,2022.1.1,61.45235262462017,
neutral,positive,2,k,k,,,,,,,,,0,3,3,13,,,,,,,,,main,1,1,2,positive,neutral,k,k,1,0.650524900003802,171.3345263999654,172.34994149999693,172.3333196999738,None,171.3345263999654,None,171.3345263999654,None,171.3345263999654,None,172.98326037999942,None,172.98326037999942,None,172.98326037999942,None,,,,,,,,,,,,,025,2022-05-19_13h37.33.514,Main,2022.1.1,61.45235262462017,
negative,positive,2,j,l,,,,,,,,,0,4,4,15,,,,,,,,,main,2,2,2,positive,negative,l,l,1,0.8799053999828175,172.98638109996682,173.99997069995152,173.98331079998752,None,172.98638109996682,None,172.98638109996682,None,172.98638109996682,None,174.863948779949,None,174.863948779949,None,174.863948779949,None,,,,,,,,,,,,,025,2022-05-19_13h37.33.514,Main,2022.1.1,61.45235262462017,
neutral,neutral,1,k,k,,,,,,,,,0,5,5,1,,,,,,,,,main,1,1,1,neutral,neutral,k,k,1,0.7143860000069253,174.8643417999847,175.86394389998168,175.86394389998168,None,174.8643417999847,None,174.8643417999847,None,174.8643417999847,None,176.58064417996212,None,176.58064417996212,None,176.58064417996212,None,,,,,,,,,,,,,025,2022-05-19_13h37.33.514,Main,2022.1.1,61.45235262462017,
negative,positive,1,j,l,,,,,,,,,0,6,6,6,,,,,,,,,main,2,2,1,positive,negative,l,l,1,0.7980394000187516,176.58529029996134,177.5997948999866,177.58321689994773,None,176.58529029996134,None,176.58529029996134,None,176.58529029996134,None,178.38091858000263,None,178.38091858000263,None,178.38091858000263,None,,,,,,,,,,,,,025,2022-05-19_13h37.33.514,Main,2022.1.1,61.45235262462017,
positive,neutral,2,l,j,,,,,,,,,0,7,7,17,,,,,,,,,main,2,2,2,neutral,positive,j,j,1,0.7815174999996088,178.38476079999236,179.39978009997867,179.38324080000166,None,178.38476079999236,None,178.38476079999236,None,178.38476079999236,None,180.16421607999365,None,180.16421607999365,None,180.16421607999365,None,,,,,,,,,,,,,025,2022-05-19_13h37.33.514,Main,2022.1.1,61.45235262462017,
positive,negative,1,l,j,,,,,,,,,0,8,8,5,,,,,,,,,main,2,2,1,negative,positive,j,j,1,0.7319241000222974,180.16991840000264,181.18306839995785,181.16645859996788,None,180.16991840000264,None,180.16991840000264,None,180.16991840000264,None,181.89751577995486,None,181.89751577995486,None,181.89751577995486,None,,,,,,,,,,,,,025,2022-05-19_13h37.33.514,Main,2022.1.1,61.45235262462017,
neutral,negative,1,k,k,,,,,,,,,0,9,9,7,,,,,,,,,main,2,2,1,negative,neutral,k,k,1,0.865835500007961,181.90954339999007,182.91637689998606,182.89976429997478,None,181.90954339999007,None,181.90954339999007,None,181.90954339999007,None,183.76647617995042,None,183.76647617995042,None,183.76647617995042,None,,,,,,,,,,,,,025,2022-05-19_13h37.33.514,Main,2022.1.1,61.45235262462017,
neutral,neutral,2,k,k,,,,,,,,,0,10,10,10,,,,,,,,,main,1,1,2,neutral,neutral,k,k,1,0.6450974000035785,183.77031459996942,184.78044389997376,184.76376969995908,None,183.77031459996942,None,183.77031459996942,None,183.77031459996942,None,185.41373227997684,None,185.41373227997684,None,185.41373227997684,None,,,,,,,,,,,,,025,2022-05-19_13h37.33.514,Main,2022.1.1,61.45235262462017,
neutral,negative,2,k,k,,,,,,,,,0,11,11,16,,,,,,,,,main,2,2,2,negative,neutral,k,k,1,0.6485071000060998,185.41376460000174,186.41378989996156,186.41378989996156,None,185.41376460000174,None,185.41376460000174,None,185.41376460000174,None,187.0637612799881,None,187.0637612799881,None,187.0637612799881,None,,,,,,,,,,,,,025,2022-05-19_13h37.33.514,Main,2022.1.1,61.45235262462017,
positive,negative,2,l,j,,,,,,,,,0,12,12,14,,,,,,,,,main,1,1,2,negative,positive,j,j,1,0.8485912999603897,187.0668307999731,188.06628959998488,188.04966289998265,None,187.0668307999731,None,187.0668307999731,None,187.0668307999731,None,188.91403467995116,None,188.91403467995116,None,188.91403467995116,None,,,,,,,,,,,,,025,2022-05-19_13h37.33.514,Main,2022.1.1,61.45235262462017,
negative,neutral,1,j,l,,,,,,,,,0,13,13,3,,,,,,,,,main,1,1,1,neutral,negative,l,l,1,0.7153784999973141,188.91888630000176,189.93288649996975,189.89967839996098,None,188.91888630000176,None,188.91888630000176,None,188.91888630000176,None,190.63067398000277,None,190.63067398000277,None,190.63067398000277,None,,,,,,,,,,,,,025,2022-05-19_13h37.33.514,Main,2022.1.1,61.45235262462017,
neutral,positive,1,k,k,,,,,,,,,0,14,14,4,,,,,,,,,main,1,1,1,positive,neutral,k,k,1,0.7482664000126533,190.63369199994486,191.63289829995483,191.63289829995483,None,190.63369199994486,None,190.63369199994486,None,190.63369199994486,None,192.38060357999058,None,192.38060357999058,None,192.38060357999058,None,,,,,,,,,,,,,025,2022-05-19_13h37.33.514,Main,2022.1.1,61.45235262462017,
positive,positive,2,l,j,,,,,,,,,0,15,15,11,,,,,,,,,main,2,2,2,positive,positive,j,j,1,0.7482986000250094,192.38467159995344,193.39951699995436,193.38299059995916,None,192.38467159995344,None,192.38467159995344,None,192.38467159995344,None,194.13057127997746,None,194.13057127997746,None,194.13057127997746,None,,,,,,,,,,,,,025,2022-05-19_13h37.33.514,Main,2022.1.1,61.45235262462017,
positive,neutral,1,l,j,,,,,,,,,0,16,16,8,,,,,,,,,main,2,2,1,neutral,positive,j,j,1,0.8305240999907255,194.13684409996495,195.14689279999584,195.1302313999622,None,194.13684409996495,None,194.13684409996495,None,194.13684409996495,None,195.9635234800051,None,195.9635234800051,None,195.9635234800051,None,,,,,,,,,,,,,025,2022-05-19_13h37.33.514,Main,2022.1.1,61.45235262462017,
negative,negative,2,j,l,,,,,,,,,0,17,17,9,,,,,,,,,main,2,2,2,negative,negative,l,l,1,0.8011927999905311,195.96353789995192,196.9636082999641,196.9636082999641,None,195.96353789995192,None,195.96353789995192,None,195.96353789995192,None,197.76612477995224,None,197.76612477995224,None,197.76612477995224,None,,,,,,,,,,,,,025,2022-05-19_13h37.33.514,Main,2022.1.1,61.45235262462017,
neutral,neutral,2,k,k,,,,,,,,,1,0,18,10,,,,,,,,,main,1,1,2,neutral,neutral,k,k,1,0.7481990999658592,197.7690111999982,198.78271339996718,198.7661209999933,None,197.7690111999982,None,197.7690111999982,None,197.7690111999982,None,199.51599017997506,None,199.51599017997506,None,199.51599017997506,None,,,,,,,,,,,,,025,2022-05-19_13h37.33.514,Main,2022.1.1,61.45235262462017,
positive,neutral,1,l,j,,,,,,,,,1,1,19,8,,,,,,,,,main,1,1,1,neutral,positive,j,j,1,0.8293273999588564,199.51889929996105,200.53266769996844,200.5160593999899,None,199.51889929996105,None,199.51889929996105,None,199.51889929996105,None,201.34710117995274,None,201.34710117995274,None,201.34710117995274,None,,,,,,,,,,,,,025,2022-05-19_13h37.33.514,Main,2022.1.1,61.45235262462017,
negative,positive,2,j,l,,,,,,,,,1,2,20,15,,,,,,,,,main,2,2,2,positive,negative,l,l,1,0.8151196999824606,201.35115599998971,202.36596659995848,202.34936429996742,None,201.35115599998971,None,201.35115599998971,None,201.35115599998971,None,203.16372217995814,None,203.16372217995814,None,203.16372217995814,None,,,,,,,,,,,,,025,2022-05-19_13h37.33.514,Main,2022.1.1,61.45235262462017,
negative,negative,1,j,l,,,,,,,,,1,3,21,0,,,,,,,,,main,2,2,1,negative,negative,l,l,1,0.9975005000014789,203.1677482999512,204.18260010000085,204.16605939995497,None,203.1677482999512,None,203.1677482999512,None,203.1677482999512,None,205.16333117994947,None,205.16333117994947,None,205.16333117994947,None,,,,,,,,,,,,,025,2022-05-19_13h37.33.514,Main,2022.1.1,61.45235262462017,
negative,negative,2,j,l,,,,,,,,,1,4,22,9,,,,,,,,,main,1,1,2,negative,negative,l,l,1,0.731556799961254,205.16368089994648,206.163331299962,206.163331299962,None,205.16368089994648,None,205.16368089994648,None,205.16368089994648,None,206.89668247995434,None,206.89668247995434,None,206.89668247995434,None,,,,,,,,,,,,,025,2022-05-19_13h37.33.514,Main,2022.1.1,61.45235262462017,
negative,neutral,2,j,l,,,,,,,,,1,5,23,12,,,,,,,,,main,1,1,2,neutral,negative,l,l,1,0.7676299999584444,206.89996609999798,207.89925339998445,207.89925339998445,None,206.89996609999798,None,206.89996609999798,None,206.89996609999798,None,208.66582327994985,None,208.66582327994985,None,208.66582327994985,None,,,,,,,,,,,,,025,2022-05-19_13h37.33.514,Main,2022.1.1,61.45235262462017,
negative,positive,1,j,l,,,,,,,,,1,6,24,6,,,,,,,,,main,2,2,1,positive,negative,l,l,1,0.8988051999476738,208.66871889994945,209.68248219997622,209.66589179995935,None,208.66871889994945,None,208.66871889994945,None,208.66871889994945,None,210.56576937997016,None,210.56576937997016,None,210.56576937997016,None,,,,,,,,,,,,,025,2022-05-19_13h37.33.514,Main,2022.1.1,61.45235262462017,
neutral,positive,2,k,k,,,,,,,,,1,7,25,13,,,,,,,,,main,1,1,2,positive,neutral,k,k,1,0.6455911999801174,210.5691353000002,211.58245559997158,211.56584329996258,None,210.5691353000002,None,210.5691353000002,None,210.5691353000002,None,212.21325297998266,None,212.21325297998266,None,212.21325297998266,None,,,,,,,,,,,,,025,2022-05-19_13h37.33.514,Main,2022.1.1,61.45235262462017,
positive,neutral,2,l,j,,,,,,,,,1,8,26,17,,,,,,,,,main,1,1,2,neutral,positive,j,j,1,0.8655471000238322,212.21922149998136,213.23240059998352,213.21580889995676,None,212.21922149998136,None,212.21922149998136,None,212.21922149998136,None,214.08016927995487,None,214.08016927995487,None,214.08016927995487,None,,,,,,,,,,,,,025,2022-05-19_13h37.33.514,Main,2022.1.1,61.45235262462017,
neutral,negative,1,k,k,,,,,,,,,1,9,27,7,,,,,,,,,main,1,1,1,negative,neutral,k,k,1,0.7482247999869287,214.08380799996667,215.09647119999863,215.07989919994725,None,214.08380799996667,None,214.08380799996667,None,214.08380799996667,None,215.82976727997885,None,215.82976727997885,None,215.82976727997885,None,,,,,,,,,,,,,025,2022-05-19_13h37.33.514,Main,2022.1.1,61.45235262462017,
neutral,positive,1,k,k,,,,,,,,,1,10,28,4,,,,,,,,,main,2,2,1,positive,neutral,k,k,1,0.7153093999950215,215.82979989994783,216.8302413999918,216.8302413999918,None,215.82979989994783,None,215.82979989994783,None,215.82979989994783,None,217.5467950799619,None,217.5467950799619,None,217.5467950799619,None,,,,,,,,,,,,,025,2022-05-19_13h37.33.514,Main,2022.1.1,61.45235262462017,
positive,negative,2,l,j,,,,,,,,,1,11,29,14,,,,,,,,,main,1,1,2,negative,positive,j,j,1,0.7814309999812394,217.55037769995397,218.56612029997632,218.54908799997065,None,217.55037769995397,None,217.55037769995397,None,217.55037769995397,None,219.33008418000537,None,219.33008418000537,None,219.33008418000537,None,,,,,,,,,,,,,025,2022-05-19_13h37.33.514,Main,2022.1.1,61.45235262462017,
neutral,neutral,1,k,k,,,,,,,,,1,12,30,1,,,,,,,,,main,2,2,1,neutral,neutral,k,k,1,0.8156374000245705,219.336239199969,220.34893320000265,220.31564909999724,None,219.336239199969,None,219.336239199969,None,219.336239199969,None,221.14669467998903,None,221.14669467998903,None,221.14669467998903,None,,,,,,,,,,,,,025,2022-05-19_13h37.33.514,Main,2022.1.1,61.45235262462017,
positive,positive,1,l,j,,,,,,,,,1,13,31,2,,,,,,,,,main,2,2,1,positive,positive,j,j,1,0.8482315000146627,221.1506549999467,222.16556149994722,222.14899570000125,None,221.1506549999467,None,221.1506549999467,None,221.1506549999467,None,222.99666377996328,None,222.99666377996328,None,222.99666377996328,None,,,,,,,,,,,,,025,2022-05-19_13h37.33.514,Main,2022.1.1,61.45235262462017,
neutral,negative,2,k,k,,,,,,,,,1,14,32,16,,,,,,,,,main,2,2,2,negative,neutral,k,k,1,0.9477326000342146,223.00239049998345,224.01552139996784,223.99900059995707,None,223.00239049998345,None,223.00239049998345,None,223.00239049998345,None,224.94606137998636,None,224.94606137998636,None,224.94606137998636,None,,,,,,,,,,,,,025,2022-05-19_13h37.33.514,Main,2022.1.1,61.45235262462017,
negative,neutral,1,j,l,,,,,,,,,1,15,33,3,,,,,,,,,main,2,2,1,neutral,negative,l,l,1,0.682049700000789,224.95701999997254,225.96291639999254,225.94625549996272,None,224.95701999997254,None,224.95701999997254,None,224.95701999997254,None,226.629555179982,None,226.629555179982,None,226.629555179982,None,,,,,,,,,,,,,025,2022-05-19_13h37.33.514,Main,2022.1.1,61.45235262462017,
positive,negative,1,l,j,,,,,,,,,1,16,34,5,,,,,,,,,main,2,2,1,negative,positive,j,j,1,0.8178391000255942,226.6295646999497,227.63218549999874,227.63218549999874,None,226.6295646999497,None,226.6295646999497,None,226.6295646999497,None,228.44881787996275,None,228.44881787996275,None,228.44881787996275,None,,,,,,,,,,,,,025,2022-05-19_13h37.33.514,Main,2022.1.1,61.45235262462017,
positive,positive,2,l,j,,,,,,,,,1,17,35,11,,,,,,,,,main,1,1,2,positive,positive,j,j,1,1.1959216999821365,228.45193469995866,229.46539349999512,229.4488013999653,None,228.45193469995866,None,228.45193469995866,None,228.45193469995866,None,230.64650477999822,None,230.64650477999822,None,230.64650477999822,None,,,,,,,,,,,,,025,2022-05-19_13h37.33.514,Main,2022.1.1,61.45235262462017,
neutral,positive,2,k,k,,,,,,,,,2,0,36,13,,,,,,,,,main,2,2,2,positive,neutral,k,k,1,0.6839235000079498,230.6500552999787,231.6653498999658,231.64875269995537,None,230.6500552999787,None,230.6500552999787,None,230.6500552999787,None,232.33194467996947,None,232.33194467996947,None,232.33194467996947,None,,,,,,,,,,,,,025,2022-05-19_13h37.33.514,Main,2022.1.1,61.45235262462017,
negative,negative,1,j,l,,,,,,,,,2,1,37,0,,,,,,,,,main,1,1,1,negative,negative,l,l,1,0.8135309999925084,232.334899999958,233.3486489999923,233.332044699986,None,232.334899999958,None,232.334899999958,None,232.334899999958,None,234.14661357995357,None,234.14661357995357,None,234.14661357995357,None,,,,,,,,,,,,,025,2022-05-19_13h37.33.514,Main,2022.1.1,61.45235262462017,
positive,positive,1,l,j,,,,,,,,,2,2,38,2,,,,,,,,,main,1,1,1,positive,positive,j,j,1,0.7809696000185795,234.1633933999692,235.16311679995852,235.14615519996732,None,234.1633933999692,None,234.1633933999692,None,234.1633933999692,None,235.9295930799679,None,235.9295930799679,None,235.9295930799679,None,,,,,,,,,,,,,025,2022-05-19_13h37.33.514,Main,2022.1.1,61.45235262462017,
neutral,neutral,1,k,k,,,,,,,,,2,3,39,1,,,,,,,,,main,2,2,1,neutral,neutral,k,k,1,0.6654550000093877,235.92940139997518,236.92936139996164,236.92936139996164,None,235.92940139997518,None,235.92940139997518,None,235.92940139997518,None,237.59625227994985,None,237.59625227994985,None,237.59625227994985,None,,,,,,,,,,,,,025,2022-05-19_13h37.33.514,Main,2022.1.1,61.45235262462017,
negative,positive,1,j,l,,,,,,,,,2,4,40,6,,,,,,,,,main,1,1,1,positive,negative,l,l,1,0.847831099992618,237.5972819000017,238.61271039996063,238.5960391999688,None,237.5972819000017,None,237.5972819000017,None,237.5972819000017,None,239.44627457997996,None,239.44627457997996,None,239.44627457997996,None,,,,,,,,,,,,,025,2022-05-19_13h37.33.514,Main,2022.1.1,61.45235262462017,
positive,neutral,2,l,j,,,,,,,,,2,5,41,17,,,,,,,,,main,2,2,2,neutral,positive,j,j,1,0.7646954000229016,239.45038179995026,240.46527019998757,240.44861999998102,None,239.45038179995026,None,239.45038179995026,None,239.45038179995026,None,241.2132854799973,None,241.2132854799973,None,241.2132854799973,None,,,,,,,,,,,,,025,2022-05-19_13h37.33.514,Main,2022.1.1,61.45235262462017,
positive,neutral,1,l,j,,,,,,,,,2,6,42,8,,,,,,,,,main,1,1,1,neutral,positive,j,j,1,1.031377799983602,241.21952210000018,242.23215919994982,242.21350049995817,None,241.21952210000018,None,241.21952210000018,None,241.21952210000018,None,243.24624557998033,None,243.24624557998033,None,243.24624557998033,None,,,,,,,,,,,,,025,2022-05-19_13h37.33.514,Main,2022.1.1,61.45235262462017,
negative,neutral,1,j,l,,,,,,,,,2,7,43,3,,,,,,,,,main,2,2,1,neutral,negative,l,l,1,0.8172746000345796,243.25281789997825,244.26512439997168,244.2485101999482,None,243.25281789997825,None,243.25281789997825,None,243.25281789997825,None,245.06507627998946,None,245.06507627998946,None,245.06507627998946,None,,,,,,,,,,,,,025,2022-05-19_13h37.33.514,Main,2022.1.1,61.45235262462017,
positive,positive,2,l,j,,,,,,,,,2,8,44,11,,,,,,,,,main,2,2,2,positive,positive,j,j,1,0.762374899990391,245.06828349997522,246.08172039996134,246.06512079999084,None,245.06828349997522,None,245.06828349997522,None,245.06828349997522,None,246.82918457996567,None,246.82918457996567,None,246.82918457996567,None,,,,,,,,,,,,,025,2022-05-19_13h37.33.514,Main,2022.1.1,61.45235262462017,
neutral,positive,1,k,k,,,,,,,,,2,9,45,4,,,,,,,,,main,2,2,1,positive,neutral,k,k,1,0.6652131000300869,246.83239119994687,247.84582999994745,247.8291280999547,None,246.83239119994687,None,246.83239119994687,None,246.83239119994687,None,248.4957682799548,None,248.4957682799548,None,248.4957682799548,None,,,,,,,,,,,,,025,2022-05-19_13h37.33.514,Main,2022.1.1,61.45235262462017,
negative,neutral,2,j,l,,,,,,,,,2,10,46,12,,,,,,,,,main,1,1,2,neutral,negative,l,l,1,1.0482556999777444,248.4957832999644,249.49579019995872,249.49579019995872,None,248.4957832999644,None,248.4957832999644,None,248.4957832999644,None,250.54576417997015,None,250.54576417997015,None,250.54576417997015,None,,,,,,,,,,,,,025,2022-05-19_13h37.33.514,Main,2022.1.1,61.45235262462017,
neutral,negative,1,k,k,,,,,,,,,2,11,47,7,,,,,,,,,main,1,1,1,negative,neutral,k,k,1,0.6818689000210725,250.54686339996988,251.56244209996657,251.54577989998506,None,250.54686339996988,None,250.54686339996988,None,250.54686339996988,None,252.22907427996398,None,252.22907427996398,None,252.22907427996398,None,,,,,,,,,,,,,025,2022-05-19_13h37.33.514,Main,2022.1.1,61.45235262462017,
negative,positive,2,j,l,,,,,,,,,2,12,48,15,,,,,,,,,main,1,1,2,positive,negative,l,l,1,0.8321954000275582,252.23239919997286,253.2316585999797,253.2316585999797,None,252.23239919997286,None,252.23239919997286,None,252.23239919997286,None,254.06268897997217,None,254.06268897997217,None,254.06268897997217,None,,,,,,,,,,,,,025,2022-05-19_13h37.33.514,Main,2022.1.1,61.45235262462017,
positive,negative,2,l,j,,,,,,,,,2,13,49,14,,,,,,,,,main,1,1,2,negative,positive,j,j,1,0.7982209000037983,254.06621869996889,255.08154909999575,255.06494579999708,None,254.06621869996889,None,254.06621869996889,None,254.06621869996889,None,255.86264777999605,None,255.86264777999605,None,255.86264777999605,None,,,,,,,,,,,,,025,2022-05-19_13h37.33.514,Main,2022.1.1,61.45235262462017,
neutral,neutral,2,k,k,,,,,,,,,2,14,50,10,,,,,,,,,main,1,1,2,neutral,neutral,k,k,1,0.7485633000032976,255.86581019998994,256.864935999969,256.864935999969,None,255.86581019998994,None,255.86581019998994,None,255.86581019998994,None,257.61262578000316,None,257.61262578000316,None,257.61262578000316,None,,,,,,,,,,,,,025,2022-05-19_13h37.33.514,Main,2022.1.1,61.45235262462017,
positive,negative,1,l,j,,,,,,,,,2,15,51,5,,,,,,,,,main,2,2,1,negative,positive,j,j,1,0.9213061000336893,257.6164942999603,258.63147239998216,258.61491879995447,None,257.6164942999603,None,257.6164942999603,None,257.6164942999603,None,259.5353929799865,None,259.5353929799865,None,259.5353929799865,None,,,,,,,,,,,,,025,2022-05-19_13h37.33.514,Main,2022.1.1,61.45235262462017,
neutral,negative,2,k,k,,,,,,,,,2,16,52,16,,,,,,,,,main,1,1,2,negative,neutral,k,k,1,0.7249058000161313,259.53545489994576,260.5455370999989,260.52885839994997,None,259.53545489994576,None,259.53545489994576,None,259.53545489994576,None,261.2621807799558,None,261.2621807799558,None,261.2621807799558,None,,,,,,,,,,,,,025,2022-05-19_13h37.33.514,Main,2022.1.1,61.45235262462017,
negative,negative,2,j,l,,,,,,,,,2,17,53,9,,,,,,,,,main,1,1,2,negative,negative,l,l,1,0.8983857000130229,261.2621802999638,262.26219539996237,262.26219539996237,None,261.2621802999638,None,261.2621802999638,None,261.2621802999638,None,263.1621838800027,None,263.1621838800027,None,263.1621838800027,None,,,,,,,,,,,,,025,2022-05-19_13h37.33.514,Main,2022.1.1,61.45235262462017,
negative,neutral,1,j,l,,,,,,,,,3,0,54,3,,,,,,,,,main,1,1,1,neutral,negative,l,l,1,0.9009404000244103,263.16505039995536,264.16482399997767,264.14816209999844,None,263.16505039995536,None,263.16505039995536,None,263.16505039995536,None,265.06470967999195,None,265.06470967999195,None,265.06470967999195,None,,,,,,,,,,,,,025,2022-05-19_13h37.33.514,Main,2022.1.1,61.45235262462017,
negative,neutral,2,j,l,,,,,,,,,3,1,55,12,,,,,,,,,main,1,1,2,neutral,negative,l,j,0,0.8961864000302739,265.0675394999562,266.08136589999776,266.06494219996966,None,265.0675394999562,None,265.0675394999562,None,265.0675394999562,None,266.9646713999682,None,266.9646713999682,None,266.9646713999682,None,,,,,,,,,,,,,025,2022-05-19_13h37.33.514,Main,2022.1.1,61.45235262462017,
positive,neutral,2,l,j,,,,,,,,,3,2,56,17,,,,,,,,,main,2,2,2,neutral,positive,j,j,1,0.7845105000305921,267.96342869999353,268.96460249996744,268.9479974999558,None,267.96342869999353,None,267.96342869999353,None,267.96342869999353,None,269.74567137997366,None,269.74567137997366,None,269.74567137997366,None,,,,,,,,,,,,,025,2022-05-19_13h37.33.514,Main,2022.1.1,61.45235262462017,
neutral,neutral,2,k,k,,,,,,,,,3,3,57,10,,,,,,,,,main,2,2,2,neutral,neutral,k,k,1,0.9149573000031523,269.74964539997745,270.7623095999588,270.74787959997775,None,269.74964539997745,None,269.74964539997745,None,269.74964539997745,None,271.66231388000307,None,271.66231388000307,None,271.66231388000307,None,,,,,,,,,,,,,025,2022-05-19_13h37.33.514,Main,2022.1.1,61.45235262462017,
negative,negative,2,j,l,,,,,,,,,3,4,58,9,,,,,,,,,main,1,1,2,negative,negative,l,l,1,0.6478594999643974,271.665884499962,272.678610199946,272.6619473999599,None,271.665884499962,None,271.665884499962,None,271.665884499962,None,273.3119382799603,None,273.3119382799603,None,273.3119382799603,None,,,,,,,,,,,,,025,2022-05-19_13h37.33.514,Main,2022.1.1,61.45235262462017,
neutral,positive,2,k,k,,,,,,,,,3,5,59,13,,,,,,,,,main,2,2,2,positive,neutral,k,k,1,0.9321345000062138,273.32863459998043,274.3286323999637,274.3119646999985,None,273.32863459998043,None,273.32863459998043,None,273.32863459998043,None,275.2455801799777,None,275.2455801799777,None,275.2455801799777,None,,,,,,,,,,,,,025,2022-05-19_13h37.33.514,Main,2022.1.1,61.45235262462017,
negative,positive,1,j,l,,,,,,,,,3,6,60,6,,,,,,,,,main,1,1,1,positive,negative,l,l,1,0.7505290000117384,275.249204199994,276.2644224999822,276.2478392999619,None,275.249204199994,None,275.249204199994,None,275.249204199994,None,276.9977289799834,None,276.9977289799834,None,276.9977289799834,None,,,,,,,,,,,,,025,2022-05-19_13h37.33.514,Main,2022.1.1,61.45235262462017,
negative,positive,2,j,l,,,,,,,,,3,7,61,15,,,,,,,,,main,2,2,2,positive,negative,l,l,1,0.7482412999961525,277.00071449996904,278.01437910000095,277.99779729999136,None,277.00071449996904,None,277.00071449996904,None,277.00071449996904,None,278.7476419799612,None,278.7476419799612,None,278.7476419799612,None,,,,,,,,,,,,,025,2022-05-19_13h37.33.514,Main,2022.1.1,61.45235262462017,
neutral,negative,1,k,k,,,,,,,,,3,8,62,7,,,,,,,,,main,2,2,1,negative,neutral,k,k,1,0.7808945999713615,278.75115479994565,279.7643083999865,279.74769329995615,None,278.75115479994565,None,278.75115479994565,None,278.75115479994565,None,280.5288102799794,None,280.5288102799794,None,280.5288102799794,None,,,,,,,,,,,,,025,2022-05-19_13h37.33.514,Main,2022.1.1,61.45235262462017,
neutral,neutral,1,k,k,,,,,,,,,3,9,63,1,,,,,,,,,main,2,2,1,neutral,neutral,k,k,1,0.6493042000220157,280.53316609998,281.5476451999857,281.5310422999901,None,280.53316609998,None,280.53316609998,None,280.53316609998,None,282.1810049799504,None,282.1810049799504,None,282.1810049799504,None,,,,,,,,,,,,,025,2022-05-19_13h37.33.514,Main,2022.1.1,61.45235262462017,
positive,negative,2,l,j,,,,,,,,,3,10,64,14,,,,,,,,,main,1,1,2,negative,positive,j,j,1,0.728986400004942,282.1836871999549,283.1950650999788,283.1783957000007,None,282.1836871999549,None,282.1836871999549,None,282.1836871999549,None,283.9117006799905,None,283.9117006799905,None,283.9117006799905,None,,,,,,,,,,,,,025,2022-05-19_13h37.33.514,Main,2022.1.1,61.45235262462017,
negative,negative,1,j,l,,,,,,,,,3,11,65,0,,,,,,,,,main,1,1,1,negative,negative,l,l,1,0.7687428999925032,283.91173949994845,284.9117444999865,284.9117444999865,None,283.91173949994845,None,283.91173949994845,None,283.91173949994845,None,285.68091427995824,None,285.68091427995824,None,285.68091427995824,None,,,,,,,,,,,,,025,2022-05-19_13h37.33.514,Main,2022.1.1,61.45235262462017,
positive,neutral,1,l,j,,,,,,,,,3,12,66,8,,,,,,,,,main,1,1,1,neutral,positive,j,j,1,1.0514473000075668,285.68465489998925,286.6975331999711,286.68094219994964,None,285.68465489998925,None,285.68465489998925,None,285.68465489998925,None,287.7308439799934,None,287.7308439799934,None,287.7308439799934,None,,,,,,,,,,,,,025,2022-05-19_13h37.33.514,Main,2022.1.1,61.45235262462017,
neutral,positive,1,k,k,,,,,,,,,3,13,67,4,,,,,,,,,main,1,1,1,positive,neutral,k,k,1,0.7584484000108205,287.7384534999728,288.7475653999718,288.7308806999936,None,287.7384534999728,None,287.7384534999728,None,287.7384534999728,None,289.4952616799972,None,289.4952616799972,None,289.4952616799972,None,,,,,,,,,,,,,025,2022-05-19_13h37.33.514,Main,2022.1.1,61.45235262462017,
positive,negative,1,l,j,,,,,,,,,3,14,68,5,,,,,,,,,main,1,1,1,negative,positive,j,j,1,0.9316955000394955,289.5141921999748,290.51411979994737,290.4975979999872,None,289.5141921999748,None,289.5141921999748,None,289.5141921999748,None,291.42857277999866,None,291.42857277999866,None,291.42857277999866,None,,,,,,,,,,,,,025,2022-05-19_13h37.33.514,Main,2022.1.1,61.45235262462017,
positive,positive,1,l,j,,,,,,,,,3,15,69,2,,,,,,,,,main,2,2,1,positive,positive,j,j,1,0.7813946999958716,291.4321955999476,292.4475491999765,292.4311411999515,None,291.4321955999476,None,291.4321955999476,None,291.4321955999476,None,293.21152028000216,None,293.21152028000216,None,293.21152028000216,None,,,,,,,,,,,,,025,2022-05-19_13h37.33.514,Main,2022.1.1,61.45235262462017,
positive,positive,2,l,j,,,,,,,,,3,16,70,11,,,,,,,,,main,2,2,2,positive,positive,j,j,1,0.8315280000097118,293.21154119999846,294.21177069999976,294.21177069999976,None,293.21154119999846,None,293.21154119999846,None,293.21154119999846,None,295.0448277799995,None,295.0448277799995,None,295.0448277799995,None,,,,,,,,,,,,,025,2022-05-19_13h37.33.514,Main,2022.1.1,61.45235262462017,
neutral,negative,2,k,k,,,,,,,,,3,17,71,16,,,,,,,,,main,1,1,2,negative,neutral,k,k,1,0.864953099982813,295.06152759998804,296.06150059995707,296.0448299999698,None,295.06152759998804,None,295.06152759998804,None,295.06152759998804,None,296.91149297998055,None,296.91149297998055,None,296.91149297998055,None,,,,,,,,,,,,,025,2022-05-19_13h37.33.514,Main,2022.1.1,61.45235262462017,
negative,neutral,1,j,l,,,,,,,,,4,0,72,3,,,,,,,,,main,2,2,1,neutral,negative,l,l,1,0.934442300000228,296.9146249999758,297.91401039995253,297.89742649998516,None,296.9146249999758,None,296.9146249999758,None,296.9146249999758,None,298.84728537995835,None,298.84728537995835,None,298.84728537995835,None,,,,,,,,,,,,,025,2022-05-19_13h37.33.514,Main,2022.1.1,61.45235262462017,
positive,neutral,1,l,j,,,,,,,,,4,1,73,8,,,,,,,,,main,1,1,1,neutral,positive,j,j,1,0.9984063999727368,298.85012509999797,299.86398149997694,299.8473749999539,None,298.85012509999797,None,298.85012509999797,None,298.85012509999797,None,300.84724867996994,None,300.84724867996994,None,300.84724867996994,None,,,,,,,,,,,,,025,2022-05-19_13h37.33.514,Main,2022.1.1,61.45235262462017,
neutral,positive,2,k,k,,,,,,,,,4,2,74,13,,,,,,,,,main,1,1,2,positive,neutral,k,k,1,1.2294995000120252,300.8502475999994,301.8638801999623,301.84728249994805,None,300.8502475999994,None,300.8502475999994,None,300.8502475999994,None,303.07832957997454,None,303.07832957997454,None,303.07832957997454,None,,,,,,,,,,,,,025,2022-05-19_13h37.33.514,Main,2022.1.1,61.45235262462017,
positive,negative,1,l,j,,,,,,,,,4,3,75,5,,,,,,,,,main,2,2,1,negative,positive,j,j,1,0.8313319999724627,303.0818920999882,304.09720749995904,304.08058670000173,None,303.0818920999882,None,303.0818920999882,None,303.0818920999882,None,304.9112472799723,None,304.9112472799723,None,304.9112472799723,None,,,,,,,,,,,,,025,2022-05-19_13h37.33.514,Main,2022.1.1,61.45235262462017,
neutral,negative,1,k,k,,,,,,,,,4,4,76,7,,,,,,,,,main,2,2,1,negative,neutral,k,k,1,0.8316678000264801,304.91125489998376,305.9112635999918,305.9112635999918,None,304.91125489998376,None,304.91125489998376,None,304.91125489998376,None,306.7445824799477,None,306.7445824799477,None,306.7445824799477,None,,,,,,,,,,,,,025,2022-05-19_13h37.33.514,Main,2022.1.1,61.45235262462017,
negative,positive,2,j,l,,,,,,,,,4,5,77,15,,,,,,,,,main,1,1,2,positive,negative,l,l,1,1.0486257000011392,306.7612661999883,307.761236499995,307.744595199998,None,306.7612661999883,None,306.7612661999883,None,306.7612661999883,None,308.79457537999843,None,308.79457537999843,None,308.79457537999843,None,,,,,,,,,,,,,025,2022-05-19_13h37.33.514,Main,2022.1.1,61.45235262462017,
positive,positive,2,l,j,,,,,,,,,4,6,78,11,,,,,,,,,main,2,2,2,positive,positive,j,j,1,0.7509525999776088,308.7979489999707,309.79716409998946,309.79716409998946,None,308.7979489999707,None,308.7979489999707,None,308.7979489999707,None,310.5470975799952,None,310.5470975799952,None,310.5470975799952,None,,,,,,,,,,,,,025,2022-05-19_13h37.33.514,Main,2022.1.1,61.45235262462017,
negative,negative,1,j,l,,,,,,,,,4,7,79,0,,,,,,,,,main,1,1,1,negative,negative,l,l,1,0.6831431000027806,310.55001559999073,311.56372679997,311.5471181999892,None,310.55001559999073,None,310.55001559999073,None,310.55001559999073,None,312.23041557999096,None,312.23041557999096,None,312.23041557999096,None,,,,,,,,,,,,,025,2022-05-19_13h37.33.514,Main,2022.1.1,61.45235262462017,
neutral,neutral,1,k,k,,,,,,,,,4,8,80,1,,,,,,,,,main,2,2,1,neutral,neutral,k,k,1,0.6947161999996752,312.23458179994486,313.2470129999565,313.2304068999947,None,312.23458179994486,None,312.23458179994486,None,312.23458179994486,None,313.9281030799728,None,313.9281030799728,None,313.9281030799728,None,,,,,,,,,,,,,025,2022-05-19_13h37.33.514,Main,2022.1.1,61.45235262462017,
neutral,neutral,2,k,k,,,,,,,,,4,9,81,10,,,,,,,,,main,2,2,2,neutral,neutral,k,k,1,0.9009337000316009,313.9470873999526,314.94697179994546,314.9303763999487,None,313.9470873999526,None,313.9470873999526,None,313.9470873999526,None,315.8302970799967,None,315.8302970799967,None,315.8302970799967,None,,,,,,,,,,,,,025,2022-05-19_13h37.33.514,Main,2022.1.1,61.45235262462017,
neutral,positive,1,k,k,,,,,,,,,4,10,82,4,,,,,,,,,main,1,1,1,positive,neutral,k,k,1,0.846678800007794,315.8333978999872,316.84436719998484,316.82769769994775,None,315.8333978999872,None,315.8333978999872,None,315.8333978999872,None,317.6776745799696,None,317.6776745799696,None,317.6776745799696,None,,,,,,,,,,,,,025,2022-05-19_13h37.33.514,Main,2022.1.1,61.45235262462017,
negative,positive,1,j,l,,,,,,,,,4,11,83,6,,,,,,,,,main,1,1,1,positive,negative,l,l,1,0.9643428000272252,317.67867939994903,318.6777288999874,318.6777288999874,None,317.67867939994903,None,317.67867939994903,None,317.67867939994903,None,319.64465947997525,None,319.64465947997525,None,319.64465947997525,None,,,,,,,,,,,,,025,2022-05-19_13h37.33.514,Main,2022.1.1,61.45235262462017,
neutral,negative,2,k,k,,,,,,,,,4,12,84,16,,,,,,,,,main,2,2,2,negative,neutral,k,k,1,0.6807123000035062,319.6492470999947,320.663519099995,320.6469402999501,None,319.6492470999947,None,319.6492470999947,None,319.6492470999947,None,321.3279407799826,None,321.3279407799826,None,321.3279407799826,None,,,,,,,,,,,,,025,2022-05-19_13h37.33.514,Main,2022.1.1,61.45235262462017,
negative,negative,2,j,l,,,,,,,,,4,13,85,9,,,,,,,,,main,2,2,2,negative,negative,l,l,1,0.8175866999663413,321.33084799995413,322.33015269995667,322.31354929995723,None,321.33084799995413,None,321.33084799995413,None,321.33084799995413,None,323.14675077995054,None,323.14675077995054,None,323.14675077995054,None,,,,,,,,,,,,,025,2022-05-19_13h37.33.514,Main,2022.1.1,61.45235262462017,
positive,positive,1,l,j,,,,,,,,,4,14,86,2,,,,,,,,,main,2,2,1,positive,positive,j,j,1,0.7794573999708518,323.1499458999606,324.16346079995856,324.1468796999543,None,323.1499458999606,None,323.1499458999606,None,323.1499458999606,None,324.92786238000264,None,324.92786238000264,None,324.92786238000264,None,,,,,,,,,,,,,025,2022-05-19_13h37.33.514,Main,2022.1.1,61.45235262462017,
positive,negative,2,l,j,,,,,,,,,4,15,87,14,,,,,,,,,main,1,1,2,negative,positive,j,j,1,0.8313755000126548,324.9333579999511,325.9467688999721,325.9301808999735,None,324.9333579999511,None,324.9333579999511,None,324.9333579999511,None,326.76080227999483,None,326.76080227999483,None,326.76080227999483,None,,,,,,,,,,,,,025,2022-05-19_13h37.33.514,Main,2022.1.1,61.45235262462017,
positive,neutral,2,l,j,,,,,,,,,4,16,88,17,,,,,,,,,main,2,2,2,neutral,positive,j,j,1,0.5983664999948815,326.76080819999333,327.76078279997455,327.76078279997455,None,326.76080819999333,None,326.76080819999333,None,326.76080819999333,None,328.3607759800041,None,328.3607759800041,None,328.3607759800041,None,,,,,,,,,,,,,025,2022-05-19_13h37.33.514,Main,2022.1.1,61.45235262462017,
negative,neutral,2,j,l,,,,,,,,,4,17,89,12,,,,,,,,,main,1,1,2,neutral,negative,l,l,1,0.9009693999541923,328.3607896999456,329.3634267000016,329.3634267000016,None,328.3607896999456,None,328.3607896999456,None,328.3607896999456,None,330.26339437999997,None,330.26339437999997,None,330.26339437999997,None,,,,,,,,,,,,,025,2022-05-19_13h37.33.514,Main,2022.1.1,61.45235262462017,
positive,positive,2,l,j,,,,,,,,,5,0,90,11,,,,,,,,,main,1,1,2,positive,positive,j,j,1,0.7462865000125021,330.26749879994895,331.2799524999573,331.26336129999254,None,330.26749879994895,None,330.26749879994895,None,330.26749879994895,None,332.0110628800001,None,332.0110628800001,None,332.0110628800001,None,,,,,,,,,,,,,025,2022-05-19_13h37.33.514,Main,2022.1.1,61.45235262462017,
negative,neutral,1,j,l,,,,,,,,,5,1,91,3,,,,,,,,,main,1,1,1,neutral,negative,l,l,1,0.7316855999524705,332.01736139995046,333.0299126000027,333.01332449994516,None,332.01736139995046,None,332.01736139995046,None,332.01736139995046,None,333.7443445799989,None,333.7443445799989,None,333.7443445799989,None,,,,,,,,,,,,,025,2022-05-19_13h37.33.514,Main,2022.1.1,61.45235262462017,
neutral,negative,1,k,k,,,,,,,,,5,2,92,7,,,,,,,,,main,1,1,1,negative,neutral,k,k,1,0.6808135999599472,333.7483953999472,334.76314109994564,334.7466409999761,None,333.7483953999472,None,333.7483953999472,None,333.7483953999472,None,335.4276500799577,None,335.4276500799577,None,335.4276500799577,None,,,,,,,,,,,,,025,2022-05-19_13h37.33.514,Main,2022.1.1,61.45235262462017,
neutral,neutral,1,k,k,,,,,,,,,5,3,93,1,,,,,,,,,main,1,1,1,neutral,neutral,k,k,1,0.7145934000145644,335.43151969998144,336.4465693999664,336.4132308999542,None,335.43151969998144,None,335.43151969998144,None,335.43151969998144,None,337.1439209799981,None,337.1439209799981,None,337.1439209799981,None,,,,,,,,,,,,,025,2022-05-19_13h37.33.514,Main,2022.1.1,61.45235262462017,
negative,neutral,2,j,l,,,,,,,,,5,4,94,12,,,,,,,,,main,1,1,2,neutral,negative,l,l,1,1.1327846000203863,337.14394639997045,338.14393889997154,338.14393889997154,None,337.14394639997045,None,337.14394639997045,None,337.14394639997045,None,339.2776999799651,None,339.2776999799651,None,339.2776999799651,None,,,,,,,,,,,,,025,2022-05-19_13h37.33.514,Main,2022.1.1,61.45235262462017,
neutral,negative,2,k,k,,,,,,,,,5,5,95,16,,,,,,,,,main,1,1,2,negative,neutral,k,k,1,0.8147633000044152,339.281187399989,340.2964581999695,340.28017119999276,None,339.281187399989,None,339.281187399989,None,339.281187399989,None,341.0944628800033,None,341.0944628800033,None,341.0944628800033,None,,,,,,,,,,,,,025,2022-05-19_13h37.33.514,Main,2022.1.1,61.45235262462017,
neutral,positive,1,k,k,,,,,,,,,5,6,96,4,,,,,,,,,main,2,2,1,positive,neutral,k,k,1,0.9315255000256002,341.0977690999862,342.1130429999903,342.09641659999033,None,341.0977690999862,None,341.0977690999862,None,341.0977690999862,None,343.0274757800042,None,343.0274757800042,None,343.0274757800042,None,,,,,,,,,,,,,025,2022-05-19_13h37.33.514,Main,2022.1.1,61.45235262462017,
positive,neutral,2,l,j,,,,,,,,,5,7,97,17,,,,,,,,,main,2,2,2,neutral,positive,j,j,1,0.7651002000202425,343.03105189994676,344.046378799947,344.0297870999784,None,343.03105189994676,None,343.03105189994676,None,343.03105189994676,None,344.7940866800025,None,344.7940866800025,None,344.7940866800025,None,,,,,,,,,,,,,025,2022-05-19_13h37.33.514,Main,2022.1.1,61.45235262462017,
negative,positive,2,j,l,,,,,,,,,5,8,98,15,,,,,,,,,main,2,2,2,positive,negative,l,l,1,0.7139921000343747,344.800317599962,345.8130011999747,345.7963784999447,None,344.800317599962,None,344.800317599962,None,344.800317599962,None,346.5107265800005,None,346.5107265800005,None,346.5107265800005,None,,,,,,,,,,,,,025,2022-05-19_13h37.33.514,Main,2022.1.1,61.45235262462017,
neutral,positive,2,k,k,,,,,,,,,5,9,99,13,,,,,,,,,main,1,1,2,positive,neutral,k,k,1,0.6479601999744773,346.514089699951,347.52706179994857,347.510399199964,None,346.514089699951,None,346.514089699951,None,346.514089699951,None,348.1603587799589,None,348.1603587799589,None,348.1603587799589,None,,,,,,,,,,,,,025,2022-05-19_13h37.33.514,Main,2022.1.1,61.45235262462017,
negative,negative,2,j,l,,,,,,,,,5,10,100,9,,,,,,,,,main,1,1,2,negative,negative,l,l,1,0.8152269999845885,348.1603768999921,349.1603771999944,349.1603771999944,None,348.1603768999921,None,348.1603768999921,None,348.1603768999921,None,349.97702107998776,None,349.97702107998776,None,349.97702107998776,None,,,,,,,,,,,,,025,2022-05-19_13h37.33.514,Main,2022.1.1,61.45235262462017,
positive,neutral,1,l,j,,,,,,,,,5,11,101,8,,,,,,,,,main,2,2,1,neutral,positive,j,j,1,0.8174214999889955,349.9774196999497,350.97704799997155,350.97704799997155,None,349.9774196999497,None,349.9774196999497,None,349.9774196999497,None,351.7962455799687,None,351.7962455799687,None,351.7962455799687,None,,,,,,,,,,,,,025,2022-05-19_13h37.33.514,Main,2022.1.1,61.45235262462017,
neutral,neutral,2,k,k,,,,,,,,,5,12,102,10,,,,,,,,,main,1,1,2,neutral,neutral,k,k,1,0.6621900000027381,351.79981169995153,352.8128899000003,352.7962306999834,None,351.79981169995153,None,351.79981169995153,None,351.79981169995153,None,353.4606327799964,None,353.4606327799964,None,353.4606327799964,None,,,,,,,,,,,,,025,2022-05-19_13h37.33.514,Main,2022.1.1,61.45235262462017,
positive,negative,2,l,j,,,,,,,,,5,13,103,14,,,,,,,,,main,2,2,2,negative,positive,j,j,1,0.6840444999979809,353.4637728999951,354.4628796999459,354.4628796999459,None,353.4637728999951,None,353.4637728999951,None,353.4637728999951,None,355.1461472799536,None,355.1461472799536,None,355.1461472799536,None,,,,,,,,,,,,,025,2022-05-19_13h37.33.514,Main,2022.1.1,61.45235262462017,
negative,negative,1,j,l,,,,,,,,,5,14,104,0,,,,,,,,,main,2,2,1,negative,negative,l,l,1,0.7628866999875754,355.1493173999479,356.162777199992,356.14617659995565,None,355.1493173999479,None,355.1493173999479,None,355.1493173999479,None,356.910544879979,None,356.910544879979,None,356.910544879979,None,,,,,,,,,,,,,025,2022-05-19_13h37.33.514,Main,2022.1.1,61.45235262462017,
positive,positive,1,l,j,,,,,,,,,5,15,105,2,,,,,,,,,main,2,2,1,positive,positive,j,j,1,0.7318093999638222,356.9137812999543,357.91279999999097,357.91279999999097,None,356.9137812999543,None,356.9137812999543,None,356.9137812999543,None,358.64390658000485,None,358.64390658000485,None,358.64390658000485,None,,,,,,,,,,,,,025,2022-05-19_13h37.33.514,Main,2022.1.1,61.45235262462017,
positive,negative,1,l,j,,,,,,,,,5,16,106,5,,,,,,,,,main,2,2,1,negative,positive,j,j,1,0.6646051999996416,358.64968959998805,359.66014679998625,359.64347759995144,None,358.64968959998805,None,358.64968959998805,None,358.64968959998805,None,360.31010928000325,None,360.31010928000325,None,360.31010928000325,None,,,,,,,,,,,,,025,2022-05-19_13h37.33.514,Main,2022.1.1,61.45235262462017,
negative,positive,1,j,l,,,,,,,,,5,17,107,6,,,,,,,,,main,1,1,1,positive,negative,l,l,1,0.7152469999855384,360.3101219999953,361.3101306000026,361.3101306000026,None,360.3101219999953,None,360.3101219999953,None,360.3101219999953,None,362.02676257998684,None,362.02676257998684,None,362.02676257998684,None,,,,,,,,,,,,,025,2022-05-19_13h37.33.514,Main,2022.1.1,61.45235262462017,
neutral,neutral,1,k,k,,,,,,,,,6,0,108,1,,,,,,,,,main,2,2,1,neutral,neutral,k,k,1,0.7675920000183396,362.0273159999633,363.02678679995006,363.02678679995006,None,362.0273159999633,None,362.0273159999633,None,362.0273159999633,None,363.7960905799526,None,363.7960905799526,None,363.7960905799526,None,,,,,,,,,,,,,025,2022-05-19_13h37.33.514,Main,2022.1.1,61.45235262462017,
positive,positive,1,l,j,,,,,,,,,6,1,109,2,,,,,,,,,main,1,1,1,positive,positive,j,j,1,0.8956376000423916,363.7992761999485,364.8125452999957,364.7960478999885,None,363.7992761999485,None,363.7992761999485,None,363.7992761999485,None,365.69353007997853,None,365.69353007997853,None,365.69353007997853,None,,,,,,,,,,,,,025,2022-05-19_13h37.33.514,Main,2022.1.1,61.45235262462017,
positive,negative,2,l,j,,,,,,,,,6,2,110,14,,,,,,,,,main,2,2,2,negative,positive,j,j,1,0.8653158000088297,365.71040769998217,366.7125487999874,366.6959533999907,None,365.71040769998217,None,365.71040769998217,None,365.71040769998217,None,367.5603246799554,None,367.5603246799554,None,367.5603246799554,None,,,,,,,,,,,,,025,2022-05-19_13h37.33.514,Main,2022.1.1,61.45235262462017,
negative,negative,1,j,l,,,,,,,,,6,3,111,0,,,,,,,,,main,1,1,1,negative,negative,l,l,1,0.7819178000208922,367.5636398999486,368.5792229999788,368.56258139997954,None,367.5636398999486,None,367.5636398999486,None,367.5636398999486,None,369.34360187996646,None,369.34360187996646,None,369.34360187996646,None,,,,,,,,,,,,,025,2022-05-19_13h37.33.514,Main,2022.1.1,61.45235262462017,
negative,negative,2,j,l,,,,,,,,,6,4,112,9,,,,,,,,,main,1,1,2,negative,negative,l,l,1,1.2323478999896906,369.3471356999944,370.3624908999773,370.3458624999621,None,369.3471356999944,None,369.3471356999944,None,369.3471356999944,None,371.576536379999,None,371.576536379999,None,371.576536379999,None,,,,,,,,,,,,,025,2022-05-19_13h37.33.514,Main,2022.1.1,61.45235262462017,
neutral,positive,2,k,k,,,,,,,,,6,5,113,13,,,,,,,,,main,1,1,2,positive,neutral,k,k,1,0.7167996000498533,371.57756269996753,372.5932488999679,372.5765912999632,None,371.57756269996753,None,371.57756269996753,None,371.57756269996753,None,373.29567157996354,None,373.29567157996354,None,373.29567157996354,None,,,,,,,,,,,,,025,2022-05-19_13h37.33.514,Main,2022.1.1,61.45235262462017,
negative,positive,1,j,l,,,,,,,,,6,6,114,6,,,,,,,,,main,1,1,1,positive,negative,l,l,1,0.8150207999860868,373.29883419995895,374.3124029999599,374.2958216999541,None,373.29883419995895,None,373.29883419995895,None,373.29883419995895,None,375.1124341799994,None,375.1124341799994,None,375.1124341799994,None,,,,,,,,,,,,,025,2022-05-19_13h37.33.514,Main,2022.1.1,61.45235262462017,
neutral,neutral,2,k,k,,,,,,,,,6,7,115,10,,,,,,,,,main,2,2,2,neutral,neutral,k,k,1,0.9484280000324361,375.115393999964,376.12901579996105,376.1124103999464,None,375.115393999964,None,375.115393999964,None,375.115393999964,None,377.0623786799959,None,377.0623786799959,None,377.0623786799959,None,,,,,,,,,,,,,025,2022-05-19_13h37.33.514,Main,2022.1.1,61.45235262462017,
negative,positive,2,j,l,,,,,,,,,6,8,116,15,,,,,,,,,main,2,2,2,positive,negative,l,l,1,0.8796689999871887,377.06540279998444,378.07896600000095,378.06235809996724,None,377.06540279998444,None,377.06540279998444,None,377.06540279998444,None,378.94341537997826,None,378.94341537997826,None,378.94341537997826,None,,,,,,,,,,,,,025,2022-05-19_13h37.33.514,Main,2022.1.1,61.45235262462017,
positive,positive,2,l,j,,,,,,,,,6,9,117,11,,,,,,,,,main,1,1,2,positive,positive,j,j,1,0.8314013000344858,378.9468823999632,379.9622693999554,379.9456454999745,None,378.9468823999632,None,378.9468823999632,None,378.9468823999632,None,380.7766968799522,None,380.7766968799522,None,380.7766968799522,None,,,,,,,,,,,,,025,2022-05-19_13h37.33.514,Main,2022.1.1,61.45235262462017,
neutral,positive,1,k,k,,,,,,,,,6,10,118,4,,,,,,,,,main,1,1,1,positive,neutral,k,k,1,0.7652833999600261,380.78229249996366,381.7931539999554,381.7765900999657,None,380.78229249996366,None,380.78229249996366,None,380.78229249996366,None,382.5432134799892,None,382.5432134799892,None,382.5432134799892,None,,,,,,,,,,,,,025,2022-05-19_13h37.33.514,Main,2022.1.1,61.45235262462017,
neutral,negative,1,k,k,,,,,,,,,6,11,119,7,,,,,,,,,main,1,1,1,negative,neutral,k,k,1,0.7478382999543101,382.54374939994887,383.54302659997484,383.54302659997484,None,382.54374939994887,None,382.54374939994887,None,382.54374939994887,None,384.2933024799684,None,384.2933024799684,None,384.2933024799684,None,,,,,,,,,,,,,025,2022-05-19_13h37.33.514,Main,2022.1.1,61.45235262462017,
positive,negative,1,l,j,,,,,,,,,6,12,120,5,,,,,,,,,main,1,1,1,negative,positive,j,j,1,0.9829244000138715,384.30502139998134,385.3121576999547,385.29558099998394,None,384.30502139998134,None,384.30502139998134,None,384.30502139998134,None,386.2787509799935,None,386.2787509799935,None,386.2787509799935,None,,,,,,,,,,,,,025,2022-05-19_13h37.33.514,Main,2022.1.1,61.45235262462017,
positive,neutral,2,l,j,,,,,,,,,6,13,121,17,,,,,,,,,main,2,2,2,neutral,positive,j,j,1,0.8646153000299819,386.2822480999748,387.29545549995964,387.2788833999657,None,386.2822480999748,None,386.2822480999748,None,386.2822480999748,None,388.1454703799798,None,388.1454703799798,None,388.1454703799798,None,,,,,,,,,,,,,025,2022-05-19_13h37.33.514,Main,2022.1.1,61.45235262462017,
neutral,negative,2,k,k,,,,,,,,,6,14,122,16,,,,,,,,,main,2,2,2,negative,neutral,k,k,1,0.7127848000382073,388.1491305999807,389.1620707999682,389.1454907999723,None,388.1491305999807,None,388.1491305999807,None,388.1491305999807,None,389.8598412799882,None,389.8598412799882,None,389.8598412799882,None,,,,,,,,,,,,,025,2022-05-19_13h37.33.514,Main,2022.1.1,61.45235262462017,
negative,neutral,2,j,l,,,,,,,,,6,15,123,12,,,,,,,,,main,1,1,2,neutral,negative,l,l,1,0.9316304999520071,389.86355589999584,390.8761536999955,390.8594835999538,None,389.86355589999584,None,389.86355589999584,None,389.86355589999584,None,391.79278777994915,None,391.79278777994915,None,391.79278777994915,None,,,,,,,,,,,,,025,2022-05-19_13h37.33.514,Main,2022.1.1,61.45235262462017,
negative,neutral,1,j,l,,,,,,,,,6,16,124,3,,,,,,,,,main,2,2,1,neutral,negative,l,l,1,1.1677919999929145,391.7927899999777,392.7928256999585,392.7928256999585,None,391.7927899999777,None,391.7927899999777,None,391.7927899999777,None,393.96199527995196,None,393.96199527995196,None,393.96199527995196,None,,,,,,,,,,,,,025,2022-05-19_13h37.33.514,Main,2022.1.1,61.45235262462017,
positive,neutral,1,l,j,,,,,,,,,6,17,125,8,,,,,,,,,main,2,2,1,neutral,positive,j,j,1,0.8317285000230186,393.9648644999834,394.9786351999501,394.9620384000009,None,393.9648644999834,None,393.9648644999834,None,393.9648644999834,None,395.7953146799817,None,395.7953146799817,None,395.7953146799817,None,,,,,,,,,,,,,025,2022-05-19_13h37.33.514,Main,2022.1.1,61.45235262462017,
positive,positive,2,l,j,,,,,,,,,7,0,126,11,,,,,,,,,main,2,2,2,positive,positive,j,j,1,0.7627479999791831,395.79809889994795,396.81192519998876,396.79533289995743,None,395.79809889994795,None,395.79809889994795,None,395.79809889994795,None,397.5597099799896,None,397.5597099799896,None,397.5597099799896,None,,,,,,,,,,,,,025,2022-05-19_13h37.33.514,Main,2022.1.1,61.45235262462017,
neutral,neutral,1,k,k,,,,,,,,,7,1,127,1,,,,,,,,,main,2,2,1,neutral,neutral,k,k,1,0.6997967000352219,397.5659785999451,398.57855689997086,398.56196069996804,None,397.5659785999451,None,397.5659785999451,None,397.5659785999451,None,399.2618996799691,None,399.2618996799691,None,399.2618996799691,None,,,,,,,,,,,,,025,2022-05-19_13h37.33.514,Main,2022.1.1,61.45235262462017,
positive,neutral,1,l,j,,,,,,,,,7,2,128,8,,,,,,,,,main,2,2,1,neutral,positive,j,j,1,0.762699699960649,399.26543599995784,400.2787097999826,400.26205059996573,None,399.26543599995784,None,399.26543599995784,None,399.26543599995784,None,401.02592197998894,None,401.02592197998894,None,401.02592197998894,None,,,,,,,,,,,,,025,2022-05-19_13h37.33.514,Main,2022.1.1,61.45235262462017,
negative,neutral,2,j,l,,,,,,,,,7,3,129,12,,,,,,,,,main,2,2,2,neutral,negative,l,l,1,0.7479345999890938,401.02659689995926,402.0259255999699,402.0259255999699,None,401.02659689995926,None,401.02659689995926,None,401.02659689995926,None,402.77592247999274,None,402.77592247999274,None,402.77592247999274,None,,,,,,,,,,,,,025,2022-05-19_13h37.33.514,Main,2022.1.1,61.45235262462017,
positive,negative,1,l,j,,,,,,,,,7,4,130,5,,,,,,,,,main,1,1,1,negative,positive,j,j,1,0.998503000009805,402.7793363999808,403.77852519997396,403.77852519997396,None,402.7793363999808,None,402.7793363999808,None,402.7793363999808,None,404.7762112799799,None,404.7762112799799,None,404.7762112799799,None,,,,,,,,,,,,,025,2022-05-19_13h37.33.514,Main,2022.1.1,61.45235262462017,
neutral,positive,2,k,k,,,,,,,,,7,5,131,13,,,,,,,,,main,1,1,2,positive,neutral,k,k,1,0.7841197000234388,404.78186489996733,405.7951567999553,405.77847399999155,None,404.78186489996733,None,404.78186489996733,None,404.78186489996733,None,406.56176427997417,None,406.56176427997417,None,406.56176427997417,None,,,,,,,,,,,,,025,2022-05-19_13h37.33.514,Main,2022.1.1,61.45235262462017,
positive,negative,2,l,j,,,,,,,,,7,6,132,14,,,,,,,,,main,1,1,2,negative,positive,j,j,1,0.781840400013607,406.56462189997546,407.5783657999709,407.56183159997454,None,406.56462189997546,None,406.56462189997546,None,406.56462189997546,None,408.3451737800031,None,408.3451737800031,None,408.3451737800031,None,,,,,,,,,,,,,025,2022-05-19_13h37.33.514,Main,2022.1.1,61.45235262462017,
positive,positive,1,l,j,,,,,,,,,7,7,133,2,,,,,,,,,main,1,1,1,positive,positive,j,j,1,0.979402500030119,408.348154599953,409.36198359995615,409.3451690999791,None,408.348154599953,None,408.348154599953,None,408.348154599953,None,410.32610677998747,None,410.32610677998747,None,410.32610677998747,None,,,,,,,,,,,,,025,2022-05-19_13h37.33.514,Main,2022.1.1,61.45235262462017,
negative,positive,2,j,l,,,,,,,,,7,8,134,15,,,,,,,,,main,1,1,2,positive,negative,l,l,1,0.7812106999917887,410.32975769997574,411.3424006999703,411.3257356999675,None,410.32975769997574,None,410.32975769997574,None,410.32975769997574,None,412.1090278799646,None,412.1090278799646,None,412.1090278799646,None,,,,,,,,,,,,,025,2022-05-19_13h37.33.514,Main,2022.1.1,61.45235262462017,
negative,negative,1,j,l,,,,,,,,,7,9,135,0,,,,,,,,,main,2,2,1,negative,negative,l,l,1,1.2156383000547066,412.10904079995817,413.10907269996824,413.10907269996824,None,412.10904079995817,None,412.10904079995817,None,412.10904079995817,None,414.32601397997934,None,414.32601397997934,None,414.32601397997934,None,,,,,,,,,,,,,025,2022-05-19_13h37.33.514,Main,2022.1.1,61.45235262462017,
positive,neutral,2,l,j,,,,,,,,,7,10,136,17,,,,,,,,,main,2,2,2,neutral,positive,j,j,1,0.7816553000011481,414.32944229996065,415.3448916999623,415.3282842999906,None,414.32944229996065,None,414.32944229996065,None,414.32944229996065,None,416.10931097996655,None,416.10931097996655,None,416.10931097996655,None,,,,,,,,,,,,,025,2022-05-19_13h37.33.514,Main,2022.1.1,61.45235262462017,
neutral,negative,1,k,k,,,,,,,,,7,11,137,7,,,,,,,,,main,1,1,1,negative,neutral,k,k,1,0.7138783999835141,416.11548679997213,417.1281765999738,417.1115764999995,None,416.11548679997213,None,416.11548679997213,None,416.11548679997213,None,417.8256212799577,None,417.8256212799577,None,417.8256212799577,None,,,,,,,,,,,,,025,2022-05-19_13h37.33.514,Main,2022.1.1,61.45235262462017,
neutral,neutral,2,k,k,,,,,,,,,7,12,138,10,,,,,,,,,main,1,1,2,neutral,neutral,k,k,1,0.7509105000062846,417.8298812999856,418.844774600002,418.8282030999544,None,417.8298812999856,None,417.8298812999856,None,417.8298812999856,None,419.5781345800031,None,419.5781345800031,None,419.5781345800031,None,,,,,,,,,,,,,025,2022-05-19_13h37.33.514,Main,2022.1.1,61.45235262462017,
negative,neutral,1,j,l,,,,,,,,,7,13,139,3,,,,,,,,,main,1,1,1,neutral,negative,l,l,1,1.1119349999935366,419.581811299955,420.59475599997677,420.5781531999819,None,419.581811299955,None,419.581811299955,None,419.581811299955,None,421.6921630799887,None,421.6921630799887,None,421.6921630799887,None,,,,,,,,,,,,,025,2022-05-19_13h37.33.514,Main,2022.1.1,61.45235262462017,
neutral,negative,2,k,k,,,,,,,,,7,14,140,16,,,,,,,,,main,2,2,2,negative,neutral,k,k,1,0.7980070000048727,421.692435999983,422.69215849996544,422.69215849996544,None,421.692435999983,None,421.692435999983,None,421.692435999983,None,423.4921711799805,None,423.4921711799805,None,423.4921711799805,None,,,,,,,,,,,,,025,2022-05-19_13h37.33.514,Main,2022.1.1,61.45235262462017,
negative,positive,1,j,l,,,,,,,,,7,15,141,6,,,,,,,,,main,1,1,1,positive,negative,l,l,1,0.6657491999794729,423.4947930999915,424.4946945999982,424.4781376000028,None,423.4947930999915,None,423.4947930999915,None,423.4947930999915,None,425.15912507999457,None,425.15912507999457,None,425.15912507999457,None,,,,,,,,,,,,,025,2022-05-19_13h37.33.514,Main,2022.1.1,61.45235262462017,
neutral,positive,1,k,k,,,,,,,,,7,16,142,4,,,,,,,,,main,1,1,1,positive,neutral,k,k,1,0.7317111000302248,425.1645486999769,426.1779684999492,426.1613646999467,None,425.1645486999769,None,425.1645486999769,None,425.1645486999769,None,426.89240778000095,None,426.89240778000095,None,426.89240778000095,None,,,,,,,,,,,,,025,2022-05-19_13h37.33.514,Main,2022.1.1,61.45235262462017,
negative,negative,2,j,l,,,,,,,,,7,17,143,9,,,,,,,,,main,2,2,2,negative,negative,l,l,1,0.6839674999937415,426.8958509999793,427.91127789998427,427.8946997000021,None,426.8958509999793,None,426.8958509999793,None,426.8958509999793,None,428.57791917999276,None,428.57791917999276,None,428.57791917999276,None,,,,,,,,,,,,,025,2022-05-19_13h37.33.514,Main,2022.1.1,61.45235262462017,
positive,negative,1,l,j,,,,,,,,,8,0,144,5,,,,,,,,,main,2,2,1,negative,positive,j,j,1,0.662833700014744,428.5810211999924,429.59454829996685,429.5779365999624,None,428.5810211999924,None,428.5810211999924,None,428.5810211999924,None,430.24233927997994,None,430.24233927997994,None,430.24233927997994,None,,,,,,,,,,,,,025,2022-05-19_13h37.33.514,Main,2022.1.1,61.45235262462017,
positive,positive,1,l,j,,,,,,,,,8,1,145,2,,,,,,,,,main,2,2,1,positive,positive,j,j,1,0.6313995000091381,430.245963399997,431.26119489996927,431.24460099998396,None,430.245963399997,None,430.245963399997,None,430.245963399997,None,431.87524277997437,None,431.87524277997437,None,431.87524277997437,None,,,,,,,,,,,,,025,2022-05-19_13h37.33.514,Main,2022.1.1,61.45235262462017,
neutral,negative,2,k,k,,,,,,,,,8,2,146,16,,,,,,,,,main,1,1,2,negative,neutral,k,k,1,0.648449000029359,431.8752723999787,432.87525859999005,432.87525859999005,None,431.8752723999787,None,431.8752723999787,None,431.8752723999787,None,433.52522777999985,None,433.52522777999985,None,433.52522777999985,None,,,,,,,,,,,,,025,2022-05-19_13h37.33.514,Main,2022.1.1,61.45235262462017,
positive,neutral,2,l,j,,,,,,,,,8,3,147,17,,,,,,,,,main,1,1,2,neutral,positive,j,j,1,0.7150384999695234,433.52527149999514,434.52529599994887,434.52529599994887,None,433.52527149999514,None,433.52527149999514,None,433.52527149999514,None,435.2419600800029,None,435.2419600800029,None,435.2419600800029,None,,,,,,,,,,,,,025,2022-05-19_13h37.33.514,Main,2022.1.1,61.45235262462017,
neutral,positive,2,k,k,,,,,,,,,8,4,148,13,,,,,,,,,main,1,1,2,positive,neutral,k,k,1,0.5487617999897338,435.24795949994586,436.2614770999644,436.2446028999984,None,435.24795949994586,None,435.24795949994586,None,435.24795949994586,None,436.7922433799948,None,436.7922433799948,None,436.7922433799948,None,,,,,,,,,,,,,025,2022-05-19_13h37.33.514,Main,2022.1.1,61.45235262462017,
negative,neutral,2,j,l,,,,,,,,,8,5,149,12,,,,,,,,,main,2,2,2,neutral,negative,l,l,1,0.6340586000005715,436.79560679994756,437.81110900000203,437.79451239999617,None,436.79560679994756,None,436.79560679994756,None,436.79560679994756,None,438.42785607995467,None,438.42785607995467,None,438.42785607995467,None,,,,,,,,,,,,,025,2022-05-19_13h37.33.514,Main,2022.1.1,61.45235262462017,
positive,negative,2,l,j,,,,,,,,,8,6,150,14,,,,,,,,,main,1,1,2,negative,positive,j,j,1,0.8127794999745674,438.43105319997994,439.4444066999713,439.4278512999881,None,438.43105319997994,None,438.43105319997994,None,438.43105319997994,None,440.2421259799856,None,440.2421259799856,None,440.2421259799856,None,,,,,,,,,,,,,025,2022-05-19_13h37.33.514,Main,2022.1.1,61.45235262462017,
negative,positive,1,j,l,,,,,,,,,8,7,151,6,,,,,,,,,main,2,2,1,positive,negative,l,l,1,0.8324712000321597,440.2483327999944,441.26102269999683,441.2444477999816,None,440.2483327999944,None,440.2483327999944,None,440.2483327999944,None,442.0754230799619,None,442.0754230799619,None,442.0754230799619,None,,,,,,,,,,,,,025,2022-05-19_13h37.33.514,Main,2022.1.1,61.45235262462017,
negative,negative,2,j,l,,,,,,,,,8,8,152,9,,,,,,,,,main,2,2,2,negative,negative,l,l,1,0.8123287999769673,442.0794649999589,443.0943656999734,443.0777546999743,None,442.0794649999589,None,442.0794649999589,None,442.0794649999589,None,443.89017397998833,None,443.89017397998833,None,443.89017397998833,None,,,,,,,,,,,,,025,2022-05-19_13h37.33.514,Main,2022.1.1,61.45235262462017,
negative,negative,1,j,l,,,,,,,,,8,9,153,0,,,,,,,,,main,1,1,1,negative,negative,l,l,1,0.733494900050573,443.8899180999724,444.8916818999569,444.8916818999569,None,443.8899180999724,None,443.8899180999724,None,443.8899180999724,None,445.6249894799665,None,445.6249894799665,None,445.6249894799665,None,,,,,,,,,,,,,025,2022-05-19_13h37.33.514,Main,2022.1.1,61.45235262462017,
neutral,neutral,2,k,k,,,,,,,,,8,10,154,10,,,,,,,,,main,2,2,2,neutral,neutral,k,k,1,0.5982507999869995,445.6250151999993,446.6250358999823,446.6250358999823,None,445.6250151999993,None,445.6250151999993,None,445.6250151999993,None,447.2249894800014,None,447.2249894800014,None,447.2249894800014,None,,,,,,,,,,,,,025,2022-05-19_13h37.33.514,Main,2022.1.1,61.45235262462017,
positive,neutral,1,l,j,,,,,,,,,8,11,155,8,,,,,,,,,main,2,2,1,neutral,positive,j,j,1,0.8154069000156596,447.22622679994674,448.2442308999598,448.2276423999574,None,447.22622679994674,None,447.22622679994674,None,447.22622679994674,None,449.04198237998645,None,449.04198237998645,None,449.04198237998645,None,,,,,,,,,,,,,025,2022-05-19_13h37.33.514,Main,2022.1.1,61.45235262462017,
positive,positive,2,l,j,,,,,,,,,8,12,156,11,,,,,,,,,main,1,1,2,positive,positive,j,j,1,0.7315052999765612,449.0608903999673,450.0608324999921,450.0442103999667,None,449.0608903999673,None,449.0608903999673,None,449.0608903999673,None,450.7749689799501,None,450.7749689799501,None,450.7749689799501,None,,,,,,,,,,,,,025,2022-05-19_13h37.33.514,Main,2022.1.1,61.45235262462017,
neutral,negative,1,k,k,,,,,,,,,8,13,157,7,,,,,,,,,main,1,1,1,negative,neutral,k,k,1,0.8318673999747261,450.7783457999467,451.7775185999926,451.7775185999926,None,450.7783457999467,None,450.7783457999467,None,450.7783457999467,None,452.608548179979,None,452.608548179979,None,452.608548179979,None,,,,,,,,,,,,,025,2022-05-19_13h37.33.514,Main,2022.1.1,61.45235262462017,
negative,positive,2,j,l,,,,,,,,,8,14,158,15,,,,,,,,,main,2,2,2,positive,negative,l,l,1,0.7986235999851488,452.6117388999555,453.6085266000009,453.6085266000009,None,452.6117388999555,None,452.6117388999555,None,452.6117388999555,None,454.4085017799633,None,454.4085017799633,None,454.4085017799633,None,,,,,,,,,,,,,025,2022-05-19_13h37.33.514,Main,2022.1.1,61.45235262462017,
neutral,neutral,1,k,k,,,,,,,,,8,15,159,1,,,,,,,,,main,1,1,1,neutral,neutral,k,k,1,0.8646207999554463,454.41254259995185,455.4273739999626,455.41083089995664,None,454.41254259995185,None,454.41254259995185,None,454.41254259995185,None,456.2747919799993,None,456.2747919799993,None,456.2747919799993,None,,,,,,,,,,,,,025,2022-05-19_13h37.33.514,Main,2022.1.1,61.45235262462017,
negative,neutral,1,j,l,,,,,,,,,8,16,160,3,,,,,,,,,main,2,2,1,neutral,negative,l,l,1,0.7319856000249274,456.2748166999663,457.2747864999692,457.2747864999692,None,456.2748166999663,None,456.2748166999663,None,456.2748166999663,None,458.0080983799533,None,458.0080983799533,None,458.0080983799533,None,,,,,,,,,,,,,025,2022-05-19_13h37.33.514,Main,2022.1.1,61.45235262462017,
neutral,positive,1,k,k,,,,,,,,,8,17,161,4,,,,,,,,,main,2,2,1,positive,neutral,k,k,1,0.8814817000529729,458.0087218999979,459.00833339995006,459.00833339995006,None,458.0087218999979,None,458.0087218999979,None,458.0087218999979,None,459.891404279985,None,459.891404279985,None,459.891404279985,None,,,,,,,,,,,,,025,2022-05-19_13h37.33.514,Main,2022.1.1,61.45235262462017,
negative,positive,1,j,l,,,,,,,,,9,0,162,6,,,,,,,,,main,1,1,1,positive,negative,l,l,1,0.7647063999902457,459.8957691999967,460.9106075000018,460.89399429998593,None,459.8957691999967,None,459.8957691999967,None,459.8957691999967,None,461.65864957998275,None,461.65864957998275,None,461.65864957998275,None,,,,,,,,,,,,,025,2022-05-19_13h37.33.514,Main,2022.1.1,61.45235262462017,
neutral,positive,2,k,k,,,,,,,,,9,1,163,13,,,,,,,,,main,1,1,2,positive,neutral,k,k,1,0.7003210000111721,461.66220209997846,462.67721189995063,462.6606355999829,None,461.66220209997846,None,461.66220209997846,None,461.66220209997846,None,463.3606606799993,None,463.3606606799993,None,463.3606606799993,None,,,,,,,,,,,,,025,2022-05-19_13h37.33.514,Main,2022.1.1,61.45235262462017,
neutral,neutral,1,k,k,,,,,,,,,9,2,164,1,,,,,,,,,main,2,2,1,neutral,neutral,k,k,1,0.8309168000123464,463.3653157999506,464.3772955999593,464.36068759998307,None,463.3653157999506,None,463.3653157999506,None,463.3653157999506,None,465.1940256799688,None,465.1940256799688,None,465.1940256799688,None,,,,,,,,,,,,,025,2022-05-19_13h37.33.514,Main,2022.1.1,61.45235262462017,
positive,neutral,1,l,j,,,,,,,,,9,3,165,8,,,,,,,,,main,2,2,1,neutral,positive,j,j,1,0.9128483000095002,465.1969581999583,466.21080649999203,466.1918719999958,None,465.1969581999583,None,465.1969581999583,None,465.1969581999583,None,467.1082427799818,None,467.1082427799818,None,467.1082427799818,None,,,,,,,,,,,,,025,2022-05-19_13h37.33.514,Main,2022.1.1,61.45235262462017,
negative,positive,2,j,l,,,,,,,,,9,4,166,15,,,,,,,,,main,2,2,2,positive,negative,l,l,1,0.6976376000093296,467.1143324999721,468.1248421999626,468.0912041999982,None,467.1143324999721,None,467.1143324999721,None,467.1143324999721,None,468.8078369799885,None,468.8078369799885,None,468.8078369799885,None,,,,,,,,,,,,,025,2022-05-19_13h37.33.514,Main,2022.1.1,61.45235262462017,
neutral,neutral,2,k,k,,,,,,,,,9,5,167,10,,,,,,,,,main,2,2,2,neutral,neutral,k,k,1,0.697723200020846,468.8084327999968,469.80784719996154,469.80784719996154,None,468.8084327999968,None,468.8084327999968,None,468.8084327999968,None,470.5078575799824,None,470.5078575799824,None,470.5078575799824,None,,,,,,,,,,,,,025,2022-05-19_13h37.33.514,Main,2022.1.1,61.45235262462017,
positive,positive,1,l,j,,,,,,,,,9,6,168,2,,,,,,,,,main,1,1,1,positive,positive,j,j,1,1.5320484999683686,470.50885839998955,471.50807109999005,471.50807109999005,None,470.50885839998955,None,470.50885839998955,None,470.50885839998955,None,473.04371009999886,None,473.04371009999886,None,473.04371009999886,None,,,,,,,,,,,,,025,2022-05-19_13h37.33.514,Main,2022.1.1,61.45235262462017,
negative,neutral,1,j,l,,,,,,,,,9,7,169,3,,,,,,,,,main,1,1,1,neutral,negative,l,l,1,0.7868438999867067,474.0417640999658,475.04365239996696,475.027015599946,None,474.0417640999658,None,474.0417640999658,None,474.0417640999658,None,475.82698437997607,None,475.82698437997607,None,475.82698437997607,None,,,,,,,,,,,,,025,2022-05-19_13h37.33.514,Main,2022.1.1,61.45235262462017,
negative,negative,2,j,l,,,,,,,,,9,8,170,9,,,,,,,,,main,1,1,2,negative,negative,l,l,1,0.8646831000223756,475.8301900999504,476.8435861999751,476.8269852999947,None,475.8301900999504,None,475.8301900999504,None,475.8301900999504,None,477.6936059799744,None,477.6936059799744,None,477.6936059799744,None,,,,,,,,,,,,,025,2022-05-19_13h37.33.514,Main,2022.1.1,61.45235262462017,
negative,neutral,2,j,l,,,,,,,,,9,9,171,12,,,,,,,,,main,1,1,2,neutral,negative,l,l,1,0.7963124000234529,477.69705199997406,478.7102257999941,478.69362879998516,None,477.69705199997406,None,477.69705199997406,None,477.69705199997406,None,479.49131727999776,None,479.49131727999776,None,479.49131727999776,None,,,,,,,,,,,,,025,2022-05-19_13h37.33.514,Main,2022.1.1,61.45235262462017,
neutral,positive,1,k,k,,,,,,,,,9,10,172,4,,,,,,,,,main,1,1,1,positive,neutral,k,k,1,0.6976038999855518,479.4989404999651,480.50768459995743,480.49101689999225,None,479.4989404999651,None,479.4989404999651,None,479.4989404999651,None,481.19099247998093,None,481.19099247998093,None,481.19099247998093,None,,,,,,,,,,,,,025,2022-05-19_13h37.33.514,Main,2022.1.1,61.45235262462017,
positive,negative,2,l,j,,,,,,,,,9,11,173,14,,,,,,,,,main,1,1,2,negative,positive,j,j,1,0.7808574999799021,481.1916615999653,482.1909389999928,482.1909389999928,None,481.1916615999653,None,481.1916615999653,None,481.1916615999653,None,482.9742474799976,None,482.9742474799976,None,482.9742474799976,None,,,,,,,,,,,,,025,2022-05-19_13h37.33.514,Main,2022.1.1,61.45235262462017,
positive,positive,2,l,j,,,,,,,,,9,12,174,11,,,,,,,,,main,1,1,2,positive,positive,j,j,1,0.6852995000081137,482.97662139998283,483.9909396999865,483.9742709999555,None,482.97662139998283,None,482.97662139998283,None,482.97662139998283,None,484.66015507997946,None,484.66015507997946,None,484.66015507997946,None,,,,,,,,,,,,,025,2022-05-19_13h37.33.514,Main,2022.1.1,61.45235262462017,
negative,negative,1,j,l,,,,,,,,,9,13,175,0,,,,,,,,,main,1,1,1,negative,negative,l,l,1,0.6786744999699295,484.66586099995766,485.67710419994546,485.6604508999735,None,484.66586099995766,None,484.66586099995766,None,484.66586099995766,None,486.34144957999234,None,486.34144957999234,None,486.34144957999234,None,,,,,,,,,,,,,025,2022-05-19_13h37.33.514,Main,2022.1.1,61.45235262462017,
positive,neutral,2,l,j,,,,,,,,,9,14,176,17,,,,,,,,,main,2,2,2,neutral,positive,j,j,1,0.73120929999277,486.3456045999774,487.3581019999692,487.3434640999767,None,486.3456045999774,None,486.3456045999774,None,486.3456045999774,None,488.07446357999,None,488.07446357999,None,488.07446357999,None,,,,,,,,,,,,,025,2022-05-19_13h37.33.514,Main,2022.1.1,61.45235262462017,
neutral,negative,1,k,k,,,,,,,,,9,15,177,7,,,,,,,,,main,2,2,1,negative,neutral,k,k,1,0.6989041999913752,488.0933538999525,489.09336099994835,489.06015479995403,None,488.0933538999525,None,488.0933538999525,None,488.0933538999525,None,489.77468957997627,None,489.77468957997627,None,489.77468957997627,None,,,,,,,,,,,,,025,2022-05-19_13h37.33.514,Main,2022.1.1,61.45235262462017,
neutral,negative,2,k,k,,,,,,,,,9,16,178,16,,,,,,,,,main,1,1,2,negative,neutral,k,k,1,0.8479291999829002,489.777936199971,490.79340719996253,490.77708699996583,None,489.777936199971,None,489.777936199971,None,489.777936199971,None,491.6243945799768,None,491.6243945799768,None,491.6243945799768,None,,,,,,,,,,,,,025,2022-05-19_13h37.33.514,Main,2022.1.1,61.45235262462017,
positive,negative,1,l,j,,,,,,,,,9,17,179,5,,,,,,,,,main,1,1,1,negative,positive,j,j,1,0.7483996999799274,491.62785029999213,492.64071929996135,492.6240545999608,None,491.62785029999213,None,491.62785029999213,None,491.62785029999213,None,493.3742370799999,None,493.3742370799999,None,493.3742370799999,None,,,,,,,,,,,,,025,2022-05-19_13h37.33.514,Main,2022.1.1,61.45235262462017,
neutral,negative,1,k,k,,,,,,,,,10,0,180,7,,,,,,,,,main,1,1,1,negative,neutral,k,k,1,0.581321699952241,493.3742080999655,494.37404539994895,494.37404539994895,None,493.3742080999655,None,493.3742080999655,None,493.3742080999655,None,494.9573233800009,None,494.9573233800009,None,494.9573233800009,None,,,,,,,,,,,,,025,2022-05-19_13h37.33.514,Main,2022.1.1,61.45235262462017,
neutral,negative,2,k,k,,,,,,,,,10,1,181,16,,,,,,,,,main,1,1,2,negative,neutral,k,k,1,0.7011167000164278,494.957448799978,495.95733999996446,495.95733999996446,None,494.957448799978,None,494.957448799978,None,494.957448799978,None,496.66006117996295,None,496.66006117996295,None,496.66006117996295,None,,,,,,,,,,,,,025,2022-05-19_13h37.33.514,Main,2022.1.1,61.45235262462017,
neutral,positive,2,k,k,,,,,,,,,10,2,182,13,,,,,,,,,main,1,1,2,positive,neutral,k,k,1,0.5790290999575518,496.6630911999964,497.6765583999804,497.65995479997946,None,496.6630911999964,None,496.6630911999964,None,496.6630911999964,None,498.24081017997815,None,498.24081017997815,None,498.24081017997815,None,,,,,,,,,,,,,025,2022-05-19_13h37.33.514,Main,2022.1.1,61.45235262462017,
negative,neutral,2,j,l,,,,,,,,,10,3,183,12,,,,,,,,,main,2,2,2,neutral,negative,l,l,1,0.7652484999853186,498.24728219996905,499.2601234999602,499.2432422999991,None,498.24728219996905,None,498.24728219996905,None,498.24728219996905,None,500.0075537799974,None,500.0075537799974,None,500.0075537799974,None,,,,,,,,,,,,,025,2022-05-19_13h37.33.514,Main,2022.1.1,61.45235262462017,
negative,positive,2,j,l,,,,,,,,,10,4,184,15,,,,,,,,,main,1,1,2,positive,negative,l,l,1,0.6818056000047363,500.01102679996984,501.026415899978,501.0098092999542,None,500.01102679996984,None,500.01102679996984,None,500.01102679996984,None,501.6908536799718,None,501.6908536799718,None,501.6908536799718,None,,,,,,,,,,,,,025,2022-05-19_13h37.33.514,Main,2022.1.1,61.45235262462017,
neutral,neutral,1,k,k,,,,,,,,,10,5,185,1,,,,,,,,,main,2,2,1,neutral,neutral,k,k,1,0.6980862999917008,501.69670789997326,502.70975709997583,502.6931135999621,None,501.69670789997326,None,501.69670789997326,None,501.69670789997326,None,503.3908073799801,None,503.3908073799801,None,503.3908073799801,None,,,,,,,,,,,,,025,2022-05-19_13h37.33.514,Main,2022.1.1,61.45235262462017,
negative,neutral,1,j,l,,,,,,,,,10,6,186,3,,,,,,,,,main,1,1,1,neutral,negative,l,l,1,0.6808345000026748,503.3947788999649,504.40712819999317,504.3904580999515,None,503.3947788999649,None,503.3947788999649,None,503.3947788999649,None,505.0737569799647,None,505.0737569799647,None,505.0737569799647,None,,,,,,,,,,,,,025,2022-05-19_13h37.33.514,Main,2022.1.1,61.45235262462017,
positive,positive,2,l,j,,,,,,,,,10,7,187,11,,,,,,,,,main,2,2,2,positive,positive,j,j,1,0.7987336000078358,505.0737703999621,506.0737568999757,506.0737568999757,None,505.0737703999621,None,505.0737703999621,None,505.0737703999621,None,506.87374427997275,None,506.87374427997275,None,506.87374427997275,None,,,,,,,,,,,,,025,2022-05-19_13h37.33.514,Main,2022.1.1,61.45235262462017,
neutral,positive,1,k,k,,,,,,,,,10,8,188,4,,,,,,,,,main,2,2,1,positive,neutral,k,k,1,0.7982163000269793,506.8746835999773,507.87376109999605,507.87376109999605,None,506.8746835999773,None,506.8746835999773,None,506.8746835999773,None,508.6737326799892,None,508.6737326799892,None,508.6737326799892,None,,,,,,,,,,,,,025,2022-05-19_13h37.33.514,Main,2022.1.1,61.45235262462017,
negative,positive,1,j,l,,,,,,,,,10,9,189,6,,,,,,,,,main,1,1,1,positive,negative,l,l,1,0.7987415000097826,508.6773060999694,509.67632699996466,509.67632699996466,None,508.6773060999694,None,508.6773060999694,None,508.6773060999694,None,510.47401908000467,None,510.47401908000467,None,510.47401908000467,None,,,,,,,,,,,,,025,2022-05-19_13h37.33.514,Main,2022.1.1,61.45235262462017,
positive,negative,1,l,j,,,,,,,,,10,10,190,5,,,,,,,,,main,1,1,1,negative,positive,j,j,1,1.0836866999743506,510.47741179994773,511.492864299973,511.47625859995605,None,510.47741179994773,None,510.47741179994773,None,510.47741179994773,None,512.5595797799876,None,512.5595797799876,None,512.5595797799876,None,,,,,,,,,,,,,025,2022-05-19_13h37.33.514,Main,2022.1.1,61.45235262462017,
neutral,neutral,2,k,k,,,,,,,,,10,11,191,10,,,,,,,,,main,2,2,2,neutral,neutral,k,k,1,0.6974862999632023,512.5636901999824,513.5739901999477,513.5595755999675,None,512.5636901999824,None,512.5636901999824,None,512.5636901999824,None,514.2595449799671,None,514.2595449799671,None,514.2595449799671,None,,,,,,,,,,,,,025,2022-05-19_13h37.33.514,Main,2022.1.1,61.45235262462017,
positive,positive,1,l,j,,,,,,,,,10,12,192,2,,,,,,,,,main,2,2,1,positive,positive,j,j,1,1.1455001999856904,514.2635513999849,515.2761200999958,515.2595459999866,None,514.2635513999849,None,514.2635513999849,None,514.2635513999849,None,516.4065452799666,None,516.4065452799666,None,516.4065452799666,None,,,,,,,,,,,,,025,2022-05-19_13h37.33.514,Main,2022.1.1,61.45235262462017,
positive,negative,2,l,j,,,,,,,,,10,13,193,14,,,,,,,,,main,2,2,2,negative,positive,j,j,1,0.8153940999764018,516.4173983999644,517.4259231999749,517.4070987000014,None,516.4173983999644,None,516.4173983999644,None,516.4173983999644,None,518.2237335799844,None,518.2237335799844,None,518.2237335799844,None,,,,,,,,,,,,,025,2022-05-19_13h37.33.514,Main,2022.1.1,61.45235262462017,
negative,negative,1,j,l,,,,,,,,,10,14,194,0,,,,,,,,,main,2,2,1,negative,negative,l,l,1,0.7827652999549173,518.226503999962,519.2402844999451,519.2070991999935,None,518.226503999962,None,518.226503999962,None,518.226503999962,None,520.0070423800032,None,520.0070423800032,None,520.0070423800032,None,,,,,,,,,,,,,025,2022-05-19_13h37.33.514,Main,2022.1.1,61.45235262462017,
negative,negative,2,j,l,,,,,,,,,10,15,195,9,,,,,,,,,main,2,2,2,negative,negative,l,l,1,1.0142824999638833,520.0237483999808,521.0237263999879,521.0070560999447,None,520.0237483999808,None,520.0237483999808,None,520.0237483999808,None,522.0236798799713,None,522.0236798799713,None,522.0236798799713,None,,,,,,,,,,,,,025,2022-05-19_13h37.33.514,Main,2022.1.1,61.45235262462017,
positive,neutral,1,l,j,,,,,,,,,10,16,196,8,,,,,,,,,main,1,1,1,neutral,positive,j,j,1,0.9817452999996021,522.0266493999516,523.0259612999507,523.0259612999507,None,522.0266493999516,None,522.0266493999516,None,522.0266493999516,None,524.0070044799475,None,524.0070044799475,None,524.0070044799475,None,,,,,,,,,,,,,025,2022-05-19_13h37.33.514,Main,2022.1.1,61.45235262462017,
positive,neutral,2,l,j,,,,,,,,,10,17,197,17,,,,,,,,,main,1,1,2,neutral,positive,j,j,1,0.7318510999903083,524.0100013999618,525.009280899947,525.009280899947,None,524.0100013999618,None,524.0100013999618,None,524.0100013999618,None,525.7403156799962,None,525.7403156799962,None,525.7403156799962,None,,,,,,,,,,,,,025,2022-05-19_13h37.33.514,Main,2022.1.1,61.45235262462017,
neutral,positive,1,k,k,,,,,,,,,11,0,198,4,,,,,,,,,main,2,2,1,positive,neutral,k,k,1,0.7018581000156701,525.7437535999925,526.742566299974,526.742566299974,None,525.7437535999925,None,525.7437535999925,None,525.7437535999925,None,527.4425076799932,None,527.4425076799932,None,527.4425076799932,None,,,,,,,,,,,,,025,2022-05-19_13h37.33.514,Main,2022.1.1,61.45235262462017,
negative,positive,1,j,l,,,,,,,,,11,1,199,6,,,,,,,,,main,1,1,1,positive,negative,l,l,1,1.061410300026182,527.4466200000024,528.456848999951,528.4399745999835,None,527.4466200000024,None,527.4466200000024,None,527.4466200000024,None,529.5065700799576,None,529.5065700799576,None,529.5065700799576,None,,,,,,,,,,,,,025,2022-05-19_13h37.33.514,Main,2022.1.1,61.45235262462017,
neutral,negative,1,k,k,,,,,,,,,11,2,200,7,,,,,,,,,main,1,1,1,negative,neutral,k,k,1,0.5988055000198074,529.5065998999635,530.5095106999506,530.4926005000016,None,529.5065998999635,None,529.5065998999635,None,529.5065998999635,None,531.1069405799615,None,531.1069405799615,None,531.1069405799615,None,,,,,,,,,,,,,025,2022-05-19_13h37.33.514,Main,2022.1.1,61.45235262462017,
negative,negative,2,j,l,,,,,,,,,11,3,201,9,,,,,,,,,main,2,2,2,negative,negative,l,l,1,0.5815903999609873,531.1239296999993,532.1258104000008,532.1072680999641,None,531.1239296999993,None,531.1239296999993,None,531.1239296999993,None,532.6900383799918,None,532.6900383799918,None,532.6900383799918,None,,,,,,,,,,,,,025,2022-05-19_13h37.33.514,Main,2022.1.1,61.45235262462017,
positive,neutral,2,l,j,,,,,,,,,11,4,202,17,,,,,,,,,main,2,2,2,neutral,positive,j,j,1,0.7322355000069365,532.7093706000014,533.7090766999754,533.6924864999601,None,532.7093706000014,None,532.7093706000014,None,532.7093706000014,None,534.4238057799637,None,534.4238057799637,None,534.4238057799637,None,,,,,,,,,,,,,025,2022-05-19_13h37.33.514,Main,2022.1.1,61.45235262462017,
negative,positive,2,j,l,,,,,,,,,11,5,203,15,,,,,,,,,main,1,1,2,positive,negative,l,j,0,0.7479515000013635,534.4273423999548,535.442475799995,535.4237635999452,None,534.4273423999548,None,534.4273423999548,None,534.4273423999548,None,536.1737837999826,None,536.1737837999826,None,536.1737837999826,None,,,,,,,,,,,,,025,2022-05-19_13h37.33.514,Main,2022.1.1,61.45235262462017,
positive,negative,1,l,j,,,,,,,,,11,6,204,5,,,,,,,,,main,2,2,1,negative,positive,j,j,1,0.6687618999858387,537.1733242999762,538.1733213999541,538.1567625000025,None,537.1733242999762,None,537.1733242999762,None,537.1733242999762,None,538.839734979975,None,538.839734979975,None,538.839734979975,None,,,,,,,,,,,,,025,2022-05-19_13h37.33.514,Main,2022.1.1,61.45235262462017,
neutral,positive,2,k,k,,,,,,,,,11,7,205,13,,,,,,,,,main,1,1,2,positive,neutral,k,k,1,0.699500699993223,538.8397789999726,539.8399893000023,539.8399893000023,None,538.8397789999726,None,538.8397789999726,None,538.8397789999726,None,540.5399535799631,None,540.5399535799631,None,540.5399535799631,None,,,,,,,,,,,,,025,2022-05-19_13h37.33.514,Main,2022.1.1,61.45235262462017,
positive,positive,2,l,j,,,,,,,,,11,8,206,11,,,,,,,,,main,1,1,2,positive,positive,j,j,1,0.7831451999954879,540.5415790999541,541.5563942999579,541.5397357999464,None,540.5415790999541,None,540.5415790999541,None,540.5415790999541,None,542.3256602799636,None,542.3256602799636,None,542.3256602799636,None,,,,,,,,,,,,,025,2022-05-19_13h37.33.514,Main,2022.1.1,61.45235262462017,
neutral,negative,2,k,k,,,,,,,,,11,9,207,16,,,,,,,,,main,2,2,2,negative,neutral,k,k,1,0.7126515999552794,542.3289275999996,543.3422226999537,543.3256367999711,None,542.3289275999996,None,542.3289275999996,None,542.3289275999996,None,544.039977679972,None,544.039977679972,None,544.039977679972,None,,,,,,,,,,,,,025,2022-05-19_13h37.33.514,Main,2022.1.1,61.45235262462017,
negative,neutral,1,j,l,,,,,,,,,11,10,208,3,,,,,,,,,main,1,1,1,neutral,negative,l,l,1,0.6817156000179239,544.0432782999706,545.0588310999447,545.0422567999922,None,544.0432782999706,None,544.0432782999706,None,544.0432782999706,None,545.7232822799822,None,545.7232822799822,None,545.7232822799822,None,,,,,,,,,,,,,025,2022-05-19_13h37.33.514,Main,2022.1.1,61.45235262462017,
negative,negative,1,j,l,,,,,,,,,11,11,209,0,,,,,,,,,main,2,2,1,negative,negative,l,l,1,0.5812258999794722,545.7272811000003,546.7421356999548,546.7255392999505,None,545.7272811000003,None,545.7272811000003,None,545.7272811000003,None,547.3065730799688,None,547.3065730799688,None,547.3065730799688,None,,,,,,,,,,,,,025,2022-05-19_13h37.33.514,Main,2022.1.1,61.45235262462017,
positive,neutral,1,l,j,,,,,,,,,11,12,210,8,,,,,,,,,main,2,2,1,neutral,positive,j,j,1,0.8315274999476969,547.3105194999953,548.3254239999806,548.3088376999949,None,547.3105194999953,None,547.3105194999953,None,547.3105194999953,None,549.1398740799748,None,549.1398740799748,None,549.1398740799748,None,,,,,,,,,,,,,025,2022-05-19_13h37.33.514,Main,2022.1.1,61.45235262462017,
negative,neutral,2,j,l,,,,,,,,,11,13,211,12,,,,,,,,,main,1,1,2,neutral,negative,l,l,1,0.831494499987457,549.1451192999957,550.1561509999447,550.1394988999818,None,549.1451192999957,None,549.1451192999957,None,549.1451192999957,None,550.9727906799642,None,550.9727906799642,None,550.9727906799642,None,,,,,,,,,,,,,025,2022-05-19_13h37.33.514,Main,2022.1.1,61.45235262462017,
positive,positive,1,l,j,,,,,,,,,11,14,212,2,,,,,,,,,main,2,2,1,positive,positive,j,j,1,0.9485088000074029,550.9728173999465,551.9728209999739,551.9728209999739,None,550.9728173999465,None,550.9728173999465,None,550.9728173999465,None,552.9227830799762,None,552.9227830799762,None,552.9227830799762,None,,,,,,,,,,,,,025,2022-05-19_13h37.33.514,Main,2022.1.1,61.45235262462017,
neutral,neutral,1,k,k,,,,,,,,,11,15,213,1,,,,,,,,,main,1,1,1,neutral,neutral,k,k,1,0.9008716000244021,552.9231293999474,553.922812099976,553.922812099976,None,552.9231293999474,None,552.9231293999474,None,552.9231293999474,None,554.8253916799556,None,554.8253916799556,None,554.8253916799556,None,,,,,,,,,,,,,025,2022-05-19_13h37.33.514,Main,2022.1.1,61.45235262462017,
positive,negative,2,l,j,,,,,,,,,11,16,214,14,,,,,,,,,main,2,2,2,negative,positive,j,j,1,0.7482839999720454,554.8280139999697,555.8419980999897,555.8254246999859,None,554.8280139999697,None,554.8280139999697,None,554.8280139999697,None,556.5752387799555,None,556.5752387799555,None,556.5752387799555,None,,,,,,,,,,,,,025,2022-05-19_13h37.33.514,Main,2022.1.1,61.45235262462017,
neutral,neutral,2,k,k,,,,,,,,,11,17,215,10,,,,,,,,,main,1,1,2,neutral,neutral,k,k,1,0.7152637999970466,556.5788545999676,557.5918956999667,557.5752973999479,None,556.5788545999676,None,556.5788545999676,None,556.5788545999676,None,558.2921275799861,None,558.2921275799861,None,558.2921275799861,None,,,,,,,,,,,,,025,2022-05-19_13h37.33.514,Main,2022.1.1,61.45235262462017,
negative,positive,1,j,l,,,,,,,,,12,0,216,6,,,,,,,,,main,2,2,1,positive,negative,l,l,1,1.0328822000301443,558.2962464999873,559.3085216999752,559.2919229999534,None,558.2962464999873,None,558.2962464999873,None,558.2962464999873,None,560.3251107799704,None,560.3251107799704,None,560.3251107799704,None,,,,,,,,,,,,,025,2022-05-19_13h37.33.514,Main,2022.1.1,61.45235262462017,
positive,neutral,1,l,j,,,,,,,,,12,1,217,8,,,,,,,,,main,2,2,1,neutral,positive,j,j,1,0.8112648000242189,560.3296762999962,561.341865299968,561.325251000002,None,560.3296762999962,None,560.3296762999962,None,560.3296762999962,None,562.1392222799593,None,562.1392222799593,None,562.1392222799593,None,,,,,,,,,,,,,025,2022-05-19_13h37.33.514,Main,2022.1.1,61.45235262462017,
positive,positive,2,l,j,,,,,,,,,12,2,218,11,,,,,,,,,main,1,1,2,positive,positive,j,j,1,0.9152105000102893,562.1392505999538,563.1392183999997,563.1392183999997,None,562.1392505999538,None,562.1392505999538,None,562.1392505999538,None,564.0558945799828,None,564.0558945799828,None,564.0558945799828,None,,,,,,,,,,,,,025,2022-05-19_13h37.33.514,Main,2022.1.1,61.45235262462017,
positive,negative,2,l,j,,,,,,,,,12,3,219,14,,,,,,,,,main,2,2,2,negative,positive,j,j,1,0.6148449999745935,564.0564409999643,565.0559074999765,565.0559074999765,None,564.0564409999643,None,564.0564409999643,None,564.0564409999643,None,565.6725676799658,None,565.6725676799658,None,565.6725676799658,None,,,,,,,,,,,,,025,2022-05-19_13h37.33.514,Main,2022.1.1,61.45235262462017,
negative,negative,1,j,l,,,,,,,,,12,4,220,0,,,,,,,,,main,2,2,1,negative,negative,l,l,1,0.8331623999984004,565.6758312999737,566.6753480999614,566.6753480999614,None,565.6758312999737,None,565.6758312999737,None,565.6758312999737,None,567.5061722799553,None,567.5061722799553,None,567.5061722799553,None,,,,,,,,,,,,,025,2022-05-19_13h37.33.514,Main,2022.1.1,61.45235262462017,
neutral,neutral,2,k,k,,,,,,,,,12,5,221,10,,,,,,,,,main,2,2,2,neutral,neutral,k,k,1,0.8504983999882825,567.5126674999483,568.525368099974,568.5087256999686,None,567.5126674999483,None,567.5126674999483,None,567.5126674999483,None,569.358895080001,None,569.358895080001,None,569.358895080001,None,,,,,,,,,,,,,025,2022-05-19_13h37.33.514,Main,2022.1.1,61.45235262462017,
negative,negative,2,j,l,,,,,,,,,12,6,222,9,,,,,,,,,main,2,2,2,negative,negative,l,l,1,0.8647940999944694,569.3626508999732,570.3730347999954,570.3584784999839,None,569.3626508999732,None,569.3626508999732,None,569.3626508999732,None,571.2249425799935,None,571.2249425799935,None,571.2249425799935,None,,,,,,,,,,,,,025,2022-05-19_13h37.33.514,Main,2022.1.1,61.45235262462017,
positive,positive,1,l,j,,,,,,,,,12,7,223,2,,,,,,,,,main,2,2,1,positive,positive,j,j,1,0.6972971999784932,571.22910149995,572.2416049999883,572.2250314999837,None,571.22910149995,None,571.22910149995,None,571.22910149995,None,572.9248507800046,None,572.9248507800046,None,572.9248507800046,None,,,,,,,,,,,,,025,2022-05-19_13h37.33.514,Main,2022.1.1,61.45235262462017,
negative,neutral,2,j,l,,,,,,,,,12,8,224,12,,,,,,,,,main,1,1,2,neutral,negative,l,l,1,0.6626389999873936,572.9285638000001,573.9389981999993,573.9223305999767,None,572.9285638000001,None,572.9285638000001,None,572.9285638000001,None,574.5889732799958,None,574.5889732799958,None,574.5889732799958,None,,,,,,,,,,,,,025,2022-05-19_13h37.33.514,Main,2022.1.1,61.45235262462017,
