target,distractor,set,ans1,ans2,rep_loop2.thisRepN,rep_loop2.thisTrialN,rep_loop2.thisN,rep_loop2.thisIndex,flanker_prac_loop.thisRepN,flanker_prac_loop.thisTrialN,flanker_prac_loop.thisN,flanker_prac_loop.thisIndex,flanker_main_loop.thisRepN,flanker_main_loop.thisTrialN,flanker_main_loop.thisN,flanker_main_loop.thisIndex,fl_inst_resp.keys,fl_inst_resp.rt,sound_1.started,sound_1.stopped,image_4.started,image_4.stopped,back_2.started,back_2.stopped,main_prac,fl_cold,fl_colt,fl_set,fl_dcond,fl_tcond,fl_ans,fl_res,fl_corr,fl_rt,fix_fl.started,fix_fl.stopped,targ.started,targ.stopped,j_button.started,j_button.stopped,k_button.started,k_button.stopped,l_button.started,l_button.stopped,j_button2.started,j_button2.stopped,k_button2.started,k_button2.stopped,l_button2.started,l_button2.stopped,mainback.started,mainback.stopped,key_resp.keys,mouse_6.x,mouse_6.y,mouse_6.leftButton,mouse_6.midButton,mouse_6.rightButton,mouse_6.started,mouse_6.stopped,text_2.started,text_2.stopped,id*,date,expName,psychopyVersion,frameRate,
,,,,,0,0,0,0,,,,,,,,,space,53.45300199999474,20.36558965999284,None,73.8480533999973,None,,,,,,,,,,,,,,,,,,,,,,,,,,,,,,,,,,,,,,,,,026,2022-05-19_19h20.35.255,Main,2022.1.1,60.18411524603435,
negative,negative,2,j,l,,,,,0,0,0,9,,,,,,,,,,,77.21441640000558,None,prac,2,2,2,negative,negative,j,j,1,1.3486204000073485,79.24791579996236,80.26175129995681,80.24539379996713,None,79.24791579996236,None,79.24791579996236,None,79.24791579996236,None,81.59535135996411,None,81.59535135996411,None,81.59535135996411,None,,,,,,,,,,,,,026,2022-05-19_19h20.35.255,Main,2022.1.1,60.18411524603435,
positive,positive,2,l,j,,,,,0,1,1,11,,,,,,,,,,,,,prac,2,2,2,positive,positive,l,l,1,1.1017061999882571,81.60051550000207,82.6142467999598,82.59759489999851,None,81.60051550000207,None,81.60051550000207,None,81.60051550000207,None,83.69530726001248,None,83.69530726001248,None,83.69530726001248,None,,,,,,,,,,,,,026,2022-05-19_19h20.35.255,Main,2022.1.1,60.18411524603435,
negative,neutral,1,j,l,,,,,0,2,2,3,,,,,,,,,,,,,prac,1,1,1,neutral,negative,j,j,1,1.0102727999910712,83.7151148999692,84.71421359997476,84.69754099997226,None,83.7151148999692,None,83.7151148999692,None,83.7151148999692,None,85.71193075999035,None,85.71193075999035,None,85.71193075999035,None,,,,,,,,,,,,,026,2022-05-19_19h20.35.255,Main,2022.1.1,60.18411524603435,
neutral,negative,2,k,k,,,,,0,3,3,16,,,,,,,,,,,,,prac,1,1,2,negative,neutral,k,k,1,0.9844267000444233,85.72258679999504,86.73075879999669,86.69751999998698,None,85.72258679999504,None,85.72258679999504,None,85.72258679999504,None,87.69752446001512,None,87.69752446001512,None,87.69752446001512,None,,,,,,,,,,,,,026,2022-05-19_19h20.35.255,Main,2022.1.1,60.18411524603435,
neutral,positive,2,k,k,,,,,0,4,4,13,,,,,,,,,,,,,prac,2,2,2,positive,neutral,k,k,1,0.7962701999931596,87.70737049996387,88.71150380000472,88.69483059999766,None,87.70737049996387,None,87.70737049996387,None,87.70737049996387,None,89.4948553599941,None,89.4948553599941,None,89.4948553599941,None,,,,,,,,,,,,,026,2022-05-19_19h20.35.255,Main,2022.1.1,60.18411524603435,
negative,positive,1,j,l,,,,,0,5,5,6,,,,,,,,,,,,,prac,2,2,1,positive,negative,j,j,1,0.8000644999556243,89.50484199996572,90.51152409997303,90.49507399997674,None,89.50484199996572,None,89.50484199996572,None,89.50484199996572,None,91.29541115996544,None,91.29541115996544,None,91.29541115996544,None,,,,,,,,,,,,,026,2022-05-19_19h20.35.255,Main,2022.1.1,60.18411524603435,
neutral,neutral,1,k,k,,,,,0,6,6,1,,,,,,,,,,,,,prac,2,2,1,neutral,neutral,k,k,1,0.8147837999858893,91.30488409998361,92.31146050000098,92.29479789995821,None,91.30488409998361,None,91.30488409998361,None,91.30488409998361,None,93.11151475998922,None,93.11151475998922,None,93.11151475998922,None,,,,,,,,,,,,,026,2022-05-19_19h20.35.255,Main,2022.1.1,60.18411524603435,
negative,negative,1,j,l,,,,,0,7,7,0,,,,,,,,,,,,,prac,1,1,1,negative,negative,j,j,1,0.7995432000025176,93.12069069995778,94.13067509996472,94.11407209996833,None,93.12069069995778,None,93.12069069995778,None,93.12069069995778,None,94.91315755997202,None,94.91315755997202,None,94.91315755997202,None,,,,,,,,,,,,,026,2022-05-19_19h20.35.255,Main,2022.1.1,60.18411524603435,
neutral,neutral,2,k,k,,,,,0,8,8,10,,,,,,,,,,,,,prac,1,1,2,neutral,neutral,k,k,1,0.8324262000387534,94.91861900000367,95.93058539996855,95.91401000000769,None,94.91861900000367,None,94.91861900000367,None,94.91861900000367,None,96.74727725998382,None,96.74727725998382,None,96.74727725998382,None,,,,,,,,,,,,,026,2022-05-19_19h20.35.255,Main,2022.1.1,60.18411524603435,
neutral,negative,1,k,k,,,,,0,9,9,7,,,,,,,,,,,,,prac,2,2,1,negative,neutral,k,k,1,0.8040909999981523,96.7513468999532,97.76388629997382,97.7472712000017,None,96.7513468999532,None,96.7513468999532,None,96.7513468999532,None,98.54936695999349,None,98.54936695999349,None,98.54936695999349,None,,,,,,,,,,,,,026,2022-05-19_19h20.35.255,Main,2022.1.1,60.18411524603435,
neutral,positive,1,k,k,,,,,0,10,10,4,,,,,,,,,,,,,prac,1,1,1,positive,neutral,k,k,1,0.7752628000453115,98.57016609999118,99.58056929998565,99.54723039997043,None,98.57016609999118,None,98.57016609999118,None,98.57016609999118,None,100.32832626001327,None,100.32832626001327,None,100.32832626001327,None,,,,,,,,,,,,,026,2022-05-19_19h20.35.255,Main,2022.1.1,60.18411524603435,
positive,negative,2,l,j,,,,,0,11,11,14,,,,,,,,,,,,,prac,1,1,2,negative,positive,l,l,1,0.6806175999809057,100.34419589996105,101.34481539996341,101.32817769999383,None,100.34419589996105,None,100.34419589996105,None,100.34419589996105,None,102.0112676599936,None,102.0112676599936,None,102.0112676599936,None,,,,,,,,,,,,,026,2022-05-19_19h20.35.255,Main,2022.1.1,60.18411524603435,
positive,positive,1,l,j,,,,,0,12,12,2,,,,,,,,,,,,,prac,2,2,1,positive,positive,l,l,1,0.6819730999995954,102.01178780000191,103.01123639999423,103.01123639999423,None,102.01178780000191,None,102.01178780000191,None,102.01178780000191,None,103.69457885999581,None,103.69457885999581,None,103.69457885999581,None,,,,,,,,,,,,,026,2022-05-19_19h20.35.255,Main,2022.1.1,60.18411524603435,
negative,positive,2,j,l,,,,,0,13,13,15,,,,,,,,,,,,,prac,2,2,2,positive,negative,j,j,1,0.7319265000405721,103.694648100005,104.69456589996116,104.69456589996116,None,103.694648100005,None,103.694648100005,None,103.694648100005,None,105.42796485997387,None,105.42796485997387,None,105.42796485997387,None,,,,,,,,,,,,,026,2022-05-19_19h20.35.255,Main,2022.1.1,60.18411524603435,
negative,neutral,2,j,l,,,,,0,14,14,12,,,,,,,,,,,,,prac,1,1,2,neutral,negative,j,j,1,0.6347122000297531,105.43335669999942,106.44708879996324,106.41380639997078,None,105.43335669999942,None,105.43335669999942,None,105.43335669999942,None,107.06375795996864,None,107.06375795996864,None,107.06375795996864,None,,,,,,,,,,,,,026,2022-05-19_19h20.35.255,Main,2022.1.1,60.18411524603435,
positive,neutral,1,l,j,,,,,0,15,15,8,,,,,,,,,,,,,prac,2,2,1,neutral,positive,l,k,0,0.8152120000449941,107.0665078999591,108.08036620001076,108.06374740001047,None,107.0665078999591,None,107.0665078999591,None,107.0665078999591,None,108.8863621999626,None,108.8863621999626,None,108.8863621999626,None,,,,,,,,,,,,,026,2022-05-19_19h20.35.255,Main,2022.1.1,60.18411524603435,
positive,negative,1,l,j,,,,,0,16,16,5,,,,,,,,,,,,,prac,1,1,1,negative,positive,l,l,1,0.9366248000296764,109.89578779996373,110.8969347999664,110.88036529999226,None,109.89578779996373,None,109.89578779996373,None,109.89578779996373,None,111.83028306001215,None,111.83028306001215,None,111.83028306001215,None,,,,,,,,,,,,,026,2022-05-19_19h20.35.255,Main,2022.1.1,60.18411524603435,
positive,neutral,2,l,j,,,,,0,17,17,17,,,,,,,,,,,,,prac,1,1,2,neutral,positive,l,l,1,0.6626598000293598,111.83434369997121,112.83498599997256,112.82591259997571,None,111.83434369997121,None,111.83434369997121,None,111.83434369997121,None,113.49437195998034,None,113.49437195998034,None,113.49437195998034,None,,,,,,,,,,,,,026,2022-05-19_19h20.35.255,Main,2022.1.1,60.18411524603435,
positive,neutral,2,l,j,,,,,1,0,18,17,,,,,,,,,,,,,prac,2,2,2,neutral,positive,l,l,1,0.6031884999829344,113.50184300000547,114.51100609998684,114.49458910000976,None,113.50184300000547,None,113.50184300000547,None,113.50184300000547,None,115.09441666000639,None,115.09441666000639,None,115.09441666000639,None,,,,,,,,,,,,,026,2022-05-19_19h20.35.255,Main,2022.1.1,60.18411524603435,
neutral,negative,2,k,k,,,,,1,1,19,16,,,,,,,,,,,,,prac,2,2,2,negative,neutral,k,k,1,0.7439605000545271,115.10573879996082,116.11098070000298,116.09430259995861,None,115.10573879996082,None,115.10573879996082,None,115.10573879996082,None,116.8443299599865,None,116.8443299599865,None,116.8443299599865,None,,,,,,,,,,,,,026,2022-05-19_19h20.35.255,Main,2022.1.1,60.18411524603435,
neutral,positive,1,k,k,,,,,1,2,20,4,,,,,,,,,,,,,prac,2,2,1,positive,neutral,k,k,1,0.8512859999900684,116.84744469996076,117.84684339998057,117.83026709995465,None,116.84744469996076,None,116.84744469996076,None,116.84744469996076,None,118.69689055996132,None,118.69689055996132,None,118.69689055996132,None,,,,,,,,,,,,,026,2022-05-19_19h20.35.255,Main,2022.1.1,60.18411524603435,
neutral,neutral,2,k,k,,,,,1,3,21,10,,,,,,,,,,,,,prac,2,2,2,neutral,neutral,k,k,1,0.5462624999927357,118.6996406999533,119.71343489998253,119.69682700000703,None,118.6996406999533,None,118.6996406999533,None,118.6996406999533,None,120.24457015997613,None,120.24457015997613,None,120.24457015997613,None,,,,,,,,,,,,,026,2022-05-19_19h20.35.255,Main,2022.1.1,60.18411524603435,
negative,negative,1,j,l,,,,,1,4,22,0,,,,,,,,,,,,,prac,2,2,1,negative,negative,j,j,1,0.6344106000033207,120.24855229997775,121.26370589999715,121.24685110000428,None,120.24855229997775,None,120.24855229997775,None,120.24855229997775,None,121.88010995996301,None,121.88010995996301,None,121.88010995996301,None,,,,,,,,,,,,,026,2022-05-19_19h20.35.255,Main,2022.1.1,60.18411524603435,
negative,positive,1,j,l,,,,,1,5,23,6,,,,,,,,,,,,,prac,2,2,1,positive,negative,j,j,1,0.6169071000185795,121.88337349996436,122.89671489998,122.88014219998149,None,121.88337349996436,None,121.88337349996436,None,121.88337349996436,None,123.49459855995956,None,123.49459855995956,None,123.49459855995956,None,,,,,,,,,,,,,026,2022-05-19_19h20.35.255,Main,2022.1.1,60.18411524603435,
negative,neutral,1,j,l,,,,,1,6,24,3,,,,,,,,,,,,,prac,2,2,1,neutral,negative,j,j,1,0.5606986000202596,123.50145619997056,124.51332759996876,124.49674709996907,None,123.50145619997056,None,123.50145619997056,None,123.50145619997056,None,125.0608062599611,None,125.0608062599611,None,125.0608062599611,None,,,,,,,,,,,,,026,2022-05-19_19h20.35.255,Main,2022.1.1,60.18411524603435,
neutral,negative,1,k,k,,,,,1,7,25,7,,,,,,,,,,,,,prac,2,2,1,negative,neutral,k,k,1,0.8320065999869257,125.06075999996392,126.06075810000766,126.06075810000766,None,125.06075999996392,None,125.06075999996392,None,125.06075999996392,None,126.89410685996408,None,126.89410685996408,None,126.89410685996408,None,,,,,,,,,,,,,026,2022-05-19_19h20.35.255,Main,2022.1.1,60.18411524603435,
negative,positive,2,j,l,,,,,1,8,26,15,,,,,,,,,,,,,prac,1,1,2,positive,negative,j,j,1,0.7986158999847248,126.90220779995434,127.91074829996796,127.87741019995883,None,126.90220779995434,None,126.90220779995434,None,126.90220779995434,None,128.69406555998722,None,128.69406555998722,None,128.69406555998722,None,,,,,,,,,,,,,026,2022-05-19_19h20.35.255,Main,2022.1.1,60.18411524603435,
neutral,neutral,1,k,k,,,,,1,9,27,1,,,,,,,,,,,,,prac,2,2,1,neutral,neutral,k,k,1,0.7496497000101954,128.69405569997616,129.69405049999477,129.69405049999477,None,128.69405569997616,None,128.69405569997616,None,128.69405569997616,None,130.44454176000437,None,130.44454176000437,None,130.44454176000437,None,,,,,,,,,,,,,026,2022-05-19_19h20.35.255,Main,2022.1.1,60.18411524603435,
positive,neutral,1,l,j,,,,,1,10,28,8,,,,,,,,,,,,,prac,2,2,1,neutral,positive,l,l,1,0.8484504999942146,130.45039349998115,131.46325779997278,131.4466664000065,None,130.45039349998115,None,130.45039349998115,None,130.45039349998115,None,132.2943807599775,None,132.2943807599775,None,132.2943807599775,None,,,,,,,,,,,,,026,2022-05-19_19h20.35.255,Main,2022.1.1,60.18411524603435,
positive,negative,2,l,j,,,,,1,11,29,14,,,,,,,,,,,,,prac,2,2,2,negative,positive,l,l,1,-0.6853755000047386,132.30007589998422,None,None,None,132.30007589998422,None,132.30007589998422,None,132.30007589998422,None,132.61332269996637,None,132.61332269996637,None,132.61332269996637,None,,,,,,,,,,,,,026,2022-05-19_19h20.35.255,Main,2022.1.1,60.18411524603435,
positive,positive,1,l,j,,,,,1,12,30,2,,,,,,,,,,,,,prac,1,1,1,positive,positive,l,l,1,0.8013060000375845,135.6115021999576,136.61307879997185,136.5942298999871,None,135.6115021999576,None,135.6115021999576,None,135.6115021999576,None,137.41052456000472,None,137.41052456000472,None,137.41052456000472,None,,,,,,,,,,,,,026,2022-05-19_19h20.35.255,Main,2022.1.1,60.18411524603435,
negative,neutral,2,j,l,,,,,1,13,31,12,,,,,,,,,,,,,prac,2,2,2,neutral,negative,j,j,1,0.7478870999766514,137.41082759998972,138.4107215999975,138.4107215999975,None,137.41082759998972,None,137.41082759998972,None,137.41082759998972,None,139.1605155599944,None,139.1605155599944,None,139.1605155599944,None,,,,,,,,,,,,,026,2022-05-19_19h20.35.255,Main,2022.1.1,60.18411524603435,
negative,negative,2,j,l,,,,,1,14,32,9,,,,,,,,,,,,,prac,1,1,2,negative,negative,j,j,1,0.6820860999869183,139.16051009995863,140.16059310000855,140.16059310000855,None,139.16051009995863,None,139.16051009995863,None,139.16051009995863,None,140.84381236000337,None,140.84381236000337,None,140.84381236000337,None,,,,,,,,,,,,,026,2022-05-19_19h20.35.255,Main,2022.1.1,60.18411524603435,
neutral,positive,2,k,k,,,,,1,15,33,13,,,,,,,,,,,,,prac,1,1,2,positive,neutral,k,k,1,0.7156826999853365,140.8438143999665,141.84644079999998,141.84644079999998,None,140.8438143999665,None,140.8438143999665,None,140.8438143999665,None,142.56050505999593,None,142.56050505999593,None,142.56050505999593,None,,,,,,,,,,,,,026,2022-05-19_19h20.35.255,Main,2022.1.1,60.18411524603435,
positive,positive,2,l,j,,,,,1,16,34,11,,,,,,,,,,,,,prac,2,2,2,positive,positive,l,l,1,0.8654550000210293,142.56388329999754,143.5629721999867,143.5629721999867,None,142.56388329999754,None,142.56388329999754,None,142.56388329999754,None,144.42743655996748,None,144.42743655996748,None,144.42743655996748,None,,,,,,,,,,,,,026,2022-05-19_19h20.35.255,Main,2022.1.1,60.18411524603435,
positive,negative,1,l,j,,,,,1,17,35,5,,,,,,,,,,,,,prac,2,2,1,negative,positive,l,l,1,0.7333266000496224,144.4314447999932,145.44628729997203,145.43016309995437,None,144.4314447999932,None,144.4314447999932,None,144.4314447999932,None,146.16288375998266,None,146.16288375998266,None,146.16288375998266,None,,,,,,,,,,,,,026,2022-05-19_19h20.35.255,Main,2022.1.1,60.18411524603435,
,,,,,,,,,,,,,,,,,,,,,,,,,,,,,,,,,,,,,,,,,,,,,,,,,,,146.16288570000324,None,None,,,,,,,,,,026,2022-05-19_19h20.35.255,Main,2022.1.1,60.18411524603435,
,,,,,,,,,,,,,,,,,,,,,,,,,,,,,,,,,,,,,,,,,,,,,,,,,,,,,,0.712963,-0.36481482,1,0,0,0.010421659972053021,None,,,026,2022-05-19_19h20.35.255,Main,2022.1.1,60.18411524603435,
negative,positive,2,j,l,,,,,,,,,0,0,0,15,,,,,,,149.71024139999645,None,main,1,1,2,positive,negative,j,j,1,0.8299413999775425,151.71801489999052,152.7294643999776,152.71284709998872,None,151.71801489999052,None,151.71801489999052,None,151.71801489999052,None,153.54536115999218,None,153.54536115999218,None,153.54536115999218,None,,,,,,,,,,,,,026,2022-05-19_19h20.35.255,Main,2022.1.1,60.18411524603435,
negative,neutral,1,j,l,,,,,,,,,0,1,1,3,,,,,,,,,main,1,1,1,neutral,negative,j,j,1,1.130287199979648,153.550305199984,154.56267139996635,154.54615219996776,None,153.550305199984,None,153.550305199984,None,153.550305199984,None,155.67944245999098,None,155.67944245999098,None,155.67944245999098,None,,,,,,,,,,,,,026,2022-05-19_19h20.35.255,Main,2022.1.1,60.18411524603435,
negative,negative,2,j,l,,,,,,,,,0,2,2,9,,,,,,,,,main,1,1,2,negative,negative,j,j,1,0.6957370000309311,155.68245929997647,156.69601429998875,156.67939070001012,None,155.68245929997647,None,155.68245929997647,None,155.68245929997647,None,157.37684635996703,None,157.37684635996703,None,157.37684635996703,None,,,,,,,,,,,,,026,2022-05-19_19h20.35.255,Main,2022.1.1,60.18411524603435,
positive,neutral,1,l,j,,,,,,,,,0,3,3,8,,,,,,,,,main,2,2,1,neutral,positive,l,l,1,1.2487632999545895,157.38325710000936,158.3961302000098,158.37691779999295,None,157.38325710000936,None,157.38325710000936,None,157.38325710000936,None,159.62708565998474,None,159.62708565998474,None,159.62708565998474,None,,,,,,,,,,,,,026,2022-05-19_19h20.35.255,Main,2022.1.1,60.18411524603435,
positive,negative,1,l,j,,,,,,,,,0,4,4,5,,,,,,,,,main,2,2,1,negative,positive,l,l,1,0.7015161000308581,159.63065050001023,160.64336509996792,160.62670029996661,None,159.63065050001023,None,159.63065050001023,None,159.63065050001023,None,161.3267037599988,None,161.3267037599988,None,161.3267037599988,None,,,,,,,,,,,,,026,2022-05-19_19h20.35.255,Main,2022.1.1,60.18411524603435,
neutral,positive,1,k,k,,,,,,,,,0,5,5,4,,,,,,,,,main,1,1,1,positive,neutral,k,k,1,0.7620870999526232,161.32968829997117,162.34343179996358,162.32674089999637,None,161.32968829997117,None,161.32968829997117,None,161.32968829997117,None,163.09370115997154,None,163.09370115997154,None,163.09370115997154,None,,,,,,,,,,,,,026,2022-05-19_19h20.35.255,Main,2022.1.1,60.18411524603435,
neutral,positive,2,k,k,,,,,,,,,0,6,6,13,,,,,,,,,main,2,2,2,positive,neutral,k,k,1,0.733863300003577,163.0974181999918,164.11257110000588,164.0959421999869,None,163.0974181999918,None,163.0974181999918,None,163.0974181999918,None,164.8292001599737,None,164.8292001599737,None,164.8292001599737,None,,,,,,,,,,,,,026,2022-05-19_19h20.35.255,Main,2022.1.1,60.18411524603435,
negative,negative,1,j,l,,,,,,,,,0,7,7,0,,,,,,,,,main,1,1,1,negative,negative,j,j,1,0.7459707999951206,164.8325213000062,165.84586439997656,165.8292264000047,None,164.8325213000062,None,164.8325213000062,None,164.8325213000062,None,166.57693905998605,None,166.57693905998605,None,166.57693905998605,None,,,,,,,,,,,,,026,2022-05-19_19h20.35.255,Main,2022.1.1,60.18411524603435,
neutral,neutral,1,k,k,,,,,,,,,0,8,8,1,,,,,,,,,main,2,2,1,neutral,neutral,k,k,1,0.8990676999674179,166.58003209996969,167.5792157999822,167.5792157999822,None,166.58003209996969,None,166.58003209996969,None,166.58003209996969,None,168.476623759995,None,168.476623759995,None,168.476623759995,None,,,,,,,,,,,,,026,2022-05-19_19h20.35.255,Main,2022.1.1,60.18411524603435,
positive,positive,1,l,j,,,,,,,,,0,9,9,2,,,,,,,,,main,2,2,1,positive,positive,l,l,1,0.7647199000348337,168.48339359997772,169.4957847999758,169.47914049995597,None,168.48339359997772,None,168.48339359997772,None,168.48339359997772,None,170.2436396599922,None,170.2436396599922,None,170.2436396599922,None,,,,,,,,,,,,,026,2022-05-19_19h20.35.255,Main,2022.1.1,60.18411524603435,
neutral,negative,1,k,k,,,,,,,,,0,10,10,7,,,,,,,,,main,2,2,1,negative,neutral,k,k,1,0.6815467000124045,170.24724649998825,171.25983799999813,171.24317339999834,None,170.24724649998825,None,170.24724649998825,None,170.24724649998825,None,171.92681645996055,None,171.92681645996055,None,171.92681645996055,None,,,,,,,,,,,,,026,2022-05-19_19h20.35.255,Main,2022.1.1,60.18411524603435,
positive,negative,2,l,j,,,,,,,,,0,11,11,14,,,,,,,,,main,1,1,2,negative,positive,l,l,1,0.7329873000271618,171.92790789995342,172.94317469996167,172.92674439999973,None,171.92790789995342,None,171.92790789995342,None,171.92790789995342,None,173.66239995996585,None,173.66239995996585,None,173.66239995996585,None,,,,,,,,,,,,,026,2022-05-19_19h20.35.255,Main,2022.1.1,60.18411524603435,
positive,positive,2,l,j,,,,,,,,,0,12,12,11,,,,,,,,,main,2,2,2,positive,positive,l,l,1,0.6290491000399925,173.66653290000977,174.67897579999408,174.66241499996977,None,173.66653290000977,None,173.66653290000977,None,173.66653290000977,None,175.29345166000422,None,175.29345166000422,None,175.29345166000422,None,,,,,,,,,,,,,026,2022-05-19_19h20.35.255,Main,2022.1.1,60.18411524603435,
negative,neutral,2,j,l,,,,,,,,,0,13,13,12,,,,,,,,,main,2,2,2,neutral,negative,j,j,1,0.7144497000263073,175.2972868999932,176.3122828999767,176.29573109996272,None,175.2972868999932,None,175.2972868999932,None,175.2972868999932,None,177.00979815998,None,177.00979815998,None,177.00979815998,None,,,,,,,,,,,,,026,2022-05-19_19h20.35.255,Main,2022.1.1,60.18411524603435,
neutral,neutral,2,k,k,,,,,,,,,0,14,14,10,,,,,,,,,main,2,2,2,neutral,neutral,k,k,1,0.8664254999603145,177.01314779999666,178.01229659997625,178.01229659997625,None,177.01314779999666,None,177.01314779999666,None,177.01314779999666,None,178.87670425999096,None,178.87670425999096,None,178.87670425999096,None,,,,,,,,,,,,,026,2022-05-19_19h20.35.255,Main,2022.1.1,60.18411524603435,
negative,positive,1,j,l,,,,,,,,,0,15,15,6,,,,,,,,,main,2,2,1,positive,negative,j,k,0,1.0303614999866113,178.88074589997996,179.89556319999974,179.87698800000362,None,178.88074589997996,None,178.88074589997996,None,178.88074589997996,None,180.91223289998015,None,180.91223289998015,None,180.91223289998015,None,,,,,,,,,,,,,026,2022-05-19_19h20.35.255,Main,2022.1.1,60.18411524603435,
neutral,negative,2,k,k,,,,,,,,,0,16,16,16,,,,,,,,,main,1,1,2,negative,neutral,k,k,1,0.802592399995774,181.92869829997653,182.9429313999717,182.92626029998064,None,181.92869829997653,None,181.92869829997653,None,181.92869829997653,None,183.72629395998666,None,183.72629395998666,None,183.72629395998666,None,,,,,,,,,,,,,026,2022-05-19_19h20.35.255,Main,2022.1.1,60.18411524603435,
positive,neutral,2,l,j,,,,,,,,,0,17,17,17,,,,,,,,,main,1,1,2,neutral,positive,l,l,1,0.866318499960471,183.72971159999724,184.72640709998086,184.72640709998086,None,183.72971159999724,None,183.72971159999724,None,183.72971159999724,None,185.59324555999484,None,185.59324555999484,None,185.59324555999484,None,,,,,,,,,,,,,026,2022-05-19_19h20.35.255,Main,2022.1.1,60.18411524603435,
negative,positive,1,j,l,,,,,,,,,1,0,18,6,,,,,,,,,main,1,1,1,positive,negative,j,j,1,0.7828816999681294,185.59749439998996,186.61214849998942,186.59548169997288,None,185.59749439998996,None,185.59749439998996,None,185.59749439998996,None,187.37874875995914,None,187.37874875995914,None,187.37874875995914,None,,,,,,,,,,,,,026,2022-05-19_19h20.35.255,Main,2022.1.1,60.18411524603435,
positive,neutral,1,l,j,,,,,,,,,1,1,19,8,,,,,,,,,main,1,1,1,neutral,positive,l,l,1,0.7291094000102021,187.38204759999644,188.3931757999817,188.37696389999473,None,187.38204759999644,None,187.38204759999644,None,187.38204759999644,None,189.10961645997014,None,189.10961645997014,None,189.10961645997014,None,,,,,,,,,,,,,026,2022-05-19_19h20.35.255,Main,2022.1.1,60.18411524603435,
positive,positive,2,l,j,,,,,,,,,1,2,20,11,,,,,,,,,main,2,2,2,positive,positive,l,l,1,0.6655347000341862,189.11544839997077,190.12642240000423,190.09537950000959,None,189.11544839997077,None,189.11544839997077,None,189.11544839997077,None,190.77644545996446,None,190.77644545996446,None,190.77644545996446,None,,,,,,,,,,,,,026,2022-05-19_19h20.35.255,Main,2022.1.1,60.18411524603435,
negative,negative,1,j,l,,,,,,,,,1,3,21,0,,,,,,,,,main,2,2,1,negative,negative,j,j,1,0.8970035999664105,190.78081450000172,191.7955642999732,191.7786849999684,None,190.78081450000172,None,190.78081450000172,None,190.78081450000172,None,192.67606486000005,None,192.67606486000005,None,192.67606486000005,None,,,,,,,,,,,,,026,2022-05-19_19h20.35.255,Main,2022.1.1,60.18411524603435,
negative,positive,2,j,l,,,,,,,,,1,4,22,15,,,,,,,,,main,2,2,2,positive,negative,j,j,1,0.7651236999663524,192.6760651000077,193.6760298999725,193.6760298999725,None,192.6760651000077,None,192.6760651000077,None,192.6760651000077,None,194.44276335996693,None,194.44276335996693,None,194.44276335996693,None,,,,,,,,,,,,,026,2022-05-19_19h20.35.255,Main,2022.1.1,60.18411524603435,
positive,negative,1,l,j,,,,,,,,,1,5,23,5,,,,,,,,,main,1,1,1,negative,positive,l,l,1,0.7822278000530787,194.4456729000085,195.44526020000922,195.4287379999878,None,194.4456729000085,None,194.4456729000085,None,194.4456729000085,None,196.22663655997604,None,196.22663655997604,None,196.22663655997604,None,,,,,,,,,,,,,026,2022-05-19_19h20.35.255,Main,2022.1.1,60.18411524603435,
neutral,negative,1,k,k,,,,,,,,,1,6,24,7,,,,,,,,,main,2,2,1,negative,neutral,k,k,1,0.7474016000051051,196.23085100000026,197.24519539996982,197.22865649999585,None,196.23085100000026,None,196.23085100000026,None,196.23085100000026,None,197.97627205999453,None,197.97627205999453,None,197.97627205999453,None,,,,,,,,,,,,,026,2022-05-19_19h20.35.255,Main,2022.1.1,60.18411524603435,
positive,positive,1,l,j,,,,,,,,,1,7,25,2,,,,,,,,,main,2,2,1,positive,positive,l,l,1,0.7317837000009604,197.9825527999783,198.99299459997565,198.9765994999907,None,197.9825527999783,None,197.9825527999783,None,197.9825527999783,None,199.70963685998578,None,199.70963685998578,None,199.70963685998578,None,,,,,,,,,,,,,026,2022-05-19_19h20.35.255,Main,2022.1.1,60.18411524603435,
positive,neutral,2,l,j,,,,,,,,,1,8,26,17,,,,,,,,,main,2,2,2,neutral,positive,l,l,1,0.6503855000482872,199.71338829997694,200.72848789999261,200.71189069998218,None,199.71338829997694,None,199.71338829997694,None,199.71338829997694,None,201.36181456000196,None,201.36181456000196,None,201.36181456000196,None,,,,,,,,,,,,,026,2022-05-19_19h20.35.255,Main,2022.1.1,60.18411524603435,
neutral,neutral,2,k,k,,,,,,,,,1,9,27,10,,,,,,,,,main,1,1,2,neutral,neutral,k,k,1,0.782874799973797,201.3642713999725,202.37592299998505,202.3592789999675,None,201.3642713999725,None,201.3642713999725,None,201.3642713999725,None,203.14258515996045,None,203.14258515996045,None,203.14258515996045,None,,,,,,,,,,,,,026,2022-05-19_19h20.35.255,Main,2022.1.1,60.18411524603435,
neutral,positive,2,k,k,,,,,,,,,1,10,28,13,,,,,,,,,main,2,2,2,positive,neutral,k,k,1,0.5761087000137195,203.15366159996483,204.15922289999435,204.14255049999338,None,203.15366159996483,None,203.15366159996483,None,203.15366159996483,None,204.72587586000446,None,204.72587586000446,None,204.72587586000446,None,,,,,,,,,,,,,026,2022-05-19_19h20.35.255,Main,2022.1.1,60.18411524603435,
negative,neutral,2,j,l,,,,,,,,,1,11,29,12,,,,,,,,,main,2,2,2,neutral,negative,j,j,1,0.8506803999771364,204.72937129996717,205.72838399995817,205.72838399995817,None,204.72937129996717,None,204.72937129996717,None,204.72937129996717,None,206.5784436599759,None,206.5784436599759,None,206.5784436599759,None,,,,,,,,,,,,,026,2022-05-19_19h20.35.255,Main,2022.1.1,60.18411524603435,
negative,neutral,1,j,l,,,,,,,,,1,12,30,3,,,,,,,,,main,2,2,1,neutral,negative,j,k,0,0.7959946999908425,206.5824586999952,207.59494989999803,207.57832539995434,None,206.5824586999952,None,206.5824586999952,None,206.5824586999952,None,208.3783645000076,None,208.3783645000076,None,208.3783645000076,None,,,,,,,,,,,,,026,2022-05-19_19h20.35.255,Main,2022.1.1,60.18411524603435,
neutral,positive,1,k,k,,,,,,,,,1,13,31,4,,,,,,,,,main,2,2,1,positive,neutral,k,k,1,0.701284599956125,209.39780739997514,210.4116115999641,210.3783600999741,None,209.39780739997514,None,209.39780739997514,None,209.39780739997514,None,211.0935897599964,None,211.0935897599964,None,211.0935897599964,None,,,,,,,,,,,,,026,2022-05-19_19h20.35.255,Main,2022.1.1,60.18411524603435,
neutral,neutral,1,k,k,,,,,,,,,1,14,32,1,,,,,,,,,main,1,1,1,neutral,neutral,k,k,1,0.5633248999947682,211.0995144000044,212.11160709999967,212.0949333999888,None,211.0995144000044,None,211.0995144000044,None,211.0995144000044,None,212.65899566000445,None,212.65899566000445,None,212.65899566000445,None,,,,,,,,,,,,,026,2022-05-19_19h20.35.255,Main,2022.1.1,60.18411524603435,
negative,negative,2,j,l,,,,,,,,,1,15,33,9,,,,,,,,,main,2,2,2,negative,negative,j,j,1,0.7318227000068873,212.65897349995794,213.6589453999768,213.6589453999768,None,212.65897349995794,None,212.65897349995794,None,212.65897349995794,None,214.39233465997387,None,214.39233465997387,None,214.39233465997387,None,,,,,,,,,,,,,026,2022-05-19_19h20.35.255,Main,2022.1.1,60.18411524603435,
positive,negative,2,l,j,,,,,,,,,1,16,34,14,,,,,,,,,main,1,1,2,negative,positive,l,l,1,0.7319420999847353,214.39232569996966,215.39228309999453,215.39228309999453,None,214.39232569996966,None,214.39232569996966,None,214.39232569996966,None,216.12565096000327,None,216.12565096000327,None,216.12565096000327,None,,,,,,,,,,,,,026,2022-05-19_19h20.35.255,Main,2022.1.1,60.18411524603435,
neutral,negative,2,k,k,,,,,,,,,1,17,35,16,,,,,,,,,main,2,2,2,negative,neutral,k,k,1,0.8010578000103123,216.12584379996406,217.12560859997757,217.12560859997757,None,216.12584379996406,None,216.12584379996406,None,216.12584379996406,None,217.92815075999243,None,217.92815075999243,None,217.92815075999243,None,,,,,,,,,,,,,026,2022-05-19_19h20.35.255,Main,2022.1.1,60.18411524603435,
neutral,positive,2,k,k,,,,,,,,,2,0,36,13,,,,,,,,,main,2,2,2,positive,neutral,k,k,1,0.6143620000220835,217.9317546999664,218.94512190000387,218.928133599984,None,217.9317546999664,None,217.9317546999664,None,217.9317546999664,None,219.54479955996504,None,219.54479955996504,None,219.54479955996504,None,,,,,,,,,,,,,026,2022-05-19_19h20.35.255,Main,2022.1.1,60.18411524603435,
neutral,neutral,2,k,k,,,,,,,,,2,1,37,10,,,,,,,,,main,2,2,2,neutral,neutral,k,k,1,0.679332300031092,219.54808439995395,220.5614929999574,220.54480609996244,None,219.54808439995395,None,219.54808439995395,None,219.54808439995395,None,221.22576435997036,None,221.22576435997036,None,221.22576435997036,None,,,,,,,,,,,,,026,2022-05-19_19h20.35.255,Main,2022.1.1,60.18411524603435,
negative,positive,2,j,l,,,,,,,,,2,2,38,15,,,,,,,,,main,2,2,2,positive,negative,j,j,1,0.7314216999802738,221.23206809995463,222.24467109999387,222.22806559997844,None,221.23206809995463,None,221.23206809995463,None,221.23206809995463,None,222.9588502599916,None,222.9588502599916,None,222.9588502599916,None,,,,,,,,,,,,,026,2022-05-19_19h20.35.255,Main,2022.1.1,60.18411524603435,
neutral,negative,1,k,k,,,,,,,,,2,3,39,7,,,,,,,,,main,1,1,1,negative,neutral,k,k,1,0.7166370999766514,222.96206719998736,223.96135629998753,223.94469939998817,None,222.96206719998736,None,222.96206719998736,None,222.96206719998736,None,224.6757713599771,None,224.6757713599771,None,224.6757713599771,None,,,,,,,,,,,,,026,2022-05-19_19h20.35.255,Main,2022.1.1,60.18411524603435,
positive,positive,1,l,j,,,,,,,,,2,4,40,2,,,,,,,,,main,1,1,1,positive,positive,l,l,1,1.030333000002429,224.68194199999562,225.69228209997527,225.67541919997893,None,224.68194199999562,None,224.68194199999562,None,224.68194199999562,None,226.70870995997103,None,226.70870995997103,None,226.70870995997103,None,,,,,,,,,,,,,026,2022-05-19_19h20.35.255,Main,2022.1.1,60.18411524603435,
neutral,positive,1,k,k,,,,,,,,,2,5,41,4,,,,,,,,,main,1,1,1,positive,neutral,k,k,1,0.7677549999789335,226.70868879999034,227.70871999999508,227.70871999999508,None,226.70868879999034,None,226.70868879999034,None,226.70868879999034,None,228.4780438599817,None,228.4780438599817,None,228.4780438599817,None,,,,,,,,,,,,,026,2022-05-19_19h20.35.255,Main,2022.1.1,60.18411524603435,
negative,neutral,2,j,l,,,,,,,,,2,6,42,12,,,,,,,,,main,2,2,2,neutral,negative,j,j,1,0.846881499979645,228.48187019996112,229.49456919997465,229.47798769996734,None,228.48187019996112,None,228.48187019996112,None,228.48187019996112,None,230.32565955996398,None,230.32565955996398,None,230.32565955996398,None,,,,,,,,,,,,,026,2022-05-19_19h20.35.255,Main,2022.1.1,60.18411524603435,
positive,negative,1,l,j,,,,,,,,,2,7,43,5,,,,,,,,,main,2,2,1,negative,positive,l,l,1,1.980892399966251,230.33754529996077,231.3445649999776,231.32786899997154,None,230.33754529996077,None,230.33754529996077,None,230.33754529996077,None,233.3089121999801,None,233.3089121999801,None,233.3089121999801,None,,,,,,,,,,,,,026,2022-05-19_19h20.35.255,Main,2022.1.1,60.18411524603435,
negative,neutral,1,j,l,,,,,,,,,2,8,44,3,,,,,,,,,main,1,1,1,neutral,negative,j,j,1,0.7670448999851942,234.30989519995637,235.30872639996232,235.29451599996537,None,234.30989519995637,None,234.30989519995637,None,234.30989519995637,None,236.0751749599993,None,236.0751749599993,None,236.0751749599993,None,,,,,,,,,,,,,026,2022-05-19_19h20.35.255,Main,2022.1.1,60.18411524603435,
negative,negative,1,j,l,,,,,,,,,2,9,45,0,,,,,,,,,main,2,2,1,negative,negative,j,j,1,0.6317738000070676,236.0751656999928,237.0751488999813,237.0751488999813,None,236.0751656999928,None,236.0751656999928,None,236.0751656999928,None,237.70852745997837,None,237.70852745997837,None,237.70852745997837,None,,,,,,,,,,,,,026,2022-05-19_19h20.35.255,Main,2022.1.1,60.18411524603435,
negative,positive,1,j,l,,,,,,,,,2,10,46,6,,,,,,,,,main,2,2,1,positive,negative,j,j,1,0.515445000026375,237.7118305999902,238.71105589997023,238.71105589997023,None,237.7118305999902,None,237.7118305999902,None,237.7118305999902,None,239.2254840599897,None,239.2254840599897,None,239.2254840599897,None,,,,,,,,,,,,,026,2022-05-19_19h20.35.255,Main,2022.1.1,60.18411524603435,
neutral,negative,2,k,k,,,,,,,,,2,11,47,16,,,,,,,,,main,2,2,2,negative,neutral,k,k,1,0.7504999000229873,239.2289649999584,240.2443082999671,240.22769899998093,None,239.2289649999584,None,239.2289649999584,None,239.2289649999584,None,240.97758475997836,None,240.97758475997836,None,240.97758475997836,None,,,,,,,,,,,,,026,2022-05-19_19h20.35.255,Main,2022.1.1,60.18411524603435,
positive,neutral,1,l,j,,,,,,,,,2,12,48,8,,,,,,,,,main,2,2,1,neutral,positive,l,l,1,1.016701600048691,240.9806596999988,241.9943062000093,241.97770329995546,None,240.9806596999988,None,240.9806596999988,None,240.9806596999988,None,242.99216925997172,None,242.99216925997172,None,242.99216925997172,None,,,,,,,,,,,,,026,2022-05-19_19h20.35.255,Main,2022.1.1,60.18411524603435,
positive,neutral,2,l,j,,,,,,,,,2,13,49,17,,,,,,,,,main,1,1,2,neutral,positive,l,l,1,0.795631000015419,243.00135719997343,244.00889930000994,243.99228820001008,None,243.00135719997343,None,243.00135719997343,None,243.00135719997343,None,244.79422675996904,None,244.79422675996904,None,244.79422675996904,None,,,,,,,,,,,,,026,2022-05-19_19h20.35.255,Main,2022.1.1,60.18411524603435,
negative,negative,2,j,l,,,,,,,,,2,14,50,9,,,,,,,,,main,1,1,2,negative,negative,j,j,1,0.8125673999893479,244.797027099994,245.80189030000474,245.79130370001076,None,244.797027099994,None,244.797027099994,None,244.797027099994,None,246.60830805996085,None,246.60830805996085,None,246.60830805996085,None,,,,,,,,,,,,,026,2022-05-19_19h20.35.255,Main,2022.1.1,60.18411524603435,
positive,positive,2,l,j,,,,,,,,,2,15,51,11,,,,,,,,,main,1,1,2,positive,positive,l,l,1,0.765318300051149,246.60827389999758,247.60826959996484,247.60826959996484,None,246.60827389999758,None,246.60827389999758,None,246.60827389999758,None,248.37526305996,None,248.37526305996,None,248.37526305996,None,,,,,,,,,,,,,026,2022-05-19_19h20.35.255,Main,2022.1.1,60.18411524603435,
positive,negative,2,l,j,,,,,,,,,2,16,52,14,,,,,,,,,main,1,1,2,negative,positive,l,l,1,0.6813345999689773,248.3755538999685,249.37494969996624,249.37494969996624,None,248.3755538999685,None,248.3755538999685,None,248.3755538999685,None,250.05828535997426,None,250.05828535997426,None,250.05828535997426,None,,,,,,,,,,,,,026,2022-05-19_19h20.35.255,Main,2022.1.1,60.18411524603435,
neutral,neutral,1,k,k,,,,,,,,,2,17,53,1,,,,,,,,,main,1,1,1,neutral,neutral,k,k,1,0.7342734000412747,250.06378309999127,251.0774601000012,251.04419059999054,None,250.06378309999127,None,250.06378309999127,None,250.06378309999127,None,251.79418005996268,None,251.79418005996268,None,251.79418005996268,None,,,,,,,,,,,,,026,2022-05-19_19h20.35.255,Main,2022.1.1,60.18411524603435,
positive,neutral,2,l,j,,,,,,,,,3,0,54,17,,,,,,,,,main,1,1,2,neutral,positive,l,l,1,0.7458867999957874,251.79693879996194,252.810769099975,252.79410499997903,None,251.79693879996194,None,251.79693879996194,None,251.79693879996194,None,253.5415389599919,None,253.5415389599919,None,253.5415389599919,None,,,,,,,,,,,,,026,2022-05-19_19h20.35.255,Main,2022.1.1,60.18411524603435,
negative,neutral,1,j,l,,,,,,,,,3,1,55,3,,,,,,,,,main,1,1,1,neutral,negative,j,j,1,0.5315366000286303,253.54461389995413,254.5440281999763,254.52744169998914,None,253.54461389995413,None,253.54461389995413,None,253.54461389995413,None,255.07485275999062,None,255.07485275999062,None,255.07485275999062,None,,,,,,,,,,,,,026,2022-05-19_19h20.35.255,Main,2022.1.1,60.18411524603435,
positive,negative,2,l,j,,,,,,,,,3,2,56,14,,,,,,,,,main,2,2,2,negative,positive,l,l,1,0.7489461000077426,255.08028829999967,256.09401999996044,256.05825679999543,None,255.08028829999967,None,255.08028829999967,None,255.08028829999967,None,256.8251006599574,None,256.8251006599574,None,256.8251006599574,None,,,,,,,,,,,,,026,2022-05-19_19h20.35.255,Main,2022.1.1,60.18411524603435,
negative,negative,1,j,l,,,,,,,,,3,3,57,0,,,,,,,,,main,2,2,1,negative,negative,j,j,1,0.6855829000123776,256.82903889997397,257.84104539995315,257.8237788999686,None,256.82903889997397,None,256.82903889997397,None,256.82903889997397,None,258.508063159982,None,258.508063159982,None,258.508063159982,None,,,,,,,,,,,,,026,2022-05-19_19h20.35.255,Main,2022.1.1,60.18411524603435,
neutral,neutral,1,k,k,,,,,,,,,3,4,58,1,,,,,,,,,main,1,1,1,neutral,neutral,k,k,1,0.7270319000235759,258.5160585999838,259.52474989998154,259.5081108000013,None,258.5160585999838,None,258.5160585999838,None,258.5160585999838,None,260.24140775999405,None,260.24140775999405,None,260.24140775999405,None,,,,,,,,,,,,,026,2022-05-19_19h20.35.255,Main,2022.1.1,60.18411524603435,
positive,neutral,1,l,j,,,,,,,,,3,5,59,8,,,,,,,,,main,2,2,1,neutral,positive,l,l,1,0.714855499973055,260.24304529995425,261.2582492000074,261.2416032999754,None,260.24304529995425,None,260.24304529995425,None,260.24304529995425,None,261.9580412600015,None,261.9580412600015,None,261.9580412600015,None,,,,,,,,,,,,,026,2022-05-19_19h20.35.255,Main,2022.1.1,60.18411524603435,
positive,positive,2,l,j,,,,,,,,,3,6,60,11,,,,,,,,,main,1,1,2,positive,positive,l,l,1,0.8341531000332907,261.96397119999165,262.97472309996374,262.96061599999666,None,261.96397119999165,None,261.96397119999165,None,261.96397119999165,None,263.7939213599719,None,263.7939213599719,None,263.7939213599719,None,,,,,,,,,,,,,026,2022-05-19_19h20.35.255,Main,2022.1.1,60.18411524603435,
positive,positive,1,l,j,,,,,,,,,3,7,61,2,,,,,,,,,main,2,2,1,positive,positive,l,l,1,0.8617323000216857,263.7980462999549,264.81048669997836,264.793915199989,None,263.7980462999549,None,263.7980462999549,None,263.7980462999549,None,265.65795355998563,None,265.65795355998563,None,265.65795355998563,None,,,,,,,,,,,,,026,2022-05-19_19h20.35.255,Main,2022.1.1,60.18411524603435,
positive,negative,1,l,j,,,,,,,,,3,8,62,5,,,,,,,,,main,1,1,1,negative,positive,l,l,1,0.7513484000228345,265.6612579000066,266.6604851000011,266.6604851000011,None,265.6612579000066,None,265.6612579000066,None,265.6612579000066,None,267.41060986001395,None,267.41060986001395,None,267.41060986001395,None,,,,,,,,,,,,,026,2022-05-19_19h20.35.255,Main,2022.1.1,60.18411524603435,
neutral,negative,2,k,k,,,,,,,,,3,9,63,16,,,,,,,,,main,1,1,2,negative,neutral,k,k,1,0.6492322999984026,267.41440389998024,268.4270659000031,268.41051549999975,None,267.41440389998024,None,267.41440389998024,None,267.41440389998024,None,269.0597921599809,None,269.0597921599809,None,269.0597921599809,None,,,,,,,,,,,,,026,2022-05-19_19h20.35.255,Main,2022.1.1,60.18411524603435,
negative,neutral,2,j,l,,,,,,,,,3,10,64,12,,,,,,,,,main,1,1,2,neutral,negative,j,j,1,0.7277948000119068,269.06448790000286,270.074465499958,270.05779489997076,None,269.06448790000286,None,269.06448790000286,None,269.06448790000286,None,270.79113546000445,None,270.79113546000445,None,270.79113546000445,None,,,,,,,,,,,,,026,2022-05-19_19h20.35.255,Main,2022.1.1,60.18411524603435,
negative,positive,2,j,l,,,,,,,,,3,11,65,15,,,,,,,,,main,2,2,2,positive,negative,j,j,1,0.74959940003464,270.7912046999554,271.79112389998045,271.79112389998045,None,270.7912046999554,None,270.7912046999554,None,270.7912046999554,None,272.54120275999304,None,272.54120275999304,None,272.54120275999304,None,,,,,,,,,,,,,026,2022-05-19_19h20.35.255,Main,2022.1.1,60.18411524603435,
neutral,positive,1,k,k,,,,,,,,,3,12,66,4,,,,,,,,,main,1,1,1,positive,neutral,k,k,1,0.7311046000104398,272.54242369998246,273.5577862999635,273.5411214999622,None,272.54242369998246,None,272.54242369998246,None,272.54242369998246,None,274.2746922600025,None,274.2746922600025,None,274.2746922600025,None,,,,,,,,,,,,,026,2022-05-19_19h20.35.255,Main,2022.1.1,60.18411524603435,
neutral,neutral,2,k,k,,,,,,,,,3,13,67,10,,,,,,,,,main,1,1,2,neutral,neutral,k,k,1,0.769216199987568,274.2781568999635,275.293608899985,275.27702049998334,None,274.2781568999635,None,274.2781568999635,None,274.2781568999635,None,276.04139855997056,None,276.04139855997056,None,276.04139855997056,None,,,,,,,,,,,,,026,2022-05-19_19h20.35.255,Main,2022.1.1,60.18411524603435,
negative,positive,1,j,l,,,,,,,,,3,14,68,6,,,,,,,,,main,2,2,1,positive,negative,j,j,1,0.7607981000328436,276.04952239996055,277.0601864999626,277.0436222999706,None,276.04952239996055,None,276.04952239996055,None,276.04952239996055,None,277.80861525998336,None,277.80861525998336,None,277.80861525998336,None,,,,,,,,,,,,,026,2022-05-19_19h20.35.255,Main,2022.1.1,60.18411524603435,
neutral,positive,2,k,k,,,,,,,,,3,15,69,13,,,,,,,,,main,2,2,2,positive,neutral,k,k,1,0.7639857999747619,277.8268685999792,278.82688449998386,278.81031799997436,None,277.8268685999792,None,277.8268685999792,None,277.8268685999792,None,279.5743483599916,None,279.5743483599916,None,279.5743483599916,None,,,,,,,,,,,,,026,2022-05-19_19h20.35.255,Main,2022.1.1,60.18411524603435,
neutral,negative,1,k,k,,,,,,,,,3,16,70,7,,,,,,,,,main,2,2,1,negative,neutral,k,k,1,0.8487087999819778,279.58023629995296,280.59351539995987,280.5602272999822,None,279.58023629995296,None,279.58023629995296,None,279.58023629995296,None,281.42459505998414,None,281.42459505998414,None,281.42459505998414,None,,,,,,,,,,,,,026,2022-05-19_19h20.35.255,Main,2022.1.1,60.18411524603435,
negative,negative,2,j,l,,,,,,,,,3,17,71,9,,,,,,,,,main,1,1,2,negative,negative,j,j,1,0.7314181000110693,281.4299645999563,282.44088660000125,282.42422429996077,None,281.4299645999563,None,281.4299645999563,None,281.4299645999563,None,283.1575389599719,None,283.1575389599719,None,283.1575389599719,None,,,,,,,,,,,,,026,2022-05-19_19h20.35.255,Main,2022.1.1,60.18411524603435,
negative,negative,1,j,l,,,,,,,,,4,0,72,0,,,,,,,,,main,2,2,1,negative,negative,j,j,1,0.6820587000111118,283.1575283999555,284.15756029996555,284.15756029996555,None,283.1575283999555,None,283.1575283999555,None,283.1575283999555,None,284.8408837599971,None,284.8408837599971,None,284.8408837599971,None,,,,,,,,,,,,,026,2022-05-19_19h20.35.255,Main,2022.1.1,60.18411524603435,
positive,positive,2,l,j,,,,,,,,,4,1,73,11,,,,,,,,,main,1,1,2,positive,positive,l,l,1,0.7308188999886625,284.84262569999555,285.85750369995367,285.8408434999874,None,284.84262569999555,None,284.84262569999555,None,284.84262569999555,None,286.5742336599913,None,286.5742336599913,None,286.5742336599913,None,,,,,,,,,,,,,026,2022-05-19_19h20.35.255,Main,2022.1.1,60.18411524603435,
positive,neutral,2,l,j,,,,,,,,,4,2,74,17,,,,,,,,,main,2,2,2,neutral,positive,l,l,1,0.6999369999975897,286.58072629995877,287.5933489999734,287.57676530000754,None,286.58072629995877,None,286.58072629995877,None,286.58072629995877,None,288.27674385996653,None,288.27674385996653,None,288.27674385996653,None,,,,,,,,,,,,,026,2022-05-19_19h20.35.255,Main,2022.1.1,60.18411524603435,
negative,neutral,2,j,l,,,,,,,,,4,3,75,12,,,,,,,,,main,1,1,2,neutral,negative,j,j,1,0.7291245000087656,288.28066509997007,289.29329820000567,289.2767273999634,None,288.28066509997007,None,288.28066509997007,None,288.28066509997007,None,290.00776205995936,None,290.00776205995936,None,290.00776205995936,None,,,,,,,,,,,,,026,2022-05-19_19h20.35.255,Main,2022.1.1,60.18411524603435,
neutral,positive,2,k,k,,,,,,,,,4,4,76,13,,,,,,,,,main,2,2,2,positive,neutral,k,k,1,0.6821045999531634,290.01167410000926,291.02665749995504,290.99338499997975,None,290.01167410000926,None,290.01167410000926,None,290.01167410000926,None,291.6910511599679,None,291.6910511599679,None,291.6910511599679,None,,,,,,,,,,,,,026,2022-05-19_19h20.35.255,Main,2022.1.1,60.18411524603435,
negative,negative,2,j,l,,,,,,,,,4,5,77,9,,,,,,,,,main,2,2,2,negative,negative,j,j,1,0.6146455999696627,291.6941288000089,292.6933565000072,292.6933565000072,None,291.6941288000089,None,291.6941288000089,None,291.6941288000089,None,293.30739486000385,None,293.30739486000385,None,293.30739486000385,None,,,,,,,,,,,,,026,2022-05-19_19h20.35.255,Main,2022.1.1,60.18411524603435,
neutral,negative,2,k,k,,,,,,,,,4,6,78,16,,,,,,,,,main,1,1,2,negative,neutral,k,k,1,0.6658962999936193,293.31074099999387,294.3267764999764,294.30783479998354,None,293.31074099999387,None,293.31074099999387,None,293.31074099999387,None,294.97399315998774,None,294.97399315998774,None,294.97399315998774,None,,,,,,,,,,,,,026,2022-05-19_19h20.35.255,Main,2022.1.1,60.18411524603435,
positive,negative,1,l,j,,,,,,,,,4,7,79,5,,,,,,,,,main,2,2,1,negative,positive,l,l,1,0.9820651999907568,294.99064899998484,295.99059489998035,295.9739312999882,None,294.99064899998484,None,294.99064899998484,None,294.99064899998484,None,296.95731765996317,None,296.95731765996317,None,296.95731765996317,None,,,,,,,,,,,,,026,2022-05-19_19h20.35.255,Main,2022.1.1,60.18411524603435,
positive,positive,1,l,j,,,,,,,,,4,8,80,2,,,,,,,,,main,1,1,1,positive,positive,l,l,1,0.6831395999761298,296.96159630001057,297.97647910000524,297.9598680000054,None,296.96159630001057,None,296.96159630001057,None,296.96159630001057,None,298.64315205996974,None,298.64315205996974,None,298.64315205996974,None,,,,,,,,,,,,,026,2022-05-19_19h20.35.255,Main,2022.1.1,60.18411524603435,
positive,neutral,1,l,j,,,,,,,,,4,9,81,8,,,,,,,,,main,2,2,1,neutral,positive,l,l,1,0.6650070000323467,298.6474777999683,299.6597639999818,299.64317459997255,None,298.6474777999683,None,298.6474777999683,None,298.6474777999683,None,300.3097894599603,None,300.3097894599603,None,300.3097894599603,None,,,,,,,,,,,,,026,2022-05-19_19h20.35.255,Main,2022.1.1,60.18411524603435,
neutral,neutral,2,k,k,,,,,,,,,4,10,82,10,,,,,,,,,main,1,1,2,neutral,neutral,k,k,1,0.7294701000209898,300.31257020001067,301.32644809997873,301.30977759999223,None,300.31257020001067,None,300.31257020001067,None,300.31257020001067,None,302.04087516000146,None,302.04087516000146,None,302.04087516000146,None,,,,,,,,,,,,,026,2022-05-19_19h20.35.255,Main,2022.1.1,60.18411524603435,
negative,neutral,1,j,l,,,,,,,,,4,11,83,3,,,,,,,,,main,2,2,1,neutral,negative,j,l,0,1.1485360999940895,302.04391680000117,303.0430048999842,303.0264736000099,None,302.04391680000117,None,302.04391680000117,None,302.04391680000117,None,304.1929715999868,None,304.1929715999868,None,304.1929715999868,None,,,,,,,,,,,,,026,2022-05-19_19h20.35.255,Main,2022.1.1,60.18411524603435,
negative,positive,1,j,l,,,,,,,,,4,12,84,6,,,,,,,,,main,2,2,1,positive,negative,j,j,1,0.6006572000333108,305.1916085999692,306.2070701000048,306.1737462999881,None,305.1916085999692,None,305.1916085999692,None,305.1916085999692,None,306.7904031599581,None,306.7904031599581,None,306.7904031599581,None,,,,,,,,,,,,,026,2022-05-19_19h20.35.255,Main,2022.1.1,60.18411524603435,
neutral,positive,1,k,k,,,,,,,,,4,13,85,4,,,,,,,,,main,2,2,1,positive,neutral,k,k,1,0.8009789999923669,306.7909587000031,307.7904134999844,307.7904134999844,None,306.7909587000031,None,306.7909587000031,None,306.7909587000031,None,308.5930290599761,None,308.5930290599761,None,308.5930290599761,None,,,,,,,,,,,,,026,2022-05-19_19h20.35.255,Main,2022.1.1,60.18411524603435,
positive,negative,2,l,j,,,,,,,,,4,14,86,14,,,,,,,,,main,1,1,2,negative,positive,l,l,1,0.6818607999593951,308.59593199996743,309.60950319998665,309.5929373999825,None,308.59593199996743,None,308.59593199996743,None,308.59593199996743,None,310.27640125997715,None,310.27640125997715,None,310.27640125997715,None,,,,,,,,,,,,,026,2022-05-19_19h20.35.255,Main,2022.1.1,60.18411524603435,
negative,positive,2,j,l,,,,,,,,,4,15,87,15,,,,,,,,,main,2,2,2,positive,negative,j,j,1,0.6304804000537843,310.2807537000044,311.29285969998455,311.27628210000694,None,310.2807537000044,None,310.2807537000044,None,310.2807537000044,None,311.9094852600072,None,311.9094852600072,None,311.9094852600072,None,,,,,,,,,,,,,026,2022-05-19_19h20.35.255,Main,2022.1.1,60.18411524603435,
neutral,negative,1,k,k,,,,,,,,,4,16,88,7,,,,,,,,,main,1,1,1,negative,neutral,k,k,1,0.6297787000075914,311.91222080000443,312.92614150000736,312.9095424999832,None,311.91222080000443,None,311.91222080000443,None,311.91222080000443,None,313.54063245995786,None,313.54063245995786,None,313.54063245995786,None,,,,,,,,,,,,,026,2022-05-19_19h20.35.255,Main,2022.1.1,60.18411524603435,
neutral,neutral,1,k,k,,,,,,,,,4,17,89,1,,,,,,,,,main,1,1,1,neutral,neutral,k,k,1,0.583949499996379,313.54392929997994,314.54294579999987,314.54294579999987,None,313.54392929997994,None,313.54392929997994,None,313.54392929997994,None,315.12615495999927,None,315.12615495999927,None,315.12615495999927,None,,,,,,,,,,,,,026,2022-05-19_19h20.35.255,Main,2022.1.1,60.18411524603435,
neutral,neutral,2,k,k,,,,,,,,,5,0,90,10,,,,,,,,,main,1,1,2,neutral,neutral,k,k,1,0.5943459999980405,315.13450489996467,316.14018679998117,316.1235178000061,None,315.13450489996467,None,315.13450489996467,None,315.13450489996467,None,316.7235244599695,None,316.7235244599695,None,316.7235244599695,None,,,,,,,,,,,,,026,2022-05-19_19h20.35.255,Main,2022.1.1,60.18411524603435,
positive,negative,1,l,j,,,,,,,,,5,1,91,5,,,,,,,,,main,2,2,1,negative,positive,l,k,0,0.5671255000052042,316.72350349999033,317.7235381999635,317.7235381999635,None,316.72350349999033,None,316.72350349999033,None,316.72350349999033,None,318.29022089997306,None,318.29022089997306,None,318.29022089997306,None,,,,,,,,,,,,,026,2022-05-19_19h20.35.255,Main,2022.1.1,60.18411524603435,
positive,positive,1,l,j,,,,,,,,,5,2,92,2,,,,,,,,,main,2,2,1,positive,positive,l,l,1,0.7355883999844082,319.29147729999386,320.2926439999719,320.27607459999854,None,319.29147729999386,None,319.29147729999386,None,319.29147729999386,None,321.0248278599873,None,321.0248278599873,None,321.0248278599873,None,,,,,,,,,,,,,026,2022-05-19_19h20.35.255,Main,2022.1.1,60.18411524603435,
neutral,positive,2,k,k,,,,,,,,,5,3,93,13,,,,,,,,,main,1,1,2,positive,neutral,k,k,1,0.6971629000036046,321.03063309995923,322.0426295999787,322.0260299000074,None,321.03063309995923,None,321.03063309995923,None,321.03063309995923,None,322.72377785997816,None,322.72377785997816,None,322.72377785997816,None,,,,,,,,,,,,,026,2022-05-19_19h20.35.255,Main,2022.1.1,60.18411524603435,
neutral,positive,1,k,k,,,,,,,,,5,4,94,4,,,,,,,,,main,2,2,1,positive,neutral,k,k,1,0.6493498000199907,322.7282908000052,323.7425913999905,323.7260304999654,None,322.7282908000052,None,322.7282908000052,None,322.7282908000052,None,324.3759634599963,None,324.3759634599963,None,324.3759634599963,None,,,,,,,,,,,,,026,2022-05-19_19h20.35.255,Main,2022.1.1,60.18411524603435,
negative,neutral,1,j,l,,,,,,,,,5,5,95,3,,,,,,,,,main,2,2,1,neutral,negative,j,j,1,0.8292126000160351,324.37949399999343,325.3955135999713,325.37351239996497,None,324.37949399999343,None,324.37949399999343,None,324.37949399999343,None,326.20690575996997,None,326.20690575996997,None,326.20690575996997,None,,,,,,,,,,,,,026,2022-05-19_19h20.35.255,Main,2022.1.1,60.18411524603435,
neutral,negative,1,k,k,,,,,,,,,5,6,96,7,,,,,,,,,main,2,2,1,negative,neutral,k,k,1,0.7482337999972515,326.20665409998037,327.20663729996886,327.20663729996886,None,326.20665409998037,None,326.20665409998037,None,326.20665409998037,None,327.9566803599999,None,327.9566803599999,None,327.9566803599999,None,,,,,,,,,,,,,026,2022-05-19_19h20.35.255,Main,2022.1.1,60.18411524603435,
positive,neutral,1,l,j,,,,,,,,,5,7,97,8,,,,,,,,,main,2,2,1,neutral,positive,l,l,1,0.8676256999606267,327.95944629999576,328.95914900000207,328.942639899964,None,327.95944629999576,None,327.95944629999576,None,327.95944629999576,None,329.8257818599639,None,329.8257818599639,None,329.8257818599639,None,,,,,,,,,,,,,026,2022-05-19_19h20.35.255,Main,2022.1.1,60.18411524603435,
positive,neutral,2,l,j,,,,,,,,,5,8,98,17,,,,,,,,,main,2,2,2,neutral,positive,l,l,1,0.9295673000160605,329.82910749997245,330.84242729999823,330.8258330000099,None,329.82910749997245,None,329.82910749997245,None,329.82910749997245,None,331.75691835999606,None,331.75691835999606,None,331.75691835999606,None,,,,,,,,,,,,,026,2022-05-19_19h20.35.255,Main,2022.1.1,60.18411524603435,
positive,negative,2,l,j,,,,,,,,,5,9,99,14,,,,,,,,,main,2,2,2,negative,positive,l,l,1,0.6810448999749497,331.7609140999848,332.77579129999503,332.75918049999746,None,331.7609140999848,None,331.7609140999848,None,331.7609140999848,None,333.4402527600003,None,333.4402527600003,None,333.4402527600003,None,,,,,,,,,,,,,026,2022-05-19_19h20.35.255,Main,2022.1.1,60.18411524603435,
negative,positive,1,j,l,,,,,,,,,5,10,100,6,,,,,,,,,main,1,1,1,positive,negative,j,j,1,0.7503982000052929,333.445760099974,334.45725390000734,334.4426325999666,None,333.445760099974,None,333.445760099974,None,333.445760099974,None,335.1923968599702,None,335.1923968599702,None,335.1923968599702,None,,,,,,,,,,,,,026,2022-05-19_19h20.35.255,Main,2022.1.1,60.18411524603435,
negative,negative,1,j,l,,,,,,,,,5,11,101,0,,,,,,,,,main,1,1,1,negative,negative,j,j,1,0.5959471000242047,335.1961300999974,336.2064405999845,336.1897684999858,None,335.1961300999974,None,335.1961300999974,None,335.1961300999974,None,336.78977095997544,None,336.78977095997544,None,336.78977095997544,None,,,,,,,,,,,,,026,2022-05-19_19h20.35.255,Main,2022.1.1,60.18411524603435,
neutral,neutral,1,k,k,,,,,,,,,5,12,102,1,,,,,,,,,main,1,1,1,neutral,neutral,k,k,1,0.6650679999729618,336.7897561999853,337.7897909999592,337.7897909999592,None,336.7897561999853,None,336.7897561999853,None,336.7897561999853,None,338.4565176599834,None,338.4565176599834,None,338.4565176599834,None,,,,,,,,,,,,,026,2022-05-19_19h20.35.255,Main,2022.1.1,60.18411524603435,
negative,negative,2,j,l,,,,,,,,,5,13,103,9,,,,,,,,,main,2,2,2,negative,negative,j,j,1,0.7673782000201754,338.4597951999749,339.4570020000101,339.4426478999667,None,338.4597951999749,None,338.4597951999749,None,338.4597951999749,None,340.22554395998014,None,340.22554395998014,None,340.22554395998014,None,,,,,,,,,,,,,026,2022-05-19_19h20.35.255,Main,2022.1.1,60.18411524603435,
negative,positive,2,j,l,,,,,,,,,5,14,104,15,,,,,,,,,main,2,2,2,positive,negative,j,j,1,0.6130295000039041,340.22857089998433,341.2422614999814,341.2256734999828,None,340.22857089998433,None,340.22857089998433,None,340.22857089998433,None,341.84002106000554,None,341.84002106000554,None,341.84002106000554,None,,,,,,,,,,,,,026,2022-05-19_19h20.35.255,Main,2022.1.1,60.18411524603435,
positive,positive,2,l,j,,,,,,,,,5,15,105,11,,,,,,,,,main,1,1,2,positive,positive,l,l,1,0.6651511000236496,341.8435065000085,342.85886749997735,342.84229369997047,None,341.8435065000085,None,341.8435065000085,None,341.8435065000085,None,343.50663565999713,None,343.50663565999713,None,343.50663565999713,None,,,,,,,,,,,,,026,2022-05-19_19h20.35.255,Main,2022.1.1,60.18411524603435,
neutral,negative,2,k,k,,,,,,,,,5,16,106,16,,,,,,,,,main,2,2,2,negative,neutral,k,k,1,0.7526830999995582,343.51016239996534,344.5254901999724,344.50889130000724,None,343.51016239996534,None,343.51016239996534,None,343.51016239996534,None,345.2589075600088,None,345.2589075600088,None,345.2589075600088,None,,,,,,,,,,,,,026,2022-05-19_19h20.35.255,Main,2022.1.1,60.18411524603435,
negative,neutral,2,j,l,,,,,,,,,5,17,107,12,,,,,,,,,main,1,1,2,neutral,negative,j,j,1,0.6769929000292905,345.2638347999891,346.2729062999715,346.2562334999675,None,345.2638347999891,None,345.2638347999891,None,345.2638347999891,None,346.93955435997924,None,346.93955435997924,None,346.93955435997924,None,,,,,,,,,,,,,026,2022-05-19_19h20.35.255,Main,2022.1.1,60.18411524603435,
positive,neutral,2,l,j,,,,,,,,,6,0,108,17,,,,,,,,,main,2,2,2,neutral,positive,l,l,1,0.7152240999857895,346.939549600007,347.93974110001,347.93974110001,None,346.939549600007,None,346.939549600007,None,346.939549600007,None,348.65625315996004,None,348.65625315996004,None,348.65625315996004,None,,,,,,,,,,,,,026,2022-05-19_19h20.35.255,Main,2022.1.1,60.18411524603435,
positive,neutral,1,l,j,,,,,,,,,6,1,109,8,,,,,,,,,main,2,2,1,neutral,positive,l,l,1,0.6689406000077724,348.6593545000069,349.65883349999785,349.65883349999785,None,348.6593545000069,None,348.6593545000069,None,348.6593545000069,None,350.3235389599984,None,350.3235389599984,None,350.3235389599984,None,,,,,,,,,,,,,026,2022-05-19_19h20.35.255,Main,2022.1.1,60.18411524603435,
neutral,positive,2,k,k,,,,,,,,,6,2,110,13,,,,,,,,,main,2,2,2,positive,neutral,k,k,1,0.6949367999914102,350.3295965999714,351.34205829998245,351.3254711999907,None,350.3295965999714,None,350.3295965999714,None,350.3295965999714,None,352.02315636000714,None,352.02315636000714,None,352.02315636000714,None,,,,,,,,,,,,,026,2022-05-19_19h20.35.255,Main,2022.1.1,60.18411524603435,
neutral,negative,2,k,k,,,,,,,,,6,3,111,16,,,,,,,,,main,2,2,2,negative,neutral,k,k,1,0.5998916000244208,352.0275282000075,353.0419689999544,353.025428599969,None,352.0275282000075,None,352.0275282000075,None,352.0275282000075,None,353.6253540600126,None,353.6253540600126,None,353.6253540600126,None,,,,,,,,,,,,,026,2022-05-19_19h20.35.255,Main,2022.1.1,60.18411524603435,
negative,neutral,1,j,l,,,,,,,,,6,4,112,3,,,,,,,,,main,2,2,1,neutral,negative,j,j,1,1.0282222999958321,353.637377899955,354.64197619998595,354.62535789998947,None,353.637377899955,None,353.637377899955,None,353.637377899955,None,355.6563968600065,None,355.6563968600065,None,355.6563968600065,None,,,,,,,,,,,,,026,2022-05-19_19h20.35.255,Main,2022.1.1,60.18411524603435,
neutral,positive,1,k,k,,,,,,,,,6,5,113,4,,,,,,,,,main,2,2,1,positive,neutral,k,k,1,0.7651535999611951,355.6596723999828,356.6726800999604,356.6560122999945,None,355.6596723999828,None,355.6596723999828,None,355.6596723999828,None,357.422923560004,None,357.422923560004,None,357.422923560004,None,,,,,,,,,,,,,026,2022-05-19_19h20.35.255,Main,2022.1.1,60.18411524603435,
negative,neutral,2,j,l,,,,,,,,,6,6,114,12,,,,,,,,,main,2,2,2,neutral,negative,j,j,1,0.6806987999589182,357.43965429998934,358.43939109996427,358.4227194999694,None,357.43965429998934,None,357.43965429998934,None,357.43965429998934,None,359.1063560599985,None,359.1063560599985,None,359.1063560599985,None,,,,,,,,,,,,,026,2022-05-19_19h20.35.255,Main,2022.1.1,60.18411524603435,
positive,positive,1,l,j,,,,,,,,,6,7,115,2,,,,,,,,,main,1,1,1,positive,positive,l,l,1,0.8817705999827012,359.1095930999727,360.1088633000036,360.1088633000036,None,359.1095930999727,None,359.1095930999727,None,359.1095930999727,None,360.9896324599802,None,360.9896324599802,None,360.9896324599802,None,,,,,,,,,,,,,026,2022-05-19_19h20.35.255,Main,2022.1.1,60.18411524603435,
neutral,neutral,1,k,k,,,,,,,,,6,8,116,1,,,,,,,,,main,1,1,1,neutral,neutral,k,k,1,0.6983806000207551,360.99309879995417,362.00847699999576,361.9918542999658,None,360.99309879995417,None,360.99309879995417,None,360.99309879995417,None,362.6895969600126,None,362.6895969600126,None,362.6895969600126,None,,,,,,,,,,,,,026,2022-05-19_19h20.35.255,Main,2022.1.1,60.18411524603435,
negative,positive,1,j,l,,,,,,,,,6,9,117,6,,,,,,,,,main,2,2,1,positive,negative,j,j,1,0.7316220999928191,362.69328319997294,363.7084430999821,363.6918122000061,None,362.69328319997294,None,362.69328319997294,None,362.69328319997294,None,364.4228802599653,None,364.4228802599653,None,364.4228802599653,None,,,,,,,,,,,,,026,2022-05-19_19h20.35.255,Main,2022.1.1,60.18411524603435,
negative,negative,1,j,l,,,,,,,,,6,10,118,0,,,,,,,,,main,2,2,1,negative,negative,j,j,1,0.6315208000014536,364.42605999996886,365.4395170999924,365.42219620000105,None,364.42605999996886,None,364.42605999996886,None,364.42605999996886,None,366.05607745998424,None,366.05607745998424,None,366.05607745998424,None,,,,,,,,,,,,,026,2022-05-19_19h20.35.255,Main,2022.1.1,60.18411524603435,
negative,positive,2,j,l,,,,,,,,,6,11,119,15,,,,,,,,,main,2,2,2,positive,negative,j,j,1,0.6689463999937288,366.0727245999733,367.0724854999571,367.0558214999619,None,366.0727245999733,None,366.0727245999733,None,366.0727245999733,None,367.72261595997844,None,367.72261595997844,None,367.72261595997844,None,,,,,,,,,,,,,026,2022-05-19_19h20.35.255,Main,2022.1.1,60.18411524603435,
positive,negative,1,l,j,,,,,,,,,6,12,120,5,,,,,,,,,main,2,2,1,negative,positive,l,l,1,0.7771833000006154,367.7302070999867,368.741658599989,368.7251446999726,None,367.7302070999867,None,367.7302070999867,None,367.7302070999867,None,369.5058774599864,None,369.5058774599864,None,369.5058774599864,None,,,,,,,,,,,,,026,2022-05-19_19h20.35.255,Main,2022.1.1,60.18411524603435,
neutral,neutral,2,k,k,,,,,,,,,6,13,121,10,,,,,,,,,main,2,2,2,neutral,neutral,k,k,1,0.7341775000095367,369.5123344999738,370.5250006999704,370.5084108999581,None,369.5123344999738,None,369.5123344999738,None,369.5123344999738,None,371.2416554599593,None,371.2416554599593,None,371.2416554599593,None,,,,,,,,,,,,,026,2022-05-19_19h20.35.255,Main,2022.1.1,60.18411524603435,
positive,negative,2,l,j,,,,,,,,,6,14,122,14,,,,,,,,,main,2,2,2,negative,positive,l,l,1,0.6970855999970809,371.2446248999913,372.2582457999815,372.2416503999848,None,371.2446248999913,None,371.2446248999913,None,371.2446248999913,None,372.94041486001225,None,372.94041486001225,None,372.94041486001225,None,,,,,,,,,,,,,026,2022-05-19_19h20.35.255,Main,2022.1.1,60.18411524603435,
neutral,negative,1,k,k,,,,,,,,,6,15,123,7,,,,,,,,,main,1,1,1,negative,neutral,k,k,1,0.6665543999988586,372.94603990000905,373.9582800999633,373.9416767999646,None,372.94603990000905,None,372.94603990000905,None,372.94603990000905,None,374.6085167599784,None,374.6085167599784,None,374.6085167599784,None,,,,,,,,,,,,,026,2022-05-19_19h20.35.255,Main,2022.1.1,60.18411524603435,
negative,negative,2,j,l,,,,,,,,,6,16,124,9,,,,,,,,,main,2,2,2,negative,negative,j,j,1,0.6631694000097923,374.6128447999945,375.6387044999865,375.5949563999893,None,374.6128447999945,None,374.6128447999945,None,374.6128447999945,None,376.27232555996744,None,376.27232555996744,None,376.27232555996744,None,,,,,,,,,,,,,026,2022-05-19_19h20.35.255,Main,2022.1.1,60.18411524603435,
positive,positive,2,l,j,,,,,,,,,6,17,125,11,,,,,,,,,main,2,2,2,positive,positive,l,l,1,0.7647136999876238,376.273429199995,377.28924919996643,377.27243349998025,None,376.273429199995,None,376.273429199995,None,376.273429199995,None,378.0391421599605,None,378.0391421599605,None,378.0391421599605,None,,,,,,,,,,,,,026,2022-05-19_19h20.35.255,Main,2022.1.1,60.18411524603435,
neutral,neutral,2,k,k,,,,,,,,,7,0,126,10,,,,,,,,,main,2,2,2,neutral,neutral,k,k,1,0.6478282000171021,378.0399333999958,379.0391566999606,379.0391566999606,None,378.0399333999958,None,378.0399333999958,None,378.0399333999958,None,379.68895015997697,None,379.68895015997697,None,379.68895015997697,None,,,,,,,,,,,,,026,2022-05-19_19h20.35.255,Main,2022.1.1,60.18411524603435,
positive,negative,1,l,j,,,,,,,,,7,1,127,5,,,,,,,,,main,2,2,1,negative,positive,l,l,1,0.8175905999960378,379.70560609997483,380.7081233999925,380.6915383999585,None,379.70560609997483,None,379.70560609997483,None,379.70560609997483,None,381.50808315995965,None,381.50808315995965,None,381.50808315995965,None,,,,,,,,,,,,,026,2022-05-19_19h20.35.255,Main,2022.1.1,60.18411524603435,
negative,neutral,2,j,l,,,,,,,,,7,2,128,12,,,,,,,,,main,2,2,2,neutral,negative,j,j,1,0.6986848000087775,381.5110216999892,382.5247595999972,382.5081744999625,None,381.5110216999892,None,381.5110216999892,None,381.5110216999892,None,383.20801265995834,None,383.20801265995834,None,383.20801265995834,None,,,,,,,,,,,,,026,2022-05-19_19h20.35.255,Main,2022.1.1,60.18411524603435,
negative,negative,1,j,l,,,,,,,,,7,3,129,0,,,,,,,,,main,2,2,1,negative,negative,j,j,1,0.713524500024505,383.2112729999935,384.22473939997144,384.20810839999467,None,383.2112729999935,None,383.2112729999935,None,383.2112729999935,None,384.9221980600094,None,384.9221980600094,None,384.9221980600094,None,,,,,,,,,,,,,026,2022-05-19_19h20.35.255,Main,2022.1.1,60.18411524603435,
neutral,positive,1,k,k,,,,,,,,,7,4,130,4,,,,,,,,,main,2,2,1,positive,neutral,k,k,1,0.6473266999819316,384.9292121999897,385.94131629995536,385.92471409996506,None,384.9292121999897,None,384.9292121999897,None,384.9292121999897,None,386.5724546600075,None,386.5724546600075,None,386.5724546600075,None,,,,,,,,,,,,,026,2022-05-19_19h20.35.255,Main,2022.1.1,60.18411524603435,
positive,positive,2,l,j,,,,,,,,,7,5,131,11,,,,,,,,,main,1,1,2,positive,positive,l,l,1,0.6482931000064127,386.57548659999156,387.5746993999928,387.55804360000184,None,386.57548659999156,None,386.57548659999156,None,386.57548659999156,None,388.22206876000274,None,388.22206876000274,None,388.22206876000274,None,,,,,,,,,,,,,026,2022-05-19_19h20.35.255,Main,2022.1.1,60.18411524603435,
negative,negative,2,j,l,,,,,,,,,7,6,132,9,,,,,,,,,main,2,2,2,negative,negative,j,j,1,0.6650517000234686,388.2220588999917,389.22212699998636,389.22212699998636,None,388.2220588999917,None,388.2220588999917,None,388.2220588999917,None,389.888707960007,None,389.888707960007,None,389.888707960007,None,,,,,,,,,,,,,026,2022-05-19_19h20.35.255,Main,2022.1.1,60.18411524603435,
positive,neutral,2,l,j,,,,,,,,,7,7,133,17,,,,,,,,,main,1,1,2,neutral,positive,l,l,1,0.699508199992124,389.88880829996197,390.88892629998736,390.88892629998736,None,389.88880829996197,None,389.88880829996197,None,389.88880829996197,None,391.5887332599785,None,391.5887332599785,None,391.5887332599785,None,,,,,,,,,,,,,026,2022-05-19_19h20.35.255,Main,2022.1.1,60.18411524603435,
positive,negative,2,l,j,,,,,,,,,7,8,134,14,,,,,,,,,main,2,2,2,negative,positive,l,l,1,0.6498130999971181,391.5930034999619,392.6054224999971,392.5913264999981,None,391.5930034999619,None,391.5930034999619,None,391.5930034999619,None,393.24125115996577,None,393.24125115996577,None,393.24125115996577,None,,,,,,,,,,,,,026,2022-05-19_19h20.35.255,Main,2022.1.1,60.18411524603435,
neutral,negative,2,k,k,,,,,,,,,7,9,135,16,,,,,,,,,main,2,2,2,negative,neutral,k,k,1,0.6623915000236593,393.2440021999646,394.25781390001066,394.2412128999713,None,393.2440021999646,None,393.2440021999646,None,393.2440021999646,None,394.9052993599733,None,394.9052993599733,None,394.9052993599733,None,,,,,,,,,,,,,026,2022-05-19_19h20.35.255,Main,2022.1.1,60.18411524603435,
neutral,positive,2,k,k,,,,,,,,,7,10,136,13,,,,,,,,,main,1,1,2,positive,neutral,k,k,1,0.5843142000376247,394.9085810999968,395.9078584999661,395.9078584999661,None,394.9085810999968,None,394.9085810999968,None,394.9085810999968,None,396.4912252600014,None,396.4912252600014,None,396.4912252600014,None,,,,,,,,,,,,,026,2022-05-19_19h20.35.255,Main,2022.1.1,60.18411524603435,
negative,neutral,1,j,l,,,,,,,,,7,11,137,3,,,,,,,,,main,2,2,1,neutral,negative,j,j,1,0.729248000017833,396.49521209998056,397.50780169997597,397.491194000002,None,396.49521209998056,None,396.49521209998056,None,396.49521209998056,None,398.222018859972,None,398.222018859972,None,398.222018859972,None,,,,,,,,,,,,,026,2022-05-19_19h20.35.255,Main,2022.1.1,60.18411524603435,
negative,positive,1,j,l,,,,,,,,,7,12,138,6,,,,,,,,,main,1,1,1,positive,negative,j,j,1,0.6187319000018761,398.24110509996535,399.2415927000111,399.2246995999594,None,398.24110509996535,None,398.24110509996535,None,398.24110509996535,None,399.8421647599724,None,399.8421647599724,None,399.8421647599724,None,,,,,,,,,,,,,026,2022-05-19_19h20.35.255,Main,2022.1.1,60.18411524603435,
positive,neutral,1,l,j,,,,,,,,,7,13,139,8,,,,,,,,,main,2,2,1,neutral,positive,l,l,1,0.6949890999821946,399.8554487999645,400.8554304999998,400.8384589999914,None,399.8554487999645,None,399.8554487999645,None,399.8554487999645,None,401.5384609600122,None,401.5384609600122,None,401.5384609600122,None,,,,,,,,,,,,,026,2022-05-19_19h20.35.255,Main,2022.1.1,60.18411524603435,
neutral,negative,1,k,k,,,,,,,,,7,14,140,7,,,,,,,,,main,1,1,1,negative,neutral,k,k,1,0.6659705999772996,401.5384519000072,402.53877519996604,402.53877519996604,None,401.5384519000072,None,401.5384519000072,None,401.5384519000072,None,403.20513766001096,None,403.20513766001096,None,403.20513766001096,None,,,,,,,,,,,,,026,2022-05-19_19h20.35.255,Main,2022.1.1,60.18411524603435,
positive,positive,1,l,j,,,,,,,,,7,15,141,2,,,,,,,,,main,1,1,1,positive,positive,l,l,1,0.699882399989292,403.2217907999875,404.22218989999965,404.2056126999669,None,403.2217907999875,None,403.2217907999875,None,403.2217907999875,None,404.90767436001335,None,404.90767436001335,None,404.90767436001335,None,,,,,,,,,,,,,026,2022-05-19_19h20.35.255,Main,2022.1.1,60.18411524603435,
neutral,neutral,1,k,k,,,,,,,,,7,16,142,1,,,,,,,,,main,2,2,1,neutral,neutral,k,k,1,0.6652364999754354,404.9117322000093,405.9242769999546,405.9076642,None,404.9117322000093,None,404.9117322000093,None,404.9117322000093,None,406.574335360009,None,406.574335360009,None,406.574335360009,None,,,,,,,,,,,,,026,2022-05-19_19h20.35.255,Main,2022.1.1,60.18411524603435,
negative,positive,2,j,l,,,,,,,,,7,17,143,15,,,,,,,,,main,1,1,2,positive,negative,j,j,1,0.7484934999956749,406.5771601999877,407.58852019999176,407.5743102999986,None,406.5771601999877,None,406.5771601999877,None,406.5771601999877,None,408.32422836000916,None,408.32422836000916,None,408.32422836000916,None,,,,,,,,,,,,,026,2022-05-19_19h20.35.255,Main,2022.1.1,60.18411524603435,
positive,negative,1,l,j,,,,,,,,,8,0,144,5,,,,,,,,,main,2,2,1,negative,positive,l,l,1,0.8628463000059128,408.3271668999805,409.34085989999585,409.3241483999882,None,408.3271668999805,None,408.3271668999805,None,408.3271668999805,None,410.18862885997515,None,410.18862885997515,None,410.18862885997515,None,,,,,,,,,,,,,026,2022-05-19_19h20.35.255,Main,2022.1.1,60.18411524603435,
positive,positive,2,l,j,,,,,,,,,8,1,145,11,,,,,,,,,main,2,2,2,positive,positive,l,l,1,0.7301189000136219,410.194320999959,411.207829699968,411.1910665999749,None,410.194320999959,None,410.194320999959,None,410.194320999959,None,411.9213313599874,None,411.9213313599874,None,411.9213313599874,None,,,,,,,,,,,,,026,2022-05-19_19h20.35.255,Main,2022.1.1,60.18411524603435,
negative,neutral,1,j,l,,,,,,,,,8,2,146,3,,,,,,,,,main,2,2,1,neutral,negative,j,j,1,0.7154041000176221,411.9321711999946,412.9384430999635,412.9215440999833,None,411.9321711999946,None,411.9321711999946,None,411.9321711999946,None,413.6382260600047,None,413.6382260600047,None,413.6382260600047,None,,,,,,,,,,,,,026,2022-05-19_19h20.35.255,Main,2022.1.1,60.18411524603435,
neutral,neutral,2,k,k,,,,,,,,,8,3,147,10,,,,,,,,,main,1,1,2,neutral,neutral,k,k,1,0.6483698000083677,413.6381681999774,414.6381875000079,414.6381875000079,None,413.6381681999774,None,413.6381681999774,None,413.6381681999774,None,415.28852465997335,None,415.28852465997335,None,415.28852465997335,None,,,,,,,,,,,,,026,2022-05-19_19h20.35.255,Main,2022.1.1,60.18411524603435,
positive,neutral,2,l,j,,,,,,,,,8,4,148,17,,,,,,,,,main,2,2,2,neutral,positive,l,l,1,0.6985726000275463,415.2898367999587,416.30485580000095,416.2881856999593,None,415.2898367999587,None,415.2898367999587,None,415.2898367999587,None,416.9885512600129,None,416.9885512600129,None,416.9885512600129,None,,,,,,,,,,,,,026,2022-05-19_19h20.35.255,Main,2022.1.1,60.18411524603435,
positive,positive,1,l,j,,,,,,,,,8,5,149,2,,,,,,,,,main,1,1,1,positive,positive,l,l,1,0.6817516000010073,416.9916407999699,417.9907062999555,417.9907062999555,None,416.9916407999699,None,416.9916407999699,None,416.9916407999699,None,418.6717947599653,None,418.6717947599653,None,418.6717947599653,None,,,,,,,,,,,,,026,2022-05-19_19h20.35.255,Main,2022.1.1,60.18411524603435,
negative,negative,1,j,l,,,,,,,,,8,6,150,0,,,,,,,,,main,2,2,1,negative,negative,j,j,1,0.7338944000075571,418.67511149996426,419.69058960000984,419.67402979999315,None,418.67511149996426,None,418.67511149996426,None,418.67511149996426,None,420.4072558599699,None,420.4072558599699,None,420.4072558599699,None,,,,,,,,,,,,,026,2022-05-19_19h20.35.255,Main,2022.1.1,60.18411524603435,
negative,negative,2,j,l,,,,,,,,,8,7,151,9,,,,,,,,,main,2,2,2,negative,negative,j,j,1,0.6962224000017159,420.4099500000011,421.4239239000017,421.40731819998473,None,420.4099500000011,None,420.4099500000011,None,420.4099500000011,None,422.10504445996486,None,422.10504445996486,None,422.10504445996486,None,,,,,,,,,,,,,026,2022-05-19_19h20.35.255,Main,2022.1.1,60.18411524603435,
neutral,positive,2,k,k,,,,,,,,,8,8,152,13,,,,,,,,,main,2,2,2,positive,neutral,k,k,1,0.6320134000270627,422.1084212999558,423.12398099998245,423.0907050999813,None,422.1084212999558,None,422.1084212999558,None,422.1084212999558,None,423.7384055600094,None,423.7384055600094,None,423.7384055600094,None,,,,,,,,,,,,,026,2022-05-19_19h20.35.255,Main,2022.1.1,60.18411524603435,
neutral,negative,1,k,k,,,,,,,,,8,9,153,7,,,,,,,,,main,1,1,1,negative,neutral,k,k,1,0.6148403999977745,423.7445382999722,424.7546084999922,424.7379412999726,None,423.7445382999722,None,423.7445382999722,None,423.7445382999722,None,425.3548368600139,None,425.3548368600139,None,425.3548368600139,None,,,,,,,,,,,,,026,2022-05-19_19h20.35.255,Main,2022.1.1,60.18411524603435,
neutral,negative,2,k,k,,,,,,,,,8,10,154,16,,,,,,,,,main,2,2,2,negative,neutral,k,k,1,0.5815495999995619,425.3546195999952,426.35464479995426,426.35464479995426,None,425.3546195999952,None,425.3546195999952,None,425.3546195999952,None,426.93796155995807,None,426.93796155995807,None,426.93796155995807,None,,,,,,,,,,,,,026,2022-05-19_19h20.35.255,Main,2022.1.1,60.18411524603435,
neutral,positive,1,k,k,,,,,,,,,8,11,155,4,,,,,,,,,main,2,2,1,positive,neutral,k,k,1,0.9176164999953471,426.93829669995466,427.9379456999595,427.9379456999595,None,426.93829669995466,None,426.93829669995466,None,426.93829669995466,None,428.85714735997027,None,428.85714735997027,None,428.85714735997027,None,,,,,,,,,,,,,026,2022-05-19_19h20.35.255,Main,2022.1.1,60.18411524603435,
negative,neutral,2,j,l,,,,,,,,,8,12,156,12,,,,,,,,,main,2,2,2,neutral,negative,j,j,1,0.6469613999943249,428.86070269998163,429.8737754999893,429.8571719999891,None,428.86070269998163,None,428.86070269998163,None,428.86070269998163,None,430.5051527599979,None,430.5051527599979,None,430.5051527599979,None,,,,,,,,,,,,,026,2022-05-19_19h20.35.255,Main,2022.1.1,60.18411524603435,
negative,positive,2,j,l,,,,,,,,,8,13,157,15,,,,,,,,,main,1,1,2,positive,negative,j,j,1,0.6154977999976836,430.51513479999267,431.5236964999931,431.5071139999782,None,430.51513479999267,None,430.51513479999267,None,430.51513479999267,None,432.1238002599974,None,432.1238002599974,None,432.1238002599974,None,,,,,,,,,,,,,026,2022-05-19_19h20.35.255,Main,2022.1.1,60.18411524603435,
positive,negative,2,l,j,,,,,,,,,8,14,158,14,,,,,,,,,main,2,2,2,negative,positive,l,l,1,0.8127963999868371,432.1267637999845,433.14032529998804,433.12375559995417,None,432.1267637999845,None,432.1267637999845,None,432.1267637999845,None,433.9381769599684,None,433.9381769599684,None,433.9381769599684,None,,,,,,,,,,,,,026,2022-05-19_19h20.35.255,Main,2022.1.1,60.18411524603435,
positive,neutral,1,l,j,,,,,,,,,8,15,159,8,,,,,,,,,main,2,2,1,neutral,positive,l,l,1,0.9647053999942727,433.94393030001083,434.9570438999799,434.94036809995305,None,433.94393030001083,None,433.94393030001083,None,433.94393030001083,None,435.9044595599815,None,435.9044595599815,None,435.9044595599815,None,,,,,,,,,,,,,026,2022-05-19_19h20.35.255,Main,2022.1.1,60.18411524603435,
negative,positive,1,j,l,,,,,,,,,8,16,160,6,,,,,,,,,main,2,2,1,positive,negative,j,j,1,0.7321501999977045,435.90783399995416,436.9210596999619,436.9043931000051,None,435.90783399995416,None,435.90783399995416,None,435.90783399995416,None,437.6377145600098,None,437.6377145600098,None,437.6377145600098,None,,,,,,,,,,,,,026,2022-05-19_19h20.35.255,Main,2022.1.1,60.18411524603435,
neutral,neutral,1,k,k,,,,,,,,,8,17,161,1,,,,,,,,,main,1,1,1,neutral,neutral,k,k,1,0.7852376999799162,437.6377427999978,438.63769189995946,438.63769189995946,None,437.6377427999978,None,437.6377427999978,None,437.6377427999978,None,439.4210521600151,None,439.4210521600151,None,439.4210521600151,None,,,,,,,,,,,,,026,2022-05-19_19h20.35.255,Main,2022.1.1,60.18411524603435,
neutral,negative,2,k,k,,,,,,,,,9,0,162,16,,,,,,,,,main,1,1,2,negative,neutral,k,k,1,0.8329616000410169,439.4267118999851,440.4377082999563,440.421043499955,None,439.4267118999851,None,439.4267118999851,None,439.4267118999851,None,441.2587487599638,None,441.2587487599638,None,441.2587487599638,None,,,,,,,,,,,,,026,2022-05-19_19h20.35.255,Main,2022.1.1,60.18411524603435,
negative,neutral,1,j,l,,,,,,,,,9,1,163,3,,,,,,,,,main,1,1,1,neutral,negative,j,j,1,0.7749899000045843,441.26442849996965,442.27349839999806,442.2544617999811,None,441.26442849996965,None,441.26442849996965,None,441.26442849996965,None,443.0376450599695,None,443.0376450599695,None,443.0376450599695,None,,,,,,,,,,,,,026,2022-05-19_19h20.35.255,Main,2022.1.1,60.18411524603435,
negative,neutral,2,j,l,,,,,,,,,9,2,164,12,,,,,,,,,main,2,2,2,neutral,negative,j,j,1,0.781655500002671,443.04134180000983,444.05678280000575,444.0402099000057,None,443.04134180000983,None,443.04134180000983,None,443.04134180000983,None,444.82096295999946,None,444.82096295999946,None,444.82096295999946,None,,,,,,,,,,,,,026,2022-05-19_19h20.35.255,Main,2022.1.1,60.18411524603435,
negative,positive,2,j,l,,,,,,,,,9,3,165,15,,,,,,,,,main,1,1,2,positive,negative,j,j,1,0.6152431999798864,444.8272357999813,445.8400669999537,445.8212092999602,None,444.8272357999813,None,444.8272357999813,None,444.8272357999813,None,446.43790335998057,None,446.43790335998057,None,446.43790335998057,None,,,,,,,,,,,,,026,2022-05-19_19h20.35.255,Main,2022.1.1,60.18411524603435,
positive,negative,2,l,j,,,,,,,,,9,4,166,14,,,,,,,,,main,1,1,2,negative,positive,l,j,0,0.7505393999745138,446.4419539999799,447.45674029999645,447.44021749997046,None,446.4419539999799,None,446.4419539999799,None,446.4419539999799,None,448.19001600000774,None,448.19001600000774,None,448.19001600000774,None,,,,,,,,,,,,,026,2022-05-19_19h20.35.255,Main,2022.1.1,60.18411524603435,
positive,negative,1,l,j,,,,,,,,,9,5,167,5,,,,,,,,,main,2,2,1,negative,positive,l,l,1,0.6194933999795467,449.20413569995435,450.20415429997956,450.20415429997956,None,449.20413569995435,None,449.20413569995435,None,449.20413569995435,None,450.82081946001273,None,450.82081946001273,None,450.82081946001273,None,,,,,,,,,,,,,026,2022-05-19_19h20.35.255,Main,2022.1.1,60.18411524603435,
positive,neutral,2,l,j,,,,,,,,,9,6,168,17,,,,,,,,,main,1,1,2,neutral,positive,l,l,1,0.597888000018429,450.8243159999838,451.82340210000984,451.82340210000984,None,450.8243159999838,None,450.8243159999838,None,450.8243159999838,None,452.4208260599815,None,452.4208260599815,None,452.4208260599815,None,,,,,,,,,,,,,026,2022-05-19_19h20.35.255,Main,2022.1.1,60.18411524603435,
positive,positive,2,l,j,,,,,,,,,9,7,169,11,,,,,,,,,main,2,2,2,positive,positive,l,l,1,0.6196889000129886,452.4269127000007,453.43997849995503,453.4066993999877,None,452.4269127000007,None,452.4269127000007,None,452.4269127000007,None,454.0377307599818,None,454.0377307599818,None,454.0377307599818,None,,,,,,,,,,,,,026,2022-05-19_19h20.35.255,Main,2022.1.1,60.18411524603435,
negative,negative,2,j,l,,,,,,,,,9,8,170,9,,,,,,,,,main,1,1,2,negative,negative,j,j,1,0.710279899998568,454.04517840000335,455.05435439996654,455.03993480000645,None,454.04517840000335,None,454.04517840000335,None,454.04517840000335,None,455.7543620599725,None,455.7543620599725,None,455.7543620599725,None,,,,,,,,,,,,,026,2022-05-19_19h20.35.255,Main,2022.1.1,60.18411524603435,
neutral,positive,1,k,k,,,,,,,,,9,9,171,4,,,,,,,,,main,1,1,1,positive,neutral,k,k,1,0.650599799992051,455.7600991000072,456.7732359999791,456.7566443000105,None,455.7600991000072,None,455.7600991000072,None,455.7600991000072,None,457.4065415600024,None,457.4065415600024,None,457.4065415600024,None,,,,,,,,,,,,,026,2022-05-19_19h20.35.255,Main,2022.1.1,60.18411524603435,
neutral,neutral,1,k,k,,,,,,,,,9,10,172,1,,,,,,,,,main,1,1,1,neutral,neutral,k,k,1,0.5293760999920778,457.40935380000155,458.4213189999573,458.40665009996155,None,457.40935380000155,None,457.40935380000155,None,457.40935380000155,None,458.9376228599984,None,458.9376228599984,None,458.9376228599984,None,,,,,,,,,,,,,026,2022-05-19_19h20.35.255,Main,2022.1.1,60.18411524603435,
negative,positive,1,j,l,,,,,,,,,9,11,173,6,,,,,,,,,main,2,2,1,positive,negative,j,j,1,0.8656211000052281,458.9411505999742,459.9543432999635,459.93724989995826,None,458.9411505999742,None,458.9411505999742,None,458.9411505999742,None,460.8038951600145,None,460.8038951600145,None,460.8038951600145,None,,,,,,,,,,,,,026,2022-05-19_19h20.35.255,Main,2022.1.1,60.18411524603435,
neutral,positive,2,k,k,,,,,,,,,9,12,174,13,,,,,,,,,main,2,2,2,positive,neutral,k,k,1,0.6335017000092193,460.82053749996703,461.8231589999632,461.8064832999953,None,460.82053749996703,None,460.82053749996703,None,460.82053749996703,None,462.43974705999136,None,462.43974705999136,None,462.43974705999136,None,,,,,,,,,,,,,026,2022-05-19_19h20.35.255,Main,2022.1.1,60.18411524603435,
neutral,negative,1,k,k,,,,,,,,,9,13,175,7,,,,,,,,,main,1,1,1,negative,neutral,k,k,1,0.7626765999593772,462.44230489997426,463.4563716999837,463.4397733999649,None,462.44230489997426,None,462.44230489997426,None,462.44230489997426,None,464.20388695997536,None,464.20388695997536,None,464.20388695997536,None,,,,,,,,,,,,,026,2022-05-19_19h20.35.255,Main,2022.1.1,60.18411524603435,
negative,negative,1,j,l,,,,,,,,,9,14,176,0,,,,,,,,,main,2,2,1,negative,negative,j,k,0,0.7009661000338383,464.206884299987,465.2063642999856,465.1897350999643,None,464.206884299987,None,464.206884299987,None,464.206884299987,None,465.9063821999589,None,465.9063821999589,None,465.9063821999589,None,,,,,,,,,,,,,026,2022-05-19_19h20.35.255,Main,2022.1.1,60.18411524603435,
neutral,neutral,2,k,k,,,,,,,,,9,15,177,10,,,,,,,,,main,2,2,2,neutral,neutral,k,k,1,0.6348064999911003,466.9041331000044,467.9062813000055,467.88975659996504,None,466.9041331000044,None,466.9041331000044,None,466.9041331000044,None,468.53742535998464,None,468.53742535998464,None,468.53742535998464,None,,,,,,,,,,,,,026,2022-05-19_19h20.35.255,Main,2022.1.1,60.18411524603435,
positive,positive,1,l,j,,,,,,,,,9,16,178,2,,,,,,,,,main,2,2,1,positive,positive,l,l,1,0.7642786999931559,468.5414608999854,469.5537131999736,469.53703419998055,None,468.5414608999854,None,468.5414608999854,None,468.5414608999854,None,470.30368935996086,None,470.30368935996086,None,470.30368935996086,None,,,,,,,,,,,,,026,2022-05-19_19h20.35.255,Main,2022.1.1,60.18411524603435,
positive,neutral,1,l,j,,,,,,,,,9,17,179,8,,,,,,,,,main,1,1,1,neutral,positive,l,l,1,0.7149348000530154,470.303679500008,471.3037020000047,471.3037020000047,None,470.303679500008,None,470.303679500008,None,470.303679500008,None,472.02036875996856,None,472.02036875996856,None,472.02036875996856,None,,,,,,,,,,,,,026,2022-05-19_19h20.35.255,Main,2022.1.1,60.18411524603435,
negative,neutral,1,j,l,,,,,,,,,10,0,180,3,,,,,,,,,main,1,1,1,neutral,negative,j,j,1,0.9329753000056371,472.0277524999692,473.0370133999968,473.0203499000054,None,472.0277524999692,None,472.0277524999692,None,472.0277524999692,None,473.95497525999673,None,473.95497525999673,None,473.95497525999673,None,,,,,,,,,,,,,026,2022-05-19_19h20.35.255,Main,2022.1.1,60.18411524603435,
neutral,negative,1,k,k,,,,,,,,,10,1,181,7,,,,,,,,,main,2,2,1,negative,neutral,k,k,1,0.6972274000290781,473.96067969995784,474.9728329000063,474.9562487999792,None,473.96067969995784,None,473.96067969995784,None,473.96067969995784,None,475.65363895996126,None,475.65363895996126,None,475.65363895996126,None,,,,,,,,,,,,,026,2022-05-19_19h20.35.255,Main,2022.1.1,60.18411524603435,
neutral,positive,2,k,k,,,,,,,,,10,2,182,13,,,,,,,,,main,2,2,2,positive,neutral,k,k,1,0.5497552999877371,475.6571127999923,476.6561842999654,476.6561842999654,None,475.6571127999923,None,475.6571127999923,None,475.6571127999923,None,477.204946560011,None,477.204946560011,None,477.204946560011,None,,,,,,,,,,,,,026,2022-05-19_19h20.35.255,Main,2022.1.1,60.18411524603435,
negative,negative,1,j,l,,,,,,,,,10,3,183,0,,,,,,,,,main,1,1,1,negative,negative,j,j,1,0.7140361000201665,477.2105739999679,478.22274150000885,478.20619850000367,None,477.2105739999679,None,477.2105739999679,None,477.2105739999679,None,478.9205522599921,None,478.9205522599921,None,478.9205522599921,None,,,,,,,,,,,,,026,2022-05-19_19h20.35.255,Main,2022.1.1,60.18411524603435,
negative,positive,2,j,l,,,,,,,,,10,4,184,15,,,,,,,,,main,1,1,2,positive,negative,j,j,1,0.6984867999562994,478.92384639999364,479.9393788999878,479.92276960000163,None,478.92384639999364,None,478.92384639999364,None,478.92384639999364,None,480.6205203599937,None,480.6205203599937,None,480.6205203599937,None,,,,,,,,,,,,,026,2022-05-19_19h20.35.255,Main,2022.1.1,60.18411524603435,
neutral,neutral,2,k,k,,,,,,,,,10,5,185,10,,,,,,,,,main,1,1,2,neutral,neutral,k,k,1,0.698019600007683,480.6241144000087,481.6372187999659,481.62035109999124,None,480.6241144000087,None,480.6241144000087,None,480.6241144000087,None,482.32011695996044,None,482.32011695996044,None,482.32011695996044,None,,,,,,,,,,,,,026,2022-05-19_19h20.35.255,Main,2022.1.1,60.18411524603435,
negative,positive,1,j,l,,,,,,,,,10,6,186,6,,,,,,,,,main,2,2,1,positive,negative,j,j,1,0.7022577000316232,482.3200999999535,483.3201526000048,483.3201526000048,None,482.3200999999535,None,482.3200999999535,None,482.3200999999535,None,484.0227434600063,None,484.0227434600063,None,484.0227434600063,None,,,,,,,,,,,,,026,2022-05-19_19h20.35.255,Main,2022.1.1,60.18411524603435,
negative,neutral,2,j,l,,,,,,,,,10,7,187,12,,,,,,,,,main,2,2,2,neutral,negative,j,j,1,0.6968227000324987,484.02712990000146,485.03925899998285,485.02267459995346,None,484.02712990000146,None,484.02712990000146,None,484.02712990000146,None,485.7225653600006,None,485.7225653600006,None,485.7225653600006,None,,,,,,,,,,,,,026,2022-05-19_19h20.35.255,Main,2022.1.1,60.18411524603435,
neutral,negative,2,k,k,,,,,,,,,10,8,188,16,,,,,,,,,main,2,2,2,negative,neutral,k,k,1,0.6629539999994449,485.7263668999658,486.7392229999532,486.7226090999902,None,485.7263668999658,None,485.7263668999658,None,485.7263668999658,None,487.38701295996435,None,487.38701295996435,None,487.38701295996435,None,,,,,,,,,,,,,026,2022-05-19_19h20.35.255,Main,2022.1.1,60.18411524603435,
positive,neutral,1,l,j,,,,,,,,,10,9,189,8,,,,,,,,,main,1,1,1,neutral,positive,l,l,1,0.7318152000079863,487.39265039999736,488.4034699999611,488.372619199974,None,487.39265039999736,None,487.39265039999736,None,487.39265039999736,None,489.1203288599907,None,489.1203288599907,None,489.1203288599907,None,,,,,,,,,,,,,026,2022-05-19_19h20.35.255,Main,2022.1.1,60.18411524603435,
negative,negative,2,j,l,,,,,,,,,10,10,190,9,,,,,,,,,main,1,1,2,negative,negative,j,j,1,0.7981506999931298,489.1235306999879,490.122585999954,490.122585999954,None,489.1235306999879,None,489.1235306999879,None,489.1235306999879,None,490.9202878599579,None,490.9202878599579,None,490.9202878599579,None,,,,,,,,,,,,,026,2022-05-19_19h20.35.255,Main,2022.1.1,60.18411524603435,
neutral,neutral,1,k,k,,,,,,,,,10,11,191,1,,,,,,,,,main,1,1,1,neutral,neutral,k,k,1,0.6685041000018828,490.9391903000069,491.95325600000797,491.9199306999799,None,490.9391903000069,None,490.9391903000069,None,490.9391903000069,None,492.5865873599949,None,492.5865873599949,None,492.5865873599949,None,,,,,,,,,,,,,026,2022-05-19_19h20.35.255,Main,2022.1.1,60.18411524603435,
positive,neutral,2,l,j,,,,,,,,,10,12,192,17,,,,,,,,,main,2,2,2,neutral,positive,l,l,1,0.7143045000266284,492.5896180999698,493.60327620001044,493.5866755999741,None,492.5896180999698,None,492.5896180999698,None,492.5896180999698,None,494.30584665997304,None,494.30584665997304,None,494.30584665997304,None,,,,,,,,,,,,,026,2022-05-19_19h20.35.255,Main,2022.1.1,60.18411524603435,
positive,positive,1,l,j,,,,,,,,,10,13,193,2,,,,,,,,,main,1,1,1,positive,positive,l,l,1,0.8627808999735862,494.3087408999563,495.3223779000109,495.30579650000436,None,494.3087408999563,None,494.3087408999563,None,494.3087408999563,None,496.17022175997846,None,496.17022175997846,None,496.17022175997846,None,,,,,,,,,,,,,026,2022-05-19_19h20.35.255,Main,2022.1.1,60.18411524603435,
positive,negative,2,l,j,,,,,,,,,10,14,194,14,,,,,,,,,main,1,1,2,negative,positive,l,l,1,0.6837020000093617,496.17355349997524,497.1891164999688,497.17248569999356,None,496.17355349997524,None,496.17355349997524,None,496.17355349997524,None,497.85568115998177,None,497.85568115998177,None,497.85568115998177,None,,,,,,,,,,,,,026,2022-05-19_19h20.35.255,Main,2022.1.1,60.18411524603435,
positive,positive,2,l,j,,,,,,,,,10,15,195,11,,,,,,,,,main,1,1,2,positive,positive,l,l,1,0.5987516999593936,497.85924939997494,498.8723761999863,498.85572629998205,None,497.85924939997494,None,497.85924939997494,None,497.85924939997494,None,499.4556718600041,None,499.4556718600041,None,499.4556718600041,None,,,,,,,,,,,,,026,2022-05-19_19h20.35.255,Main,2022.1.1,60.18411524603435,
neutral,positive,1,k,k,,,,,,,,,10,16,196,4,,,,,,,,,main,1,1,1,positive,neutral,k,k,1,0.7149555999785662,499.45879589999095,500.4723110999912,500.45572709996486,None,499.45879589999095,None,499.45879589999095,None,499.45879589999095,None,501.1723015599826,None,501.1723015599826,None,501.1723015599826,None,,,,,,,,,,,,,026,2022-05-19_19h20.35.255,Main,2022.1.1,60.18411524603435,
positive,negative,1,l,j,,,,,,,,,10,17,197,5,,,,,,,,,main,1,1,1,negative,positive,l,j,0,0.9627854999853298,501.17543599999044,502.1863643999677,502.1699806000106,None,501.17543599999044,None,501.17543599999044,None,501.17543599999044,None,503.1363701999653,None,503.1363701999653,None,503.1363701999653,None,,,,,,,,,,,,,026,2022-05-19_19h20.35.255,Main,2022.1.1,60.18411524603435,
positive,neutral,2,l,j,,,,,,,,,11,0,198,17,,,,,,,,,main,2,2,2,neutral,positive,l,l,1,0.586629300029017,504.13761609996436,505.1389020999777,505.12229669996304,None,504.13761609996436,None,504.13761609996436,None,504.13761609996436,None,505.722220759996,None,505.722220759996,None,505.722220759996,None,,,,,,,,,,,,,026,2022-05-19_19h20.35.255,Main,2022.1.1,60.18411524603435,
neutral,neutral,1,k,k,,,,,,,,,11,1,199,1,,,,,,,,,main,2,2,1,neutral,neutral,k,k,1,0.7457809000043198,505.72501519997604,506.7388146999874,506.7222143999534,None,505.72501519997604,None,505.72501519997604,None,505.72501519997604,None,507.46999585999293,None,507.46999585999293,None,507.46999585999293,None,,,,,,,,,,,,,026,2022-05-19_19h20.35.255,Main,2022.1.1,60.18411524603435,
negative,neutral,2,j,l,,,,,,,,,11,2,200,12,,,,,,,,,main,2,2,2,neutral,negative,j,j,1,0.6814638000214472,507.47399089997634,508.4887828999781,508.4721958999871,None,507.47399089997634,None,507.47399089997634,None,507.47399089997634,None,509.1529544599878,None,509.1529544599878,None,509.1529544599878,None,,,,,,,,,,,,,026,2022-05-19_19h20.35.255,Main,2022.1.1,60.18411524603435,
positive,negative,2,l,j,,,,,,,,,11,3,201,14,,,,,,,,,main,2,2,2,negative,positive,l,l,1,0.8344722000183538,509.15580899995985,510.1554833999835,510.1388130999985,None,509.15580899995985,None,509.15580899995985,None,509.15580899995985,None,510.98882355999086,None,510.98882355999086,None,510.98882355999086,None,,,,,,,,,,,,,026,2022-05-19_19h20.35.255,Main,2022.1.1,60.18411524603435,
positive,negative,1,l,j,,,,,,,,,11,4,202,5,,,,,,,,,main,2,2,1,negative,positive,l,l,1,0.6790889000403695,510.992056099989,512.0028151999577,511.98615309997695,None,510.992056099989,None,510.992056099989,None,510.992056099989,None,512.6695165599638,None,512.6695165599638,None,512.6695165599638,None,,,,,,,,,,,,,026,2022-05-19_19h20.35.255,Main,2022.1.1,60.18411524603435,
negative,positive,2,j,l,,,,,,,,,11,5,203,15,,,,,,,,,main,1,1,2,positive,negative,j,j,1,0.9985039999592118,512.6863683999982,513.6863648999715,513.6700416000094,None,512.6863683999982,None,512.6863683999982,None,512.6863683999982,None,514.6694836600043,None,514.6694836600043,None,514.6694836600043,None,,,,,,,,,,,,,026,2022-05-19_19h20.35.255,Main,2022.1.1,60.18411524603435,
negative,negative,2,j,l,,,,,,,,,11,6,204,9,,,,,,,,,main,2,2,2,negative,negative,j,j,1,0.615605200000573,514.6767719999771,515.6861617999966,515.6697142999619,None,514.6767719999771,None,514.6767719999771,None,514.6767719999771,None,516.2879005599941,None,516.2879005599941,None,516.2879005599941,None,,,,,,,,,,,,,026,2022-05-19_19h20.35.255,Main,2022.1.1,60.18411524603435,
positive,positive,2,l,j,,,,,,,,,11,7,205,11,,,,,,,,,main,2,2,2,positive,positive,l,l,1,1.1302804999868385,516.2967311000102,517.3052720999694,517.2887023999938,None,516.2967311000102,None,516.2967311000102,None,516.2967311000102,None,518.4195357599936,None,518.4195357599936,None,518.4195357599936,None,,,,,,,,,,,,,026,2022-05-19_19h20.35.255,Main,2022.1.1,60.18411524603435,
positive,neutral,1,l,j,,,,,,,,,11,8,206,8,,,,,,,,,main,1,1,1,neutral,positive,l,l,1,0.7009449999895878,518.425632199971,519.4385866000084,519.4219599000062,None,518.425632199971,None,518.425632199971,None,518.425632199971,None,520.122022659966,None,520.122022659966,None,520.122022659966,None,,,,,,,,,,,,,026,2022-05-19_19h20.35.255,Main,2022.1.1,60.18411524603435,
neutral,positive,1,k,k,,,,,,,,,11,9,207,4,,,,,,,,,main,2,2,1,positive,neutral,k,k,1,0.6481228999909945,520.1283936999971,521.1385266999714,521.1219477999839,None,520.1283936999971,None,520.1283936999971,None,520.1283936999971,None,521.7718814599618,None,521.7718814599618,None,521.7718814599618,None,,,,,,,,,,,,,026,2022-05-19_19h20.35.255,Main,2022.1.1,60.18411524603435,
neutral,negative,1,k,k,,,,,,,,,11,10,208,7,,,,,,,,,main,2,2,1,negative,neutral,k,k,1,0.5463543999940157,521.7757294999901,522.7885594000109,522.7718954999582,None,521.7757294999901,None,521.7757294999901,None,521.7757294999901,None,523.3196378599794,None,523.3196378599794,None,523.3196378599794,None,,,,,,,,,,,,,026,2022-05-19_19h20.35.255,Main,2022.1.1,60.18411524603435,
negative,negative,1,j,l,,,,,,,,,11,11,209,0,,,,,,,,,main,2,2,1,negative,negative,j,j,1,0.8479996000532992,523.3230909999693,524.3361329999752,524.3193053999566,None,523.3230909999693,None,523.3230909999693,None,523.3230909999693,None,525.1692567599646,None,525.1692567599646,None,525.1692567599646,None,,,,,,,,,,,,,026,2022-05-19_19h20.35.255,Main,2022.1.1,60.18411524603435,
negative,positive,1,j,l,,,,,,,,,11,12,210,6,,,,,,,,,main,2,2,1,positive,negative,j,j,1,0.6650192000088282,525.169211099972,526.1692238999531,526.1692238999531,None,525.169211099972,None,525.169211099972,None,525.169211099972,None,526.8358940600126,None,526.8358940600126,None,526.8358940600126,None,,,,,,,,,,,,,026,2022-05-19_19h20.35.255,Main,2022.1.1,60.18411524603435,
neutral,neutral,2,k,k,,,,,,,,,11,13,211,10,,,,,,,,,main,1,1,2,neutral,neutral,k,k,1,0.7343924999586307,526.8360255999723,527.8358865999617,527.8358865999617,None,526.8360255999723,None,526.8360255999723,None,526.8360255999723,None,528.571855459985,None,528.571855459985,None,528.571855459985,None,,,,,,,,,,,,,026,2022-05-19_19h20.35.255,Main,2022.1.1,60.18411524603435,
negative,neutral,1,j,l,,,,,,,,,11,14,212,3,,,,,,,,,main,2,2,1,neutral,negative,j,j,1,0.7317595999920741,528.5747064999887,529.5887521999539,529.5718142999685,None,528.5747064999887,None,528.5747064999887,None,528.5747064999887,None,530.3050634600047,None,530.3050634600047,None,530.3050634600047,None,,,,,,,,,,,,,026,2022-05-19_19h20.35.255,Main,2022.1.1,60.18411524603435,
positive,positive,1,l,j,,,,,,,,,11,15,213,2,,,,,,,,,main,2,2,1,positive,positive,l,l,1,0.6320350000169128,530.3081224999623,531.3216642999905,531.3050699000014,None,530.3081224999623,None,530.3081224999623,None,530.3081224999623,None,531.9383977599616,None,531.9383977599616,None,531.9383977599616,None,,,,,,,,,,,,,026,2022-05-19_19h20.35.255,Main,2022.1.1,60.18411524603435,
neutral,positive,2,k,k,,,,,,,,,11,16,214,13,,,,,,,,,main,1,1,2,positive,neutral,k,k,1,0.6131633000331931,531.9417111999937,532.9549724999815,532.938345099974,None,531.9417111999937,None,531.9417111999937,None,531.9417111999937,None,533.552780759969,None,533.552780759969,None,533.552780759969,None,,,,,,,,,,,,,026,2022-05-19_19h20.35.255,Main,2022.1.1,60.18411524603435,
neutral,negative,2,k,k,,,,,,,,,11,17,215,16,,,,,,,,,main,1,1,2,negative,neutral,k,k,1,0.5498934999923222,533.5565798999742,534.5716082999716,534.5550029999577,None,533.5565798999742,None,533.5565798999742,None,533.5565798999742,None,535.1049443599593,None,535.1049443599593,None,535.1049443599593,None,,,,,,,,,,,,,026,2022-05-19_19h20.35.255,Main,2022.1.1,60.18411524603435,
positive,positive,2,l,j,,,,,,,,,12,0,216,11,,,,,,,,,main,1,1,2,positive,positive,l,l,1,0.7619386999867857,535.109210399969,536.1190215999959,536.1023600999615,None,535.109210399969,None,535.109210399969,None,535.109210399969,None,536.8690012600098,None,536.8690012600098,None,536.8690012600098,None,,,,,,,,,,,,,026,2022-05-19_19h20.35.255,Main,2022.1.1,60.18411524603435,
positive,neutral,2,l,j,,,,,,,,,12,1,217,17,,,,,,,,,main,2,2,2,neutral,positive,l,l,1,0.6650887000141665,536.8689773000078,537.868980499974,537.868980499974,None,536.8689773000078,None,536.8689773000078,None,536.8689773000078,None,538.5356438599817,None,538.5356438599817,None,538.5356438599817,None,,,,,,,,,,,,,026,2022-05-19_19h20.35.255,Main,2022.1.1,60.18411524603435,
negative,neutral,2,j,l,,,,,,,,,12,2,218,12,,,,,,,,,main,1,1,2,neutral,negative,j,j,1,0.7482931999838911,538.5375178999966,539.552336099965,539.5359729999909,None,538.5375178999966,None,538.5375178999966,None,538.5375178999966,None,540.2856506599753,None,540.2856506599753,None,540.2856506599753,None,,,,,,,,,,,,,026,2022-05-19_19h20.35.255,Main,2022.1.1,60.18411524603435,
negative,negative,1,j,l,,,,,,,,,12,3,219,0,,,,,,,,,main,2,2,1,negative,negative,j,j,1,0.6314257000340149,540.2918774999562,541.3047883000108,541.2882391999592,None,540.2918774999562,None,540.2918774999562,None,540.2918774999562,None,541.9190488600113,None,541.9190488600113,None,541.9190488600113,None,,,,,,,,,,,,,026,2022-05-19_19h20.35.255,Main,2022.1.1,60.18411524603435,
neutral,neutral,2,k,k,,,,,,,,,12,4,220,10,,,,,,,,,main,1,1,2,neutral,neutral,k,k,1,0.6339866999769583,541.9251631000079,542.938093899982,542.9214931000024,None,541.9251631000079,None,541.9251631000079,None,541.9251631000079,None,543.5547705599863,None,543.5547705599863,None,543.5547705599863,None,,,,,,,,,,,,,026,2022-05-19_19h20.35.255,Main,2022.1.1,60.18411524603435,
positive,negative,2,l,j,,,,,,,,,12,5,221,14,,,,,,,,,main,2,2,2,negative,positive,l,l,1,0.7484836999792606,543.5581480999826,544.5714556999737,544.5548010999919,None,543.5581480999826,None,543.5581480999826,None,543.5581480999826,None,545.3047446599637,None,545.3047446599637,None,545.3047446599637,None,,,,,,,,,,,,,026,2022-05-19_19h20.35.255,Main,2022.1.1,60.18411524603435,
neutral,positive,2,k,k,,,,,,,,,12,6,222,13,,,,,,,,,main,2,2,2,positive,neutral,k,k,1,0.6662696999846958,545.3077268999768,546.3213273999863,546.3047489000019,None,545.3077268999768,None,545.3077268999768,None,545.3077268999768,None,546.9714512599573,None,546.9714512599573,None,546.9714512599573,None,,,,,,,,,,,,,026,2022-05-19_19h20.35.255,Main,2022.1.1,60.18411524603435,
neutral,neutral,1,k,k,,,,,,,,,12,7,223,1,,,,,,,,,main,1,1,1,neutral,neutral,k,k,1,0.6779100999701768,546.9752813999658,547.9857397999731,547.9687599999597,None,546.9752813999658,None,546.9752813999658,None,546.9752813999658,None,548.6520789600152,None,548.6520789600152,None,548.6520789600152,None,,,,,,,,,,,,,026,2022-05-19_19h20.35.255,Main,2022.1.1,60.18411524603435,
positive,positive,1,l,j,,,,,,,,,12,8,224,2,,,,,,,,,main,1,1,1,positive,positive,l,l,1,0.6839363000472076,548.6524895000039,549.6521184999729,549.6521184999729,None,548.6524895000039,None,548.6524895000039,None,548.6524895000039,None,550.3374885599885,None,550.3374885599885,None,550.3374885599885,None,,,,,,,,,,,,,026,2022-05-19_19h20.35.255,Main,2022.1.1,60.18411524603435,
