target,distractor,set,ans1,ans2,rep_loop2.thisRepN,rep_loop2.thisTrialN,rep_loop2.thisN,rep_loop2.thisIndex,flanker_prac_loop.thisRepN,flanker_prac_loop.thisTrialN,flanker_prac_loop.thisN,flanker_prac_loop.thisIndex,flanker_main_loop.thisRepN,flanker_main_loop.thisTrialN,flanker_main_loop.thisN,flanker_main_loop.thisIndex,fl_inst_resp.keys,fl_inst_resp.rt,sound_1.started,sound_1.stopped,image_4.started,image_4.stopped,back_2.started,back_2.stopped,main_prac,fl_cold,fl_colt,fl_set,fl_dcond,fl_tcond,fl_ans,fl_res,fl_corr,fl_rt,fix_fl.started,fix_fl.stopped,targ.started,targ.stopped,j_button.started,j_button.stopped,k_button.started,k_button.stopped,l_button.started,l_button.stopped,j_button2.started,j_button2.stopped,k_button2.started,k_button2.stopped,l_button2.started,l_button2.stopped,mainback.started,mainback.stopped,key_resp.keys,mouse_6.x,mouse_6.y,mouse_6.leftButton,mouse_6.midButton,mouse_6.rightButton,mouse_6.started,mouse_6.stopped,text_2.started,text_2.stopped,id*,date,expName,psychopyVersion,frameRate,
,,,,,0,0,0,0,,,,,,,,,space,53.92771780001931,35.97553114000475,None,89.9218719000346,None,,,,,,,,,,,,,,,,,,,,,,,,,,,,,,,,,,,,,,,,,027,2022-05-20_18h12.25.525,Main,2022.1.1,60.005172450323165,
positive,neutral,2,l,j,,,,,0,0,0,17,,,,,,,,,,,94.69116089999443,None,prac,1,1,2,neutral,positive,j,j,1,4.3268360999645665,96.71541540004546,97.72433510003611,97.70773520000512,None,96.71541540004546,None,96.71541540004546,None,96.71541540004546,None,102.03830100002233,None,102.03830100002233,None,102.03830100002233,None,,,,,,,,,,,,,027,2022-05-20_18h12.25.525,Main,2022.1.1,60.005172450323165,
positive,negative,1,l,j,,,,,0,1,1,5,,,,,,,,,,,,,prac,1,1,1,negative,positive,j,k,0,2.2694815000286326,103.04267500003334,104.05753069999628,104.04095360002248,None,103.04267500003334,None,103.04267500003334,None,103.04267500003334,None,106.31042380002327,None,106.31042380002327,None,106.31042380002327,None,,,,,,,,,,,,,027,2022-05-20_18h12.25.525,Main,2022.1.1,60.005172450323165,
negative,negative,1,j,l,,,,,0,2,2,0,,,,,,,,,,,,,prac,1,1,1,negative,negative,l,l,1,1.0681069000274874,107.3235691000009,108.32405660004588,108.30745940003544,None,107.3235691000009,None,107.3235691000009,None,107.3235691000009,None,109.38847804000834,None,109.38847804000834,None,109.38847804000834,None,,,,,,,,,,,,,027,2022-05-20_18h12.25.525,Main,2022.1.1,60.005172450323165,
neutral,negative,2,k,k,,,,,0,3,3,16,,,,,,,,,,,,,prac,1,1,2,negative,neutral,k,k,1,1.0478268000297248,109.40020060003735,110.407335099997,110.3907660000259,None,109.40020060003735,None,109.40020060003735,None,109.40020060003735,None,111.43811804004945,None,111.43811804004945,None,111.43811804004945,None,,,,,,,,,,,,,027,2022-05-20_18h12.25.525,Main,2022.1.1,60.005172450323165,
positive,positive,2,l,j,,,,,0,4,4,11,,,,,,,,,,,,,prac,2,2,2,positive,positive,j,j,1,0.7486582000274211,111.44906490005087,112.4547793000238,112.43812210002216,None,111.44906490005087,None,111.44906490005087,None,111.44906490005087,None,113.18811024004826,None,113.18811024004826,None,113.18811024004826,None,,,,,,,,,,,,,027,2022-05-20_18h12.25.525,Main,2022.1.1,60.005172450323165,
negative,positive,2,j,l,,,,,0,5,5,15,,,,,,,,,,,,,prac,2,2,2,positive,negative,l,l,1,1.1990085000288673,113.1989445000072,114.20733000000473,114.19062150001992,None,113.1989445000072,None,113.1989445000072,None,113.1989445000072,None,115.38837954001501,None,115.38837954001501,None,115.38837954001501,None,,,,,,,,,,,,,027,2022-05-20_18h12.25.525,Main,2022.1.1,60.005172450323165,
positive,neutral,1,l,j,,,,,0,6,6,8,,,,,,,,,,,,,prac,1,1,1,neutral,positive,j,k,0,1.2320210000034422,115.40319510002155,116.40727000002516,116.39063650002936,None,115.40319510002155,None,115.40319510002155,None,115.40319510002155,None,117.62165370001458,None,117.62165370001458,None,117.62165370001458,None,,,,,,,,,,,,,027,2022-05-20_18h12.25.525,Main,2022.1.1,60.005172450323165,
neutral,negative,1,k,k,,,,,0,7,7,7,,,,,,,,,,,,,prac,2,2,1,negative,neutral,k,k,1,1.567753100011032,118.63684950000606,119.63827769999625,119.60715440002969,None,118.63684950000606,None,118.63684950000606,None,118.63684950000606,None,121.18789280002238,None,121.18789280002238,None,121.18789280002238,None,,,,,,,,,,,,,027,2022-05-20_18h12.25.525,Main,2022.1.1,60.005172450323165,
neutral,neutral,2,k,k,,,,,0,8,8,10,,,,,,,,,,,,,prac,1,1,2,neutral,neutral,k,k,1,0.8532501999870874,122.18915849999757,123.20458720001625,123.18792660004692,None,122.18915849999757,None,122.18915849999757,None,122.18915849999757,None,124.03827794002136,None,124.03827794002136,None,124.03827794002136,None,,,,,,,,,,,,,027,2022-05-20_18h12.25.525,Main,2022.1.1,60.005172450323165,
negative,neutral,1,j,l,,,,,0,9,9,3,,,,,,,,,,,,,prac,1,1,1,neutral,negative,l,l,1,0.9148888999479823,124.04152200004319,125.05711390002398,125.03817030001665,None,124.04152200004319,None,124.04152200004319,None,124.04152200004319,None,125.95492844005348,None,125.95492844005348,None,125.95492844005348,None,,,,,,,,,,,,,027,2022-05-20_18h12.25.525,Main,2022.1.1,60.005172450323165,
negative,negative,2,j,l,,,,,0,10,10,9,,,,,,,,,,,,,prac,1,1,2,negative,negative,l,l,1,1.098912500019651,125.95848500001011,126.97147200000472,126.9404443000094,None,125.95848500001011,None,125.95848500001011,None,125.95848500001011,None,128.05491584005068,None,128.05491584005068,None,128.05491584005068,None,,,,,,,,,,,,,027,2022-05-20_18h12.25.525,Main,2022.1.1,60.005172450323165,
negative,positive,1,j,l,,,,,0,11,11,6,,,,,,,,,,,,,prac,1,1,1,positive,negative,l,l,1,0.7818503999733366,128.0661121000303,129.07361320004566,129.05477690004045,None,128.0661121000303,None,128.0661121000303,None,128.0661121000303,None,129.83808174002917,None,129.83808174002917,None,129.83808174002917,None,,,,,,,,,,,,,027,2022-05-20_18h12.25.525,Main,2022.1.1,60.005172450323165,
neutral,positive,1,k,k,,,,,0,12,12,4,,,,,,,,,,,,,prac,2,2,1,positive,neutral,k,l,0,0.7983375999610871,129.85282270004973,130.85438480001176,130.83772470004624,None,129.85282270004973,None,129.85282270004973,None,129.85282270004973,None,131.63770950003527,None,131.63770950003527,None,131.63770950003527,None,,,,,,,,,,,,,027,2022-05-20_18h12.25.525,Main,2022.1.1,60.005172450323165,
negative,neutral,2,j,l,,,,,0,13,13,12,,,,,,,,,,,,,prac,2,2,2,neutral,negative,l,l,1,1.0697589999763295,132.6512592000072,133.65436680003768,133.62103130004834,None,132.6512592000072,None,132.6512592000072,None,132.6512592000072,None,134.7043861399987,None,134.7043861399987,None,134.7043861399987,None,,,,,,,,,,,,,027,2022-05-20_18h12.25.525,Main,2022.1.1,60.005172450323165,
positive,negative,2,l,j,,,,,0,14,14,14,,,,,,,,,,,,,prac,2,2,2,negative,positive,j,j,1,0.798341000045184,134.7206761999987,135.72360290004872,135.70700759999454,None,134.7206761999987,None,134.7206761999987,None,134.7206761999987,None,136.50462194003632,None,136.50462194003632,None,136.50462194003632,None,,,,,,,,,,,,,027,2022-05-20_18h12.25.525,Main,2022.1.1,60.005172450323165,
neutral,positive,2,k,k,,,,,0,15,15,13,,,,,,,,,,,,,prac,1,1,2,positive,neutral,k,k,1,1.0323473999742419,136.51476150000235,137.52356000000145,137.49024220003048,None,136.51476150000235,None,136.51476150000235,None,136.51476150000235,None,138.53801284004004,None,138.53801284004004,None,138.53801284004004,None,,,,,,,,,,,,,027,2022-05-20_18h12.25.525,Main,2022.1.1,60.005172450323165,
positive,positive,1,l,j,,,,,0,16,16,2,,,,,,,,,,,,,prac,1,1,1,positive,positive,j,l,0,0.9485866000177339,138.54120410000905,139.54020360001596,139.54020360001596,None,138.54120410000905,None,138.54120410000905,None,138.54120410000905,None,140.48787370003993,None,140.48787370003993,None,140.48787370003993,None,,,,,,,,,,,,,027,2022-05-20_18h12.25.525,Main,2022.1.1,60.005172450323165,
neutral,neutral,1,k,k,,,,,0,17,17,1,,,,,,,,,,,,,prac,1,1,1,neutral,neutral,k,k,1,0.9173533000284806,141.48813470004825,142.49462090001907,142.47351150005125,None,141.48813470004825,None,141.48813470004825,None,141.48813470004825,None,143.40412244003966,None,143.40412244003966,None,143.40412244003966,None,,,,,,,,,,,,,027,2022-05-20_18h12.25.525,Main,2022.1.1,60.005172450323165,
negative,neutral,1,j,l,,,,,1,0,18,3,,,,,,,,,,,,,prac,2,2,1,neutral,negative,l,l,1,0.8983729000319727,143.40429720003158,144.40410110005178,144.40410110005178,None,143.40429720003158,None,143.40429720003158,None,143.40429720003158,None,145.30411134003663,None,145.30411134003663,None,145.30411134003663,None,,,,,,,,,,,,,027,2022-05-20_18h12.25.525,Main,2022.1.1,60.005172450323165,
negative,negative,1,j,l,,,,,1,1,19,0,,,,,,,,,,,,,prac,1,1,1,negative,negative,l,l,1,0.7834385000169277,145.30661359999795,146.3207631999976,146.30411720002303,None,145.30661359999795,None,145.30661359999795,None,145.30661359999795,None,147.0878366400255,None,147.0878366400255,None,147.0878366400255,None,,,,,,,,,,,,,027,2022-05-20_18h12.25.525,Main,2022.1.1,60.005172450323165,
neutral,negative,2,k,k,,,,,1,2,20,16,,,,,,,,,,,,,prac,2,2,2,negative,neutral,k,k,1,0.8330629999982193,147.10689759999514,148.1066977000446,148.09005090000574,None,147.10689759999514,None,147.10689759999514,None,147.10689759999514,None,148.92325093999972,None,148.92325093999972,None,148.92325093999972,None,,,,,,,,,,,,,027,2022-05-20_18h12.25.525,Main,2022.1.1,60.005172450323165,
positive,negative,2,l,j,,,,,1,3,21,14,,,,,,,,,,,,,prac,2,2,2,negative,positive,j,j,1,1.3627774000051431,148.9319260000484,149.93995329999598,149.92332220001845,None,148.9319260000484,None,148.9319260000484,None,148.9319260000484,None,151.287683340034,None,151.287683340034,None,151.287683340034,None,,,,,,,,,,,,,027,2022-05-20_18h12.25.525,Main,2022.1.1,60.005172450323165,
positive,neutral,1,l,j,,,,,1,4,22,8,,,,,,,,,,,,,prac,2,2,1,neutral,positive,j,j,1,1.1146675999625586,151.293880000012,152.3043125999975,152.28765850001946,None,151.293880000012,None,151.293880000012,None,151.293880000012,None,153.40426324000583,None,153.40426324000583,None,153.40426324000583,None,,,,,,,,,,,,,027,2022-05-20_18h12.25.525,Main,2022.1.1,60.005172450323165,
positive,positive,1,l,j,,,,,1,5,23,2,,,,,,,,,,,,,prac,2,2,1,positive,positive,j,j,1,0.6484445999958552,153.40945650002686,154.42315940000117,154.3898848000099,None,153.40945650002686,None,153.40945650002686,None,153.40945650002686,None,155.0539168400108,None,155.0539168400108,None,155.0539168400108,None,,,,,,,,,,,,,027,2022-05-20_18h12.25.525,Main,2022.1.1,60.005172450323165,
neutral,neutral,1,k,k,,,,,1,6,24,1,,,,,,,,,,,,,prac,1,1,1,neutral,neutral,k,k,1,0.8152835000073537,155.05390800000168,156.05388350004796,156.05388350004796,None,155.05390800000168,None,155.05390800000168,None,155.05390800000168,None,156.87056824001485,None,156.87056824001485,None,156.87056824001485,None,,,,,,,,,,,,,027,2022-05-20_18h12.25.525,Main,2022.1.1,60.005172450323165,
neutral,positive,2,k,k,,,,,1,7,25,13,,,,,,,,,,,,,prac,1,1,2,positive,neutral,k,k,1,0.6486672000028193,156.87066770001547,157.87055450002663,157.87055450002663,None,156.87066770001547,None,156.87066770001547,None,156.87066770001547,None,158.52055624000496,None,158.52055624000496,None,158.52055624000496,None,,,,,,,,,,,,,027,2022-05-20_18h12.25.525,Main,2022.1.1,60.005172450323165,
neutral,positive,1,k,k,,,,,1,8,26,4,,,,,,,,,,,,,prac,2,2,1,positive,neutral,k,k,1,0.715538100048434,158.52371620002668,159.52315070002805,159.5065528000123,None,158.52371620002668,None,158.52371620002668,None,158.52371620002668,None,160.23735764001032,None,160.23735764001032,None,160.23735764001032,None,,,,,,,,,,,,,027,2022-05-20_18h12.25.525,Main,2022.1.1,60.005172450323165,
positive,neutral,2,l,j,,,,,1,9,27,17,,,,,,,,,,,,,prac,1,1,2,neutral,positive,j,j,1,0.8820610000402667,160.2434752000263,161.25642940000398,161.22308640001575,None,160.2434752000263,None,160.2434752000263,None,160.2434752000263,None,162.1207792400499,None,162.1207792400499,None,162.1207792400499,None,,,,,,,,,,,,,027,2022-05-20_18h12.25.525,Main,2022.1.1,60.005172450323165,
negative,positive,1,j,l,,,,,1,10,28,6,,,,,,,,,,,,,prac,1,1,1,positive,negative,l,l,1,1.0320726999780163,162.1260797000141,163.1374308000086,163.1063968000235,None,162.1260797000141,None,162.1260797000141,None,162.1260797000141,None,164.15409584001173,None,164.15409584001173,None,164.15409584001173,None,,,,,,,,,,,,,027,2022-05-20_18h12.25.525,Main,2022.1.1,60.005172450323165,
positive,positive,2,l,j,,,,,1,11,29,11,,,,,,,,,,,,,prac,2,2,2,positive,positive,j,j,1,0.7663265999872237,164.17082850000588,165.172878900019,165.13967380003305,None,164.17082850000588,None,164.17082850000588,None,164.17082850000588,None,165.92086214002921,None,165.92086214002921,None,165.92086214002921,None,,,,,,,,,,,,,027,2022-05-20_18h12.25.525,Main,2022.1.1,60.005172450323165,
negative,negative,2,j,l,,,,,1,12,30,9,,,,,,,,,,,,,prac,2,2,2,negative,negative,l,l,1,1.7808022000244819,165.9269348999951,166.93699880002532,166.92033850000007,None,165.9269348999951,None,165.9269348999951,None,165.9269348999951,None,168.7036466000136,None,168.7036466000136,None,168.7036466000136,None,,,,,,,,,,,,,027,2022-05-20_18h12.25.525,Main,2022.1.1,60.005172450323165,
negative,positive,2,j,l,,,,,1,13,31,15,,,,,,,,,,,,,prac,1,1,2,positive,negative,l,l,1,0.8029576999833807,169.70746950001922,170.72032419999596,170.70362990000285,None,169.70746950001922,None,169.70746950001922,None,169.70746950001922,None,171.5036222400493,None,171.5036222400493,None,171.5036222400493,None,,,,,,,,,,,,,027,2022-05-20_18h12.25.525,Main,2022.1.1,60.005172450323165,
negative,neutral,2,j,l,,,,,1,14,32,12,,,,,,,,,,,,,prac,1,1,2,neutral,negative,l,l,1,0.6819975000107661,171.5091398000368,172.5228696000413,172.50625770003535,None,171.5091398000368,None,171.5091398000368,None,171.5091398000368,None,173.18721984002042,None,173.18721984002042,None,173.18721984002042,None,,,,,,,,,,,,,027,2022-05-20_18h12.25.525,Main,2022.1.1,60.005172450323165,
positive,negative,1,l,j,,,,,1,15,33,5,,,,,,,,,,,,,prac,2,2,1,negative,positive,j,l,0,0.6987308000097983,173.19265490002,174.20609950000653,174.1728258000221,None,173.19265490002,None,173.19265490002,None,173.19265490002,None,174.8871832000441,None,174.8871832000441,None,174.8871832000441,None,,,,,,,,,,,,,027,2022-05-20_18h12.25.525,Main,2022.1.1,60.005172450323165,
neutral,negative,1,k,k,,,,,1,16,34,7,,,,,,,,,,,,,prac,1,1,1,negative,neutral,k,k,1,0.8868304000352509,175.88705080002546,176.88714629999595,176.87278620002326,None,175.88705080002546,None,175.88705080002546,None,175.88705080002546,None,177.77281934000786,None,177.77281934000786,None,177.77281934000786,None,,,,,,,,,,,,,027,2022-05-20_18h12.25.525,Main,2022.1.1,60.005172450323165,
neutral,neutral,2,k,k,,,,,1,17,35,10,,,,,,,,,,,,,prac,1,1,2,neutral,neutral,k,k,1,1.0297805999871343,177.77505590004148,178.78677140001673,178.7701025000424,None,177.77505590004148,None,177.77505590004148,None,177.77505590004148,None,179.8034250400495,None,179.8034250400495,None,179.8034250400495,None,,,,,,,,,,,,,027,2022-05-20_18h12.25.525,Main,2022.1.1,60.005172450323165,
,,,,,,,,,,,,,,,,,,,,,,,,,,,,,,,,,,,,,,,,,,,,,,,,,,,179.80342559999553,None,None,,,,,,,,,,027,2022-05-20_18h12.25.525,Main,2022.1.1,60.005172450323165,
,,,,,,,,,,,,,,,,,,,,,,,,,,,,,,,,,,,,,,,,,,,,,,,,,,,,,,0.028703704,-0.0712963,1,0,0,0.010585939977318048,None,,,027,2022-05-20_18h12.25.525,Main,2022.1.1,60.005172450323165,
negative,neutral,2,j,l,,,,,,,,,0,0,0,12,,,,,,,185.20365700003458,None,main,1,1,2,neutral,negative,l,l,1,1.1764917999971658,187.21221940004034,188.21990660001757,188.20324950001668,None,187.21221940004034,None,187.21221940004034,None,187.21221940004034,None,189.38656214002987,None,189.38656214002987,None,189.38656214002987,None,,,,,,,,,,,,,027,2022-05-20_18h12.25.525,Main,2022.1.1,60.005172450323165,
positive,neutral,2,l,j,,,,,,,,,0,1,1,17,,,,,,,,,main,2,2,2,neutral,positive,j,l,0,0.6799159999936819,189.38910570001462,190.40321479999693,190.38656410004478,None,189.38910570001462,None,189.38910570001462,None,189.38910570001462,None,191.06988880003337,None,191.06988880003337,None,191.06988880003337,None,,,,,,,,,,,,,027,2022-05-20_18h12.25.525,Main,2022.1.1,60.005172450323165,
negative,positive,1,j,l,,,,,,,,,0,2,2,6,,,,,,,,,main,2,2,1,positive,negative,l,l,1,0.8400275000021793,192.07619039999554,193.0891385000432,193.0724523999961,None,192.07619039999554,None,192.07619039999554,None,192.07619039999554,None,193.90702114005109,None,193.90702114005109,None,193.90702114005109,None,,,,,,,,,,,,,027,2022-05-20_18h12.25.525,Main,2022.1.1,60.005172450323165,
neutral,neutral,1,k,k,,,,,,,,,0,3,3,1,,,,,,,,,main,2,2,1,neutral,neutral,k,k,1,0.8443320000078529,193.91046350001125,194.92237780004507,194.90578890003962,None,193.91046350001125,None,193.91046350001125,None,193.91046350001125,None,195.75343304000563,None,195.75343304000563,None,195.75343304000563,None,,,,,,,,,,,,,027,2022-05-20_18h12.25.525,Main,2022.1.1,60.005172450323165,
positive,positive,1,l,j,,,,,,,,,0,4,4,2,,,,,,,,,main,2,2,1,positive,positive,j,j,1,0.8150935999583453,195.75878600002034,196.7700883000507,196.75572860002285,None,195.75878600002034,None,195.75878600002034,None,195.75878600002034,None,197.57006694005105,None,197.57006694005105,None,197.57006694005105,None,,,,,,,,,,,,,027,2022-05-20_18h12.25.525,Main,2022.1.1,60.005172450323165,
neutral,positive,1,k,k,,,,,,,,,0,5,5,4,,,,,,,,,main,2,2,1,positive,neutral,k,k,1,0.8816210000077263,197.5734713000129,198.58891890000086,198.57233880000422,None,197.5734713000129,None,197.5734713000129,None,197.5734713000129,None,199.45337054000703,None,199.45337054000703,None,199.45337054000703,None,,,,,,,,,,,,,027,2022-05-20_18h12.25.525,Main,2022.1.1,60.005172450323165,
positive,negative,1,l,j,,,,,,,,,0,6,6,5,,,,,,,,,main,2,2,1,negative,positive,j,j,1,0.9480707000475377,199.45855650003068,200.4696338000358,200.45297530002426,None,199.45855650003068,None,199.45855650003068,None,199.45855650003068,None,201.40299364000094,None,201.40299364000094,None,201.40299364000094,None,,,,,,,,,,,,,027,2022-05-20_18h12.25.525,Main,2022.1.1,60.005172450323165,
negative,negative,1,j,l,,,,,,,,,0,7,7,0,,,,,,,,,main,2,2,1,negative,negative,l,l,1,0.9485358000383712,201.402982300031,202.40299760003109,202.40299760003109,None,201.402982300031,None,201.402982300031,None,201.402982300031,None,203.3529817400384,None,203.3529817400384,None,203.3529817400384,None,,,,,,,,,,,,,027,2022-05-20_18h12.25.525,Main,2022.1.1,60.005172450323165,
positive,neutral,1,l,j,,,,,,,,,0,8,8,8,,,,,,,,,main,2,2,1,neutral,positive,j,j,1,0.8491667000344023,203.35505680000642,204.36963370000012,204.35296450002352,None,203.35505680000642,None,203.35505680000642,None,203.35505680000642,None,205.2033046400291,None,205.2033046400291,None,205.2033046400291,None,,,,,,,,,,,,,027,2022-05-20_18h12.25.525,Main,2022.1.1,60.005172450323165,
negative,negative,2,j,l,,,,,,,,,0,9,9,9,,,,,,,,,main,1,1,2,negative,negative,l,l,1,1.498604999971576,205.21998250001343,206.22219520004,206.20554789999733,None,205.21998250001343,None,205.21998250001343,None,205.21998250001343,None,207.70321354003391,None,207.70321354003391,None,207.70321354003391,None,,,,,,,,,,,,,027,2022-05-20_18h12.25.525,Main,2022.1.1,60.005172450323165,
negative,neutral,1,j,l,,,,,,,,,0,10,10,3,,,,,,,,,main,1,1,1,neutral,negative,l,l,1,0.9140408000093885,207.70937080000294,208.72210060001817,208.70546420000028,None,207.70937080000294,None,207.70937080000294,None,207.70937080000294,None,209.61984244001798,None,209.61984244001798,None,209.61984244001798,None,,,,,,,,,,,,,027,2022-05-20_18h12.25.525,Main,2022.1.1,60.005172450323165,
neutral,negative,2,k,k,,,,,,,,,0,11,11,16,,,,,,,,,main,1,1,2,negative,neutral,k,k,1,0.8149994999985211,209.6248673000373,210.6364709000336,210.6053834000486,None,209.6248673000373,None,209.6248673000373,None,209.6248673000373,None,211.43648524001475,None,211.43648524001475,None,211.43648524001475,None,,,,,,,,,,,,,027,2022-05-20_18h12.25.525,Main,2022.1.1,60.005172450323165,
positive,positive,2,l,j,,,,,,,,,0,12,12,11,,,,,,,,,main,2,2,2,positive,positive,j,j,1,0.7147275999886915,211.4400187000283,212.45274610002525,212.43609210004797,None,211.4400187000283,None,211.4400187000283,None,211.4400187000283,None,213.1527492400026,None,213.1527492400026,None,213.1527492400026,None,,,,,,,,,,,,,027,2022-05-20_18h12.25.525,Main,2022.1.1,60.005172450323165,
neutral,positive,2,k,k,,,,,,,,,0,13,13,13,,,,,,,,,main,1,1,2,positive,neutral,k,k,1,0.948208199988585,213.15272549999645,214.1527523000259,214.1527523000259,None,213.15272549999645,None,213.15272549999645,None,213.15272549999645,None,215.10274924001425,None,215.10274924001425,None,215.10274924001425,None,,,,,,,,,,,,,027,2022-05-20_18h12.25.525,Main,2022.1.1,60.005172450323165,
neutral,negative,1,k,k,,,,,,,,,0,14,14,7,,,,,,,,,main,2,2,1,negative,neutral,k,k,1,1.5310129999998026,215.10398710001027,216.11941080004908,216.10274480003864,None,215.10398710001027,None,215.10398710001027,None,215.10398710001027,None,217.63635840005009,None,217.63635840005009,None,217.63635840005009,None,,,,,,,,,,,,,027,2022-05-20_18h12.25.525,Main,2022.1.1,60.005172450323165,
neutral,neutral,2,k,k,,,,,,,,,0,15,15,10,,,,,,,,,main,2,2,2,neutral,neutral,k,k,1,0.6512285000062548,218.63689040002646,219.63612590002595,219.6219972000108,None,218.63689040002646,None,218.63689040002646,None,218.63689040002646,None,220.28629334004364,None,220.28629334004364,None,220.28629334004364,None,,,,,,,,,,,,,027,2022-05-20_18h12.25.525,Main,2022.1.1,60.005172450323165,
positive,negative,2,l,j,,,,,,,,,0,16,16,14,,,,,,,,,main,1,1,2,negative,positive,j,j,1,1.2812669000122696,220.3030353000504,221.30525040003704,221.28859310003463,None,220.3030353000504,None,220.3030353000504,None,220.3030353000504,None,222.56958464004566,None,222.56958464004566,None,222.56958464004566,None,,,,,,,,,,,,,027,2022-05-20_18h12.25.525,Main,2022.1.1,60.005172450323165,
negative,positive,2,j,l,,,,,,,,,0,17,17,15,,,,,,,,,main,2,2,2,positive,negative,l,j,0,0.5980545000056736,222.57526390004205,223.58488920005038,223.56883780000499,None,222.57526390004205,None,222.57526390004205,None,222.57526390004205,None,224.16919630003395,None,224.16919630003395,None,224.16919630003395,None,,,,,,,,,,,,,027,2022-05-20_18h12.25.525,Main,2022.1.1,60.005172450323165,
negative,positive,1,j,l,,,,,,,,,1,0,18,6,,,,,,,,,main,2,2,1,positive,negative,l,l,1,0.9030668999766931,225.16917430004105,226.17174780002097,226.1551507000113,None,225.16917430004105,None,225.16917430004105,None,225.16917430004105,None,227.06949204003905,None,227.06949204003905,None,227.06949204003905,None,,,,,,,,,,,,,027,2022-05-20_18h12.25.525,Main,2022.1.1,60.005172450323165,
positive,negative,1,l,j,,,,,,,,,1,1,19,5,,,,,,,,,main,1,1,1,negative,positive,j,j,1,0.8977372999652289,227.0755903000245,228.08836630004225,228.0717244000407,None,227.0755903000245,None,227.0755903000245,None,227.0755903000245,None,228.9694512400427,None,228.9694512400427,None,228.9694512400427,None,,,,,,,,,,,,,027,2022-05-20_18h12.25.525,Main,2022.1.1,60.005172450323165,
negative,negative,2,j,l,,,,,,,,,1,2,20,9,,,,,,,,,main,1,1,2,negative,negative,l,l,1,0.898524800024461,228.97519890003605,229.9860803000047,229.95503990002908,None,228.97519890003605,None,228.97519890003605,None,228.97519890003605,None,230.86940584001132,None,230.86940584001132,None,230.86940584001132,None,,,,,,,,,,,,,027,2022-05-20_18h12.25.525,Main,2022.1.1,60.005172450323165,
positive,neutral,2,l,j,,,,,,,,,1,3,21,17,,,,,,,,,main,2,2,2,neutral,positive,j,j,1,0.6650853999890387,230.87504000001354,231.8882714000065,231.8716728000436,None,230.87504000001354,None,230.87504000001354,None,230.87504000001354,None,232.5360153400223,None,232.5360153400223,None,232.5360153400223,None,,,,,,,,,,,,,027,2022-05-20_18h12.25.525,Main,2022.1.1,60.005172450323165,
positive,negative,2,l,j,,,,,,,,,1,4,22,14,,,,,,,,,main,2,2,2,negative,positive,j,j,1,0.6310918999952264,232.54170430003433,233.55266600003233,233.53833020001184,None,232.54170430003433,None,232.54170430003433,None,232.54170430003433,None,234.16900184000843,None,234.16900184000843,None,234.16900184000843,None,,,,,,,,,,,,,027,2022-05-20_18h12.25.525,Main,2022.1.1,60.005172450323165,
positive,neutral,1,l,j,,,,,,,,,1,5,23,8,,,,,,,,,main,2,2,1,neutral,positive,j,j,1,0.9486026999657042,234.1691136000445,235.16897060000338,235.16897060000338,None,234.1691136000445,None,234.1691136000445,None,234.1691136000445,None,236.11900364003378,None,236.11900364003378,None,236.11900364003378,None,,,,,,,,,,,,,027,2022-05-20_18h12.25.525,Main,2022.1.1,60.005172450323165,
neutral,positive,2,k,k,,,,,,,,,1,6,24,13,,,,,,,,,main,1,1,2,positive,neutral,k,k,1,0.9153626000043005,236.12433980003698,237.13826840004185,237.12158340000315,None,236.12433980003698,None,236.12433980003698,None,236.12433980003698,None,238.0359457400162,None,238.0359457400162,None,238.0359457400162,None,,,,,,,,,,,,,027,2022-05-20_18h12.25.525,Main,2022.1.1,60.005172450323165,
neutral,neutral,2,k,k,,,,,,,,,1,7,25,10,,,,,,,,,main,2,2,2,neutral,neutral,k,k,1,0.5814980000141077,238.0422652999987,239.05486540001584,239.03592860000208,None,238.0422652999987,None,238.0422652999987,None,238.0422652999987,None,239.61923944002484,None,239.61923944002484,None,239.61923944002484,None,,,,,,,,,,,,,027,2022-05-20_18h12.25.525,Main,2022.1.1,60.005172450323165,
positive,positive,1,l,j,,,,,,,,,1,8,26,2,,,,,,,,,main,1,1,1,positive,positive,j,j,1,0.7151618000352755,239.62535390001722,240.6380913000321,240.6191965000471,None,239.62535390001722,None,239.62535390001722,None,239.62535390001722,None,241.33592844004744,None,241.33592844004744,None,241.33592844004744,None,,,,,,,,,,,,,027,2022-05-20_18h12.25.525,Main,2022.1.1,60.005172450323165,
positive,positive,2,l,j,,,,,,,,,1,9,27,11,,,,,,,,,main,2,2,2,positive,positive,j,j,1,0.6008088999660686,241.35252580000088,242.35249250003835,242.32141690002754,None,241.35252580000088,None,241.35252580000088,None,241.35252580000088,None,242.93814724003897,None,242.93814724003897,None,242.93814724003897,None,,,,,,,,,,,,,027,2022-05-20_18h12.25.525,Main,2022.1.1,60.005172450323165,
neutral,negative,1,k,k,,,,,,,,,1,10,28,7,,,,,,,,,main,1,1,1,negative,neutral,k,k,1,0.7790548999910243,242.94144680001773,243.95213030005107,243.93545819999417,None,242.94144680001773,None,242.94144680001773,None,242.94144680001773,None,244.71876694001259,None,244.71876694001259,None,244.71876694001259,None,,,,,,,,,,,,,027,2022-05-20_18h12.25.525,Main,2022.1.1,60.005172450323165,
negative,negative,1,j,l,,,,,,,,,1,11,29,0,,,,,,,,,main,1,1,1,negative,negative,l,l,1,0.8320200000307523,244.7187491999939,245.7187906000181,245.7187906000181,None,244.7187491999939,None,244.7187491999939,None,244.7187491999939,None,246.55256024004194,None,246.55256024004194,None,246.55256024004194,None,,,,,,,,,,,,,027,2022-05-20_18h12.25.525,Main,2022.1.1,60.005172450323165,
negative,neutral,2,j,l,,,,,,,,,1,12,30,12,,,,,,,,,main,2,2,2,neutral,negative,l,l,1,0.863983899995219,246.55894620000618,247.57127930002753,247.55467750004027,None,246.55894620000618,None,246.55894620000618,None,246.55894620000618,None,248.41905354005286,None,248.41905354005286,None,248.41905354005286,None,,,,,,,,,,,,,027,2022-05-20_18h12.25.525,Main,2022.1.1,60.005172450323165,
negative,positive,2,j,l,,,,,,,,,1,13,31,15,,,,,,,,,main,2,2,2,positive,negative,l,l,1,0.681735199992545,248.42475560004823,249.4378576000454,249.41903059999458,None,248.42475560004823,None,248.42475560004823,None,248.42475560004823,None,250.1023734400049,None,250.1023734400049,None,250.1023734400049,None,,,,,,,,,,,,,027,2022-05-20_18h12.25.525,Main,2022.1.1,60.005172450323165,
neutral,neutral,1,k,k,,,,,,,,,1,14,32,1,,,,,,,,,main,2,2,1,neutral,neutral,k,k,1,0.9317251999746077,250.10824390000198,251.11900200002128,251.10462340002414,None,250.10824390000198,None,250.10824390000198,None,250.10824390000198,None,252.0356603400549,None,252.0356603400549,None,252.0356603400549,None,,,,,,,,,,,,,027,2022-05-20_18h12.25.525,Main,2022.1.1,60.005172450323165,
neutral,positive,1,k,k,,,,,,,,,1,15,33,4,,,,,,,,,main,1,1,1,positive,neutral,k,k,1,0.6926789999706671,252.0412625000463,253.05227770004421,253.03782110003522,None,252.0412625000463,None,252.0412625000463,None,252.0412625000463,None,253.73014244001826,None,253.73014244001826,None,253.73014244001826,None,,,,,,,,,,,,,027,2022-05-20_18h12.25.525,Main,2022.1.1,60.005172450323165,
negative,neutral,1,j,l,,,,,,,,,1,16,34,3,,,,,,,,,main,1,1,1,neutral,negative,l,l,1,0.8369908000458963,253.7462601000443,254.7518846000312,254.7185671000043,None,253.7462601000443,None,253.7462601000443,None,253.7462601000443,None,255.56855423999951,None,255.56855423999951,None,255.56855423999951,None,,,,,,,,,,,,,027,2022-05-20_18h12.25.525,Main,2022.1.1,60.005172450323165,
neutral,negative,2,k,k,,,,,,,,,1,17,35,16,,,,,,,,,main,2,2,2,negative,neutral,k,l,0,0.6985885000322014,255.5685291000409,256.5711696000071,256.5711696000071,None,255.5685291000409,None,255.5685291000409,None,255.5685291000409,None,257.2689020000398,None,257.2689020000398,None,257.2689020000398,None,,,,,,,,,,,,,027,2022-05-20_18h12.25.525,Main,2022.1.1,60.005172450323165,
neutral,positive,1,k,k,,,,,,,,,2,0,36,4,,,,,,,,,main,2,2,1,positive,neutral,k,k,1,0.8015472000115551,258.269388900022,259.27110990002984,259.2544467000407,None,258.269388900022,None,258.269388900022,None,258.269388900022,None,260.0691296400153,None,260.0691296400153,None,260.0691296400153,None,,,,,,,,,,,,,027,2022-05-20_18h12.25.525,Main,2022.1.1,60.005172450323165,
positive,neutral,2,l,j,,,,,,,,,2,1,37,17,,,,,,,,,main,1,1,2,neutral,positive,j,j,1,0.7476713999640197,260.0751077000168,261.08545280003455,261.07108000002336,None,260.0751077000168,None,260.0751077000168,None,260.0751077000168,None,261.8188083400135,None,261.8188083400135,None,261.8188083400135,None,,,,,,,,,,,,,027,2022-05-20_18h12.25.525,Main,2022.1.1,60.005172450323165,
neutral,positive,2,k,k,,,,,,,,,2,2,38,13,,,,,,,,,main,2,2,2,positive,neutral,k,k,1,0.8493355000391603,261.82219490001444,262.8376710000448,262.8210372000467,None,261.82219490001444,None,261.82219490001444,None,261.82219490001444,None,263.6687532400363,None,263.6687532400363,None,263.6687532400363,None,,,,,,,,,,,,,027,2022-05-20_18h12.25.525,Main,2022.1.1,60.005172450323165,
negative,neutral,2,j,l,,,,,,,,,2,3,39,12,,,,,,,,,main,1,1,2,neutral,negative,l,l,1,1.1137047000229359,263.6748332999996,264.68503630004125,264.66836710000644,None,263.6748332999996,None,263.6748332999996,None,263.6748332999996,None,265.7850054400158,None,265.7850054400158,None,265.7850054400158,None,,,,,,,,,,,,,027,2022-05-20_18h12.25.525,Main,2022.1.1,60.005172450323165,
positive,negative,2,l,j,,,,,,,,,2,4,40,14,,,,,,,,,main,1,1,2,negative,positive,j,j,1,0.9652559999958612,265.7849982000189,266.7850289000198,266.7850289000198,None,265.7849982000189,None,265.7849982000189,None,265.7849982000189,None,267.75199064002373,None,267.75199064002373,None,267.75199064002373,None,,,,,,,,,,,,,027,2022-05-20_18h12.25.525,Main,2022.1.1,60.005172450323165,
negative,negative,2,j,l,,,,,,,,,2,5,41,9,,,,,,,,,main,1,1,2,negative,negative,l,j,0,0.7316999000031501,267.7575165000162,268.7708526000497,268.7542799000512,None,267.7575165000162,None,267.7575165000162,None,267.7575165000162,None,269.48529570002574,None,269.48529570002574,None,269.48529570002574,None,,,,,,,,,,,,,027,2022-05-20_18h12.25.525,Main,2022.1.1,60.005172450323165,
negative,neutral,1,j,l,,,,,,,,,2,6,42,3,,,,,,,,,main,2,2,1,neutral,negative,l,l,1,1.1018731000367552,270.48585190001177,271.48750760004623,271.47085350001,None,270.48585190001177,None,270.48585190001177,None,270.48585190001177,None,272.5852142400225,None,272.5852142400225,None,272.5852142400225,None,,,,,,,,,,,,,027,2022-05-20_18h12.25.525,Main,2022.1.1,60.005172450323165,
positive,positive,2,l,j,,,,,,,,,2,7,43,11,,,,,,,,,main,2,2,2,positive,positive,j,j,1,0.8905459000379778,272.59180240001297,273.6039966000244,273.58518990001176,None,272.59180240001297,None,272.59180240001297,None,272.59180240001297,None,274.47847524001264,None,274.47847524001264,None,274.47847524001264,None,,,,,,,,,,,,,027,2022-05-20_18h12.25.525,Main,2022.1.1,60.005172450323165,
negative,positive,1,j,l,,,,,,,,,2,8,44,6,,,,,,,,,main,1,1,1,positive,negative,l,l,1,0.8383197999792174,274.4783692000201,275.48482450004667,275.46816079999553,None,274.4783692000201,None,274.4783692000201,None,274.4783692000201,None,276.31819294004237,None,276.31819294004237,None,276.31819294004237,None,,,,,,,,,,,,,027,2022-05-20_18h12.25.525,Main,2022.1.1,60.005172450323165,
negative,negative,1,j,l,,,,,,,,,2,9,45,0,,,,,,,,,main,2,2,1,negative,negative,l,l,1,0.7486553000053391,276.3239433999988,277.3351370000164,277.3207184000057,None,276.3239433999988,None,276.3239433999988,None,276.3239433999988,None,278.0685242400039,None,278.0685242400039,None,278.0685242400039,None,,,,,,,,,,,,,027,2022-05-20_18h12.25.525,Main,2022.1.1,60.005172450323165,
neutral,neutral,1,k,k,,,,,,,,,2,10,46,1,,,,,,,,,main,1,1,1,neutral,neutral,k,k,1,0.7814438000204973,278.07229290000396,279.08511129999533,279.0682500000112,None,278.07229290000396,None,278.07229290000396,None,278.07229290000396,None,279.8517594400444,None,279.8517594400444,None,279.8517594400444,None,,,,,,,,,,,,,027,2022-05-20_18h12.25.525,Main,2022.1.1,60.005172450323165,
neutral,neutral,2,k,k,,,,,,,,,2,11,47,10,,,,,,,,,main,2,2,2,neutral,neutral,k,k,1,0.6149647000129335,279.8551249000011,280.87056040001335,280.8539664000273,None,279.8551249000011,None,279.8551249000011,None,279.8551249000011,None,281.4683992400067,None,281.4683992400067,None,281.4683992400067,None,,,,,,,,,,,,,027,2022-05-20_18h12.25.525,Main,2022.1.1,60.005172450323165,
positive,negative,1,l,j,,,,,,,,,2,12,48,5,,,,,,,,,main,1,1,1,negative,positive,j,j,1,0.8651988999918103,281.48750620003557,282.5038913000026,282.46838269999716,None,281.48750620003557,None,281.48750620003557,None,281.48750620003557,None,283.3351088400348,None,283.3351088400348,None,283.3351088400348,None,,,,,,,,,,,,,027,2022-05-20_18h12.25.525,Main,2022.1.1,60.005172450323165,
positive,positive,1,l,j,,,,,,,,,2,13,49,2,,,,,,,,,main,2,2,1,positive,positive,j,j,1,0.6813811999745667,283.33850290003465,284.35164490004536,284.3372084000148,None,283.33850290003465,None,283.33850290003465,None,283.33850290003465,None,285.0179632400512,None,285.0179632400512,None,285.0179632400512,None,,,,,,,,,,,,,027,2022-05-20_18h12.25.525,Main,2022.1.1,60.005172450323165,
neutral,negative,1,k,k,,,,,,,,,2,14,50,7,,,,,,,,,main,2,2,1,negative,neutral,k,k,1,0.7316956000286154,285.0179492000025,286.01792080001906,286.01792080001906,None,285.0179492000025,None,285.0179492000025,None,285.0179492000025,None,286.75126284001163,None,286.75126284001163,None,286.75126284001163,None,,,,,,,,,,,,,027,2022-05-20_18h12.25.525,Main,2022.1.1,60.005172450323165,
negative,positive,2,j,l,,,,,,,,,2,15,51,15,,,,,,,,,main,1,1,2,positive,negative,l,l,1,1.0483752999571152,286.7516430999967,287.7512839999981,287.7512839999981,None,286.7516430999967,None,286.7516430999967,None,286.7516430999967,None,288.8012811400229,None,288.8012811400229,None,288.8012811400229,None,,,,,,,,,,,,,027,2022-05-20_18h12.25.525,Main,2022.1.1,60.005172450323165,
neutral,negative,2,k,k,,,,,,,,,2,16,52,16,,,,,,,,,main,2,2,2,negative,neutral,k,k,1,0.7820675999973901,288.8069255000446,289.820393800037,289.80389830004424,None,288.8069255000446,None,288.8069255000446,None,288.8069255000446,None,290.5848926400184,None,290.5848926400184,None,290.5848926400184,None,,,,,,,,,,,,,027,2022-05-20_18h12.25.525,Main,2022.1.1,60.005172450323165,
positive,neutral,1,l,j,,,,,,,,,2,17,53,8,,,,,,,,,main,2,2,1,neutral,positive,j,l,0,1.31547239999054,290.5885623000213,291.60377760004485,291.5871025000233,None,290.5885623000213,None,290.5885623000213,None,290.5885623000213,None,292.9014714000514,None,292.9014714000514,None,292.9014714000514,None,,,,,,,,,,,,,027,2022-05-20_18h12.25.525,Main,2022.1.1,60.005172450323165,
positive,neutral,1,l,j,,,,,,,,,3,0,54,8,,,,,,,,,main,2,2,1,neutral,positive,j,j,1,0.8844573000096716,293.9020548000117,294.9014372000238,294.8847708000103,None,293.9020548000117,None,293.9020548000117,None,293.9020548000117,None,295.7847493400448,None,295.7847493400448,None,295.7847493400448,None,,,,,,,,,,,,,027,2022-05-20_18h12.25.525,Main,2022.1.1,60.005172450323165,
negative,neutral,1,j,l,,,,,,,,,3,1,55,3,,,,,,,,,main,2,2,1,neutral,negative,l,l,1,1.1477928000385873,295.7881050000433,296.8010412000003,296.7843643000233,None,295.7881050000433,None,295.7881050000433,None,295.7881050000433,None,297.9343643400469,None,297.9343643400469,None,297.9343643400469,None,,,,,,,,,,,,,027,2022-05-20_18h12.25.525,Main,2022.1.1,60.005172450323165,
neutral,negative,2,k,k,,,,,,,,,3,2,56,16,,,,,,,,,main,2,2,2,negative,neutral,k,k,1,0.681968400022015,297.93434940004954,298.93704450002406,298.93704450002406,None,297.93434940004954,None,297.93434940004954,None,297.93434940004954,None,299.6180431400542,None,299.6180431400542,None,299.6180431400542,None,,,,,,,,,,,,,027,2022-05-20_18h12.25.525,Main,2022.1.1,60.005172450323165,
negative,negative,1,j,l,,,,,,,,,3,3,57,0,,,,,,,,,main,2,2,1,negative,negative,l,l,1,0.9818068000022322,299.62142710003536,300.636955199996,300.62028950004606,None,299.62142710003536,None,299.62142710003536,None,299.62142710003536,None,301.6012761400314,None,301.6012761400314,None,301.6012761400314,None,,,,,,,,,,,,,027,2022-05-20_18h12.25.525,Main,2022.1.1,60.005172450323165,
positive,positive,2,l,j,,,,,,,,,3,4,58,11,,,,,,,,,main,2,2,2,positive,positive,j,j,1,0.7649986000033095,301.60777020000387,302.6201299999957,302.6035267999978,None,301.60777020000387,None,301.60777020000387,None,301.60777020000387,None,303.36796364003095,None,303.36796364003095,None,303.36796364003095,None,,,,,,,,,,,,,027,2022-05-20_18h12.25.525,Main,2022.1.1,60.005172450323165,
neutral,negative,1,k,k,,,,,,,,,3,5,59,7,,,,,,,,,main,1,1,1,negative,neutral,k,k,1,0.7483285000198521,303.3735120000201,304.38681410002755,304.37020230002236,None,303.3735120000201,None,303.3735120000201,None,303.3735120000201,None,305.1179112400394,None,305.1179112400394,None,305.1179112400394,None,,,,,,,,,,,,,027,2022-05-20_18h12.25.525,Main,2022.1.1,60.005172450323165,
neutral,positive,2,k,k,,,,,,,,,3,6,60,13,,,,,,,,,main,2,2,2,positive,neutral,k,k,1,0.9150523000280373,305.12382030003937,306.1367980000214,306.12020080001093,None,305.12382030003937,None,305.12382030003937,None,305.12382030003937,None,307.0341734400252,None,307.0341734400252,None,307.0341734400252,None,,,,,,,,,,,,,027,2022-05-20_18h12.25.525,Main,2022.1.1,60.005172450323165,
positive,negative,1,l,j,,,,,,,,,3,7,61,5,,,,,,,,,main,2,2,1,negative,positive,j,l,0,1.2156524999882095,307.0343729000306,308.03417120000813,308.03417120000813,None,307.0343729000306,None,307.0343729000306,None,307.0343729000306,None,309.25116080004955,None,309.25116080004955,None,309.25116080004955,None,,,,,,,,,,,,,027,2022-05-20_18h12.25.525,Main,2022.1.1,60.005172450323165,
negative,neutral,2,j,l,,,,,,,,,3,8,62,12,,,,,,,,,main,2,2,2,neutral,negative,l,l,1,0.9850311999907717,310.25175660004606,311.2534273000201,311.23677380004665,None,310.25175660004606,None,310.25175660004606,None,310.25175660004606,None,312.2344310400193,None,312.2344310400193,None,312.2344310400193,None,,,,,,,,,,,,,027,2022-05-20_18h12.25.525,Main,2022.1.1,60.005172450323165,
neutral,neutral,2,k,k,,,,,,,,,3,9,63,10,,,,,,,,,main,2,2,2,neutral,neutral,k,k,1,0.9000476999790408,312.2512204000377,313.2510871000122,313.23670680000214,None,312.2512204000377,None,312.2512204000377,None,312.2512204000377,None,314.13674514002633,None,314.13674514002633,None,314.13674514002633,None,,,,,,,,,,,,,027,2022-05-20_18h12.25.525,Main,2022.1.1,60.005172450323165,
negative,positive,2,j,l,,,,,,,,,3,10,64,15,,,,,,,,,main,1,1,2,positive,negative,l,l,1,1.3959856000146829,314.1397476000129,315.1533366999938,315.13419920002343,None,314.1397476000129,None,314.1397476000129,None,314.1397476000129,None,316.5344513400458,None,316.5344513400458,None,316.5344513400458,None,,,,,,,,,,,,,027,2022-05-20_18h12.25.525,Main,2022.1.1,60.005172450323165,
negative,positive,1,j,l,,,,,,,,,3,11,65,6,,,,,,,,,main,1,1,1,positive,negative,l,l,1,0.8515846999944188,316.54008570004953,317.5506465000217,317.5339780000504,None,316.54008570004953,None,316.54008570004953,None,316.54008570004953,None,318.3839659400517,None,318.3839659400517,None,318.3839659400517,None,,,,,,,,,,,,,027,2022-05-20_18h12.25.525,Main,2022.1.1,60.005172450323165,
neutral,neutral,1,k,k,,,,,,,,,3,12,66,1,,,,,,,,,main,1,1,1,neutral,neutral,k,k,1,0.7950878000119701,318.3869695000467,319.386584700027,319.386584700027,None,318.3869695000467,None,318.3869695000467,None,318.3869695000467,None,320.18428714004114,None,320.18428714004114,None,320.18428714004114,None,,,,,,,,,,,,,027,2022-05-20_18h12.25.525,Main,2022.1.1,60.005172450323165,
neutral,positive,1,k,k,,,,,,,,,3,13,67,4,,,,,,,,,main,2,2,1,positive,neutral,k,k,1,0.7159387999563478,320.1877211999963,321.20316970004933,321.18657439999515,None,320.1877211999963,None,320.1877211999963,None,320.1877211999963,None,321.9009016400203,None,321.9009016400203,None,321.9009016400203,None,,,,,,,,,,,,,027,2022-05-20_18h12.25.525,Main,2022.1.1,60.005172450323165,
negative,negative,2,j,l,,,,,,,,,3,14,68,9,,,,,,,,,main,1,1,2,negative,negative,l,l,1,0.9307768999715336,321.91991450003115,322.9175364000257,322.90322820004076,None,321.91991450003115,None,321.91991450003115,None,321.91991450003115,None,323.83418074001094,None,323.83418074001094,None,323.83418074001094,None,,,,,,,,,,,,,027,2022-05-20_18h12.25.525,Main,2022.1.1,60.005172450323165,
positive,positive,1,l,j,,,,,,,,,3,15,69,2,,,,,,,,,main,2,2,1,positive,positive,j,j,1,1.615147300006356,323.8402820000192,324.85083100001793,324.8174743000418,None,323.8402820000192,None,323.8402820000192,None,323.8402820000192,None,326.4508213000372,None,326.4508213000372,None,326.4508213000372,None,,,,,,,,,,,,,027,2022-05-20_18h12.25.525,Main,2022.1.1,60.005172450323165,
positive,negative,2,l,j,,,,,,,,,3,16,70,14,,,,,,,,,main,1,1,2,negative,positive,j,j,1,0.7866151999915019,327.4511690000072,328.45043130003614,328.45043130003614,None,327.4511690000072,None,327.4511690000072,None,327.4511690000072,None,329.2337608400383,None,329.2337608400383,None,329.2337608400383,None,,,,,,,,,,,,,027,2022-05-20_18h12.25.525,Main,2022.1.1,60.005172450323165,
positive,neutral,2,l,j,,,,,,,,,3,17,71,17,,,,,,,,,main,2,2,2,neutral,positive,j,j,1,0.614287200034596,329.23526670003776,330.2504306000192,330.2337585000205,None,329.23526670003776,None,329.23526670003776,None,329.23526670003776,None,330.8504355400335,None,330.8504355400335,None,330.8504355400335,None,,,,,,,,,,,,,027,2022-05-20_18h12.25.525,Main,2022.1.1,60.005172450323165,
positive,negative,1,l,j,,,,,,,,,4,0,72,5,,,,,,,,,main,1,1,1,negative,positive,j,j,1,0.6341203000047244,330.85603320004884,331.8696634999942,331.8505181000219,None,330.85603320004884,None,330.85603320004884,None,330.85603320004884,None,332.4862751400331,None,332.4862751400331,None,332.4862751400331,None,,,,,,,,,,,,,027,2022-05-20_18h12.25.525,Main,2022.1.1,60.005172450323165,
negative,negative,2,j,l,,,,,,,,,4,1,73,9,,,,,,,,,main,2,2,2,negative,negative,l,l,1,0.9464081000187434,332.48922630003653,333.5029501999961,333.4863222000422,None,332.48922630003653,None,332.48922630003653,None,332.48922630003653,None,334.4340983400005,None,334.4340983400005,None,334.4340983400005,None,,,,,,,,,,,,,027,2022-05-20_18h12.25.525,Main,2022.1.1,60.005172450323165,
positive,neutral,1,l,j,,,,,,,,,4,2,74,8,,,,,,,,,main,1,1,1,neutral,positive,j,j,1,0.9980311000254005,334.43970960000297,335.4528937000432,335.43627010000637,None,334.43970960000297,None,334.43970960000297,None,334.43970960000297,None,336.43406904001023,None,336.43406904001023,None,336.43406904001023,None,,,,,,,,,,,,,027,2022-05-20_18h12.25.525,Main,2022.1.1,60.005172450323165,
neutral,negative,2,k,k,,,,,,,,,4,3,75,16,,,,,,,,,main,2,2,2,negative,neutral,k,k,1,0.6316512000048533,336.4394331999938,337.45284700003685,337.4195910000126,None,336.4394331999938,None,336.4394331999938,None,336.4394331999938,None,338.06723444001983,None,338.06723444001983,None,338.06723444001983,None,,,,,,,,,,,,,027,2022-05-20_18h12.25.525,Main,2022.1.1,60.005172450323165,
positive,neutral,2,l,j,,,,,,,,,4,4,76,17,,,,,,,,,main,2,2,2,neutral,positive,j,j,1,0.8649429000215605,338.0724405000219,339.08259410003666,339.06653320003534,None,338.0724405000219,None,338.0724405000219,None,338.0724405000219,None,339.9334975400241,None,339.9334975400241,None,339.9334975400241,None,,,,,,,,,,,,,027,2022-05-20_18h12.25.525,Main,2022.1.1,60.005172450323165,
neutral,neutral,2,k,k,,,,,,,,,4,5,77,10,,,,,,,,,main,2,2,2,neutral,neutral,k,k,1,1.1314613000140525,339.93350770004326,340.9335043000174,340.9335043000174,None,339.93350770004326,None,339.93350770004326,None,339.93350770004326,None,342.06684784004466,None,342.06684784004466,None,342.06684784004466,None,,,,,,,,,,,,,027,2022-05-20_18h12.25.525,Main,2022.1.1,60.005172450323165,
neutral,positive,1,k,k,,,,,,,,,4,6,78,4,,,,,,,,,main,1,1,1,positive,neutral,k,k,1,0.714616000012029,342.0680719999946,343.0835124000441,343.0668430000078,None,342.0680719999946,None,342.0680719999946,None,342.0680719999946,None,343.78387554002694,None,343.78387554002694,None,343.78387554002694,None,,,,,,,,,,,,,027,2022-05-20_18h12.25.525,Main,2022.1.1,60.005172450323165,
neutral,negative,1,k,k,,,,,,,,,4,7,79,7,,,,,,,,,main,2,2,1,negative,neutral,k,k,1,1.1151788999559358,343.80055210000137,344.8027841000003,344.78606529999524,None,343.80055210000137,None,343.80055210000137,None,343.80055210000137,None,345.9004474400543,None,345.9004474400543,None,345.9004474400543,None,,,,,,,,,,,,,027,2022-05-20_18h12.25.525,Main,2022.1.1,60.005172450323165,
negative,neutral,2,j,l,,,,,,,,,4,8,80,12,,,,,,,,,main,2,2,2,neutral,negative,l,l,1,0.6650527999736369,345.90405330003705,346.9193004000117,346.9026938000461,None,345.90405330003705,None,345.90405330003705,None,345.90405330003705,None,347.56706084003673,None,347.56706084003673,None,347.56706084003673,None,,,,,,,,,,,,,027,2022-05-20_18h12.25.525,Main,2022.1.1,60.005172450323165,
neutral,positive,2,k,k,,,,,,,,,4,9,81,13,,,,,,,,,main,2,2,2,positive,neutral,k,j,0,0.8816272999974899,347.5728730999981,348.5859279000433,348.56924880004954,None,347.5728730999981,None,347.5728730999981,None,347.5728730999981,None,349.45033350004815,None,349.45033350004815,None,349.45033350004815,None,,,,,,,,,,,,,027,2022-05-20_18h12.25.525,Main,2022.1.1,60.005172450323165,
negative,negative,1,j,l,,,,,,,,,4,10,82,0,,,,,,,,,main,2,2,1,negative,negative,l,l,1,1.184320000000298,350.4516952999984,351.4666339000105,351.4333016000455,None,350.4516952999984,None,350.4516952999984,None,350.4516952999984,None,352.63327944000486,None,352.63327944000486,None,352.63327944000486,None,,,,,,,,,,,,,027,2022-05-20_18h12.25.525,Main,2022.1.1,60.005172450323165,
negative,neutral,1,j,l,,,,,,,,,4,11,83,3,,,,,,,,,main,2,2,1,neutral,negative,l,l,1,0.6980737000121735,352.6333403000026,353.6332839000388,353.6332839000388,None,352.6333403000026,None,352.6333403000026,None,352.6333403000026,None,354.33326044004644,None,354.33326044004644,None,354.33326044004644,None,,,,,,,,,,,,,027,2022-05-20_18h12.25.525,Main,2022.1.1,60.005172450323165,
positive,positive,1,l,j,,,,,,,,,4,12,84,2,,,,,,,,,main,1,1,1,positive,positive,j,j,1,0.9485259000211954,354.33592959999805,355.3499431000091,355.3332729000249,None,354.33592959999805,None,354.33592959999805,None,354.33592959999805,None,356.28356754001,None,356.28356754001,None,356.28356754001,None,,,,,,,,,,,,,027,2022-05-20_18h12.25.525,Main,2022.1.1,60.005172450323165,
neutral,neutral,1,k,k,,,,,,,,,4,13,85,1,,,,,,,,,main,2,2,1,neutral,neutral,k,k,1,0.8150121999788098,356.28693560004467,357.30248980002943,357.28582980000647,None,356.28693560004467,None,356.28693560004467,None,356.28693560004467,None,358.10018034001115,None,358.10018034001115,None,358.10018034001115,None,,,,,,,,,,,,,027,2022-05-20_18h12.25.525,Main,2022.1.1,60.005172450323165,
negative,positive,1,j,l,,,,,,,,,4,14,86,6,,,,,,,,,main,2,2,1,positive,negative,l,l,1,0.8652021999587305,358.1057943000342,359.11901530000614,359.1023866000469,None,358.1057943000342,None,358.1057943000342,None,358.1057943000342,None,359.9668221400469,None,359.9668221400469,None,359.9668221400469,None,,,,,,,,,,,,,027,2022-05-20_18h12.25.525,Main,2022.1.1,60.005172450323165,
positive,negative,2,l,j,,,,,,,,,4,15,87,14,,,,,,,,,main,2,2,2,negative,positive,j,j,1,0.7314806000213139,359.97245510003995,360.9856968999957,360.9667718000128,None,359.97245510003995,None,359.97245510003995,None,359.97245510003995,None,361.7001285400009,None,361.7001285400009,None,361.7001285400009,None,,,,,,,,,,,,,027,2022-05-20_18h12.25.525,Main,2022.1.1,60.005172450323165,
negative,positive,2,j,l,,,,,,,,,4,16,88,15,,,,,,,,,main,2,2,2,positive,negative,l,l,1,0.8813725000363775,361.7034432000364,362.71899510000367,362.70239790005144,None,361.7034432000364,None,361.7034432000364,None,361.7034432000364,None,363.5830571400118,None,363.5830571400118,None,363.5830571400118,None,,,,,,,,,,,,,027,2022-05-20_18h12.25.525,Main,2022.1.1,60.005172450323165,
positive,positive,2,l,j,,,,,,,,,4,17,89,11,,,,,,,,,main,2,2,2,positive,positive,j,j,1,0.9650798999937251,363.58327610004926,364.5830299000372,364.5830299000372,None,363.58327610004926,None,363.58327610004926,None,363.58327610004926,None,365.54971944000573,None,365.54971944000573,None,365.54971944000573,None,,,,,,,,,,,,,027,2022-05-20_18h12.25.525,Main,2022.1.1,60.005172450323165,
positive,positive,2,l,j,,,,,,,,,5,0,90,11,,,,,,,,,main,1,1,2,positive,positive,j,j,1,0.9484238000004552,365.5497220000252,366.54969190002885,366.54969190002885,None,365.5497220000252,None,365.5497220000252,None,365.5497220000252,None,367.49969964004123,None,367.49969964004123,None,367.49969964004123,None,,,,,,,,,,,,,027,2022-05-20_18h12.25.525,Main,2022.1.1,60.005172450323165,
neutral,negative,1,k,k,,,,,,,,,5,1,91,7,,,,,,,,,main,2,2,1,negative,neutral,k,k,1,0.7652833999600261,367.5052385000163,368.51884090004023,368.48568070004694,None,367.5052385000163,None,367.5052385000163,None,367.5052385000163,None,369.2666212400189,None,369.2666212400189,None,369.2666212400189,None,,,,,,,,,,,,,027,2022-05-20_18h12.25.525,Main,2022.1.1,60.005172450323165,
positive,neutral,2,l,j,,,,,,,,,5,2,92,17,,,,,,,,,main,2,2,2,neutral,positive,j,j,1,0.8151097999652848,369.2728515000199,370.2832763000042,370.2688728000503,None,369.2728515000199,None,369.2728515000199,None,369.2728515000199,None,371.0832426400273,None,371.0832426400273,None,371.0832426400273,None,,,,,,,,,,,,,027,2022-05-20_18h12.25.525,Main,2022.1.1,60.005172450323165,
positive,positive,1,l,j,,,,,,,,,5,3,93,2,,,,,,,,,main,2,2,1,positive,positive,j,l,0,1.86494269996183,371.0889666000148,372.1021141000092,372.08553300000494,None,371.0889666000148,None,371.0889666000148,None,371.0889666000148,None,373.94987040001433,None,373.94987040001433,None,373.94987040001433,None,,,,,,,,,,,,,027,2022-05-20_18h12.25.525,Main,2022.1.1,60.005172450323165,
positive,neutral,1,l,j,,,,,,,,,5,4,94,8,,,,,,,,,main,2,2,1,neutral,positive,j,j,1,1.100761000008788,374.9514438000042,375.96613210003125,375.93279849999817,None,374.9514438000042,None,374.9514438000042,None,374.9514438000042,None,377.0494308400201,None,377.0494308400201,None,377.0494308400201,None,,,,,,,,,,,,,027,2022-05-20_18h12.25.525,Main,2022.1.1,60.005172450323165,
positive,negative,2,l,j,,,,,,,,,5,5,95,14,,,,,,,,,main,1,1,2,negative,positive,j,j,1,0.6648572999984026,377.0494287000038,378.0494374000118,378.0494374000118,None,377.0494287000038,None,377.0494287000038,None,377.0494287000038,None,378.7161235400243,None,378.7161235400243,None,378.7161235400243,None,,,,,,,,,,,,,027,2022-05-20_18h12.25.525,Main,2022.1.1,60.005172450323165,
negative,negative,2,j,l,,,,,,,,,5,6,96,9,,,,,,,,,main,2,2,2,negative,negative,l,j,0,0.5318574999691918,378.7164563999977,379.7190905000316,379.7190905000316,None,378.7164563999977,None,378.7164563999977,None,378.7164563999977,None,380.24975330004236,None,380.24975330004236,None,380.24975330004236,None,,,,,,,,,,,,,027,2022-05-20_18h12.25.525,Main,2022.1.1,60.005172450323165,
negative,negative,1,j,l,,,,,,,,,5,7,97,0,,,,,,,,,main,2,2,1,negative,negative,l,l,1,0.8510466000298038,381.2505848000292,382.2686673999997,382.2328566000215,None,381.2505848000292,None,381.2505848000292,None,381.2505848000292,None,383.0996695400216,None,383.0996695400216,None,383.0996695400216,None,,,,,,,,,,,,,027,2022-05-20_18h12.25.525,Main,2022.1.1,60.005172450323165,
neutral,neutral,1,k,k,,,,,,,,,5,8,98,1,,,,,,,,,main,2,2,1,neutral,neutral,k,k,1,0.7482193000032566,383.10587349999696,384.1163291000412,384.0996533000143,None,383.10587349999696,None,383.10587349999696,None,383.10587349999696,None,384.84973504005467,None,384.84973504005467,None,384.84973504005467,None,,,,,,,,,,,,,027,2022-05-20_18h12.25.525,Main,2022.1.1,60.005172450323165,
neutral,positive,1,k,k,,,,,,,,,5,9,99,4,,,,,,,,,main,1,1,1,positive,neutral,k,k,1,0.6144551000325009,384.855888399994,385.8686067000381,385.851973300043,None,384.855888399994,None,384.855888399994,None,384.855888399994,None,386.4662572400528,None,386.4662572400528,None,386.4662572400528,None,,,,,,,,,,,,,027,2022-05-20_18h12.25.525,Main,2022.1.1,60.005172450323165,
positive,negative,1,l,j,,,,,,,,,5,10,100,5,,,,,,,,,main,2,2,1,negative,positive,j,j,1,0.74770389997866,386.47023140004603,387.482273600006,387.4651897000149,None,386.47023140004603,None,386.47023140004603,None,386.47023140004603,None,388.2158813400427,None,388.2158813400427,None,388.2158813400427,None,,,,,,,,,,,,,027,2022-05-20_18h12.25.525,Main,2022.1.1,60.005172450323165,
neutral,negative,2,k,k,,,,,,,,,5,11,101,16,,,,,,,,,main,2,2,2,negative,neutral,k,k,1,0.7815791000030003,388.21585650002817,389.2158396000159,389.2158396000159,None,388.21585650002817,None,388.21585650002817,None,388.21585650002817,None,389.99922274001875,None,389.99922274001875,None,389.99922274001875,None,,,,,,,,,,,,,027,2022-05-20_18h12.25.525,Main,2022.1.1,60.005172450323165,
negative,neutral,2,j,l,,,,,,,,,5,12,102,12,,,,,,,,,main,1,1,2,neutral,negative,l,l,1,1.2820834000012837,389.99920640001073,390.99921949999407,390.99921949999407,None,389.99920640001073,None,389.99920640001073,None,389.99920640001073,None,392.28285503999797,None,392.28285503999797,None,392.28285503999797,None,,,,,,,,,,,,,027,2022-05-20_18h12.25.525,Main,2022.1.1,60.005172450323165,
neutral,positive,2,k,k,,,,,,,,,5,13,103,13,,,,,,,,,main,2,2,2,positive,neutral,k,l,0,0.5477957000257447,392.28911960002733,393.3017460000119,393.28516290005064,None,392.28911960002733,None,392.28911960002733,None,392.28911960002733,None,393.8328043000074,None,393.8328043000074,None,393.8328043000074,None,,,,,,,,,,,,,027,2022-05-20_18h12.25.525,Main,2022.1.1,60.005172450323165,
negative,neutral,1,j,l,,,,,,,,,5,14,104,3,,,,,,,,,main,1,1,1,neutral,negative,l,l,1,0.867709600017406,394.83284149999963,395.83495010004845,395.81606670003384,None,394.83284149999963,None,394.83284149999963,None,394.83284149999963,None,396.69940213999945,None,396.69940213999945,None,396.69940213999945,None,,,,,,,,,,,,,027,2022-05-20_18h12.25.525,Main,2022.1.1,60.005172450323165,
negative,positive,2,j,l,,,,,,,,,5,15,105,15,,,,,,,,,main,2,2,2,positive,negative,l,l,1,0.8983389000059105,396.70561930001713,397.7183112000348,397.701717500051,None,396.70561930001713,None,396.70561930001713,None,396.70561930001713,None,398.59934234003305,None,398.59934234003305,None,398.59934234003305,None,,,,,,,,,,,,,027,2022-05-20_18h12.25.525,Main,2022.1.1,60.005172450323165,
neutral,neutral,2,k,k,,,,,,,,,5,16,106,10,,,,,,,,,main,1,1,2,neutral,neutral,k,k,1,1.1810720000066794,398.60281880002003,399.6156543000252,399.59898780001095,None,398.60281880002003,None,398.60281880002003,None,398.60281880002003,None,400.7823018400348,None,400.7823018400348,None,400.7823018400348,None,,,,,,,,,,,,,027,2022-05-20_18h12.25.525,Main,2022.1.1,60.005172450323165,
negative,positive,1,j,l,,,,,,,,,5,17,107,6,,,,,,,,,main,2,2,1,positive,negative,l,l,1,0.799064000020735,400.78626890003216,401.7993120000465,401.7826655000099,None,400.78626890003216,None,400.78626890003216,None,400.78626890003216,None,402.58262784000254,None,402.58262784000254,None,402.58262784000254,None,,,,,,,,,,,,,027,2022-05-20_18h12.25.525,Main,2022.1.1,60.005172450323165,
negative,positive,1,j,l,,,,,,,,,6,0,108,6,,,,,,,,,main,2,2,1,positive,negative,l,l,1,0.6983668999746442,402.58626130002085,403.6014006000478,403.58490090002306,None,402.58626130002085,None,402.58626130002085,None,402.58626130002085,None,404.28256324004616,None,404.28256324004616,None,404.28256324004616,None,,,,,,,,,,,,,027,2022-05-20_18h12.25.525,Main,2022.1.1,60.005172450323165,
positive,positive,2,l,j,,,,,,,,,6,1,109,11,,,,,,,,,main,1,1,2,positive,positive,j,j,1,0.7815287999692373,404.28608650004026,405.3014144000481,405.2848435000051,None,404.28608650004026,None,404.28608650004026,None,404.28608650004026,None,406.0658834400354,None,406.0658834400354,None,406.0658834400354,None,,,,,,,,,,,,,027,2022-05-20_18h12.25.525,Main,2022.1.1,60.005172450323165,
neutral,negative,1,k,k,,,,,,,,,6,2,110,7,,,,,,,,,main,2,2,1,negative,neutral,k,k,1,0.781757100019604,406.069261000026,407.0847530000028,407.0681322000455,None,406.069261000026,None,406.069261000026,None,406.069261000026,None,407.8491854400025,None,407.8491854400025,None,407.8491854400025,None,,,,,,,,,,,,,027,2022-05-20_18h12.25.525,Main,2022.1.1,60.005172450323165,
neutral,positive,1,k,k,,,,,,,,,6,3,111,4,,,,,,,,,main,1,1,1,positive,neutral,k,k,1,0.5831649000174366,407.8546805000515,408.86581250000745,408.84913040004903,None,407.8546805000515,None,407.8546805000515,None,407.8546805000515,None,409.43212544005365,None,409.43212544005365,None,409.43212544005365,None,,,,,,,,,,,,,027,2022-05-20_18h12.25.525,Main,2022.1.1,60.005172450323165,
neutral,neutral,1,k,k,,,,,,,,,6,4,112,1,,,,,,,,,main,1,1,1,neutral,neutral,k,k,1,0.5965899999719113,409.4333997000358,410.4487645000336,410.43209850002313,None,409.4333997000358,None,409.4333997000358,None,409.4333997000358,None,411.0320969400462,None,411.0320969400462,None,411.0320969400462,None,,,,,,,,,,,,,027,2022-05-20_18h12.25.525,Main,2022.1.1,60.005172450323165,
positive,neutral,1,l,j,,,,,,,,,6,5,113,8,,,,,,,,,main,1,1,1,neutral,positive,j,j,1,0.6985759999952279,411.03207160002785,412.0347423000494,412.0180741000222,None,411.03207160002785,None,411.03207160002785,None,411.03207160002785,None,412.73243224004983,None,412.73243224004983,None,412.73243224004983,None,,,,,,,,,,,,,027,2022-05-20_18h12.25.525,Main,2022.1.1,60.005172450323165,
positive,positive,1,l,j,,,,,,,,,6,6,114,2,,,,,,,,,main,1,1,1,positive,positive,j,j,1,0.7318704000208527,412.73539740004344,413.73462480003946,413.717973300023,None,412.73539740004344,None,412.73539740004344,None,412.73539740004344,None,414.46569884005004,None,414.46569884005004,None,414.46569884005004,None,,,,,,,,,,,,,027,2022-05-20_18h12.25.525,Main,2022.1.1,60.005172450323165,
positive,neutral,2,l,j,,,,,,,,,6,7,115,17,,,,,,,,,main,1,1,2,neutral,positive,j,j,1,0.8484945999807678,414.4715242999955,415.48234210000373,415.4656767999986,None,414.4715242999955,None,414.4715242999955,None,414.4715242999955,None,416.31568174001296,None,416.31568174001296,None,416.31568174001296,None,,,,,,,,,,,,,027,2022-05-20_18h12.25.525,Main,2022.1.1,60.005172450323165,
negative,negative,2,j,l,,,,,,,,,6,8,116,9,,,,,,,,,main,2,2,2,negative,negative,l,l,1,2.106816900020931,416.321191199997,417.33453510003164,417.31563050003024,None,416.321191199997,None,416.321191199997,None,416.321191199997,None,419.43176800000947,None,419.43176800000947,None,419.43176800000947,None,,,,,,,,,,,,,027,2022-05-20_18h12.25.525,Main,2022.1.1,60.005172450323165,
positive,negative,1,l,j,,,,,,,,,6,9,117,5,,,,,,,,,main,2,2,1,negative,positive,j,j,1,0.8861786999623291,420.4339187000296,421.4485794000211,421.4319069000194,None,420.4339187000296,None,420.4339187000296,None,420.4339187000296,None,422.31537154003746,None,422.31537154003746,None,422.31537154003746,None,,,,,,,,,,,,,027,2022-05-20_18h12.25.525,Main,2022.1.1,60.005172450323165,
positive,negative,2,l,j,,,,,,,,,6,10,118,14,,,,,,,,,main,1,1,2,negative,positive,j,j,1,0.6647543999715708,422.3216975000105,423.33200270001544,423.31778720003786,None,422.3216975000105,None,422.3216975000105,None,422.3216975000105,None,423.98205444002525,None,423.98205444002525,None,423.98205444002525,None,,,,,,,,,,,,,027,2022-05-20_18h12.25.525,Main,2022.1.1,60.005172450323165,
neutral,positive,2,k,k,,,,,,,,,6,11,119,13,,,,,,,,,main,1,1,2,positive,neutral,k,k,1,1.4986855000024661,423.98762810003245,425.00108499999624,424.967827400018,None,423.98762810003245,None,423.98762810003245,None,423.98762810003245,None,426.4822167400387,None,426.4822167400387,None,426.4822167400387,None,,,,,,,,,,,,,027,2022-05-20_18h12.25.525,Main,2022.1.1,60.005172450323165,
neutral,negative,2,k,k,,,,,,,,,6,12,120,16,,,,,,,,,main,1,1,2,negative,neutral,k,k,1,0.5984353999956511,426.4880709000281,427.49875620001694,427.46772450004937,None,426.4880709000281,None,426.4880709000281,None,426.4880709000281,None,428.0820856400067,None,428.0820856400067,None,428.0820856400067,None,,,,,,,,,,,,,027,2022-05-20_18h12.25.525,Main,2022.1.1,60.005172450323165,
negative,negative,1,j,l,,,,,,,,,6,13,121,0,,,,,,,,,main,2,2,1,negative,negative,l,l,1,1.7646779000060633,428.08580900001107,429.0987179999938,429.08427480002865,None,428.08580900001107,None,428.08580900001107,None,428.08580900001107,None,430.8483403000282,None,430.8483403000282,None,430.8483403000282,None,,,,,,,,,,,,,027,2022-05-20_18h12.25.525,Main,2022.1.1,60.005172450323165,
negative,neutral,2,j,l,,,,,,,,,6,14,122,12,,,,,,,,,main,1,1,2,neutral,negative,l,l,1,0.969122199981939,431.85014840000076,432.8650142000406,432.84834070003126,None,431.85014840000076,None,431.85014840000076,None,431.85014840000076,None,433.8150379400002,None,433.8150379400002,None,433.8150379400002,None,,,,,,,,,,,,,027,2022-05-20_18h12.25.525,Main,2022.1.1,60.005172450323165,
negative,neutral,1,j,l,,,,,,,,,6,15,123,3,,,,,,,,,main,2,2,1,neutral,negative,l,l,1,1.031163599982392,433.8216838000226,434.8342043000157,434.8176015000208,None,433.8216838000226,None,433.8216838000226,None,433.8216838000226,None,435.84861994000386,None,435.84861994000386,None,435.84861994000386,None,,,,,,,,,,,,,027,2022-05-20_18h12.25.525,Main,2022.1.1,60.005172450323165,
negative,positive,2,j,l,,,,,,,,,6,16,124,15,,,,,,,,,main,1,1,2,positive,negative,l,l,1,0.7316135000437498,435.85424920002697,436.86749470001087,436.85093519999646,None,435.85424920002697,None,435.85424920002697,None,435.85424920002697,None,437.5819348400226,None,437.5819348400226,None,437.5819348400226,None,,,,,,,,,,,,,027,2022-05-20_18h12.25.525,Main,2022.1.1,60.005172450323165,
neutral,neutral,2,k,k,,,,,,,,,6,17,125,10,,,,,,,,,main,1,1,2,neutral,neutral,k,k,1,0.8649511999683455,437.5877321000444,438.6007305000094,438.58186630002456,None,437.5877321000444,None,437.5877321000444,None,437.5877321000444,None,439.4485104400199,None,439.4485104400199,None,439.4485104400199,None,,,,,,,,,,,,,027,2022-05-20_18h12.25.525,Main,2022.1.1,60.005172450323165,
negative,negative,1,j,l,,,,,,,,,7,0,126,0,,,,,,,,,main,2,2,1,negative,negative,l,l,1,0.7652114999946207,439.45342190004885,440.46516370004974,440.43413569999393,None,439.45342190004885,None,439.45342190004885,None,439.45342190004885,None,441.2151396400412,None,441.2151396400412,None,441.2151396400412,None,,,,,,,,,,,,,027,2022-05-20_18h12.25.525,Main,2022.1.1,60.005172450323165,
neutral,neutral,2,k,k,,,,,,,,,7,1,127,10,,,,,,,,,main,1,1,2,neutral,neutral,k,k,1,0.7806568000232801,441.2212817000109,442.23145830002613,442.21479400002863,None,441.2212817000109,None,441.2212817000109,None,441.2212817000109,None,442.9981184400502,None,442.9981184400502,None,442.9981184400502,None,,,,,,,,,,,,,027,2022-05-20_18h12.25.525,Main,2022.1.1,60.005172450323165,
neutral,negative,2,k,k,,,,,,,,,7,2,128,16,,,,,,,,,main,1,1,2,negative,neutral,k,k,1,1.3484724999871105,442.9981128000072,443.9981185000506,443.9981185000506,None,442.9981128000072,None,442.9981128000072,None,442.9981128000072,None,445.3480993399979,None,445.3480993399979,None,445.3480993399979,None,,,,,,,,,,,,,027,2022-05-20_18h12.25.525,Main,2022.1.1,60.005172450323165,
neutral,neutral,1,k,k,,,,,,,,,7,3,129,1,,,,,,,,,main,2,2,1,neutral,neutral,k,k,1,0.8318622000515461,445.3512295000255,446.3506285000476,446.33404020004673,None,445.3512295000255,None,445.3512295000255,None,445.3512295000255,None,447.1817421400454,None,447.1817421400454,None,447.1817421400454,None,,,,,,,,,,,,,027,2022-05-20_18h12.25.525,Main,2022.1.1,60.005172450323165,
positive,positive,2,l,j,,,,,,,,,7,4,130,11,,,,,,,,,main,2,2,2,positive,positive,j,j,1,1.1976890999940224,447.1857125000097,448.20053420000477,448.18398090003757,None,447.1857125000097,None,447.1857125000097,None,447.1857125000097,None,449.38167204004714,None,449.38167204004714,None,449.38167204004714,None,,,,,,,,,,,,,027,2022-05-20_18h12.25.525,Main,2022.1.1,60.005172450323165,
positive,neutral,1,l,j,,,,,,,,,7,5,131,8,,,,,,,,,main,1,1,1,neutral,positive,j,j,1,0.9317157000186853,449.3876452000113,450.4006802000222,450.3839752000058,None,449.3876452000113,None,449.3876452000113,None,449.3876452000113,None,451.31496354001575,None,451.31496354001575,None,451.31496354001575,None,,,,,,,,,,,,,027,2022-05-20_18h12.25.525,Main,2022.1.1,60.005172450323165,
positive,negative,2,l,j,,,,,,,,,7,6,132,14,,,,,,,,,main,1,1,2,negative,positive,j,j,1,3.6649595000199042,451.32036620000144,452.33382870000787,452.31727699999465,None,451.32036620000144,None,451.32036620000144,None,451.32036620000144,None,455.98155349999433,None,455.98155349999433,None,455.98155349999433,None,,,,,,,,,,,,,027,2022-05-20_18h12.25.525,Main,2022.1.1,60.005172450323165,
negative,negative,2,j,l,,,,,,,,,7,7,133,9,,,,,,,,,main,2,2,2,negative,negative,l,l,1,0.8843479000497609,456.9818416000344,457.9837253000005,457.9671290999977,None,456.9818416000344,None,456.9818416000344,None,456.9818416000344,None,458.86479473999935,None,458.86479473999935,None,458.86479473999935,None,,,,,,,,,,,,,027,2022-05-20_18h12.25.525,Main,2022.1.1,60.005172450323165,
neutral,positive,1,k,k,,,,,,,,,7,8,134,4,,,,,,,,,main,2,2,1,positive,neutral,k,k,1,0.7823302000178955,458.87036890001036,459.88143280002987,459.86477400001604,None,458.87036890001036,None,458.87036890001036,None,458.87036890001036,None,460.6480859400006,None,460.6480859400006,None,460.6480859400006,None,,,,,,,,,,,,,027,2022-05-20_18h12.25.525,Main,2022.1.1,60.005172450323165,
neutral,positive,2,k,k,,,,,,,,,7,9,135,13,,,,,,,,,main,1,1,2,positive,neutral,k,k,1,0.6642816999810748,460.65209400001913,461.6669982000021,461.64808220003033,None,460.65209400001913,None,460.65209400001913,None,460.65209400001913,None,462.31472884003307,None,462.31472884003307,None,462.31472884003307,None,,,,,,,,,,,,,027,2022-05-20_18h12.25.525,Main,2022.1.1,60.005172450323165,
negative,neutral,1,j,l,,,,,,,,,7,10,136,3,,,,,,,,,main,1,1,1,neutral,negative,l,l,1,0.7646697000018321,462.3176205000491,463.33101300004637,463.31433710001875,None,462.3176205000491,None,462.3176205000491,None,462.3176205000491,None,464.0810191400349,None,464.0810191400349,None,464.0810191400349,None,,,,,,,,,,,,,027,2022-05-20_18h12.25.525,Main,2022.1.1,60.005172450323165,
positive,neutral,2,l,j,,,,,,,,,7,11,137,17,,,,,,,,,main,1,1,2,neutral,positive,j,j,1,0.6807591000106186,464.081593000039,465.0810179000255,465.0810179000255,None,464.081593000039,None,464.081593000039,None,464.081593000039,None,465.7643477400532,None,465.7643477400532,None,465.7643477400532,None,,,,,,,,,,,,,027,2022-05-20_18h12.25.525,Main,2022.1.1,60.005172450323165,
neutral,negative,1,k,k,,,,,,,,,7,12,138,7,,,,,,,,,main,1,1,1,negative,neutral,k,k,1,0.6348238000064157,465.764336000022,466.7643536000396,466.7643536000396,None,465.764336000022,None,465.764336000022,None,465.764336000022,None,467.40042624000927,None,467.40042624000927,None,467.40042624000927,None,,,,,,,,,,,,,027,2022-05-20_18h12.25.525,Main,2022.1.1,60.005172450323165,
negative,positive,2,j,l,,,,,,,,,7,13,139,15,,,,,,,,,main,2,2,2,positive,negative,l,l,1,1.3955530999810435,467.40356250002515,468.4169101000298,468.40026220004074,None,467.40356250002515,None,467.40356250002515,None,467.40356250002515,None,469.79762324005134,None,469.79762324005134,None,469.79762324005134,None,,,,,,,,,,,,,027,2022-05-20_18h12.25.525,Main,2022.1.1,60.005172450323165,
positive,positive,1,l,j,,,,,,,,,7,14,140,2,,,,,,,,,main,2,2,1,positive,positive,j,j,1,0.8992755000363104,469.80133170000045,470.8145753000281,470.80018350004684,None,469.80133170000045,None,469.80133170000045,None,469.80133170000045,None,471.6978568400489,None,471.6978568400489,None,471.6978568400489,None,,,,,,,,,,,,,027,2022-05-20_18h12.25.525,Main,2022.1.1,60.005172450323165,
negative,positive,1,j,l,,,,,,,,,7,15,141,6,,,,,,,,,main,1,1,1,positive,negative,l,l,1,0.964525599963963,471.70430860004853,472.716794100008,472.7001853000256,None,471.70430860004853,None,471.70430860004853,None,471.70430860004853,None,473.6645262400387,None,473.6645262400387,None,473.6645262400387,None,,,,,,,,,,,,,027,2022-05-20_18h12.25.525,Main,2022.1.1,60.005172450323165,
positive,negative,1,l,j,,,,,,,,,7,16,142,5,,,,,,,,,main,2,2,1,negative,positive,j,k,0,0.7637475999654271,473.6710306000314,474.6833791999961,474.6667385000037,None,473.6710306000314,None,473.6710306000314,None,473.6710306000314,None,475.4307650999981,None,475.4307650999981,None,475.4307650999981,None,,,,,,,,,,,,,027,2022-05-20_18h12.25.525,Main,2022.1.1,60.005172450323165,
negative,neutral,2,j,l,,,,,,,,,7,17,143,12,,,,,,,,,main,2,2,2,neutral,negative,l,l,1,0.7695659999735653,476.4307708000415,477.43076130002737,477.43076130002737,None,476.4307708000415,None,476.4307708000415,None,476.4307708000415,None,478.19744234003593,None,478.19744234003593,None,478.19744234003593,None,,,,,,,,,,,,,027,2022-05-20_18h12.25.525,Main,2022.1.1,60.005172450323165,
positive,negative,2,l,j,,,,,,,,,8,0,144,14,,,,,,,,,main,2,2,2,negative,positive,j,j,1,0.8480904000462033,478.2001561000361,479.2140952000045,479.19743749999907,None,478.2001561000361,None,478.2001561000361,None,478.2001561000361,None,480.0477723400225,None,480.0477723400225,None,480.0477723400225,None,,,,,,,,,,,,,027,2022-05-20_18h12.25.525,Main,2022.1.1,60.005172450323165,
negative,negative,1,j,l,,,,,,,,,8,1,145,0,,,,,,,,,main,1,1,1,negative,negative,l,l,1,0.8149659000337124,480.05310660001123,481.0643607000238,481.03336640005,None,480.05310660001123,None,480.05310660001123,None,480.05310660001123,None,481.86435524002883,None,481.86435524002883,None,481.86435524002883,None,,,,,,,,,,,,,027,2022-05-20_18h12.25.525,Main,2022.1.1,60.005172450323165,
negative,positive,2,j,l,,,,,,,,,8,2,146,15,,,,,,,,,main,1,1,2,positive,negative,l,l,1,0.7988602000405081,481.86966880003456,482.88325320003787,482.84999190003145,None,481.86966880003456,None,481.86966880003456,None,481.86966880003456,None,483.66434704001296,None,483.66434704001296,None,483.66434704001296,None,,,,,,,,,,,,,027,2022-05-20_18h12.25.525,Main,2022.1.1,60.005172450323165,
positive,positive,1,l,j,,,,,,,,,8,3,147,2,,,,,,,,,main,2,2,1,positive,positive,j,j,1,1.0148919000057504,483.668205199996,484.68321170000127,484.6642843000009,None,483.668205199996,None,483.668205199996,None,483.668205199996,None,485.6809589400189,None,485.6809589400189,None,485.6809589400189,None,,,,,,,,,,,,,027,2022-05-20_18h12.25.525,Main,2022.1.1,60.005172450323165,
positive,positive,2,l,j,,,,,,,,,8,4,148,11,,,,,,,,,main,1,1,2,positive,positive,j,j,1,0.68136190000223,485.6842426000512,486.697558200045,486.6808906000224,None,485.6842426000512,None,485.6842426000512,None,485.6842426000512,None,487.3638715400128,None,487.3638715400128,None,487.3638715400128,None,,,,,,,,,,,,,027,2022-05-20_18h12.25.525,Main,2022.1.1,60.005172450323165,
negative,positive,1,j,l,,,,,,,,,8,5,149,6,,,,,,,,,main,2,2,1,positive,negative,l,l,1,0.8650662999716587,487.3638665000326,488.3638383000507,488.3638383000507,None,487.3638665000326,None,487.3638665000326,None,487.3638665000326,None,489.23053624004825,None,489.23053624004825,None,489.23053624004825,None,,,,,,,,,,,,,027,2022-05-20_18h12.25.525,Main,2022.1.1,60.005172450323165,
negative,negative,2,j,l,,,,,,,,,8,6,150,9,,,,,,,,,main,1,1,2,negative,negative,l,l,1,0.831704699958209,489.23169210000196,490.2471718000015,490.23052240000106,None,489.23169210000196,None,489.23169210000196,None,489.23169210000196,None,491.0638687400031,None,491.0638687400031,None,491.0638687400031,None,,,,,,,,,,,,,027,2022-05-20_18h12.25.525,Main,2022.1.1,60.005172450323165,
neutral,neutral,2,k,k,,,,,,,,,8,7,151,10,,,,,,,,,main,2,2,2,neutral,neutral,k,k,1,0.9654587000259198,491.0695909000351,492.0830397999962,492.0664487000322,None,491.0695909000351,None,491.0695909000351,None,491.0695909000351,None,493.0308738400461,None,493.0308738400461,None,493.0308738400461,None,,,,,,,,,,,,,027,2022-05-20_18h12.25.525,Main,2022.1.1,60.005172450323165,
positive,neutral,1,l,j,,,,,,,,,8,8,152,8,,,,,,,,,main,2,2,1,neutral,positive,j,j,1,0.8981555000063963,493.0363483999972,494.04972290003207,494.0331006000051,None,493.0363483999972,None,493.0363483999972,None,493.0363483999972,None,494.9307636400452,None,494.9307636400452,None,494.9307636400452,None,,,,,,,,,,,,,027,2022-05-20_18h12.25.525,Main,2022.1.1,60.005172450323165,
neutral,negative,2,k,k,,,,,,,,,8,9,153,16,,,,,,,,,main,2,2,2,negative,neutral,k,k,1,0.7485987999825738,494.9345159000368,495.94951460004086,495.91635910002515,None,494.9345159000368,None,494.9345159000368,None,494.9345159000368,None,496.68068464002573,None,496.68068464002573,None,496.68068464002573,None,,,,,,,,,,,,,027,2022-05-20_18h12.25.525,Main,2022.1.1,60.005172450323165,
neutral,neutral,1,k,k,,,,,,,,,8,10,154,1,,,,,,,,,main,2,2,1,neutral,neutral,k,k,1,0.7486949000158347,496.6995923000504,497.69952490000287,497.68295220000437,None,496.6995923000504,None,496.6995923000504,None,496.6995923000504,None,498.43064144004603,None,498.43064144004603,None,498.43064144004603,None,,,,,,,,,,,,,027,2022-05-20_18h12.25.525,Main,2022.1.1,60.005172450323165,
neutral,positive,2,k,k,,,,,,,,,8,11,155,13,,,,,,,,,main,2,2,2,positive,neutral,k,k,1,0.6143336999812163,498.43472610000754,499.44693930004723,499.43026769999415,None,498.43472610000754,None,498.43472610000754,None,498.43472610000754,None,500.04698854004965,None,500.04698854004965,None,500.04698854004965,None,,,,,,,,,,,,,027,2022-05-20_18h12.25.525,Main,2022.1.1,60.005172450323165,
positive,neutral,2,l,j,,,,,,,,,8,12,156,17,,,,,,,,,main,1,1,2,neutral,positive,j,j,1,0.7310874999966472,500.04746920004254,501.0469351000502,501.0469351000502,None,500.04746920004254,None,500.04746920004254,None,500.04746920004254,None,501.7802734400146,None,501.7802734400146,None,501.7802734400146,None,,,,,,,,,,,,,027,2022-05-20_18h12.25.525,Main,2022.1.1,60.005172450323165,
neutral,positive,1,k,k,,,,,,,,,8,13,157,4,,,,,,,,,main,2,2,1,positive,neutral,k,k,1,0.615212100034114,501.7809447000036,502.7802687000367,502.7802687000367,None,501.7809447000036,None,501.7809447000036,None,501.7809447000036,None,503.3969589400338,None,503.3969589400338,None,503.3969589400338,None,,,,,,,,,,,,,027,2022-05-20_18h12.25.525,Main,2022.1.1,60.005172450323165,
negative,neutral,2,j,l,,,,,,,,,8,14,158,12,,,,,,,,,main,2,2,2,neutral,negative,l,l,1,0.7821279999916442,503.4005042000208,504.39955840003677,504.39955840003677,None,503.4005042000208,None,503.4005042000208,None,503.4005042000208,None,505.18066964002793,None,505.18066964002793,None,505.18066964002793,None,,,,,,,,,,,,,027,2022-05-20_18h12.25.525,Main,2022.1.1,60.005172450323165,
negative,neutral,1,j,l,,,,,,,,,8,15,159,3,,,,,,,,,main,1,1,1,neutral,negative,l,l,1,0.6647953999927267,505.18655580002815,506.19948230002774,506.18285939999623,None,505.18655580002815,None,505.18655580002815,None,505.18655580002815,None,506.84719624004794,None,506.84719624004794,None,506.84719624004794,None,,,,,,,,,,,,,027,2022-05-20_18h12.25.525,Main,2022.1.1,60.005172450323165,
positive,negative,1,l,j,,,,,,,,,8,16,160,5,,,,,,,,,main,2,2,1,negative,positive,j,j,1,0.9316403000266291,506.85326430003624,507.8659909000271,507.84712570003467,None,506.85326430003624,None,506.85326430003624,None,506.85326430003624,None,508.7804586400278,None,508.7804586400278,None,508.7804586400278,None,,,,,,,,,,,,,027,2022-05-20_18h12.25.525,Main,2022.1.1,60.005172450323165,
neutral,negative,1,k,k,,,,,,,,,8,17,161,7,,,,,,,,,main,2,2,1,negative,neutral,k,k,1,0.7318457000073977,508.78676380001707,509.7970915000187,509.76611260004574,None,508.78676380001707,None,508.78676380001707,None,508.78676380001707,None,510.5137632400263,None,510.5137632400263,None,510.5137632400263,None,,,,,,,,,,,,,027,2022-05-20_18h12.25.525,Main,2022.1.1,60.005172450323165,
positive,negative,1,l,j,,,,,,,,,9,0,162,5,,,,,,,,,main,2,2,1,negative,positive,j,j,1,0.9148769999737851,510.5199242000235,511.5300355000072,511.5133746000356,None,510.5199242000235,None,510.5199242000235,None,510.5199242000235,None,512.4300088400021,None,512.4300088400021,None,512.4300088400021,None,,,,,,,,,,,,,027,2022-05-20_18h12.25.525,Main,2022.1.1,60.005172450323165,
neutral,positive,2,k,k,,,,,,,,,9,1,163,13,,,,,,,,,main,1,1,2,positive,neutral,k,k,1,0.7316094999550842,512.4300033000181,513.4300079999957,513.4300079999957,None,512.4300033000181,None,512.4300033000181,None,512.4300033000181,None,514.1633749400032,None,514.1633749400032,None,514.1633749400032,None,,,,,,,,,,,,,027,2022-05-20_18h12.25.525,Main,2022.1.1,60.005172450323165,
neutral,negative,1,k,k,,,,,,,,,9,2,164,7,,,,,,,,,main,2,2,1,negative,neutral,k,k,1,0.7157699000090361,514.163721000019,515.1633697000216,515.1633697000216,None,514.163721000019,None,514.163721000019,None,514.163721000019,None,515.8803625400294,None,515.8803625400294,None,515.8803625400294,None,,,,,,,,,,,,,027,2022-05-20_18h12.25.525,Main,2022.1.1,60.005172450323165,
positive,neutral,1,l,j,,,,,,,,,9,3,165,8,,,,,,,,,main,2,2,1,neutral,positive,j,j,1,0.9838826999766752,515.8841676000156,516.8991665000212,516.8826037000399,None,515.8841676000156,None,515.8841676000156,None,515.8841676000156,None,517.8659199400106,None,517.8659199400106,None,517.8659199400106,None,,,,,,,,,,,,,027,2022-05-20_18h12.25.525,Main,2022.1.1,60.005172450323165,
neutral,neutral,1,k,k,,,,,,,,,9,4,166,1,,,,,,,,,main,2,2,1,neutral,neutral,k,k,1,0.812296400021296,517.8690199000412,518.8824841000023,518.8658711000462,None,517.8690199000412,None,517.8690199000412,None,517.8690199000412,None,519.6802322400151,None,519.6802322400151,None,519.6802322400151,None,,,,,,,,,,,,,027,2022-05-20_18h12.25.525,Main,2022.1.1,60.005172450323165,
negative,negative,2,j,l,,,,,,,,,9,5,167,9,,,,,,,,,main,2,2,2,negative,negative,l,l,1,1.8986016000271775,519.6840451000025,520.699015500024,520.6658261000412,None,519.6840451000025,None,519.6840451000025,None,519.6840451000025,None,522.5801689000218,None,522.5801689000218,None,522.5801689000218,None,,,,,,,,,,,,,027,2022-05-20_18h12.25.525,Main,2022.1.1,60.005172450323165,
negative,neutral,2,j,l,,,,,,,,,9,6,168,12,,,,,,,,,main,2,2,2,neutral,negative,l,l,1,0.6363856000243686,523.5797783000162,524.5797739000409,524.563114300021,None,523.5797783000162,None,523.5797783000162,None,523.5797783000162,None,525.2130941400071,None,525.2130941400071,None,525.2130941400071,None,,,,,,,,,,,,,027,2022-05-20_18h12.25.525,Main,2022.1.1,60.005172450323165,
positive,neutral,2,l,j,,,,,,,,,9,7,169,17,,,,,,,,,main,2,2,2,neutral,positive,j,j,1,0.7647367999888957,525.2132241000072,526.2131171000074,526.2131171000074,None,525.2132241000072,None,525.2132241000072,None,525.2132241000072,None,526.9798144400236,None,526.9798144400236,None,526.9798144400236,None,,,,,,,,,,,,,027,2022-05-20_18h12.25.525,Main,2022.1.1,60.005172450323165,
neutral,negative,2,k,k,,,,,,,,,9,8,170,16,,,,,,,,,main,1,1,2,negative,neutral,k,k,1,0.8319960999651812,526.9854721000302,527.9989678999991,527.9657167000114,None,526.9854721000302,None,526.9854721000302,None,526.9854721000302,None,528.8134056400274,None,528.8134056400274,None,528.8134056400274,None,,,,,,,,,,,,,027,2022-05-20_18h12.25.525,Main,2022.1.1,60.005172450323165,
negative,positive,2,j,l,,,,,,,,,9,9,171,15,,,,,,,,,main,2,2,2,positive,negative,l,l,1,0.9319515000097454,528.8190622000257,529.8322427000385,529.81570560002,None,528.8190622000257,None,528.8190622000257,None,528.8190622000257,None,530.746778440033,None,530.746778440033,None,530.746778440033,None,,,,,,,,,,,,,027,2022-05-20_18h12.25.525,Main,2022.1.1,60.005172450323165,
positive,negative,2,l,j,,,,,,,,,9,10,172,14,,,,,,,,,main,2,2,2,negative,positive,j,l,0,0.6641141999862157,530.7527873000363,531.7655514000216,531.7488740000408,None,530.7527873000363,None,530.7527873000363,None,530.7527873000363,None,532.4133120000479,None,532.4133120000479,None,532.4133120000479,None,,,,,,,,,,,,,027,2022-05-20_18h12.25.525,Main,2022.1.1,60.005172450323165,
positive,positive,1,l,j,,,,,,,,,9,11,173,2,,,,,,,,,main,2,2,1,positive,positive,j,j,1,1.384053700021468,533.4136135000153,534.4155605999986,534.3989077000297,None,533.4136135000153,None,533.4136135000153,None,533.4136135000153,None,535.7962099399999,None,535.7962099399999,None,535.7962099399999,None,,,,,,,,,,,,,027,2022-05-20_18h12.25.525,Main,2022.1.1,60.005172450323165,
negative,neutral,1,j,l,,,,,,,,,9,12,174,3,,,,,,,,,main,1,1,1,neutral,negative,l,l,1,1.398265200026799,535.7965632000123,536.7961848000414,536.7961848000414,None,535.7965632000123,None,535.7965632000123,None,535.7965632000123,None,538.1962205400457,None,538.1962205400457,None,538.1962205400457,None,,,,,,,,,,,,,027,2022-05-20_18h12.25.525,Main,2022.1.1,60.005172450323165,
negative,negative,1,j,l,,,,,,,,,9,13,175,0,,,,,,,,,main,1,1,1,negative,negative,l,l,1,1.0154765999759547,538.1965666000033,539.1962166000158,539.1962166000158,None,538.1965666000033,None,538.1965666000033,None,538.1965666000033,None,540.2132262400235,None,540.2132262400235,None,540.2132262400235,None,,,,,,,,,,,,,027,2022-05-20_18h12.25.525,Main,2022.1.1,60.005172450323165,
negative,positive,1,j,l,,,,,,,,,9,14,176,6,,,,,,,,,main,2,2,1,positive,negative,l,k,0,1.349222099990584,540.2192202000297,541.2320191000472,541.2129663000233,None,540.2192202000297,None,540.2192202000297,None,540.2192202000297,None,542.5632000000332,None,542.5632000000332,None,542.5632000000332,None,,,,,,,,,,,,,027,2022-05-20_18h12.25.525,Main,2022.1.1,60.005172450323165,
positive,positive,2,l,j,,,,,,,,,9,15,177,11,,,,,,,,,main,2,2,2,positive,positive,j,j,1,0.8179426999995485,543.563598000037,544.565294900036,544.5486877000076,None,543.563598000037,None,543.563598000037,None,543.563598000037,None,545.3797127400292,None,545.3797127400292,None,545.3797127400292,None,,,,,,,,,,,,,027,2022-05-20_18h12.25.525,Main,2022.1.1,60.005172450323165,
neutral,neutral,2,k,k,,,,,,,,,9,16,178,10,,,,,,,,,main,2,2,2,neutral,neutral,k,k,1,0.847881099965889,545.3837160000112,546.3985984000028,546.3796957000159,None,545.3837160000112,None,545.3837160000112,None,545.3837160000112,None,547.2296732400544,None,547.2296732400544,None,547.2296732400544,None,,,,,,,,,,,,,027,2022-05-20_18h12.25.525,Main,2022.1.1,60.005172450323165,
neutral,positive,1,k,k,,,,,,,,,9,17,179,4,,,,,,,,,main,1,1,1,positive,neutral,k,k,1,0.7982344999909401,547.235870500037,548.24597670004,548.2293071000022,None,547.235870500037,None,547.235870500037,None,547.235870500037,None,549.0292865400086,None,549.0292865400086,None,549.0292865400086,None,,,,,,,,,,,,,027,2022-05-20_18h12.25.525,Main,2022.1.1,60.005172450323165,
negative,negative,1,j,l,,,,,,,,,10,0,180,0,,,,,,,,,main,2,2,1,negative,negative,l,l,1,1.5150647000409663,549.029596700042,550.029296600027,550.029296600027,None,549.029596700042,None,549.029596700042,None,549.029596700042,None,551.5459460000275,None,551.5459460000275,None,551.5459460000275,None,,,,,,,,,,,,,027,2022-05-20_18h12.25.525,Main,2022.1.1,60.005172450323165,
negative,negative,2,j,l,,,,,,,,,10,1,181,9,,,,,,,,,main,2,2,2,negative,negative,l,l,1,0.8511548999813385,552.5465618000017,553.5485024999944,553.5318452000502,None,552.5465618000017,None,552.5465618000017,None,552.5465618000017,None,554.3962035400443,None,554.3962035400443,None,554.3962035400443,None,,,,,,,,,,,,,027,2022-05-20_18h12.25.525,Main,2022.1.1,60.005172450323165,
positive,neutral,2,l,j,,,,,,,,,10,2,182,17,,,,,,,,,main,1,1,2,neutral,positive,j,j,1,0.7311340000014752,554.4019922000007,555.4150416000048,555.3984609000036,None,554.4019922000007,None,554.4019922000007,None,554.4019922000007,None,556.1295180400018,None,556.1295180400018,None,556.1295180400018,None,,,,,,,,,,,,,027,2022-05-20_18h12.25.525,Main,2022.1.1,60.005172450323165,
neutral,positive,2,k,k,,,,,,,,,10,3,183,13,,,,,,,,,main,2,2,2,positive,neutral,k,k,1,0.8488958000089042,556.1324678999954,557.1316825000104,557.1151213000412,None,556.1324678999954,None,556.1324678999954,None,556.1324678999954,None,557.9794450400047,None,557.9794450400047,None,557.9794450400047,None,,,,,,,,,,,,,027,2022-05-20_18h12.25.525,Main,2022.1.1,60.005172450323165,
neutral,negative,1,k,k,,,,,,,,,10,4,184,7,,,,,,,,,main,2,2,1,negative,neutral,k,k,1,0.5814438999514095,557.9853262000252,558.9983361000195,558.9817517000483,None,557.9853262000252,None,557.9853262000252,None,557.9853262000252,None,559.5627516400534,None,559.5627516400534,None,559.5627516400534,None,,,,,,,,,,,,,027,2022-05-20_18h12.25.525,Main,2022.1.1,60.005172450323165,
neutral,neutral,1,k,k,,,,,,,,,10,5,185,1,,,,,,,,,main,2,2,1,neutral,neutral,k,k,1,0.5815427000052296,559.5730677000247,560.5790390000329,560.5623730000225,None,559.5730677000247,None,559.5730677000247,None,559.5730677000247,None,561.1457202400313,None,561.1457202400313,None,561.1457202400313,None,,,,,,,,,,,,,027,2022-05-20_18h12.25.525,Main,2022.1.1,60.005172450323165,
neutral,negative,2,k,k,,,,,,,,,10,6,186,16,,,,,,,,,main,2,2,2,negative,neutral,k,k,1,0.6149527000379749,561.1456926999963,562.1457212000387,562.1457212000387,None,561.1456926999963,None,561.1456926999963,None,561.1456926999963,None,562.7623712400207,None,562.7623712400207,None,562.7623712400207,None,,,,,,,,,,,,,027,2022-05-20_18h12.25.525,Main,2022.1.1,60.005172450323165,
neutral,neutral,2,k,k,,,,,,,,,10,7,187,10,,,,,,,,,main,1,1,2,neutral,neutral,k,k,1,0.5153138000168838,562.7674421000411,563.7790205000201,563.7623700000113,None,562.7674421000411,None,562.7674421000411,None,562.7674421000411,None,564.2794158400036,None,564.2794158400036,None,564.2794158400036,None,,,,,,,,,,,,,027,2022-05-20_18h12.25.525,Main,2022.1.1,60.005172450323165,
negative,positive,1,j,l,,,,,,,,,10,8,188,6,,,,,,,,,main,1,1,1,positive,negative,l,l,1,0.7151556999888271,564.2961261000019,565.2983154000249,565.2793481000117,None,564.2961261000019,None,564.2961261000019,None,564.2961261000019,None,565.995959440025,None,565.995959440025,None,565.995959440025,None,,,,,,,,,,,,,027,2022-05-20_18h12.25.525,Main,2022.1.1,60.005172450323165,
positive,positive,2,l,j,,,,,,,,,10,9,189,11,,,,,,,,,main,2,2,2,positive,positive,j,j,1,1.4484704000060447,566.002091500035,567.0126335000386,566.9982790000504,None,566.002091500035,None,566.002091500035,None,566.002091500035,None,568.4461099400185,None,568.4461099400185,None,568.4461099400185,None,,,,,,,,,,,,,027,2022-05-20_18h12.25.525,Main,2022.1.1,60.005172450323165,
positive,neutral,1,l,j,,,,,,,,,10,10,190,8,,,,,,,,,main,1,1,1,neutral,positive,j,j,1,0.731428400031291,568.4521374000469,569.4648342000437,569.4290521000512,None,568.4521374000469,None,568.4521374000469,None,568.4521374000469,None,570.1792088400223,None,570.1792088400223,None,570.1792088400223,None,,,,,,,,,,,,,027,2022-05-20_18h12.25.525,Main,2022.1.1,60.005172450323165,
neutral,positive,1,k,k,,,,,,,,,10,11,191,4,,,,,,,,,main,1,1,1,positive,neutral,k,k,1,0.9317110999836586,570.1830487000407,571.1980574000045,571.1791734000435,None,570.1830487000407,None,570.1830487000407,None,570.1830487000407,None,572.1121660400065,None,572.1121660400065,None,572.1121660400065,None,,,,,,,,,,,,,027,2022-05-20_18h12.25.525,Main,2022.1.1,60.005172450323165,
positive,negative,2,l,j,,,,,,,,,10,12,192,14,,,,,,,,,main,1,1,2,negative,positive,j,j,1,1.5824660999933258,572.1121518000145,573.1121365000145,573.1121365000145,None,572.1121518000145,None,572.1121518000145,None,572.1121518000145,None,574.6954553000396,None,574.6954553000396,None,574.6954553000396,None,,,,,,,,,,,,,027,2022-05-20_18h12.25.525,Main,2022.1.1,60.005172450323165,
positive,negative,1,l,j,,,,,,,,,10,13,193,5,,,,,,,,,main,1,1,1,negative,positive,j,j,1,0.7696658999775536,575.7011185000301,576.7146474000183,576.6813966000336,None,575.7011185000301,None,575.7011185000301,None,575.7011185000301,None,577.462434840051,None,577.462434840051,None,577.462434840051,None,,,,,,,,,,,,,027,2022-05-20_18h12.25.525,Main,2022.1.1,60.005172450323165,
positive,positive,1,l,j,,,,,,,,,10,14,194,2,,,,,,,,,main,2,2,1,positive,positive,j,j,1,0.581478500040248,577.4791025000159,578.4812976000248,578.4646357000456,None,577.4791025000159,None,577.4791025000159,None,577.4791025000159,None,579.0457081400207,None,579.0457081400207,None,579.0457081400207,None,,,,,,,,,,,,,027,2022-05-20_18h12.25.525,Main,2022.1.1,60.005172450323165,
negative,neutral,2,j,l,,,,,,,,,10,15,195,12,,,,,,,,,main,1,1,2,neutral,negative,l,l,1,0.8147603000397794,579.0489777000039,580.0479825999937,580.0479825999937,None,579.0489777000039,None,579.0489777000039,None,579.0489777000039,None,580.8623168400488,None,580.8623168400488,None,580.8623168400488,None,,,,,,,,,,,,,027,2022-05-20_18h12.25.525,Main,2022.1.1,60.005172450323165,
negative,positive,2,j,l,,,,,,,,,10,16,196,15,,,,,,,,,main,2,2,2,positive,negative,l,l,1,0.881187199964188,580.8685557999997,581.8811757000512,581.8623052000185,None,580.8685557999997,None,580.8685557999997,None,580.8685557999997,None,582.7456124400021,None,582.7456124400021,None,582.7456124400021,None,,,,,,,,,,,,,027,2022-05-20_18h12.25.525,Main,2022.1.1,60.005172450323165,
negative,neutral,1,j,l,,,,,,,,,10,17,197,3,,,,,,,,,main,1,1,1,neutral,negative,l,l,1,0.6145592000102624,582.7514592999942,583.7675223000115,583.7510020000045,None,582.7514592999942,None,582.7514592999942,None,582.7514592999942,None,584.361915940023,None,584.361915940023,None,584.361915940023,None,,,,,,,,,,,,,027,2022-05-20_18h12.25.525,Main,2022.1.1,60.005172450323165,
negative,neutral,1,j,l,,,,,,,,,11,0,198,3,,,,,,,,,main,1,1,1,neutral,negative,l,l,1,0.6482296999893151,584.3619111000444,585.3618881000439,585.3618881000439,None,584.3619111000444,None,584.3619111000444,None,584.3619111000444,None,586.0118798400042,None,586.0118798400042,None,586.0118798400042,None,,,,,,,,,,,,,027,2022-05-20_18h12.25.525,Main,2022.1.1,60.005172450323165,
positive,negative,1,l,j,,,,,,,,,11,1,199,5,,,,,,,,,main,1,1,1,negative,positive,j,j,1,0.9652665000176057,586.0118811000139,587.0118817000184,587.0118817000184,None,586.0118811000139,None,586.0118811000139,None,586.0118811000139,None,587.9785353400046,None,587.9785353400046,None,587.9785353400046,None,,,,,,,,,,,,,027,2022-05-20_18h12.25.525,Main,2022.1.1,60.005172450323165,
positive,positive,2,l,j,,,,,,,,,11,2,200,11,,,,,,,,,main,2,2,2,positive,positive,j,j,1,0.6488775999750942,587.9814001000486,588.9810379000264,588.9644659000332,None,587.9814001000486,None,587.9814001000486,None,587.9814001000486,None,589.6288435400463,None,589.6288435400463,None,589.6288435400463,None,,,,,,,,,,,,,027,2022-05-20_18h12.25.525,Main,2022.1.1,60.005172450323165,
positive,negative,2,l,j,,,,,,,,,11,3,201,14,,,,,,,,,main,2,2,2,negative,positive,j,j,1,0.6648673000163399,589.6322204000317,590.647754900041,590.6311519000446,None,589.6322204000317,None,589.6322204000317,None,589.6322204000317,None,591.2954421400325,None,591.2954421400325,None,591.2954421400325,None,,,,,,,,,,,,,027,2022-05-20_18h12.25.525,Main,2022.1.1,60.005172450323165,
negative,neutral,2,j,l,,,,,,,,,11,4,202,12,,,,,,,,,main,1,1,2,neutral,negative,l,l,1,0.898303699970711,591.3008810000028,592.314370600041,592.2954148999997,None,591.3008810000028,None,591.3008810000028,None,591.3008810000028,None,593.195412140002,None,593.195412140002,None,593.195412140002,None,,,,,,,,,,,,,027,2022-05-20_18h12.25.525,Main,2022.1.1,60.005172450323165,
negative,positive,1,j,l,,,,,,,,,11,5,203,6,,,,,,,,,main,2,2,1,positive,negative,l,k,0,0.6818660999997519,593.2014951000456,594.214286500006,594.1810549999936,None,593.2014951000456,None,593.2014951000456,None,593.2014951000456,None,594.878686800017,None,594.878686800017,None,594.878686800017,None,,,,,,,,,,,,,027,2022-05-20_18h12.25.525,Main,2022.1.1,60.005172450323165,
negative,positive,2,j,l,,,,,,,,,11,6,204,15,,,,,,,,,main,2,2,2,positive,negative,l,l,1,0.6868600000161678,595.8890621000319,596.8949644000386,596.8616096000187,None,595.8890621000319,None,595.8890621000319,None,595.8890621000319,None,597.5616473400266,None,597.5616473400266,None,597.5616473400266,None,,,,,,,,,,,,,027,2022-05-20_18h12.25.525,Main,2022.1.1,60.005172450323165,
positive,neutral,1,l,j,,,,,,,,,11,7,205,8,,,,,,,,,main,1,1,1,neutral,positive,j,j,1,0.6809540000394918,597.5619075000286,598.5616493000416,598.5616493000416,None,597.5619075000286,None,597.5619075000286,None,597.5619075000286,None,599.2449770400533,None,599.2449770400533,None,599.2449770400533,None,,,,,,,,,,,,,027,2022-05-20_18h12.25.525,Main,2022.1.1,60.005172450323165,
neutral,positive,2,k,k,,,,,,,,,11,8,206,13,,,,,,,,,main,2,2,2,positive,neutral,k,k,1,0.8654563000309281,599.245441200037,600.244951700035,600.244951700035,None,599.245441200037,None,599.245441200037,None,599.245441200037,None,601.1120208400068,None,601.1120208400068,None,601.1120208400068,None,,,,,,,,,,,,,027,2022-05-20_18h12.25.525,Main,2022.1.1,60.005172450323165,
positive,neutral,2,l,j,,,,,,,,,11,9,207,17,,,,,,,,,main,1,1,2,neutral,positive,j,j,1,1.3808605000376701,601.1180407000356,602.1308216000325,602.114255500026,None,601.1180407000356,None,601.1180407000356,None,601.1180407000356,None,603.4952895400463,None,603.4952895400463,None,603.4952895400463,None,,,,,,,,,,,,,027,2022-05-20_18h12.25.525,Main,2022.1.1,60.005172450323165,
negative,negative,1,j,l,,,,,,,,,11,10,208,0,,,,,,,,,main,2,2,1,negative,negative,l,l,1,0.8340376000269316,603.4985483000055,604.5118463000399,604.4974712000112,None,603.4985483000055,None,603.4985483000055,None,603.4985483000055,None,605.3308195400284,None,605.3308195400284,None,605.3308195400284,None,,,,,,,,,,,,,027,2022-05-20_18h12.25.525,Main,2022.1.1,60.005172450323165,
positive,positive,1,l,j,,,,,,,,,11,11,209,2,,,,,,,,,main,1,1,1,positive,positive,j,j,1,0.9955582999973558,605.3337323000305,606.331745500036,606.3192892000079,None,605.3337323000305,None,605.3337323000305,None,605.3337323000305,None,607.3281128400238,None,607.3281128400238,None,607.3281128400238,None,,,,,,,,,,,,,027,2022-05-20_18h12.25.525,Main,2022.1.1,60.005172450323165,
neutral,negative,2,k,k,,,,,,,,,11,12,210,16,,,,,,,,,main,2,2,2,negative,neutral,k,k,1,2.014598499983549,607.3286171000218,608.328083600034,608.328083600034,None,607.3286171000218,None,607.3286171000218,None,607.3286171000218,None,610.345222300035,None,610.345222300035,None,610.345222300035,None,,,,,,,,,,,,,027,2022-05-20_18h12.25.525,Main,2022.1.1,60.005172450323165,
neutral,neutral,2,k,k,,,,,,,,,11,13,211,10,,,,,,,,,main,2,2,2,neutral,neutral,k,k,1,0.852144899952691,611.34681430005,612.3639484000159,612.3283556000097,None,611.34681430005,None,611.34681430005,None,611.34681430005,None,613.1950884400401,None,613.1950884400401,None,613.1950884400401,None,,,,,,,,,,,,,027,2022-05-20_18h12.25.525,Main,2022.1.1,60.005172450323165,
neutral,negative,1,k,k,,,,,,,,,11,14,212,7,,,,,,,,,main,2,2,1,negative,neutral,k,k,1,0.6304287000093609,613.1990956999944,614.2116152000381,614.194973500038,None,613.1990956999944,None,613.1990956999944,None,613.1990956999944,None,614.8282846400514,None,614.8282846400514,None,614.8282846400514,None,,,,,,,,,,,,,027,2022-05-20_18h12.25.525,Main,2022.1.1,60.005172450323165,
negative,negative,2,j,l,,,,,,,,,11,15,213,9,,,,,,,,,main,2,2,2,negative,negative,l,l,1,0.8151593999937177,614.8449613000266,615.8471407000325,615.8282663000282,None,614.8449613000266,None,614.8449613000266,None,614.8449613000266,None,616.6449248400284,None,616.6449248400284,None,616.6449248400284,None,,,,,,,,,,,,,027,2022-05-20_18h12.25.525,Main,2022.1.1,60.005172450323165,
neutral,neutral,1,k,k,,,,,,,,,11,16,214,1,,,,,,,,,main,2,2,1,neutral,neutral,k,k,1,0.7478413000353612,616.6486618000199,617.661230000027,617.6445602000458,None,616.6486618000199,None,616.6486618000199,None,616.6486618000199,None,618.3945603400468,None,618.3945603400468,None,618.3945603400468,None,,,,,,,,,,,,,027,2022-05-20_18h12.25.525,Main,2022.1.1,60.005172450323165,
neutral,positive,1,k,k,,,,,,,,,11,17,215,4,,,,,,,,,main,1,1,1,positive,neutral,k,k,1,0.6818394000292756,618.3945482000127,619.3945539999986,619.3945539999986,None,618.3945482000127,None,618.3945482000127,None,618.3945482000127,None,620.0778580400045,None,620.0778580400045,None,620.0778580400045,None,,,,,,,,,,,,,027,2022-05-20_18h12.25.525,Main,2022.1.1,60.005172450323165,
positive,positive,1,l,j,,,,,,,,,12,0,216,2,,,,,,,,,main,2,2,1,positive,positive,j,j,1,1.3650359000312164,620.0783080999972,621.0778851000359,621.0778851000359,None,620.0783080999972,None,620.0783080999972,None,620.0783080999972,None,622.444652840041,None,622.444652840041,None,622.444652840041,None,,,,,,,,,,,,,027,2022-05-20_18h12.25.525,Main,2022.1.1,60.005172450323165,
negative,positive,1,j,l,,,,,,,,,12,1,217,6,,,,,,,,,main,1,1,1,positive,negative,l,l,1,0.9154765999992378,622.4510967000388,623.4637898000074,623.430485400022,None,622.4510967000388,None,622.4510967000388,None,622.4510967000388,None,624.3614672400406,None,624.3614672400406,None,624.3614672400406,None,,,,,,,,,,,,,027,2022-05-20_18h12.25.525,Main,2022.1.1,60.005172450323165,
positive,positive,2,l,j,,,,,,,,,12,2,218,11,,,,,,,,,main,2,2,2,positive,positive,j,k,0,1.28139389998978,624.3674475000007,625.3780686000246,625.3637284000288,None,624.3674475000007,None,624.3674475000007,None,624.3674475000007,None,626.6447876000311,None,626.6447876000311,None,626.6447876000311,None,,,,,,,,,,,,,027,2022-05-20_18h12.25.525,Main,2022.1.1,60.005172450323165,
positive,negative,1,l,j,,,,,,,,,12,3,219,5,,,,,,,,,main,2,2,1,negative,positive,j,j,1,0.8174125000368804,627.6463458000217,628.6446900000446,628.6303594000055,None,627.6463458000217,None,627.6463458000217,None,627.6463458000217,None,629.4609908399987,None,629.4609908399987,None,629.4609908399987,None,,,,,,,,,,,,,027,2022-05-20_18h12.25.525,Main,2022.1.1,60.005172450323165,
neutral,neutral,1,k,k,,,,,,,,,12,4,220,1,,,,,,,,,main,2,2,1,neutral,neutral,k,k,1,0.7983773000305519,629.4609788000234,630.4609673999948,630.4609673999948,None,629.4609788000234,None,629.4609788000234,None,629.4609788000234,None,631.2609558400115,None,631.2609558400115,None,631.2609558400115,None,,,,,,,,,,,,,027,2022-05-20_18h12.25.525,Main,2022.1.1,60.005172450323165,
positive,neutral,1,l,j,,,,,,,,,12,5,221,8,,,,,,,,,main,2,2,1,neutral,positive,j,j,1,0.714815900020767,631.2627329000388,632.2776164000388,632.260942700028,None,631.2627329000388,None,631.2627329000388,None,631.2627329000388,None,632.977631240047,None,632.977631240047,None,632.977631240047,None,,,,,,,,,,,,,027,2022-05-20_18h12.25.525,Main,2022.1.1,60.005172450323165,
neutral,negative,2,k,k,,,,,,,,,12,6,222,16,,,,,,,,,main,1,1,2,negative,neutral,k,k,1,0.765277199971024,632.9831120000454,633.9968377000187,633.9635639000335,None,632.9831120000454,None,632.9831120000454,None,632.9831120000454,None,634.7445757400244,None,634.7445757400244,None,634.7445757400244,None,,,,,,,,,,,,,027,2022-05-20_18h12.25.525,Main,2022.1.1,60.005172450323165,
neutral,neutral,2,k,k,,,,,,,,,12,7,223,10,,,,,,,,,main,1,1,2,neutral,neutral,k,k,1,0.714996800001245,634.7501840000041,635.7634521000437,635.7468122999999,None,634.7501840000041,None,634.7501840000041,None,634.7501840000041,None,636.4611986400093,None,636.4611986400093,None,636.4611986400093,None,,,,,,,,,,,,,027,2022-05-20_18h12.25.525,Main,2022.1.1,60.005172450323165,
neutral,positive,2,k,k,,,,,,,,,12,8,224,13,,,,,,,,,main,2,2,2,positive,neutral,k,k,1,0.698524399951566,636.4645654000342,637.4800791000016,637.4635054999962,None,636.4645654000342,None,636.4645654000342,None,636.4645654000342,None,638.161172140052,None,638.161172140052,None,638.161172140052,None,,,,,,,,,,,,,027,2022-05-20_18h12.25.525,Main,2022.1.1,60.005172450323165,
