target,distractor,set,ans1,ans2,rep_loop2.thisRepN,rep_loop2.thisTrialN,rep_loop2.thisN,rep_loop2.thisIndex,flanker_prac_loop.thisRepN,flanker_prac_loop.thisTrialN,flanker_prac_loop.thisN,flanker_prac_loop.thisIndex,flanker_main_loop.thisRepN,flanker_main_loop.thisTrialN,flanker_main_loop.thisN,flanker_main_loop.thisIndex,fl_inst_resp.keys,fl_inst_resp.rt,sound_1.started,sound_1.stopped,image_4.started,image_4.stopped,back_2.started,back_2.stopped,main_prac,fl_cold,fl_colt,fl_set,fl_dcond,fl_tcond,fl_ans,fl_res,fl_corr,fl_rt,fix_fl.started,fix_fl.stopped,targ.started,targ.stopped,j_button.started,j_button.stopped,k_button.started,k_button.stopped,l_button.started,l_button.stopped,j_button2.started,j_button2.stopped,k_button2.started,k_button2.stopped,l_button2.started,l_button2.stopped,mainback.started,mainback.stopped,key_resp.keys,key_resp.rt,mouse_6.x,mouse_6.y,mouse_6.leftButton,mouse_6.midButton,mouse_6.rightButton,mouse_6.started,mouse_6.stopped,text_2.started,text_2.stopped,id*,date,expName,psychopyVersion,frameRate,
,,,,,0,0,0,0,,,,,,,,,space,54.79904309997801,27.905173849966378,None,82.7349111000076,None,,,,,,,,,,,,,,,,,,,,,,,,,,,,,,,,,,,,,,,,,,028,2022-05-23_10h52.44.503,Main,2022.1.1,59.11489632172298,
positive,positive,1,l,j,,,,,0,0,0,2,,,,,,,,,,,86.77073749992996,None,prac,2,2,1,positive,positive,l,k,0,1.7773509999969974,88.79490799992345,89.8016683999449,89.78731889999472,None,88.79490799992345,None,88.79490799992345,None,88.79490799992345,None,91.5721487000119,None,91.5721487000119,None,91.5721487000119,None,,,,,,,,,,,,,,028,2022-05-23_10h52.44.503,Main,2022.1.1,59.11489632172298,
neutral,positive,2,k,k,,,,,0,1,1,13,,,,,,,,,,,,,prac,2,2,2,positive,neutral,k,k,1,0.7527797999791801,92.58466759999283,93.58487979997881,93.58487979997881,None,92.58466759999283,None,92.58466759999283,None,92.58466759999283,None,94.33460685000755,None,94.33460685000755,None,94.33460685000755,None,,,,,,,,,,,,,,028,2022-05-23_10h52.44.503,Main,2022.1.1,59.11489632172298,
neutral,negative,2,k,k,,,,,0,2,2,16,,,,,,,,,,,,,prac,1,1,2,negative,neutral,k,k,1,0.6653980000410229,94.33850489999168,95.35374940000474,95.33723509998526,None,94.33850489999168,None,94.33850489999168,None,94.33850489999168,None,96.00158044993877,None,96.00158044993877,None,96.00158044993877,None,,,,,,,,,,,,,,028,2022-05-23_10h52.44.503,Main,2022.1.1,59.11489632172298,
negative,neutral,1,j,l,,,,,0,3,3,3,,,,,,,,,,,,,prac,2,2,1,neutral,negative,j,j,1,0.8538349000737071,96.00549319991842,97.02049139991868,97.0038540000096,None,96.00549319991842,None,96.00549319991842,None,96.00549319991842,None,97.85386844999157,None,97.85386844999157,None,97.85386844999157,None,,,,,,,,,,,,,,028,2022-05-23_10h52.44.503,Main,2022.1.1,59.11489632172298,
negative,negative,1,j,l,,,,,0,4,4,0,,,,,,,,,,,,,prac,2,2,1,negative,negative,j,j,1,0.5791020001051947,97.86461099993903,98.870351199992,98.85383759997785,None,97.86461099993903,None,97.86461099993903,None,97.86461099993903,None,99.43714775000699,None,99.43714775000699,None,99.43714775000699,None,,,,,,,,,,,,,,028,2022-05-23_10h52.44.503,Main,2022.1.1,59.11489632172298,
neutral,negative,1,k,k,,,,,0,5,5,7,,,,,,,,,,,,,prac,2,2,1,negative,neutral,k,k,1,0.696406599949114,99.44004049990326,100.45145729999058,100.43710300000384,None,99.44004049990326,None,99.44004049990326,None,99.44004049990326,None,101.13476594998501,None,101.13476594998501,None,101.13476594998501,None,,,,,,,,,,,,,,028,2022-05-23_10h52.44.503,Main,2022.1.1,59.11489632172298,
positive,neutral,1,l,j,,,,,0,6,6,8,,,,,,,,,,,,,prac,2,2,1,neutral,positive,l,l,1,0.6814740999834612,101.13815689994954,102.15109519998077,102.13440599991009,None,101.13815689994954,None,101.13815689994954,None,101.13815689994954,None,102.81773834996856,None,102.81773834996856,None,102.81773834996856,None,,,,,,,,,,,,,,028,2022-05-23_10h52.44.503,Main,2022.1.1,59.11489632172298,
negative,positive,1,j,l,,,,,0,7,7,6,,,,,,,,,,,,,prac,2,2,1,positive,negative,j,j,1,0.7003565001068637,102.8177449000068,103.81803269998636,103.81803269998636,None,102.8177449000068,None,102.8177449000068,None,102.8177449000068,None,104.51808555000461,None,104.51808555000461,None,104.51808555000461,None,,,,,,,,,,,,,,028,2022-05-23_10h52.44.503,Main,2022.1.1,59.11489632172298,
neutral,positive,1,k,k,,,,,0,8,8,4,,,,,,,,,,,,,prac,2,2,1,positive,neutral,k,k,1,0.7641507000662386,104.5222100999672,105.53509709995706,105.51831429998856,None,104.5222100999672,None,104.5222100999672,None,104.5222100999672,None,106.28468704998959,None,106.28468704998959,None,106.28468704998959,None,,,,,,,,,,,,,,028,2022-05-23_10h52.44.503,Main,2022.1.1,59.11489632172298,
positive,positive,2,l,j,,,,,0,9,9,11,,,,,,,,,,,,,prac,1,1,2,positive,positive,l,l,1,0.7988818000303581,106.28836439992301,107.30354059999809,107.28697959997226,None,106.28836439992301,None,106.28836439992301,None,106.28836439992301,None,108.0850242499262,None,108.0850242499262,None,108.0850242499262,None,,,,,,,,,,,,,,028,2022-05-23_10h52.44.503,Main,2022.1.1,59.11489632172298,
negative,positive,2,j,l,,,,,0,10,10,15,,,,,,,,,,,,,prac,1,1,2,positive,negative,j,j,1,0.7648876999737695,108.09103679994587,109.10349259991199,109.08695669996087,None,108.09103679994587,None,108.09103679994587,None,108.09103679994587,None,109.85128844990395,None,109.85128844990395,None,109.85128844990395,None,,,,,,,,,,,,,,028,2022-05-23_10h52.44.503,Main,2022.1.1,59.11489632172298,
positive,negative,2,l,j,,,,,0,11,11,14,,,,,,,,,,,,,prac,2,2,2,negative,positive,l,l,1,0.9822591000702232,109.85467979998793,110.87024969991762,110.85355859994888,None,109.85467979998793,None,109.85467979998793,None,109.85467979998793,None,111.83466755000408,None,111.83466755000408,None,111.83466755000408,None,,,,,,,,,,,,,,028,2022-05-23_10h52.44.503,Main,2022.1.1,59.11489632172298,
neutral,neutral,1,k,k,,,,,0,12,12,1,,,,,,,,,,,,,prac,2,2,1,neutral,neutral,k,k,1,0.8490274000214413,111.84484319994226,112.85088419995736,112.83421529992484,None,111.84484319994226,None,111.84484319994226,None,111.84484319994226,None,113.68419584999792,None,113.68419584999792,None,113.68419584999792,None,,,,,,,,,,,,,,028,2022-05-23_10h52.44.503,Main,2022.1.1,59.11489632172298,
neutral,neutral,2,k,k,,,,,0,13,13,10,,,,,,,,,,,,,prac,2,2,2,neutral,neutral,k,k,1,0.6149755000369623,113.68477920000441,114.68454659997951,114.68454659997951,None,113.68477920000441,None,113.68477920000441,None,113.68477920000441,None,115.30117115001194,None,115.30117115001194,None,115.30117115001194,None,,,,,,,,,,,,,,028,2022-05-23_10h52.44.503,Main,2022.1.1,59.11489632172298,
positive,neutral,2,l,j,,,,,0,14,14,17,,,,,,,,,,,,,prac,2,2,2,neutral,positive,l,l,1,0.6161371000343934,115.30431489995681,116.30331689992454,116.28684249997605,None,115.30431489995681,None,115.30431489995681,None,115.30431489995681,None,116.9186073499266,None,116.9186073499266,None,116.9186073499266,None,,,,,,,,,,,,,,028,2022-05-23_10h52.44.503,Main,2022.1.1,59.11489632172298,
positive,negative,1,l,j,,,,,0,15,15,5,,,,,,,,,,,,,prac,1,1,1,negative,positive,l,l,1,1.3479172999504954,116.92430610000156,117.93443369993474,117.92002610000782,None,116.92430610000156,None,116.92430610000156,None,116.92430610000156,None,119.2677409499418,None,119.2677409499418,None,119.2677409499418,None,,,,,,,,,,,,,,028,2022-05-23_10h52.44.503,Main,2022.1.1,59.11489632172298,
negative,neutral,2,j,l,,,,,0,16,16,12,,,,,,,,,,,,,prac,1,1,2,neutral,negative,j,j,1,0.6984084999421611,119.27109389996622,120.28663170000073,120.26774589996785,None,119.27109389996622,None,119.27109389996622,None,119.27109389996622,None,120.96770965000614,None,120.96770965000614,None,120.96770965000614,None,,,,,,,,,,,,,,028,2022-05-23_10h52.44.503,Main,2022.1.1,59.11489632172298,
negative,negative,2,j,l,,,,,0,17,17,9,,,,,,,,,,,,,prac,1,1,2,negative,negative,j,j,1,0.8686719000106677,120.970728199929,121.9840137999272,121.96734959993046,None,120.970728199929,None,120.970728199929,None,120.970728199929,None,122.83400054993108,None,122.83400054993108,None,122.83400054993108,None,,,,,,,,,,,,,,028,2022-05-23_10h52.44.503,Main,2022.1.1,59.11489632172298,
neutral,positive,2,k,k,,,,,1,0,18,13,,,,,,,,,,,,,prac,1,1,2,positive,neutral,k,k,1,0.7771819999907166,122.8389501000056,123.85094059992116,123.83420419995673,None,122.8389501000056,None,122.8389501000056,None,122.8389501000056,None,124.61732654990628,None,124.61732654990628,None,124.61732654990628,None,,,,,,,,,,,,,,028,2022-05-23_10h52.44.503,Main,2022.1.1,59.11489632172298,
negative,neutral,2,j,l,,,,,1,1,19,12,,,,,,,,,,,,,prac,2,2,2,neutral,negative,j,j,1,0.7982136000646278,124.6179884999292,125.61757909995504,125.61757909995504,None,124.6179884999292,None,124.6179884999292,None,124.6179884999292,None,126.41734654998872,None,126.41734654998872,None,126.41734654998872,None,,,,,,,,,,,,,,028,2022-05-23_10h52.44.503,Main,2022.1.1,59.11489632172298,
positive,negative,2,l,j,,,,,1,2,20,14,,,,,,,,,,,,,prac,2,2,2,negative,positive,l,l,1,0.6991640999913216,126.42329209996387,127.4366254999768,127.40324089990463,None,126.42329209996387,None,126.42329209996387,None,126.42329209996387,None,128.11773414998316,None,128.11773414998316,None,128.11773414998316,None,,,,,,,,,,,,,,028,2022-05-23_10h52.44.503,Main,2022.1.1,59.11489632172298,
positive,positive,1,l,j,,,,,1,3,21,2,,,,,,,,,,,,,prac,2,2,1,positive,positive,l,l,1,0.6486331999767572,128.12096609990112,129.13657009997405,129.11994489992503,None,128.12096609990112,None,128.12096609990112,None,128.12096609990112,None,129.76765114995652,None,129.76765114995652,None,129.76765114995652,None,,,,,,,,,,,,,,028,2022-05-23_10h52.44.503,Main,2022.1.1,59.11489632172298,
neutral,positive,1,k,k,,,,,1,4,22,4,,,,,,,,,,,,,prac,2,2,1,positive,neutral,k,k,1,0.6809733000118285,129.77172079996672,130.786471099942,130.76983819995075,None,129.77172079996672,None,129.77172079996672,None,129.77172079996672,None,131.45086494991557,None,131.45086494991557,None,131.45086494991557,None,,,,,,,,,,,,,,028,2022-05-23_10h52.44.503,Main,2022.1.1,59.11489632172298,
neutral,neutral,1,k,k,,,,,1,5,23,1,,,,,,,,,,,,,prac,1,1,1,neutral,neutral,k,k,1,0.5331686000572518,131.45395869994536,132.46753689995967,132.43418529990595,None,131.45395869994536,None,131.45395869994536,None,131.45395869994536,None,132.98414545000998,None,132.98414545000998,None,132.98414545000998,None,,,,,,,,,,,,,,028,2022-05-23_10h52.44.503,Main,2022.1.1,59.11489632172298,
neutral,neutral,2,k,k,,,,,1,6,24,10,,,,,,,,,,,,,prac,1,1,2,neutral,neutral,k,k,1,0.5642239000881091,132.9949878999032,134.00046349992044,133.983796000015,None,132.9949878999032,None,132.9949878999032,None,132.9949878999032,None,134.5504569499288,None,134.5504569499288,None,134.5504569499288,None,,,,,,,,,,,,,,028,2022-05-23_10h52.44.503,Main,2022.1.1,59.11489632172298,
positive,neutral,2,l,j,,,,,1,7,25,17,,,,,,,,,,,,,prac,1,1,2,neutral,positive,l,l,1,0.6323051999788731,134.55112959991675,135.55048719991464,135.55048719991464,None,134.55112959991675,None,134.55112959991675,None,134.55112959991675,None,136.18417714997196,None,136.18417714997196,None,136.18417714997196,None,,,,,,,,,,,,,,028,2022-05-23_10h52.44.503,Main,2022.1.1,59.11489632172298,
negative,negative,2,j,l,,,,,1,8,26,9,,,,,,,,,,,,,prac,2,2,2,negative,negative,j,j,1,0.7363078999333084,136.1902178999735,137.20102739997674,137.18642089993227,None,136.1902178999735,None,136.1902178999735,None,136.1902178999735,None,137.92145264993889,None,137.92145264993889,None,137.92145264993889,None,,,,,,,,,,,,,,028,2022-05-23_10h52.44.503,Main,2022.1.1,59.11489632172298,
negative,neutral,1,j,l,,,,,1,9,27,3,,,,,,,,,,,,,prac,1,1,1,neutral,negative,j,j,1,0.5926648000022396,137.9265948999673,138.93429319991264,138.91775249992497,None,137.9265948999673,None,137.9265948999673,None,137.9265948999673,None,139.51740394993686,None,139.51740394993686,None,139.51740394993686,None,,,,,,,,,,,,,,028,2022-05-23_10h52.44.503,Main,2022.1.1,59.11489632172298,
negative,positive,1,j,l,,,,,1,10,28,6,,,,,,,,,,,,,prac,1,1,1,positive,negative,j,j,1,0.5649163000052795,139.52098519995343,140.53632889990695,140.51735839992762,None,139.52098519995343,None,139.52098519995343,None,139.52098519995343,None,141.08401594993194,None,141.08401594993194,None,141.08401594993194,None,,,,,,,,,,,,,,028,2022-05-23_10h52.44.503,Main,2022.1.1,59.11489632172298,
neutral,negative,2,k,k,,,,,1,11,29,16,,,,,,,,,,,,,prac,2,2,2,negative,neutral,k,k,1,0.6417345999507234,141.08789049996994,142.10071999998763,142.08405479998328,None,141.08789049996994,None,141.08789049996994,None,141.08789049996994,None,142.7270001499681,None,142.7270001499681,None,142.7270001499681,None,,,,,,,,,,,,,,028,2022-05-23_10h52.44.503,Main,2022.1.1,59.11489632172298,
positive,negative,1,l,j,,,,,1,12,30,5,,,,,,,,,,,,,prac,2,2,1,negative,positive,l,l,1,0.5225166999734938,142.74232469999697,143.7505053000059,143.716939899954,None,142.74232469999697,None,142.74232469999697,None,142.74232469999697,None,144.25047604991124,None,144.25047604991124,None,144.25047604991124,None,,,,,,,,,,,,,,028,2022-05-23_10h52.44.503,Main,2022.1.1,59.11489632172298,
positive,neutral,1,l,j,,,,,1,13,31,8,,,,,,,,,,,,,prac,2,2,1,neutral,positive,l,l,1,0.5353093000594527,144.25023729994427,145.25026689993683,145.25026689993683,None,144.25023729994427,None,144.25023729994427,None,144.25023729994427,None,145.78358724999708,None,145.78358724999708,None,145.78358724999708,None,,,,,,,,,,,,,,028,2022-05-23_10h52.44.503,Main,2022.1.1,59.11489632172298,
negative,negative,1,j,l,,,,,1,14,32,0,,,,,,,,,,,,,prac,1,1,1,negative,negative,j,j,1,0.6446623000083491,145.79213680000976,146.80027389992028,146.78383269999176,None,145.79213680000976,None,145.79213680000976,None,145.79213680000976,None,147.43390234997497,None,147.43390234997497,None,147.43390234997497,None,,,,,,,,,,,,,,028,2022-05-23_10h52.44.503,Main,2022.1.1,59.11489632172298,
positive,positive,2,l,j,,,,,1,15,33,11,,,,,,,,,,,,,prac,2,2,2,positive,positive,l,l,1,0.6676755000371486,147.43720949999988,148.43615919991862,148.43615919991862,None,147.43720949999988,None,147.43720949999988,None,147.43720949999988,None,149.10280824995135,None,149.10280824995135,None,149.10280824995135,None,,,,,,,,,,,,,,028,2022-05-23_10h52.44.503,Main,2022.1.1,59.11489632172298,
neutral,negative,1,k,k,,,,,1,16,34,7,,,,,,,,,,,,,prac,2,2,1,negative,neutral,k,k,1,0.6295345000689849,149.1060552999843,150.11943209997844,150.1028607999906,None,149.1060552999843,None,149.1060552999843,None,149.1060552999843,None,150.73380034994335,None,150.73380034994335,None,150.73380034994335,None,,,,,,,,,,,,,,028,2022-05-23_10h52.44.503,Main,2022.1.1,59.11489632172298,
negative,positive,2,j,l,,,,,1,17,35,15,,,,,,,,,,,,,prac,2,2,2,positive,negative,j,j,1,0.7318906999425963,150.7382172999205,151.75270349998027,151.73608009994496,None,150.7382172999205,None,150.7382172999205,None,150.7382172999205,None,152.46710524994415,None,152.46710524994415,None,152.46710524994415,None,,,,,,,,,,,,,,028,2022-05-23_10h52.44.503,Main,2022.1.1,59.11489632172298,
,,,,,,,,,,,,,,,,,,,,,,,,,,,,,,,,,,,,,,,,,,,,,,,,,,,152.46712980000302,None,space,10.658855499932542,,,,,,,,,,028,2022-05-23_10h52.44.503,Main,2022.1.1,59.11489632172298,
,,,,,,,,,,,,,,,,,,,,,,,,,,,,,,,,,,,,,,,,,,,,,,,,,,,,,,,0.6018519,-0.39537036,0,0,0,0.011151749989949167,None,,,028,2022-05-23_10h52.44.503,Main,2022.1.1,59.11489632172298,
positive,neutral,2,l,j,,,,,,,,,0,0,0,17,,,,,,,163.15250889991876,None,main,1,1,2,neutral,positive,l,l,1,1.2731543999398127,165.16154879995156,166.16909719991963,166.15239890001249,None,165.16154879995156,None,165.16154879995156,None,165.16154879995156,None,167.4331286499044,None,167.4331286499044,None,167.4331286499044,None,,,,,,,,,,,,,,028,2022-05-23_10h52.44.503,Main,2022.1.1,59.11489632172298,
neutral,negative,2,k,k,,,,,,,,,0,1,1,16,,,,,,,,,main,1,1,2,negative,neutral,k,k,1,0.5972576000494882,167.43380959995557,168.43309919990133,168.43309919990133,None,167.43380959995557,None,167.43380959995557,None,167.43380959995557,None,169.0331279499922,None,169.0331279499922,None,169.0331279499922,None,,,,,,,,,,,,,,028,2022-05-23_10h52.44.503,Main,2022.1.1,59.11489632172298,
negative,positive,1,j,l,,,,,,,,,0,2,2,6,,,,,,,,,main,2,2,1,positive,negative,j,j,1,0.6484796999720857,169.0498435999034,170.04977769998368,170.03310859994963,None,169.0498435999034,None,169.0498435999034,None,169.0498435999034,None,170.68312004995533,None,170.68312004995533,None,170.68312004995533,None,,,,,,,,,,,,,,028,2022-05-23_10h52.44.503,Main,2022.1.1,59.11489632172298,
negative,neutral,2,j,l,,,,,,,,,0,3,3,12,,,,,,,,,main,2,2,2,neutral,negative,j,j,1,0.6485916000092402,170.6869778999826,171.70231819991022,171.68585769995116,None,170.6869778999826,None,170.6869778999826,None,170.6869778999826,None,172.33339494997637,None,172.33339494997637,None,172.33339494997637,None,,,,,,,,,,,,,,028,2022-05-23_10h52.44.503,Main,2022.1.1,59.11489632172298,
negative,neutral,1,j,l,,,,,,,,,0,4,4,3,,,,,,,,,main,2,2,1,neutral,negative,j,j,1,0.5818375000962988,172.33655549993273,173.33560049999505,173.33560049999505,None,172.33655549993273,None,172.33655549993273,None,172.33655549993273,None,173.91669265001548,None,173.91669265001548,None,173.91669265001548,None,,,,,,,,,,,,,,028,2022-05-23_10h52.44.503,Main,2022.1.1,59.11489632172298,
neutral,positive,2,k,k,,,,,,,,,0,5,5,13,,,,,,,,,main,1,1,2,positive,neutral,k,k,1,0.5646226999815553,173.91990779992193,174.9166649999097,174.9166649999097,None,173.91990779992193,None,173.91990779992193,None,173.91990779992193,None,175.48301684991458,None,175.48301684991458,None,175.48301684991458,None,,,,,,,,,,,,,,028,2022-05-23_10h52.44.503,Main,2022.1.1,59.11489632172298,
positive,positive,1,l,j,,,,,,,,,0,6,6,2,,,,,,,,,main,1,1,1,positive,positive,l,l,1,0.6484778999583796,175.48643279995304,176.48330429999623,176.48330429999623,None,175.48643279995304,None,175.48643279995304,None,175.48643279995304,None,177.13326864999254,None,177.13326864999254,None,177.13326864999254,None,,,,,,,,,,,,,,028,2022-05-23_10h52.44.503,Main,2022.1.1,59.11489632172298,
positive,positive,2,l,j,,,,,,,,,0,7,7,11,,,,,,,,,main,2,2,2,positive,positive,l,l,1,0.5816943000536412,177.13898219994735,178.14993209997192,178.13554739998654,None,177.13898219994735,None,177.13898219994735,None,177.13898219994735,None,178.71623314993923,None,178.71623314993923,None,178.71623314993923,None,,,,,,,,,,,,,,028,2022-05-23_10h52.44.503,Main,2022.1.1,59.11489632172298,
negative,negative,1,j,l,,,,,,,,,0,8,8,0,,,,,,,,,main,2,2,1,negative,negative,j,j,1,0.6982284999685362,178.7162382999668,179.71621879993472,179.71621879993472,None,178.7162382999668,None,178.7162382999668,None,178.7162382999668,None,180.41625834996813,None,180.41625834996813,None,180.41625834996813,None,,,,,,,,,,,,,,028,2022-05-23_10h52.44.503,Main,2022.1.1,59.11489632172298,
neutral,negative,1,k,k,,,,,,,,,0,9,9,7,,,,,,,,,main,2,2,1,negative,neutral,k,k,1,0.5988706999924034,180.41936940001324,181.41654689994175,181.40217729995493,None,180.41936940001324,None,180.41936940001324,None,180.41936940001324,None,182.01652974991595,None,182.01652974991595,None,182.01652974991595,None,,,,,,,,,,,,,,028,2022-05-23_10h52.44.503,Main,2022.1.1,59.11489632172298,
positive,neutral,1,l,j,,,,,,,,,0,10,10,8,,,,,,,,,main,2,2,1,neutral,positive,l,l,1,0.6317016000393778,182.02001340000425,183.0354291999247,183.01882549992297,None,182.02001340000425,None,182.02001340000425,None,182.02001340000425,None,183.6498262499925,None,183.6498262499925,None,183.6498262499925,None,,,,,,,,,,,,,,028,2022-05-23_10h52.44.503,Main,2022.1.1,59.11489632172298,
neutral,neutral,2,k,k,,,,,,,,,0,11,11,10,,,,,,,,,main,1,1,2,neutral,neutral,k,k,1,0.6982034000102431,183.65322929993272,184.66873319994193,184.64980749995448,None,183.65322929993272,None,183.65322929993272,None,183.65322929993272,None,185.34980164999143,None,185.34980164999143,None,185.34980164999143,None,,,,,,,,,,,,,,028,2022-05-23_10h52.44.503,Main,2022.1.1,59.11489632172298,
negative,positive,2,j,l,,,,,,,,,0,12,12,15,,,,,,,,,main,2,2,2,positive,negative,j,j,1,0.5983709000283852,185.3533516000025,186.36869289993774,186.34976609994192,None,185.3533516000025,None,185.3533516000025,None,185.3533516000025,None,186.94976874995047,None,186.94976874995047,None,186.94976874995047,None,,,,,,,,,,,,,,028,2022-05-23_10h52.44.503,Main,2022.1.1,59.11489632172298,
positive,negative,1,l,j,,,,,,,,,0,13,13,5,,,,,,,,,main,1,1,1,negative,positive,l,l,1,0.698185299988836,186.95314659993164,187.96640499995556,187.94974379998166,None,186.95314659993164,None,186.95314659993164,None,186.95314659993164,None,188.6493685499998,None,188.6493685499998,None,188.6493685499998,None,,,,,,,,,,,,,,028,2022-05-23_10h52.44.503,Main,2022.1.1,59.11489632172298,
neutral,positive,1,k,k,,,,,,,,,0,14,14,4,,,,,,,,,main,2,2,1,positive,neutral,k,k,1,0.6481952000176534,188.64971859997604,189.64936029992532,189.64936029992532,None,188.64971859997604,None,188.64971859997604,None,188.64971859997604,None,190.29935694993475,None,190.29935694993475,None,190.29935694993475,None,,,,,,,,,,,,,,028,2022-05-23_10h52.44.503,Main,2022.1.1,59.11489632172298,
neutral,neutral,1,k,k,,,,,,,,,0,15,15,1,,,,,,,,,main,2,2,1,neutral,neutral,k,k,1,0.5150982000632212,190.29949159990065,191.29934779996984,191.29934779996984,None,190.29949159990065,None,190.29949159990065,None,190.29949159990065,None,191.81602924999316,None,191.81602924999316,None,191.81602924999316,None,,,,,,,,,,,,,,028,2022-05-23_10h52.44.503,Main,2022.1.1,59.11489632172298,
positive,negative,2,l,j,,,,,,,,,0,16,16,14,,,,,,,,,main,2,2,2,negative,positive,l,l,1,0.6151668999809772,191.81921589991543,192.81864839990158,192.81864839990158,None,191.81921589991543,None,191.81921589991543,None,191.81921589991543,None,193.43299144990743,None,193.43299144990743,None,193.43299144990743,None,,,,,,,,,,,,,,028,2022-05-23_10h52.44.503,Main,2022.1.1,59.11489632172298,
negative,negative,2,j,l,,,,,,,,,0,17,17,9,,,,,,,,,main,2,2,2,negative,negative,j,j,1,0.6651770999887958,193.43691229994874,194.44943959999364,194.41865339991637,None,193.43691229994874,None,193.43691229994874,None,193.43691229994874,None,195.09961244994776,None,195.09961244994776,None,195.09961244994776,None,,,,,,,,,,,,,,028,2022-05-23_10h52.44.503,Main,2022.1.1,59.11489632172298,
positive,negative,1,l,j,,,,,,,,,1,0,18,5,,,,,,,,,main,1,1,1,negative,positive,l,l,1,0.7508114000083879,195.10285749996547,196.10191749990918,196.10191749990918,None,195.10285749996547,None,195.10285749996547,None,195.10285749996547,None,196.85186924990268,None,196.85186924990268,None,196.85186924990268,None,,,,,,,,,,,,,,028,2022-05-23_10h52.44.503,Main,2022.1.1,59.11489632172298,
positive,positive,2,l,j,,,,,,,,,1,1,19,11,,,,,,,,,main,2,2,2,positive,positive,l,l,1,0.6282266000052914,196.86358579993248,197.8684689999791,197.8518646999728,None,196.86358579993248,None,196.86358579993248,None,196.86358579993248,None,198.48299434997608,None,198.48299434997608,None,198.48299434997608,None,,,,,,,,,,,,,,028,2022-05-23_10h52.44.503,Main,2022.1.1,59.11489632172298,
negative,positive,1,j,l,,,,,,,,,1,2,20,6,,,,,,,,,main,2,2,1,positive,negative,j,j,1,0.6752520999871194,198.48675689997617,199.50175349996425,199.48513689998072,None,198.48675689997617,None,198.48675689997617,None,198.48675689997617,None,200.15980644996745,None,200.15980644996745,None,200.15980644996745,None,,,,,,,,,,,,,,028,2022-05-23_10h52.44.503,Main,2022.1.1,59.11489632172298,
neutral,negative,2,k,k,,,,,,,,,1,3,21,16,,,,,,,,,main,1,1,2,negative,neutral,k,k,1,0.5745290999766439,200.17035359994043,201.1824630999472,201.1491178999422,None,200.17035359994043,None,200.17035359994043,None,200.17035359994043,None,201.73245314992965,None,201.73245314992965,None,201.73245314992965,None,,,,,,,,,,,,,,028,2022-05-23_10h52.44.503,Main,2022.1.1,59.11489632172298,
neutral,neutral,1,k,k,,,,,,,,,1,4,22,1,,,,,,,,,main,2,2,1,neutral,neutral,k,k,1,0.5103526000166312,201.73833650001325,202.7491321999114,202.73246799991466,None,201.73833650001325,None,201.73833650001325,None,201.73833650001325,None,203.24911634991878,None,203.24911634991878,None,203.24911634991878,None,,,,,,,,,,,,,,028,2022-05-23_10h52.44.503,Main,2022.1.1,59.11489632172298,
negative,positive,2,j,l,,,,,,,,,1,5,23,15,,,,,,,,,main,2,2,2,positive,negative,j,j,1,0.7489006000105292,203.24941539997235,204.24913319991902,204.24913319991902,None,203.24941539997235,None,203.24941539997235,None,203.24941539997235,None,204.9994485500036,None,204.9994485500036,None,204.9994485500036,None,,,,,,,,,,,,,,028,2022-05-23_10h52.44.503,Main,2022.1.1,59.11489632172298,
negative,negative,1,j,l,,,,,,,,,1,6,24,0,,,,,,,,,main,2,2,1,negative,negative,j,j,1,0.665328000090085,205.0026588999899,206.00173609994818,206.00173609994818,None,205.0026588999899,None,205.0026588999899,None,205.0026588999899,None,206.6663567499025,None,206.6663567499025,None,206.6663567499025,None,,,,,,,,,,,,,,028,2022-05-23_10h52.44.503,Main,2022.1.1,59.11489632172298,
positive,neutral,1,l,j,,,,,,,,,1,7,25,8,,,,,,,,,main,2,2,1,neutral,positive,l,l,1,0.6314444999443367,206.66992189991288,207.68268649990205,207.66828410001472,None,206.66992189991288,None,206.66992189991288,None,206.66992189991288,None,208.29932814994828,None,208.29932814994828,None,208.29932814994828,None,,,,,,,,,,,,,,028,2022-05-23_10h52.44.503,Main,2022.1.1,59.11489632172298,
positive,positive,1,l,j,,,,,,,,,1,8,26,2,,,,,,,,,main,2,2,1,positive,positive,l,l,1,0.5152995999669656,208.3028869999107,209.31827359995805,209.30158959992696,None,208.3028869999107,None,208.3028869999107,None,208.3028869999107,None,209.81625714998228,None,209.81625714998228,None,209.81625714998228,None,,,,,,,,,,,,,,028,2022-05-23_10h52.44.503,Main,2022.1.1,59.11489632172298,
negative,neutral,1,j,l,,,,,,,,,1,9,27,3,,,,,,,,,main,1,1,1,neutral,negative,j,j,1,0.6819526000181213,209.81981329992414,210.8350661000004,210.81870860001072,None,209.81981329992414,None,209.81981329992414,None,209.81981329992414,None,211.4989494499285,None,211.4989494499285,None,211.4989494499285,None,,,,,,,,,,,,,,028,2022-05-23_10h52.44.503,Main,2022.1.1,59.11489632172298,
negative,negative,2,j,l,,,,,,,,,1,10,28,9,,,,,,,,,main,2,2,2,negative,negative,j,j,1,0.6306204999564216,211.4998568999581,212.49891889991704,212.49891889991704,None,211.4998568999581,None,211.4998568999581,None,211.4998568999581,None,213.13230494998862,None,213.13230494998862,None,213.13230494998862,None,,,,,,,,,,,,,,028,2022-05-23_10h52.44.503,Main,2022.1.1,59.11489632172298,
positive,neutral,2,l,j,,,,,,,,,1,11,29,17,,,,,,,,,main,1,1,2,neutral,positive,l,l,1,0.7655580000719056,213.1355901999632,214.13492219999898,214.13492219999898,None,213.1355901999632,None,213.1355901999632,None,213.1355901999632,None,214.89924494998996,None,214.89924494998996,None,214.89924494998996,None,,,,,,,,,,,,,,028,2022-05-23_10h52.44.503,Main,2022.1.1,59.11489632172298,
neutral,positive,2,k,k,,,,,,,,,1,12,30,13,,,,,,,,,main,2,2,2,positive,neutral,k,k,1,0.5983461000723764,214.9050944999326,215.91588270000648,215.90153309993912,None,214.9050944999326,None,214.9050944999326,None,214.9050944999326,None,216.49927274994553,None,216.49927274994553,None,216.49927274994553,None,,,,,,,,,,,,,,028,2022-05-23_10h52.44.503,Main,2022.1.1,59.11489632172298,
neutral,neutral,2,k,k,,,,,,,,,1,13,31,10,,,,,,,,,main,1,1,2,neutral,neutral,k,k,1,0.5320652000373229,216.50252629991155,217.51803439995274,217.4991594000021,None,216.50252629991155,None,216.50252629991155,None,216.50252629991155,None,218.03288394999691,None,218.03288394999691,None,218.03288394999691,None,,,,,,,,,,,,,,028,2022-05-23_10h52.44.503,Main,2022.1.1,59.11489632172298,
neutral,negative,1,k,k,,,,,,,,,1,14,32,7,,,,,,,,,main,1,1,1,negative,neutral,k,k,1,0.5809898000443354,218.03634270001203,219.05137689993717,219.03248199995141,None,218.03634270001203,None,218.03634270001203,None,218.03634270001203,None,219.61548794999254,None,219.61548794999254,None,219.61548794999254,None,,,,,,,,,,,,,,028,2022-05-23_10h52.44.503,Main,2022.1.1,59.11489632172298,
positive,negative,2,l,j,,,,,,,,,1,15,33,14,,,,,,,,,main,1,1,2,negative,positive,l,l,1,0.5806875999551266,219.61978790001012,220.6347629999509,220.6157703999197,None,219.61978790001012,None,219.61978790001012,None,219.61978790001012,None,221.19875504991506,None,221.19875504991506,None,221.19875504991506,None,,,,,,,,,,,,,,028,2022-05-23_10h52.44.503,Main,2022.1.1,59.11489632172298,
negative,neutral,2,j,l,,,,,,,,,1,16,34,12,,,,,,,,,main,2,2,2,neutral,negative,j,j,1,0.6817876999266446,221.1987586999312,222.19873189995997,222.19873189995997,None,221.1987586999312,None,221.1987586999312,None,221.1987586999312,None,222.8821024499601,None,222.8821024499601,None,222.8821024499601,None,,,,,,,,,,,,,,028,2022-05-23_10h52.44.503,Main,2022.1.1,59.11489632172298,
neutral,positive,1,k,k,,,,,,,,,1,17,35,4,,,,,,,,,main,1,1,1,positive,neutral,k,k,1,0.7154442999744788,222.88532659993507,223.8847218999872,223.8847218999872,None,222.88532659993507,None,222.88532659993507,None,222.88532659993507,None,224.59911264998374,None,224.59911264998374,None,224.59911264998374,None,,,,,,,,,,,,,,028,2022-05-23_10h52.44.503,Main,2022.1.1,59.11489632172298,
positive,positive,2,l,j,,,,,,,,,2,0,36,11,,,,,,,,,main,2,2,2,positive,positive,l,l,1,0.5984414999838918,224.60263729991857,225.61566439992748,225.6013006999856,None,224.60263729991857,None,224.60263729991857,None,224.60263729991857,None,226.1990139499074,None,226.1990139499074,None,226.1990139499074,None,,,,,,,,,,,,,,028,2022-05-23_10h52.44.503,Main,2022.1.1,59.11489632172298,
neutral,neutral,1,k,k,,,,,,,,,2,1,37,1,,,,,,,,,main,2,2,1,neutral,neutral,k,k,1,0.600648200022988,226.20228659990244,227.2012895999942,227.2012895999942,None,226.20228659990244,None,226.20228659990244,None,226.20228659990244,None,227.79869455001318,None,227.79869455001318,None,227.79869455001318,None,,,,,,,,,,,,,,028,2022-05-23_10h52.44.503,Main,2022.1.1,59.11489632172298,
negative,negative,2,j,l,,,,,,,,,2,2,38,9,,,,,,,,,main,2,2,2,negative,negative,j,j,1,0.7460833999793977,227.805826399941,228.81780199997593,228.80124920001253,None,227.805826399941,None,227.805826399941,None,227.805826399941,None,229.54894654995297,None,229.54894654995297,None,229.54894654995297,None,,,,,,,,,,,,,,028,2022-05-23_10h52.44.503,Main,2022.1.1,59.11489632172298,
positive,neutral,1,l,j,,,,,,,,,2,3,39,8,,,,,,,,,main,1,1,1,neutral,positive,l,l,1,0.6825926000019535,229.5521547999233,230.5549270999618,230.5478066999931,None,229.5521547999233,None,229.5521547999233,None,229.5521547999233,None,231.23188904994169,None,231.23188904994169,None,231.23188904994169,None,,,,,,,,,,,,,,028,2022-05-23_10h52.44.503,Main,2022.1.1,59.11489632172298,
negative,neutral,1,j,l,,,,,,,,,2,4,40,3,,,,,,,,,main,1,1,1,neutral,negative,j,j,1,0.8809144999831915,231.23253589996602,232.23185079998802,232.23185079998802,None,231.23253589996602,None,231.23253589996602,None,231.23253589996602,None,233.115224949969,None,233.115224949969,None,233.115224949969,None,,,,,,,,,,,,,,028,2022-05-23_10h52.44.503,Main,2022.1.1,59.11489632172298,
neutral,positive,2,k,k,,,,,,,,,2,5,41,13,,,,,,,,,main,2,2,2,positive,neutral,k,k,1,0.5648620000574738,233.1158842999721,234.1152216999326,234.1152216999326,None,233.1158842999721,None,233.1158842999721,None,233.1158842999721,None,234.68186904997566,None,234.68186904997566,None,234.68186904997566,None,,,,,,,,,,,,,,028,2022-05-23_10h52.44.503,Main,2022.1.1,59.11489632172298,
negative,neutral,2,j,l,,,,,,,,,2,6,42,12,,,,,,,,,main,2,2,2,neutral,negative,j,j,1,0.6976644999813288,234.68630299996585,235.70109819993377,235.68448900000658,None,234.68630299996585,None,234.68630299996585,None,234.68630299996585,None,236.38215194998776,None,236.38215194998776,None,236.38215194998776,None,,,,,,,,,,,,,,028,2022-05-23_10h52.44.503,Main,2022.1.1,59.11489632172298,
positive,negative,2,l,j,,,,,,,,,2,7,43,14,,,,,,,,,main,1,1,2,negative,positive,l,l,1,0.6819193999981508,236.38618269993458,237.39876609994099,237.38438689999748,None,236.38618269993458,None,236.38618269993458,None,236.38618269993458,None,238.0654457499739,None,238.0654457499739,None,238.0654457499739,None,,,,,,,,,,,,,,028,2022-05-23_10h52.44.503,Main,2022.1.1,59.11489632172298,
neutral,negative,1,k,k,,,,,,,,,2,8,44,7,,,,,,,,,main,1,1,1,negative,neutral,k,k,1,0.5983079000143334,238.06892499991227,239.08209079992957,239.0676514999941,None,238.06892499991227,None,238.06892499991227,None,238.06892499991227,None,239.66536954995246,None,239.66536954995246,None,239.66536954995246,None,,,,,,,,,,,,,,028,2022-05-23_10h52.44.503,Main,2022.1.1,59.11489632172298,
neutral,negative,2,k,k,,,,,,,,,2,9,45,16,,,,,,,,,main,2,2,2,negative,neutral,k,k,1,0.5318183000199497,239.66918899992015,240.68206819996703,240.66772639995907,None,239.66918899992015,None,239.66918899992015,None,239.66918899992015,None,241.19872814994307,None,241.19872814994307,None,241.19872814994307,None,,,,,,,,,,,,,,028,2022-05-23_10h52.44.503,Main,2022.1.1,59.11489632172298,
neutral,positive,1,k,k,,,,,,,,,2,10,46,4,,,,,,,,,main,2,2,1,positive,neutral,k,k,1,0.5147137000458315,241.20220619998872,242.21499829995446,242.19831739994697,None,241.20220619998872,None,241.20220619998872,None,241.20220619998872,None,242.71498104995118,None,242.71498104995118,None,242.71498104995118,None,,,,,,,,,,,,,,028,2022-05-23_10h52.44.503,Main,2022.1.1,59.11489632172298,
negative,positive,2,j,l,,,,,,,,,2,11,47,15,,,,,,,,,main,1,1,2,positive,negative,j,j,1,0.698109200107865,242.71532819990534,243.71495920000598,243.71495920000598,None,242.71532819990534,None,242.71532819990534,None,242.71532819990534,None,244.4150051499717,None,244.4150051499717,None,244.4150051499717,None,,,,,,,,,,,,,,028,2022-05-23_10h52.44.503,Main,2022.1.1,59.11489632172298,
positive,positive,1,l,j,,,,,,,,,2,12,48,2,,,,,,,,,main,1,1,1,positive,positive,l,l,1,0.6492641000077128,244.4180271999212,245.41753889992833,245.40094089997,None,244.4180271999212,None,244.4180271999212,None,244.4180271999212,None,246.06557994994802,None,246.06557994994802,None,246.06557994994802,None,,,,,,,,,,,,,,028,2022-05-23_10h52.44.503,Main,2022.1.1,59.11489632172298,
negative,negative,1,j,l,,,,,,,,,2,13,49,0,,,,,,,,,main,1,1,1,negative,negative,j,j,1,0.7355016000801697,246.08414679998532,247.1007382000098,247.06525119999424,None,246.08414679998532,None,246.08414679998532,None,246.08414679998532,None,247.80294734991622,None,247.80294734991622,None,247.80294734991622,None,,,,,,,,,,,,,,028,2022-05-23_10h52.44.503,Main,2022.1.1,59.11489632172298,
positive,neutral,2,l,j,,,,,,,,,2,14,50,17,,,,,,,,,main,1,1,2,neutral,positive,l,l,1,0.6944946000585333,247.80558259994723,248.8152376000071,248.79857629991602,None,247.80558259994723,None,247.80558259994723,None,247.80558259994723,None,249.4986961499788,None,249.4986961499788,None,249.4986961499788,None,,,,,,,,,,,,,,028,2022-05-23_10h52.44.503,Main,2022.1.1,59.11489632172298,
neutral,neutral,2,k,k,,,,,,,,,2,15,51,10,,,,,,,,,main,1,1,2,neutral,neutral,k,k,1,0.7329550998983905,249.50260829995386,250.51518139999826,250.50083169993013,None,249.50260829995386,None,249.50260829995386,None,249.50260829995386,None,251.23413444992622,None,251.23413444992622,None,251.23413444992622,None,,,,,,,,,,,,,,028,2022-05-23_10h52.44.503,Main,2022.1.1,59.11489632172298,
negative,positive,1,j,l,,,,,,,,,2,16,52,6,,,,,,,,,main,2,2,1,positive,negative,j,j,1,0.6114258000161499,251.2382898000069,252.24830819992349,252.23178859998006,None,251.2382898000069,None,251.2382898000069,None,251.2382898000069,None,252.84813014995308,None,252.84813014995308,None,252.84813014995308,None,,,,,,,,,,,,,,028,2022-05-23_10h52.44.503,Main,2022.1.1,59.11489632172298,
positive,negative,1,l,j,,,,,,,,,2,17,53,5,,,,,,,,,main,1,1,1,negative,positive,l,l,1,0.6832960000028834,252.84813629998825,253.84814529994037,253.84814529994037,None,252.84813629998825,None,252.84813629998825,None,252.84813629998825,None,254.53148284992204,None,254.53148284992204,None,254.53148284992204,None,,,,,,,,,,,,,,028,2022-05-23_10h52.44.503,Main,2022.1.1,59.11489632172298,
positive,positive,1,l,j,,,,,,,,,3,0,54,2,,,,,,,,,main,2,2,1,positive,positive,l,l,1,0.5970081000123173,254.53338919999078,255.54813899996225,255.53147629997693,None,254.53338919999078,None,254.53338919999078,None,254.53338919999078,None,256.1314478499815,None,256.1314478499815,None,256.1314478499815,None,,,,,,,,,,,,,,028,2022-05-23_10h52.44.503,Main,2022.1.1,59.11489632172298,
neutral,positive,1,k,k,,,,,,,,,3,1,55,4,,,,,,,,,main,2,2,1,positive,neutral,k,k,1,0.5661811999743804,256.13774439995177,257.1506251000101,257.1174638000084,None,256.13774439995177,None,256.13774439995177,None,256.13774439995177,None,257.6992480499437,None,257.6992480499437,None,257.6992480499437,None,,,,,,,,,,,,,,028,2022-05-23_10h52.44.503,Main,2022.1.1,59.11489632172298,
negative,negative,2,j,l,,,,,,,,,3,2,56,9,,,,,,,,,main,2,2,2,negative,negative,j,j,1,0.6306693000951782,257.7063093999168,258.71728469990194,258.70073239994235,None,257.7063093999168,None,257.7063093999168,None,257.7063093999168,None,259.33166334994604,None,259.33166334994604,None,259.33166334994604,None,,,,,,,,,,,,,,028,2022-05-23_10h52.44.503,Main,2022.1.1,59.11489632172298,
positive,neutral,1,l,j,,,,,,,,,3,3,57,8,,,,,,,,,main,1,1,1,neutral,positive,l,l,1,0.6486620999639854,259.33466159994714,260.35055899992585,260.33165409998037,None,259.33466159994714,None,259.33466159994714,None,259.33466159994714,None,260.98169484997635,None,260.98169484997635,None,260.98169484997635,None,,,,,,,,,,,,,,028,2022-05-23_10h52.44.503,Main,2022.1.1,59.11489632172298,
neutral,neutral,1,k,k,,,,,,,,,3,4,58,1,,,,,,,,,main,2,2,1,neutral,neutral,k,k,1,0.6004265000810847,260.98525089991745,262.00058069999795,261.98392879997846,None,260.98525089991745,None,260.98525089991745,None,260.98525089991745,None,262.58393365000376,None,262.58393365000376,None,262.58393365000376,None,,,,,,,,,,,,,,028,2022-05-23_10h52.44.503,Main,2022.1.1,59.11489632172298,
positive,neutral,2,l,j,,,,,,,,,3,5,59,17,,,,,,,,,main,2,2,2,neutral,positive,l,l,1,0.6125869000097737,262.5880411999533,263.59789929992985,263.581246299902,None,262.5880411999533,None,262.5880411999533,None,262.5880411999533,None,264.1978993499186,None,264.1978993499186,None,264.1978993499186,None,,,,,,,,,,,,,,028,2022-05-23_10h52.44.503,Main,2022.1.1,59.11489632172298,
neutral,negative,2,k,k,,,,,,,,,3,6,60,16,,,,,,,,,main,2,2,2,negative,neutral,k,k,1,0.5343564000213519,264.1978966000024,265.1979384999722,265.1979384999722,None,264.1978966000024,None,264.1978966000024,None,264.1978966000024,None,265.7339404499624,None,265.7339404499624,None,265.7339404499624,None,,,,,,,,,,,,,,028,2022-05-23_10h52.44.503,Main,2022.1.1,59.11489632172298,
positive,positive,2,l,j,,,,,,,,,3,7,61,11,,,,,,,,,main,1,1,2,positive,positive,l,l,1,0.6294224000303075,265.73672419996,266.74822089995723,266.733881299966,None,265.73672419996,None,265.73672419996,None,265.73672419996,None,267.36485014990905,None,267.36485014990905,None,267.36485014990905,None,,,,,,,,,,,,,,028,2022-05-23_10h52.44.503,Main,2022.1.1,59.11489632172298,
negative,neutral,1,j,l,,,,,,,,,3,8,62,3,,,,,,,,,main,2,2,1,neutral,negative,j,j,1,0.5814522000728175,267.3684859999921,268.3814944999758,268.3648304999806,None,267.3684859999921,None,267.3684859999921,None,267.3684859999921,None,268.94818024996204,None,268.94818024996204,None,268.94818024996204,None,,,,,,,,,,,,,,028,2022-05-23_10h52.44.503,Main,2022.1.1,59.11489632172298,
neutral,neutral,2,k,k,,,,,,,,,3,9,63,10,,,,,,,,,main,2,2,2,neutral,neutral,k,k,1,0.5495723999338225,268.95117509993725,269.94815889990423,269.94815889990423,None,268.95117509993725,None,268.95117509993725,None,268.95117509993725,None,270.49810224999675,None,270.49810224999675,None,270.49810224999675,None,,,,,,,,,,,,,,028,2022-05-23_10h52.44.503,Main,2022.1.1,59.11489632172298,
negative,positive,2,j,l,,,,,,,,,3,10,64,15,,,,,,,,,main,2,2,2,positive,negative,j,j,1,0.6805476000299677,270.5022505999077,271.51701319997665,271.4981016999809,None,270.5022505999077,None,270.5022505999077,None,270.5022505999077,None,272.18142504997087,None,272.18142504997087,None,272.18142504997087,None,,,,,,,,,,,,,,028,2022-05-23_10h52.44.503,Main,2022.1.1,59.11489632172298,
positive,negative,2,l,j,,,,,,,,,3,11,65,14,,,,,,,,,main,2,2,2,negative,positive,l,l,1,1.0191429000115022,272.19809959991835,273.1977108999854,273.18104439997114,None,272.19809959991835,None,272.19809959991835,None,272.19809959991835,None,274.19769695000724,None,274.19769695000724,None,274.19769695000724,None,,,,,,,,,,,,,,028,2022-05-23_10h52.44.503,Main,2022.1.1,59.11489632172298,
neutral,positive,2,k,k,,,,,,,,,3,12,66,13,,,,,,,,,main,1,1,2,positive,neutral,k,k,1,0.5598150000441819,274.2094313999405,275.21437379997224,275.19769389997236,None,274.2094313999405,None,274.2094313999405,None,274.2094313999405,None,275.7643550500041,None,275.7643550500041,None,275.7643550500041,None,,,,,,,,,,,,,,028,2022-05-23_10h52.44.503,Main,2022.1.1,59.11489632172298,
positive,negative,1,l,j,,,,,,,,,3,13,67,5,,,,,,,,,main,1,1,1,negative,positive,l,l,1,0.5988198999548331,275.76468849997036,276.764364499948,276.764364499948,None,275.76468849997036,None,275.76468849997036,None,275.76468849997036,None,277.3646890499629,None,277.3646890499629,None,277.3646890499629,None,,,,,,,,,,,,,,028,2022-05-23_10h52.44.503,Main,2022.1.1,59.11489632172298,
negative,neutral,2,j,l,,,,,,,,,3,14,68,12,,,,,,,,,main,1,1,2,neutral,negative,j,j,1,0.6141871000872925,277.3687402999494,278.3836056999862,278.36700580001343,None,277.3687402999494,None,277.3687402999494,None,277.3687402999494,None,278.98131404998713,None,278.98131404998713,None,278.98131404998713,None,,,,,,,,,,,,,,028,2022-05-23_10h52.44.503,Main,2022.1.1,59.11489632172298,
neutral,negative,1,k,k,,,,,,,,,3,15,69,7,,,,,,,,,main,2,2,1,negative,neutral,k,k,1,0.5315214999718592,278.9847739000106,280.00008759996854,279.9812634999398,None,278.9847739000106,None,278.9847739000106,None,278.9847739000106,None,280.51458234998864,None,280.51458234998864,None,280.51458234998864,None,,,,,,,,,,,,,,028,2022-05-23_10h52.44.503,Main,2022.1.1,59.11489632172298,
negative,negative,1,j,l,,,,,,,,,3,16,70,0,,,,,,,,,main,2,2,1,negative,negative,j,j,1,0.815243300050497,280.51761270000134,281.5167666999623,281.50021309999283,None,280.51761270000134,None,280.51761270000134,None,280.51761270000134,None,282.3312138500158,None,282.3312138500158,None,282.3312138500158,None,,,,,,,,,,,,,,028,2022-05-23_10h52.44.503,Main,2022.1.1,59.11489632172298,
negative,positive,1,j,l,,,,,,,,,3,17,71,6,,,,,,,,,main,1,1,1,positive,negative,j,j,1,0.5484530000248924,282.3344997999957,283.35003560001496,283.3334490999114,None,282.3344997999957,None,282.3344997999957,None,282.3344997999957,None,283.8812087499071,None,283.8812087499071,None,283.8812087499071,None,,,,,,,,,,,,,,028,2022-05-23_10h52.44.503,Main,2022.1.1,59.11489632172298,
neutral,positive,2,k,k,,,,,,,,,4,0,72,13,,,,,,,,,main,2,2,2,positive,neutral,k,k,1,0.6480228999862447,283.88478849991225,284.8974901000038,284.8808223999804,None,283.88478849991225,None,283.88478849991225,None,283.88478849991225,None,285.5307968499372,None,285.5307968499372,None,285.5307968499372,None,,,,,,,,,,,,,,028,2022-05-23_10h52.44.503,Main,2022.1.1,59.11489632172298,
positive,positive,2,l,j,,,,,,,,,4,1,73,11,,,,,,,,,main,2,2,2,positive,positive,l,l,1,0.5987477999879047,285.53078129992355,286.53084359993227,286.53084359993227,None,285.53078129992355,None,285.53078129992355,None,285.53078129992355,None,287.1311370499432,None,287.1311370499432,None,287.1311370499432,None,,,,,,,,,,,,,,028,2022-05-23_10h52.44.503,Main,2022.1.1,59.11489632172298,
neutral,neutral,2,k,k,,,,,,,,,4,2,74,10,,,,,,,,,main,1,1,2,neutral,neutral,k,k,1,0.603462600032799,287.1341278000036,288.13348399999086,288.13348399999086,None,287.1341278000036,None,287.1341278000036,None,287.1341278000036,None,288.7334367499687,None,288.7334367499687,None,288.7334367499687,None,,,,,,,,,,,,,,028,2022-05-23_10h52.44.503,Main,2022.1.1,59.11489632172298,
negative,neutral,2,j,l,,,,,,,,,4,3,75,12,,,,,,,,,main,1,1,2,neutral,negative,j,j,1,0.525933500030078,288.74186249997,289.7500335999066,289.73109859996475,None,288.74186249997,None,288.74186249997,None,288.74186249997,None,290.2644047499169,None,290.2644047499169,None,290.2644047499169,None,,,,,,,,,,,,,,028,2022-05-23_10h52.44.503,Main,2022.1.1,59.11489632172298,
positive,positive,1,l,j,,,,,,,,,4,4,76,2,,,,,,,,,main,2,2,1,positive,positive,l,l,1,0.7152121000690386,290.2679642000003,291.2832270999206,291.2666388999205,None,290.2679642000003,None,290.2679642000003,None,290.2679642000003,None,291.9810114500113,None,291.9810114500113,None,291.9810114500113,None,,,,,,,,,,,,,,028,2022-05-23_10h52.44.503,Main,2022.1.1,59.11489632172298,
positive,neutral,2,l,j,,,,,,,,,4,5,77,17,,,,,,,,,main,2,2,2,neutral,positive,l,l,1,0.6479484000010416,291.9889603999909,293.00001229997724,292.98336449998897,None,291.9889603999909,None,291.9889603999909,None,291.9889603999909,None,293.6306887499057,None,293.6306887499057,None,293.6306887499057,None,,,,,,,,,,,,,,028,2022-05-23_10h52.44.503,Main,2022.1.1,59.11489632172298,
positive,negative,1,l,j,,,,,,,,,4,6,78,5,,,,,,,,,main,1,1,1,negative,positive,l,l,1,0.5807523999828845,293.63503969996236,294.64756780001335,294.63103309995495,None,293.63503969996236,None,293.63503969996236,None,293.63503969996236,None,295.21396714991425,None,295.21396714991425,None,295.21396714991425,None,,,,,,,,,,,,,,028,2022-05-23_10h52.44.503,Main,2022.1.1,59.11489632172298,
negative,neutral,1,j,l,,,,,,,,,4,7,79,3,,,,,,,,,main,2,2,1,neutral,negative,j,j,1,0.7982765999622643,295.2139673999045,296.21397089993116,296.21397089993116,None,295.2139673999045,None,295.2139673999045,None,295.2139673999045,None,297.0139609499136,None,297.0139609499136,None,297.0139609499136,None,,,,,,,,,,,,,,028,2022-05-23_10h52.44.503,Main,2022.1.1,59.11489632172298,
neutral,positive,1,k,k,,,,,,,,,4,8,80,4,,,,,,,,,main,2,2,1,positive,neutral,k,k,1,0.5511591000249609,297.0143926999299,298.01394059997983,298.01394059997983,None,297.0143926999299,None,297.0143926999299,None,297.0143926999299,None,298.5665918499697,None,298.5665918499697,None,298.5665918499697,None,,,,,,,,,,,,,,028,2022-05-23_10h52.44.503,Main,2022.1.1,59.11489632172298,
neutral,negative,2,k,k,,,,,,,,,4,9,81,16,,,,,,,,,main,2,2,2,negative,neutral,k,k,1,0.5453595001017675,298.5708697999362,299.58315809990745,299.5665500999894,None,298.5708697999362,None,298.5708697999362,None,298.5708697999362,None,300.11422474991997,None,300.11422474991997,None,300.11422474991997,None,,,,,,,,,,,,,,028,2022-05-23_10h52.44.503,Main,2022.1.1,59.11489632172298,
negative,negative,1,j,l,,,,,,,,,4,10,82,0,,,,,,,,,main,1,1,1,negative,negative,j,j,1,0.7315237000584602,300.1178877999773,301.1331291999668,301.1165445999941,None,300.1178877999773,None,300.1178877999773,None,300.1178877999773,None,301.84753304994666,None,301.84753304994666,None,301.84753304994666,None,,,,,,,,,,,,,,028,2022-05-23_10h52.44.503,Main,2022.1.1,59.11489632172298,
positive,neutral,1,l,j,,,,,,,,,4,11,83,8,,,,,,,,,main,2,2,1,neutral,positive,l,l,1,0.6150586000876501,301.8509572999319,302.86418539995793,302.85002909996547,None,301.8509572999319,None,301.8509572999319,None,301.8509572999319,None,303.4641328500118,None,303.4641328500118,None,303.4641328500118,None,,,,,,,,,,,,,,028,2022-05-23_10h52.44.503,Main,2022.1.1,59.11489632172298,
negative,positive,1,j,l,,,,,,,,,4,12,84,6,,,,,,,,,main,1,1,1,positive,negative,j,j,1,0.7173021000344306,303.46823779994156,304.4831147999503,304.46413879992906,None,303.46823779994156,None,303.46823779994156,None,303.46823779994156,None,305.1831447499106,None,305.1831447499106,None,305.1831447499106,None,,,,,,,,,,,,,,028,2022-05-23_10h52.44.503,Main,2022.1.1,59.11489632172298,
positive,negative,2,l,j,,,,,,,,,4,13,85,14,,,,,,,,,main,2,2,2,negative,positive,l,l,1,0.6625276999548078,305.1866280999966,306.19714569998905,306.18083789991215,None,305.1866280999966,None,305.1866280999966,None,305.1866280999966,None,306.84710464994424,None,306.84710464994424,None,306.84710464994424,None,,,,,,,,,,,,,,028,2022-05-23_10h52.44.503,Main,2022.1.1,59.11489632172298,
negative,negative,2,j,l,,,,,,,,,4,14,86,9,,,,,,,,,main,2,2,2,negative,negative,j,j,1,0.6986859999597073,306.84711279999465,307.8471643999219,307.8471643999219,None,306.84711279999465,None,306.84711279999465,None,306.84711279999465,None,308.54747934995686,None,308.54747934995686,None,308.54747934995686,None,,,,,,,,,,,,,,028,2022-05-23_10h52.44.503,Main,2022.1.1,59.11489632172298,
neutral,negative,1,k,k,,,,,,,,,4,15,87,7,,,,,,,,,main,1,1,1,negative,neutral,k,k,1,0.5481812000507489,308.5506517000031,309.54959539999254,309.54959539999254,None,308.5506517000031,None,308.5506517000031,None,308.5506517000031,None,310.0973363499623,None,310.0973363499623,None,310.0973363499623,None,,,,,,,,,,,,,,028,2022-05-23_10h52.44.503,Main,2022.1.1,59.11489632172298,
neutral,neutral,1,k,k,,,,,,,,,4,16,88,1,,,,,,,,,main,2,2,1,neutral,neutral,k,k,1,0.5654583000577986,310.1001184999477,311.1143393999664,311.09746620000806,None,310.1001184999477,None,310.1001184999477,None,310.1001184999477,None,311.66401595000644,None,311.66401595000644,None,311.66401595000644,None,,,,,,,,,,,,,,028,2022-05-23_10h52.44.503,Main,2022.1.1,59.11489632172298,
negative,positive,2,j,l,,,,,,,,,4,17,89,15,,,,,,,,,main,2,2,2,positive,negative,j,j,1,0.6316917000804096,311.66765449999366,312.68288959993515,312.6639806999592,None,311.66765449999366,None,311.66765449999366,None,311.66765449999366,None,313.29741444992834,None,313.29741444992834,None,313.29741444992834,None,,,,,,,,,,,,,,028,2022-05-23_10h52.44.503,Main,2022.1.1,59.11489632172298,
neutral,positive,2,k,k,,,,,,,,,5,0,90,13,,,,,,,,,main,2,2,2,positive,neutral,k,k,1,0.581743499962613,313.3008557999274,314.316076099989,314.2972607999109,None,313.3008557999274,None,313.3008557999274,None,313.3008557999274,None,314.8806822499726,None,314.8806822499726,None,314.8806822499726,None,,,,,,,,,,,,,,028,2022-05-23_10h52.44.503,Main,2022.1.1,59.11489632172298,
positive,negative,2,l,j,,,,,,,,,5,1,91,14,,,,,,,,,main,1,1,2,negative,positive,l,l,1,0.6145860999822617,314.8842838999117,315.8972739999881,315.8804433000041,None,314.8842838999117,None,314.8842838999117,None,314.8842838999117,None,316.4970868499484,None,316.4970868499484,None,316.4970868499484,None,,,,,,,,,,,,,,028,2022-05-23_10h52.44.503,Main,2022.1.1,59.11489632172298,
negative,negative,1,j,l,,,,,,,,,5,2,92,0,,,,,,,,,main,1,1,1,negative,negative,j,j,1,0.831533299991861,316.49685869994573,317.4971576000098,317.4971576000098,None,316.49685869994573,None,316.49685869994573,None,316.49685869994573,None,318.33016794996803,None,318.33016794996803,None,318.33016794996803,None,,,,,,,,,,,,,,028,2022-05-23_10h52.44.503,Main,2022.1.1,59.11489632172298,
neutral,positive,1,k,k,,,,,,,,,5,3,93,4,,,,,,,,,main,1,1,1,positive,neutral,k,j,0,0.5484370000194758,318.3304681999143,319.3301730999956,319.3301730999956,None,318.3304681999143,None,318.3304681999143,None,318.3304681999143,None,319.8805545999203,None,319.8805545999203,None,319.8805545999203,None,,,,,,,,,,,,,,028,2022-05-23_10h52.44.503,Main,2022.1.1,59.11489632172298,
positive,neutral,2,l,j,,,,,,,,,5,4,94,17,,,,,,,,,main,1,1,2,neutral,positive,l,l,1,0.7841639999533072,320.8814461999573,321.8827415999258,321.86615689995233,None,320.8814461999573,None,320.8814461999573,None,320.8814461999573,None,322.66378824990244,None,322.66378824990244,None,322.66378824990244,None,,,,,,,,,,,,,,028,2022-05-23_10h52.44.503,Main,2022.1.1,59.11489632172298,
neutral,negative,2,k,k,,,,,,,,,5,5,95,16,,,,,,,,,main,2,2,2,negative,neutral,k,k,1,0.61475009995047,322.6675233999267,323.6804386000149,323.66611579991877,None,322.6675233999267,None,322.6675233999267,None,322.6675233999267,None,324.2804105499061,None,324.2804105499061,None,324.2804105499061,None,,,,,,,,,,,,,,028,2022-05-23_10h52.44.503,Main,2022.1.1,59.11489632172298,
positive,positive,1,l,j,,,,,,,,,5,6,96,2,,,,,,,,,main,2,2,1,positive,positive,l,l,1,0.5986091999802738,324.28393539995886,325.2970558999805,325.282695199945,None,324.28393539995886,None,324.28393539995886,None,324.28393539995886,None,325.880691549927,None,325.880691549927,None,325.880691549927,None,,,,,,,,,,,,,,028,2022-05-23_10h52.44.503,Main,2022.1.1,59.11489632172298,
negative,positive,1,j,l,,,,,,,,,5,7,97,6,,,,,,,,,main,2,2,1,positive,negative,j,j,1,0.6978929000906646,325.8873833999969,326.89667799999006,326.87999249994755,None,325.8873833999969,None,325.8873833999969,None,325.8873833999969,None,327.57998965000735,None,327.57998965000735,None,327.57998965000735,None,,,,,,,,,,,,,,028,2022-05-23_10h52.44.503,Main,2022.1.1,59.11489632172298,
neutral,neutral,2,k,k,,,,,,,,,5,8,98,10,,,,,,,,,main,2,2,2,neutral,neutral,k,k,1,0.6322971000336111,327.57999589992687,328.58002359990496,328.58002359990496,None,327.57999589992687,None,327.57999589992687,None,327.57999589992687,None,329.2136493499391,None,329.2136493499391,None,329.2136493499391,None,,,,,,,,,,,,,,028,2022-05-23_10h52.44.503,Main,2022.1.1,59.11489632172298,
positive,positive,2,l,j,,,,,,,,,5,9,99,11,,,,,,,,,main,1,1,2,positive,positive,l,l,1,0.6150832999264821,329.2171448000008,330.2302733999677,330.215950599988,None,329.2171448000008,None,329.2171448000008,None,329.2171448000008,None,330.8302464499837,None,330.8302464499837,None,330.8302464499837,None,,,,,,,,,,,,,,028,2022-05-23_10h52.44.503,Main,2022.1.1,59.11489632172298,
negative,positive,2,j,l,,,,,,,,,5,10,100,15,,,,,,,,,main,2,2,2,positive,negative,j,j,1,0.680907899979502,330.83431309997104,331.84910339990165,331.830261599971,None,330.83431309997104,None,330.83431309997104,None,330.83431309997104,None,332.51366354997737,None,332.51366354997737,None,332.51366354997737,None,,,,,,,,,,,,,,028,2022-05-23_10h52.44.503,Main,2022.1.1,59.11489632172298,
positive,negative,1,l,j,,,,,,,,,5,11,101,5,,,,,,,,,main,2,2,1,negative,positive,l,l,1,0.6318310999777168,332.51700799993705,333.5302162999287,333.51581239991356,None,332.51700799993705,None,332.51700799993705,None,332.51700799993705,None,334.14685714996887,None,334.14685714996887,None,334.14685714996887,None,,,,,,,,,,,,,,028,2022-05-23_10h52.44.503,Main,2022.1.1,59.11489632172298,
positive,neutral,1,l,j,,,,,,,,,5,12,102,8,,,,,,,,,main,1,1,1,neutral,positive,l,l,1,1.0645630999933928,334.15016520000063,335.163812499959,335.14687179995235,None,334.15016520000063,None,334.15016520000063,None,334.15016520000063,None,336.21287744999864,None,336.21287744999864,None,336.21287744999864,None,,,,,,,,,,,,,,028,2022-05-23_10h52.44.503,Main,2022.1.1,59.11489632172298,
neutral,negative,1,k,k,,,,,,,,,5,13,103,7,,,,,,,,,main,2,2,1,negative,neutral,k,k,1,0.6486243000254035,336.2236147999065,337.229775399901,337.21311629994307,None,336.2236147999065,None,336.2236147999065,None,336.2236147999065,None,337.86310164998287,None,337.86310164998287,None,337.86310164998287,None,,,,,,,,,,,,,,028,2022-05-23_10h52.44.503,Main,2022.1.1,59.11489632172298,
negative,negative,2,j,l,,,,,,,,,5,14,104,9,,,,,,,,,main,1,1,2,negative,negative,j,j,1,0.6318865000503138,337.86310229997616,338.8634154999163,338.8634154999163,None,337.86310229997616,None,337.86310229997616,None,337.86310229997616,None,339.4967270500027,None,339.4967270500027,None,339.4967270500027,None,,,,,,,,,,,,,,028,2022-05-23_10h52.44.503,Main,2022.1.1,59.11489632172298,
negative,neutral,2,j,l,,,,,,,,,5,15,105,12,,,,,,,,,main,2,2,2,neutral,negative,j,j,1,0.6665178000694141,339.49828419997357,340.5132927999366,340.49645839992445,None,339.49828419997357,None,339.49828419997357,None,339.49828419997357,None,341.16571054998786,None,341.16571054998786,None,341.16571054998786,None,,,,,,,,,,,,,,028,2022-05-23_10h52.44.503,Main,2022.1.1,59.11489632172298,
negative,neutral,1,j,l,,,,,,,,,5,16,106,3,,,,,,,,,main,2,2,1,neutral,negative,j,j,1,0.6793109000427648,341.16866789991036,342.18222600000445,342.16564699995797,None,341.16866789991036,None,341.16866789991036,None,341.16866789991036,None,342.84671625001357,None,342.84671625001357,None,342.84671625001357,None,,,,,,,,,,,,,,028,2022-05-23_10h52.44.503,Main,2022.1.1,59.11489632172298,
neutral,neutral,1,k,k,,,,,,,,,5,17,107,1,,,,,,,,,main,2,2,1,neutral,neutral,k,k,1,0.665241300011985,342.8499505999498,343.8656937999185,343.8466991999885,None,342.8499505999498,None,342.8499505999498,None,342.8499505999498,None,344.5133568499703,None,344.5133568499703,None,344.5133568499703,None,,,,,,,,,,,,,,028,2022-05-23_10h52.44.503,Main,2022.1.1,59.11489632172298,
negative,neutral,2,j,l,,,,,,,,,6,0,108,12,,,,,,,,,main,2,2,2,neutral,negative,j,j,1,0.6982789000030607,344.51696349994745,345.5326454999158,345.5135866999626,None,344.51696349994745,None,344.51696349994745,None,344.51696349994745,None,346.2133000499569,None,346.2133000499569,None,346.2133000499569,None,,,,,,,,,,,,,,028,2022-05-23_10h52.44.503,Main,2022.1.1,59.11489632172298,
negative,neutral,1,j,l,,,,,,,,,6,1,109,3,,,,,,,,,main,2,2,1,neutral,negative,j,j,1,0.7312340999487787,346.2168101000134,347.2303289999254,347.21561329998076,None,346.2168101000134,None,346.2168101000134,None,346.2168101000134,None,347.94625965000597,None,347.94625965000597,None,347.94625965000597,None,,,,,,,,,,,,,,028,2022-05-23_10h52.44.503,Main,2022.1.1,59.11489632172298,
neutral,neutral,1,k,k,,,,,,,,,6,2,110,1,,,,,,,,,main,2,2,1,neutral,neutral,k,k,1,0.5984305000165477,347.94625669997185,348.9462099999655,348.9462099999655,None,347.94625669997185,None,347.94625669997185,None,347.94625669997185,None,349.5462039499078,None,349.5462039499078,None,349.5462039499078,None,,,,,,,,,,,,,,028,2022-05-23_10h52.44.503,Main,2022.1.1,59.11489632172298,
negative,negative,2,j,l,,,,,,,,,6,3,111,9,,,,,,,,,main,1,1,2,negative,negative,j,j,1,0.781963900080882,349.54620430001523,350.5487784999423,350.5322072999552,None,349.54620430001523,None,349.54620430001523,None,349.54620430001523,None,351.3298552499153,None,351.3298552499153,None,351.3298552499153,None,,,,,,,,,,,,,,028,2022-05-23_10h52.44.503,Main,2022.1.1,59.11489632172298,
neutral,negative,2,k,k,,,,,,,,,6,4,112,16,,,,,,,,,main,1,1,2,negative,neutral,k,k,1,0.6319603000301868,351.3338394999737,352.34649809997063,352.32982619991526,None,351.3338394999737,None,351.3338394999737,None,351.3338394999737,None,352.96315405000934,None,352.96315405000934,None,352.96315405000934,None,,,,,,,,,,,,,,028,2022-05-23_10h52.44.503,Main,2022.1.1,59.11489632172298,
positive,negative,2,l,j,,,,,,,,,6,5,113,14,,,,,,,,,main,2,2,2,negative,positive,l,l,1,0.6985764000564814,352.96671989990864,353.98204969998915,353.9654141999781,None,352.96671989990864,None,352.96671989990864,None,352.96671989990864,None,354.6631299500121,None,354.6631299500121,None,354.6631299500121,None,,,,,,,,,,,,,,028,2022-05-23_10h52.44.503,Main,2022.1.1,59.11489632172298,
neutral,neutral,2,k,k,,,,,,,,,6,6,114,10,,,,,,,,,main,2,2,2,neutral,neutral,k,k,1,0.6315271999919787,354.6821895999601,355.6964648999274,355.6634785999777,None,354.6821895999601,None,354.6821895999601,None,354.6821895999601,None,356.29651374993847,None,356.29651374993847,None,356.29651374993847,None,,,,,,,,,,,,,,028,2022-05-23_10h52.44.503,Main,2022.1.1,59.11489632172298,
positive,positive,2,l,j,,,,,,,,,6,7,115,11,,,,,,,,,main,1,1,2,positive,positive,l,l,1,0.6304222999606282,356.3008937999839,357.31870459998026,357.30183569993824,None,356.3008937999839,None,356.3008937999839,None,356.3008937999839,None,357.9293644499965,None,357.9293644499965,None,357.9293644499965,None,,,,,,,,,,,,,,028,2022-05-23_10h52.44.503,Main,2022.1.1,59.11489632172298,
positive,negative,1,l,j,,,,,,,,,6,8,116,5,,,,,,,,,main,2,2,1,negative,positive,l,l,1,0.6818448000121862,357.92935509991366,358.9296825999627,358.9296825999627,None,357.92935509991366,None,357.92935509991366,None,357.92935509991366,None,359.61270354997833,None,359.61270354997833,None,359.61270354997833,None,,,,,,,,,,,,,,028,2022-05-23_10h52.44.503,Main,2022.1.1,59.11489632172298,
positive,neutral,2,l,j,,,,,,,,,6,9,117,17,,,,,,,,,main,2,2,2,neutral,positive,l,l,1,0.6335928000044078,359.61342179996427,360.6127076999983,360.6127076999983,None,359.61342179996427,None,359.61342179996427,None,359.61342179996427,None,361.2468077499187,None,361.2468077499187,None,361.2468077499187,None,,,,,,,,,,,,,,028,2022-05-23_10h52.44.503,Main,2022.1.1,59.11489632172298,
negative,positive,1,j,l,,,,,,,,,6,10,118,6,,,,,,,,,main,2,2,1,positive,negative,j,j,1,0.6301655999850482,361.25103859999217,362.2653060000157,362.24862759991083,None,361.25103859999217,None,361.25103859999217,None,361.25103859999217,None,362.87969684991987,None,362.87969684991987,None,362.87969684991987,None,,,,,,,,,,,,,,028,2022-05-23_10h52.44.503,Main,2022.1.1,59.11489632172298,
negative,negative,1,j,l,,,,,,,,,6,11,119,0,,,,,,,,,main,2,2,1,negative,negative,j,j,1,0.5481384000740945,362.88323949999176,363.8963182999287,363.8799605999375,None,362.88323949999176,None,362.88323949999176,None,362.88323949999176,None,364.42959354999476,None,364.42959354999476,None,364.42959354999476,None,,,,,,,,,,,,,,028,2022-05-23_10h52.44.503,Main,2022.1.1,59.11489632172298,
neutral,positive,1,k,k,,,,,,,,,6,12,120,4,,,,,,,,,main,1,1,1,positive,neutral,k,k,1,0.6311677999328822,364.4336058999179,365.44846240000334,365.43194709997624,None,364.4336058999179,None,364.4336058999179,None,364.4336058999179,None,366.0629236499779,None,366.0629236499779,None,366.0629236499779,None,,,,,,,,,,,,,,028,2022-05-23_10h52.44.503,Main,2022.1.1,59.11489632172298,
negative,positive,2,j,l,,,,,,,,,6,13,121,15,,,,,,,,,main,1,1,2,positive,negative,j,j,1,0.6816407999722287,366.06677629996557,367.0795668999199,367.0629137000069,None,366.06677629996557,None,366.06677629996557,None,366.06677629996557,None,367.7462245499017,None,367.7462245499017,None,367.7462245499017,None,,,,,,,,,,,,,,028,2022-05-23_10h52.44.503,Main,2022.1.1,59.11489632172298,
neutral,positive,2,k,k,,,,,,,,,6,14,122,13,,,,,,,,,main,1,1,2,positive,neutral,k,k,1,0.6648099001031369,367.74964880000334,368.7631841999246,368.74620819999836,None,367.74964880000334,None,367.74964880000334,None,367.74964880000334,None,369.412464249949,None,369.412464249949,None,369.412464249949,None,,,,,,,,,,,,,,028,2022-05-23_10h52.44.503,Main,2022.1.1,59.11489632172298,
positive,neutral,1,l,j,,,,,,,,,6,15,123,8,,,,,,,,,main,1,1,1,neutral,positive,l,l,1,0.6481203000294045,369.41249809996225,370.4124492999399,370.4124492999399,None,369.41249809996225,None,369.41249809996225,None,369.41249809996225,None,371.06251994993073,None,371.06251994993073,None,371.06251994993073,None,,,,,,,,,,,,,,028,2022-05-23_10h52.44.503,Main,2022.1.1,59.11489632172298,
positive,positive,1,l,j,,,,,,,,,6,16,124,2,,,,,,,,,main,2,2,1,positive,positive,l,l,1,0.6155179000925273,371.0670905999141,372.07981379993726,372.06515129993204,None,371.0670905999141,None,371.0670905999141,None,371.0670905999141,None,372.67945594999475,None,372.67945594999475,None,372.67945594999475,None,,,,,,,,,,,,,,028,2022-05-23_10h52.44.503,Main,2022.1.1,59.11489632172298,
neutral,negative,1,k,k,,,,,,,,,6,17,125,7,,,,,,,,,main,1,1,1,negative,neutral,k,k,1,0.6149387999903411,372.68301119992975,373.6961163999513,373.6794441000093,None,372.68301119992975,None,372.68301119992975,None,372.68301119992975,None,374.2961077499902,None,374.2961077499902,None,374.2961077499902,None,,,,,,,,,,,,,,028,2022-05-23_10h52.44.503,Main,2022.1.1,59.11489632172298,
neutral,positive,2,k,k,,,,,,,,,7,0,126,13,,,,,,,,,main,2,2,2,positive,neutral,k,k,1,0.5985348999965936,374.29961579991505,375.31298309995327,375.29840139998123,None,374.29961579991505,None,374.29961579991505,None,374.29961579991505,None,375.8960529500153,None,375.8960529500153,None,375.8960529500153,None,,,,,,,,,,,,,,028,2022-05-23_10h52.44.503,Main,2022.1.1,59.11489632172298,
neutral,negative,2,k,k,,,,,,,,,7,1,127,16,,,,,,,,,main,1,1,2,negative,neutral,k,k,1,0.565030200057663,375.8992765999865,376.8960402999073,376.8960402999073,None,375.8992765999865,None,375.8992765999865,None,375.8992765999865,None,377.46267975000666,None,377.46267975000666,None,377.46267975000666,None,,,,,,,,,,,,,,028,2022-05-23_10h52.44.503,Main,2022.1.1,59.11489632172298,
negative,positive,1,j,l,,,,,,,,,7,2,128,6,,,,,,,,,main,2,2,1,positive,negative,j,j,1,0.6979490000521764,377.46639929991215,378.48485249991063,378.4623942999169,None,377.46639929991215,None,377.46639929991215,None,377.46639929991215,None,379.1622825499624,None,379.1622825499624,None,379.1622825499624,None,,,,,,,,,,,,,,028,2022-05-23_10h52.44.503,Main,2022.1.1,59.11489632172298,
neutral,positive,1,k,k,,,,,,,,,7,3,129,4,,,,,,,,,main,2,2,1,positive,neutral,k,k,1,0.6652742000296712,379.16228359995876,380.1625000999775,380.1625000999775,None,379.16228359995876,None,379.16228359995876,None,379.16228359995876,None,380.8289652500069,None,380.8289652500069,None,380.8289652500069,None,,,,,,,,,,,,,,028,2022-05-23_10h52.44.503,Main,2022.1.1,59.11489632172298,
neutral,negative,1,k,k,,,,,,,,,7,4,130,7,,,,,,,,,main,1,1,1,negative,neutral,k,k,1,0.58154220005963,380.8294436999131,381.82894999999553,381.82894999999553,None,380.8294436999131,None,380.8294436999131,None,380.8294436999131,None,382.412259849906,None,382.412259849906,None,382.412259849906,None,,,,,,,,,,,,,,028,2022-05-23_10h52.44.503,Main,2022.1.1,59.11489632172298,
negative,neutral,1,j,l,,,,,,,,,7,5,131,3,,,,,,,,,main,2,2,1,neutral,negative,j,j,1,0.6822584000183269,382.4155418999726,383.41484969994053,383.41484969994053,None,382.4155418999726,None,382.4155418999726,None,382.4155418999726,None,384.09595664993395,None,384.09595664993395,None,384.09595664993395,None,,,,,,,,,,,,,,028,2022-05-23_10h52.44.503,Main,2022.1.1,59.11489632172298,
negative,negative,1,j,l,,,,,,,,,7,6,132,0,,,,,,,,,main,2,2,1,negative,negative,j,j,1,0.7149556999793276,384.0994569999166,385.11484950000886,385.09820459992625,None,384.0994569999166,None,384.0994569999166,None,384.0994569999166,None,385.8125344499247,None,385.8125344499247,None,385.8125344499247,None,,,,,,,,,,,,,,028,2022-05-23_10h52.44.503,Main,2022.1.1,59.11489632172298,
positive,neutral,2,l,j,,,,,,,,,7,7,133,17,,,,,,,,,main,2,2,2,neutral,positive,l,l,1,0.7317192000336945,385.8161774999462,386.831411399995,386.81482249998953,None,385.8161774999462,None,385.8161774999462,None,385.8161774999462,None,387.5458388499217,None,387.5458388499217,None,387.5458388499217,None,,,,,,,,,,,,,,028,2022-05-23_10h52.44.503,Main,2022.1.1,59.11489632172298,
neutral,neutral,2,k,k,,,,,,,,,7,8,134,10,,,,,,,,,main,2,2,2,neutral,neutral,k,k,1,0.6482012000633404,387.54942880000453,388.56463979999535,388.5481111999834,None,387.54942880000453,None,387.54942880000453,None,387.54942880000453,None,389.19577145001386,None,389.19577145001386,None,389.19577145001386,None,,,,,,,,,,,,,,028,2022-05-23_10h52.44.503,Main,2022.1.1,59.11489632172298,
positive,positive,2,l,j,,,,,,,,,7,9,135,11,,,,,,,,,main,2,2,2,positive,positive,l,l,1,0.6484784000786021,389.1991780999815,390.2120683999965,390.19540679990314,None,389.1991780999815,None,389.1991780999815,None,389.1991780999815,None,390.8457032499835,None,390.8457032499835,None,390.8457032499835,None,,,,,,,,,,,,,,028,2022-05-23_10h52.44.503,Main,2022.1.1,59.11489632172298,
negative,positive,2,j,l,,,,,,,,,7,10,136,15,,,,,,,,,main,2,2,2,positive,negative,j,j,1,0.698053199914284,390.8467063999269,391.8623435999034,391.8453892999096,None,390.8467063999269,None,390.8467063999269,None,390.8467063999269,None,392.5454042499885,None,392.5454042499885,None,392.5454042499885,None,,,,,,,,,,,,,,028,2022-05-23_10h52.44.503,Main,2022.1.1,59.11489632172298,
neutral,neutral,1,k,k,,,,,,,,,7,11,137,1,,,,,,,,,main,1,1,1,neutral,neutral,k,k,1,0.6153714000247419,392.54874979995657,393.5457160999067,393.5457160999067,None,392.54874979995657,None,392.54874979995657,None,392.54874979995657,None,394.1624432499055,None,394.1624432499055,None,394.1624432499055,None,,,,,,,,,,,,,,028,2022-05-23_10h52.44.503,Main,2022.1.1,59.11489632172298,
negative,negative,2,j,l,,,,,,,,,7,12,138,9,,,,,,,,,main,2,2,2,negative,negative,j,j,1,0.6647682000184432,394.1658274999354,395.1812821999192,395.16471199993975,None,394.1658274999354,None,394.1658274999354,None,394.1658274999354,None,395.8289991499158,None,395.8289991499158,None,395.8289991499158,None,,,,,,,,,,,,,,028,2022-05-23_10h52.44.503,Main,2022.1.1,59.11489632172298,
positive,negative,2,l,j,,,,,,,,,7,13,139,14,,,,,,,,,main,2,2,2,negative,positive,l,l,1,0.5981189999729395,395.83493379992433,396.8479185999604,396.82897609996144,None,395.83493379992433,None,395.83493379992433,None,395.83493379992433,None,397.42864914990497,None,397.42864914990497,None,397.42864914990497,None,,,,,,,,,,,,,,028,2022-05-23_10h52.44.503,Main,2022.1.1,59.11489632172298,
positive,positive,1,l,j,,,,,,,,,7,14,140,2,,,,,,,,,main,2,2,1,positive,positive,l,l,1,0.6488608999643475,397.4346943999408,398.4477998999646,398.42891499993857,None,397.4346943999408,None,397.4346943999408,None,397.4346943999408,None,399.0789140499663,None,399.0789140499663,None,399.0789140499663,None,,,,,,,,,,,,,,028,2022-05-23_10h52.44.503,Main,2022.1.1,59.11489632172298,
negative,neutral,2,j,l,,,,,,,,,7,15,141,12,,,,,,,,,main,2,2,2,neutral,negative,j,j,1,0.6144391000270844,399.08266549999826,400.095205099904,400.07854269992094,None,399.08266549999826,None,399.08266549999826,None,399.08266549999826,None,400.69519604993985,None,400.69519604993985,None,400.69519604993985,None,,,,,,,,,,,,,,028,2022-05-23_10h52.44.503,Main,2022.1.1,59.11489632172298,
positive,negative,1,l,j,,,,,,,,,7,16,142,5,,,,,,,,,main,1,1,1,negative,positive,l,l,1,0.9319036999950185,400.6956172999926,401.6951931999065,401.6951931999065,None,400.6956172999926,None,400.6956172999926,None,400.6956172999926,None,402.62851484999993,None,402.62851484999993,None,402.62851484999993,None,,,,,,,,,,,,,,028,2022-05-23_10h52.44.503,Main,2022.1.1,59.11489632172298,
positive,neutral,1,l,j,,,,,,,,,7,17,143,8,,,,,,,,,main,2,2,1,neutral,positive,l,l,1,0.5823454998899251,402.62964269996155,403.6451925999718,403.62851830001455,None,402.62964269996155,None,402.62964269996155,None,402.62964269996155,None,404.2121883499902,None,404.2121883499902,None,404.2121883499902,None,,,,,,,,,,,,,,028,2022-05-23_10h52.44.503,Main,2022.1.1,59.11489632172298,
negative,negative,1,j,l,,,,,,,,,8,0,144,0,,,,,,,,,main,2,2,1,negative,negative,j,j,1,0.668155699968338,404.2160718999803,405.23111519997474,405.21443009993527,None,404.2160718999803,None,404.2160718999803,None,404.2160718999803,None,405.8810349499807,None,405.8810349499807,None,405.8810349499807,None,,,,,,,,,,,,,,028,2022-05-23_10h52.44.503,Main,2022.1.1,59.11489632172298,
neutral,neutral,1,k,k,,,,,,,,,8,1,145,1,,,,,,,,,main,2,2,1,neutral,neutral,k,k,1,0.6115433999802917,405.8853204000043,406.89767149998806,406.8811429999769,None,405.8853204000043,None,405.8853204000043,None,405.8853204000043,None,407.4954327499261,None,407.4954327499261,None,407.4954327499261,None,,,,,,,,,,,,,,028,2022-05-23_10h52.44.503,Main,2022.1.1,59.11489632172298,
neutral,negative,1,k,k,,,,,,,,,8,2,146,7,,,,,,,,,main,2,2,1,negative,neutral,k,k,1,0.5320472000166774,407.5034969999688,408.51426580001134,408.49769330001436,None,407.5034969999688,None,407.5034969999688,None,407.5034969999688,None,409.02872504999397,None,409.02872504999397,None,409.02872504999397,None,,,,,,,,,,,,,,028,2022-05-23_10h52.44.503,Main,2022.1.1,59.11489632172298,
positive,neutral,1,l,j,,,,,,,,,8,3,147,8,,,,,,,,,main,2,2,1,neutral,positive,l,l,1,0.5984385000774637,409.0327670999104,410.0453933000099,410.0310429999372,None,409.0327670999104,None,409.0327670999104,None,409.0327670999104,None,410.6287622499047,None,410.6287622499047,None,410.6287622499047,None,,,,,,,,,,,,,,028,2022-05-23_10h52.44.503,Main,2022.1.1,59.11489632172298,
negative,positive,1,j,l,,,,,,,,,8,4,148,6,,,,,,,,,main,1,1,1,positive,negative,j,j,1,0.7977737000910565,410.6326124999905,411.64499369997066,411.62855319993105,None,410.6326124999905,None,410.6326124999905,None,410.6326124999905,None,412.42827274994926,None,412.42827274994926,None,412.42827274994926,None,,,,,,,,,,,,,,028,2022-05-23_10h52.44.503,Main,2022.1.1,59.11489632172298,
positive,positive,1,l,j,,,,,,,,,8,5,149,2,,,,,,,,,main,1,1,1,positive,positive,l,l,1,0.7490905999438837,412.42829149996396,413.4283265999984,413.4283265999984,None,412.42829149996396,None,412.42829149996396,None,412.42829149996396,None,414.1787244500127,None,414.1787244500127,None,414.1787244500127,None,,,,,,,,,,,,,,028,2022-05-23_10h52.44.503,Main,2022.1.1,59.11489632172298,
neutral,neutral,2,k,k,,,,,,,,,8,6,150,10,,,,,,,,,main,2,2,2,neutral,neutral,k,k,1,0.6317145000211895,414.1824798999587,415.1956743999617,415.1788770999992,None,414.1824798999587,None,414.1824798999587,None,414.1824798999587,None,415.8119573499542,None,415.8119573499542,None,415.8119573499542,None,,,,,,,,,,,,,,028,2022-05-23_10h52.44.503,Main,2022.1.1,59.11489632172298,
negative,negative,2,j,l,,,,,,,,,8,7,151,9,,,,,,,,,main,1,1,2,negative,negative,j,j,1,0.7149489000439644,415.8153617999051,416.8308304999955,416.8142466999125,None,415.8153617999051,None,415.8153617999051,None,415.8153617999051,None,417.5287101499969,None,417.5287101499969,None,417.5287101499969,None,,,,,,,,,,,,,,028,2022-05-23_10h52.44.503,Main,2022.1.1,59.11489632172298,
negative,neutral,1,j,l,,,,,,,,,8,8,152,3,,,,,,,,,main,2,2,1,neutral,negative,j,j,1,0.6005304999416694,417.5322046999354,418.54740419995505,418.5307298999978,None,417.5322046999354,None,417.5322046999354,None,417.5322046999354,None,419.130841549905,None,419.130841549905,None,419.130841549905,None,,,,,,,,,,,,,,028,2022-05-23_10h52.44.503,Main,2022.1.1,59.11489632172298,
positive,negative,2,l,j,,,,,,,,,8,9,153,14,,,,,,,,,main,1,1,2,negative,positive,l,l,1,0.6518035000190139,419.1337045999244,420.14521619991865,420.12849239993375,None,419.1337045999244,None,419.1337045999244,None,419.1337045999244,None,420.78422374995426,None,420.78422374995426,None,420.78422374995426,None,,,,,,,,,,,,,,028,2022-05-23_10h52.44.503,Main,2022.1.1,59.11489632172298,
neutral,negative,2,k,k,,,,,,,,,8,10,154,16,,,,,,,,,main,2,2,2,negative,neutral,k,k,1,0.5922985000070184,420.7951333000092,421.7950136999134,421.7783599999966,None,420.7951333000092,None,420.7951333000092,None,420.7951333000092,None,422.3780750499107,None,422.3780750499107,None,422.3780750499107,None,,,,,,,,,,,,,,028,2022-05-23_10h52.44.503,Main,2022.1.1,59.11489632172298,
positive,negative,1,l,j,,,,,,,,,8,11,155,5,,,,,,,,,main,2,2,1,negative,positive,l,l,1,0.6484224000014365,422.3790541999042,423.3781052000122,423.3781052000122,None,422.3790541999042,None,422.3790541999042,None,422.3790541999042,None,424.02809194994626,None,424.02809194994626,None,424.02809194994626,None,,,,,,,,,,,,,,028,2022-05-23_10h52.44.503,Main,2022.1.1,59.11489632172298,
positive,positive,2,l,j,,,,,,,,,8,12,156,11,,,,,,,,,main,2,2,2,positive,positive,l,l,1,0.7322185999946669,424.0286042999942,425.0281160000013,425.0281160000013,None,424.0286042999942,None,424.0286042999942,None,424.0286042999942,None,425.7618562499527,None,425.7618562499527,None,425.7618562499527,None,,,,,,,,,,,,,,028,2022-05-23_10h52.44.503,Main,2022.1.1,59.11489632172298,
neutral,positive,2,k,k,,,,,,,,,8,13,157,13,,,,,,,,,main,1,1,2,positive,neutral,k,k,1,0.61598830006551,425.76532729994506,426.7806750999298,426.7640736999456,None,425.76532729994506,None,425.76532729994506,None,425.76532729994506,None,427.3793853499927,None,427.3793853499927,None,427.3793853499927,None,,,,,,,,,,,,,,028,2022-05-23_10h52.44.503,Main,2022.1.1,59.11489632172298,
neutral,positive,1,k,k,,,,,,,,,8,14,158,4,,,,,,,,,main,1,1,1,positive,neutral,k,k,1,0.9662910000188276,427.38532609993126,428.3972147000022,428.3805429999484,None,427.38532609993126,None,427.38532609993126,None,427.38532609993126,None,429.3471873499919,None,429.3471873499919,None,429.3471873499919,None,,,,,,,,,,,,,,028,2022-05-23_10h52.44.503,Main,2022.1.1,59.11489632172298,
negative,neutral,2,j,l,,,,,,,,,8,15,159,12,,,,,,,,,main,1,1,2,neutral,negative,j,j,1,0.7139807000057772,429.35018589999527,430.3638144999277,430.3472135999473,None,429.35018589999527,None,429.35018589999527,None,429.35018589999527,None,431.0616330499295,None,431.0616330499295,None,431.0616330499295,None,,,,,,,,,,,,,,028,2022-05-23_10h52.44.503,Main,2022.1.1,59.11489632172298,
negative,positive,2,j,l,,,,,,,,,8,16,160,15,,,,,,,,,main,1,1,2,positive,negative,j,j,1,0.5638288999907672,431.0659828999778,432.08052720001433,432.0639029999729,None,431.0659828999778,None,431.0659828999778,None,431.0659828999778,None,432.62821514992976,None,432.62821514992976,None,432.62821514992976,None,,,,,,,,,,,,,,028,2022-05-23_10h52.44.503,Main,2022.1.1,59.11489632172298,
positive,neutral,2,l,j,,,,,,,,,8,17,161,17,,,,,,,,,main,2,2,2,neutral,positive,l,l,1,0.5983855000231415,432.63214219990186,433.64455339999404,433.628103199997,None,432.63214219990186,None,432.63214219990186,None,432.63214219990186,None,434.22809494992254,None,434.22809494992254,None,434.22809494992254,None,,,,,,,,,,,,,,028,2022-05-23_10h52.44.503,Main,2022.1.1,59.11489632172298,
neutral,negative,1,k,k,,,,,,,,,9,0,162,7,,,,,,,,,main,2,2,1,negative,neutral,k,k,1,0.5814133000094444,434.2292379999999,435.2447910999181,435.22809609991964,None,434.2292379999999,None,434.2292379999999,None,434.2292379999999,None,435.8112111499766,None,435.8112111499766,None,435.8112111499766,None,,,,,,,,,,,,,,028,2022-05-23_10h52.44.503,Main,2022.1.1,59.11489632172298,
positive,negative,1,l,j,,,,,,,,,9,1,163,5,,,,,,,,,main,1,1,1,negative,positive,l,l,1,0.6320612999843433,435.8116820999421,436.811202300014,436.811202300014,None,435.8116820999421,None,435.8116820999421,None,435.8116820999421,None,437.44484994998203,None,437.44484994998203,None,437.44484994998203,None,,,,,,,,,,,,,,028,2022-05-23_10h52.44.503,Main,2022.1.1,59.11489632172298,
negative,neutral,2,j,l,,,,,,,,,9,2,164,12,,,,,,,,,main,2,2,2,neutral,negative,j,j,1,0.6315279999980703,437.4492326999316,438.4638467999175,438.44486039993353,None,437.4492326999316,None,437.4492326999316,None,437.4492326999316,None,439.07813895000146,None,439.07813895000146,None,439.07813895000146,None,,,,,,,,,,,,,,028,2022-05-23_10h52.44.503,Main,2022.1.1,59.11489632172298,
negative,negative,2,j,l,,,,,,,,,9,3,165,9,,,,,,,,,main,2,2,2,negative,negative,j,j,1,0.550545800011605,439.081594999996,440.0970699999016,440.08045799995307,None,439.081594999996,None,439.081594999996,None,439.081594999996,None,440.63029064990116,None,440.63029064990116,None,440.63029064990116,None,,,,,,,,,,,,,,028,2022-05-23_10h52.44.503,Main,2022.1.1,59.11489632172298,
negative,neutral,1,j,l,,,,,,,,,9,4,166,3,,,,,,,,,main,2,2,1,neutral,negative,j,j,1,0.6461197999306023,440.6344605999766,441.6468881999608,441.630414599902,None,440.6344605999766,None,440.6344605999766,None,440.6344605999766,None,442.27807005001233,None,442.27807005001233,None,442.27807005001233,None,,,,,,,,,,,,,,028,2022-05-23_10h52.44.503,Main,2022.1.1,59.11489632172298,
neutral,neutral,2,k,k,,,,,,,,,9,5,167,10,,,,,,,,,main,1,1,2,neutral,neutral,k,k,1,0.599252299987711,442.28162159991916,443.2950672999723,443.2782858000137,None,442.28162159991916,None,442.28162159991916,None,442.28162159991916,None,443.87800254994073,None,443.87800254994073,None,443.87800254994073,None,,,,,,,,,,,,,,028,2022-05-23_10h52.44.503,Main,2022.1.1,59.11489632172298,
neutral,positive,1,k,k,,,,,,,,,9,6,168,4,,,,,,,,,main,2,2,1,positive,neutral,k,k,1,0.6141605000011623,443.8847888999153,444.8945255000144,444.8778934999136,None,443.8847888999153,None,443.8847888999153,None,443.8847888999153,None,445.4946033500135,None,445.4946033500135,None,445.4946033500135,None,,,,,,,,,,,,,,028,2022-05-23_10h52.44.503,Main,2022.1.1,59.11489632172298,
neutral,negative,2,k,k,,,,,,,,,9,7,169,16,,,,,,,,,main,2,2,2,negative,neutral,k,k,1,0.5152417001081631,445.49442559992895,446.4943542999681,446.4943542999681,None,445.49442559992895,None,445.49442559992895,None,445.49442559992895,None,447.011319349939,None,447.011319349939,None,447.011319349939,None,,,,,,,,,,,,,,028,2022-05-23_10h52.44.503,Main,2022.1.1,59.11489632172298,
positive,neutral,1,l,j,,,,,,,,,9,8,170,8,,,,,,,,,main,2,2,1,neutral,positive,l,l,1,0.6315997999627143,447.0149696000153,448.02798449993134,448.01130519993603,None,447.0149696000153,None,447.0149696000153,None,447.0149696000153,None,448.64460754995235,None,448.64460754995235,None,448.64460754995235,None,,,,,,,,,,,,,,028,2022-05-23_10h52.44.503,Main,2022.1.1,59.11489632172298,
negative,negative,1,j,l,,,,,,,,,9,9,171,0,,,,,,,,,main,2,2,1,negative,negative,j,j,1,0.7146815999876708,448.64853130001575,449.6616247999482,449.64460979995783,None,448.64853130001575,None,448.64853130001575,None,448.64853130001575,None,450.36092814996374,None,450.36092814996374,None,450.36092814996374,None,,,,,,,,,,,,,,028,2022-05-23_10h52.44.503,Main,2022.1.1,59.11489632172298,
negative,positive,1,j,l,,,,,,,,,9,10,172,6,,,,,,,,,main,2,2,1,positive,negative,j,j,1,0.5689123999327421,450.36736429994926,451.380198800005,451.36356339999475,None,450.36736429994926,None,450.36736429994926,None,450.36736429994926,None,451.9294535499765,None,451.9294535499765,None,451.9294535499765,None,,,,,,,,,,,,,,028,2022-05-23_10h52.44.503,Main,2022.1.1,59.11489632172298,
positive,positive,2,l,j,,,,,,,,,9,11,173,11,,,,,,,,,main,1,1,2,positive,positive,l,l,1,0.6947040000231937,451.93436620000284,452.944546099985,452.928110799985,None,451.93436620000284,None,451.93436620000284,None,451.93436620000284,None,453.6275224500103,None,453.6275224500103,None,453.6275224500103,None,,,,,,,,,,,,,,028,2022-05-23_10h52.44.503,Main,2022.1.1,59.11489632172298,
neutral,positive,2,k,k,,,,,,,,,9,12,174,13,,,,,,,,,main,2,2,2,positive,neutral,k,k,1,0.6149482000619173,453.63118029991165,454.64412359998096,454.627450699918,None,453.63118029991165,None,453.63118029991165,None,453.63118029991165,None,455.2440985500114,None,455.2440985500114,None,455.2440985500114,None,,,,,,,,,,,,,,028,2022-05-23_10h52.44.503,Main,2022.1.1,59.11489632172298,
neutral,neutral,1,k,k,,,,,,,,,9,13,175,1,,,,,,,,,main,1,1,1,neutral,neutral,k,k,1,0.5651292001130059,455.2441045999294,456.24438139994163,456.24438139994163,None,455.2441045999294,None,455.2441045999294,None,455.2441045999294,None,456.8107911499217,None,456.8107911499217,None,456.8107911499217,None,,,,,,,,,,,,,,028,2022-05-23_10h52.44.503,Main,2022.1.1,59.11489632172298,
positive,negative,2,l,j,,,,,,,,,9,14,176,14,,,,,,,,,main,2,2,2,negative,positive,l,l,1,0.6190421999199316,456.81120190001093,457.81110399996396,457.81110399996396,None,456.81120190001093,None,456.81120190001093,None,456.81120190001093,None,458.4275233499473,None,458.4275233499473,None,458.4275233499473,None,,,,,,,,,,,,,,028,2022-05-23_10h52.44.503,Main,2022.1.1,59.11489632172298,
positive,neutral,2,l,j,,,,,,,,,9,15,177,17,,,,,,,,,main,2,2,2,neutral,positive,l,l,1,0.5771750001003966,458.43856839998625,459.4466747000115,459.4133448000066,None,458.43856839998625,None,458.43856839998625,None,458.43856839998625,None,460.01105824992993,None,460.01105824992993,None,460.01105824992993,None,,,,,,,,,,,,,,028,2022-05-23_10h52.44.503,Main,2022.1.1,59.11489632172298,
negative,positive,2,j,l,,,,,,,,,9,16,178,15,,,,,,,,,main,1,1,2,positive,negative,j,j,1,1.1982908999780193,460.01466190000065,461.0280143999262,461.01136619993486,None,460.01466190000065,None,460.01466190000065,None,460.01466190000065,None,462.2110014499165,None,462.2110014499165,None,462.2110014499165,None,,,,,,,,,,,,,,028,2022-05-23_10h52.44.503,Main,2022.1.1,59.11489632172298,
positive,positive,1,l,j,,,,,,,,,9,17,179,2,,,,,,,,,main,1,1,1,positive,positive,l,l,1,0.681613799999468,462.21476369991433,463.22981139994226,463.21330499998294,None,462.21476369991433,None,462.21476369991433,None,462.21476369991433,None,463.89432884992567,None,463.89432884992567,None,463.89432884992567,None,,,,,,,,,,,,,,028,2022-05-23_10h52.44.503,Main,2022.1.1,59.11489632172298,
neutral,negative,1,k,k,,,,,,,,,10,0,180,7,,,,,,,,,main,2,2,1,negative,neutral,k,k,1,0.6151312000583857,463.89797729998827,464.9131769000087,464.8965764999157,None,463.89797729998827,None,463.89797729998827,None,463.89797729998827,None,465.511046249955,None,465.511046249955,None,465.511046249955,None,,,,,,,,,,,,,,028,2022-05-23_10h52.44.503,Main,2022.1.1,59.11489632172298,
negative,neutral,1,j,l,,,,,,,,,10,1,181,3,,,,,,,,,main,1,1,1,neutral,negative,j,j,1,0.6811537999892607,465.51501579990145,466.52723599993624,466.51057189994026,None,465.51501579990145,None,465.51501579990145,None,465.51501579990145,None,467.1938880499918,None,467.1938880499918,None,467.1938880499918,None,,,,,,,,,,,,,,028,2022-05-23_10h52.44.503,Main,2022.1.1,59.11489632172298,
positive,negative,1,l,j,,,,,,,,,10,2,182,5,,,,,,,,,main,1,1,1,negative,positive,l,l,1,0.6652045000810176,467.1938871999737,468.19388959999196,468.19388959999196,None,467.1938871999737,None,467.1938871999737,None,467.1938871999737,None,468.8605388499098,None,468.8605388499098,None,468.8605388499098,None,,,,,,,,,,,,,,028,2022-05-23_10h52.44.503,Main,2022.1.1,59.11489632172298,
negative,positive,2,j,l,,,,,,,,,10,3,183,15,,,,,,,,,main,2,2,2,positive,negative,j,j,1,0.6650968000758439,468.86109979997855,469.8608809999423,469.8608809999423,None,468.86109979997855,None,468.86109979997855,None,468.86109979997855,None,470.52720604995267,None,470.52720604995267,None,470.52720604995267,None,,,,,,,,,,,,,,028,2022-05-23_10h52.44.503,Main,2022.1.1,59.11489632172298,
neutral,neutral,1,k,k,,,,,,,,,10,4,184,1,,,,,,,,,main,2,2,1,neutral,neutral,k,k,1,0.5654463999671862,470.53054669999983,471.5298150999006,471.5298150999006,None,470.53054669999983,None,470.53054669999983,None,470.53054669999983,None,472.0941945499042,None,472.0941945499042,None,472.0941945499042,None,,,,,,,,,,,,,,028,2022-05-23_10h52.44.503,Main,2022.1.1,59.11489632172298,
positive,negative,2,l,j,,,,,,,,,10,5,185,14,,,,,,,,,main,2,2,2,negative,positive,l,l,1,0.631542699993588,472.0977161999326,473.1130848999601,473.0964955999516,None,472.0977161999326,None,472.0977161999326,None,472.0977161999326,None,473.7274606499821,None,473.7274606499821,None,473.7274606499821,None,,,,,,,,,,,,,,028,2022-05-23_10h52.44.503,Main,2022.1.1,59.11489632172298,
positive,positive,1,l,j,,,,,,,,,10,6,186,2,,,,,,,,,main,2,2,1,positive,positive,l,l,1,0.7813790999352932,473.7311705999309,474.7440764999483,474.7298027999932,None,473.7311705999309,None,473.7311705999309,None,473.7311705999309,None,475.51045874990524,None,475.51045874990524,None,475.51045874990524,None,,,,,,,,,,,,,,028,2022-05-23_10h52.44.503,Main,2022.1.1,59.11489632172298,
negative,neutral,2,j,l,,,,,,,,,10,7,187,12,,,,,,,,,main,2,2,2,neutral,negative,j,j,1,0.6353360000066459,475.5169483999489,476.52958929992747,476.5128937999252,None,475.5169483999489,None,475.5169483999489,None,475.5169483999489,None,477.146352249966,None,477.146352249966,None,477.146352249966,None,,,,,,,,,,,,,,028,2022-05-23_10h52.44.503,Main,2022.1.1,59.11489632172298,
negative,negative,2,j,l,,,,,,,,,10,8,188,9,,,,,,,,,main,2,2,2,negative,negative,j,j,1,0.5448906000237912,477.150286899996,478.1603383999318,478.14367239992134,None,477.150286899996,None,477.150286899996,None,477.150286899996,None,478.6936585499905,None,478.6936585499905,None,478.6936585499905,None,,,,,,,,,,,,,,028,2022-05-23_10h52.44.503,Main,2022.1.1,59.11489632172298,
neutral,neutral,2,k,k,,,,,,,,,10,9,189,10,,,,,,,,,main,2,2,2,neutral,neutral,k,k,1,1.0653250000905246,478.6939895999385,479.6939165999647,479.6939165999647,None,478.6939895999385,None,478.6939895999385,None,478.6939895999385,None,480.7608078500023,None,480.7608078500023,None,480.7608078500023,None,,,,,,,,,,,,,,028,2022-05-23_10h52.44.503,Main,2022.1.1,59.11489632172298,
neutral,positive,2,k,k,,,,,,,,,10,10,190,13,,,,,,,,,main,2,2,2,positive,neutral,k,k,1,0.5647402000613511,480.7673131999327,481.77746679994743,481.7606395999901,None,480.7673131999327,None,480.7673131999327,None,480.7673131999327,None,482.32725924993866,None,482.32725924993866,None,482.32725924993866,None,,,,,,,,,,,,,,028,2022-05-23_10h52.44.503,Main,2022.1.1,59.11489632172298,
neutral,positive,1,k,k,,,,,,,,,10,11,191,4,,,,,,,,,main,1,1,1,positive,neutral,k,k,1,0.5983937999699265,482.331367900013,483.34606099990197,483.32730010000523,None,482.331367900013,None,482.331367900013,None,482.331367900013,None,483.9272398500005,None,483.9272398500005,None,483.9272398500005,None,,,,,,,,,,,,,,028,2022-05-23_10h52.44.503,Main,2022.1.1,59.11489632172298,
positive,neutral,2,l,j,,,,,,,,,10,12,192,17,,,,,,,,,main,2,2,2,neutral,positive,l,l,1,0.6488866999279708,483.9307477999246,484.94619329995476,484.9295984999044,None,483.9307477999246,None,483.9307477999246,None,483.9307477999246,None,485.5772252499126,None,485.5772252499126,None,485.5772252499126,None,,,,,,,,,,,,,,028,2022-05-23_10h52.44.503,Main,2022.1.1,59.11489632172298,
neutral,negative,2,k,k,,,,,,,,,10,13,193,16,,,,,,,,,main,2,2,2,negative,neutral,k,k,1,0.6145858999807388,485.5810219999403,486.59614129993133,486.5794177999487,None,485.5810219999403,None,485.5810219999403,None,485.5810219999403,None,487.1938603500137,None,487.1938603500137,None,487.1938603500137,None,,,,,,,,,,,,,,028,2022-05-23_10h52.44.503,Main,2022.1.1,59.11489632172298,
negative,positive,1,j,l,,,,,,,,,10,14,194,6,,,,,,,,,main,1,1,1,positive,negative,j,j,1,0.5978706000605598,487.1972518999828,488.21044789999723,488.19346739992034,None,487.1972518999828,None,487.1972518999828,None,487.1972518999828,None,488.7934211499058,None,488.7934211499058,None,488.7934211499058,None,,,,,,,,,,,,,,028,2022-05-23_10h52.44.503,Main,2022.1.1,59.11489632172298,
positive,neutral,1,l,j,,,,,,,,,10,15,195,8,,,,,,,,,main,1,1,1,neutral,positive,l,l,1,0.6682320000836626,488.79341179993935,489.79345649993047,489.79345649993047,None,488.79341179993935,None,488.79341179993935,None,488.79341179993935,None,490.46017144999934,None,490.46017144999934,None,490.46017144999934,None,,,,,,,,,,,,,,028,2022-05-23_10h52.44.503,Main,2022.1.1,59.11489632172298,
negative,negative,1,j,l,,,,,,,,,10,16,196,0,,,,,,,,,main,2,2,1,negative,negative,j,j,1,0.7783218000549823,490.465202899999,491.4770451999502,491.4603604999138,None,490.465202899999,None,490.465202899999,None,490.465202899999,None,492.2436427499168,None,492.2436427499168,None,492.2436427499168,None,,,,,,,,,,,,,,028,2022-05-23_10h52.44.503,Main,2022.1.1,59.11489632172298,
positive,positive,2,l,j,,,,,,,,,10,17,197,11,,,,,,,,,main,1,1,2,positive,positive,l,l,1,0.6654571000253782,492.2498151999898,493.26271339994855,493.24610839993693,None,492.2498151999898,None,492.2498151999898,None,492.2498151999898,None,493.910421349993,None,493.910421349993,None,493.910421349993,None,,,,,,,,,,,,,,028,2022-05-23_10h52.44.503,Main,2022.1.1,59.11489632172298,
neutral,positive,1,k,k,,,,,,,,,11,0,198,4,,,,,,,,,main,2,2,1,positive,neutral,k,k,1,0.5978713999502361,493.91482529998757,494.9292592999991,494.91036209999584,None,493.91482529998757,None,493.91482529998757,None,493.91482529998757,None,495.51005124994555,None,495.51005124994555,None,495.51005124994555,None,,,,,,,,,,,,,,028,2022-05-23_10h52.44.503,Main,2022.1.1,59.11489632172298,
negative,positive,1,j,l,,,,,,,,,11,1,199,6,,,,,,,,,main,1,1,1,positive,negative,j,j,1,0.5819364000344649,495.5164896999486,496.52726110001095,496.51058609993197,None,495.5164896999486,None,495.5164896999486,None,495.5164896999486,None,497.0936310499208,None,497.0936310499208,None,497.0936310499208,None,,,,,,,,,,,,,,028,2022-05-23_10h52.44.503,Main,2022.1.1,59.11489632172298,
neutral,negative,1,k,k,,,,,,,,,11,2,200,7,,,,,,,,,main,1,1,1,negative,neutral,k,k,1,0.6487747000064701,497.0972264999291,498.0936528999591,498.0936528999591,None,497.0972264999291,None,497.0972264999291,None,497.0972264999291,None,498.7438794499729,None,498.7438794499729,None,498.7438794499729,None,,,,,,,,,,,,,,028,2022-05-23_10h52.44.503,Main,2022.1.1,59.11489632172298,
neutral,neutral,1,k,k,,,,,,,,,11,3,201,1,,,,,,,,,main,1,1,1,neutral,neutral,k,k,1,0.5145933999447152,498.75441269995645,499.7602178999223,499.7436042999616,None,498.75441269995645,None,498.75441269995645,None,498.75441269995645,None,500.2601871499326,None,500.2601871499326,None,500.2601871499326,None,,,,,,,,,,,,,,028,2022-05-23_10h52.44.503,Main,2022.1.1,59.11489632172298,
positive,negative,2,l,j,,,,,,,,,11,4,202,14,,,,,,,,,main,1,1,2,negative,positive,l,l,1,0.6483863999601454,500.2599207999883,501.26016569999047,501.26016569999047,None,500.2599207999883,None,500.2599207999883,None,500.2599207999883,None,501.9101517499192,None,501.9101517499192,None,501.9101517499192,None,,,,,,,,,,,,,,028,2022-05-23_10h52.44.503,Main,2022.1.1,59.11489632172298,
negative,neutral,2,j,l,,,,,,,,,11,5,203,12,,,,,,,,,main,1,1,2,neutral,negative,j,j,1,0.7361657000146806,501.9164038999006,502.9290636999067,502.9124927999219,None,501.9164038999006,None,501.9164038999006,None,501.9164038999006,None,503.6458893499337,None,503.6458893499337,None,503.6458893499337,None,,,,,,,,,,,,,,028,2022-05-23_10h52.44.503,Main,2022.1.1,59.11489632172298,
negative,neutral,1,j,l,,,,,,,,,11,6,204,3,,,,,,,,,main,1,1,1,neutral,negative,j,j,1,0.8271616999991238,503.65123600000516,504.66244789992925,504.64580169995315,None,503.65123600000516,None,503.65123600000516,None,503.65123600000516,None,505.4768169499701,None,505.4768169499701,None,505.4768169499701,None,,,,,,,,,,,,,,028,2022-05-23_10h52.44.503,Main,2022.1.1,59.11489632172298,
neutral,negative,2,k,k,,,,,,,,,11,7,205,16,,,,,,,,,main,1,1,2,negative,neutral,k,k,1,0.6009794001001865,505.4797836999642,506.47680319997016,506.4624347999925,None,505.4797836999642,None,505.4797836999642,None,505.4797836999642,None,507.07913144999185,None,507.07913144999185,None,507.07913144999185,None,,,,,,,,,,,,,,028,2022-05-23_10h52.44.503,Main,2022.1.1,59.11489632172298,
positive,positive,2,l,j,,,,,,,,,11,8,206,11,,,,,,,,,main,1,1,2,positive,positive,l,l,1,0.5961523000150919,507.0824650999857,508.0956282999832,508.07900219992734,None,507.0824650999857,None,507.0824650999857,None,507.0824650999857,None,508.676722649904,None,508.676722649904,None,508.676722649904,None,,,,,,,,,,,,,,028,2022-05-23_10h52.44.503,Main,2022.1.1,59.11489632172298,
neutral,neutral,2,k,k,,,,,,,,,11,9,207,10,,,,,,,,,main,2,2,2,neutral,neutral,k,k,1,0.6311991000548005,508.680457899929,509.6930244999239,509.676355100004,None,508.680457899929,None,508.680457899929,None,508.680457899929,None,510.30966904999224,None,510.30966904999224,None,510.30966904999224,None,,,,,,,,,,,,,,028,2022-05-23_10h52.44.503,Main,2022.1.1,59.11489632172298,
positive,negative,1,l,j,,,,,,,,,11,10,208,5,,,,,,,,,main,1,1,1,negative,positive,l,l,1,0.6320573999546468,510.30966529995203,511.30970280000474,511.30970280000474,None,510.30966529995203,None,510.30966529995203,None,510.30966529995203,None,511.9433804499684,None,511.9433804499684,None,511.9433804499684,None,,,,,,,,,,,,,,028,2022-05-23_10h52.44.503,Main,2022.1.1,59.11489632172298,
negative,negative,1,j,l,,,,,,,,,11,11,209,0,,,,,,,,,main,2,2,1,negative,negative,j,j,1,0.6317079999716952,511.9474998000078,512.9622501999838,512.9433346999576,None,511.9474998000078,None,511.9474998000078,None,511.9474998000078,None,513.576638249983,None,513.576638249983,None,513.576638249983,None,,,,,,,,,,,,,,028,2022-05-23_10h52.44.503,Main,2022.1.1,59.11489632172298,
positive,positive,1,l,j,,,,,,,,,11,12,210,2,,,,,,,,,main,2,2,1,positive,positive,l,l,1,0.6484254999086261,513.5813192999922,514.5954450999852,514.5766184999375,None,513.5813192999922,None,513.5813192999922,None,513.5813192999922,None,515.2266031499719,None,515.2266031499719,None,515.2266031499719,None,,,,,,,,,,,,,,028,2022-05-23_10h52.44.503,Main,2022.1.1,59.11489632172298,
neutral,positive,2,k,k,,,,,,,,,11,13,211,13,,,,,,,,,main,2,2,2,positive,neutral,k,k,1,0.9650562000460923,515.2301093999995,516.2455391999101,516.2265718999552,None,515.2301093999995,None,515.2301093999995,None,515.2301093999995,None,517.1932240499416,None,517.1932240499416,None,517.1932240499416,None,,,,,,,,,,,,,,028,2022-05-23_10h52.44.503,Main,2022.1.1,59.11489632172298,
positive,neutral,2,l,j,,,,,,,,,11,14,212,17,,,,,,,,,main,2,2,2,neutral,positive,l,l,1,0.6342102000489831,517.1965002999641,518.1955131000141,518.1955131000141,None,517.1965002999641,None,517.1965002999641,None,517.1965002999641,None,518.8289422499481,None,518.8289422499481,None,518.8289422499481,None,,,,,,,,,,,,,,028,2022-05-23_10h52.44.503,Main,2022.1.1,59.11489632172298,
negative,negative,2,j,l,,,,,,,,,11,15,213,9,,,,,,,,,main,2,2,2,negative,negative,j,j,1,0.6288645999738947,518.843154000002,519.8430642000167,519.8263917999575,None,518.843154000002,None,518.843154000002,None,518.843154000002,None,520.4597120499936,None,520.4597120499936,None,520.4597120499936,None,,,,,,,,,,,,,,028,2022-05-23_10h52.44.503,Main,2022.1.1,59.11489632172298,
positive,neutral,1,l,j,,,,,,,,,11,16,214,8,,,,,,,,,main,1,1,1,neutral,positive,l,l,1,0.6985967000946403,520.4626932999818,521.4597646999173,521.4597646999173,None,520.4626932999818,None,520.4626932999818,None,520.4626932999818,None,522.1596894500078,None,522.1596894500078,None,522.1596894500078,None,,,,,,,,,,,,,,028,2022-05-23_10h52.44.503,Main,2022.1.1,59.11489632172298,
negative,positive,2,j,l,,,,,,,,,11,17,215,15,,,,,,,,,main,2,2,2,positive,negative,j,j,1,0.6829388000769541,522.16294989991,523.1764732999727,523.1601105999434,None,522.16294989991,None,522.16294989991,None,522.16294989991,None,523.84303994996,None,523.84303994996,None,523.84303994996,None,,,,,,,,,,,,,,028,2022-05-23_10h52.44.503,Main,2022.1.1,59.11489632172298,
neutral,neutral,1,k,k,,,,,,,,,12,0,216,1,,,,,,,,,main,1,1,1,neutral,neutral,k,k,1,0.580412199953571,523.8470813999884,524.8596866999287,524.8430271999678,None,523.8470813999884,None,523.8470813999884,None,523.8470813999884,None,525.4263270499184,None,525.4263270499184,None,525.4263270499184,None,,,,,,,,,,,,,,028,2022-05-23_10h52.44.503,Main,2022.1.1,59.11489632172298,
positive,negative,1,l,j,,,,,,,,,12,1,217,5,,,,,,,,,main,2,2,1,negative,positive,l,l,1,0.5987435999559239,525.4295791999903,526.4432974999072,526.4263141999254,None,525.4295791999903,None,525.4295791999903,None,525.4295791999903,None,527.026399749983,None,527.026399749983,None,527.026399749983,None,,,,,,,,,,,,,,028,2022-05-23_10h52.44.503,Main,2022.1.1,59.11489632172298,
positive,negative,2,l,j,,,,,,,,,12,2,218,14,,,,,,,,,main,1,1,2,negative,positive,l,l,1,0.734936699969694,527.0303713999456,528.0453393999487,528.0263288000133,None,527.0303713999456,None,527.0303713999456,None,527.0303713999456,None,528.7634545500157,None,528.7634545500157,None,528.7634545500157,None,,,,,,,,,,,,,,028,2022-05-23_10h52.44.503,Main,2022.1.1,59.11489632172298,
positive,positive,2,l,j,,,,,,,,,12,3,219,11,,,,,,,,,main,1,1,2,positive,positive,l,l,1,0.5106009000446647,528.7829973999178,529.7926435999107,529.7596190999029,None,528.7829973999178,None,528.7829973999178,None,528.7829973999178,None,530.2759737499989,None,530.2759737499989,None,530.2759737499989,None,,,,,,,,,,,,,,028,2022-05-23_10h52.44.503,Main,2022.1.1,59.11489632172298,
negative,negative,2,j,l,,,,,,,,,12,4,220,9,,,,,,,,,main,2,2,2,negative,negative,j,j,1,0.684291600016877,530.2759800999193,531.2760052999947,531.2760052999947,None,530.2759800999193,None,530.2759800999193,None,530.2759800999193,None,531.9620798499789,None,531.9620798499789,None,531.9620798499789,None,,,,,,,,,,,,,,028,2022-05-23_10h52.44.503,Main,2022.1.1,59.11489632172298,
neutral,negative,1,k,k,,,,,,,,,12,5,221,7,,,,,,,,,main,1,1,1,negative,neutral,k,k,1,0.579484400106594,531.9659605999477,532.9785360000096,532.9596036999719,None,531.9659605999477,None,531.9659605999477,None,531.9659605999477,None,533.5429472499061,None,533.5429472499061,None,533.5429472499061,None,,,,,,,,,,,,,,028,2022-05-23_10h52.44.503,Main,2022.1.1,59.11489632172298,
neutral,positive,2,k,k,,,,,,,,,12,6,222,13,,,,,,,,,main,2,2,2,positive,neutral,k,k,1,0.5486536000389606,533.5466420999728,534.5598231999902,534.5429118999746,None,533.5466420999728,None,533.5466420999728,None,533.5466420999728,None,535.0928906499873,None,535.0928906499873,None,535.0928906499873,None,,,,,,,,,,,,,,028,2022-05-23_10h52.44.503,Main,2022.1.1,59.11489632172298,
negative,neutral,1,j,l,,,,,,,,,12,7,223,3,,,,,,,,,main,2,2,1,neutral,negative,j,j,1,0.731577800004743,535.0965626999969,536.1117519999389,536.0951175999362,None,535.0965626999969,None,535.0965626999969,None,535.0965626999969,None,536.8261991500156,None,536.8261991500156,None,536.8261991500156,None,,,,,,,,,,,,,,028,2022-05-23_10h52.44.503,Main,2022.1.1,59.11489632172298,
