target,distractor,set,ans1,ans2,rep_loop2.thisRepN,rep_loop2.thisTrialN,rep_loop2.thisN,rep_loop2.thisIndex,flanker_prac_loop.thisRepN,flanker_prac_loop.thisTrialN,flanker_prac_loop.thisN,flanker_prac_loop.thisIndex,flanker_main_loop.thisRepN,flanker_main_loop.thisTrialN,flanker_main_loop.thisN,flanker_main_loop.thisIndex,fl_inst_resp.keys,fl_inst_resp.rt,sound_1.started,sound_1.stopped,image_4.started,image_4.stopped,back_2.started,back_2.stopped,main_prac,fl_cold,fl_colt,fl_set,fl_dcond,fl_tcond,fl_ans,fl_res,fl_corr,fl_rt,fix_fl.started,fix_fl.stopped,targ.started,targ.stopped,j_button.started,j_button.stopped,k_button.started,k_button.stopped,l_button.started,l_button.stopped,j_button2.started,j_button2.stopped,k_button2.started,k_button2.stopped,l_button2.started,l_button2.stopped,mainback.started,mainback.stopped,key_resp.keys,mouse_6.x,mouse_6.y,mouse_6.leftButton,mouse_6.midButton,mouse_6.rightButton,mouse_6.started,mouse_6.stopped,text_2.started,text_2.stopped,id*,date,expName,psychopyVersion,frameRate,
,,,,,0,0,0,0,,,,,,,,,space,57.180370799964294,18.993622079922353,None,76.19498789997306,None,,,,,,,,,,,,,,,,,,,,,,,,,,,,,,,,,,,,,,,,,029,2022-05-25_19h35.58.771,Main,2022.1.1,59.15136717644185,
positive,positive,2,l,j,,,,,0,0,0,11,,,,,,,,,,,96.01125099998899,None,prac,1,1,2,positive,positive,j,j,1,2.1001104000024498,98.0453841999406,99.05871969996952,99.02766899997368,None,98.0453841999406,None,98.0453841999406,None,98.0453841999406,None,101.14163249998819,None,101.14163249998819,None,101.14163249998819,None,,,,,,,,,,,,,029,2022-05-25_19h35.58.771,Main,2022.1.1,59.15136717644185,
negative,neutral,2,j,l,,,,,0,1,1,12,,,,,,,,,,,,,prac,2,2,2,neutral,negative,l,l,1,1.3013258000137284,102.15402269992046,103.15861209994182,103.14198479999322,None,102.15402269992046,None,102.15402269992046,None,102.15402269992046,None,104.44187377995112,None,104.44187377995112,None,104.44187377995112,None,,,,,,,,,,,,,029,2022-05-25_19h35.58.771,Main,2022.1.1,59.15136717644185,
positive,negative,1,l,j,,,,,0,2,2,5,,,,,,,,,,,,,prac,2,2,1,negative,positive,j,k,0,1.4814197000814602,104.45652739994694,105.46082479995675,105.44190949993208,None,104.45652739994694,None,104.45652739994694,None,104.45652739994694,None,106.92520599998534,None,106.92520599998534,None,106.92520599998534,None,,,,,,,,,,,,,029,2022-05-25_19h35.58.771,Main,2022.1.1,59.15136717644185,
negative,positive,2,j,l,,,,,0,3,3,15,,,,,,,,,,,,,prac,2,2,2,positive,negative,l,l,1,1.101243200013414,107.94026209996082,108.94404619990382,108.92516509990674,None,107.94026209996082,None,107.94026209996082,None,107.94026209996082,None,110.02471837991615,None,110.02471837991615,None,110.02471837991615,None,,,,,,,,,,,,,029,2022-05-25_19h35.58.771,Main,2022.1.1,59.15136717644185,
positive,neutral,2,l,j,,,,,0,4,4,17,,,,,,,,,,,,,prac,2,2,2,neutral,positive,j,j,1,1.0146740999771282,110.02478689991403,111.02476429997478,111.02476429997478,None,110.02478689991403,None,110.02478689991403,None,110.02478689991403,None,112.04138337991898,None,112.04138337991898,None,112.04138337991898,None,,,,,,,,,,,,,029,2022-05-25_19h35.58.771,Main,2022.1.1,59.15136717644185,
negative,positive,1,j,l,,,,,0,5,5,6,,,,,,,,,,,,,prac,2,2,1,positive,negative,l,l,1,1.666082700015977,112.0503153000027,113.05810069991276,113.04145159991458,None,112.0503153000027,None,112.0503153000027,None,112.0503153000027,None,114.70840769994538,None,114.70840769994538,None,114.70840769994538,None,,,,,,,,,,,,,029,2022-05-25_19h35.58.771,Main,2022.1.1,59.15136717644185,
neutral,negative,2,k,k,,,,,0,6,6,16,,,,,,,,,,,,,prac,1,1,2,negative,neutral,k,k,1,0.9346844999818131,115.71949289995246,116.72716419992503,116.71055939991493,None,115.71949289995246,None,115.71949289995246,None,115.71949289995246,None,117.6417251799372,None,117.6417251799372,None,117.6417251799372,None,,,,,,,,,,,,,029,2022-05-25_19h35.58.771,Main,2022.1.1,59.15136717644185,
negative,neutral,1,j,l,,,,,0,7,7,3,,,,,,,,,,,,,prac,1,1,1,neutral,negative,l,l,1,0.8649394001113251,117.6558028999716,118.66056989994831,118.64165869995486,None,117.6558028999716,None,117.6558028999716,None,117.6558028999716,None,119.50824197995243,None,119.50824197995243,None,119.50824197995243,None,,,,,,,,,,,,,029,2022-05-25_19h35.58.771,Main,2022.1.1,59.15136717644185,
positive,negative,2,l,j,,,,,0,8,8,14,,,,,,,,,,,,,prac,1,1,2,negative,positive,j,j,1,0.714926699991338,119.51455029996578,120.52493869990576,120.51057579996996,None,119.51455029996578,None,119.51455029996578,None,119.51455029996578,None,121.22449227989418,None,121.22449227989418,None,121.22449227989418,None,,,,,,,,,,,,,029,2022-05-25_19h35.58.771,Main,2022.1.1,59.15136717644185,
neutral,negative,1,k,k,,,,,0,9,9,7,,,,,,,,,,,,,prac,1,1,1,negative,neutral,k,k,1,0.748892999952659,121.23828089993913,122.24121140001807,122.22454769990873,None,121.23828089993913,None,121.23828089993913,None,121.23828089993913,None,122.97451047991635,None,122.97451047991635,None,122.97451047991635,None,,,,,,,,,,,,,029,2022-05-25_19h35.58.771,Main,2022.1.1,59.15136717644185,
neutral,positive,1,k,k,,,,,0,10,10,4,,,,,,,,,,,,,prac,2,2,1,positive,neutral,k,k,1,0.7493537999689579,122.98118210001849,123.99377289996482,123.97484749997966,None,122.98118210001849,None,122.98118210001849,None,122.98118210001849,None,124.72479748000623,None,124.72479748000623,None,124.72479748000623,None,,,,,,,,,,,,,029,2022-05-25_19h35.58.771,Main,2022.1.1,59.15136717644185,
positive,neutral,1,l,j,,,,,0,11,11,8,,,,,,,,,,,,,prac,2,2,1,neutral,positive,j,j,1,0.964226600015536,124.7370708999224,125.74151469999924,125.72484589996748,None,124.7370708999224,None,124.7370708999224,None,124.7370708999224,None,126.6915493799257,None,126.6915493799257,None,126.6915493799257,None,,,,,,,,,,,,,029,2022-05-25_19h35.58.771,Main,2022.1.1,59.15136717644185,
neutral,neutral,2,k,k,,,,,0,12,12,10,,,,,,,,,,,,,prac,2,2,2,neutral,neutral,k,k,1,0.7315227999351919,126.70824019995052,127.7081302999286,127.69145179993939,None,126.70824019995052,None,126.70824019995052,None,126.70824019995052,None,128.42481467997422,None,128.42481467997422,None,128.42481467997422,None,,,,,,,,,,,,,029,2022-05-25_19h35.58.771,Main,2022.1.1,59.15136717644185,
positive,positive,1,l,j,,,,,0,13,13,2,,,,,,,,,,,,,prac,2,2,1,positive,positive,j,j,1,0.7798866999801248,128.43789289996494,129.4436268999707,129.4247505000094,None,128.43789289996494,None,128.43789289996494,None,128.43789289996494,None,130.20800807998748,None,130.20800807998748,None,130.20800807998748,None,,,,,,,,,,,,,029,2022-05-25_19h35.58.771,Main,2022.1.1,59.15136717644185,
negative,negative,1,j,l,,,,,0,14,14,0,,,,,,,,,,,,,prac,2,2,1,negative,negative,l,l,1,0.7317313000094146,130.213740499923,131.22433989995625,131.20767979999073,None,130.213740499923,None,130.213740499923,None,130.213740499923,None,131.9409447799786,None,131.9409447799786,None,131.9409447799786,None,,,,,,,,,,,,,029,2022-05-25_19h35.58.771,Main,2022.1.1,59.15136717644185,
neutral,neutral,1,k,k,,,,,0,15,15,1,,,,,,,,,,,,,prac,2,2,1,neutral,neutral,k,k,1,0.5691663000034168,131.94105429993942,132.94102689996362,132.94102689996362,None,131.94105429993942,None,131.94105429993942,None,131.94105429993942,None,133.5077693799627,None,133.5077693799627,None,133.5077693799627,None,,,,,,,,,,,,,029,2022-05-25_19h35.58.771,Main,2022.1.1,59.15136717644185,
neutral,positive,2,k,k,,,,,0,16,16,13,,,,,,,,,,,,,prac,2,2,2,positive,neutral,k,k,1,0.6444235000526533,133.51832889998332,134.5246583999833,134.4910298999166,None,133.51832889998332,None,133.51832889998332,None,133.51832889998332,None,135.15799087992636,None,135.15799087992636,None,135.15799087992636,None,,,,,,,,,,,,,029,2022-05-25_19h35.58.771,Main,2022.1.1,59.15136717644185,
negative,negative,2,j,l,,,,,0,17,17,9,,,,,,,,,,,,,prac,1,1,2,negative,negative,l,l,1,0.7486830999841914,135.16357719991356,136.1768952999264,136.15796209999826,None,135.16357719991356,None,135.16357719991356,None,135.16357719991356,None,136.90796057992847,None,136.90796057992847,None,136.90796057992847,None,,,,,,,,,,,,,029,2022-05-25_19h35.58.771,Main,2022.1.1,59.15136717644185,
neutral,negative,1,k,k,,,,,1,0,18,7,,,,,,,,,,,,,prac,2,2,1,negative,neutral,k,k,1,0.6987723000347614,136.91352219996043,137.92681709991302,137.91015839995816,None,136.91352219996043,None,136.91352219996043,None,136.91352219996043,None,138.60784687994746,None,138.60784687994746,None,138.60784687994746,None,,,,,,,,,,,,,029,2022-05-25_19h35.58.771,Main,2022.1.1,59.15136717644185,
neutral,negative,2,k,k,,,,,1,1,19,16,,,,,,,,,,,,,prac,1,1,2,negative,neutral,k,k,1,0.6652042999630794,138.61319389997516,139.6268262999365,139.60789009998553,None,138.61319389997516,None,138.61319389997516,None,138.61319389997516,None,140.2745205799234,None,140.2745205799234,None,140.2745205799234,None,,,,,,,,,,,,,029,2022-05-25_19h35.58.771,Main,2022.1.1,59.15136717644185,
neutral,neutral,2,k,k,,,,,1,2,20,10,,,,,,,,,,,,,prac,2,2,2,neutral,neutral,k,k,1,0.6406010000500828,140.2808406999102,141.29116399993654,141.27450209995732,None,140.2808406999102,None,140.2808406999102,None,140.2808406999102,None,141.91588927999837,None,141.91588927999837,None,141.91588927999837,None,,,,,,,,,,,,,029,2022-05-25_19h35.58.771,Main,2022.1.1,59.15136717644185,
negative,negative,1,j,l,,,,,1,3,21,0,,,,,,,,,,,,,prac,2,2,1,negative,negative,l,l,1,0.7903073999332264,141.9312832999276,142.94102319993544,142.90768009994645,None,141.9312832999276,None,141.9312832999276,None,141.9312832999276,None,143.7076250799815,None,143.7076250799815,None,143.7076250799815,None,,,,,,,,,,,,,029,2022-05-25_19h35.58.771,Main,2022.1.1,59.15136717644185,
negative,positive,1,j,l,,,,,1,4,22,6,,,,,,,,,,,,,prac,2,2,1,positive,negative,l,l,1,0.6986652000341564,143.71310759999324,144.7243410999654,144.70767299993895,None,143.71310759999324,None,143.71310759999324,None,143.71310759999324,None,145.40766647990094,None,145.40766647990094,None,145.40766647990094,None,,,,,,,,,,,,,029,2022-05-25_19h35.58.771,Main,2022.1.1,59.15136717644185,
positive,positive,1,l,j,,,,,1,5,23,2,,,,,,,,,,,,,prac,2,2,1,positive,positive,j,j,1,0.8822261999594048,145.4129116999684,146.42433119995985,146.40994439995848,None,145.4129116999684,None,145.4129116999684,None,145.4129116999684,None,147.29093467999482,None,147.29093467999482,None,147.29093467999482,None,,,,,,,,,,,,,029,2022-05-25_19h35.58.771,Main,2022.1.1,59.15136717644185,
positive,positive,2,l,j,,,,,1,6,24,11,,,,,,,,,,,,,prac,1,1,2,positive,positive,j,l,0,0.751491199946031,147.29664559999947,148.30767569993623,148.29105379991233,None,147.29664559999947,None,147.29664559999947,None,147.29664559999947,None,149.04068939993158,None,149.04068939993158,None,149.04068939993158,None,,,,,,,,,,,,,029,2022-05-25_19h35.58.771,Main,2022.1.1,59.15136717644185,
positive,negative,2,l,j,,,,,1,7,25,14,,,,,,,,,,,,,prac,1,1,2,negative,positive,j,j,1,0.9696151999523863,150.040634999983,151.04063019994646,151.04063019994646,None,150.040634999983,None,150.040634999983,None,150.040634999983,None,152.00725987992482,None,152.00725987992482,None,152.00725987992482,None,,,,,,,,,,,,,029,2022-05-25_19h35.58.771,Main,2022.1.1,59.15136717644185,
negative,neutral,1,j,l,,,,,1,8,26,3,,,,,,,,,,,,,prac,1,1,1,neutral,negative,l,l,1,0.8653062999946997,152.01292379992083,153.02651029999834,153.0099210999906,None,152.01292379992083,None,152.01292379992083,None,152.01292379992083,None,153.87420557994628,None,153.87420557994628,None,153.87420557994628,None,,,,,,,,,,,,,029,2022-05-25_19h35.58.771,Main,2022.1.1,59.15136717644185,
negative,neutral,2,j,l,,,,,1,9,27,12,,,,,,,,,,,,,prac,2,2,2,neutral,negative,l,l,1,1.8821743000298738,153.8796185000101,154.8909040999133,154.87655849999283,None,153.8796185000101,None,153.8796185000101,None,153.8796185000101,None,156.7576636999147,None,156.7576636999147,None,156.7576636999147,None,,,,,,,,,,,,,029,2022-05-25_19h35.58.771,Main,2022.1.1,59.15136717644185,
positive,neutral,2,l,j,,,,,1,10,28,17,,,,,,,,,,,,,prac,1,1,2,neutral,positive,j,j,1,0.7436992999864742,157.7688111999305,158.77637689991388,158.75747179996688,None,157.7688111999305,None,157.7688111999305,None,157.7688111999305,None,159.5002194799832,None,159.5002194799832,None,159.5002194799832,None,,,,,,,,,,,,,029,2022-05-25_19h35.58.771,Main,2022.1.1,59.15136717644185,
neutral,positive,2,k,k,,,,,1,11,29,13,,,,,,,,,,,,,prac,1,1,2,positive,neutral,k,k,1,0.7222334999823943,159.49982749996707,160.50730209995527,160.49046249990351,None,159.49982749996707,None,159.49982749996707,None,159.49982749996707,None,161.22368797993985,None,161.22368797993985,None,161.22368797993985,None,,,,,,,,,,,,,029,2022-05-25_19h35.58.771,Main,2022.1.1,59.15136717644185,
positive,negative,1,l,j,,,,,1,12,30,5,,,,,,,,,,,,,prac,1,1,1,negative,positive,j,j,1,0.8489216999150813,161.23521650000475,162.24074709997512,162.22408989991527,None,161.23521650000475,None,161.23521650000475,None,161.23521650000475,None,163.0739949799259,None,163.0739949799259,None,163.0739949799259,None,,,,,,,,,,,,,029,2022-05-25_19h35.58.771,Main,2022.1.1,59.15136717644185,
positive,neutral,1,l,j,,,,,1,13,31,8,,,,,,,,,,,,,prac,1,1,1,neutral,positive,j,j,1,0.7653303999686614,163.07920939999167,164.09293359995354,164.07639129995368,None,163.07920939999167,None,163.07920939999167,None,163.07920939999167,None,164.84062897992553,None,164.84062897992553,None,164.84062897992553,None,,,,,,,,,,,,,029,2022-05-25_19h35.58.771,Main,2022.1.1,59.15136717644185,
negative,negative,2,j,l,,,,,1,14,32,9,,,,,,,,,,,,,prac,2,2,2,negative,negative,l,l,1,0.8156032999977469,164.86041029996704,165.8573440000182,165.8429854999995,None,164.86041029996704,None,164.86041029996704,None,164.86041029996704,None,166.65725947994505,None,166.65725947994505,None,166.65725947994505,None,,,,,,,,,,,,,029,2022-05-25_19h35.58.771,Main,2022.1.1,59.15136717644185,
neutral,neutral,1,k,k,,,,,1,15,33,1,,,,,,,,,,,,,prac,1,1,1,neutral,neutral,k,k,1,0.5654490999877453,166.6631139999954,167.67398079996929,167.65731299994513,None,166.6631139999954,None,166.6631139999954,None,166.6631139999954,None,168.22388857995392,None,168.22388857995392,None,168.22388857995392,None,,,,,,,,,,,,,029,2022-05-25_19h35.58.771,Main,2022.1.1,59.15136717644185,
neutral,positive,1,k,k,,,,,1,16,34,4,,,,,,,,,,,,,prac,2,2,1,positive,neutral,k,k,1,0.8143736000638455,168.23416649992578,169.24021979991812,169.2235464999685,None,168.23416649992578,None,168.23416649992578,None,168.23416649992578,None,170.04015087996376,None,170.04015087996376,None,170.04015087996376,None,,,,,,,,,,,,,029,2022-05-25_19h35.58.771,Main,2022.1.1,59.15136717644185,
negative,positive,2,j,l,,,,,1,17,35,15,,,,,,,,,,,,,prac,2,2,2,positive,negative,l,l,1,0.7823150999611244,170.04020169994328,171.04023749998305,171.04023749998305,None,170.04020169994328,None,170.04020169994328,None,170.04020169994328,None,171.8238172799698,None,171.8238172799698,None,171.8238172799698,None,,,,,,,,,,,,,029,2022-05-25_19h35.58.771,Main,2022.1.1,59.15136717644185,
,,,,,,,,,,,,,,,,,,,,,,,,,,,,,,,,,,,,,,,,,,,,,,,,,,,171.8238792999182,None,None,,,,,,,,,,029,2022-05-25_19h35.58.771,Main,2022.1.1,59.15136717644185,
,,,,,,,,,,,,,,,,,,,,,,,,,,,,,,,,,,,,,,,,,,,,,,,,,,,,,,0.022222223,-0.06574074,1,0,0,0.010902480105869472,None,,,029,2022-05-25_19h35.58.771,Main,2022.1.1,59.15136717644185,
positive,positive,2,l,j,,,,,,,,,0,0,0,11,,,,,,,185.04253400000744,None,main,1,1,2,positive,positive,j,j,1,0.8280528999166563,187.04731529997662,188.05902359995525,188.04018909996375,None,187.04731529997662,None,187.04731529997662,None,187.04731529997662,None,188.87346497989492,None,188.87346497989492,None,188.87346497989492,None,,,,,,,,,,,,,029,2022-05-25_19h35.58.771,Main,2022.1.1,59.15136717644185,
negative,neutral,1,j,l,,,,,,,,,0,1,1,3,,,,,,,,,main,1,1,1,neutral,negative,l,l,1,0.7137111999327317,188.87979529995937,189.88977809995413,189.87313009996433,None,188.87979529995937,None,188.87979529995937,None,188.87979529995937,None,190.58972238000715,None,190.58972238000715,None,190.58972238000715,None,,,,,,,,,,,,,029,2022-05-25_19h35.58.771,Main,2022.1.1,59.15136717644185,
neutral,neutral,2,k,k,,,,,,,,,0,2,2,10,,,,,,,,,main,1,1,2,neutral,neutral,k,k,1,0.5819921999936923,190.5898920999607,191.5898004999617,191.5898004999617,None,190.5898920999607,None,190.5898920999607,None,190.5898920999607,None,192.17339837990002,None,192.17339837990002,None,192.17339837990002,None,,,,,,,,,,,,,029,2022-05-25_19h35.58.771,Main,2022.1.1,59.15136717644185,
neutral,negative,2,k,k,,,,,,,,,0,3,3,16,,,,,,,,,main,2,2,2,negative,neutral,k,k,1,0.6319585000164807,192.1793583999388,193.19008709990885,193.1734373999061,None,192.1793583999388,None,192.1793583999388,None,192.1793583999388,None,193.80669067994458,None,193.80669067994458,None,193.80669067994458,None,,,,,,,,,,,,,029,2022-05-25_19h35.58.771,Main,2022.1.1,59.15136717644185,
neutral,neutral,1,k,k,,,,,,,,,0,4,4,1,,,,,,,,,main,2,2,1,neutral,neutral,k,k,1,0.6817409000359476,193.81255359994248,194.8256631999975,194.809052699944,None,193.81255359994248,None,193.81255359994248,None,193.81255359994248,None,195.4900476799463,None,195.4900476799463,None,195.4900476799463,None,,,,,,,,,,,,,029,2022-05-25_19h35.58.771,Main,2022.1.1,59.15136717644185,
neutral,positive,2,k,k,,,,,,,,,0,5,5,13,,,,,,,,,main,1,1,2,positive,neutral,k,k,1,0.7511270999675617,195.49600479996298,196.5066960999975,196.49003499990795,None,195.49600479996298,None,195.49600479996298,None,195.49600479996298,None,197.24258277992485,None,197.24258277992485,None,197.24258277992485,None,,,,,,,,,,,,,029,2022-05-25_19h35.58.771,Main,2022.1.1,59.15136717644185,
neutral,negative,1,k,k,,,,,,,,,0,6,6,7,,,,,,,,,main,2,2,1,negative,neutral,k,k,1,0.6453346000052989,197.24720899993554,198.25666159996763,198.23997300001793,None,197.24720899993554,None,197.24720899993554,None,197.24720899993554,None,198.88955327993025,None,198.88955327993025,None,198.88955327993025,None,,,,,,,,,,,,,029,2022-05-25_19h35.58.771,Main,2022.1.1,59.15136717644185,
negative,positive,2,j,l,,,,,,,,,0,7,7,15,,,,,,,,,main,2,2,2,positive,negative,l,l,1,0.8485868000425398,198.89160649990663,199.9062429999467,199.88966059999075,None,198.89160649990663,None,198.89160649990663,None,198.89160649990663,None,200.73959067995892,None,200.73959067995892,None,200.73959067995892,None,,,,,,,,,,,,,029,2022-05-25_19h35.58.771,Main,2022.1.1,59.15136717644185,
negative,negative,1,j,l,,,,,,,,,0,8,8,0,,,,,,,,,main,1,1,1,negative,negative,l,j,0,1.0485738000134006,200.74589149991516,201.7566053000046,201.739925700007,None,200.74589149991516,None,200.74589149991516,None,200.74589149991516,None,202.7899063999066,None,202.7899063999066,None,202.7899063999066,None,,,,,,,,,,,,,029,2022-05-25_19h35.58.771,Main,2022.1.1,59.15136717644185,
neutral,positive,1,k,k,,,,,,,,,0,9,9,4,,,,,,,,,main,2,2,1,positive,neutral,k,k,1,0.7527137000579387,203.7973119999515,204.8065071000019,204.7921477999771,None,203.7973119999515,None,203.7973119999515,None,203.7973119999515,None,205.53986297998344,None,205.53986297998344,None,205.53986297998344,None,,,,,,,,,,,,,029,2022-05-25_19h35.58.771,Main,2022.1.1,59.15136717644185,
positive,negative,1,l,j,,,,,,,,,0,10,10,5,,,,,,,,,main,2,2,1,negative,positive,j,j,1,0.9311971999704838,205.54600889992435,206.55648859997746,206.5398065999616,None,205.54600889992435,None,205.54600889992435,None,205.54600889992435,None,207.47307167990365,None,207.47307167990365,None,207.47307167990365,None,,,,,,,,,,,,,029,2022-05-25_19h35.58.771,Main,2022.1.1,59.15136717644185,
positive,negative,2,l,j,,,,,,,,,0,11,11,14,,,,,,,,,main,1,1,2,negative,positive,j,j,1,0.9480435999576002,207.4786255999934,208.49201289995108,208.4754113999661,None,207.4786255999934,None,207.4786255999934,None,207.4786255999934,None,209.4226799799013,None,209.4226799799013,None,209.4226799799013,None,,,,,,,,,,,,,029,2022-05-25_19h35.58.771,Main,2022.1.1,59.15136717644185,
negative,neutral,2,j,l,,,,,,,,,0,12,12,12,,,,,,,,,main,1,1,2,neutral,negative,l,l,1,0.9818441999377683,209.42274309997447,210.4231936999131,210.4231936999131,None,209.42274309997447,None,209.42274309997447,None,209.42274309997447,None,211.4060008799075,None,211.4060008799075,None,211.4060008799075,None,,,,,,,,,,,,,029,2022-05-25_19h35.58.771,Main,2022.1.1,59.15136717644185,
negative,positive,1,j,l,,,,,,,,,0,13,13,6,,,,,,,,,main,2,2,1,positive,negative,l,l,1,1.215427500079386,211.4079378999304,212.4227095999522,212.4060921999626,None,211.4079378999304,None,211.4079378999304,None,211.4079378999304,None,213.6229550799704,None,213.6229550799704,None,213.6229550799704,None,,,,,,,,,,,,,029,2022-05-25_19h35.58.771,Main,2022.1.1,59.15136717644185,
negative,negative,2,j,l,,,,,,,,,0,14,14,9,,,,,,,,,main,1,1,2,negative,negative,l,l,1,0.7531836000271142,213.6288779999595,214.6419307999313,214.62529529992025,None,213.6288779999595,None,213.6288779999595,None,213.6288779999595,None,215.3778473799699,None,215.3778473799699,None,215.3778473799699,None,,,,,,,,,,,,,029,2022-05-25_19h35.58.771,Main,2022.1.1,59.15136717644185,
positive,positive,1,l,j,,,,,,,,,0,15,15,2,,,,,,,,,main,2,2,1,positive,positive,j,l,0,0.5935029999818653,215.38125059998129,216.3896160000004,216.37525439995807,None,215.38125059998129,None,215.38125059998129,None,215.38125059998129,None,216.97295460000169,None,216.97295460000169,None,216.97295460000169,None,,,,,,,,,,,,,029,2022-05-25_19h35.58.771,Main,2022.1.1,59.15136717644185,
positive,neutral,1,l,j,,,,,,,,,0,16,16,8,,,,,,,,,main,2,2,1,neutral,positive,j,j,1,0.9598392000189051,217.97343849996105,218.972892699996,218.9571566999657,None,217.97343849996105,None,217.97343849996105,None,217.97343849996105,None,219.9314450799371,None,219.9314450799371,None,219.9314450799371,None,,,,,,,,,,,,,029,2022-05-25_19h35.58.771,Main,2022.1.1,59.15136717644185,
positive,neutral,2,l,j,,,,,,,,,0,17,17,17,,,,,,,,,main,1,1,2,neutral,positive,j,j,1,0.7894091000780463,219.93138480000198,220.93928950000554,220.9224687999813,None,219.93138480000198,None,219.93138480000198,None,219.93138480000198,None,221.72242437998065,None,221.72242437998065,None,221.72242437998065,None,,,,,,,,,,,,,029,2022-05-25_19h35.58.771,Main,2022.1.1,59.15136717644185,
neutral,positive,1,k,k,,,,,,,,,1,0,18,4,,,,,,,,,main,1,1,1,positive,neutral,k,k,1,0.8652066000504419,221.72914880001917,222.73946939990856,222.7251588999061,None,221.72914880001917,None,221.72914880001917,None,221.72914880001917,None,223.5894161800039,None,223.5894161800039,None,223.5894161800039,None,,,,,,,,,,,,,029,2022-05-25_19h35.58.771,Main,2022.1.1,59.15136717644185,
negative,negative,1,j,l,,,,,,,,,1,1,19,0,,,,,,,,,main,2,2,1,negative,negative,l,l,1,0.982923400006257,223.5950361000141,224.60829000000376,224.58943309995811,None,223.5950361000141,None,223.5950361000141,None,223.5950361000141,None,225.57284278000006,None,225.57284278000006,None,225.57284278000006,None,,,,,,,,,,,,,029,2022-05-25_19h35.58.771,Main,2022.1.1,59.15136717644185,
positive,positive,2,l,j,,,,,,,,,1,2,20,11,,,,,,,,,main,2,2,2,positive,positive,j,j,1,0.697819699998945,225.5794040999608,226.59171499998774,226.57274059997872,None,225.5794040999608,None,225.5794040999608,None,225.5794040999608,None,227.27265987995779,None,227.27265987995779,None,227.27265987995779,None,,,,,,,,,,,,,029,2022-05-25_19h35.58.771,Main,2022.1.1,59.15136717644185,
negative,neutral,2,j,l,,,,,,,,,1,3,21,12,,,,,,,,,main,2,2,2,neutral,negative,l,l,1,0.8481003000633791,227.27892599999905,228.28938079997897,228.2727061000187,None,227.27892599999905,None,227.27892599999905,None,227.27892599999905,None,229.12260587998898,None,229.12260587998898,None,229.12260587998898,None,,,,,,,,,,,,,029,2022-05-25_19h35.58.771,Main,2022.1.1,59.15136717644185,
positive,neutral,1,l,j,,,,,,,,,1,4,22,8,,,,,,,,,main,1,1,1,neutral,positive,j,j,1,0.8645104999886826,229.12880679999944,230.1389618999092,230.12227569997776,None,229.12880679999944,None,229.12880679999944,None,229.12880679999944,None,230.98887687999522,None,230.98887687999522,None,230.98887687999522,None,,,,,,,,,,,,,029,2022-05-25_19h35.58.771,Main,2022.1.1,59.15136717644185,
positive,positive,1,l,j,,,,,,,,,1,5,23,2,,,,,,,,,main,2,2,1,positive,positive,j,j,1,0.7699081999016926,230.9889922000002,231.99157529999502,231.99157529999502,None,230.9889922000002,None,230.9889922000002,None,230.9889922000002,None,232.75604177996283,None,232.75604177996283,None,232.75604177996283,None,,,,,,,,,,,,,029,2022-05-25_19h35.58.771,Main,2022.1.1,59.15136717644185,
negative,neutral,1,j,l,,,,,,,,,1,6,24,3,,,,,,,,,main,2,2,1,neutral,negative,l,l,1,0.7769195000873879,232.76396969996858,233.77280919998884,233.75821289990563,None,232.76396969996858,None,232.76396969996858,None,232.76396969996858,None,234.53930427992017,None,234.53930427992017,None,234.53930427992017,None,,,,,,,,,,,,,029,2022-05-25_19h35.58.771,Main,2022.1.1,59.15136717644185,
negative,negative,2,j,l,,,,,,,,,1,7,25,9,,,,,,,,,main,1,1,2,negative,negative,l,l,1,0.764500999939628,234.54883310000878,235.55830119992606,235.53922479995526,None,234.54883310000878,None,234.54883310000878,None,234.54883310000878,None,236.30579057995928,None,236.30579057995928,None,236.30579057995928,None,,,,,,,,,,,,,029,2022-05-25_19h35.58.771,Main,2022.1.1,59.15136717644185,
positive,neutral,2,l,j,,,,,,,,,1,8,26,17,,,,,,,,,main,2,2,2,neutral,positive,j,j,1,0.7488921999465674,236.31242149998434,237.32248869992327,237.30583460000344,None,236.31242149998434,None,236.31242149998434,None,236.31242149998434,None,238.05593137998366,None,238.05593137998366,None,238.05593137998366,None,,,,,,,,,,,,,029,2022-05-25_19h35.58.771,Main,2022.1.1,59.15136717644185,
neutral,positive,2,k,k,,,,,,,,,1,9,27,13,,,,,,,,,main,2,2,2,positive,neutral,k,k,1,0.7801834999118,238.06250629993156,239.07209439994767,239.05543449998368,None,238.06250629993156,None,238.06250629993156,None,238.06250629993156,None,239.83868737992597,None,239.83868737992597,None,239.83868737992597,None,,,,,,,,,,,,,029,2022-05-25_19h35.58.771,Main,2022.1.1,59.15136717644185,
neutral,negative,2,k,k,,,,,,,,,1,10,28,16,,,,,,,,,main,2,2,2,negative,neutral,k,k,1,0.5988002000376582,239.83874939999077,240.8388130000094,240.8388130000094,None,239.83874939999077,None,239.83874939999077,None,239.83874939999077,None,241.4390702799079,None,241.4390702799079,None,241.4390702799079,None,,,,,,,,,,,,,029,2022-05-25_19h35.58.771,Main,2022.1.1,59.15136717644185,
neutral,negative,1,k,k,,,,,,,,,1,11,29,7,,,,,,,,,main,1,1,1,negative,neutral,k,k,1,1.1481005999958143,241.4486386999488,242.45801019994542,242.4413911999436,None,241.4486386999488,None,241.4486386999488,None,241.4486386999488,None,243.5889938799315,None,243.5889938799315,None,243.5889938799315,None,,,,,,,,,,,,,029,2022-05-25_19h35.58.771,Main,2022.1.1,59.15136717644185,
negative,positive,1,j,l,,,,,,,,,1,12,30,6,,,,,,,,,main,1,1,1,positive,negative,l,l,1,0.765279799932614,243.59482200001366,244.60789489990566,244.58902299997862,None,243.59482200001366,None,243.59482200001366,None,243.59482200001366,None,245.3556131799356,None,245.3556131799356,None,245.3556131799356,None,,,,,,,,,,,,,029,2022-05-25_19h35.58.771,Main,2022.1.1,59.15136717644185,
negative,positive,2,j,l,,,,,,,,,1,13,31,15,,,,,,,,,main,1,1,2,positive,negative,l,l,1,0.7654102999949828,245.36137089994736,246.37459569994826,246.3579493999714,None,245.36137089994736,None,245.36137089994736,None,245.36137089994736,None,247.12237487997626,None,247.12237487997626,None,247.12237487997626,None,,,,,,,,,,,,,029,2022-05-25_19h35.58.771,Main,2022.1.1,59.15136717644185,
positive,negative,1,l,j,,,,,,,,,1,14,32,5,,,,,,,,,main,2,2,1,negative,positive,j,j,1,0.8476763999788091,247.12803879997227,248.144344399916,248.1275372999953,None,247.12803879997227,None,247.12803879997227,None,247.12803879997227,None,248.97183807994006,None,248.97183807994006,None,248.97183807994006,None,,,,,,,,,,,,,029,2022-05-25_19h35.58.771,Main,2022.1.1,59.15136717644185,
positive,negative,2,l,j,,,,,,,,,1,15,33,14,,,,,,,,,main,2,2,2,negative,positive,j,j,1,0.8485453000757843,248.97189229994547,249.97186519997194,249.97186519997194,None,248.97189229994547,None,248.97189229994547,None,248.97189229994547,None,250.82183717990992,None,250.82183717990992,None,250.82183717990992,None,,,,,,,,,,,,,029,2022-05-25_19h35.58.771,Main,2022.1.1,59.15136717644185,
neutral,neutral,2,k,k,,,,,,,,,1,16,34,10,,,,,,,,,main,2,2,2,neutral,neutral,k,k,1,0.7818024000152946,250.82227369991597,251.82189999998081,251.82189999998081,None,250.82227369991597,None,250.82227369991597,None,250.82227369991597,None,252.60528027996187,None,252.60528027996187,None,252.60528027996187,None,,,,,,,,,,,,,029,2022-05-25_19h35.58.771,Main,2022.1.1,59.15136717644185,
neutral,neutral,1,k,k,,,,,,,,,1,17,35,1,,,,,,,,,main,2,2,1,neutral,neutral,k,k,1,0.5487490000668913,252.61129349994007,253.6244234999176,253.58885009994265,None,252.61129349994007,None,252.61129349994007,None,252.61129349994007,None,254.1554454799858,None,254.1554454799858,None,254.1554454799858,None,,,,,,,,,,,,,029,2022-05-25_19h35.58.771,Main,2022.1.1,59.15136717644185,
negative,positive,2,j,l,,,,,,,,,2,0,36,15,,,,,,,,,main,1,1,2,positive,negative,l,l,1,0.6996183999581262,254.16125849995296,255.17442469997332,255.15774019993842,None,254.16125849995296,None,254.16125849995296,None,254.16125849995296,None,255.85539447990013,None,255.85539447990013,None,255.85539447990013,None,,,,,,,,,,,,,029,2022-05-25_19h35.58.771,Main,2022.1.1,59.15136717644185,
negative,positive,1,j,l,,,,,,,,,2,1,37,6,,,,,,,,,main,2,2,1,positive,negative,l,l,1,0.23374549997970462,255.8619270999916,256.8743602000177,256.8577452999307,None,255.8619270999916,None,255.8619270999916,None,255.8619270999916,None,257.088723079965,None,257.088723079965,None,257.088723079965,None,,,,,,,,,,,,,029,2022-05-25_19h35.58.771,Main,2022.1.1,59.15136717644185,
positive,neutral,1,l,j,,,,,,,,,2,2,38,8,,,,,,,,,main,1,1,1,neutral,positive,j,l,0,-0.7698663000483066,257.0978204999119,None,None,None,257.0978204999119,None,257.0978204999119,None,257.0978204999119,None,257.33060599991586,None,257.33060599991586,None,257.33060599991586,None,,,,,,,,,,,,,029,2022-05-25_19h35.58.771,Main,2022.1.1,59.15136717644185,
positive,negative,1,l,j,,,,,,,,,2,3,39,5,,,,,,,,,main,2,2,1,negative,positive,j,j,1,0.7528583999956027,260.3384148000041,261.3383730999194,261.3216234999709,None,260.3384148000041,None,260.3384148000041,None,260.3384148000041,None,262.0882984799915,None,262.0882984799915,None,262.0882984799915,None,,,,,,,,,,,,,029,2022-05-25_19h35.58.771,Main,2022.1.1,59.15136717644185,
positive,negative,2,l,j,,,,,,,,,2,4,40,14,,,,,,,,,main,1,1,2,negative,positive,j,j,1,0.7649081000126898,262.094333200017,263.10753299994394,263.088640699978,None,262.094333200017,None,262.094333200017,None,262.094333200017,None,263.8552315799403,None,263.8552315799403,None,263.8552315799403,None,,,,,,,,,,,,,029,2022-05-25_19h35.58.771,Main,2022.1.1,59.15136717644185,
neutral,negative,2,k,k,,,,,,,,,2,5,41,16,,,,,,,,,main,1,1,2,negative,neutral,k,k,1,0.7317282999865711,263.86070209997706,264.87193629995454,264.85525779996533,None,263.86070209997706,None,263.86070209997706,None,263.86070209997706,None,265.58854187998224,None,265.58854187998224,None,265.58854187998224,None,,,,,,,,,,,,,029,2022-05-25_19h35.58.771,Main,2022.1.1,59.15136717644185,
negative,neutral,2,j,l,,,,,,,,,2,6,42,12,,,,,,,,,main,2,2,2,neutral,negative,l,l,1,0.8652389000635594,265.5940819999669,266.60524019994773,266.58856269996613,None,265.5940819999669,None,265.5940819999669,None,265.5940819999669,None,267.4551654799958,None,267.4551654799958,None,267.4551654799958,None,,,,,,,,,,,,,029,2022-05-25_19h35.58.771,Main,2022.1.1,59.15136717644185,
negative,negative,2,j,l,,,,,,,,,2,7,43,9,,,,,,,,,main,1,1,2,negative,negative,l,l,1,0.6315942000364885,267.4610073999502,268.47400229994673,268.4551896000048,None,267.4610073999502,None,267.4610073999502,None,267.4610073999502,None,269.0884580799262,None,269.0884580799262,None,269.0884580799262,None,,,,,,,,,,,,,029,2022-05-25_19h35.58.771,Main,2022.1.1,59.15136717644185,
positive,neutral,2,l,j,,,,,,,,,2,8,44,17,,,,,,,,,main,1,1,2,neutral,positive,j,j,1,0.7147844000719488,269.10532370000146,270.10477269999683,270.08817719994113,None,269.10532370000146,None,269.10532370000146,None,269.10532370000146,None,270.80474077999827,None,270.80474077999827,None,270.80474077999827,None,,,,,,,,,,,,,029,2022-05-25_19h35.58.771,Main,2022.1.1,59.15136717644185,
positive,positive,1,l,j,,,,,,,,,2,9,45,2,,,,,,,,,main,1,1,1,positive,positive,j,j,1,0.8700754001038149,270.805329099996,271.804784799926,271.804784799926,None,270.805329099996,None,270.805329099996,None,270.805329099996,None,272.6762571798987,None,272.6762571798987,None,272.6762571798987,None,,,,,,,,,,,,,029,2022-05-25_19h35.58.771,Main,2022.1.1,59.15136717644185,
neutral,negative,1,k,k,,,,,,,,,2,10,46,7,,,,,,,,,main,2,2,1,negative,neutral,k,k,1,0.7441520999418572,272.67924849991687,273.68844029994216,273.6740546999499,None,272.67924849991687,None,272.67924849991687,None,272.67924849991687,None,274.4216875799117,None,274.4216875799117,None,274.4216875799117,None,,,,,,,,,,,,,029,2022-05-25_19h35.58.771,Main,2022.1.1,59.15136717644185,
neutral,neutral,1,k,k,,,,,,,,,2,11,47,1,,,,,,,,,main,2,2,1,neutral,neutral,k,k,1,0.6483363999286667,274.4275949000148,275.4383866999997,275.4240333000198,None,274.4275949000148,None,274.4275949000148,None,274.4275949000148,None,276.07165038000096,None,276.07165038000096,None,276.07165038000096,None,,,,,,,,,,,,,029,2022-05-25_19h35.58.771,Main,2022.1.1,59.15136717644185,
neutral,neutral,2,k,k,,,,,,,,,2,12,48,10,,,,,,,,,main,2,2,2,neutral,neutral,k,k,1,0.59831699996721,276.0778218000196,277.0883497999748,277.0716836999636,None,276.0778218000196,None,276.0778218000196,None,276.0778218000196,None,277.67160977990136,None,277.67160977990136,None,277.67160977990136,None,,,,,,,,,,,,,029,2022-05-25_19h35.58.771,Main,2022.1.1,59.15136717644185,
negative,neutral,1,j,l,,,,,,,,,2,13,49,3,,,,,,,,,main,2,2,1,neutral,negative,l,l,1,0.7648572999751195,277.6773477999959,278.6883100999985,278.67164839990437,None,277.6773477999959,None,277.6773477999959,None,277.6773477999959,None,279.43824977994666,None,279.43824977994666,None,279.43824977994666,None,,,,,,,,,,,,,029,2022-05-25_19h35.58.771,Main,2022.1.1,59.15136717644185,
neutral,positive,2,k,k,,,,,,,,,2,14,50,13,,,,,,,,,main,2,2,2,positive,neutral,k,k,1,0.7314906999235973,279.4437284999294,280.45713349990547,280.4382714999374,None,279.4437284999294,None,279.4437284999294,None,279.4437284999294,None,281.1711581799551,None,281.1711581799551,None,281.1711581799551,None,,,,,,,,,,,,,029,2022-05-25_19h35.58.771,Main,2022.1.1,59.15136717644185,
neutral,positive,1,k,k,,,,,,,,,2,15,51,4,,,,,,,,,main,2,2,1,positive,neutral,k,k,1,0.6156865000957623,281.1715046999743,282.1711950999452,282.1711950999452,None,281.1715046999743,None,281.1715046999743,None,281.1715046999743,None,282.7878054799163,None,282.7878054799163,None,282.7878054799163,None,,,,,,,,,,,,,029,2022-05-25_19h35.58.771,Main,2022.1.1,59.15136717644185,
positive,positive,2,l,j,,,,,,,,,2,16,52,11,,,,,,,,,main,2,2,2,positive,positive,j,j,1,0.7150822000112385,282.7997144999681,283.80709949997254,283.7881838999456,None,282.7997144999681,None,282.7997144999681,None,282.7997144999681,None,284.50487357991517,None,284.50487357991517,None,284.50487357991517,None,,,,,,,,,,,,,029,2022-05-25_19h35.58.771,Main,2022.1.1,59.15136717644185,
negative,negative,1,j,l,,,,,,,,,2,17,53,0,,,,,,,,,main,1,1,1,negative,negative,l,l,1,0.7817417999031022,284.5108548999997,285.52373439993244,285.5071159999352,None,284.5108548999997,None,284.5108548999997,None,284.5108548999997,None,286.2881099799066,None,286.2881099799066,None,286.2881099799066,None,,,,,,,,,,,,,029,2022-05-25_19h35.58.771,Main,2022.1.1,59.15136717644185,
negative,neutral,2,j,l,,,,,,,,,3,0,54,12,,,,,,,,,main,2,2,2,neutral,negative,l,l,1,0.6651103999465704,286.29432430001907,287.3070829999633,287.28812759998254,None,286.29432430001907,None,286.29432430001907,None,286.29432430001907,None,287.95472727991876,None,287.95472727991876,None,287.95472727991876,None,,,,,,,,,,,,,029,2022-05-25_19h35.58.771,Main,2022.1.1,59.15136717644185,
negative,negative,1,j,l,,,,,,,,,3,1,55,0,,,,,,,,,main,1,1,1,negative,negative,l,l,1,0.7818274000892416,287.96053319994826,288.9736417999957,288.95696979993954,None,287.96053319994826,None,287.96053319994826,None,287.96053319994826,None,289.73802897994176,None,289.73802897994176,None,289.73802897994176,None,,,,,,,,,,,,,029,2022-05-25_19h35.58.771,Main,2022.1.1,59.15136717644185,
neutral,negative,2,k,k,,,,,,,,,3,2,56,16,,,,,,,,,main,2,2,2,negative,neutral,k,k,1,0.8142823000671342,289.7484944999451,290.75435109995306,290.73773109994363,None,289.7484944999451,None,289.7484944999451,None,289.7484944999451,None,291.5543370799511,None,291.5543370799511,None,291.5543370799511,None,,,,,,,,,,,,,029,2022-05-25_19h35.58.771,Main,2022.1.1,59.15136717644185,
positive,neutral,2,l,j,,,,,,,,,3,3,57,17,,,,,,,,,main,2,2,2,neutral,positive,j,j,1,1.6523201999953017,291.5546543999808,292.55435360001866,292.55435360001866,None,291.5546543999808,None,291.5546543999808,None,291.5546543999808,None,294.2073014000198,None,294.2073014000198,None,294.2073014000198,None,,,,,,,,,,,,,029,2022-05-25_19h35.58.771,Main,2022.1.1,59.15136717644185,
neutral,neutral,2,k,k,,,,,,,,,3,4,58,10,,,,,,,,,main,1,1,2,neutral,neutral,k,k,1,0.6844504000619054,295.20515399996657,296.20678169990424,296.1879624999128,None,295.20515399996657,None,295.20515399996657,None,295.20515399996657,None,296.88788587992315,None,296.88788587992315,None,296.88788587992315,None,,,,,,,,,,,,,029,2022-05-25_19h35.58.771,Main,2022.1.1,59.15136717644185,
negative,positive,2,j,l,,,,,,,,,3,5,59,15,,,,,,,,,main,2,2,2,positive,negative,l,l,1,0.6984142999863252,296.89351899991743,297.905795599916,297.8902053999482,None,296.89351899991743,None,296.89351899991743,None,296.89351899991743,None,298.5878601799137,None,298.5878601799137,None,298.5878601799137,None,,,,,,,,,,,,,029,2022-05-25_19h35.58.771,Main,2022.1.1,59.15136717644185,
neutral,positive,2,k,k,,,,,,,,,3,6,60,13,,,,,,,,,main,2,2,2,positive,neutral,k,k,1,0.7646783000091091,298.5982828999404,299.60674959991593,299.58789259998593,None,298.5982828999404,None,298.5982828999404,None,298.5982828999404,None,300.3544676799444,None,300.3544676799444,None,300.3544676799444,None,,,,,,,,,,,,,029,2022-05-25_19h35.58.771,Main,2022.1.1,59.15136717644185,
neutral,positive,1,k,k,,,,,,,,,3,7,61,4,,,,,,,,,main,1,1,1,positive,neutral,k,k,1,0.5911535000195727,300.3607678000117,301.3711792000104,301.35449759999756,None,300.3607678000117,None,300.3607678000117,None,300.3607678000117,None,301.94699687996183,None,301.94699687996183,None,301.94699687996183,None,,,,,,,,,,,,,029,2022-05-25_19h35.58.771,Main,2022.1.1,59.15136717644185,
positive,negative,1,l,j,,,,,,,,,3,8,62,5,,,,,,,,,main,1,1,1,negative,positive,j,j,1,0.7388316000578925,301.9628648000071,302.9707491999725,302.9374567999039,None,301.9628648000071,None,301.9628648000071,None,301.9628648000071,None,303.6873528799857,None,303.6873528799857,None,303.6873528799857,None,,,,,,,,,,,,,029,2022-05-25_19h35.58.771,Main,2022.1.1,59.15136717644185,
positive,neutral,1,l,j,,,,,,,,,3,9,63,8,,,,,,,,,main,1,1,1,neutral,positive,j,j,1,0.7153735000174493,303.687411999912,304.6877852999605,304.6877852999605,None,303.687411999912,None,303.687411999912,None,303.687411999912,None,305.4043471800047,None,305.4043471800047,None,305.4043471800047,None,,,,,,,,,,,,,029,2022-05-25_19h35.58.771,Main,2022.1.1,59.15136717644185,
negative,positive,1,j,l,,,,,,,,,3,10,64,6,,,,,,,,,main,1,1,1,positive,negative,l,l,1,0.8818764999741688,305.4098600000143,306.4210620999802,306.4048748000059,None,305.4098600000143,None,305.4098600000143,None,305.4098600000143,None,307.2877435799106,None,307.2877435799106,None,307.2877435799106,None,,,,,,,,,,,,,029,2022-05-25_19h35.58.771,Main,2022.1.1,59.15136717644185,
neutral,neutral,1,k,k,,,,,,,,,3,11,65,1,,,,,,,,,main,2,2,1,neutral,neutral,k,l,0,0.48191870003938675,307.2938139999751,308.3066776000196,308.2876824999694,None,307.2938139999751,None,307.2938139999751,None,307.2938139999751,None,308.7733642999083,None,308.7733642999083,None,308.7733642999083,None,,,,,,,,,,,,,029,2022-05-25_19h35.58.771,Main,2022.1.1,59.15136717644185,
negative,negative,2,j,l,,,,,,,,,3,12,66,9,,,,,,,,,main,2,2,2,negative,negative,l,l,1,0.8180380000267178,309.77161589998286,310.77321299992036,310.75431230000686,None,309.77161589998286,None,309.77161589998286,None,309.77161589998286,None,311.58757137992654,None,311.58757137992654,None,311.58757137992654,None,,,,,,,,,,,,,029,2022-05-25_19h35.58.771,Main,2022.1.1,59.15136717644185,
positive,positive,1,l,j,,,,,,,,,3,13,67,2,,,,,,,,,main,1,1,1,positive,positive,j,j,1,0.7811484999256209,311.60396619990934,312.6042174999602,312.5873032999225,None,311.60396619990934,None,311.60396619990934,None,311.60396619990934,None,313.3704866799177,None,313.3704866799177,None,313.3704866799177,None,,,,,,,,,,,,,029,2022-05-25_19h35.58.771,Main,2022.1.1,59.15136717644185,
positive,negative,2,l,j,,,,,,,,,3,14,68,14,,,,,,,,,main,1,1,2,negative,positive,j,j,1,0.8480932000093162,313.3706357999472,314.3705661999993,314.3705661999993,None,313.3706357999472,None,313.3706357999472,None,313.3706357999472,None,315.2204784799484,None,315.2204784799484,None,315.2204784799484,None,,,,,,,,,,,,,029,2022-05-25_19h35.58.771,Main,2022.1.1,59.15136717644185,
neutral,negative,1,k,k,,,,,,,,,3,15,69,7,,,,,,,,,main,2,2,1,negative,neutral,k,k,1,0.6313806000398472,315.2372658000095,316.2397831999697,316.2231933999574,None,315.2372658000095,None,315.2372658000095,None,315.2372658000095,None,316.8541698800051,None,316.8541698800051,None,316.8541698800051,None,,,,,,,,,,,,,029,2022-05-25_19h35.58.771,Main,2022.1.1,59.15136717644185,
positive,positive,2,l,j,,,,,,,,,3,16,70,11,,,,,,,,,main,2,2,2,positive,positive,j,j,1,0.8315506000071764,316.8602595999837,317.87311559997033,317.8564790999517,None,316.8602595999837,None,316.8602595999837,None,316.8602595999837,None,318.68744357997787,None,318.68744357997787,None,318.68744357997787,None,,,,,,,,,,,,,029,2022-05-25_19h35.58.771,Main,2022.1.1,59.15136717644185,
negative,neutral,1,j,l,,,,,,,,,3,17,71,3,,,,,,,,,main,1,1,1,neutral,negative,l,l,1,0.8310025999089703,318.6937893999275,319.70638429990504,319.687456500018,None,318.6937893999275,None,318.6937893999275,None,318.6937893999275,None,320.52073197994616,None,320.52073197994616,None,320.52073197994616,None,,,,,,,,,,,,,029,2022-05-25_19h35.58.771,Main,2022.1.1,59.15136717644185,
neutral,positive,2,k,k,,,,,,,,,4,0,72,13,,,,,,,,,main,2,2,2,positive,neutral,k,k,1,0.7150201000040397,320.52669959992636,321.53967989992816,321.52309329994023,None,320.52669959992636,None,320.52669959992636,None,320.52669959992636,None,322.23736277999126,None,322.23736277999126,None,322.23736277999126,None,,,,,,,,,,,,,029,2022-05-25_19h35.58.771,Main,2022.1.1,59.15136717644185,
positive,positive,2,l,j,,,,,,,,,4,1,73,11,,,,,,,,,main,1,1,2,positive,positive,j,j,1,0.781483699916862,322.2432349999435,323.25336510001216,323.2360951999435,None,322.2432349999435,None,322.2432349999435,None,322.2432349999435,None,324.02027307994433,None,324.02027307994433,None,324.02027307994433,None,,,,,,,,,,,,,029,2022-05-25_19h35.58.771,Main,2022.1.1,59.15136717644185,
neutral,negative,2,k,k,,,,,,,,,4,2,74,16,,,,,,,,,main,2,2,2,negative,neutral,k,k,1,0.7654840999748558,324.02041719993576,325.02029589994345,325.02029589994345,None,324.02041719993576,None,324.02041719993576,None,324.02041719993576,None,325.78725837994136,None,325.78725837994136,None,325.78725837994136,None,,,,,,,,,,,,,029,2022-05-25_19h35.58.771,Main,2022.1.1,59.15136717644185,
neutral,neutral,1,k,k,,,,,,,,,4,3,75,1,,,,,,,,,main,1,1,1,neutral,neutral,k,k,1,0.8147005999926478,325.79298329993617,326.8061887999065,326.7873036999954,None,325.79298329993617,None,325.79298329993617,None,325.79298329993617,None,327.6039067799808,None,327.6039067799808,None,327.6039067799808,None,,,,,,,,,,,,,029,2022-05-25_19h35.58.771,Main,2022.1.1,59.15136717644185,
negative,neutral,2,j,l,,,,,,,,,4,4,76,12,,,,,,,,,main,1,1,2,neutral,negative,l,l,1,0.7811272999970242,327.6206923999125,328.6205990000162,328.60624200000893,None,327.6206923999125,None,327.6206923999125,None,327.6206923999125,None,329.38719977993753,None,329.38719977993753,None,329.38719977993753,None,,,,,,,,,,,,,029,2022-05-25_19h35.58.771,Main,2022.1.1,59.15136717644185,
negative,positive,1,j,l,,,,,,,,,4,5,77,6,,,,,,,,,main,2,2,1,positive,negative,l,l,1,0.6995533000444993,329.39304419991095,330.40618309995625,330.3872715999605,None,329.39304419991095,None,329.39304419991095,None,329.39304419991095,None,331.08716227995467,None,331.08716227995467,None,331.08716227995467,None,,,,,,,,,,,,,029,2022-05-25_19h35.58.771,Main,2022.1.1,59.15136717644185,
positive,neutral,1,l,j,,,,,,,,,4,6,78,8,,,,,,,,,main,1,1,1,neutral,positive,j,j,1,0.7638736000517383,331.09331469994504,332.10608489997685,332.0895512999268,None,331.09331469994504,None,331.09331469994504,None,331.09331469994504,None,332.85323987990853,None,332.85323987990853,None,332.85323987990853,None,,,,,,,,,,,,,029,2022-05-25_19h35.58.771,Main,2022.1.1,59.15136717644185,
neutral,neutral,2,k,k,,,,,,,,,4,7,79,10,,,,,,,,,main,2,2,2,neutral,neutral,k,k,1,0.7009135000407696,332.8693946999265,333.87013659998775,333.85346399992704,None,332.8693946999265,None,332.8693946999265,None,332.8693946999265,None,334.5534459799179,None,334.5534459799179,None,334.5534459799179,None,,,,,,,,,,,,,029,2022-05-25_19h35.58.771,Main,2022.1.1,59.15136717644185,
positive,neutral,2,l,j,,,,,,,,,4,8,80,17,,,,,,,,,main,2,2,2,neutral,positive,j,j,1,0.8272301000542939,334.55868389992975,335.57014159997925,335.5534688999178,None,334.55868389992975,None,334.55868389992975,None,334.55868389992975,None,336.3867442799616,None,336.3867442799616,None,336.3867442799616,None,,,,,,,,,,,,,029,2022-05-25_19h35.58.771,Main,2022.1.1,59.15136717644185,
negative,negative,2,j,l,,,,,,,,,4,9,81,9,,,,,,,,,main,1,1,2,negative,negative,l,l,1,0.6822077999822795,336.3922655999195,337.40596579993144,337.38940079999156,None,336.3922655999195,None,336.3922655999195,None,336.3922655999195,None,338.0704015799216,None,338.0704015799216,None,338.0704015799216,None,,,,,,,,,,,,,029,2022-05-25_19h35.58.771,Main,2022.1.1,59.15136717644185,
neutral,negative,1,k,k,,,,,,,,,4,10,82,7,,,,,,,,,main,2,2,1,negative,neutral,k,j,0,0.6151475000660866,338.07630109996535,339.08706329995766,339.07040580001194,None,338.07630109996535,None,338.07630109996535,None,338.07630109996535,None,339.68705509998836,None,339.68705509998836,None,339.68705509998836,None,,,,,,,,,,,,,029,2022-05-25_19h35.58.771,Main,2022.1.1,59.15136717644185,
negative,negative,1,j,l,,,,,,,,,4,11,83,0,,,,,,,,,main,2,2,1,negative,negative,l,l,1,0.7682101000100374,340.6881201999495,341.6893228999106,341.67258709995076,None,340.6881201999495,None,340.6881201999495,None,340.6881201999495,None,342.45359927994434,None,342.45359927994434,None,342.45359927994434,None,,,,,,,,,,,,,029,2022-05-25_19h35.58.771,Main,2022.1.1,59.15136717644185,
negative,positive,2,j,l,,,,,,,,,4,12,84,15,,,,,,,,,main,2,2,2,positive,negative,l,l,1,0.7140045999549329,342.46017699991353,343.47253239993006,343.45592789992224,None,342.46017699991353,None,342.46017699991353,None,342.46017699991353,None,344.1703123799176,None,344.1703123799176,None,344.1703123799176,None,,,,,,,,,,,,,029,2022-05-25_19h35.58.771,Main,2022.1.1,59.15136717644185,
positive,negative,2,l,j,,,,,,,,,4,13,85,14,,,,,,,,,main,2,2,2,negative,positive,j,j,1,0.8136392999440432,344.17688279994763,345.18671979999635,345.1698751999065,None,344.17688279994763,None,344.17688279994763,None,344.17688279994763,None,345.98646477990553,None,345.98646477990553,None,345.98646477990553,None,,,,,,,,,,,,,029,2022-05-25_19h35.58.771,Main,2022.1.1,59.15136717644185,
positive,negative,1,l,j,,,,,,,,,4,14,86,5,,,,,,,,,main,2,2,1,negative,positive,j,j,1,0.8156303999712691,345.9865783000132,346.9865606999956,346.9865606999956,None,345.9865783000132,None,345.9865783000132,None,345.9865783000132,None,347.8035940799979,None,347.8035940799979,None,347.8035940799979,None,,,,,,,,,,,,,029,2022-05-25_19h35.58.771,Main,2022.1.1,59.15136717644185,
positive,positive,1,l,j,,,,,,,,,4,15,87,2,,,,,,,,,main,1,1,1,positive,positive,j,j,1,0.6817369000054896,347.80930359999184,348.8201892999932,348.8032598999562,None,347.80930359999184,None,347.80930359999184,None,347.80930359999184,None,349.4868428799906,None,349.4868428799906,None,349.4868428799906,None,,,,,,,,,,,,,029,2022-05-25_19h35.58.771,Main,2022.1.1,59.15136717644185,
negative,neutral,1,j,l,,,,,,,,,4,16,88,3,,,,,,,,,main,2,2,1,neutral,negative,l,l,1,1.132497699931264,349.4902112999698,350.50587779993657,350.4868218000047,None,349.4902112999698,None,349.4902112999698,None,349.4902112999698,None,351.62006477996476,None,351.62006477996476,None,351.62006477996476,None,,,,,,,,,,,,,029,2022-05-25_19h35.58.771,Main,2022.1.1,59.15136717644185,
neutral,positive,1,k,k,,,,,,,,,4,17,89,4,,,,,,,,,main,2,2,1,positive,neutral,k,k,1,0.8068668999476358,351.62627379992045,352.6390381999081,352.62008839997,None,351.62627379992045,None,351.62627379992045,None,351.62627379992045,None,353.4262110798969,None,353.4262110798969,None,353.4262110798969,None,,,,,,,,,,,,,029,2022-05-25_19h35.58.771,Main,2022.1.1,59.15136717644185,
negative,neutral,2,j,l,,,,,,,,,5,0,90,12,,,,,,,,,main,1,1,2,neutral,negative,l,l,1,0.8389557000482455,353.432292399928,354.43638319999445,354.4197066000197,None,353.432292399928,None,353.432292399928,None,353.432292399928,None,355.2696175799589,None,355.2696175799589,None,355.2696175799589,None,,,,,,,,,,,,,029,2022-05-25_19h35.58.771,Main,2022.1.1,59.15136717644185,
neutral,neutral,2,k,k,,,,,,,,,5,1,91,10,,,,,,,,,main,2,2,2,neutral,neutral,k,k,1,0.7986887000733986,355.2696622000076,356.2696767000016,356.2696767000016,None,355.2696622000076,None,355.2696622000076,None,355.2696622000076,None,357.0696316799964,None,357.0696316799964,None,357.0696316799964,None,,,,,,,,,,,,,029,2022-05-25_19h35.58.771,Main,2022.1.1,59.15136717644185,
positive,negative,1,l,j,,,,,,,,,5,2,92,5,,,,,,,,,main,1,1,1,negative,positive,j,j,1,0.6308016999391839,357.07623849995434,358.08897069992963,358.0723090999527,None,357.07623849995434,None,357.07623849995434,None,357.07623849995434,None,358.70340497997825,None,358.70340497997825,None,358.70340497997825,None,,,,,,,,,,,,,029,2022-05-25_19h35.58.771,Main,2022.1.1,59.15136717644185,
positive,neutral,1,l,j,,,,,,,,,5,3,93,8,,,,,,,,,main,2,2,1,neutral,positive,j,j,1,0.665129299974069,358.7087468999671,359.7221858999692,359.7033098000102,None,358.7087468999671,None,358.7087468999671,None,358.7087468999671,None,360.36988577999875,None,360.36988577999875,None,360.36988577999875,None,,,,,,,,,,,,,029,2022-05-25_19h35.58.771,Main,2022.1.1,59.15136717644185,
neutral,positive,1,k,k,,,,,,,,,5,4,94,4,,,,,,,,,main,2,2,1,positive,neutral,k,k,1,0.6161294999765232,360.3759316999931,361.386603299994,361.3699190999614,None,360.3759316999931,None,360.3759316999931,None,360.3759316999931,None,361.9865186799667,None,361.9865186799667,None,361.9865186799667,None,,,,,,,,,,,,,029,2022-05-25_19h35.58.771,Main,2022.1.1,59.15136717644185,
negative,positive,2,j,l,,,,,,,,,5,5,95,15,,,,,,,,,main,2,2,2,positive,negative,l,l,1,0.6475170999765396,361.99306779995095,363.00542539998423,362.9889182000188,None,361.99306779995095,None,361.99306779995095,None,361.99306779995095,None,363.63656047995903,None,363.63656047995903,None,363.63656047995903,None,,,,,,,,,,,,,029,2022-05-25_19h35.58.771,Main,2022.1.1,59.15136717644185,
negative,neutral,1,j,l,,,,,,,,,5,6,96,3,,,,,,,,,main,1,1,1,neutral,negative,l,l,1,0.6486241000238806,363.6420094999485,364.6531795999035,364.63880389998667,None,363.6420094999485,None,363.6420094999485,None,363.6420094999485,None,365.2864456799231,None,365.2864456799231,None,365.2864456799231,None,,,,,,,,,,,,,029,2022-05-25_19h35.58.771,Main,2022.1.1,59.15136717644185,
positive,positive,1,l,j,,,,,,,,,5,7,97,2,,,,,,,,,main,2,2,1,positive,positive,j,j,1,0.7309747999534011,365.2927541999379,366.3029824999394,366.2861207999522,None,365.2927541999379,None,365.2927541999379,None,365.2927541999379,None,367.01935787996047,None,367.01935787996047,None,367.01935787996047,None,,,,,,,,,,,,,029,2022-05-25_19h35.58.771,Main,2022.1.1,59.15136717644185,
neutral,negative,1,k,k,,,,,,,,,5,8,98,7,,,,,,,,,main,1,1,1,negative,neutral,k,k,1,0.6821933999890462,367.01942479994614,368.0220305999974,368.0220305999974,None,367.01942479994614,None,367.01942479994614,None,367.01942479994614,None,368.70303807997846,None,368.70303807997846,None,368.70303807997846,None,,,,,,,,,,,,,029,2022-05-25_19h35.58.771,Main,2022.1.1,59.15136717644185,
negative,negative,1,j,l,,,,,,,,,5,9,99,0,,,,,,,,,main,2,2,1,negative,negative,l,l,1,0.7318510999903083,368.7092989999801,369.71972890000325,369.7030655000126,None,368.7092989999801,None,368.7092989999801,None,368.7092989999801,None,370.43644157991514,None,370.43644157991514,None,370.43644157991514,None,,,,,,,,,,,,,029,2022-05-25_19h35.58.771,Main,2022.1.1,59.15136717644185,
negative,positive,1,j,l,,,,,,,,,5,10,100,6,,,,,,,,,main,1,1,1,positive,negative,l,l,1,0.665915499906987,370.4423238999443,371.45521409995854,371.43636349996086,None,370.4423238999443,None,370.4423238999443,None,370.4423238999443,None,372.1029679799336,None,372.1029679799336,None,372.1029679799336,None,,,,,,,,,,,,,029,2022-05-25_19h35.58.771,Main,2022.1.1,59.15136717644185,
neutral,positive,2,k,k,,,,,,,,,5,11,101,13,,,,,,,,,main,1,1,2,positive,neutral,k,k,1,0.680627099936828,372.11267049994785,373.1196566999424,373.105261299992,None,372.11267049994785,None,372.11267049994785,None,372.11267049994785,None,373.7862603799091,None,373.7862603799091,None,373.7862603799091,None,,,,,,,,,,,,,029,2022-05-25_19h35.58.771,Main,2022.1.1,59.15136717644185,
positive,neutral,2,l,j,,,,,,,,,5,12,102,17,,,,,,,,,main,2,2,2,neutral,positive,j,j,1,0.5317527999868616,373.79255279991776,374.8051916999975,374.78628699993715,None,373.79255279991776,None,373.79255279991776,None,373.79255279991776,None,375.3192009799765,None,375.3192009799765,None,375.3192009799765,None,,,,,,,,,,,,,029,2022-05-25_19h35.58.771,Main,2022.1.1,59.15136717644185,
neutral,negative,2,k,k,,,,,,,,,5,13,103,16,,,,,,,,,main,1,1,2,negative,neutral,k,k,1,0.7816509999101982,375.3194291999098,376.31947979994584,376.31947979994584,None,375.3194291999098,None,375.3194291999098,None,375.3194291999098,None,377.10258527992994,None,377.10258527992994,None,377.10258527992994,None,,,,,,,,,,,,,029,2022-05-25_19h35.58.771,Main,2022.1.1,59.15136717644185,
positive,positive,2,l,j,,,,,,,,,5,14,104,11,,,,,,,,,main,1,1,2,positive,positive,j,j,1,0.8317741000792012,377.10289400001056,378.10258539998904,378.10258539998904,None,377.10289400001056,None,377.10289400001056,None,377.10289400001056,None,378.9358339799452,None,378.9358339799452,None,378.9358339799452,None,,,,,,,,,,,,,029,2022-05-25_19h35.58.771,Main,2022.1.1,59.15136717644185,
positive,negative,2,l,j,,,,,,,,,5,15,105,14,,,,,,,,,main,1,1,2,negative,positive,j,j,1,0.6984554000664502,378.9411927999463,379.95512199995574,379.938474399969,None,378.9411927999463,None,378.9411927999463,None,378.9411927999463,None,380.6358026798931,None,380.6358026798931,None,380.6358026798931,None,,,,,,,,,,,,,029,2022-05-25_19h35.58.771,Main,2022.1.1,59.15136717644185,
neutral,neutral,1,k,k,,,,,,,,,5,16,106,1,,,,,,,,,main,1,1,1,neutral,neutral,k,k,1,0.6809230000944808,380.652917600004,381.6550393999787,381.63615869998466,None,380.652917600004,None,380.652917600004,None,380.652917600004,None,382.31943617990476,None,382.31943617990476,None,382.31943617990476,None,,,,,,,,,,,,,029,2022-05-25_19h35.58.771,Main,2022.1.1,59.15136717644185,
negative,negative,2,j,l,,,,,,,,,5,17,107,9,,,,,,,,,main,2,2,2,negative,negative,l,l,1,0.5986659999471158,382.3252235999098,383.336124299909,383.3217568999389,None,382.3252235999098,None,382.3252235999098,None,382.3252235999098,None,383.9195522799506,None,383.9195522799506,None,383.9195522799506,None,,,,,,,,,,,,,029,2022-05-25_19h35.58.771,Main,2022.1.1,59.15136717644185,
neutral,positive,2,k,k,,,,,,,,,6,0,108,13,,,,,,,,,main,2,2,2,positive,neutral,k,k,1,0.7660058999899775,383.925867700018,384.9361054999754,384.91941390000284,None,383.925867700018,None,383.925867700018,None,383.925867700018,None,385.6860329799471,None,385.6860329799471,None,385.6860329799471,None,,,,,,,,,,,,,029,2022-05-25_19h35.58.771,Main,2022.1.1,59.15136717644185,
neutral,positive,1,k,k,,,,,,,,,6,1,109,4,,,,,,,,,main,2,2,1,positive,neutral,k,k,1,0.7807685000589117,385.69257039995864,386.70236389990896,386.6857605999103,None,385.69257039995864,None,385.69257039995864,None,385.69257039995864,None,387.4689449799131,None,387.4689449799131,None,387.4689449799131,None,,,,,,,,,,,,,029,2022-05-25_19h35.58.771,Main,2022.1.1,59.15136717644185,
positive,negative,2,l,j,,,,,,,,,6,2,110,14,,,,,,,,,main,1,1,2,negative,positive,j,j,1,0.7818143999902532,387.4690092999954,388.4690456999233,388.4690456999233,None,387.4690092999954,None,387.4690092999954,None,387.4690092999954,None,389.2526156799519,None,389.2526156799519,None,389.2526156799519,None,,,,,,,,,,,,,029,2022-05-25_19h35.58.771,Main,2022.1.1,59.15136717644185,
neutral,negative,2,k,k,,,,,,,,,6,3,111,16,,,,,,,,,main,1,1,2,negative,neutral,k,k,1,0.665142200072296,389.25853679992724,390.26934040000197,390.25494749995414,None,389.25853679992724,None,389.25853679992724,None,389.25853679992724,None,390.9192423799192,None,390.9192423799192,None,390.9192423799192,None,,,,,,,,,,,,,029,2022-05-25_19h35.58.771,Main,2022.1.1,59.15136717644185,
negative,positive,1,j,l,,,,,,,,,6,4,112,6,,,,,,,,,main,1,1,1,positive,negative,l,l,1,0.6317102999892086,390.92502640001476,391.9381835999666,391.9214713999536,None,390.92502640001476,None,390.92502640001476,None,390.92502640001476,None,392.5525355799706,None,392.5525355799706,None,392.5525355799706,None,,,,,,,,,,,,,029,2022-05-25_19h35.58.771,Main,2022.1.1,59.15136717644185,
neutral,negative,1,k,k,,,,,,,,,6,5,113,7,,,,,,,,,main,1,1,1,negative,neutral,k,k,1,0.765076500014402,392.55801689997315,393.56968750001397,393.55276549991686,None,392.55801689997315,None,392.55801689997315,None,392.55801689997315,None,394.3193289799034,None,394.3193289799034,None,394.3193289799034,None,,,,,,,,,,,,,029,2022-05-25_19h35.58.771,Main,2022.1.1,59.15136717644185,
negative,neutral,2,j,l,,,,,,,,,6,6,114,12,,,,,,,,,main,2,2,2,neutral,negative,l,l,1,1.8804968000622466,394.325875599985,395.3380782000022,395.3191932999762,None,394.325875599985,None,394.325875599985,None,394.325875599985,None,397.20212929998524,None,397.20212929998524,None,397.20212929998524,None,,,,,,,,,,,,,029,2022-05-25_19h35.58.771,Main,2022.1.1,59.15136717644185,
positive,neutral,1,l,j,,,,,,,,,6,7,115,8,,,,,,,,,main,1,1,1,neutral,positive,j,j,1,1.4697734999936074,398.2021175000118,399.2021052999189,399.1854527000105,None,398.2021175000118,None,398.2021175000118,None,398.2021175000118,None,400.66918317993407,None,400.66918317993407,None,400.66918317993407,None,,,,,,,,,,,,,029,2022-05-25_19h35.58.771,Main,2022.1.1,59.15136717644185,
negative,negative,2,j,l,,,,,,,,,6,8,116,9,,,,,,,,,main,1,1,2,negative,negative,l,l,1,0.7644210000289604,400.67533509992063,401.68799120001495,401.6713241999969,None,400.67533509992063,None,400.67533509992063,None,400.67533509992063,None,402.4356709799846,None,402.4356709799846,None,402.4356709799846,None,,,,,,,,,,,,,029,2022-05-25_19h35.58.771,Main,2022.1.1,59.15136717644185,
neutral,neutral,2,k,k,,,,,,,,,6,9,117,10,,,,,,,,,main,1,1,2,neutral,neutral,k,k,1,0.6644228000659496,402.4524989000056,403.4546071999939,403.43569189996924,None,402.4524989000056,None,402.4524989000056,None,402.4524989000056,None,404.102300579974,None,404.102300579974,None,404.102300579974,None,,,,,,,,,,,,,029,2022-05-25_19h35.58.771,Main,2022.1.1,59.15136717644185,
positive,negative,1,l,j,,,,,,,,,6,10,118,5,,,,,,,,,main,2,2,1,negative,positive,j,j,1,0.6006389000685886,404.1080280999886,405.11900439998135,405.1045424999902,None,404.1080280999886,None,404.1080280999886,None,404.1080280999886,None,405.7044971799129,None,405.7044971799129,None,405.7044971799129,None,,,,,,,,,,,,,029,2022-05-25_19h35.58.771,Main,2022.1.1,59.15136717644185,
positive,positive,2,l,j,,,,,,,,,6,11,119,11,,,,,,,,,main,2,2,2,positive,positive,j,j,1,0.7795761999441311,405.7086497999262,406.7189569999464,406.7023029999109,None,405.7086497999262,None,405.7086497999262,None,405.7086497999262,None,407.4852100798977,None,407.4852100798977,None,407.4852100798977,None,,,,,,,,,,,,,029,2022-05-25_19h35.58.771,Main,2022.1.1,59.15136717644185,
negative,neutral,1,j,l,,,,,,,,,6,12,120,3,,,,,,,,,main,1,1,1,neutral,negative,l,l,1,0.6815060999942943,407.4853238000069,408.4852461999981,408.4852461999981,None,407.4853238000069,None,407.4853238000069,None,407.4853238000069,None,409.16853817991216,None,409.16853817991216,None,409.16853817991216,None,,,,,,,,,,,,,029,2022-05-25_19h35.58.771,Main,2022.1.1,59.15136717644185,
positive,positive,1,l,j,,,,,,,,,6,13,121,2,,,,,,,,,main,1,1,1,positive,positive,j,j,1,0.749146300018765,409.17499149998184,410.18556349992286,410.16888859996106,None,409.17499149998184,None,409.17499149998184,None,409.17499149998184,None,410.9188232799876,None,410.9188232799876,None,410.9188232799876,None,,,,,,,,,,,,,029,2022-05-25_19h35.58.771,Main,2022.1.1,59.15136717644185,
negative,negative,1,j,l,,,,,,,,,6,14,122,0,,,,,,,,,main,2,2,1,negative,negative,l,l,1,0.8048686000984162,410.92551259999163,411.93564919999335,411.9200529999798,None,410.92551259999163,None,410.92551259999163,None,410.92551259999163,None,412.72487117998537,None,412.72487117998537,None,412.72487117998537,None,,,,,,,,,,,,,029,2022-05-25_19h35.58.771,Main,2022.1.1,59.15136717644185,
neutral,neutral,1,k,k,,,,,,,,,6,15,123,1,,,,,,,,,main,1,1,1,neutral,neutral,k,k,1,0.6242116000503302,412.72972009994555,413.7354780000169,413.721105500008,None,412.72972009994555,None,412.72972009994555,None,412.72972009994555,None,414.35214437994875,None,414.35214437994875,None,414.35214437994875,None,,,,,,,,,,,,,029,2022-05-25_19h35.58.771,Main,2022.1.1,59.15136717644185,
negative,positive,2,j,l,,,,,,,,,6,16,124,15,,,,,,,,,main,1,1,2,positive,negative,l,l,1,0.6724933000514284,414.3582818999421,415.3687858999474,415.35214219999034,None,414.3582818999421,None,414.3582818999421,None,414.3582818999421,None,416.0227520799614,None,416.0227520799614,None,416.0227520799614,None,,,,,,,,,,,,,029,2022-05-25_19h35.58.771,Main,2022.1.1,59.15136717644185,
positive,neutral,2,l,j,,,,,,,,,6,17,125,17,,,,,,,,,main,1,1,2,neutral,positive,j,j,1,0.7241262999596074,416.03401950001717,417.03502899990417,417.03502899990417,None,416.03401950001717,None,416.03401950001717,None,416.03401950001717,None,417.75165978000734,None,417.75165978000734,None,417.75165978000734,None,,,,,,,,,,,,,029,2022-05-25_19h35.58.771,Main,2022.1.1,59.15136717644185,
negative,neutral,1,j,l,,,,,,,,,7,0,126,3,,,,,,,,,main,2,2,1,neutral,negative,l,l,1,0.6150161999976262,417.75178589997813,418.7516922999639,418.7516922999639,None,417.75178589997813,None,417.75178589997813,None,417.75178589997813,None,419.36833517994967,None,419.36833517994967,None,419.36833517994967,None,,,,,,,,,,,,,029,2022-05-25_19h35.58.771,Main,2022.1.1,59.15136717644185,
negative,positive,1,j,l,,,,,,,,,7,1,127,6,,,,,,,,,main,2,2,1,positive,negative,l,l,1,0.6820357999531552,419.3743596000131,420.3853422999382,420.36869289993774,None,419.3743596000131,None,419.3743596000131,None,419.3743596000131,None,421.0519386799657,None,421.0519386799657,None,421.0519386799657,None,,,,,,,,,,,,,029,2022-05-25_19h35.58.771,Main,2022.1.1,59.15136717644185,
neutral,neutral,2,k,k,,,,,,,,,7,2,128,10,,,,,,,,,main,2,2,2,neutral,neutral,k,k,1,0.6643325999611989,421.05844870000146,422.06863549991976,422.054253899958,None,421.05844870000146,None,421.05844870000146,None,421.05844870000146,None,422.71858027993005,None,422.71858027993005,None,422.71858027993005,None,,,,,,,,,,,,,029,2022-05-25_19h35.58.771,Main,2022.1.1,59.15136717644185,
positive,neutral,2,l,j,,,,,,,,,7,3,129,17,,,,,,,,,main,1,1,2,neutral,positive,j,l,0,0.5650931999552995,422.7239630999975,423.73526149999816,423.7209231000161,None,422.7239630999975,None,422.7239630999975,None,422.7239630999975,None,424.28534209995996,None,424.28534209995996,None,424.28534209995996,None,,,,,,,,,,,,,029,2022-05-25_19h35.58.771,Main,2022.1.1,59.15136717644185,
neutral,positive,1,k,k,,,,,,,,,7,4,130,4,,,,,,,,,main,1,1,1,positive,neutral,k,k,1,0.8506857000757009,425.2861763999099,426.28744250000454,426.27092359995004,None,425.2861763999099,None,425.2861763999099,None,425.2861763999099,None,427.1347714799573,None,427.1347714799573,None,427.1347714799573,None,,,,,,,,,,,,,029,2022-05-25_19h35.58.771,Main,2022.1.1,59.15136717644185,
negative,negative,2,j,l,,,,,,,,,7,5,131,9,,,,,,,,,main,2,2,2,negative,negative,l,l,1,0.7149177000392228,427.13485339994077,428.1348163000075,428.1348163000075,None,427.13485339994077,None,427.13485339994077,None,427.13485339994077,None,428.85142767996297,None,428.85142767996297,None,428.85142767996297,None,,,,,,,,,,,,,029,2022-05-25_19h35.58.771,Main,2022.1.1,59.15136717644185,
negative,negative,1,j,l,,,,,,,,,7,6,132,0,,,,,,,,,main,2,2,1,negative,negative,l,l,1,0.7987390999915078,428.85390799993183,429.86815419991035,429.85149019991513,None,428.85390799993183,None,428.85390799993183,None,428.85390799993183,None,430.65181357992117,None,430.65181357992117,None,430.65181357992117,None,,,,,,,,,,,,,029,2022-05-25_19h35.58.771,Main,2022.1.1,59.15136717644185,
neutral,negative,2,k,k,,,,,,,,,7,7,133,16,,,,,,,,,main,2,2,2,negative,neutral,k,k,1,0.6984709999524057,430.65816029999405,431.6707649999298,431.65413999999873,None,430.65816029999405,None,430.65816029999405,None,430.65816029999405,None,432.35174907996554,None,432.35174907996554,None,432.35174907996554,None,,,,,,,,,,,,,029,2022-05-25_19h35.58.771,Main,2022.1.1,59.15136717644185,
positive,positive,1,l,j,,,,,,,,,7,8,134,2,,,,,,,,,main,1,1,1,positive,positive,j,j,1,0.7316220999928191,432.3580636999104,433.3707004999742,433.3540813999716,None,432.3580636999104,None,432.3580636999104,None,432.3580636999104,None,434.0849989798968,None,434.0849989798968,None,434.0849989798968,None,,,,,,,,,,,,,029,2022-05-25_19h35.58.771,Main,2022.1.1,59.15136717644185,
neutral,neutral,1,k,k,,,,,,,,,7,9,135,1,,,,,,,,,main,1,1,1,neutral,neutral,k,k,1,0.6488535000244156,434.09023009997327,435.10171499999706,435.087353699957,None,434.09023009997327,None,434.09023009997327,None,434.09023009997327,None,435.7349621799891,None,435.7349621799891,None,435.7349621799891,None,,,,,,,,,,,,,029,2022-05-25_19h35.58.771,Main,2022.1.1,59.15136717644185,
positive,neutral,1,l,j,,,,,,,,,7,10,136,8,,,,,,,,,main,1,1,1,neutral,positive,j,j,1,1.0144946000073105,435.7517909000162,436.7516857999144,436.7350034000119,None,435.7517909000162,None,435.7517909000162,None,435.7517909000162,None,437.75123567992125,None,437.75123567992125,None,437.75123567992125,None,,,,,,,,,,,,,029,2022-05-25_19h35.58.771,Main,2022.1.1,59.15136717644185,
negative,positive,2,j,l,,,,,,,,,7,11,137,15,,,,,,,,,main,2,2,2,positive,negative,l,l,1,0.652455999981612,437.75130200001877,438.75127169990446,438.75127169990446,None,437.75130200001877,None,437.75130200001877,None,437.75130200001877,None,439.4012522799545,None,439.4012522799545,None,439.4012522799545,None,,,,,,,,,,,,,029,2022-05-25_19h35.58.771,Main,2022.1.1,59.15136717644185,
positive,negative,1,l,j,,,,,,,,,7,12,138,5,,,,,,,,,main,2,2,1,negative,positive,j,j,1,0.8102541998960078,439.41069629997946,440.4182625999674,440.40225119993556,None,439.41069629997946,None,439.41069629997946,None,439.41069629997946,None,441.21818337993466,None,441.21818337993466,None,441.21818337993466,None,,,,,,,,,,,,,029,2022-05-25_19h35.58.771,Main,2022.1.1,59.15136717644185,
neutral,negative,1,k,k,,,,,,,,,7,13,139,7,,,,,,,,,main,2,2,1,negative,neutral,k,k,1,0.5151514000026509,441.22408379998524,442.2370349999983,442.2205027999589,None,441.22408379998524,None,441.22408379998524,None,441.22408379998524,None,442.73498487992913,None,442.73498487992913,None,442.73498487992913,None,,,,,,,,,,,,,029,2022-05-25_19h35.58.771,Main,2022.1.1,59.15136717644185,
positive,negative,2,l,j,,,,,,,,,7,14,140,14,,,,,,,,,main,1,1,2,negative,positive,j,j,1,0.7480518999509513,442.7456554999808,443.75387429993134,443.73718719999306,None,442.7456554999808,None,442.7456554999808,None,442.7456554999808,None,444.4848832799704,None,444.4848832799704,None,444.4848832799704,None,,,,,,,,,,,,,029,2022-05-25_19h35.58.771,Main,2022.1.1,59.15136717644185,
negative,neutral,2,j,l,,,,,,,,,7,15,141,12,,,,,,,,,main,2,2,2,neutral,negative,l,l,1,0.6819823000114411,444.4910849999869,445.5014846000122,445.48480739991646,None,444.4910849999869,None,444.4910849999869,None,444.4910849999869,None,446.16808307993927,None,446.16808307993927,None,446.16808307993927,None,,,,,,,,,,,,,029,2022-05-25_19h35.58.771,Main,2022.1.1,59.15136717644185,
neutral,positive,2,k,k,,,,,,,,,7,16,142,13,,,,,,,,,main,1,1,2,positive,neutral,k,k,1,0.608854400110431,446.1734544999199,447.18478120001964,447.1704206999857,None,446.1734544999199,None,446.1734544999199,None,446.1734544999199,None,447.77816027993106,None,447.77816027993106,None,447.77816027993106,None,,,,,,,,,,,,,029,2022-05-25_19h35.58.771,Main,2022.1.1,59.15136717644185,
positive,positive,2,l,j,,,,,,,,,7,17,143,11,,,,,,,,,main,2,2,2,positive,positive,j,j,1,0.67134260002058,447.7943516999949,448.80135139997583,448.76825279998593,None,447.7943516999949,None,447.7943516999949,None,447.7943516999949,None,449.4512190799811,None,449.4512190799811,None,449.4512190799811,None,,,,,,,,,,,,,029,2022-05-25_19h35.58.771,Main,2022.1.1,59.15136717644185,
positive,negative,2,l,j,,,,,,,,,8,0,144,14,,,,,,,,,main,2,2,2,negative,positive,j,j,1,0.5641180000966415,449.45725159998983,450.46795379999094,450.4512690999545,None,449.45725159998983,None,449.45725159998983,None,449.45725159998983,None,451.01787617997036,None,451.01787617997036,None,451.01787617997036,None,,,,,,,,,,,,,029,2022-05-25_19h35.58.771,Main,2022.1.1,59.15136717644185,
positive,positive,2,l,j,,,,,,,,,8,1,145,11,,,,,,,,,main,1,1,2,positive,positive,j,j,1,0.5318386000581086,451.0212085999083,452.03459179995116,452.01793789991643,None,451.0212085999083,None,451.0212085999083,None,451.0212085999083,None,452.5511976799113,None,452.5511976799113,None,452.5511976799113,None,,,,,,,,,,,,,029,2022-05-25_19h35.58.771,Main,2022.1.1,59.15136717644185,
neutral,negative,2,k,k,,,,,,,,,8,2,146,16,,,,,,,,,main,1,1,2,negative,neutral,k,k,1,0.6151723000220954,452.55646479991265,453.56834599992726,453.5512305999873,None,452.55646479991265,None,452.55646479991265,None,452.55646479991265,None,454.1678361799219,None,454.1678361799219,None,454.1678361799219,None,,,,,,,,,,,,,029,2022-05-25_19h35.58.771,Main,2022.1.1,59.15136717644185,
negative,neutral,1,j,l,,,,,,,,,8,3,147,3,,,,,,,,,main,2,2,1,neutral,negative,l,l,1,0.6816567999776453,454.17334929993376,455.18454960000236,455.170135299908,None,454.17334929993376,None,454.17334929993376,None,454.17334929993376,None,455.8511515799561,None,455.8511515799561,None,455.8511515799561,None,,,,,,,,,,,,,029,2022-05-25_19h35.58.771,Main,2022.1.1,59.15136717644185,
neutral,neutral,1,k,k,,,,,,,,,8,4,148,1,,,,,,,,,main,2,2,1,neutral,neutral,k,k,1,0.7522713000653312,455.87025719997473,456.8842650000006,456.85087570000906,None,455.87025719997473,None,455.87025719997473,None,455.87025719997473,None,457.60090737995927,None,457.60090737995927,None,457.60090737995927,None,,,,,,,,,,,,,029,2022-05-25_19h35.58.771,Main,2022.1.1,59.15136717644185,
negative,negative,1,j,l,,,,,,,,,8,5,149,0,,,,,,,,,main,2,2,1,negative,negative,l,k,0,0.5982120999833569,457.60586909996346,458.6175554000074,458.6008914000122,None,457.60586909996346,None,457.60586909996346,None,457.60586909996346,None,459.2048940999666,None,459.2048940999666,None,459.2048940999666,None,,,,,,,,,,,,,029,2022-05-25_19h35.58.771,Main,2022.1.1,59.15136717644185,
positive,negative,1,l,j,,,,,,,,,8,6,150,5,,,,,,,,,main,1,1,1,negative,positive,j,j,1,0.701505700009875,460.2188063999638,461.2345035999315,461.2011347999796,None,460.2188063999638,None,460.2188063999638,None,460.2188063999638,None,461.91797107990135,None,461.91797107990135,None,461.91797107990135,None,,,,,,,,,,,,,029,2022-05-25_19h35.58.771,Main,2022.1.1,59.15136717644185,
positive,positive,1,l,j,,,,,,,,,8,7,151,2,,,,,,,,,main,2,2,1,positive,positive,j,j,1,0.6480571000138298,461.924005299923,462.93661939993035,462.9178424999118,None,461.924005299923,None,461.924005299923,None,461.924005299923,None,463.56771647996504,None,463.56771647996504,None,463.56771647996504,None,,,,,,,,,,,,,029,2022-05-25_19h35.58.771,Main,2022.1.1,59.15136717644185,
neutral,positive,2,k,k,,,,,,,,,8,8,152,13,,,,,,,,,main,2,2,2,positive,neutral,k,k,1,0.7480704999761656,463.5844484999543,464.58677799999714,464.5700192999793,None,463.5844484999543,None,463.5844484999543,None,463.5844484999543,None,465.3176867799717,None,465.3176867799717,None,465.3176867799717,None,,,,,,,,,,,,,029,2022-05-25_19h35.58.771,Main,2022.1.1,59.15136717644185,
positive,neutral,2,l,j,,,,,,,,,8,9,153,17,,,,,,,,,main,2,2,2,neutral,positive,j,j,1,0.699037600075826,465.3237475999631,466.33408409997355,466.3173549999483,None,465.3237475999631,None,465.3237475999631,None,465.3237475999631,None,467.017258679925,None,467.017258679925,None,467.017258679925,None,,,,,,,,,,,,,029,2022-05-25_19h35.58.771,Main,2022.1.1,59.15136717644185,
neutral,neutral,2,k,k,,,,,,,,,8,10,154,10,,,,,,,,,main,1,1,2,neutral,neutral,k,k,1,0.6638618999859318,467.03400380001403,468.03400009998586,468.01732729992364,None,467.03400380001403,None,467.03400380001403,None,467.03400380001403,None,468.68393427991543,None,468.68393427991543,None,468.68393427991543,None,,,,,,,,,,,,,029,2022-05-25_19h35.58.771,Main,2022.1.1,59.15136717644185,
negative,negative,2,j,l,,,,,,,,,8,11,155,9,,,,,,,,,main,1,1,2,negative,negative,l,k,0,0.6322465999983251,468.68417059991043,469.6840231999522,469.6840231999522,None,468.68417059991043,None,468.68417059991043,None,468.68417059991043,None,470.31766249996144,None,470.31766249996144,None,470.31766249996144,None,,,,,,,,,,,,,029,2022-05-25_19h35.58.771,Main,2022.1.1,59.15136717644185,
negative,positive,1,j,l,,,,,,,,,8,12,156,6,,,,,,,,,main,1,1,1,positive,negative,l,l,1,0.8178176999790594,471.3179588000057,472.31983139994554,472.30319859995507,None,471.3179588000057,None,471.3179588000057,None,471.3179588000057,None,473.1341871799319,None,473.1341871799319,None,473.1341871799319,None,,,,,,,,,,,,,029,2022-05-25_19h35.58.771,Main,2022.1.1,59.15136717644185,
negative,neutral,2,j,l,,,,,,,,,8,13,157,12,,,,,,,,,main,2,2,2,neutral,negative,l,l,1,0.7654967000707984,473.1420575999655,474.15089349995833,474.1365342999343,None,473.1420575999655,None,473.1420575999655,None,473.1420575999655,None,474.9008194799186,None,474.9008194799186,None,474.9008194799186,None,,,,,,,,,,,,,029,2022-05-25_19h35.58.771,Main,2022.1.1,59.15136717644185,
neutral,negative,1,k,k,,,,,,,,,8,14,158,7,,,,,,,,,main,1,1,1,negative,neutral,k,k,1,0.5643488999921829,474.9070061999373,475.9198216999648,475.90310429991223,None,474.9070061999373,None,474.9070061999373,None,474.9070061999373,None,476.46749697994676,None,476.46749697994676,None,476.46749697994676,None,,,,,,,,,,,,,029,2022-05-25_19h35.58.771,Main,2022.1.1,59.15136717644185,
positive,neutral,1,l,j,,,,,,,,,8,15,159,8,,,,,,,,,main,2,2,1,neutral,positive,j,j,1,1.4351653000339866,476.4733125999337,477.4837832999183,477.4671290999977,None,476.4733125999337,None,476.4733125999337,None,476.4733125999337,None,478.900452079915,None,478.900452079915,None,478.900452079915,None,,,,,,,,,,,,,029,2022-05-25_19h35.58.771,Main,2022.1.1,59.15136717644185,
neutral,positive,1,k,k,,,,,,,,,8,16,160,4,,,,,,,,,main,2,2,1,positive,neutral,k,k,1,0.761593300034292,478.9075981999049,479.9197549999226,479.9030538999941,None,478.9075981999049,None,478.9075981999049,None,478.9075981999049,None,480.6673544799793,None,480.6673544799793,None,480.6673544799793,None,,,,,,,,,,,,,029,2022-05-25_19h35.58.771,Main,2022.1.1,59.15136717644185,
negative,positive,2,j,l,,,,,,,,,8,17,161,15,,,,,,,,,main,2,2,2,positive,negative,l,l,1,0.6819323999807239,480.67334290000144,481.68407069996465,481.66964099998586,None,480.67334290000144,None,480.67334290000144,None,480.67334290000144,None,482.3507334799157,None,482.3507334799157,None,482.3507334799157,None,,,,,,,,,,,,,029,2022-05-25_19h35.58.771,Main,2022.1.1,59.15136717644185,
positive,neutral,2,l,j,,,,,,,,,9,0,162,17,,,,,,,,,main,2,2,2,neutral,positive,j,j,1,0.8482501999242231,482.3674578999635,483.3695710999891,483.3506969999289,None,482.3674578999635,None,482.3674578999635,None,482.3674578999635,None,484.20061797994424,None,484.20061797994424,None,484.20061797994424,None,,,,,,,,,,,,,029,2022-05-25_19h35.58.771,Main,2022.1.1,59.15136717644185,
positive,positive,1,l,j,,,,,,,,,9,1,163,2,,,,,,,,,main,1,1,1,positive,positive,j,j,1,0.7983779000351205,484.2063494999893,485.21958529995754,485.20293779997155,None,484.2063494999893,None,484.2063494999893,None,484.2063494999893,None,486.00066287998345,None,486.00066287998345,None,486.00066287998345,None,,,,,,,,,,,,,029,2022-05-25_19h35.58.771,Main,2022.1.1,59.15136717644185,
neutral,negative,2,k,k,,,,,,,,,9,2,164,16,,,,,,,,,main,2,2,2,negative,neutral,k,k,1,1.2477997000096366,486.006856199936,487.0165910999058,486.99993729998823,None,486.006856199936,None,486.006856199936,None,486.006856199936,None,488.2501595799928,None,488.2501595799928,None,488.2501595799928,None,,,,,,,,,,,,,029,2022-05-25_19h35.58.771,Main,2022.1.1,59.15136717644185,
neutral,neutral,2,k,k,,,,,,,,,9,3,165,10,,,,,,,,,main,1,1,2,neutral,neutral,k,k,1,-0.6513509000651538,488.25049639993813,None,None,None,488.25049639993813,None,488.25049639993813,None,488.25049639993813,None,488.6002242999384,None,488.6002242999384,None,488.6002242999384,None,,,,,,,,,,,,,029,2022-05-25_19h35.58.771,Main,2022.1.1,59.15136717644185,
negative,negative,1,j,l,,,,,,,,,9,4,166,0,,,,,,,,,main,1,1,1,negative,negative,l,l,1,0.7844880999764428,491.60151969990693,492.6027699999977,492.586150099989,None,491.60151969990693,None,491.60151969990693,None,491.60151969990693,None,493.3837587799295,None,493.3837587799295,None,493.3837587799295,None,,,,,,,,,,,,,029,2022-05-25_19h35.58.771,Main,2022.1.1,59.15136717644185,
negative,negative,2,j,l,,,,,,,,,9,5,167,9,,,,,,,,,main,2,2,2,negative,negative,l,l,1,0.8481257000239566,493.38938690000214,494.40267729992047,494.38380539999343,None,493.38938690000214,None,493.38938690000214,None,493.38938690000214,None,495.23370257994395,None,495.23370257994395,None,495.23370257994395,None,,,,,,,,,,,,,029,2022-05-25_19h35.58.771,Main,2022.1.1,59.15136717644185,
negative,neutral,2,j,l,,,,,,,,,9,6,168,12,,,,,,,,,main,1,1,2,neutral,negative,l,l,1,0.6986238000681624,495.2393609000137,496.2525871999096,496.23374329996295,None,495.2393609000137,None,495.2393609000137,None,495.2393609000137,None,496.93374407998056,None,496.93374407998056,None,496.93374407998056,None,,,,,,,,,,,,,029,2022-05-25_19h35.58.771,Main,2022.1.1,59.15136717644185,
positive,negative,1,l,j,,,,,,,,,9,7,169,5,,,,,,,,,main,1,1,1,negative,positive,j,j,1,0.6869894999545068,496.9395366999088,497.95255309995264,497.93367589998525,None,496.9395366999088,None,496.9395366999088,None,496.9395366999088,None,498.6224687799928,None,498.6224687799928,None,498.6224687799928,None,,,,,,,,,,,,,029,2022-05-25_19h35.58.771,Main,2022.1.1,59.15136717644185,
neutral,positive,2,k,k,,,,,,,,,9,8,170,13,,,,,,,,,main,1,1,2,positive,neutral,k,k,1,0.5760545999510214,498.6231140999589,499.63333189999685,499.6166572999209,None,498.6231140999589,None,498.6231140999589,None,498.6231140999589,None,500.1999613799504,None,500.1999613799504,None,500.1999613799504,None,,,,,,,,,,,,,029,2022-05-25_19h35.58.771,Main,2022.1.1,59.15136717644185,
positive,neutral,1,l,j,,,,,,,,,9,9,171,8,,,,,,,,,main,2,2,1,neutral,positive,j,j,1,0.7820381999481469,500.1999578999821,501.20030919997953,501.20030919997953,None,500.1999578999821,None,500.1999578999821,None,500.1999578999821,None,501.98356957997896,None,501.98356957997896,None,501.98356957997896,None,,,,,,,,,,,,,029,2022-05-25_19h35.58.771,Main,2022.1.1,59.15136717644185,
negative,neutral,1,j,l,,,,,,,,,9,10,172,3,,,,,,,,,main,1,1,1,neutral,negative,l,l,1,0.6818680999567732,501.9892915999517,503.0025389000075,502.98590079997666,None,501.9892915999517,None,501.9892915999517,None,501.9892915999517,None,503.66688027997736,None,503.66688027997736,None,503.66688027997736,None,,,,,,,,,,,,,029,2022-05-25_19h35.58.771,Main,2022.1.1,59.15136717644185,
neutral,positive,1,k,k,,,,,,,,,9,11,173,4,,,,,,,,,main,1,1,1,positive,neutral,k,k,1,0.7651233000215143,503.67253129999153,504.6835848999908,504.66915460000746,None,503.67253129999153,None,503.67253129999153,None,503.67253129999153,None,505.4334978799685,None,505.4334978799685,None,505.4334978799685,None,,,,,,,,,,,,,029,2022-05-25_19h35.58.771,Main,2022.1.1,59.15136717644185,
negative,positive,2,j,l,,,,,,,,,9,12,174,15,,,,,,,,,main,2,2,2,positive,negative,l,l,1,0.7819108000257984,505.4394949999405,506.4524359999923,506.4358246999327,None,505.4394949999405,None,505.4394949999405,None,505.4394949999405,None,507.21679037992146,None,507.21679037992146,None,507.21679037992146,None,,,,,,,,,,,,,029,2022-05-25_19h35.58.771,Main,2022.1.1,59.15136717644185,
positive,positive,2,l,j,,,,,,,,,9,13,175,11,,,,,,,,,main,2,2,2,positive,positive,j,j,1,0.7813293000217527,507.2226793000009,508.235801099916,508.21683159994427,None,507.2226793000009,None,507.2226793000009,None,507.2226793000009,None,508.99972187991955,None,508.99972187991955,None,508.99972187991955,None,,,,,,,,,,,,,029,2022-05-25_19h35.58.771,Main,2022.1.1,59.15136717644185,
positive,negative,2,l,j,,,,,,,,,9,14,176,14,,,,,,,,,main,2,2,2,negative,positive,j,j,1,0.6650688999798149,508.9997701999964,509.99974240001757,509.99974240001757,None,508.9997701999964,None,508.9997701999964,None,508.9997701999964,None,510.66637737998974,None,510.66637737998974,None,510.66637737998974,None,,,,,,,,,,,,,029,2022-05-25_19h35.58.771,Main,2022.1.1,59.15136717644185,
negative,positive,1,j,l,,,,,,,,,9,15,177,6,,,,,,,,,main,1,1,1,positive,negative,l,l,1,0.8319304999895394,510.67149139998946,511.68342589994427,511.669061099994,None,510.67149139998946,None,510.67149139998946,None,510.67149139998946,None,512.5001152800047,None,512.5001152800047,None,512.5001152800047,None,,,,,,,,,,,,,029,2022-05-25_19h35.58.771,Main,2022.1.1,59.15136717644185,
neutral,neutral,1,k,k,,,,,,,,,9,16,178,1,,,,,,,,,main,2,2,1,neutral,neutral,k,k,1,0.6476738000055775,512.5062343999743,513.5167261000024,513.5023685999913,None,512.5062343999743,None,512.5062343999743,None,512.5062343999743,None,514.1499944799231,None,514.1499944799231,None,514.1499944799231,None,,,,,,,,,,,,,029,2022-05-25_19h35.58.771,Main,2022.1.1,59.15136717644185,
neutral,negative,1,k,k,,,,,,,,,9,17,179,7,,,,,,,,,main,2,2,1,negative,neutral,k,j,0,0.49842049996368587,514.1557594999904,515.1666975999251,515.1523221000098,None,514.1557594999904,None,514.1557594999904,None,514.1557594999904,None,515.6500415999908,None,515.6500415999908,None,515.6500415999908,None,,,,,,,,,,,,,029,2022-05-25_19h35.58.771,Main,2022.1.1,59.15136717644185,
positive,positive,1,l,j,,,,,,,,,10,0,180,2,,,,,,,,,main,2,2,1,positive,positive,j,j,1,0.8267650000052527,516.6567625999451,517.6666623000056,517.6505852999398,None,516.6567625999451,None,516.6567625999451,None,516.6567625999451,None,518.4758553799126,None,518.4758553799126,None,518.4758553799126,None,,,,,,,,,,,,,029,2022-05-25_19h35.58.771,Main,2022.1.1,59.15136717644185,
neutral,negative,2,k,k,,,,,,,,,10,1,181,16,,,,,,,,,main,2,2,2,negative,neutral,k,k,1,0.6052555000642315,518.4918409999227,519.5000953999115,519.466814299929,None,518.4918409999227,None,518.4918409999227,None,518.4918409999227,None,520.0830633799429,None,520.0830633799429,None,520.0830633799429,None,,,,,,,,,,,,,029,2022-05-25_19h35.58.771,Main,2022.1.1,59.15136717644185,
positive,negative,2,l,j,,,,,,,,,10,2,182,14,,,,,,,,,main,1,1,2,negative,positive,j,j,1,0.7817618999397382,520.0881214999827,521.0997894000029,521.0831665999722,None,520.0881214999827,None,520.0881214999827,None,520.0881214999827,None,521.8663970799768,None,521.8663970799768,None,521.8663970799768,None,,,,,,,,,,,,,029,2022-05-25_19h35.58.771,Main,2022.1.1,59.15136717644185,
negative,negative,2,j,l,,,,,,,,,10,3,183,9,,,,,,,,,main,1,1,2,negative,negative,l,l,1,0.8151715999701992,521.8712280999171,522.8832438999088,522.8686899999157,None,521.8712280999171,None,521.8712280999171,None,521.8712280999171,None,523.6830659799394,None,523.6830659799394,None,523.6830659799394,None,,,,,,,,,,,,,029,2022-05-25_19h35.58.771,Main,2022.1.1,59.15136717644185,
neutral,neutral,1,k,k,,,,,,,,,10,4,184,1,,,,,,,,,main,1,1,1,neutral,neutral,k,k,1,0.6151492999633774,523.6881730000023,524.6997224999359,524.6830623999704,None,523.6881730000023,None,523.6881730000023,None,523.6881730000023,None,525.2996765799704,None,525.2996765799704,None,525.2996765799704,None,,,,,,,,,,,,,029,2022-05-25_19h35.58.771,Main,2022.1.1,59.15136717644185,
positive,positive,2,l,j,,,,,,,,,10,5,185,11,,,,,,,,,main,2,2,2,positive,positive,j,l,0,0.731953699956648,525.3049672999186,526.3163910999428,526.2997221999103,None,525.3049672999186,None,525.3049672999186,None,525.3049672999186,None,527.0330564000178,None,527.0330564000178,None,527.0330564000178,None,,,,,,,,,,,,,029,2022-05-25_19h35.58.771,Main,2022.1.1,59.15136717644185,
neutral,negative,1,k,k,,,,,,,,,10,6,186,7,,,,,,,,,main,2,2,1,negative,neutral,k,k,1,0.9350881000282243,528.0326985999709,529.0326942999382,529.0160271999193,None,528.0326985999709,None,528.0326985999709,None,528.0326985999709,None,529.9659900799976,None,529.9659900799976,None,529.9659900799976,None,,,,,,,,,,,,,029,2022-05-25_19h35.58.771,Main,2022.1.1,59.15136717644185,
neutral,positive,1,k,k,,,,,,,,,10,7,187,4,,,,,,,,,main,2,2,1,positive,neutral,k,k,1,0.8494596999371424,529.9721089999657,530.9830351999262,530.968557599932,None,529.9721089999657,None,529.9721089999657,None,529.9721089999657,None,531.8162859798991,None,531.8162859798991,None,531.8162859798991,None,,,,,,,,,,,,,029,2022-05-25_19h35.58.771,Main,2022.1.1,59.15136717644185,
positive,neutral,2,l,j,,,,,,,,,10,8,188,17,,,,,,,,,main,1,1,2,neutral,positive,j,j,1,0.7471526999725029,531.8228902999545,532.8351914999075,532.8163205999881,None,531.8228902999545,None,531.8228902999545,None,531.8228902999545,None,533.5660513799754,None,533.5660513799754,None,533.5660513799754,None,,,,,,,,,,,,,029,2022-05-25_19h35.58.771,Main,2022.1.1,59.15136717644185,
neutral,positive,2,k,k,,,,,,,,,10,9,189,13,,,,,,,,,main,2,2,2,positive,neutral,k,k,1,0.6986693000653759,533.5724274999229,534.5851493999362,534.5662821999285,None,533.5724274999229,None,533.5724274999229,None,533.5724274999229,None,535.2662107799785,None,535.2662107799785,None,535.2662107799785,None,,,,,,,,,,,,,029,2022-05-25_19h35.58.771,Main,2022.1.1,59.15136717644185,
positive,negative,1,l,j,,,,,,,,,10,10,190,5,,,,,,,,,main,1,1,1,negative,positive,j,j,1,0.8142344000516459,535.2724028999219,536.2851786999963,536.2685189999174,None,535.2724028999219,None,535.2724028999219,None,535.2724028999219,None,537.0828358799569,None,537.0828358799569,None,537.0828358799569,None,,,,,,,,,,,,,029,2022-05-25_19h35.58.771,Main,2022.1.1,59.15136717644185,
neutral,neutral,2,k,k,,,,,,,,,10,11,191,10,,,,,,,,,main,1,1,2,neutral,neutral,k,k,1,0.6479804000118747,537.0982688999502,538.0991582999704,538.0825324999169,None,537.0982688999502,None,537.0982688999502,None,537.0982688999502,None,538.7324310799246,None,538.7324310799246,None,538.7324310799246,None,,,,,,,,,,,,,029,2022-05-25_19h35.58.771,Main,2022.1.1,59.15136717644185,
negative,positive,2,j,l,,,,,,,,,10,12,192,15,,,,,,,,,main,1,1,2,positive,negative,l,l,1,0.8483168999664485,538.7330406999681,539.7325395999942,539.7325395999942,None,538.7330406999681,None,538.7330406999681,None,538.7330406999681,None,540.5828465799219,None,540.5828465799219,None,540.5828465799219,None,,,,,,,,,,,,,029,2022-05-25_19h35.58.771,Main,2022.1.1,59.15136717644185,
positive,neutral,1,l,j,,,,,,,,,10,13,193,8,,,,,,,,,main,2,2,1,neutral,positive,j,j,1,0.8169723999453709,540.5887292999541,541.6019346999237,541.5828200000105,None,540.5887292999541,None,540.5887292999541,None,540.5887292999541,None,542.3995567799662,None,542.3995567799662,None,542.3995567799662,None,,,,,,,,,,,,,029,2022-05-25_19h35.58.771,Main,2022.1.1,59.15136717644185,
negative,neutral,2,j,l,,,,,,,,,10,14,194,12,,,,,,,,,main,2,2,2,neutral,negative,l,l,1,0.796630600001663,542.4059173999121,543.416091299965,543.4017385999905,None,542.4059173999121,None,542.4059173999121,None,542.4059173999121,None,544.199343479902,None,544.199343479902,None,544.199343479902,None,,,,,,,,,,,,,029,2022-05-25_19h35.58.771,Main,2022.1.1,59.15136717644185,
negative,neutral,1,j,l,,,,,,,,,10,15,195,3,,,,,,,,,main,1,1,1,neutral,negative,l,l,1,0.7317150000017136,544.205168299959,545.2160583999939,545.1994048999622,None,544.205168299959,None,544.205168299959,None,544.205168299959,None,545.9326638799045,None,545.9326638799045,None,545.9326638799045,None,,,,,,,,,,,,,029,2022-05-25_19h35.58.771,Main,2022.1.1,59.15136717644185,
negative,positive,1,j,l,,,,,,,,,10,16,196,6,,,,,,,,,main,2,2,1,positive,negative,l,l,1,0.7478037000400946,545.9388875999721,546.9515656000003,546.9349169000052,None,545.9388875999721,None,545.9388875999721,None,545.9388875999721,None,547.682237179915,None,547.682237179915,None,547.682237179915,None,,,,,,,,,,,,,029,2022-05-25_19h35.58.771,Main,2022.1.1,59.15136717644185,
negative,negative,1,j,l,,,,,,,,,10,17,197,0,,,,,,,,,main,2,2,1,negative,negative,l,l,1,0.6651540000457317,547.6823436999694,548.6823352999054,548.6823352999054,None,547.6823436999694,None,547.6823436999694,None,547.6823436999694,None,549.3489552799962,None,549.3489552799962,None,549.3489552799962,None,,,,,,,,,,,,,029,2022-05-25_19h35.58.771,Main,2022.1.1,59.15136717644185,
negative,positive,2,j,l,,,,,,,,,11,0,198,15,,,,,,,,,main,1,1,2,positive,negative,l,k,0,0.5368083000648767,549.3512281000149,550.3656016999157,550.3489434999647,None,549.3512281000149,None,549.3512281000149,None,549.3512281000149,None,550.8850832999451,None,550.8850832999451,None,550.8850832999451,None,,,,,,,,,,,,,029,2022-05-25_19h35.58.771,Main,2022.1.1,59.15136717644185,
negative,negative,2,j,l,,,,,,,,,11,1,199,9,,,,,,,,,main,2,2,2,negative,negative,l,l,1,0.8373926999047399,551.8836569999112,552.8847880999092,552.8681873999303,None,551.8836569999112,None,551.8836569999112,None,551.8836569999112,None,553.7188077799161,None,553.7188077799161,None,553.7188077799161,None,,,,,,,,,,,,,029,2022-05-25_19h35.58.771,Main,2022.1.1,59.15136717644185,
positive,negative,1,l,j,,,,,,,,,11,2,200,5,,,,,,,,,main,1,1,1,negative,positive,j,j,1,1.111570999957621,553.7230505999178,554.7325242999941,554.7181643999647,None,553.7230505999178,None,553.7230505999178,None,553.7230505999178,None,555.8324439799995,None,555.8324439799995,None,555.8324439799995,None,,,,,,,,,,,,,029,2022-05-25_19h35.58.771,Main,2022.1.1,59.15136717644185,
negative,neutral,1,j,l,,,,,,,,,11,3,201,3,,,,,,,,,main,2,2,1,neutral,negative,l,l,1,0.8151563999708742,555.8386135000037,556.8513070999179,556.834775700001,None,555.8386135000037,None,555.8386135000037,None,555.8386135000037,None,557.6490750799072,None,557.6490750799072,None,557.6490750799072,None,,,,,,,,,,,,,029,2022-05-25_19h35.58.771,Main,2022.1.1,59.15136717644185,
neutral,neutral,1,k,k,,,,,,,,,11,4,202,1,,,,,,,,,main,2,2,1,neutral,neutral,k,k,1,0.8478368999203667,557.6548997999635,558.665396999917,558.6487378999591,None,557.6548997999635,None,557.6548997999635,None,557.6548997999635,None,559.4987269799109,None,559.4987269799109,None,559.4987269799109,None,,,,,,,,,,,,,029,2022-05-25_19h35.58.771,Main,2022.1.1,59.15136717644185,
negative,positive,1,j,l,,,,,,,,,11,5,203,6,,,,,,,,,main,1,1,1,positive,negative,l,l,1,0.7492512000026181,559.4992690999061,560.4989855999593,560.4989855999593,None,559.4992690999061,None,559.4992690999061,None,559.4992690999061,None,561.2490066799452,None,561.2490066799452,None,561.2490066799452,None,,,,,,,,,,,,,029,2022-05-25_19h35.58.771,Main,2022.1.1,59.15136717644185,
neutral,negative,2,k,k,,,,,,,,,11,6,204,16,,,,,,,,,main,1,1,2,negative,neutral,k,k,1,0.6973254999611527,561.255468999967,562.2678583000088,562.2513023999054,None,561.255468999967,None,561.255468999967,None,561.255468999967,None,562.9489917799016,None,562.9489917799016,None,562.9489917799016,None,,,,,,,,,,,,,029,2022-05-25_19h35.58.771,Main,2022.1.1,59.15136717644185,
neutral,negative,1,k,k,,,,,,,,,11,7,205,7,,,,,,,,,main,1,1,1,negative,neutral,k,k,1,0.8318652999587357,562.9657533999998,563.9678557999432,563.9489896999439,None,562.9657533999998,None,562.9657533999998,None,562.9657533999998,None,564.7822588799405,None,564.7822588799405,None,564.7822588799405,None,,,,,,,,,,,,,029,2022-05-25_19h35.58.771,Main,2022.1.1,59.15136717644185,
negative,negative,1,j,l,,,,,,,,,11,8,206,0,,,,,,,,,main,1,1,1,negative,negative,l,l,1,0.864692399976775,564.78854400001,565.7989507999737,565.7846565999789,None,564.78854400001,None,564.78854400001,None,564.78854400001,None,566.6488720799913,None,566.6488720799913,None,566.6488720799913,None,,,,,,,,,,,,,029,2022-05-25_19h35.58.771,Main,2022.1.1,59.15136717644185,
positive,positive,1,l,j,,,,,,,,,11,9,207,2,,,,,,,,,main,1,1,1,positive,positive,j,j,1,0.9314853999530897,566.6550118000014,567.6655844999477,567.6489251999883,None,566.6550118000014,None,566.6550118000014,None,566.6550118000014,None,568.581599879975,None,568.581599879975,None,568.581599879975,None,,,,,,,,,,,,,029,2022-05-25_19h35.58.771,Main,2022.1.1,59.15136717644185,
neutral,neutral,2,k,k,,,,,,,,,11,10,208,10,,,,,,,,,main,2,2,2,neutral,neutral,k,k,1,0.6485977999400347,568.597448799992,569.5987940999912,569.581915799994,None,568.597448799992,None,568.597448799992,None,568.597448799992,None,570.2317716799095,None,570.2317716799095,None,570.2317716799095,None,,,,,,,,,,,,,029,2022-05-25_19h35.58.771,Main,2022.1.1,59.15136717644185,
negative,neutral,2,j,l,,,,,,,,,11,11,209,12,,,,,,,,,main,1,1,2,neutral,negative,l,l,1,0.7151401001028717,570.2318408999126,571.2318706999067,571.2318706999067,None,570.2318408999126,None,570.2318408999126,None,570.2318408999126,None,571.9484786799527,None,571.9484786799527,None,571.9484786799527,None,,,,,,,,,,,,,029,2022-05-25_19h35.58.771,Main,2022.1.1,59.15136717644185,
positive,negative,2,l,j,,,,,,,,,11,12,210,14,,,,,,,,,main,1,1,2,negative,positive,j,j,1,0.715261899982579,571.9540356999496,572.967735299957,572.95109029999,None,571.9540356999496,None,571.9540356999496,None,571.9540356999496,None,573.6654216799303,None,573.6654216799303,None,573.6654216799303,None,,,,,,,,,,,,,029,2022-05-25_19h35.58.771,Main,2022.1.1,59.15136717644185,
neutral,positive,1,k,k,,,,,,,,,11,13,211,4,,,,,,,,,main,1,1,1,positive,neutral,k,k,1,0.6317866999888793,573.6711642999435,574.682105600019,574.6654413999058,None,573.6711642999435,None,573.6711642999435,None,573.6711642999435,None,575.2987414799514,None,575.2987414799514,None,575.2987414799514,None,,,,,,,,,,,,,029,2022-05-25_19h35.58.771,Main,2022.1.1,59.15136717644185,
positive,neutral,1,l,j,,,,,,,,,11,14,212,8,,,,,,,,,main,2,2,1,neutral,positive,j,j,1,0.8316647000610828,575.3042628999101,576.3154098999221,576.2987259000074,None,575.3042628999101,None,575.3042628999101,None,575.3042628999101,None,577.1319846799248,None,577.1319846799248,None,577.1319846799248,None,,,,,,,,,,,,,029,2022-05-25_19h35.58.771,Main,2022.1.1,59.15136717644185,
positive,neutral,2,l,j,,,,,,,,,11,15,213,17,,,,,,,,,main,2,2,2,neutral,positive,j,j,1,0.8818486999953166,577.137710699928,578.150861299946,578.132016699994,None,577.137710699928,None,577.137710699928,None,577.137710699928,None,579.0153536799713,None,579.0153536799713,None,579.0153536799713,None,,,,,,,,,,,,,029,2022-05-25_19h35.58.771,Main,2022.1.1,59.15136717644185,
positive,positive,2,l,j,,,,,,,,,11,16,214,11,,,,,,,,,main,2,2,2,positive,positive,j,j,1,0.5481878999853507,579.0222082999535,580.0316300999839,580.014952700003,None,579.0222082999535,None,579.0222082999535,None,579.0222082999535,None,580.5649126799195,None,580.5649126799195,None,580.5649126799195,None,,,,,,,,,,,,,029,2022-05-25_19h35.58.771,Main,2022.1.1,59.15136717644185,
neutral,positive,2,k,k,,,,,,,,,11,17,215,13,,,,,,,,,main,2,2,2,positive,neutral,k,k,1,0.7157103000208735,580.5649748999858,581.5649698999478,581.5649698999478,None,580.5649748999858,None,580.5649748999858,None,580.5649748999858,None,582.2819012798951,None,582.2819012798951,None,582.2819012798951,None,,,,,,,,,,,,,029,2022-05-25_19h35.58.771,Main,2022.1.1,59.15136717644185,
positive,positive,1,l,j,,,,,,,,,12,0,216,2,,,,,,,,,main,1,1,1,positive,positive,j,j,1,0.7647236000047997,582.2881164000137,583.2986075999215,583.2819409999065,None,582.2881164000137,None,582.2881164000137,None,582.2881164000137,None,584.0485938799917,None,584.0485938799917,None,584.0485938799917,None,,,,,,,,,,,,,029,2022-05-25_19h35.58.771,Main,2022.1.1,59.15136717644185,
positive,neutral,1,l,j,,,,,,,,,12,1,217,8,,,,,,,,,main,1,1,1,neutral,positive,j,j,1,0.5815584999509156,584.0544360999484,585.0674399000127,585.0507638999261,None,584.0544360999484,None,584.0544360999484,None,584.0544360999484,None,585.6318169799284,None,585.6318169799284,None,585.6318169799284,None,,,,,,,,,,,,,029,2022-05-25_19h35.58.771,Main,2022.1.1,59.15136717644185,
neutral,positive,2,k,k,,,,,,,,,12,2,218,13,,,,,,,,,main,2,2,2,positive,neutral,k,k,1,0.6485984000610188,585.6378796999343,586.650713799987,586.6318547999253,None,585.6378796999343,None,585.6378796999343,None,585.6378796999343,None,587.281908879953,None,587.281908879953,None,587.281908879953,None,,,,,,,,,,,,,029,2022-05-25_19h35.58.771,Main,2022.1.1,59.15136717644185,
positive,negative,2,l,j,,,,,,,,,12,3,219,14,,,,,,,,,main,2,2,2,negative,positive,j,j,1,0.6492123999632895,587.287656200002,588.3006311999634,588.2818088999484,None,587.287656200002,None,587.287656200002,None,587.287656200002,None,588.9317422799883,None,588.9317422799883,None,588.9317422799883,None,,,,,,,,,,,,,029,2022-05-25_19h35.58.771,Main,2022.1.1,59.15136717644185,
negative,positive,1,j,l,,,,,,,,,12,4,220,6,,,,,,,,,main,2,2,1,positive,negative,l,l,1,0.8807476999936625,588.9380599999567,589.9481073999777,589.9314191999147,None,588.9380599999567,None,588.9380599999567,None,588.9380599999567,None,590.8148672799231,None,590.8148672799231,None,590.8148672799231,None,,,,,,,,,,,,,029,2022-05-25_19h35.58.771,Main,2022.1.1,59.15136717644185,
negative,negative,1,j,l,,,,,,,,,12,5,221,0,,,,,,,,,main,1,1,1,negative,negative,l,l,1,0.7480870999861509,590.8163704000181,591.8315370999044,591.8149431999773,None,590.8163704000181,None,590.8163704000181,None,590.8163704000181,None,592.5646667799098,None,592.5646667799098,None,592.5646667799098,None,,,,,,,,,,,,,029,2022-05-25_19h35.58.771,Main,2022.1.1,59.15136717644185,
negative,neutral,2,j,l,,,,,,,,,12,6,222,12,,,,,,,,,main,2,2,2,neutral,negative,l,l,1,0.698757000034675,592.5652448999463,593.5649828999303,593.5649828999303,None,592.5652448999463,None,592.5652448999463,None,592.5652448999463,None,594.2650038799853,None,594.2650038799853,None,594.2650038799853,None,,,,,,,,,,,,,029,2022-05-25_19h35.58.771,Main,2022.1.1,59.15136717644185,
positive,negative,1,l,j,,,,,,,,,12,7,223,5,,,,,,,,,main,2,2,1,negative,positive,j,l,0,0.5318163000047207,594.2709698999533,595.2839392999886,595.267315599951,None,594.2709698999533,None,594.2709698999533,None,594.2709698999533,None,595.7983334999299,None,595.7983334999299,None,595.7983334999299,None,,,,,,,,,,,,,029,2022-05-25_19h35.58.771,Main,2022.1.1,59.15136717644185,
negative,negative,2,j,l,,,,,,,,,12,8,224,9,,,,,,,,,main,2,2,2,negative,negative,l,l,1,0.7179416000144556,596.7994530999567,597.8149558999576,597.7816260999534,None,596.7994530999567,None,596.7994530999567,None,596.7994530999567,None,598.5149585799896,None,598.5149585799896,None,598.5149585799896,None,,,,,,,,,,,,,029,2022-05-25_19h35.58.771,Main,2022.1.1,59.15136717644185,
