target,distractor,set,ans1,ans2,rep_loop2.thisRepN,rep_loop2.thisTrialN,rep_loop2.thisN,rep_loop2.thisIndex,flanker_prac_loop.thisRepN,flanker_prac_loop.thisTrialN,flanker_prac_loop.thisN,flanker_prac_loop.thisIndex,flanker_main_loop.thisRepN,flanker_main_loop.thisTrialN,flanker_main_loop.thisN,flanker_main_loop.thisIndex,fl_inst_resp.keys,fl_inst_resp.rt,sound_1.started,sound_1.stopped,image_4.started,image_4.stopped,back_2.started,back_2.stopped,main_prac,fl_cold,fl_colt,fl_set,fl_dcond,fl_tcond,fl_ans,fl_res,fl_corr,fl_rt,fix_fl.started,fix_fl.stopped,targ.started,targ.stopped,j_button.started,j_button.stopped,k_button.started,k_button.stopped,l_button.started,l_button.stopped,j_button2.started,j_button2.stopped,k_button2.started,k_button2.stopped,l_button2.started,l_button2.stopped,mainback.started,mainback.stopped,key_resp.keys,mouse_6.x,mouse_6.y,mouse_6.leftButton,mouse_6.midButton,mouse_6.rightButton,mouse_6.started,mouse_6.stopped,text_2.started,text_2.stopped,id*,date,expName,psychopyVersion,frameRate,
,,,,,0,0,0,0,,,,,,,,,space,52.75663610000629,15.786405679991002,None,68.56830259994604,None,,,,,,,,,,,,,,,,,,,,,,,,,,,,,,,,,,,,,,,,,030,2022-05-26_10h26.07.695,Main,2022.1.1,59.85464897852581,
neutral,positive,2,k,k,,,,,0,0,0,13,,,,,,,,,,,71.60171700001229,None,prac,1,1,2,positive,neutral,k,l,0,0.38316409999970347,73.62693329993635,74.63524079998024,74.61856139998417,None,73.62693329993635,None,73.62693329993635,None,73.62693329993635,None,75.00193709996529,None,75.00193709996529,None,75.00193709996529,None,,,,,,,,,,,,,030,2022-05-26_10h26.07.695,Main,2022.1.1,59.85464897852581,
neutral,negative,2,k,k,,,,,0,1,1,16,,,,,,,,,,,,,prac,2,2,2,negative,neutral,k,l,0,-0.7822191000450402,76.01612809998915,None,None,None,76.01612809998915,None,76.01612809998915,None,76.01612809998915,None,76.22101650002878,None,76.22101650002878,None,76.22101650002878,None,,,,,,,,,,,,,030,2022-05-26_10h26.07.695,Main,2022.1.1,59.85464897852581,
positive,negative,2,l,j,,,,,0,2,2,14,,,,,,,,,,,,,prac,2,2,2,negative,positive,l,l,1,3.3514686999842525,79.219965999946,80.23471400002018,80.20138019998558,None,79.219965999946,None,79.219965999946,None,79.219965999946,None,83.56835670000874,None,83.56835670000874,None,83.56835670000874,None,,,,,,,,,,,,,030,2022-05-26_10h26.07.695,Main,2022.1.1,59.85464897852581,
positive,neutral,1,l,j,,,,,0,3,3,8,,,,,,,,,,,,,prac,2,2,1,neutral,positive,l,l,1,1.401425200048834,84.57140340004116,85.5683418000117,85.55390359996818,None,84.57140340004116,None,84.57140340004116,None,84.57140340004116,None,86.96832798001124,None,86.96832798001124,None,86.96832798001124,None,,,,,,,,,,,,,030,2022-05-26_10h26.07.695,Main,2022.1.1,59.85464897852581,
positive,positive,2,l,j,,,,,0,4,4,11,,,,,,,,,,,,,prac,2,2,2,positive,positive,l,l,1,1.7346934000961483,86.97938229993451,87.98495199996978,87.95161799993366,None,86.97938229993451,None,86.97938229993451,None,86.97938229993451,None,89.70743359997869,None,89.70743359997869,None,89.70743359997869,None,,,,,,,,,,,,,030,2022-05-26_10h26.07.695,Main,2022.1.1,59.85464897852581,
neutral,neutral,1,k,k,,,,,0,5,5,1,,,,,,,,,,,,,prac,2,2,1,neutral,neutral,k,k,1,1.0700762999476865,90.73452980001457,91.73456919996534,91.71789450000506,None,90.73452980001457,None,90.73452980001457,None,90.73452980001457,None,92.78503087999998,None,92.78503087999998,None,92.78503087999998,None,,,,,,,,,,,,,030,2022-05-26_10h26.07.695,Main,2022.1.1,59.85464897852581,
negative,positive,1,j,l,,,,,0,6,6,6,,,,,,,,,,,,,prac,1,1,1,positive,negative,j,j,1,0.9815497999079525,92.79677699995227,93.80366440000944,93.78715150000062,None,92.79677699995227,None,92.79677699995227,None,92.79677699995227,None,94.76816727999831,None,94.76816727999831,None,94.76816727999831,None,,,,,,,,,,,,,030,2022-05-26_10h26.07.695,Main,2022.1.1,59.85464897852581,
neutral,neutral,2,k,k,,,,,0,7,7,10,,,,,,,,,,,,,prac,2,2,2,neutral,neutral,k,k,1,1.131838500034064,94.78860630001873,95.80146819993388,95.76813580002636,None,94.78860630001873,None,94.78860630001873,None,94.78860630001873,None,96.90146337995539,None,96.90146337995539,None,96.90146337995539,None,,,,,,,,,,,,,030,2022-05-26_10h26.07.695,Main,2022.1.1,59.85464897852581,
positive,positive,1,l,j,,,,,0,8,8,2,,,,,,,,,,,,,prac,1,1,1,positive,positive,l,l,1,0.9989119999809191,96.92063820001204,97.92041280004196,97.90372679999564,None,96.92063820001204,None,96.92063820001204,None,96.92063820001204,None,98.90142888004193,None,98.90142888004193,None,98.90142888004193,None,,,,,,,,,,,,,030,2022-05-26_10h26.07.695,Main,2022.1.1,59.85464897852581,
negative,neutral,1,j,l,,,,,0,9,9,3,,,,,,,,,,,,,prac,2,2,1,neutral,negative,j,j,1,1.4470519000897184,98.9180447999388,99.91767220001202,99.90101279993542,None,98.9180447999388,None,98.9180447999388,None,98.9180447999388,None,101.35096907998668,None,101.35096907998668,None,101.35096907998668,None,,,,,,,,,,,,,030,2022-05-26_10h26.07.695,Main,2022.1.1,59.85464897852581,
positive,neutral,2,l,j,,,,,0,10,10,17,,,,,,,,,,,,,prac,1,1,2,neutral,positive,l,l,1,1.3327374999644235,101.3589004999958,102.36797779996414,102.33691049995832,None,101.3589004999958,None,101.3589004999958,None,101.3589004999958,None,103.68466298001586,None,103.68466298001586,None,103.68466298001586,None,,,,,,,,,,,,,030,2022-05-26_10h26.07.695,Main,2022.1.1,59.85464897852581,
negative,negative,1,j,l,,,,,0,11,11,0,,,,,,,,,,,,,prac,1,1,1,negative,negative,j,j,1,1.3484405999770388,103.69995619996917,104.70349230000284,104.6845839000307,None,103.69995619996917,None,103.69995619996917,None,103.69995619996917,None,106.0346939799958,None,106.0346939799958,None,106.0346939799958,None,,,,,,,,,,,,,030,2022-05-26_10h26.07.695,Main,2022.1.1,59.85464897852581,
positive,negative,1,l,j,,,,,0,12,12,5,,,,,,,,,,,,,prac,1,1,1,negative,positive,l,l,1,1.1648156000301242,106.04017519997433,107.05349069996737,107.03457240003627,None,106.04017519997433,None,106.04017519997433,None,106.04017519997433,None,108.20089918001322,None,108.20089918001322,None,108.20089918001322,None,,,,,,,,,,,,,030,2022-05-26_10h26.07.695,Main,2022.1.1,59.85464897852581,
neutral,positive,1,k,k,,,,,0,13,13,4,,,,,,,,,,,,,prac,2,2,1,positive,neutral,k,k,1,0.9822065000189468,108.20692659995984,109.21786149998661,109.20142960001249,None,108.20692659995984,None,108.20692659995984,None,108.20692659995984,None,110.18415718000615,None,110.18415718000615,None,110.18415718000615,None,,,,,,,,,,,,,030,2022-05-26_10h26.07.695,Main,2022.1.1,59.85464897852581,
neutral,negative,1,k,k,,,,,0,14,14,7,,,,,,,,,,,,,prac,2,2,1,negative,neutral,k,k,1,0.6984082000562921,110.19240559998434,111.20078289997764,111.18411269993521,None,110.19240559998434,None,110.19240559998434,None,110.19240559998434,None,111.88416628002888,None,111.88416628002888,None,111.88416628002888,None,,,,,,,,,,,,,030,2022-05-26_10h26.07.695,Main,2022.1.1,59.85464897852581,
negative,neutral,2,j,l,,,,,0,15,15,12,,,,,,,,,,,,,prac,2,2,2,neutral,negative,j,j,1,0.9692424000240862,111.89002279995475,112.90112059994135,112.88445449993014,None,111.89002279995475,None,111.89002279995475,None,111.89002279995475,None,113.85515207994031,None,113.85515207994031,None,113.85515207994031,None,,,,,,,,,,,,,030,2022-05-26_10h26.07.695,Main,2022.1.1,59.85464897852581,
negative,positive,2,j,l,,,,,0,16,16,15,,,,,,,,,,,,,prac,2,2,2,positive,negative,j,j,1,0.8282637000083923,113.85886010003742,114.87005150003824,114.85108159994707,None,113.85886010003742,None,113.85886010003742,None,113.85886010003742,None,115.68452388000442,None,115.68452388000442,None,115.68452388000442,None,,,,,,,,,,,,,030,2022-05-26_10h26.07.695,Main,2022.1.1,59.85464897852581,
negative,negative,2,j,l,,,,,0,17,17,9,,,,,,,,,,,,,prac,2,2,2,negative,negative,j,j,1,0.8308303999947384,115.70356589998119,116.70320999994874,116.68654989998322,None,115.70356589998119,None,115.70356589998119,None,115.70356589998119,None,117.51769307999639,None,117.51769307999639,None,117.51769307999639,None,,,,,,,,,,,,,030,2022-05-26_10h26.07.695,Main,2022.1.1,59.85464897852581,
neutral,neutral,2,k,k,,,,,1,0,18,10,,,,,,,,,,,,,prac,1,1,2,neutral,neutral,k,k,1,0.815474099945277,117.52390289993491,118.53652900003362,118.50096690002829,None,117.52390289993491,None,117.52390289993491,None,117.52390289993491,None,119.33441748003243,None,119.33441748003243,None,119.33441748003243,None,,,,,,,,,,,,,030,2022-05-26_10h26.07.695,Main,2022.1.1,59.85464897852581,
negative,neutral,1,j,l,,,,,1,1,19,3,,,,,,,,,,,,,prac,2,2,1,neutral,negative,j,j,1,0.9313996999990195,119.33756150002591,120.35056349996012,120.33388849999756,None,119.33756150002591,None,119.33756150002591,None,119.33756150002591,None,121.26723738001893,None,121.26723738001893,None,121.26723738001893,None,,,,,,,,,,,,,030,2022-05-26_10h26.07.695,Main,2022.1.1,59.85464897852581,
neutral,positive,2,k,k,,,,,1,2,20,13,,,,,,,,,,,,,prac,2,2,2,positive,neutral,k,k,1,0.8484988999553025,121.26769569993485,122.26727680000477,122.26727680000477,None,121.26769569993485,None,121.26769569993485,None,121.26769569993485,None,123.11759707994061,None,123.11759707994061,None,123.11759707994061,None,,,,,,,,,,,,,030,2022-05-26_10h26.07.695,Main,2022.1.1,59.85464897852581,
negative,negative,1,j,l,,,,,1,3,21,0,,,,,,,,,,,,,prac,2,2,1,negative,negative,j,j,1,1.1651385000441223,123.1214539000066,124.13655719999224,124.11983209999744,None,123.1214539000066,None,123.1214539000066,None,123.1214539000066,None,125.28425618003821,None,125.28425618003821,None,125.28425618003821,None,,,,,,,,,,,,,030,2022-05-26_10h26.07.695,Main,2022.1.1,59.85464897852581,
positive,negative,2,l,j,,,,,1,4,22,14,,,,,,,,,,,,,prac,1,1,2,negative,positive,l,l,1,0.9151269999565557,125.30634370003827,126.31749019993003,126.2841757000424,None,125.30634370003827,None,125.30634370003827,None,125.30634370003827,None,127.20085097999545,None,127.20085097999545,None,127.20085097999545,None,,,,,,,,,,,,,030,2022-05-26_10h26.07.695,Main,2022.1.1,59.85464897852581,
neutral,negative,2,k,k,,,,,1,5,23,16,,,,,,,,,,,,,prac,1,1,2,negative,neutral,k,k,1,1.0355686000548303,127.20478569995612,128.2174825000111,128.20310799998697,None,127.20478569995612,None,127.20478569995612,None,127.20478569995612,None,129.23654177993302,None,129.23654177993302,None,129.23654177993302,None,,,,,,,,,,,,,030,2022-05-26_10h26.07.695,Main,2022.1.1,59.85464897852581,
positive,negative,1,l,j,,,,,1,6,24,5,,,,,,,,,,,,,prac,2,2,1,negative,positive,l,l,1,1.894820100045763,129.24106140004005,130.25038219999988,130.23372619994916,None,129.24106140004005,None,129.24106140004005,None,129.24106140004005,None,132.13374810002279,None,132.13374810002279,None,132.13374810002279,None,,,,,,,,,,,,,030,2022-05-26_10h26.07.695,Main,2022.1.1,59.85464897852581,
negative,positive,1,j,l,,,,,1,7,25,6,,,,,,,,,,,,,prac,2,2,1,positive,negative,j,j,1,1.0690825999481604,133.13456889998633,134.13402590004262,134.11965559993405,None,133.13456889998633,None,133.13456889998633,None,133.13456889998633,None,135.20080097996396,None,135.20080097996396,None,135.20080097996396,None,,,,,,,,,,,,,030,2022-05-26_10h26.07.695,Main,2022.1.1,59.85464897852581,
positive,neutral,1,l,j,,,,,1,8,26,8,,,,,,,,,,,,,prac,1,1,1,neutral,positive,l,l,1,1.347210600040853,135.2156484000152,136.21731229999568,136.2029492999427,None,135.2156484000152,None,135.2156484000152,None,135.2156484000152,None,137.55062828002264,None,137.55062828002264,None,137.55062828002264,None,,,,,,,,,,,,,030,2022-05-26_10h26.07.695,Main,2022.1.1,59.85464897852581,
positive,positive,2,l,j,,,,,1,9,27,11,,,,,,,,,,,,,prac,2,2,2,positive,positive,l,l,1,0.9820682000136003,137.5540587999858,138.56725580000784,138.55291009997018,None,137.5540587999858,None,137.5540587999858,None,137.5540587999858,None,139.53391558000584,None,139.53391558000584,None,139.53391558000584,None,,,,,,,,,,,,,030,2022-05-26_10h26.07.695,Main,2022.1.1,59.85464897852581,
positive,neutral,2,l,j,,,,,1,10,28,17,,,,,,,,,,,,,prac,1,1,2,neutral,positive,l,l,1,0.8823389000026509,139.5372642999282,140.55039520002902,140.5335207999451,None,139.5372642999282,None,139.5372642999282,None,139.5372642999282,None,141.4168215800193,None,141.4168215800193,None,141.4168215800193,None,,,,,,,,,,,,,030,2022-05-26_10h26.07.695,Main,2022.1.1,59.85464897852581,
negative,neutral,2,j,l,,,,,1,11,29,12,,,,,,,,,,,,,prac,2,2,2,neutral,negative,j,j,1,1.031264999997802,141.4334883999545,142.43351649993565,142.4168411999708,None,141.4334883999545,None,141.4334883999545,None,141.4334883999545,None,143.45049707997822,None,143.45049707997822,None,143.45049707997822,None,,,,,,,,,,,,,030,2022-05-26_10h26.07.695,Main,2022.1.1,59.85464897852581,
negative,negative,2,j,l,,,,,1,12,30,9,,,,,,,,,,,,,prac,2,2,2,negative,negative,j,j,1,0.8488577000098303,143.4557378999889,144.4671225999482,144.43608150002547,None,143.4557378999889,None,143.4557378999889,None,143.4557378999889,None,145.30061887995106,None,145.30061887995106,None,145.30061887995106,None,,,,,,,,,,,,,030,2022-05-26_10h26.07.695,Main,2022.1.1,59.85464897852581,
neutral,positive,1,k,k,,,,,1,13,31,4,,,,,,,,,,,,,prac,2,2,1,positive,neutral,k,k,1,0.8485391000285745,145.30622439994477,146.31711109995376,146.30279680003878,None,145.30622439994477,None,145.30622439994477,None,145.30622439994477,None,147.15044908003182,None,147.15044908003182,None,147.15044908003182,None,,,,,,,,,,,,,030,2022-05-26_10h26.07.695,Main,2022.1.1,59.85464897852581,
positive,positive,1,l,j,,,,,1,14,32,2,,,,,,,,,,,,,prac,2,2,1,positive,positive,l,l,1,1.5883737000403926,147.1561213999521,148.16706080001313,148.15271169994958,None,147.1561213999521,None,147.1561213999521,None,147.1561213999521,None,149.73828779999167,None,149.73828779999167,None,149.73828779999167,None,,,,,,,,,,,,,030,2022-05-26_10h26.07.695,Main,2022.1.1,59.85464897852581,
neutral,negative,1,k,k,,,,,1,15,33,7,,,,,,,,,,,,,prac,2,2,1,negative,neutral,k,k,1,0.8685370000312105,150.7512829999905,151.7668842000421,151.7335543000372,None,150.7512829999905,None,150.7512829999905,None,150.7512829999905,None,152.61687228000955,None,152.61687228000955,None,152.61687228000955,None,,,,,,,,,,,,,030,2022-05-26_10h26.07.695,Main,2022.1.1,59.85464897852581,
neutral,neutral,1,k,k,,,,,1,16,34,1,,,,,,,,,,,,,prac,2,2,1,neutral,neutral,k,k,1,0.630908300052397,152.62091119994875,153.63353969994932,153.61686970002484,None,152.62091119994875,None,152.62091119994875,None,152.62091119994875,None,154.25022188002475,None,154.25022188002475,None,154.25022188002475,None,,,,,,,,,,,,,030,2022-05-26_10h26.07.695,Main,2022.1.1,59.85464897852581,
negative,positive,2,j,l,,,,,1,17,35,15,,,,,,,,,,,,,prac,2,2,2,positive,negative,j,j,1,0.7485975999152288,154.2536403000122,155.26684729999397,155.25017959997058,None,154.2536403000122,None,154.2536403000122,None,154.2536403000122,None,156.00022517993347,None,156.00022517993347,None,156.00022517993347,None,,,,,,,,,,,,,030,2022-05-26_10h26.07.695,Main,2022.1.1,59.85464897852581,
,,,,,,,,,,,,,,,,,,,,,,,,,,,,,,,,,,,,,,,,,,,,,,,,,,,156.00017569994088,None,None,,,,,,,,,,030,2022-05-26_10h26.07.695,Main,2022.1.1,59.85464897852581,
,,,,,,,,,,,,,,,,,,,,,,,,,,,,,,,,,,,,,,,,,,,,,,,,,,,,,,-0.012037037,-0.16111112,1,0,0,0.01108768000267446,None,,,030,2022-05-26_10h26.07.695,Main,2022.1.1,59.85464897852581,
positive,neutral,1,l,j,,,,,,,,,0,0,0,8,,,,,,,177.05225539999083,None,main,2,2,1,neutral,positive,l,j,0,1.3268577000126243,179.07450759992935,180.08269529999234,180.06603710004129,None,179.07450759992935,None,179.07450759992935,None,179.07450759992935,None,181.39972109999508,None,181.39972109999508,None,181.39972109999508,None,,,,,,,,,,,,,030,2022-05-26_10h26.07.695,Main,2022.1.1,59.85464897852581,
neutral,positive,1,k,k,,,,,,,,,0,1,1,4,,,,,,,,,main,2,2,1,positive,neutral,k,k,1,0.9010047001065686,182.40084320004098,183.40193279995583,183.3853100000415,None,182.40084320004098,None,182.40084320004098,None,182.40084320004098,None,184.2996612799936,None,184.2996612799936,None,184.2996612799936,None,,,,,,,,,,,,,030,2022-05-26_10h26.07.695,Main,2022.1.1,59.85464897852581,
positive,positive,2,l,j,,,,,,,,,0,2,2,11,,,,,,,,,main,2,2,2,positive,positive,l,l,1,0.880987900076434,184.30368509993423,185.31856589997187,185.30184740002733,None,184.30368509993423,None,184.30368509993423,None,184.30368509993423,None,186.18296307999407,None,186.18296307999407,None,186.18296307999407,None,,,,,,,,,,,,,030,2022-05-26_10h26.07.695,Main,2022.1.1,59.85464897852581,
negative,negative,1,j,l,,,,,,,,,0,3,3,0,,,,,,,,,main,1,1,1,negative,negative,j,j,1,1.0150174000300467,186.18666050001048,187.20189200004097,187.18293519993313,None,186.18666050001048,None,186.18666050001048,None,186.18666050001048,None,188.19962998001137,None,188.19962998001137,None,188.19962998001137,None,,,,,,,,,,,,,030,2022-05-26_10h26.07.695,Main,2022.1.1,59.85464897852581,
neutral,neutral,1,k,k,,,,,,,,,0,4,4,1,,,,,,,,,main,2,2,1,neutral,neutral,k,k,1,0.8478681000415236,188.20301559998188,189.2158571999753,189.19918430002872,None,188.20301559998188,None,188.20301559998188,None,188.20301559998188,None,190.0492066800245,None,190.0492066800245,None,190.0492066800245,None,,,,,,,,,,,,,030,2022-05-26_10h26.07.695,Main,2022.1.1,59.85464897852581,
neutral,negative,1,k,k,,,,,,,,,0,5,5,7,,,,,,,,,main,1,1,1,negative,neutral,k,k,1,0.798618400003761,190.04917769995518,191.0517383000115,191.0517383000115,None,190.04917769995518,None,190.04917769995518,None,190.04917769995518,None,191.849501279986,None,191.849501279986,None,191.849501279986,None,,,,,,,,,,,,,030,2022-05-26_10h26.07.695,Main,2022.1.1,59.85464897852581,
neutral,negative,2,k,k,,,,,,,,,0,6,6,16,,,,,,,,,main,1,1,2,negative,neutral,k,k,1,0.7317047000396997,191.855111700017,192.8683555999305,192.85172709997278,None,191.855111700017,None,191.855111700017,None,191.855111700017,None,193.58282468001124,None,193.58282468001124,None,193.58282468001124,None,,,,,,,,,,,,,030,2022-05-26_10h26.07.695,Main,2022.1.1,59.85464897852581,
neutral,positive,2,k,k,,,,,,,,,0,7,7,13,,,,,,,,,main,2,2,2,positive,neutral,k,k,1,0.6817745000589639,193.5867594999727,194.59945320000406,194.58279070002027,None,193.5867594999727,None,193.5867594999727,None,193.5867594999727,None,195.2661183799966,None,195.2661183799966,None,195.2661183799966,None,,,,,,,,,,,,,030,2022-05-26_10h26.07.695,Main,2022.1.1,59.85464897852581,
positive,positive,1,l,j,,,,,,,,,0,8,8,2,,,,,,,,,main,2,2,1,positive,positive,l,l,1,0.7480527999578044,195.26982960000169,196.28509719995782,196.2660769999493,None,195.26982960000169,None,195.26982960000169,None,195.26982960000169,None,197.01587217998457,None,197.01587217998457,None,197.01587217998457,None,,,,,,,,,,,,,030,2022-05-26_10h26.07.695,Main,2022.1.1,59.85464897852581,
positive,neutral,2,l,j,,,,,,,,,0,9,9,17,,,,,,,,,main,2,2,2,neutral,positive,l,l,1,0.7317809000378475,197.02231239993125,198.03141189995222,198.01534229994286,None,197.02231239993125,None,197.02231239993125,None,197.02231239993125,None,198.74901228001107,None,198.74901228001107,None,198.74901228001107,None,,,,,,,,,,,,,030,2022-05-26_10h26.07.695,Main,2022.1.1,59.85464897852581,
positive,negative,2,l,j,,,,,,,,,0,10,10,14,,,,,,,,,main,2,2,2,negative,positive,l,l,1,0.9979388999054208,198.74908380000852,199.74897529999726,199.74897529999726,None,198.74908380000852,None,198.74908380000852,None,198.74908380000852,None,200.74901268001412,None,200.74901268001412,None,200.74901268001412,None,,,,,,,,,,,,,030,2022-05-26_10h26.07.695,Main,2022.1.1,59.85464897852581,
positive,negative,1,l,j,,,,,,,,,0,11,11,5,,,,,,,,,main,1,1,1,negative,positive,l,l,1,0.8316136000212282,200.749300400028,201.74896500003524,201.74896500003524,None,200.749300400028,None,200.749300400028,None,200.749300400028,None,202.58232917996355,None,202.58232917996355,None,202.58232917996355,None,,,,,,,,,,,,,030,2022-05-26_10h26.07.695,Main,2022.1.1,59.85464897852581,
negative,neutral,1,j,l,,,,,,,,,0,12,12,3,,,,,,,,,main,1,1,1,neutral,negative,j,j,1,0.8977965000085533,202.5990031999536,203.59930599993095,203.5849308000179,None,202.5990031999536,None,202.5990031999536,None,202.5990031999536,None,204.4822831799858,None,204.4822831799858,None,204.4822831799858,None,,,,,,,,,,,,,030,2022-05-26_10h26.07.695,Main,2022.1.1,59.85464897852581,
negative,negative,2,j,l,,,,,,,,,0,13,13,9,,,,,,,,,main,1,1,2,negative,negative,j,j,1,0.6982749999733642,204.48560340004042,205.49922110000625,205.4825550999958,None,204.48560340004042,None,204.48560340004042,None,204.48560340004042,None,206.182258479984,None,206.182258479984,None,206.182258479984,None,,,,,,,,,,,,,030,2022-05-26_10h26.07.695,Main,2022.1.1,59.85464897852581,
negative,positive,2,j,l,,,,,,,,,0,14,14,15,,,,,,,,,main,2,2,2,positive,negative,j,j,1,0.6169154999079183,206.18601529998705,207.19917649996933,207.18481180001982,None,206.18601529998705,None,206.18601529998705,None,206.18601529998705,None,207.8009747799835,None,207.8009747799835,None,207.8009747799835,None,,,,,,,,,,,,,030,2022-05-26_10h26.07.695,Main,2022.1.1,59.85464897852581,
negative,positive,1,j,l,,,,,,,,,0,15,15,6,,,,,,,,,main,1,1,1,positive,negative,j,j,1,1.3955442999722436,207.8060465999879,208.81806239997968,208.79916840000078,None,207.8060465999879,None,207.8060465999879,None,207.8060465999879,None,210.19877848004688,None,210.19877848004688,None,210.19877848004688,None,,,,,,,,,,,,,030,2022-05-26_10h26.07.695,Main,2022.1.1,59.85464897852581,
neutral,neutral,2,k,k,,,,,,,,,0,16,16,10,,,,,,,,,main,2,2,2,neutral,neutral,k,k,1,0.815078999963589,210.19879870000295,211.19874050002545,211.19874050002545,None,210.19879870000295,None,210.19879870000295,None,210.19879870000295,None,212.0154454799951,None,212.0154454799951,None,212.0154454799951,None,,,,,,,,,,,,,030,2022-05-26_10h26.07.695,Main,2022.1.1,59.85464897852581,
negative,neutral,2,j,l,,,,,,,,,0,17,17,12,,,,,,,,,main,2,2,2,neutral,negative,j,j,1,0.7011870000278577,212.02125640003942,213.03248199995141,213.01573410001583,None,212.02125640003942,None,212.02125640003942,None,212.02125640003942,None,213.71574528001946,None,213.71574528001946,None,213.71574528001946,None,,,,,,,,,,,,,030,2022-05-26_10h26.07.695,Main,2022.1.1,59.85464897852581,
positive,neutral,1,l,j,,,,,,,,,1,0,18,8,,,,,,,,,main,2,2,1,neutral,positive,l,l,1,0.8125262000830844,213.72145950002596,214.73454149998724,214.71800570003688,None,213.72145950002596,None,213.72145950002596,None,213.72145950002596,None,215.53240927994483,None,215.53240927994483,None,215.53240927994483,None,,,,,,,,,,,,,030,2022-05-26_10h26.07.695,Main,2022.1.1,59.85464897852581,
negative,neutral,1,j,l,,,,,,,,,1,1,19,3,,,,,,,,,main,2,2,1,neutral,negative,j,j,1,0.798164900043048,215.53839749994222,216.5512872999534,216.53464049997274,None,215.53839749994222,None,215.53839749994222,None,215.53839749994222,None,217.33229867996414,None,217.33229867996414,None,217.33229867996414,None,,,,,,,,,,,,,030,2022-05-26_10h26.07.695,Main,2022.1.1,59.85464897852581,
neutral,neutral,2,k,k,,,,,,,,,1,2,20,10,,,,,,,,,main,1,1,2,neutral,neutral,k,k,1,0.5485088999848813,217.3355703999987,218.3322901999345,218.3322901999345,None,217.3355703999987,None,217.3355703999987,None,217.3355703999987,None,218.88229357997187,None,218.88229357997187,None,218.88229357997187,None,,,,,,,,,,,,,030,2022-05-26_10h26.07.695,Main,2022.1.1,59.85464897852581,
positive,negative,2,l,j,,,,,,,,,1,3,21,14,,,,,,,,,main,2,2,2,negative,positive,l,j,0,0.697787499986589,218.88824040000327,219.89852659997996,219.88186690001749,None,218.88824040000327,None,218.88824040000327,None,218.88824040000327,None,220.5818882000167,None,220.5818882000167,None,220.5818882000167,None,,,,,,,,,,,,,030,2022-05-26_10h26.07.695,Main,2022.1.1,59.85464897852581,
neutral,negative,2,k,k,,,,,,,,,1,4,22,16,,,,,,,,,main,2,2,2,negative,neutral,k,k,1,1.0364023000001907,221.5819027000107,222.5818705999991,222.5818705999991,None,221.5819027000107,None,221.5819027000107,None,221.5819027000107,None,223.61559597995364,None,223.61559597995364,None,223.61559597995364,None,,,,,,,,,,,,,030,2022-05-26_10h26.07.695,Main,2022.1.1,59.85464897852581,
neutral,neutral,1,k,k,,,,,,,,,1,5,23,1,,,,,,,,,main,1,1,1,neutral,neutral,k,k,1,0.964593300013803,223.62153549992945,224.63445939996745,224.61783190001734,None,223.62153549992945,None,223.62153549992945,None,223.62153549992945,None,225.5821673800121,None,225.5821673800121,None,225.5821673800121,None,,,,,,,,,,,,,030,2022-05-26_10h26.07.695,Main,2022.1.1,59.85464897852581,
negative,negative,2,j,l,,,,,,,,,1,6,24,9,,,,,,,,,main,2,2,2,negative,negative,j,j,1,0.8649198999628425,225.5853369999677,226.58443769998848,226.58443769998848,None,225.5853369999677,None,225.5853369999677,None,225.5853369999677,None,227.44878187995636,None,227.44878187995636,None,227.44878187995636,None,,,,,,,,,,,,,030,2022-05-26_10h26.07.695,Main,2022.1.1,59.85464897852581,
negative,negative,1,j,l,,,,,,,,,1,7,25,0,,,,,,,,,main,1,1,1,negative,negative,j,j,1,0.7674823000561446,227.45219129999168,228.46542449994013,228.4510517999297,None,227.45219129999168,None,227.45219129999168,None,227.45219129999168,None,229.2177668800461,None,229.2177668800461,None,229.2177668800461,None,,,,,,,,,,,,,030,2022-05-26_10h26.07.695,Main,2022.1.1,59.85464897852581,
negative,positive,1,j,l,,,,,,,,,1,8,26,6,,,,,,,,,main,1,1,1,positive,negative,j,j,1,0.6956418000627309,229.2207722000312,230.23432109993882,230.21535459998995,None,229.2207722000312,None,229.2207722000312,None,229.2207722000312,None,230.91502038004108,None,230.91502038004108,None,230.91502038004108,None,,,,,,,,,,,,,030,2022-05-26_10h26.07.695,Main,2022.1.1,59.85464897852581,
neutral,negative,1,k,k,,,,,,,,,1,9,27,7,,,,,,,,,main,2,2,1,negative,neutral,k,k,1,0.7484200999606401,230.91500819998328,231.91498120001052,231.91498120001052,None,230.91500819998328,None,230.91500819998328,None,230.91500819998328,None,232.66504247997653,None,232.66504247997653,None,232.66504247997653,None,,,,,,,,,,,,,030,2022-05-26_10h26.07.695,Main,2022.1.1,59.85464897852581,
negative,neutral,2,j,l,,,,,,,,,1,10,28,12,,,,,,,,,main,1,1,2,neutral,negative,j,j,1,0.8485165999736637,232.66839929996058,233.66763519996312,233.66763519996312,None,232.66839929996058,None,232.66839929996058,None,232.66839929996058,None,234.5153103800141,None,234.5153103800141,None,234.5153103800141,None,,,,,,,,,,,,,030,2022-05-26_10h26.07.695,Main,2022.1.1,59.85464897852581,
positive,negative,1,l,j,,,,,,,,,1,11,29,5,,,,,,,,,main,2,2,1,negative,positive,l,l,1,1.116139900055714,234.51875579997431,235.53194899996743,235.5152757000178,None,234.51875579997431,None,234.51875579997431,None,234.51875579997431,None,236.63294687994056,None,236.63294687994056,None,236.63294687994056,None,,,,,,,,,,,,,030,2022-05-26_10h26.07.695,Main,2022.1.1,59.85464897852581,
positive,positive,1,l,j,,,,,,,,,1,12,30,2,,,,,,,,,main,1,1,1,positive,positive,l,l,1,0.7142233999911696,236.6387848999584,237.64855489996262,237.63190689997282,None,236.6387848999584,None,236.6387848999584,None,236.6387848999584,None,238.34858698000897,None,238.34858698000897,None,238.34858698000897,None,,,,,,,,,,,,,030,2022-05-26_10h26.07.695,Main,2022.1.1,59.85464897852581,
positive,positive,2,l,j,,,,,,,,,1,13,31,11,,,,,,,,,main,1,1,2,positive,positive,l,l,1,0.7808559999102727,238.35270169994328,239.36742040002719,239.35079739999492,None,238.35270169994328,None,238.35270169994328,None,238.35270169994328,None,240.1318526799907,None,240.1318526799907,None,240.1318526799907,None,,,,,,,,,,,,,030,2022-05-26_10h26.07.695,Main,2022.1.1,59.85464897852581,
positive,neutral,2,l,j,,,,,,,,,1,14,32,17,,,,,,,,,main,1,1,2,neutral,positive,l,l,1,0.6646635999204591,240.13767199998256,241.14809409994632,241.1314308999572,None,240.13767199998256,None,240.13767199998256,None,240.13767199998256,None,241.7981388800428,None,241.7981388800428,None,241.7981388800428,None,,,,,,,,,,,,,030,2022-05-26_10h26.07.695,Main,2022.1.1,59.85464897852581,
negative,positive,2,j,l,,,,,,,,,1,15,33,15,,,,,,,,,main,1,1,2,positive,negative,j,j,1,0.7815583000192419,241.79828460002318,242.7981214999454,242.7981214999454,None,241.79828460002318,None,241.79828460002318,None,241.79828460002318,None,243.58145877997157,None,243.58145877997157,None,243.58145877997157,None,,,,,,,,,,,,,030,2022-05-26_10h26.07.695,Main,2022.1.1,59.85464897852581,
neutral,positive,2,k,k,,,,,,,,,1,16,34,13,,,,,,,,,main,2,2,2,positive,neutral,k,k,1,0.7648215999361128,243.5843528000405,244.59811589994933,244.581440799986,None,243.5843528000405,None,243.5843528000405,None,243.5843528000405,None,245.3484484800021,None,245.3484484800021,None,245.3484484800021,None,,,,,,,,,,,,,030,2022-05-26_10h26.07.695,Main,2022.1.1,59.85464897852581,
neutral,positive,1,k,k,,,,,,,,,1,17,35,4,,,,,,,,,main,2,2,1,positive,neutral,k,k,1,0.9983333999989554,245.35215739998966,246.3650552999461,246.34839920001104,None,245.35215739998966,None,245.35215739998966,None,245.35215739998966,None,247.34838788000633,None,247.34838788000633,None,247.34838788000633,None,,,,,,,,,,,,,030,2022-05-26_10h26.07.695,Main,2022.1.1,59.85464897852581,
neutral,positive,2,k,k,,,,,,,,,2,0,36,13,,,,,,,,,main,2,2,2,positive,neutral,k,k,1,0.6483237999491394,247.35214680002537,248.36500709992833,248.3506522999378,None,247.35214680002537,None,247.35214680002537,None,247.35214680002537,None,248.99837717994814,None,248.99837717994814,None,248.99837717994814,None,,,,,,,,,,,,,030,2022-05-26_10h26.07.695,Main,2022.1.1,59.85464897852581,
neutral,neutral,1,k,k,,,,,,,,,2,1,37,1,,,,,,,,,main,2,2,1,neutral,neutral,k,k,1,0.6481712999520823,249.00420910003595,250.01715039997362,249.99831299996004,None,249.00420910003595,None,249.00420910003595,None,249.00420910003595,None,250.64835737993707,None,250.64835737993707,None,250.64835737993707,None,,,,,,,,,,,,,030,2022-05-26_10h26.07.695,Main,2022.1.1,59.85464897852581,
positive,negative,1,l,j,,,,,,,,,2,2,38,5,,,,,,,,,main,2,2,1,negative,positive,l,l,1,1.0814996000844985,250.6549265999347,251.6649563999381,251.650559599977,None,250.6549265999347,None,250.6549265999347,None,250.6549265999347,None,252.73124537999973,None,252.73124537999973,None,252.73124537999973,None,,,,,,,,,,,,,030,2022-05-26_10h26.07.695,Main,2022.1.1,59.85464897852581,
positive,positive,1,l,j,,,,,,,,,2,3,39,2,,,,,,,,,main,2,2,1,positive,positive,l,l,1,0.7151120000053197,252.73123589996248,253.73119900003076,253.73119900003076,None,252.73123589996248,None,252.73123589996248,None,252.73123589996248,None,254.4479090799461,None,254.4479090799461,None,254.4479090799461,None,,,,,,,,,,,,,030,2022-05-26_10h26.07.695,Main,2022.1.1,59.85464897852581,
positive,positive,2,l,j,,,,,,,,,2,4,40,11,,,,,,,,,main,1,1,2,positive,positive,l,l,1,0.6817644000984728,254.44846660003532,255.44786099996418,255.44786099996418,None,254.44846660003532,None,254.44846660003532,None,254.44846660003532,None,256.1312093799817,None,256.1312093799817,None,256.1312093799817,None,,,,,,,,,,,,,030,2022-05-26_10h26.07.695,Main,2022.1.1,59.85464897852581,
negative,positive,1,j,l,,,,,,,,,2,5,41,6,,,,,,,,,main,2,2,1,positive,negative,j,j,1,1.0320417999755591,256.137800800032,257.1504363999702,257.1313760000048,None,256.137800800032,None,256.137800800032,None,256.137800800032,None,258.16481738000874,None,258.16481738000874,None,258.16481738000874,None,,,,,,,,,,,,,030,2022-05-26_10h26.07.695,Main,2022.1.1,59.85464897852581,
neutral,negative,2,k,k,,,,,,,,,2,6,42,16,,,,,,,,,main,2,2,2,negative,neutral,k,k,1,0.8314455000218004,258.1684652999975,259.1836912999861,259.1647767999675,None,258.1684652999975,None,258.1684652999975,None,258.1684652999975,None,259.99814458003965,None,259.99814458003965,None,259.99814458003965,None,,,,,,,,,,,,,030,2022-05-26_10h26.07.695,Main,2022.1.1,59.85464897852581,
neutral,neutral,2,k,k,,,,,,,,,2,7,43,10,,,,,,,,,main,2,2,2,neutral,neutral,k,k,1,0.6983463000506163,260.0040425999323,261.0147536000004,260.99809849995654,None,260.0040425999323,None,260.0040425999323,None,260.0040425999323,None,261.6980868800194,None,261.6980868800194,None,261.6980868800194,None,,,,,,,,,,,,,030,2022-05-26_10h26.07.695,Main,2022.1.1,59.85464897852581,
positive,neutral,2,l,j,,,,,,,,,2,8,44,17,,,,,,,,,main,2,2,2,neutral,positive,l,l,1,0.848233399912715,261.70408990001306,262.7147213999415,262.6980445999652,None,261.70408990001306,None,261.70408990001306,None,261.70408990001306,None,263.5480651799473,None,263.5480651799473,None,263.5480651799473,None,,,,,,,,,,,,,030,2022-05-26_10h26.07.695,Main,2022.1.1,59.85464897852581,
negative,neutral,2,j,l,,,,,,,,,2,9,45,12,,,,,,,,,main,2,2,2,neutral,negative,j,j,1,0.9480601999675855,263.554350099992,264.5643156999722,264.54764360003173,None,263.554350099992,None,263.554350099992,None,263.554350099992,None,265.4976385800284,None,265.4976385800284,None,265.4976385800284,None,,,,,,,,,,,,,030,2022-05-26_10h26.07.695,Main,2022.1.1,59.85464897852581,
negative,neutral,1,j,l,,,,,,,,,2,10,46,3,,,,,,,,,main,2,2,1,neutral,negative,j,j,1,0.7344929999671876,265.497779599973,266.4979753999505,266.4979753999505,None,265.497779599973,None,265.497779599973,None,265.497779599973,None,267.23372448001754,None,267.23372448001754,None,267.23372448001754,None,,,,,,,,,,,,,030,2022-05-26_10h26.07.695,Main,2022.1.1,59.85464897852581,
negative,negative,1,j,l,,,,,,,,,2,11,47,0,,,,,,,,,main,1,1,1,negative,negative,j,j,1,0.6622551999753341,267.2367218999425,268.24790419999044,268.23353189998306,None,267.2367218999425,None,267.2367218999425,None,267.2367218999425,None,268.8976352800266,None,268.8976352800266,None,268.8976352800266,None,,,,,,,,,,,,,030,2022-05-26_10h26.07.695,Main,2022.1.1,59.85464897852581,
negative,negative,2,j,l,,,,,,,,,2,12,48,9,,,,,,,,,main,2,2,2,negative,negative,j,j,1,0.6818541999673471,268.9011027000379,269.9148752000183,269.8978997999802,None,268.9011027000379,None,268.9011027000379,None,268.9011027000379,None,270.58123197999083,None,270.58123197999083,None,270.58123197999083,None,,,,,,,,,,,,,030,2022-05-26_10h26.07.695,Main,2022.1.1,59.85464897852581,
positive,negative,2,l,j,,,,,,,,,2,13,49,14,,,,,,,,,main,2,2,2,negative,positive,l,l,1,0.9318109999876469,270.58691529999487,271.59785899997223,271.5839033999946,None,270.58691529999487,None,270.58691529999487,None,270.58691529999487,None,272.5145098799723,None,272.5145098799723,None,272.5145098799723,None,,,,,,,,,,,,,030,2022-05-26_10h26.07.695,Main,2022.1.1,59.85464897852581,
negative,positive,2,j,l,,,,,,,,,2,14,50,15,,,,,,,,,main,2,2,2,positive,negative,j,j,1,0.8311910000629723,272.52070929994807,273.5305619999999,273.5087239999557,None,272.52070929994807,None,272.52070929994807,None,272.52070929994807,None,274.34744088001315,None,274.34744088001315,None,274.34744088001315,None,,,,,,,,,,,,,030,2022-05-26_10h26.07.695,Main,2022.1.1,59.85464897852581,
positive,neutral,1,l,j,,,,,,,,,2,15,51,8,,,,,,,,,main,1,1,1,neutral,positive,l,l,1,0.8494285000488162,274.3474166999804,275.34739200002514,275.34739200002514,None,274.3474166999804,None,274.3474166999804,None,274.3474166999804,None,276.19743887997464,None,276.19743887997464,None,276.19743887997464,None,,,,,,,,,,,,,030,2022-05-26_10h26.07.695,Main,2022.1.1,59.85464897852581,
neutral,positive,1,k,k,,,,,,,,,2,16,52,4,,,,,,,,,main,2,2,1,positive,neutral,k,k,1,0.6973634000169113,276.20064239995554,277.214077899931,277.19741220003925,None,276.20064239995554,None,276.20064239995554,None,276.20064239995554,None,277.89744727999204,None,277.89744727999204,None,277.89744727999204,None,,,,,,,,,,,,,030,2022-05-26_10h26.07.695,Main,2022.1.1,59.85464897852581,
neutral,negative,1,k,k,,,,,,,,,2,17,53,7,,,,,,,,,main,1,1,1,negative,neutral,k,k,1,0.6154888999881223,277.9141234999988,278.9167100000195,278.89776099997107,None,277.9141234999988,None,277.9141234999988,None,277.9141234999988,None,279.51436568003845,None,279.51436568003845,None,279.51436568003845,None,,,,,,,,,,,,,030,2022-05-26_10h26.07.695,Main,2022.1.1,59.85464897852581,
negative,neutral,2,j,l,,,,,,,,,3,0,54,12,,,,,,,,,main,1,1,2,neutral,negative,j,j,1,0.7980641999747604,279.5202646999387,280.5310083000222,280.5167135000229,None,279.5202646999387,None,279.5202646999387,None,279.5202646999387,None,281.31433737998594,None,281.31433737998594,None,281.31433737998594,None,,,,,,,,,,,,,030,2022-05-26_10h26.07.695,Main,2022.1.1,59.85464897852581,
neutral,positive,1,k,k,,,,,,,,,3,1,55,4,,,,,,,,,main,2,2,1,positive,neutral,k,k,1,0.7818578999722376,281.31762749992777,282.33094649994746,282.3165873000398,None,281.31762749992777,None,281.31762749992777,None,281.31762749992777,None,283.0976552800159,None,283.0976552800159,None,283.0976552800159,None,,,,,,,,,,,,,030,2022-05-26_10h26.07.695,Main,2022.1.1,59.85464897852581,
negative,positive,2,j,l,,,,,,,,,3,2,56,15,,,,,,,,,main,2,2,2,positive,negative,j,j,1,0.8773606999311596,283.10419410001487,284.11427379993256,284.0976195000112,None,283.10419410001487,None,283.10419410001487,None,283.10419410001487,None,284.9732795799966,None,284.9732795799966,None,284.9732795799966,None,,,,,,,,,,,,,030,2022-05-26_10h26.07.695,Main,2022.1.1,59.85464897852581,
negative,positive,1,j,l,,,,,,,,,3,3,57,6,,,,,,,,,main,2,2,1,positive,negative,j,j,1,0.7513886999804527,284.9937257999554,285.99720720003825,285.9805369999958,None,284.9937257999554,None,284.9937257999554,None,284.9937257999554,None,286.73054648003307,None,286.73054648003307,None,286.73054648003307,None,,,,,,,,,,,,,030,2022-05-26_10h26.07.695,Main,2022.1.1,59.85464897852581,
positive,neutral,2,l,j,,,,,,,,,3,4,58,17,,,,,,,,,main,1,1,2,neutral,positive,l,l,1,0.9153203999157995,286.7305064999964,287.7308829999529,287.7308829999529,None,286.7305064999964,None,286.7305064999964,None,286.7305064999964,None,288.6475456800428,None,288.6475456800428,None,288.6475456800428,None,,,,,,,,,,,,,030,2022-05-26_10h26.07.695,Main,2022.1.1,59.85464897852581,
negative,negative,1,j,l,,,,,,,,,3,5,59,0,,,,,,,,,main,1,1,1,negative,negative,j,j,1,0.781335899955593,288.65339120000135,289.66650159994606,289.6497970999917,None,288.65339120000135,None,288.65339120000135,None,288.65339120000135,None,290.4304970799596,None,290.4304970799596,None,290.4304970799596,None,,,,,,,,,,,,,030,2022-05-26_10h26.07.695,Main,2022.1.1,59.85464897852581,
positive,negative,2,l,j,,,,,,,,,3,6,60,14,,,,,,,,,main,1,1,2,negative,positive,l,l,1,0.8989663999527693,290.43617589992937,291.44968379999045,291.4330897999462,None,290.43617589992937,None,290.43617589992937,None,290.43617589992937,None,292.3309865799849,None,292.3309865799849,None,292.3309865799849,None,,,,,,,,,,,,,030,2022-05-26_10h26.07.695,Main,2022.1.1,59.85464897852581,
negative,negative,2,j,l,,,,,,,,,3,7,61,9,,,,,,,,,main,2,2,2,negative,negative,j,j,1,0.7812261999351904,292.3367935999995,293.347386599984,293.33071499993093,None,292.3367935999995,None,292.3367935999995,None,292.3367935999995,None,294.11407618002266,None,294.11407618002266,None,294.11407618002266,None,,,,,,,,,,,,,030,2022-05-26_10h26.07.695,Main,2022.1.1,59.85464897852581,
positive,neutral,1,l,j,,,,,,,,,3,8,62,8,,,,,,,,,main,2,2,1,neutral,positive,l,l,1,0.7647752000484616,294.11742849997245,295.1303602999542,295.1136812999612,None,294.11742849997245,None,294.11742849997245,None,294.11742849997245,None,295.880343480024,None,295.880343480024,None,295.880343480024,None,,,,,,,,,,,,,030,2022-05-26_10h26.07.695,Main,2022.1.1,59.85464897852581,
neutral,neutral,2,k,k,,,,,,,,,3,9,63,10,,,,,,,,,main,2,2,2,neutral,neutral,k,k,1,0.6327665999997407,295.8803812999977,296.88033059996087,296.88033059996087,None,295.8803812999977,None,295.8803812999977,None,295.8803812999977,None,297.51365958001696,None,297.51365958001696,None,297.51365958001696,None,,,,,,,,,,,,,030,2022-05-26_10h26.07.695,Main,2022.1.1,59.85464897852581,
neutral,negative,2,k,k,,,,,,,,,3,10,64,16,,,,,,,,,main,2,2,2,negative,neutral,k,k,1,0.6305150000844151,297.51668540004175,298.53033989993855,298.5136591999326,None,297.51668540004175,None,297.51668540004175,None,297.51668540004175,None,299.1470183799858,None,299.1470183799858,None,299.1470183799858,None,,,,,,,,,,,,,030,2022-05-26_10h26.07.695,Main,2022.1.1,59.85464897852581,
negative,neutral,1,j,l,,,,,,,,,3,11,65,3,,,,,,,,,main,2,2,1,neutral,negative,j,j,1,0.7648420999757946,299.15252190001775,300.1662884999532,300.1496626000153,None,299.15252190001775,None,299.15252190001775,None,299.15252190001775,None,300.91363467996706,None,300.91363467996706,None,300.91363467996706,None,,,,,,,,,,,,,030,2022-05-26_10h26.07.695,Main,2022.1.1,59.85464897852581,
positive,positive,1,l,j,,,,,,,,,3,12,66,2,,,,,,,,,main,2,2,1,positive,positive,l,l,1,0.7498766999924555,300.91933339997195,301.93058949999977,301.89956719998736,None,300.91933339997195,None,300.91933339997195,None,300.91933339997195,None,302.6639160800143,None,302.6639160800143,None,302.6639160800143,None,,,,,,,,,,,,,030,2022-05-26_10h26.07.695,Main,2022.1.1,59.85464897852581,
positive,positive,2,l,j,,,,,,,,,3,13,67,11,,,,,,,,,main,2,2,2,positive,positive,l,l,1,0.5974979000166059,302.67039680003654,303.6803283999907,303.66624910000246,None,302.67039680003654,None,302.67039680003654,None,302.67039680003654,None,304.2638780799345,None,304.2638780799345,None,304.2638780799345,None,,,,,,,,,,,,,030,2022-05-26_10h26.07.695,Main,2022.1.1,59.85464897852581,
neutral,positive,2,k,k,,,,,,,,,3,14,68,13,,,,,,,,,main,2,2,2,positive,neutral,k,l,0,0.6982952000107616,304.26757689996157,305.28266639995854,305.266073100036,None,304.26757689996157,None,304.26757689996157,None,304.26757689996157,None,305.96383839997,None,305.96383839997,None,305.96383839997,None,,,,,,,,,,,,,030,2022-05-26_10h26.07.695,Main,2022.1.1,59.85464897852581,
neutral,negative,1,k,k,,,,,,,,,3,15,69,7,,,,,,,,,main,1,1,1,negative,neutral,k,k,1,0.5862783000338823,306.9634359999327,307.9634059999371,307.94674389995635,None,306.9634359999327,None,306.9634359999327,None,306.9634359999327,None,308.5467622800381,None,308.5467622800381,None,308.5467622800381,None,,,,,,,,,,,,,030,2022-05-26_10h26.07.695,Main,2022.1.1,59.85464897852581,
positive,negative,1,l,j,,,,,,,,,3,16,70,5,,,,,,,,,main,2,2,1,negative,positive,l,l,1,0.8815646000439301,308.5468063999433,309.54672270000447,309.54672270000447,None,308.5468063999433,None,308.5468063999433,None,308.5468063999433,None,310.43009208001894,None,310.43009208001894,None,310.43009208001894,None,,,,,,,,,,,,,030,2022-05-26_10h26.07.695,Main,2022.1.1,59.85464897852581,
neutral,neutral,1,k,k,,,,,,,,,3,17,71,1,,,,,,,,,main,2,2,1,neutral,neutral,k,k,1,0.7652423999970779,310.4357927000383,311.44933119998313,311.4326372999931,None,310.4357927000383,None,310.4357927000383,None,310.4357927000383,None,312.1970945800305,None,312.1970945800305,None,312.1970945800305,None,,,,,,,,,,,,,030,2022-05-26_10h26.07.695,Main,2022.1.1,59.85464897852581,
negative,neutral,2,j,l,,,,,,,,,4,0,72,12,,,,,,,,,main,1,1,2,neutral,negative,j,j,1,0.6482819999800995,312.20323670003563,313.2136922000209,313.19932389992755,None,312.20323670003563,None,312.20323670003563,None,312.20323670003563,None,313.8470244799857,None,313.8470244799857,None,313.8470244799857,None,,,,,,,,,,,,,030,2022-05-26_10h26.07.695,Main,2022.1.1,59.85464897852581,
positive,neutral,1,l,j,,,,,,,,,4,1,73,8,,,,,,,,,main,1,1,1,neutral,positive,l,j,0,0.6983266000170261,313.85030209994875,314.86363119992893,314.84695599996485,None,313.85030209994875,None,313.85030209994875,None,313.85030209994875,None,315.546943299938,None,315.546943299938,None,315.546943299938,None,,,,,,,,,,,,,030,2022-05-26_10h26.07.695,Main,2022.1.1,59.85464897852581,
positive,positive,1,l,j,,,,,,,,,4,2,74,2,,,,,,,,,main,2,2,1,positive,positive,l,l,1,0.8594929999671876,316.5479314000113,317.5656671000179,317.530222899979,None,316.5479314000113,None,316.5479314000113,None,316.5479314000113,None,318.40511308003914,None,318.40511308003914,None,318.40511308003914,None,,,,,,,,,,,,,030,2022-05-26_10h26.07.695,Main,2022.1.1,59.85464897852581,
negative,positive,1,j,l,,,,,,,,,4,3,75,6,,,,,,,,,main,1,1,1,positive,negative,j,j,1,0.90599330002442,318.40577589999884,319.4131747999927,319.39650929998606,None,318.40577589999884,None,318.40577589999884,None,318.40577589999884,None,320.31323647998505,None,320.31323647998505,None,320.31323647998505,None,,,,,,,,,,,,,030,2022-05-26_10h26.07.695,Main,2022.1.1,59.85464897852581,
negative,negative,2,j,l,,,,,,,,,4,4,76,9,,,,,,,,,main,1,1,2,negative,negative,j,j,1,0.9695849999552593,320.3187426000368,321.3324498999864,321.31580300000496,None,320.3187426000368,None,320.3187426000368,None,320.3187426000368,None,322.28309278002706,None,322.28309278002706,None,322.28309278002706,None,,,,,,,,,,,,,030,2022-05-26_10h26.07.695,Main,2022.1.1,59.85464897852581,
positive,positive,2,l,j,,,,,,,,,4,5,77,11,,,,,,,,,main,2,2,2,positive,positive,l,l,1,0.8776750999968499,322.28776229999494,323.2968099999707,323.28243589994963,None,322.28776229999494,None,322.28776229999494,None,322.28776229999494,None,324.16359077998203,None,324.16359077998203,None,324.16359077998203,None,,,,,,,,,,,,,030,2022-05-26_10h26.07.695,Main,2022.1.1,59.85464897852581,
positive,negative,1,l,j,,,,,,,,,4,6,78,5,,,,,,,,,main,1,1,1,negative,positive,l,l,1,0.900503300013952,324.16972430003807,325.18009609996807,325.163426999934,None,324.16972430003807,None,324.16972430003807,None,324.16972430003807,None,326.0634293799405,None,326.0634293799405,None,326.0634293799405,None,,,,,,,,,,,,,030,2022-05-26_10h26.07.695,Main,2022.1.1,59.85464897852581,
negative,negative,1,j,l,,,,,,,,,4,7,79,0,,,,,,,,,main,2,2,1,negative,negative,j,j,1,0.8393552999477834,326.069753699936,327.0800544000231,327.06560770003125,None,326.069753699936,None,326.069753699936,None,326.069753699936,None,327.9069791800459,None,327.9069791800459,None,327.9069791800459,None,,,,,,,,,,,,,030,2022-05-26_10h26.07.695,Main,2022.1.1,59.85464897852581,
neutral,neutral,2,k,k,,,,,,,,,4,8,80,10,,,,,,,,,main,2,2,2,neutral,neutral,k,k,1,0.7553908000700176,327.9237590000266,328.92965109995566,328.8963178000413,None,327.9237590000266,None,327.9237590000266,None,327.9237590000266,None,329.6629882799345,None,329.6629882799345,None,329.6629882799345,None,,,,,,,,,,,,,030,2022-05-26_10h26.07.695,Main,2022.1.1,59.85464897852581,
neutral,neutral,1,k,k,,,,,,,,,4,9,81,1,,,,,,,,,main,2,2,1,neutral,neutral,k,k,1,0.6806598999537528,329.6796665999573,330.6796411999967,330.662981600035,None,329.6796665999573,None,329.6796665999573,None,329.6796665999573,None,331.34633347996277,None,331.34633347996277,None,331.34633347996277,None,,,,,,,,,,,,,030,2022-05-26_10h26.07.695,Main,2022.1.1,59.85464897852581,
negative,positive,2,j,l,,,,,,,,,4,10,82,15,,,,,,,,,main,1,1,2,positive,negative,j,j,1,1.0337134000146762,331.34784319996834,332.3631945999805,332.3463037000038,None,331.34784319996834,None,331.34784319996834,None,331.34784319996834,None,333.3799608800211,None,333.3799608800211,None,333.3799608800211,None,,,,,,,,,,,,,030,2022-05-26_10h26.07.695,Main,2022.1.1,59.85464897852581,
neutral,negative,2,k,k,,,,,,,,,4,11,83,16,,,,,,,,,main,2,2,2,negative,neutral,k,k,1,0.7634280000347644,333.3845050999662,334.39881039992906,334.382222599932,None,333.3845050999662,None,333.3845050999662,None,333.3845050999662,None,335.1465852799476,None,335.1465852799476,None,335.1465852799476,None,,,,,,,,,,,,,030,2022-05-26_10h26.07.695,Main,2022.1.1,59.85464897852581,
neutral,positive,2,k,k,,,,,,,,,4,12,84,13,,,,,,,,,main,1,1,2,positive,neutral,k,k,1,0.699538900051266,335.15002539998386,336.16320359997917,336.1488430999452,None,335.15002539998386,None,335.15002539998386,None,335.15002539998386,None,336.8465612799511,None,336.8465612799511,None,336.8465612799511,None,,,,,,,,,,,,,030,2022-05-26_10h26.07.695,Main,2022.1.1,59.85464897852581,
positive,neutral,2,l,j,,,,,,,,,4,13,85,17,,,,,,,,,main,2,2,2,neutral,positive,l,l,1,0.7973461999790743,336.8508806999307,337.86317969998345,337.8487219000235,None,336.8508806999307,None,336.8508806999307,None,336.8508806999307,None,338.6466077800025,None,338.6466077800025,None,338.6466077800025,None,,,,,,,,,,,,,030,2022-05-26_10h26.07.695,Main,2022.1.1,59.85464897852581,
neutral,negative,1,k,k,,,,,,,,,4,14,86,7,,,,,,,,,main,2,2,1,negative,neutral,k,k,1,0.581192999961786,338.6501060000155,339.6627304999856,339.646064999979,None,338.6501060000155,None,338.6501060000155,None,338.6501060000155,None,340.2294424800086,None,340.2294424800086,None,340.2294424800086,None,,,,,,,,,,,,,030,2022-05-26_10h26.07.695,Main,2022.1.1,59.85464897852581,
neutral,positive,1,k,k,,,,,,,,,4,15,87,4,,,,,,,,,main,2,2,1,positive,neutral,k,k,1,0.549002300016582,340.22977909992915,341.2293972999323,341.2293972999323,None,340.22977909992915,None,340.22977909992915,None,340.22977909992915,None,341.7794233800261,None,341.7794233800261,None,341.7794233800261,None,,,,,,,,,,,,,030,2022-05-26_10h26.07.695,Main,2022.1.1,59.85464897852581,
negative,neutral,1,j,l,,,,,,,,,4,16,88,3,,,,,,,,,main,1,1,1,neutral,negative,j,j,1,0.7641554999863729,341.78373060002923,342.7964082999388,342.78205349994823,None,341.78373060002923,None,341.78373060002923,None,341.78373060002923,None,343.5465384799638,None,343.5465384799638,None,343.5465384799638,None,,,,,,,,,,,,,030,2022-05-26_10h26.07.695,Main,2022.1.1,59.85464897852581,
positive,negative,2,l,j,,,,,,,,,4,17,89,14,,,,,,,,,main,1,1,2,negative,positive,l,l,1,0.7153230999829248,343.5498481999384,344.5652797999792,344.54868639993947,None,343.5498481999384,None,343.5498481999384,None,343.5498481999384,None,345.2634470800287,None,345.2634470800287,None,345.2634470800287,None,,,,,,,,,,,,,030,2022-05-26_10h26.07.695,Main,2022.1.1,59.85464897852581,
neutral,positive,2,k,k,,,,,,,,,5,0,90,13,,,,,,,,,main,2,2,2,positive,neutral,k,k,1,0.7154588999692351,345.26975159998983,346.28194280003663,346.2652755000163,None,345.26975159998983,None,345.26975159998983,None,345.26975159998983,None,346.9793719799374,None,346.9793719799374,None,346.9793719799374,None,,,,,,,,,,,,,030,2022-05-26_10h26.07.695,Main,2022.1.1,59.85464897852581,
neutral,negative,1,k,k,,,,,,,,,5,1,91,7,,,,,,,,,main,2,2,1,negative,neutral,k,k,1,0.5499183000065386,346.98666769999545,347.9984617999289,347.97962570004165,None,346.98666769999545,None,346.98666769999545,None,346.98666769999545,None,348.53200638002016,None,348.53200638002016,None,348.53200638002016,None,,,,,,,,,,,,,030,2022-05-26_10h26.07.695,Main,2022.1.1,59.85464897852581,
neutral,neutral,1,k,k,,,,,,,,,5,2,92,1,,,,,,,,,main,1,1,1,neutral,neutral,k,k,1,0.5454943999648094,348.5349542000331,349.5458973000059,349.52922689996194,None,348.5349542000331,None,348.5349542000331,None,348.5349542000331,None,350.07923618004423,None,350.07923618004423,None,350.07923618004423,None,,,,,,,,,,,,,030,2022-05-26_10h26.07.695,Main,2022.1.1,59.85464897852581,
positive,negative,1,l,j,,,,,,,,,5,3,93,5,,,,,,,,,main,2,2,1,negative,positive,l,l,1,0.7650711999740452,350.07921749993693,351.0792102999985,351.0792102999985,None,350.07921749993693,None,350.07921749993693,None,350.07921749993693,None,351.8458741799579,None,351.8458741799579,None,351.8458741799579,None,,,,,,,,,,,,,030,2022-05-26_10h26.07.695,Main,2022.1.1,59.85464897852581,
neutral,positive,1,k,k,,,,,,,,,5,4,94,4,,,,,,,,,main,1,1,1,positive,neutral,k,k,1,0.5816582000115886,351.846005499945,352.8458510999335,352.8458510999335,None,351.846005499945,None,351.846005499945,None,351.846005499945,None,353.4292372800293,None,353.4292372800293,None,353.4292372800293,None,,,,,,,,,,,,,030,2022-05-26_10h26.07.695,Main,2022.1.1,59.85464897852581,
negative,neutral,2,j,l,,,,,,,,,5,5,95,12,,,,,,,,,main,2,2,2,neutral,negative,j,j,1,0.7320357999997213,353.4325836999342,354.429537500022,354.429537500022,None,353.4325836999342,None,353.4325836999342,None,353.4325836999342,None,355.16283777995267,None,355.16283777995267,None,355.16283777995267,None,,,,,,,,,,,,,030,2022-05-26_10h26.07.695,Main,2022.1.1,59.85464897852581,
positive,negative,2,l,j,,,,,,,,,5,6,96,14,,,,,,,,,main,2,2,2,negative,positive,l,l,1,0.8482863999670371,355.1687397999922,356.1794729999965,356.16515110002365,None,355.1687397999922,None,355.1687397999922,None,355.1687397999922,None,357.0127754800371,None,357.0127754800371,None,357.0127754800371,None,,,,,,,,,,,,,030,2022-05-26_10h26.07.695,Main,2022.1.1,59.85464897852581,
negative,negative,2,j,l,,,,,,,,,5,7,97,9,,,,,,,,,main,2,2,2,negative,negative,j,j,1,0.8648940999992192,357.0159658000339,358.015060500009,358.015060500009,None,357.0159658000339,None,357.0159658000339,None,357.0159658000339,None,358.87939848004606,None,358.87939848004606,None,358.87939848004606,None,,,,,,,,,,,,,030,2022-05-26_10h26.07.695,Main,2022.1.1,59.85464897852581,
positive,neutral,2,l,j,,,,,,,,,5,8,98,17,,,,,,,,,main,1,1,2,neutral,positive,l,l,1,1.0980353999184445,358.8849344999762,359.89825650001876,359.87935239996295,None,358.8849344999762,None,358.8849344999762,None,358.8849344999762,None,360.9789975799969,None,360.9789975799969,None,360.9789975799969,None,,,,,,,,,,,,,030,2022-05-26_10h26.07.695,Main,2022.1.1,59.85464897852581,
neutral,neutral,2,k,k,,,,,,,,,5,9,99,10,,,,,,,,,main,1,1,2,neutral,neutral,k,k,1,0.664608999970369,360.9789605999831,361.9789711999474,361.9789711999474,None,360.9789605999831,None,360.9789605999831,None,360.9789605999831,None,362.64568997999885,None,362.64568997999885,None,362.64568997999885,None,,,,,,,,,,,,,030,2022-05-26_10h26.07.695,Main,2022.1.1,59.85464897852581,
positive,neutral,1,l,j,,,,,,,,,5,10,100,8,,,,,,,,,main,2,2,1,neutral,positive,l,l,1,0.6821078000357375,362.64887020003516,363.6482936999528,363.6482936999528,None,362.64887020003516,None,362.64887020003516,None,362.64887020003516,None,364.32930808000964,None,364.32930808000964,None,364.32930808000964,None,,,,,,,,,,,,,030,2022-05-26_10h26.07.695,Main,2022.1.1,59.85464897852581,
neutral,negative,2,k,k,,,,,,,,,5,11,101,16,,,,,,,,,main,2,2,2,negative,neutral,k,k,1,0.7843845000024885,364.3326828000136,365.3481691000052,365.3315689000301,None,364.3326828000136,None,364.3326828000136,None,364.3326828000136,None,366.1126070800121,None,366.1126070800121,None,366.1126070800121,None,,,,,,,,,,,,,030,2022-05-26_10h26.07.695,Main,2022.1.1,59.85464897852581,
negative,neutral,1,j,l,,,,,,,,,5,12,102,3,,,,,,,,,main,1,1,1,neutral,negative,j,j,1,0.912262300029397,366.11815059999935,367.1315234999638,367.11256629996933,None,366.11815059999935,None,366.11815059999935,None,366.11815059999935,None,368.02920778001425,None,368.02920778001425,None,368.02920778001425,None,,,,,,,,,,,,,030,2022-05-26_10h26.07.695,Main,2022.1.1,59.85464897852581,
positive,positive,2,l,j,,,,,,,,,5,13,103,11,,,,,,,,,main,2,2,2,positive,positive,l,l,1,0.7152420999482274,368.03275819995906,369.0458586999448,369.03149199998006,None,368.03275819995906,None,368.03275819995906,None,368.03275819995906,None,369.74583208000985,None,369.74583208000985,None,369.74583208000985,None,,,,,,,,,,,,,030,2022-05-26_10h26.07.695,Main,2022.1.1,59.85464897852581,
negative,negative,1,j,l,,,,,,,,,5,14,104,0,,,,,,,,,main,1,1,1,negative,negative,j,j,1,0.7811799000483006,369.74942619993817,370.7620842999313,370.7454136000015,None,369.74942619993817,None,369.74942619993817,None,369.74942619993817,None,371.52879488001344,None,371.52879488001344,None,371.52879488001344,None,,,,,,,,,,,,,030,2022-05-26_10h26.07.695,Main,2022.1.1,59.85464897852581,
negative,positive,2,j,l,,,,,,,,,5,15,105,15,,,,,,,,,main,2,2,2,positive,negative,j,j,1,0.8150343999732286,371.5287580000004,372.5287789000431,372.5287789000431,None,371.5287580000004,None,371.5287580000004,None,371.5287580000004,None,373.34546527998754,None,373.34546527998754,None,373.34546527998754,None,,,,,,,,,,,,,030,2022-05-26_10h26.07.695,Main,2022.1.1,59.85464897852581,
negative,positive,1,j,l,,,,,,,,,5,16,106,6,,,,,,,,,main,1,1,1,positive,negative,j,j,1,0.881986299995333,373.34578109998256,374.345434900024,374.345434900024,None,373.34578109998256,None,373.34578109998256,None,373.34578109998256,None,375.22913547999923,None,375.22913547999923,None,375.22913547999923,None,,,,,,,,,,,,,030,2022-05-26_10h26.07.695,Main,2022.1.1,59.85464897852581,
positive,positive,1,l,j,,,,,,,,,5,17,107,2,,,,,,,,,main,2,2,1,positive,positive,l,l,1,0.8483996000140905,375.2327499999665,376.24800579994917,376.2314296000404,None,375.2327499999665,None,375.2327499999665,None,375.2327499999665,None,377.0790776800015,None,377.0790776800015,None,377.0790776800015,None,,,,,,,,,,,,,030,2022-05-26_10h26.07.695,Main,2022.1.1,59.85464897852581,
neutral,positive,2,k,k,,,,,,,,,6,0,108,13,,,,,,,,,main,1,1,2,positive,neutral,k,k,1,0.581649300060235,377.0863959999988,378.09795159997884,378.0790085999761,None,377.0863959999988,None,377.0863959999988,None,377.0863959999988,None,378.6623465799377,None,378.6623465799377,None,378.6623465799377,None,,,,,,,,,,,,,030,2022-05-26_10h26.07.695,Main,2022.1.1,59.85464897852581,
positive,neutral,1,l,j,,,,,,,,,6,1,109,8,,,,,,,,,main,2,2,1,neutral,positive,l,l,1,1.1816752000013366,378.66582659992855,379.6813326999545,379.64796490001027,None,378.66582659992855,None,378.66582659992855,None,378.66582659992855,None,380.84559767994796,None,380.84559767994796,None,380.84559767994796,None,,,,,,,,,,,,,030,2022-05-26_10h26.07.695,Main,2022.1.1,59.85464897852581,
negative,neutral,2,j,l,,,,,,,,,6,2,110,12,,,,,,,,,main,2,2,2,neutral,negative,j,j,1,0.7813100999919698,380.8496025999775,381.8618565000361,381.84518840000965,None,380.8496025999775,None,380.8496025999775,None,380.8496025999775,None,382.62857138003454,None,382.62857138003454,None,382.62857138003454,None,,,,,,,,,,,,,030,2022-05-26_10h26.07.695,Main,2022.1.1,59.85464897852581,
negative,neutral,1,j,l,,,,,,,,,6,3,111,3,,,,,,,,,main,2,2,1,neutral,negative,j,j,1,0.7818692000582814,382.63013870001305,383.64524129999336,383.6285726999631,None,382.63013870001305,None,382.63013870001305,None,382.63013870001305,None,384.4119218799635,None,384.4119218799635,None,384.4119218799635,None,,,,,,,,,,,,,030,2022-05-26_10h26.07.695,Main,2022.1.1,59.85464897852581,
positive,negative,1,l,j,,,,,,,,,6,4,112,5,,,,,,,,,main,2,2,1,negative,positive,l,l,1,0.7989787999540567,384.4181573999813,385.42885679996107,385.4144843999529,None,384.4181573999813,None,384.4181573999813,None,384.4181573999813,None,386.2121889799484,None,386.2121889799484,None,386.2121889799484,None,,,,,,,,,,,,,030,2022-05-26_10h26.07.695,Main,2022.1.1,59.85464897852581,
neutral,negative,2,k,k,,,,,,,,,6,5,113,16,,,,,,,,,main,2,2,2,negative,neutral,k,k,1,0.6145813999464735,386.21572740003467,387.2288201999618,387.214536299929,None,386.21572740003467,None,386.21572740003467,None,386.21572740003467,None,387.82882008001906,None,387.82882008001906,None,387.82882008001906,None,,,,,,,,,,,,,030,2022-05-26_10h26.07.695,Main,2022.1.1,59.85464897852581,
negative,positive,1,j,l,,,,,,,,,6,6,114,6,,,,,,,,,main,1,1,1,positive,negative,j,j,1,0.931733199977316,387.8322519999929,388.84768739994615,388.83109480002895,None,387.8322519999929,None,387.8322519999929,None,387.8322519999929,None,389.76211217999224,None,389.76211217999224,None,389.76211217999224,None,,,,,,,,,,,,,030,2022-05-26_10h26.07.695,Main,2022.1.1,59.85464897852581,
positive,neutral,2,l,j,,,,,,,,,6,7,115,17,,,,,,,,,main,1,1,2,neutral,positive,l,l,1,0.7312334000598639,389.76563209993765,390.7680064999731,390.7680064999731,None,389.76563209993765,None,389.76563209993765,None,389.76563209993765,None,391.4950370800099,None,391.4950370800099,None,391.4950370800099,None,,,,,,,,,,,,,030,2022-05-26_10h26.07.695,Main,2022.1.1,59.85464897852581,
negative,negative,2,j,l,,,,,,,,,6,8,116,9,,,,,,,,,main,1,1,2,negative,negative,j,j,1,0.8482779000187293,391.4950306999963,392.49500639992766,392.49500639992766,None,391.4950306999963,None,391.4950306999963,None,391.4950306999963,None,393.3450500799692,None,393.3450500799692,None,393.3450500799692,None,,,,,,,,,,,,,030,2022-05-26_10h26.07.695,Main,2022.1.1,59.85464897852581,
neutral,neutral,2,k,k,,,,,,,,,6,9,117,10,,,,,,,,,main,2,2,2,neutral,neutral,k,l,0,0.818250099895522,393.34825529996306,394.34759999997914,394.34759999997914,None,393.34825529996306,None,393.34825529996306,None,393.34825529996306,None,395.16420030000154,None,395.16420030000154,None,395.16420030000154,None,,,,,,,,,,,,,030,2022-05-26_10h26.07.695,Main,2022.1.1,59.85464897852581,
negative,positive,2,j,l,,,,,,,,,6,10,118,15,,,,,,,,,main,2,2,2,positive,negative,j,j,1,0.8678593999939039,396.16285229998175,397.1619334999705,397.14750700001605,None,396.16285229998175,None,396.16285229998175,None,396.16285229998175,None,398.0285895799636,None,398.0285895799636,None,398.0285895799636,None,,,,,,,,,,,,,030,2022-05-26_10h26.07.695,Main,2022.1.1,59.85464897852581,
positive,positive,2,l,j,,,,,,,,,6,11,119,11,,,,,,,,,main,1,1,2,positive,positive,l,l,1,0.9480512000154704,398.03252290003,399.045210900018,399.0285376999527,None,398.03252290003,None,398.03252290003,None,398.03252290003,None,399.97853857999434,None,399.97853857999434,None,399.97853857999434,None,,,,,,,,,,,,,030,2022-05-26_10h26.07.695,Main,2022.1.1,59.85464897852581,
neutral,negative,1,k,k,,,,,,,,,6,12,120,7,,,,,,,,,main,1,1,1,negative,neutral,k,k,1,0.7479778999695554,399.9820858000312,400.9948019000003,400.9781412000302,None,399.9820858000312,None,399.9820858000312,None,399.9820858000312,None,401.72817167999455,None,401.72817167999455,None,401.72817167999455,None,,,,,,,,,,,,,030,2022-05-26_10h26.07.695,Main,2022.1.1,59.85464897852581,
negative,negative,1,j,l,,,,,,,,,6,13,121,0,,,,,,,,,main,2,2,1,negative,negative,j,j,1,0.6983246000017971,401.72813339997083,402.7281687000068,402.7281687000068,None,401.72813339997083,None,401.72813339997083,None,401.72813339997083,None,403.42817747999214,None,403.42817747999214,None,403.42817747999214,None,,,,,,,,,,,,,030,2022-05-26_10h26.07.695,Main,2022.1.1,59.85464897852581,
neutral,neutral,1,k,k,,,,,,,,,6,14,122,1,,,,,,,,,main,1,1,1,neutral,neutral,k,k,1,0.6648808000609279,403.4284929999849,404.4281468000263,404.4281468000263,None,403.4284929999849,None,403.4284929999849,None,403.4284929999849,None,405.09489118003984,None,405.09489118003984,None,405.09489118003984,None,,,,,,,,,,,,,030,2022-05-26_10h26.07.695,Main,2022.1.1,59.85464897852581,
positive,positive,1,l,j,,,,,,,,,6,15,123,2,,,,,,,,,main,1,1,1,positive,positive,l,,0,1.1842811000533402,405.10100759996567,406.11392999999225,406.08071210002527,None,405.10100759996567,None,405.10100759996567,None,405.10100759996567,None,407.2785231999587,None,407.2785231999587,None,407.2785231999587,None,,,,,,,,,,,,,030,2022-05-26_10h26.07.695,Main,2022.1.1,59.85464897852581,
neutral,positive,1,k,k,,,,,,,,,6,16,124,4,,,,,,,,,main,2,2,1,positive,neutral,k,k,1,0.8512091999873519,408.27937100001145,409.28061320004053,409.2640888999449,None,408.27937100001145,None,408.27937100001145,None,408.27937100001145,None,410.1283623799565,None,410.1283623799565,None,410.1283623799565,None,,,,,,,,,,,,,030,2022-05-26_10h26.07.695,Main,2022.1.1,59.85464897852581,
positive,negative,2,l,j,,,,,,,,,6,17,125,14,,,,,,,,,main,1,1,2,negative,positive,l,l,1,0.8798872999614105,410.132227199967,411.14715119998436,411.1283295999747,None,410.132227199967,None,410.132227199967,None,410.132227199967,None,412.01023718003415,None,412.01023718003415,None,412.01023718003415,None,,,,,,,,,,,,,030,2022-05-26_10h26.07.695,Main,2022.1.1,59.85464897852581,
positive,negative,2,l,j,,,,,,,,,7,0,126,14,,,,,,,,,main,2,2,2,negative,positive,l,l,1,0.8487941999919713,412.0221515999874,413.02812499995343,413.0114818000002,None,412.0221515999874,None,412.0221515999874,None,412.0221515999874,None,413.8614849799662,None,413.8614849799662,None,413.8614849799662,None,,,,,,,,,,,,,030,2022-05-26_10h26.07.695,Main,2022.1.1,59.85464897852581,
neutral,positive,1,k,k,,,,,,,,,7,1,127,4,,,,,,,,,main,2,2,1,positive,neutral,k,k,1,0.7648331000236794,413.8649301000405,414.87812579993624,414.8614677999867,None,413.8649301000405,None,413.8649301000405,None,413.8649301000405,None,415.6278899799683,None,415.6278899799683,None,415.6278899799683,None,,,,,,,,,,,,,030,2022-05-26_10h26.07.695,Main,2022.1.1,59.85464897852581,
neutral,negative,1,k,k,,,,,,,,,7,2,128,7,,,,,,,,,main,2,2,1,negative,neutral,k,k,1,0.7319422999862581,415.6319564000005,416.6447782999603,416.6281083000358,None,415.6319564000005,None,415.6319564000005,None,415.6319564000005,None,417.3614527799538,None,417.3614527799538,None,417.3614527799538,None,,,,,,,,,,,,,030,2022-05-26_10h26.07.695,Main,2022.1.1,59.85464897852581,
neutral,neutral,2,k,k,,,,,,,,,7,3,129,10,,,,,,,,,main,2,2,2,neutral,neutral,k,k,1,0.8651058000978082,417.36505260004196,418.37810229999013,418.3614252000116,None,417.36505260004196,None,417.36505260004196,None,417.36505260004196,None,419.22811688004293,None,419.22811688004293,None,419.22811688004293,None,,,,,,,,,,,,,030,2022-05-26_10h26.07.695,Main,2022.1.1,59.85464897852581,
neutral,positive,2,k,k,,,,,,,,,7,4,130,13,,,,,,,,,main,1,1,2,positive,neutral,k,k,1,0.7159861999098212,419.23388640000485,420.24472730001435,420.2281218999997,None,419.23388640000485,None,419.23388640000485,None,419.23388640000485,None,420.94475358001654,None,420.94475358001654,None,420.94475358001654,None,,,,,,,,,,,,,030,2022-05-26_10h26.07.695,Main,2022.1.1,59.85464897852581,
negative,positive,2,j,l,,,,,,,,,7,5,131,15,,,,,,,,,main,2,2,2,positive,negative,j,j,1,0.8339752999600023,420.94919249997474,421.9613756999606,421.9446974999737,None,420.94919249997474,None,420.94919249997474,None,420.94919249997474,None,422.7777266800287,None,422.7777266800287,None,422.7777266800287,None,,,,,,,,,,,,,030,2022-05-26_10h26.07.695,Main,2022.1.1,59.85464897852581,
negative,neutral,1,j,l,,,,,,,,,7,6,132,3,,,,,,,,,main,2,2,1,neutral,negative,j,j,1,0.6943074999144301,422.7874348999467,423.7943634999683,423.7610151999397,None,422.7874348999467,None,422.7874348999467,None,422.7874348999467,None,424.4777570799808,None,424.4777570799808,None,424.4777570799808,None,,,,,,,,,,,,,030,2022-05-26_10h26.07.695,Main,2022.1.1,59.85464897852581,
positive,positive,2,l,j,,,,,,,,,7,7,133,11,,,,,,,,,main,1,1,2,positive,positive,l,l,1,0.8988190999953076,424.4810516999569,425.4803075999953,425.4803075999953,None,424.4810516999569,None,424.4810516999569,None,424.4810516999569,None,426.3780260799569,None,426.3780260799569,None,426.3780260799569,None,,,,,,,,,,,,,030,2022-05-26_10h26.07.695,Main,2022.1.1,59.85464897852581,
positive,neutral,1,l,j,,,,,,,,,7,8,134,8,,,,,,,,,main,2,2,1,neutral,positive,l,l,1,0.6303894999437034,426.3844208000228,427.39694370003417,427.38030840002466,None,426.3844208000228,None,426.3844208000228,None,426.3844208000228,None,428.0112991799717,None,428.0112991799717,None,428.0112991799717,None,,,,,,,,,,,,,030,2022-05-26_10h26.07.695,Main,2022.1.1,59.85464897852581,
positive,negative,1,l,j,,,,,,,,,7,9,135,5,,,,,,,,,main,2,2,1,negative,positive,l,l,1,0.7148530000122264,428.0150313000195,429.03020639996976,429.01128630002495,None,428.0150313000195,None,428.0150313000195,None,428.0150313000195,None,429.7276431800448,None,429.7276431800448,None,429.7276431800448,None,,,,,,,,,,,,,030,2022-05-26_10h26.07.695,Main,2022.1.1,59.85464897852581,
positive,positive,1,l,j,,,,,,,,,7,10,136,2,,,,,,,,,main,2,2,1,positive,positive,l,l,1,0.665457500028424,429.73363080003764,430.7445782999275,430.7302731999662,None,429.73363080003764,None,429.73363080003764,None,429.73363080003764,None,431.3945804799325,None,431.3945804799325,None,431.3945804799325,None,,,,,,,,,,,,,030,2022-05-26_10h26.07.695,Main,2022.1.1,59.85464897852581,
negative,neutral,2,j,l,,,,,,,,,7,11,137,12,,,,,,,,,main,2,2,2,neutral,negative,j,j,1,0.9310798000078648,431.3985051999334,432.4108396000229,432.39418699999806,None,431.3985051999334,None,431.3985051999334,None,431.3985051999334,None,433.32752797995926,None,433.32752797995926,None,433.32752797995926,None,,,,,,,,,,,,,030,2022-05-26_10h26.07.695,Main,2022.1.1,59.85464897852581,
neutral,negative,2,k,k,,,,,,,,,7,12,138,16,,,,,,,,,main,2,2,2,negative,neutral,k,k,1,0.7987247999990359,433.32748690003064,434.32752699998673,434.32752699998673,None,433.32748690003064,None,433.32748690003064,None,433.32748690003064,None,435.12794777994276,None,435.12794777994276,None,435.12794777994276,None,,,,,,,,,,,,,030,2022-05-26_10h26.07.695,Main,2022.1.1,59.85464897852581,
neutral,neutral,1,k,k,,,,,,,,,7,13,139,1,,,,,,,,,main,2,2,1,neutral,neutral,k,k,1,0.7483072999166325,435.133666299982,436.14667029993143,436.1277842000127,None,435.133666299982,None,435.133666299982,None,435.133666299982,None,436.87787898000096,None,436.87787898000096,None,436.87787898000096,None,,,,,,,,,,,,,030,2022-05-26_10h26.07.695,Main,2022.1.1,59.85464897852581,
positive,neutral,2,l,j,,,,,,,,,7,14,140,17,,,,,,,,,main,1,1,2,neutral,positive,l,l,1,0.848354599904269,436.8837381999474,437.89658389997203,437.88006520003546,None,436.8837381999474,None,436.8837381999474,None,436.8837381999474,None,438.72787977998377,None,438.72787977998377,None,438.72787977998377,None,,,,,,,,,,,,,030,2022-05-26_10h26.07.695,Main,2022.1.1,59.85464897852581,
negative,positive,1,j,l,,,,,,,,,7,15,141,6,,,,,,,,,main,1,1,1,positive,negative,j,j,1,0.8148384999949485,438.73206419998314,439.74667829996906,439.7277479999466,None,438.73206419998314,None,438.73206419998314,None,438.73206419998314,None,440.5444300799747,None,440.5444300799747,None,440.5444300799747,None,,,,,,,,,,,,,030,2022-05-26_10h26.07.695,Main,2022.1.1,59.85464897852581,
negative,negative,2,j,l,,,,,,,,,7,16,142,9,,,,,,,,,main,2,2,2,negative,negative,j,j,1,1.1990563999861479,440.54775499994867,441.5662194000324,441.5495473999763,None,440.54775499994867,None,440.54775499994867,None,440.54775499994867,None,442.7439784799819,None,442.7439784799819,None,442.7439784799819,None,,,,,,,,,,,,,030,2022-05-26_10h26.07.695,Main,2022.1.1,59.85464897852581,
negative,negative,1,j,l,,,,,,,,,7,17,143,0,,,,,,,,,main,1,1,1,negative,negative,j,j,1,0.7309216000139713,442.74487319996115,443.74399759992957,443.74399759992957,None,442.74487319996115,None,442.74487319996115,None,442.74487319996115,None,444.4775158800068,None,444.4775158800068,None,444.4775158800068,None,,,,,,,,,,,,,030,2022-05-26_10h26.07.695,Main,2022.1.1,59.85464897852581,
negative,negative,1,j,l,,,,,,,,,8,0,144,0,,,,,,,,,main,1,1,1,negative,negative,j,j,1,0.7316060999874026,444.4839441999793,445.49657720001414,445.4776108999504,None,444.4839441999793,None,444.4839441999793,None,444.4839441999793,None,446.2109219799633,None,446.2109219799633,None,446.2109219799633,None,,,,,,,,,,,,,030,2022-05-26_10h26.07.695,Main,2022.1.1,59.85464897852581,
neutral,positive,2,k,k,,,,,,,,,8,1,145,13,,,,,,,,,main,2,2,2,positive,neutral,k,k,1,0.8318525000941008,446.21673490002286,447.2275601000292,447.2131769999396,None,446.21673490002286,None,446.21673490002286,None,446.21673490002286,None,448.04421047993236,None,448.04421047993236,None,448.04421047993236,None,,,,,,,,,,,,,030,2022-05-26_10h26.07.695,Main,2022.1.1,59.85464897852581,
negative,neutral,1,j,l,,,,,,,,,8,2,146,3,,,,,,,,,main,1,1,1,neutral,negative,j,j,1,0.848199600004591,448.04762289999053,449.06087839999236,449.046520599979,None,448.04762289999053,None,448.04762289999053,None,448.04762289999053,None,449.89420978002016,None,449.89420978002016,None,449.89420978002016,None,,,,,,,,,,,,,030,2022-05-26_10h26.07.695,Main,2022.1.1,59.85464897852581,
negative,neutral,2,j,l,,,,,,,,,8,3,147,12,,,,,,,,,main,1,1,2,neutral,negative,j,j,1,0.8137650999706239,449.8983205000404,450.9130648999708,450.8964428999461,None,449.8983205000404,None,449.8983205000404,None,449.8983205000404,None,451.7104671799927,None,451.7104671799927,None,451.7104671799927,None,,,,,,,,,,,,,030,2022-05-26_10h26.07.695,Main,2022.1.1,59.85464897852581,
positive,negative,2,l,j,,,,,,,,,8,4,148,14,,,,,,,,,main,2,2,2,negative,positive,l,l,1,1.0152530999621376,451.7104562999448,452.7104308999842,452.7104308999842,None,451.7104562999448,None,451.7104562999448,None,451.7104562999448,None,453.7271573799546,None,453.7271573799546,None,453.7271573799546,None,,,,,,,,,,,,,030,2022-05-26_10h26.07.695,Main,2022.1.1,59.85464897852581,
negative,negative,2,j,l,,,,,,,,,8,5,149,9,,,,,,,,,main,1,1,2,negative,negative,j,j,1,0.7818472000071779,453.73038640001323,454.7297411999898,454.7297411999898,None,453.73038640001323,None,453.73038640001323,None,453.73038640001323,None,455.5107591799344,None,455.5107591799344,None,455.5107591799344,None,,,,,,,,,,,,,030,2022-05-26_10h26.07.695,Main,2022.1.1,59.85464897852581,
neutral,negative,2,k,k,,,,,,,,,8,6,150,16,,,,,,,,,main,2,2,2,negative,neutral,k,k,1,0.7483836999163032,455.5141678999644,456.5296148000052,456.510713799973,None,455.5141678999644,None,455.5141678999644,None,455.5141678999644,None,457.26070447998353,None,457.26070447998353,None,457.26070447998353,None,,,,,,,,,,,,,030,2022-05-26_10h26.07.695,Main,2022.1.1,59.85464897852581,
positive,neutral,2,l,j,,,,,,,,,8,7,151,17,,,,,,,,,main,1,1,2,neutral,positive,l,l,1,0.9650190999964252,457.2639683999587,458.2629300999688,458.2629300999688,None,457.2639683999587,None,457.2639683999587,None,457.2639683999587,None,459.2273484800127,None,459.2273484800127,None,459.2273484800127,None,,,,,,,,,,,,,030,2022-05-26_10h26.07.695,Main,2022.1.1,59.85464897852581,
positive,negative,1,l,j,,,,,,,,,8,8,152,5,,,,,,,,,main,2,2,1,negative,positive,l,l,1,0.7524685000535101,459.2310009000357,460.24396789993625,460.2272843000246,None,459.2310009000357,None,459.2310009000357,None,459.2310009000357,None,460.9813419800368,None,460.9813419800368,None,460.9813419800368,None,,,,,,,,,,,,,030,2022-05-26_10h26.07.695,Main,2022.1.1,59.85464897852581,
positive,positive,2,l,j,,,,,,,,,8,9,153,11,,,,,,,,,main,2,2,2,positive,positive,l,l,1,0.8605467999586836,460.993887300021,461.9935610999819,461.9768975999905,None,460.993887300021,None,460.993887300021,None,460.993887300021,None,462.8435743800248,None,462.8435743800248,None,462.8435743800248,None,,,,,,,,,,,,,030,2022-05-26_10h26.07.695,Main,2022.1.1,59.85464897852581,
neutral,neutral,1,k,k,,,,,,,,,8,10,154,1,,,,,,,,,main,2,2,1,neutral,neutral,k,k,1,0.7149084999691695,462.8435426999349,463.84355450002477,463.84355450002477,None,462.8435426999349,None,462.8435426999349,None,462.8435426999349,None,464.56026348004815,None,464.56026348004815,None,464.56026348004815,None,,,,,,,,,,,,,030,2022-05-26_10h26.07.695,Main,2022.1.1,59.85464897852581,
neutral,positive,1,k,k,,,,,,,,,8,11,155,4,,,,,,,,,main,1,1,1,positive,neutral,k,k,1,0.681891500018537,464.56355369999073,465.5629343999317,465.5629343999317,None,464.56355369999073,None,464.56355369999073,None,464.56355369999073,None,466.2438683799584,None,466.2438683799584,None,466.2438683799584,None,,,,,,,,,,,,,030,2022-05-26_10h26.07.695,Main,2022.1.1,59.85464897852581,
neutral,negative,1,k,k,,,,,,,,,8,12,156,7,,,,,,,,,main,2,2,1,negative,neutral,k,k,1,0.7153171999379992,466.24790159997065,467.2605027999962,467.2438468999462,None,466.24790159997065,None,466.24790159997065,None,466.24790159997065,None,467.96057728001614,None,467.96057728001614,None,467.96057728001614,None,,,,,,,,,,,,,030,2022-05-26_10h26.07.695,Main,2022.1.1,59.85464897852581,
negative,positive,2,j,l,,,,,,,,,8,13,157,15,,,,,,,,,main,2,2,2,positive,negative,j,j,1,0.89830829994753,467.96694399998523,468.97713210002985,468.9607074999949,None,467.96694399998523,None,467.96694399998523,None,467.96694399998523,None,469.86053058003307,None,469.86053058003307,None,469.86053058003307,None,,,,,,,,,,,,,030,2022-05-26_10h26.07.695,Main,2022.1.1,59.85464897852581,
negative,positive,1,j,l,,,,,,,,,8,14,158,6,,,,,,,,,main,2,2,1,positive,negative,j,j,1,0.5480177000863478,469.8641742999898,470.87933769996744,470.862634500023,None,469.8641742999898,None,469.8641742999898,None,469.8641742999898,None,471.4103971799952,None,471.4103971799952,None,471.4103971799952,None,,,,,,,,,,,,,030,2022-05-26_10h26.07.695,Main,2022.1.1,59.85464897852581,
positive,positive,1,l,j,,,,,,,,,8,15,159,2,,,,,,,,,main,2,2,1,positive,positive,l,l,1,0.8648378999205306,471.41435109998565,472.4262310999911,472.40429880004376,None,471.41435109998565,None,471.41435109998565,None,471.41435109998565,None,473.27669287995667,None,473.27669287995667,None,473.27669287995667,None,,,,,,,,,,,,,030,2022-05-26_10h26.07.695,Main,2022.1.1,59.85464897852581,
positive,neutral,1,l,j,,,,,,,,,8,16,160,8,,,,,,,,,main,1,1,1,neutral,positive,l,l,1,0.6982416000682861,473.27665330003947,474.27663909993134,474.27663909993134,None,473.27665330003947,None,473.27665330003947,None,473.27665330003947,None,474.9767047800007,None,474.9767047800007,None,474.9767047800007,None,,,,,,,,,,,,,030,2022-05-26_10h26.07.695,Main,2022.1.1,59.85464897852581,
neutral,neutral,2,k,k,,,,,,,,,8,17,161,10,,,,,,,,,main,1,1,2,neutral,neutral,k,k,1,0.8814423999283463,474.980444899993,475.99588639999274,475.9792937999591,None,474.980444899993,None,474.980444899993,None,474.980444899993,None,476.8603164800326,None,476.8603164800326,None,476.8603164800326,None,,,,,,,,,,,,,030,2022-05-26_10h26.07.695,Main,2022.1.1,59.85464897852581,
positive,positive,1,l,j,,,,,,,,,9,0,162,2,,,,,,,,,main,1,1,1,positive,positive,l,l,1,0.7652631999226287,476.8642519999994,477.87694139999803,477.84591589996126,None,476.8642519999994,None,476.8642519999994,None,476.8642519999994,None,478.6270084800082,None,478.6270084800082,None,478.6270084800082,None,,,,,,,,,,,,,030,2022-05-26_10h26.07.695,Main,2022.1.1,59.85464897852581,
neutral,neutral,1,k,k,,,,,,,,,9,1,163,1,,,,,,,,,main,2,2,1,neutral,neutral,k,k,1,0.8473613999085501,478.6312082000077,479.64581000001635,479.6269101999933,None,478.6312082000077,None,478.6312082000077,None,478.6312082000077,None,480.4769784799893,None,480.4769784799893,None,480.4769784799893,None,,,,,,,,,,,,,030,2022-05-26_10h26.07.695,Main,2022.1.1,59.85464897852581,
negative,positive,1,j,l,,,,,,,,,9,2,164,6,,,,,,,,,main,2,2,1,positive,negative,j,j,1,0.9811863000504673,480.4829227000009,481.49569849995896,481.47912659996655,None,480.4829227000009,None,480.4829227000009,None,480.4829227000009,None,482.4598003800376,None,482.4598003800376,None,482.4598003800376,None,,,,,,,,,,,,,030,2022-05-26_10h26.07.695,Main,2022.1.1,59.85464897852581,
negative,negative,1,j,l,,,,,,,,,9,3,165,0,,,,,,,,,main,2,2,1,negative,negative,j,j,1,0.6484885000390932,482.4597895999905,483.4597868999699,483.4597868999699,None,482.4597895999905,None,482.4597895999905,None,482.4597895999905,None,484.1098288800451,None,484.1098288800451,None,484.1098288800451,None,,,,,,,,,,,,,030,2022-05-26_10h26.07.695,Main,2022.1.1,59.85464897852581,
positive,positive,2,l,j,,,,,,,,,9,4,166,11,,,,,,,,,main,1,1,2,positive,positive,l,l,1,0.7816165999975055,484.1106943000341,485.10979300003964,485.10979300003964,None,484.1106943000341,None,484.1106943000341,None,484.1106943000341,None,485.89315528002334,None,485.89315528002334,None,485.89315528002334,None,,,,,,,,,,,,,030,2022-05-26_10h26.07.695,Main,2022.1.1,59.85464897852581,
positive,negative,2,l,j,,,,,,,,,9,5,167,14,,,,,,,,,main,2,2,2,negative,positive,l,l,1,0.867703799973242,485.89905729994643,486.9123261999339,486.8957989999326,None,485.89905729994643,None,485.89905729994643,None,485.89905729994643,None,487.7600973800174,None,487.7600973800174,None,487.7600973800174,None,,,,,,,,,,,,,030,2022-05-26_10h26.07.695,Main,2022.1.1,59.85464897852581,
positive,neutral,1,l,j,,,,,,,,,9,6,168,8,,,,,,,,,main,2,2,1,neutral,positive,l,l,1,1.5794216999784112,487.76647999999113,488.77906049997546,488.76233519997913,None,487.76647999999113,None,487.76647999999113,None,487.76647999999113,None,490.34332270000596,None,490.34332270000596,None,490.34332270000596,None,,,,,,,,,,,,,030,2022-05-26_10h26.07.695,Main,2022.1.1,59.85464897852581,
negative,positive,2,j,l,,,,,,,,,9,7,169,15,,,,,,,,,main,1,1,2,positive,negative,j,j,1,0.8843089001020417,491.34414780000225,492.3432710999623,492.32885159994476,None,491.34414780000225,None,491.34414780000225,None,491.34414780000225,None,493.226644580008,None,493.226644580008,None,493.226644580008,None,,,,,,,,,,,,,030,2022-05-26_10h26.07.695,Main,2022.1.1,59.85464897852581,
neutral,positive,2,k,k,,,,,,,,,9,8,170,13,,,,,,,,,main,2,2,2,positive,neutral,k,k,1,0.7812201000051573,493.2329315999523,494.2428834999446,494.22623219992965,None,493.2329315999523,None,493.2329315999523,None,493.2329315999523,None,495.00956578004406,None,495.00956578004406,None,495.00956578004406,None,,,,,,,,,,,,,030,2022-05-26_10h26.07.695,Main,2022.1.1,59.85464897852581,
negative,neutral,1,j,l,,,,,,,,,9,9,171,3,,,,,,,,,main,1,1,1,neutral,negative,j,j,1,0.8652030000230297,495.00957659992855,496.0095855999971,496.0095855999971,None,495.00957659992855,None,495.00957659992855,None,495.00957659992855,None,496.8767244799412,None,496.8767244799412,None,496.8767244799412,None,,,,,,,,,,,,,030,2022-05-26_10h26.07.695,Main,2022.1.1,59.85464897852581,
neutral,positive,1,k,k,,,,,,,,,9,10,172,4,,,,,,,,,main,1,1,1,positive,neutral,k,k,1,0.781764000072144,496.88283849996515,497.8953575999476,497.8765360999387,None,496.88283849996515,None,496.88283849996515,None,496.88283849996515,None,498.65986197999445,None,498.65986197999445,None,498.65986197999445,None,,,,,,,,,,,,,030,2022-05-26_10h26.07.695,Main,2022.1.1,59.85464897852581,
positive,negative,1,l,j,,,,,,,,,9,11,173,5,,,,,,,,,main,1,1,1,negative,positive,l,l,1,1.3817768999142572,498.66556380002294,499.6787144000409,499.6598173000384,None,498.66556380002294,None,498.66556380002294,None,498.66556380002294,None,501.04315717994467,None,501.04315717994467,None,501.04315717994467,None,,,,,,,,,,,,,030,2022-05-26_10h26.07.695,Main,2022.1.1,59.85464897852581,
neutral,negative,1,k,k,,,,,,,,,9,12,174,7,,,,,,,,,main,2,2,1,negative,neutral,k,k,1,0.764870100072585,501.04894879995845,502.059777699993,502.04309769999236,None,501.04894879995845,None,501.04894879995845,None,501.04894879995845,None,502.809787280031,None,502.809787280031,None,502.809787280031,None,,,,,,,,,,,,,030,2022-05-26_10h26.07.695,Main,2022.1.1,59.85464897852581,
positive,neutral,2,l,j,,,,,,,,,9,13,175,17,,,,,,,,,main,1,1,2,neutral,positive,l,l,1,0.8645932999206707,502.8153749000048,503.8260411999654,503.8093668000074,None,502.8153749000048,None,502.8153749000048,None,502.8153749000048,None,504.6760286800447,None,504.6760286800447,None,504.6760286800447,None,,,,,,,,,,,,,030,2022-05-26_10h26.07.695,Main,2022.1.1,59.85464897852581,
neutral,neutral,2,k,k,,,,,,,,,9,14,176,10,,,,,,,,,main,2,2,2,neutral,neutral,k,k,1,0.649799200007692,504.6760817000177,505.6760206000181,505.6760206000181,None,504.6760817000177,None,504.6760817000177,None,504.6760817000177,None,506.32637017999076,None,506.32637017999076,None,506.32637017999076,None,,,,,,,,,,,,,030,2022-05-26_10h26.07.695,Main,2022.1.1,59.85464897852581,
neutral,negative,2,k,k,,,,,,,,,9,15,177,16,,,,,,,,,main,2,2,2,negative,neutral,k,k,1,0.7140552999917418,506.329460500041,507.3426894999575,507.32602020003833,None,506.329460500041,None,506.329460500041,None,506.329460500041,None,508.04311737999086,None,508.04311737999086,None,508.04311737999086,None,,,,,,,,,,,,,030,2022-05-26_10h26.07.695,Main,2022.1.1,59.85464897852581,
negative,negative,2,j,l,,,,,,,,,9,16,178,9,,,,,,,,,main,2,2,2,negative,negative,j,j,1,0.7805866000708193,508.04986339993775,509.06197849998716,509.0455681999447,None,508.04986339993775,None,508.04986339993775,None,508.04986339993775,None,509.82634017999516,None,509.82634017999516,None,509.82634017999516,None,,,,,,,,,,,,,030,2022-05-26_10h26.07.695,Main,2022.1.1,59.85464897852581,
negative,neutral,2,j,l,,,,,,,,,9,17,179,12,,,,,,,,,main,2,2,2,neutral,negative,j,j,1,0.6993962000124156,509.82959650002886,510.8262660999317,510.8262660999317,None,509.82959650002886,None,509.82959650002886,None,509.82959650002886,None,511.5262514799717,None,511.5262514799717,None,511.5262514799717,None,,,,,,,,,,,,,030,2022-05-26_10h26.07.695,Main,2022.1.1,59.85464897852581,
neutral,neutral,1,k,k,,,,,,,,,10,0,180,1,,,,,,,,,main,1,1,1,neutral,neutral,k,k,1,0.7806588000385091,511.53024079999886,512.5428471999476,512.5284628999652,None,511.53024079999886,None,511.53024079999886,None,511.53024079999886,None,513.3095437800396,None,513.3095437800396,None,513.3095437800396,None,,,,,,,,,,,,,030,2022-05-26_10h26.07.695,Main,2022.1.1,59.85464897852581,
negative,neutral,2,j,l,,,,,,,,,10,1,181,12,,,,,,,,,main,2,2,2,neutral,negative,j,j,1,0.8147368000354618,513.3157924000407,514.3283576000249,514.3094903000165,None,513.3157924000407,None,513.3157924000407,None,513.3157924000407,None,515.1258235799498,None,515.1258235799498,None,515.1258235799498,None,,,,,,,,,,,,,030,2022-05-26_10h26.07.695,Main,2022.1.1,59.85464897852581,
positive,negative,1,l,j,,,,,,,,,10,2,182,5,,,,,,,,,main,1,1,1,negative,positive,l,l,1,0.8316003000363708,515.1257910999702,516.1257785999915,516.1257785999915,None,515.1257910999702,None,515.1257910999702,None,515.1257910999702,None,516.9591744800448,None,516.9591744800448,None,516.9591744800448,None,,,,,,,,,,,,,030,2022-05-26_10h26.07.695,Main,2022.1.1,59.85464897852581,
neutral,positive,2,k,k,,,,,,,,,10,3,183,13,,,,,,,,,main,1,1,2,positive,neutral,k,k,1,0.7320558000355959,516.9656667000381,517.978403499932,517.9450068000006,None,516.9656667000381,None,516.9656667000381,None,516.9656667000381,None,518.6927536800388,None,518.6927536800388,None,518.6927536800388,None,,,,,,,,,,,,,030,2022-05-26_10h26.07.695,Main,2022.1.1,59.85464897852581,
negative,neutral,1,j,l,,,,,,,,,10,4,184,3,,,,,,,,,main,2,2,1,neutral,negative,j,j,1,1.265377499978058,518.6968964999542,519.7117125999648,519.6927402999718,None,518.6968964999542,None,518.6968964999542,None,518.6968964999542,None,520.9593928799616,None,520.9593928799616,None,520.9593928799616,None,,,,,,,,,,,,,030,2022-05-26_10h26.07.695,Main,2022.1.1,59.85464897852581,
positive,positive,2,l,j,,,,,,,,,10,5,185,11,,,,,,,,,main,2,2,2,positive,positive,l,l,1,1.3809464999940246,520.9638545999769,521.9782791000325,521.9616625999333,None,520.9638545999769,None,520.9638545999769,None,520.9638545999769,None,523.3427343800315,None,523.3427343800315,None,523.3427343800315,None,,,,,,,,,,,,,030,2022-05-26_10h26.07.695,Main,2022.1.1,59.85464897852581,
neutral,negative,2,k,k,,,,,,,,,10,6,186,16,,,,,,,,,main,1,1,2,negative,neutral,k,l,0,0.25078149989712983,523.3489597999724,524.3591770000057,524.3424327999819,None,523.3489597999724,None,523.3489597999724,None,523.3489597999724,None,524.5922417000402,None,524.5922417000402,None,524.5922417000402,None,,,,,,,,,,,,,030,2022-05-26_10h26.07.695,Main,2022.1.1,59.85464897852581,
positive,neutral,2,l,j,,,,,,,,,10,7,187,17,,,,,,,,,main,1,1,2,neutral,positive,l,l,1,1.1193732999963686,525.5954220000422,526.6088945999509,526.5922296999488,None,525.5954220000422,None,525.5954220000422,None,525.5954220000422,None,527.7089346799651,None,527.7089346799651,None,527.7089346799651,None,,,,,,,,,,,,,030,2022-05-26_10h26.07.695,Main,2022.1.1,59.85464897852581,
negative,positive,1,j,l,,,,,,,,,10,8,188,6,,,,,,,,,main,2,2,1,positive,negative,j,j,1,0.8317269999533892,527.711856000009,528.7255762999412,528.7089077000273,None,527.711856000009,None,527.711856000009,None,527.711856000009,None,529.5425789799658,None,529.5425789799658,None,529.5425789799658,None,,,,,,,,,,,,,030,2022-05-26_10h26.07.695,Main,2022.1.1,59.85464897852581,
neutral,negative,1,k,k,,,,,,,,,10,9,189,7,,,,,,,,,main,1,1,1,negative,neutral,k,k,1,0.6162160999374464,529.5460659000091,530.5614891999867,530.5425126999617,None,529.5460659000091,None,529.5460659000091,None,529.5460659000091,None,531.1603883800447,None,531.1603883800447,None,531.1603883800447,None,,,,,,,,,,,,,030,2022-05-26_10h26.07.695,Main,2022.1.1,59.85464897852581,
negative,negative,1,j,l,,,,,,,,,10,10,190,0,,,,,,,,,main,2,2,1,negative,negative,j,j,1,0.7805079000536352,531.1661348999478,532.1779760000063,532.1591486999532,None,531.1661348999478,None,531.1661348999478,None,531.1661348999478,None,532.9424971799483,None,532.9424971799483,None,532.9424971799483,None,,,,,,,,,,,,,030,2022-05-26_10h26.07.695,Main,2022.1.1,59.85464897852581,
neutral,neutral,2,k,k,,,,,,,,,10,11,191,10,,,,,,,,,main,1,1,2,neutral,neutral,k,k,1,0.6495005000615492,532.9462895999895,533.9613566999324,533.9424489999656,None,532.9462895999895,None,532.9462895999895,None,532.9462895999895,None,534.5924494799576,None,534.5924494799576,None,534.5924494799576,None,,,,,,,,,,,,,030,2022-05-26_10h26.07.695,Main,2022.1.1,59.85464897852581,
positive,neutral,1,l,j,,,,,,,,,10,12,192,8,,,,,,,,,main,1,1,1,neutral,positive,l,l,1,0.8634772999212146,534.5986992999678,535.611219799961,535.5946176999714,None,534.5986992999678,None,534.5986992999678,None,534.5986992999678,None,536.4587102800026,None,536.4587102800026,None,536.4587102800026,None,,,,,,,,,,,,,030,2022-05-26_10h26.07.695,Main,2022.1.1,59.85464897852581,
neutral,positive,1,k,k,,,,,,,,,10,13,193,4,,,,,,,,,main,2,2,1,positive,neutral,k,k,1,0.6984658000292256,536.4587833000114,537.4586659999331,537.4586659999331,None,536.4587833000114,None,536.4587833000114,None,536.4587833000114,None,538.1587286799797,None,538.1587286799797,None,538.1587286799797,None,,,,,,,,,,,,,030,2022-05-26_10h26.07.695,Main,2022.1.1,59.85464897852581,
positive,negative,2,l,j,,,,,,,,,10,14,194,14,,,,,,,,,main,1,1,2,negative,positive,l,l,1,0.9507962000789121,538.1619932999602,539.1613092999905,539.1613092999905,None,538.1619932999602,None,538.1619932999602,None,538.1619932999602,None,540.111168880004,None,540.111168880004,None,540.111168880004,None,,,,,,,,,,,,,030,2022-05-26_10h26.07.695,Main,2022.1.1,59.85464897852581,
negative,negative,2,j,l,,,,,,,,,10,15,195,9,,,,,,,,,main,2,2,2,negative,negative,j,j,1,0.7795291000511497,540.1140435000416,541.1256244999822,541.1111738999607,None,540.1140435000416,None,540.1140435000416,None,540.1140435000416,None,541.8923740800121,None,541.8923740800121,None,541.8923740800121,None,,,,,,,,,,,,,030,2022-05-26_10h26.07.695,Main,2022.1.1,59.85464897852581,
negative,positive,2,j,l,,,,,,,,,10,16,196,15,,,,,,,,,main,2,2,2,positive,negative,j,j,1,0.76498689991422,541.8959260999691,542.9089338999474,542.8944852999412,None,541.8959260999691,None,541.8959260999691,None,541.8959260999691,None,543.6589061799343,None,543.6589061799343,None,543.6589061799343,None,,,,,,,,,,,,,030,2022-05-26_10h26.07.695,Main,2022.1.1,59.85464897852581,
positive,positive,1,l,j,,,,,,,,,10,17,197,2,,,,,,,,,main,1,1,1,positive,positive,l,l,1,0.8150635999627411,543.6646603000117,544.6776572000235,544.6588653000072,None,543.6646603000117,None,543.6646603000117,None,543.6646603000117,None,545.4755641800468,None,545.4755641800468,None,545.4755641800468,None,,,,,,,,,,,,,030,2022-05-26_10h26.07.695,Main,2022.1.1,59.85464897852581,
negative,positive,2,j,l,,,,,,,,,11,0,198,15,,,,,,,,,main,2,2,2,positive,negative,j,j,1,0.780123500037007,545.4826937000034,546.4918152999599,546.4751451000338,None,545.4826937000034,None,545.4826937000034,None,545.4826937000034,None,547.2584863799741,None,547.2584863799741,None,547.2584863799741,None,,,,,,,,,,,,,030,2022-05-26_10h26.07.695,Main,2022.1.1,59.85464897852581,
positive,neutral,1,l,j,,,,,,,,,11,1,199,8,,,,,,,,,main,1,1,1,neutral,positive,l,l,1,0.8817353999475017,547.258472400019,548.2584832999855,548.2584832999855,None,547.258472400019,None,547.258472400019,None,547.258472400019,None,549.1418180799694,None,549.1418180799694,None,549.1418180799694,None,,,,,,,,,,,,,030,2022-05-26_10h26.07.695,Main,2022.1.1,59.85464897852581,
negative,positive,1,j,l,,,,,,,,,11,2,200,6,,,,,,,,,main,2,2,1,positive,negative,j,j,1,0.665436299983412,549.1474645000417,550.161158700008,550.1444413999561,None,549.1474645000417,None,549.1474645000417,None,549.1474645000417,None,550.8087881799904,None,550.8087881799904,None,550.8087881799904,None,,,,,,,,,,,,,030,2022-05-26_10h26.07.695,Main,2022.1.1,59.85464897852581,
positive,negative,1,l,j,,,,,,,,,11,3,201,5,,,,,,,,,main,1,1,1,negative,positive,l,l,1,0.7982057000044733,550.8147278999677,551.8276328999782,551.8110429999651,None,550.8147278999677,None,550.8147278999677,None,550.8147278999677,None,552.6087595799356,None,552.6087595799356,None,552.6087595799356,None,,,,,,,,,,,,,030,2022-05-26_10h26.07.695,Main,2022.1.1,59.85464897852581,
negative,negative,1,j,l,,,,,,,,,11,4,202,0,,,,,,,,,main,1,1,1,negative,negative,j,j,1,0.831497099949047,552.6254715999821,553.6253727999283,553.608712199959,None,552.6254715999821,None,552.6254715999821,None,552.6254715999821,None,554.4420156800072,None,554.4420156800072,None,554.4420156800072,None,,,,,,,,,,,,,030,2022-05-26_10h26.07.695,Main,2022.1.1,59.85464897852581,
positive,negative,2,l,j,,,,,,,,,11,5,203,14,,,,,,,,,main,1,1,2,negative,positive,l,l,1,0.7856241000117734,554.4450964999851,555.4419902999653,555.427559099975,None,554.4450964999851,None,554.4450964999851,None,554.4450964999851,None,556.2289930799627,None,556.2289930799627,None,556.2289930799627,None,,,,,,,,,,,,,030,2022-05-26_10h26.07.695,Main,2022.1.1,59.85464897852581,
positive,positive,2,l,j,,,,,,,,,11,6,204,11,,,,,,,,,main,2,2,2,positive,positive,l,l,1,0.7776902000186965,556.2324418999488,557.2415899999905,557.2082601999864,None,556.2324418999488,None,556.2324418999488,None,556.2324418999488,None,558.0082387799514,None,558.0082387799514,None,558.0082387799514,None,,,,,,,,,,,,,030,2022-05-26_10h26.07.695,Main,2022.1.1,59.85464897852581,
negative,negative,2,j,l,,,,,,,,,11,7,205,9,,,,,,,,,main,2,2,2,negative,negative,j,j,1,0.9318835999583825,558.0082487999462,559.0082758000353,559.0082758000353,None,558.0082487999462,None,558.0082487999462,None,558.0082487999462,None,559.9419835799956,None,559.9419835799956,None,559.9419835799956,None,,,,,,,,,,,,,030,2022-05-26_10h26.07.695,Main,2022.1.1,59.85464897852581,
positive,positive,1,l,j,,,,,,,,,11,8,206,2,,,,,,,,,main,1,1,1,positive,positive,l,l,1,0.7816463999915868,559.9454199000029,560.9585663999896,560.9418880000012,None,559.9454199000029,None,559.9454199000029,None,559.9454199000029,None,561.7251501800376,None,561.7251501800376,None,561.7251501800376,None,,,,,,,,,,,,,030,2022-05-26_10h26.07.695,Main,2022.1.1,59.85464897852581,
positive,neutral,2,l,j,,,,,,,,,11,9,207,17,,,,,,,,,main,2,2,2,neutral,positive,l,l,1,1.0818318000528961,561.7314916999312,562.7440784999635,562.7274838000303,None,561.7314916999312,None,561.7314916999312,None,561.7314916999312,None,563.8085580799846,None,563.8085580799846,None,563.8085580799846,None,,,,,,,,,,,,,030,2022-05-26_10h26.07.695,Main,2022.1.1,59.85464897852581,
neutral,positive,1,k,k,,,,,,,,,11,10,208,4,,,,,,,,,main,2,2,1,positive,neutral,k,k,1,1.014907900011167,563.8144296000246,564.8251056999434,564.8084387000417,None,563.8144296000246,None,563.8144296000246,None,563.8144296000246,None,565.8250994799776,None,565.8250994799776,None,565.8250994799776,None,,,,,,,,,,,,,030,2022-05-26_10h26.07.695,Main,2022.1.1,59.85464897852581,
neutral,neutral,2,k,k,,,,,,,,,11,11,209,10,,,,,,,,,main,1,1,2,neutral,neutral,k,k,1,0.9314011000096798,565.8283112000208,566.8409578000428,566.8237375000026,None,565.8283112000208,None,565.8283112000208,None,565.8283112000208,None,567.7580619800021,None,567.7580619800021,None,567.7580619800021,None,,,,,,,,,,,,,030,2022-05-26_10h26.07.695,Main,2022.1.1,59.85464897852581,
neutral,negative,2,k,k,,,,,,,,,11,12,210,16,,,,,,,,,main,2,2,2,negative,neutral,k,k,1,0.6148646000074223,567.758041699999,568.7580469000386,568.7580469000386,None,567.758041699999,None,567.758041699999,None,567.758041699999,None,569.3747344800388,None,569.3747344800388,None,569.3747344800388,None,,,,,,,,,,,,,030,2022-05-26_10h26.07.695,Main,2022.1.1,59.85464897852581,
neutral,negative,1,k,k,,,,,,,,,11,13,211,7,,,,,,,,,main,2,2,1,negative,neutral,k,k,1,0.6483360000420362,569.3751671999926,570.3747126000235,570.3747126000235,None,569.3751671999926,None,569.3751671999926,None,569.3751671999926,None,571.0247245799867,None,571.0247245799867,None,571.0247245799867,None,,,,,,,,,,,,,030,2022-05-26_10h26.07.695,Main,2022.1.1,59.85464897852581,
negative,neutral,2,j,l,,,,,,,,,11,14,212,12,,,,,,,,,main,2,2,2,neutral,negative,j,j,1,0.7986062000272796,571.0281678999308,572.0272954000393,572.0272954000393,None,571.0281678999308,None,571.0281678999308,None,571.0281678999308,None,572.824978279986,None,572.824978279986,None,572.824978279986,None,,,,,,,,,,,,,030,2022-05-26_10h26.07.695,Main,2022.1.1,59.85464897852581,
neutral,neutral,1,k,k,,,,,,,,,11,15,213,1,,,,,,,,,main,2,2,1,neutral,neutral,k,k,1,0.6173992999829352,572.82832900004,573.8415851999307,573.8271851999452,None,572.82832900004,None,572.82832900004,None,572.82832900004,None,574.4440278799623,None,574.4440278799623,None,574.4440278799623,None,,,,,,,,,,,,,030,2022-05-26_10h26.07.695,Main,2022.1.1,59.85464897852581,
neutral,positive,2,k,k,,,,,,,,,11,16,214,13,,,,,,,,,main,1,1,2,positive,neutral,k,k,1,0.6289090999634936,574.4480565999402,575.4582514000358,575.4415715000359,None,574.4480565999402,None,574.4480565999402,None,574.4480565999402,None,576.0746057799436,None,576.0746057799436,None,576.0746057799436,None,,,,,,,,,,,,,030,2022-05-26_10h26.07.695,Main,2022.1.1,59.85464897852581,
negative,neutral,1,j,l,,,,,,,,,11,17,215,3,,,,,,,,,main,1,1,1,neutral,negative,j,j,1,0.884088100050576,576.0798851000145,577.091556499945,577.0608111999463,None,576.0798851000145,None,576.0798851000145,None,576.0798851000145,None,577.9604847800103,None,577.9604847800103,None,577.9604847800103,None,,,,,,,,,,,,,030,2022-05-26_10h26.07.695,Main,2022.1.1,59.85464897852581,
negative,negative,1,j,l,,,,,,,,,12,0,216,0,,,,,,,,,main,1,1,1,negative,negative,j,j,1,1.1292747999541461,577.9633170999587,578.9744706000201,578.9577753000194,None,577.9633170999587,None,577.9633170999587,None,577.9633170999587,None,580.0911513799686,None,580.0911513799686,None,580.0911513799686,None,,,,,,,,,,,,,030,2022-05-26_10h26.07.695,Main,2022.1.1,59.85464897852581,
positive,negative,1,l,j,,,,,,,,,12,1,217,5,,,,,,,,,main,2,2,1,negative,positive,l,l,1,0.9310938999988139,580.092573300004,581.1081320999656,581.0937635999871,None,580.092573300004,None,580.092573300004,None,580.092573300004,None,582.0247829799657,None,582.0247829799657,None,582.0247829799657,None,,,,,,,,,,,,,030,2022-05-26_10h26.07.695,Main,2022.1.1,59.85464897852581,
negative,positive,2,j,l,,,,,,,,,12,2,218,15,,,,,,,,,main,2,2,2,positive,negative,j,j,1,0.8980157000478357,582.0303591999691,583.0437088999897,583.0247308999533,None,582.0303591999691,None,582.0303591999691,None,582.0303591999691,None,583.9245046799654,None,583.9245046799654,None,583.9245046799654,None,,,,,,,,,,,,,030,2022-05-26_10h26.07.695,Main,2022.1.1,59.85464897852581,
negative,positive,1,j,l,,,,,,,,,12,3,219,6,,,,,,,,,main,1,1,1,positive,negative,j,j,1,0.9653200000757352,583.9307116999989,584.9435574000236,584.9269189999904,None,583.9307116999989,None,583.9307116999989,None,583.9307116999989,None,585.8913810800179,None,585.8913810800179,None,585.8913810800179,None,,,,,,,,,,,,,030,2022-05-26_10h26.07.695,Main,2022.1.1,59.85464897852581,
negative,negative,2,j,l,,,,,,,,,12,4,220,9,,,,,,,,,main,1,1,2,negative,negative,j,j,1,0.8480647000251338,585.897079300019,586.9080050999764,586.8916146999691,None,585.897079300019,None,585.897079300019,None,585.897079300019,None,587.741346079961,None,587.741346079961,None,587.741346079961,None,,,,,,,,,,,,,030,2022-05-26_10h26.07.695,Main,2022.1.1,59.85464897852581,
positive,positive,1,l,j,,,,,,,,,12,5,221,2,,,,,,,,,main,1,1,1,positive,positive,l,l,1,0.9652937999926507,587.7604869999923,588.774584800005,588.7245174000273,None,587.7604869999923,None,587.7604869999923,None,587.7604869999923,None,589.7078606799362,None,589.7078606799362,None,589.7078606799362,None,,,,,,,,,,,,,030,2022-05-26_10h26.07.695,Main,2022.1.1,59.85464897852581,
negative,neutral,1,j,l,,,,,,,,,12,6,222,3,,,,,,,,,main,1,1,1,neutral,negative,j,j,1,0.8006034999853,589.7132173000136,590.7245094999671,590.7078450999688,None,589.7132173000136,None,589.7132173000136,None,589.7132173000136,None,591.5078500800184,None,591.5078500800184,None,591.5078500800184,None,,,,,,,,,,,,,030,2022-05-26_10h26.07.695,Main,2022.1.1,59.85464897852581,
positive,negative,2,l,j,,,,,,,,,12,7,223,14,,,,,,,,,main,2,2,2,negative,positive,l,l,1,0.7962088999338448,591.5139189999318,592.5244916999945,592.5100688999519,None,591.5139189999318,None,591.5139189999318,None,591.5139189999318,None,593.3078806799488,None,593.3078806799488,None,593.3078806799488,None,,,,,,,,,,,,,030,2022-05-26_10h26.07.695,Main,2022.1.1,59.85464897852581,
neutral,positive,2,k,k,,,,,,,,,12,8,224,13,,,,,,,,,main,2,2,2,positive,neutral,k,k,1,0.8482705999631435,593.3134792000055,594.3244745000266,594.3078573000384,None,593.3134792000055,None,593.3134792000055,None,593.3134792000055,None,595.1577805799782,None,595.1577805799782,None,595.1577805799782,None,,,,,,,,,,,,,030,2022-05-26_10h26.07.695,Main,2022.1.1,59.85464897852581,
