target,distractor,set,ans1,ans2,rep_loop2.thisRepN,rep_loop2.thisTrialN,rep_loop2.thisN,rep_loop2.thisIndex,flanker_prac_loop.thisRepN,flanker_prac_loop.thisTrialN,flanker_prac_loop.thisN,flanker_prac_loop.thisIndex,flanker_main_loop.thisRepN,flanker_main_loop.thisTrialN,flanker_main_loop.thisN,flanker_main_loop.thisIndex,fl_inst_resp.keys,fl_inst_resp.rt,sound_1.started,sound_1.stopped,image_4.started,image_4.stopped,back_2.started,back_2.stopped,main_prac,fl_cold,fl_colt,fl_set,fl_dcond,fl_tcond,fl_ans,fl_res,fl_corr,fl_rt,fix_fl.started,fix_fl.stopped,targ.started,targ.stopped,j_button.started,j_button.stopped,k_button.started,k_button.stopped,l_button.started,l_button.stopped,j_button2.started,j_button2.stopped,k_button2.started,k_button2.stopped,l_button2.started,l_button2.stopped,mainback.started,mainback.stopped,key_resp.keys,mouse_6.x,mouse_6.y,mouse_6.leftButton,mouse_6.midButton,mouse_6.rightButton,mouse_6.started,mouse_6.stopped,text_2.started,text_2.stopped,id*,date,expName,psychopyVersion,frameRate,
,,,,,0,0,0,0,,,,,,,,,space,53.72044389997609,17.333501630078537,None,71.08216260001063,None,,,,,,,,,,,,,,,,,,,,,,,,,,,,,,,,,,,,,,,,,031,2022-05-26_19h57.55.527,Main,2022.1.1,60.01748908975226,
positive,neutral,1,l,j,,,,,0,0,0,8,,,,,,,,,,,74.0323028001003,None,prac,1,1,1,neutral,positive,j,j,1,2.6526164000388235,76.06629840005189,77.06543469999451,77.0488240000559,None,76.06629840005189,None,76.06629840005189,None,76.06629840005189,None,79.71322300005704,None,79.71322300005704,None,79.71322300005704,None,,,,,,,,,,,,,031,2022-05-26_19h57.55.527,Main,2022.1.1,60.01748908975226,
neutral,neutral,2,k,k,,,,,0,1,1,10,,,,,,,,,,,,,prac,2,2,2,neutral,neutral,k,k,1,1.3677276000380516,80.72094520006794,81.73198810010217,81.71539110003505,None,80.72094520006794,None,80.72094520006794,None,80.72094520006794,None,83.07975992999272,None,83.07975992999272,None,83.07975992999272,None,,,,,,,,,,,,,031,2022-05-26_19h57.55.527,Main,2022.1.1,60.01748908975226,
negative,neutral,2,j,l,,,,,0,2,2,12,,,,,,,,,,,,,prac,2,2,2,neutral,negative,l,l,1,1.0146284999791533,83.09517139999662,84.0986353000626,84.08202810003422,None,83.09517139999662,None,83.09517139999662,None,83.09517139999662,None,85.09608283006818,None,85.09608283006818,None,85.09608283006818,None,,,,,,,,,,,,,031,2022-05-26_19h57.55.527,Main,2022.1.1,60.01748908975226,
positive,neutral,2,l,j,,,,,0,3,3,17,,,,,,,,,,,,,prac,2,2,2,neutral,positive,j,j,1,1.215113600017503,85.10700780001935,86.11522680008784,86.08197050006129,None,85.10700780001935,None,85.10700780001935,None,85.10700780001935,None,87.3127037300379,None,87.3127037300379,None,87.3127037300379,None,,,,,,,,,,,,,031,2022-05-26_19h57.55.527,Main,2022.1.1,60.01748908975226,
neutral,positive,1,k,k,,,,,0,4,4,4,,,,,,,,,,,,,prac,2,2,1,positive,neutral,k,k,1,1.2320838999003172,87.32756130001508,88.329287200002,88.31261470005848,None,87.32756130001508,None,87.32756130001508,None,87.32756130001508,None,89.5460029299953,None,89.5460029299953,None,89.5460029299953,None,,,,,,,,,,,,,031,2022-05-26_19h57.55.527,Main,2022.1.1,60.01748908975226,
positive,positive,2,l,j,,,,,0,5,5,11,,,,,,,,,,,,,prac,1,1,2,positive,positive,j,j,1,1.0998056000098586,89.55965740000829,90.56517570000142,90.54856490006205,None,89.55965740000829,None,89.55965740000829,None,89.55965740000829,None,91.64627703008009,None,91.64627703008009,None,91.64627703008009,None,,,,,,,,,,,,,031,2022-05-26_19h57.55.527,Main,2022.1.1,60.01748908975226,
negative,neutral,1,j,l,,,,,0,6,6,3,,,,,,,,,,,,,prac,2,2,1,neutral,negative,l,l,1,1.0810240000719205,91.65252690005582,92.6651365000289,92.64858480007388,None,91.65252690005582,None,91.65252690005582,None,91.65252690005582,None,93.72954793003154,None,93.72954793003154,None,93.72954793003154,None,,,,,,,,,,,,,031,2022-05-26_19h57.55.527,Main,2022.1.1,60.01748908975226,
neutral,negative,1,k,k,,,,,0,7,7,7,,,,,,,,,,,,,prac,2,2,1,negative,neutral,k,k,1,0.9223999000387266,93.74020370002836,94.74839610001072,94.71515790000558,None,93.74020370002836,None,93.74020370002836,None,93.74020370002836,None,95.64858216005376,None,95.64858216005376,None,95.64858216005376,None,,,,,,,,,,,,,031,2022-05-26_19h57.55.527,Main,2022.1.1,60.01748908975226,
negative,positive,2,j,l,,,,,0,8,8,15,,,,,,,,,,,,,prac,2,2,2,positive,negative,l,l,1,1.0413533999817446,95.65707960003056,96.66507690004073,96.6484996000072,None,95.65707960003056,None,95.65707960003056,None,95.65707960003056,None,97.69611523005878,None,97.69611523005878,None,97.69611523005878,None,,,,,,,,,,,,,031,2022-05-26_19h57.55.527,Main,2022.1.1,60.01748908975226,
positive,negative,1,l,j,,,,,0,9,9,5,,,,,,,,,,,,,prac,1,1,1,negative,positive,j,j,1,0.948217700002715,97.71669570007361,98.7290706000058,98.69573940010741,None,97.71669570007361,None,97.71669570007361,None,97.71669570007361,None,99.64573783004889,None,99.64573783004889,None,99.64573783004889,None,,,,,,,,,,,,,031,2022-05-26_19h57.55.527,Main,2022.1.1,60.01748908975226,
positive,negative,2,l,j,,,,,0,10,10,14,,,,,,,,,,,,,prac,2,2,2,negative,positive,j,j,1,0.9321143999695778,99.64675670000724,100.64835340005811,100.64835340005811,None,99.64675670000724,None,99.64675670000724,None,99.64675670000724,None,101.57939483000663,None,101.57939483000663,None,101.57939483000663,None,,,,,,,,,,,,,031,2022-05-26_19h57.55.527,Main,2022.1.1,60.01748908975226,
neutral,negative,2,k,k,,,,,0,11,11,16,,,,,,,,,,,,,prac,2,2,2,negative,neutral,k,k,1,0.8479399000061676,101.58560109999962,102.59829730005004,102.58164600003511,None,101.58560109999962,None,101.58560109999962,None,101.58560109999962,None,103.42935543003259,None,103.42935543003259,None,103.42935543003259,None,,,,,,,,,,,,,031,2022-05-26_19h57.55.527,Main,2022.1.1,60.01748908975226,
positive,positive,1,l,j,,,,,0,12,12,2,,,,,,,,,,,,,prac,2,2,1,positive,positive,j,j,1,0.8319022000068799,103.43850560009014,104.44827560009435,104.43165510008112,None,103.43850560009014,None,103.43850560009014,None,103.43850560009014,None,105.26269523004302,None,105.26269523004302,None,105.26269523004302,None,,,,,,,,,,,,,031,2022-05-26_19h57.55.527,Main,2022.1.1,60.01748908975226,
negative,negative,1,j,l,,,,,0,13,13,0,,,,,,,,,,,,,prac,1,1,1,negative,negative,l,l,1,0.8651287000393495,105.26864740008023,106.28149680001661,106.24827010009903,None,105.26864740008023,None,105.26864740008023,None,105.26864740008023,None,107.12924663008889,None,107.12924663008889,None,107.12924663008889,None,,,,,,,,,,,,,031,2022-05-26_19h57.55.527,Main,2022.1.1,60.01748908975226,
negative,positive,1,j,l,,,,,0,14,14,6,,,,,,,,,,,,,prac,2,2,1,positive,negative,l,l,1,0.8181218999670818,107.13996640010737,108.14808930002619,108.1315281999996,None,107.13996640010737,None,107.13996640010737,None,107.13996640010737,None,108.9455095301033,None,108.9455095301033,None,108.9455095301033,None,,,,,,,,,,,,,031,2022-05-26_19h57.55.527,Main,2022.1.1,60.01748908975226,
neutral,positive,2,k,k,,,,,0,15,15,13,,,,,,,,,,,,,prac,2,2,2,positive,neutral,k,k,1,0.8787489999085665,108.94823930005077,109.96214250009507,109.94548800005578,None,108.94823930005077,None,108.94823930005077,None,108.94823930005077,None,110.82890163009287,None,110.82890163009287,None,110.82890163009287,None,,,,,,,,,,,,,031,2022-05-26_19h57.55.527,Main,2022.1.1,60.01748908975226,
negative,negative,2,j,l,,,,,0,16,16,9,,,,,,,,,,,,,prac,1,1,2,negative,negative,l,l,1,0.8997875000350177,110.84258340008091,111.84804820001591,111.83148210006766,None,110.84258340008091,None,110.84258340008091,None,110.84258340008091,None,112.72917483010096,None,112.72917483010096,None,112.72917483010096,None,,,,,,,,,,,,,031,2022-05-26_19h57.55.527,Main,2022.1.1,60.01748908975226,
neutral,neutral,1,k,k,,,,,0,17,17,1,,,,,,,,,,,,,prac,2,2,1,neutral,neutral,k,k,1,0.8143896000692621,112.74586150003597,113.74801820004359,113.73143620009068,None,112.74586150003597,None,112.74586150003597,None,112.74586150003597,None,114.54580083008622,None,114.54580083008622,None,114.54580083008622,None,,,,,,,,,,,,,031,2022-05-26_19h57.55.527,Main,2022.1.1,60.01748908975226,
positive,neutral,1,l,j,,,,,1,0,18,8,,,,,,,,,,,,,prac,2,2,1,neutral,positive,j,j,1,0.8817725999979302,114.54911860008724,115.5647033000132,115.54803930001799,None,114.54911860008724,None,114.54911860008724,None,114.54911860008724,None,116.42909293001284,None,116.42909293001284,None,116.42909293001284,None,,,,,,,,,,,,,031,2022-05-26_19h57.55.527,Main,2022.1.1,60.01748908975226,
positive,negative,2,l,j,,,,,1,1,19,14,,,,,,,,,,,,,prac,1,1,2,negative,positive,j,j,1,0.981278800056316,116.43533610005397,117.44791230000556,117.43132259999402,None,116.43533610005397,None,116.43533610005397,None,116.43533610005397,None,118.41237333005992,None,118.41237333005992,None,118.41237333005992,None,,,,,,,,,,,,,031,2022-05-26_19h57.55.527,Main,2022.1.1,60.01748908975226,
negative,negative,1,j,l,,,,,1,2,20,0,,,,,,,,,,,,,prac,2,2,1,negative,negative,l,l,1,0.9143145000562072,118.41847440006677,119.4286376000382,119.4119738000445,None,118.41847440006677,None,118.41847440006677,None,118.41847440006677,None,120.3286332300282,None,120.3286332300282,None,120.3286332300282,None,,,,,,,,,,,,,031,2022-05-26_19h57.55.527,Main,2022.1.1,60.01748908975226,
positive,neutral,2,l,j,,,,,1,3,21,17,,,,,,,,,,,,,prac,1,1,2,neutral,positive,j,j,1,0.9323353000218049,120.33646060002502,121.34532150009181,121.32865300006233,None,120.33646060002502,None,120.33646060002502,None,120.33646060002502,None,122.26264183010207,None,122.26264183010207,None,122.26264183010207,None,,,,,,,,,,,,,031,2022-05-26_19h57.55.527,Main,2022.1.1,60.01748908975226,
negative,neutral,1,j,l,,,,,1,4,22,3,,,,,,,,,,,,,prac,1,1,1,neutral,negative,l,l,1,0.8982816999778152,122.26572970009875,123.2811256001005,123.26460490003228,None,122.26572970009875,None,122.26572970009875,None,122.26572970009875,None,124.1622145300149,None,124.1622145300149,None,124.1622145300149,None,,,,,,,,,,,,,031,2022-05-26_19h57.55.527,Main,2022.1.1,60.01748908975226,
neutral,negative,2,k,k,,,,,1,5,23,16,,,,,,,,,,,,,prac,2,2,2,negative,neutral,k,k,1,0.815324499970302,124.16525800002273,125.16437700006645,125.14778050000314,None,124.16525800002273,None,124.16525800002273,None,124.16525800002273,None,125.97885393010219,None,125.97885393010219,None,125.97885393010219,None,,,,,,,,,,,,,031,2022-05-26_19h57.55.527,Main,2022.1.1,60.01748908975226,
neutral,positive,1,k,k,,,,,1,6,24,4,,,,,,,,,,,,,prac,2,2,1,positive,neutral,k,k,1,1.017499400069937,125.9851548000006,126.99768360005692,126.98112210002728,None,125.9851548000006,None,125.9851548000006,None,125.9851548000006,None,127.99778473001206,None,127.99778473001206,None,127.99778473001206,None,,,,,,,,,,,,,031,2022-05-26_19h57.55.527,Main,2022.1.1,60.01748908975226,
negative,positive,2,j,l,,,,,1,7,25,15,,,,,,,,,,,,,prac,2,2,2,positive,negative,l,l,1,1.0634468999924138,128.00165390002076,129.01431680005044,128.9977434000466,None,128.00165390002076,None,128.00165390002076,None,128.00165390002076,None,130.0618085300899,None,130.0618085300899,None,130.0618085300899,None,,,,,,,,,,,,,031,2022-05-26_19h57.55.527,Main,2022.1.1,60.01748908975226,
negative,neutral,2,j,l,,,,,1,8,26,12,,,,,,,,,,,,,prac,2,2,2,neutral,negative,l,l,1,0.8514132000273094,130.0688168000197,131.07840070000384,131.06171250005718,None,130.0688168000197,None,130.0688168000197,None,130.0688168000197,None,131.91184233009116,None,131.91184233009116,None,131.91184233009116,None,,,,,,,,,,,,,031,2022-05-26_19h57.55.527,Main,2022.1.1,60.01748908975226,
neutral,negative,1,k,k,,,,,1,9,27,7,,,,,,,,,,,,,prac,1,1,1,negative,neutral,k,k,1,0.8783887999597937,131.91500010003801,132.92841230006889,132.91173310007434,None,131.91500010003801,None,131.91500010003801,None,131.91500010003801,None,133.79506313005695,None,133.79506313005695,None,133.79506313005695,None,,,,,,,,,,,,,031,2022-05-26_19h57.55.527,Main,2022.1.1,60.01748908975226,
negative,positive,1,j,l,,,,,1,10,28,6,,,,,,,,,,,,,prac,1,1,1,positive,negative,l,l,1,0.8488494000630453,133.81370950001292,134.81425200006925,134.79764130001422,None,133.81370950001292,None,133.81370950001292,None,133.81370950001292,None,135.64534852999495,None,135.64534852999495,None,135.64534852999495,None,,,,,,,,,,,,,031,2022-05-26_19h57.55.527,Main,2022.1.1,60.01748908975226,
neutral,neutral,2,k,k,,,,,1,11,29,10,,,,,,,,,,,,,prac,2,2,2,neutral,neutral,k,k,1,0.8152411000337452,135.65095790009946,136.66428150003776,136.64759030006826,None,135.65095790009946,None,135.65095790009946,None,135.65095790009946,None,137.46197323008673,None,137.46197323008673,None,137.46197323008673,None,,,,,,,,,,,,,031,2022-05-26_19h57.55.527,Main,2022.1.1,60.01748908975226,
positive,positive,1,l,j,,,,,1,12,30,2,,,,,,,,,,,,,prac,2,2,1,positive,positive,j,j,1,0.7819931999547407,137.46811470005196,138.48087800003123,138.44762700004503,None,137.46811470005196,None,137.46811470005196,None,137.46811470005196,None,139.24525243005482,None,139.24525243005482,None,139.24525243005482,None,,,,,,,,,,,,,031,2022-05-26_19h57.55.527,Main,2022.1.1,60.01748908975226,
positive,negative,1,l,j,,,,,1,13,31,5,,,,,,,,,,,,,prac,2,2,1,negative,positive,j,j,1,0.765301899984479,139.25093420001213,140.26412910001818,140.24751540005673,None,139.25093420001213,None,139.25093420001213,None,139.25093420001213,None,141.01188013000646,None,141.01188013000646,None,141.01188013000646,None,,,,,,,,,,,,,031,2022-05-26_19h57.55.527,Main,2022.1.1,60.01748908975226,
negative,negative,2,j,l,,,,,1,14,32,9,,,,,,,,,,,,,prac,2,2,2,negative,negative,l,l,1,0.9323469999944791,141.01729109999724,142.02817290008534,142.01150730007794,None,141.01729109999724,None,141.01729109999724,None,141.01729109999724,None,142.9448427300318,None,142.9448427300318,None,142.9448427300318,None,,,,,,,,,,,,,031,2022-05-26_19h57.55.527,Main,2022.1.1,60.01748908975226,
neutral,positive,2,k,k,,,,,1,15,33,13,,,,,,,,,,,,,prac,1,1,2,positive,neutral,k,k,1,0.7979431999847293,142.94679420010652,143.96150090009905,143.94483150006272,None,142.94679420010652,None,142.94679420010652,None,142.94679420010652,None,144.74486443001078,None,144.74486443001078,None,144.74486443001078,None,,,,,,,,,,,,,031,2022-05-26_19h57.55.527,Main,2022.1.1,60.01748908975226,
neutral,neutral,1,k,k,,,,,1,16,34,1,,,,,,,,,,,,,prac,2,2,1,neutral,neutral,k,k,1,0.9845332999248058,144.7502018000232,145.7640398000367,145.73077750008088,None,144.7502018000232,None,144.7502018000232,None,144.7502018000232,None,146.7307573300437,None,146.7307573300437,None,146.7307573300437,None,,,,,,,,,,,,,031,2022-05-26_19h57.55.527,Main,2022.1.1,60.01748908975226,
positive,positive,2,l,j,,,,,1,17,35,11,,,,,,,,,,,,,prac,2,2,2,positive,positive,j,j,1,1.015217800042592,146.73358520003967,147.74730110005476,147.7307060000021,None,146.73358520003967,None,146.73358520003967,None,146.73358520003967,None,148.74730573009,None,148.74730573009,None,148.74730573009,None,,,,,,,,,,,,,031,2022-05-26_19h57.55.527,Main,2022.1.1,60.01748908975226,
,,,,,,,,,,,,,,,,,,,,,,,,,,,,,,,,,,,,,,,,,,,,,,,,,,,148.7472628999967,None,None,,,,,,,,,,031,2022-05-26_19h57.55.527,Main,2022.1.1,60.01748908975226,
,,,,,,,,,,,,,,,,,,,,,,,,,,,,,,,,,,,,,,,,,,,,,,,,,,,,,,0.06111111,-0.032407407,1,0,0,0.011215830105356872,None,,,031,2022-05-26_19h57.55.527,Main,2022.1.1,60.01748908975226,
positive,negative,1,l,j,,,,,,,,,0,0,0,5,,,,,,,157.5305442000972,None,main,1,1,1,negative,positive,j,j,1,1.3221327000064775,159.54256890004035,160.5476365000941,160.53044310002588,None,159.54256890004035,None,159.54256890004035,None,159.54256890004035,None,161.86147893007146,None,161.86147893007146,None,161.86147893007146,None,,,,,,,,,,,,,031,2022-05-26_19h57.55.527,Main,2022.1.1,60.01748908975226,
neutral,neutral,1,k,k,,,,,,,,,0,1,1,1,,,,,,,,,main,2,2,1,neutral,neutral,k,k,1,0.7796825999394059,161.86771230003797,162.88031860010233,162.86373209999874,None,161.86771230003797,None,161.86771230003797,None,161.86771230003797,None,163.64440413002157,None,163.64440413002157,None,163.64440413002157,None,,,,,,,,,,,,,031,2022-05-26_19h57.55.527,Main,2022.1.1,60.01748908975226,
negative,positive,1,j,l,,,,,,,,,0,2,2,6,,,,,,,,,main,1,1,1,positive,negative,l,l,1,0.8648194000124931,163.64446550002322,164.64436890010256,164.64436890010256,None,163.64446550002322,None,163.64446550002322,None,163.64446550002322,None,165.51108943003928,None,165.51108943003928,None,165.51108943003928,None,,,,,,,,,,,,,031,2022-05-26_19h57.55.527,Main,2022.1.1,60.01748908975226,
neutral,neutral,2,k,k,,,,,,,,,0,3,3,10,,,,,,,,,main,1,1,2,neutral,neutral,k,k,1,0.8651979999849573,165.51622350001708,166.53025660000276,166.5136530000018,None,165.51622350001708,None,165.51622350001708,None,165.51622350001708,None,167.37800203004153,None,167.37800203004153,None,167.37800203004153,None,,,,,,,,,,,,,031,2022-05-26_19h57.55.527,Main,2022.1.1,60.01748908975226,
negative,neutral,1,j,l,,,,,,,,,0,4,4,3,,,,,,,,,main,2,2,1,neutral,negative,l,l,1,0.9985312999924645,167.38348350010347,168.39693879999686,168.38021070009563,None,167.38348350010347,None,167.38348350010347,None,167.38348350010347,None,169.3779498299933,None,169.3779498299933,None,169.3779498299933,None,,,,,,,,,,,,,031,2022-05-26_19h57.55.527,Main,2022.1.1,60.01748908975226,
positive,neutral,2,l,j,,,,,,,,,0,5,5,17,,,,,,,,,main,2,2,2,neutral,positive,j,j,1,0.8315118999453261,169.38371690001804,170.39687590009999,170.38021250010934,None,169.38371690001804,None,169.38371690001804,None,169.38371690001804,None,171.2112659300561,None,171.2112659300561,None,171.2112659300561,None,,,,,,,,,,,,,031,2022-05-26_19h57.55.527,Main,2022.1.1,60.01748908975226,
positive,neutral,1,l,j,,,,,,,,,0,6,6,8,,,,,,,,,main,1,1,1,neutral,positive,j,j,1,1.281561000039801,171.2163762000855,172.23007470008451,172.19688270008191,None,171.2163762000855,None,171.2163762000855,None,171.2163762000855,None,173.49456773007986,None,173.49456773007986,None,173.49456773007986,None,,,,,,,,,,,,,031,2022-05-26_19h57.55.527,Main,2022.1.1,60.01748908975226,
neutral,positive,1,k,k,,,,,,,,,0,7,7,4,,,,,,,,,main,2,2,1,positive,neutral,k,k,1,0.7974654000718147,173.4985227000434,174.510820500087,174.49416570004541,None,173.4985227000434,None,173.4985227000434,None,173.4985227000434,None,175.29414363004034,None,175.29414363004034,None,175.29414363004034,None,,,,,,,,,,,,,031,2022-05-26_19h57.55.527,Main,2022.1.1,60.01748908975226,
neutral,negative,1,k,k,,,,,,,,,0,8,8,7,,,,,,,,,main,2,2,1,negative,neutral,k,k,1,0.7321452000178397,175.29412800003774,176.29414930008352,176.29414930008352,None,175.29412800003774,None,175.29412800003774,None,175.29412800003774,None,177.027834930073,None,177.027834930073,None,177.027834930073,None,,,,,,,,,,,,,031,2022-05-26_19h57.55.527,Main,2022.1.1,60.01748908975226,
negative,neutral,2,j,l,,,,,,,,,0,9,9,12,,,,,,,,,main,1,1,2,neutral,negative,l,l,1,0.7815652000717819,177.03379730007146,178.04672400001436,178.03010570001788,None,177.03379730007146,None,177.03379730007146,None,177.03379730007146,None,178.8111234299955,None,178.8111234299955,None,178.8111234299955,None,,,,,,,,,,,,,031,2022-05-26_19h57.55.527,Main,2022.1.1,60.01748908975226,
negative,negative,2,j,l,,,,,,,,,0,10,10,9,,,,,,,,,main,2,2,2,negative,negative,l,l,1,0.8152623999631032,178.81701900006738,179.8299648000393,179.8133665000787,None,178.81701900006738,None,178.81701900006738,None,178.81701900006738,None,180.62782993001164,None,180.62782993001164,None,180.62782993001164,None,,,,,,,,,,,,,031,2022-05-26_19h57.55.527,Main,2022.1.1,60.01748908975226,
positive,negative,2,l,j,,,,,,,,,0,11,11,14,,,,,,,,,main,1,1,2,negative,positive,j,j,1,0.8813069000607356,180.63346410007216,181.64660490001552,181.62998990004417,None,180.63346410007216,None,180.63346410007216,None,180.63346410007216,None,182.51106053005205,None,182.51106053005205,None,182.51106053005205,None,,,,,,,,,,,,,031,2022-05-26_19h57.55.527,Main,2022.1.1,60.01748908975226,
negative,negative,1,j,l,,,,,,,,,0,12,12,0,,,,,,,,,main,1,1,1,negative,negative,l,l,1,0.8539689999306574,182.51677780004684,183.52981890004594,183.51328850002028,None,182.51677780004684,None,182.51677780004684,None,182.51677780004684,None,184.36678213005652,None,184.36678213005652,None,184.36678213005652,None,,,,,,,,,,,,,031,2022-05-26_19h57.55.527,Main,2022.1.1,60.01748908975226,
neutral,positive,2,k,k,,,,,,,,,0,13,13,13,,,,,,,,,main,2,2,2,positive,neutral,k,k,1,0.7593066000845283,184.3769275000086,185.37757220002823,185.3608588000061,None,184.3769275000086,None,184.3769275000086,None,184.3769275000086,None,186.12757473004748,None,186.12757473004748,None,186.12757473004748,None,,,,,,,,,,,,,031,2022-05-26_19h57.55.527,Main,2022.1.1,60.01748908975226,
negative,positive,2,j,l,,,,,,,,,0,14,14,15,,,,,,,,,main,1,1,2,positive,negative,l,l,1,0.78097429999616,186.13175679999404,187.1441468000412,187.12971100001596,None,186.13175679999404,None,186.13175679999404,None,186.13175679999404,None,187.91091903004562,None,187.91091903004562,None,187.91091903004562,None,,,,,,,,,,,,,031,2022-05-26_19h57.55.527,Main,2022.1.1,60.01748908975226,
positive,positive,2,l,j,,,,,,,,,0,15,15,11,,,,,,,,,main,1,1,2,positive,positive,j,l,0,0.7482889000093564,187.9162966000149,188.92964500002563,188.9107997000683,None,187.9162966000149,None,187.9162966000149,None,187.9162966000149,None,189.6630199000938,None,189.6630199000938,None,189.6630199000938,None,,,,,,,,,,,,,031,2022-05-26_19h57.55.527,Main,2022.1.1,60.01748908975226,
positive,positive,1,l,j,,,,,,,,,0,16,16,2,,,,,,,,,main,1,1,1,positive,positive,j,j,1,0.9872349000070244,190.66122730006464,191.6607726000948,191.64411840005778,None,190.66122730006464,None,190.66122730006464,None,190.66122730006464,None,192.64684603010537,None,192.64684603010537,None,192.64684603010537,None,,,,,,,,,,,,,031,2022-05-26_19h57.55.527,Main,2022.1.1,60.01748908975226,
neutral,negative,2,k,k,,,,,,,,,0,17,17,16,,,,,,,,,main,2,2,2,negative,neutral,k,k,1,0.8618284999392927,192.65033960004803,193.6629008000018,193.64633990009315,None,192.65033960004803,None,192.65033960004803,None,192.65033960004803,None,194.5107214300311,None,194.5107214300311,None,194.5107214300311,None,,,,,,,,,,,,,031,2022-05-26_19h57.55.527,Main,2022.1.1,60.01748908975226,
neutral,positive,1,k,k,,,,,,,,,1,0,18,4,,,,,,,,,main,2,2,1,positive,neutral,k,k,1,0.8815016000298783,194.51397040009033,195.52703029999975,195.51035720005166,None,194.51397040009033,None,194.51397040009033,None,194.51397040009033,None,196.39369792999932,None,196.39369792999932,None,196.39369792999932,None,,,,,,,,,,,,,031,2022-05-26_19h57.55.527,Main,2022.1.1,60.01748908975226,
positive,neutral,2,l,j,,,,,,,,,1,1,19,17,,,,,,,,,main,1,1,2,neutral,positive,j,j,1,0.8841778999194503,196.39367860008497,197.39371580001898,197.39371580001898,None,196.39367860008497,None,196.39367860008497,None,196.39367860008497,None,198.2795505300979,None,198.2795505300979,None,198.2795505300979,None,,,,,,,,,,,,,031,2022-05-26_19h57.55.527,Main,2022.1.1,60.01748908975226,
negative,positive,2,j,l,,,,,,,,,1,2,20,15,,,,,,,,,main,1,1,2,positive,negative,l,l,1,0.9129610999953002,198.28253540000878,199.29617380001582,199.27956789999735,None,198.28253540000878,None,198.28253540000878,None,198.28253540000878,None,200.1939959301031,None,200.1939959301031,None,200.1939959301031,None,,,,,,,,,,,,,031,2022-05-26_19h57.55.527,Main,2022.1.1,60.01748908975226,
positive,positive,1,l,j,,,,,,,,,1,3,21,2,,,,,,,,,main,2,2,1,positive,positive,j,j,1,0.8310811999253929,200.1998525999952,201.21293959999457,201.19397710007615,None,200.1998525999952,None,200.1998525999952,None,200.1998525999952,None,202.02730263009434,None,202.02730263009434,None,202.02730263009434,None,,,,,,,,,,,,,031,2022-05-26_19h57.55.527,Main,2022.1.1,60.01748908975226,
positive,positive,2,l,j,,,,,,,,,1,4,22,11,,,,,,,,,main,1,1,2,positive,positive,j,j,1,1.0483495000516996,202.03311370010488,203.0462014999939,203.02954050002154,None,202.03311370010488,None,202.03311370010488,None,202.03311370010488,None,204.07726023005088,None,204.07726023005088,None,204.07726023005088,None,,,,,,,,,,,,,031,2022-05-26_19h57.55.527,Main,2022.1.1,60.01748908975226,
neutral,negative,2,k,k,,,,,,,,,1,5,23,16,,,,,,,,,main,2,2,2,negative,neutral,k,j,0,0.7314079999923706,204.0828002000926,205.0961052000057,205.07946710009128,None,204.0828002000926,None,204.0828002000926,None,204.0828002000926,None,205.8101875000866,None,205.8101875000866,None,205.8101875000866,None,,,,,,,,,,,,,031,2022-05-26_19h57.55.527,Main,2022.1.1,60.01748908975226,
negative,positive,1,j,l,,,,,,,,,1,6,24,6,,,,,,,,,main,2,2,1,positive,negative,l,l,1,0.8886848000111058,206.81333920010366,207.82685190008488,207.81018500006758,None,206.81333920010366,None,206.81333920010366,None,206.81333920010366,None,208.69610343008534,None,208.69610343008534,None,208.69610343008534,None,,,,,,,,,,,,,031,2022-05-26_19h57.55.527,Main,2022.1.1,60.01748908975226,
negative,negative,2,j,l,,,,,,,,,1,7,25,9,,,,,,,,,main,2,2,2,negative,negative,l,l,1,0.8978882000083104,208.7001145000104,209.71267580008134,209.69609199999832,None,208.7001145000104,None,208.7001145000104,None,208.7001145000104,None,210.59606783007038,None,210.59606783007038,None,210.59606783007038,None,,,,,,,,,,,,,031,2022-05-26_19h57.55.527,Main,2022.1.1,60.01748908975226,
positive,negative,2,l,j,,,,,,,,,1,8,26,14,,,,,,,,,main,1,1,2,negative,positive,j,j,1,0.879276999970898,210.60008150001522,211.61106570006814,211.59603620006237,None,210.60008150001522,None,210.60008150001522,None,210.60008150001522,None,212.47707163003506,None,212.47707163003506,None,212.47707163003506,None,,,,,,,,,,,,,031,2022-05-26_19h57.55.527,Main,2022.1.1,60.01748908975226,
negative,neutral,2,j,l,,,,,,,,,1,9,27,12,,,,,,,,,main,1,1,2,neutral,negative,l,l,1,0.8828340000472963,212.48270010005217,213.49589780007955,213.47931620001327,None,212.48270010005217,None,212.48270010005217,None,212.48270010005217,None,214.3603730300325,None,214.3603730300325,None,214.3603730300325,None,,,,,,,,,,,,,031,2022-05-26_19h57.55.527,Main,2022.1.1,60.01748908975226,
positive,negative,1,l,j,,,,,,,,,1,10,28,5,,,,,,,,,main,2,2,1,negative,positive,j,j,1,0.9468598000239581,214.36671090009622,215.37915380008053,215.36253360006958,None,214.36671090009622,None,214.36671090009622,None,214.36671090009622,None,216.30996913005364,None,216.30996913005364,None,216.30996913005364,None,,,,,,,,,,,,,031,2022-05-26_19h57.55.527,Main,2022.1.1,60.01748908975226,
negative,neutral,1,j,l,,,,,,,,,1,11,29,3,,,,,,,,,main,1,1,1,neutral,negative,l,l,1,0.8651657999726012,216.31006820010953,217.30993430002127,217.30993430002127,None,216.31006820010953,None,216.31006820010953,None,216.31006820010953,None,218.17666443003108,None,218.17666443003108,None,218.17666443003108,None,,,,,,,,,,,,,031,2022-05-26_19h57.55.527,Main,2022.1.1,60.01748908975226,
positive,neutral,1,l,j,,,,,,,,,1,12,30,8,,,,,,,,,main,2,2,1,neutral,positive,j,j,1,1.0654592999489978,218.18026900000405,219.19579880009405,219.17920590005815,None,218.18026900000405,None,218.18026900000405,None,218.18026900000405,None,220.2435870300629,None,220.2435870300629,None,220.2435870300629,None,,,,,,,,,,,,,031,2022-05-26_19h57.55.527,Main,2022.1.1,60.01748908975226,
neutral,neutral,1,k,k,,,,,,,,,1,13,31,1,,,,,,,,,main,1,1,1,neutral,neutral,k,k,1,0.8480157000012696,220.24934370000847,221.26246009999886,221.24583460006397,None,220.24934370000847,None,220.24934370000847,None,220.24934370000847,None,222.0935475300881,None,222.0935475300881,None,222.0935475300881,None,,,,,,,,,,,,,031,2022-05-26_19h57.55.527,Main,2022.1.1,60.01748908975226,
negative,negative,1,j,l,,,,,,,,,1,14,32,0,,,,,,,,,main,2,2,1,negative,negative,l,l,1,1.081939100055024,222.09924320003483,223.11244719999377,223.09586060000584,None,222.09924320003483,None,222.09924320003483,None,222.09924320003483,None,224.17684332999633,None,224.17684332999633,None,224.17684332999633,None,,,,,,,,,,,,,031,2022-05-26_19h57.55.527,Main,2022.1.1,60.01748908975226,
neutral,positive,2,k,k,,,,,,,,,1,15,33,13,,,,,,,,,main,1,1,2,positive,neutral,k,k,1,0.9315756999421865,224.1826538000023,225.19568620005157,225.17914440005552,None,224.1826538000023,None,224.1826538000023,None,224.1826538000023,None,226.11011123001808,None,226.11011123001808,None,226.11011123001808,None,,,,,,,,,,,,,031,2022-05-26_19h57.55.527,Main,2022.1.1,60.01748908975226,
neutral,neutral,2,k,k,,,,,,,,,1,16,34,10,,,,,,,,,main,1,1,2,neutral,neutral,k,k,1,0.8981831000419334,226.11561660002917,227.12639800005127,227.10972599999513,None,226.11561660002917,None,226.11561660002917,None,226.11561660002917,None,228.009731330059,None,228.009731330059,None,228.009731330059,None,,,,,,,,,,,,,031,2022-05-26_19h57.55.527,Main,2022.1.1,60.01748908975226,
neutral,negative,1,k,k,,,,,,,,,1,17,35,7,,,,,,,,,main,1,1,1,negative,neutral,k,k,1,1.1984598999843001,228.00971710006706,229.00974760006648,229.00974760006648,None,228.00971710006706,None,228.00971710006706,None,228.00971710006706,None,230.21005443002795,None,230.21005443002795,None,230.21005443002795,None,,,,,,,,,,,,,031,2022-05-26_19h57.55.527,Main,2022.1.1,60.01748908975226,
negative,neutral,1,j,l,,,,,,,,,2,0,36,3,,,,,,,,,main,1,1,1,neutral,negative,l,l,1,0.9143621000694111,230.21403390006162,231.2289076000452,231.21228690003045,None,230.21403390006162,None,230.21403390006162,None,230.21403390006162,None,232.12667703008046,None,232.12667703008046,None,232.12667703008046,None,,,,,,,,,,,,,031,2022-05-26_19h57.55.527,Main,2022.1.1,60.01748908975226,
neutral,negative,1,k,k,,,,,,,,,2,1,37,7,,,,,,,,,main,2,2,1,negative,neutral,k,k,1,0.948460099985823,232.12999460007995,233.14552770007867,233.1289875000948,None,232.12999460007995,None,232.12999460007995,None,232.12999460007995,None,234.0767611300922,None,234.0767611300922,None,234.0767611300922,None,,,,,,,,,,,,,031,2022-05-26_19h57.55.527,Main,2022.1.1,60.01748908975226,
positive,negative,1,l,j,,,,,,,,,2,2,38,5,,,,,,,,,main,1,1,1,negative,positive,j,j,1,0.8979996000416577,234.0824835000094,235.09553280007094,235.0789320000913,None,234.0824835000094,None,234.0824835000094,None,234.0824835000094,None,235.97659252999583,None,235.97659252999583,None,235.97659252999583,None,,,,,,,,,,,,,031,2022-05-26_19h57.55.527,Main,2022.1.1,60.01748908975226,
neutral,neutral,1,k,k,,,,,,,,,2,3,39,1,,,,,,,,,main,2,2,1,neutral,neutral,k,k,1,1.064760799985379,235.98216360004153,236.98586290003732,236.97584940004162,None,235.98216360004153,None,235.98216360004153,None,235.98216360004153,None,238.0428514300962,None,238.0428514300962,None,238.0428514300962,None,,,,,,,,,,,,,031,2022-05-26_19h57.55.527,Main,2022.1.1,60.01748908975226,
positive,positive,2,l,j,,,,,,,,,2,4,40,11,,,,,,,,,main,2,2,2,positive,positive,j,j,1,0.9487306999508291,238.04282940004487,239.04287600005046,239.04287600005046,None,238.04282940004487,None,238.04282940004487,None,238.04282940004487,None,239.99318613003706,None,239.99318613003706,None,239.99318613003706,None,,,,,,,,,,,,,031,2022-05-26_19h57.55.527,Main,2022.1.1,60.01748908975226,
negative,positive,2,j,l,,,,,,,,,2,5,41,15,,,,,,,,,main,2,2,2,positive,negative,l,l,1,0.9318974999478087,239.99916140001733,241.01201300008688,240.99549000000115,None,239.99916140001733,None,239.99916140001733,None,239.99916140001733,None,241.92646523002767,None,241.92646523002767,None,241.92646523002767,None,,,,,,,,,,,,,031,2022-05-26_19h57.55.527,Main,2022.1.1,60.01748908975226,
positive,neutral,2,l,j,,,,,,,,,2,6,42,17,,,,,,,,,main,1,1,2,neutral,positive,j,j,1,1.014143000007607,241.9334776001051,242.94531080010347,242.92871610005386,None,241.9334776001051,None,241.9334776001051,None,241.9334776001051,None,243.94309603000292,None,243.94309603000292,None,243.94309603000292,None,,,,,,,,,,,,,031,2022-05-26_19h57.55.527,Main,2022.1.1,60.01748908975226,
neutral,positive,2,k,k,,,,,,,,,2,7,43,13,,,,,,,,,main,1,1,2,positive,neutral,k,k,1,0.948072399944067,243.9490609000204,244.96202410000842,244.9453348000534,None,243.9490609000204,None,243.9490609000204,None,243.9490609000204,None,245.8930369300884,None,245.8930369300884,None,245.8930369300884,None,,,,,,,,,,,,,031,2022-05-26_19h57.55.527,Main,2022.1.1,60.01748908975226,
negative,negative,1,j,l,,,,,,,,,2,8,44,0,,,,,,,,,main,1,1,1,negative,negative,l,l,1,0.9174250999931246,245.89660870004445,246.91189089999534,246.8953054000158,None,245.89660870004445,None,245.89660870004445,None,245.89660870004445,None,247.81226813009707,None,247.81226813009707,None,247.81226813009707,None,,,,,,,,,,,,,031,2022-05-26_19h57.55.527,Main,2022.1.1,60.01748908975226,
negative,positive,1,j,l,,,,,,,,,2,9,45,6,,,,,,,,,main,2,2,1,positive,negative,l,l,1,0.9126479000551626,247.82621530001052,248.8261939000804,248.81178810005076,None,247.82621530001052,None,247.82621530001052,None,247.82621530001052,None,249.7262366300798,None,249.7262366300798,None,249.7262366300798,None,,,,,,,,,,,,,031,2022-05-26_19h57.55.527,Main,2022.1.1,60.01748908975226,
neutral,negative,2,k,k,,,,,,,,,2,10,46,16,,,,,,,,,main,2,2,2,negative,neutral,k,k,1,1.2044729000190273,249.72941660007928,250.74504830001388,250.72836800001096,None,249.72941660007928,None,249.72941660007928,None,249.72941660007928,None,251.93204213000135,None,251.93204213000135,None,251.93204213000135,None,,,,,,,,,,,,,031,2022-05-26_19h57.55.527,Main,2022.1.1,60.01748908975226,
negative,neutral,2,j,l,,,,,,,,,2,11,47,12,,,,,,,,,main,1,1,2,neutral,negative,l,l,1,0.8420592999318615,251.93552830000408,252.9428201999981,252.9261476000538,None,251.93552830000408,None,251.93552830000408,None,251.93552830000408,None,253.77612933000782,None,253.77612933000782,None,253.77612933000782,None,,,,,,,,,,,,,031,2022-05-26_19h57.55.527,Main,2022.1.1,60.01748908975226,
positive,neutral,1,l,j,,,,,,,,,2,12,48,8,,,,,,,,,main,2,2,1,neutral,positive,j,j,1,0.9816078000003472,253.78496060008183,254.7927750000963,254.77612290007528,None,253.78496060008183,None,253.78496060008183,None,253.78496060008183,None,255.75943202999187,None,255.75943202999187,None,255.75943202999187,None,,,,,,,,,,,,,031,2022-05-26_19h57.55.527,Main,2022.1.1,60.01748908975226,
positive,negative,2,l,j,,,,,,,,,2,13,49,14,,,,,,,,,main,1,1,2,negative,positive,j,j,1,1.1151597000425681,255.76546120003331,256.77833450003527,256.75942970009055,None,255.76546120003331,None,255.76546120003331,None,255.76546120003331,None,257.87606912999183,None,257.87606912999183,None,257.87606912999183,None,,,,,,,,,,,,,031,2022-05-26_19h57.55.527,Main,2022.1.1,60.01748908975226,
neutral,neutral,2,k,k,,,,,,,,,2,14,50,10,,,,,,,,,main,1,1,2,neutral,neutral,k,k,1,0.8812476000748575,257.87926450010855,258.89240290003363,258.8757301000878,None,257.87926450010855,None,257.87926450010855,None,257.87926450010855,None,259.75904253005285,None,259.75904253005285,None,259.75904253005285,None,,,,,,,,,,,,,031,2022-05-26_19h57.55.527,Main,2022.1.1,60.01748908975226,
neutral,positive,1,k,k,,,,,,,,,2,15,51,4,,,,,,,,,main,1,1,1,positive,neutral,k,k,1,0.9677920000394806,259.76040720008314,260.7757207000395,260.7590651001083,None,259.76040720008314,None,259.76040720008314,None,259.76040720008314,None,261.7283308300772,None,261.7283308300772,None,261.7283308300772,None,,,,,,,,,,,,,031,2022-05-26_19h57.55.527,Main,2022.1.1,60.01748908975226,
negative,negative,2,j,l,,,,,,,,,2,16,52,9,,,,,,,,,main,2,2,2,negative,negative,l,l,1,0.8860178999602795,261.7317432001,262.74486160010565,262.7282864000881,None,261.7317432001,None,261.7317432001,None,261.7317432001,None,263.6147357300739,None,263.6147357300739,None,263.6147357300739,None,,,,,,,,,,,,,031,2022-05-26_19h57.55.527,Main,2022.1.1,60.01748908975226,
positive,positive,1,l,j,,,,,,,,,2,17,53,2,,,,,,,,,main,2,2,1,positive,positive,j,j,1,0.9919568999903277,263.6190685000038,264.62810930004343,264.61159890005365,None,263.6190685000038,None,263.6190685000038,None,263.6190685000038,None,265.60930963008434,None,265.60930963008434,None,265.60930963008434,None,,,,,,,,,,,,,031,2022-05-26_19h57.55.527,Main,2022.1.1,60.01748908975226,
neutral,positive,1,k,k,,,,,,,,,3,0,54,4,,,,,,,,,main,1,1,1,positive,neutral,k,k,1,0.9479717999929562,265.61525600007735,266.6281283000717,266.6116075000027,None,265.61525600007735,None,265.61525600007735,None,265.61525600007735,None,267.55897203002826,None,267.55897203002826,None,267.55897203002826,None,,,,,,,,,,,,,031,2022-05-26_19h57.55.527,Main,2022.1.1,60.01748908975226,
negative,negative,1,j,l,,,,,,,,,3,1,55,0,,,,,,,,,main,2,2,1,negative,negative,l,l,1,0.9046162000158802,267.56493840005714,268.5781770000467,268.5615648000967,None,267.56493840005714,None,267.56493840005714,None,267.56493840005714,None,269.46446453008105,None,269.46446453008105,None,269.46446453008105,None,,,,,,,,,,,,,031,2022-05-26_19h57.55.527,Main,2022.1.1,60.01748908975226,
neutral,neutral,2,k,k,,,,,,,,,3,2,56,10,,,,,,,,,main,2,2,2,neutral,neutral,k,k,1,1.075665200012736,269.4753095000051,270.47549130010884,270.45882900001016,None,269.4753095000051,None,269.4753095000051,None,269.4753095000051,None,271.54221413001653,None,271.54221413001653,None,271.54221413001653,None,,,,,,,,,,,,,031,2022-05-26_19h57.55.527,Main,2022.1.1,60.01748908975226,
negative,negative,2,j,l,,,,,,,,,3,3,57,9,,,,,,,,,main,1,1,2,negative,negative,l,l,1,0.8823951999656856,271.5481078000739,272.5614164000144,272.54476880002767,None,271.5481078000739,None,271.5481078000739,None,271.5481078000739,None,273.42581653009404,None,273.42581653009404,None,273.42581653009404,None,,,,,,,,,,,,,031,2022-05-26_19h57.55.527,Main,2022.1.1,60.01748908975226,
positive,negative,1,l,j,,,,,,,,,3,4,58,5,,,,,,,,,main,2,2,1,negative,positive,j,j,1,1.1475993000203744,273.42983120004646,274.44465650001075,274.4280576000456,None,273.42983120004646,None,273.42983120004646,None,273.42983120004646,None,275.5757668300881,None,275.5757668300881,None,275.5757668300881,None,,,,,,,,,,,,,031,2022-05-26_19h57.55.527,Main,2022.1.1,60.01748908975226,
positive,neutral,1,l,j,,,,,,,,,3,5,59,8,,,,,,,,,main,2,2,1,neutral,positive,j,j,1,0.748159300070256,275.5812077000737,276.5946385000134,276.5780833000317,None,275.5812077000737,None,275.5812077000737,None,275.5812077000737,None,277.32571473004066,None,277.32571473004066,None,277.32571473004066,None,,,,,,,,,,,,,031,2022-05-26_19h57.55.527,Main,2022.1.1,60.01748908975226,
neutral,neutral,1,k,k,,,,,,,,,3,6,60,1,,,,,,,,,main,2,2,1,neutral,neutral,k,k,1,0.9317821000004187,277.3334906999953,278.3447034000419,278.3279843000928,None,277.3334906999953,None,277.3334906999953,None,277.3334906999953,None,279.2589963300503,None,279.2589963300503,None,279.2589963300503,None,,,,,,,,,,,,,031,2022-05-26_19h57.55.527,Main,2022.1.1,60.01748908975226,
positive,neutral,2,l,j,,,,,,,,,3,7,61,17,,,,,,,,,main,2,2,2,neutral,positive,j,j,1,0.9479823999572545,279.2648465000093,280.27528470009565,280.2586184000829,None,279.2648465000093,None,279.2648465000093,None,279.2648465000093,None,281.2086110300967,None,281.2086110300967,None,281.2086110300967,None,,,,,,,,,,,,,031,2022-05-26_19h57.55.527,Main,2022.1.1,60.01748908975226,
positive,positive,2,l,j,,,,,,,,,3,8,62,11,,,,,,,,,main,2,2,2,positive,positive,j,j,1,0.7152571000624448,281.2086196000455,282.2086307000136,282.2086307000136,None,281.2086196000455,None,281.2086196000455,None,281.2086196000455,None,282.925590530003,None,282.925590530003,None,282.925590530003,None,,,,,,,,,,,,,031,2022-05-26_19h57.55.527,Main,2022.1.1,60.01748908975226,
positive,negative,2,l,j,,,,,,,,,3,9,63,14,,,,,,,,,main,2,2,2,negative,positive,j,j,1,0.9316607000073418,282.92901030008215,283.94440190005116,283.92785249999724,None,282.92901030008215,None,282.92901030008215,None,282.92901030008215,None,284.8588632300613,None,284.8588632300613,None,284.8588632300613,None,,,,,,,,,,,,,031,2022-05-26_19h57.55.527,Main,2022.1.1,60.01748908975226,
negative,neutral,2,j,l,,,,,,,,,3,10,64,12,,,,,,,,,main,1,1,2,neutral,negative,l,l,1,0.9983951000031084,284.8622885000659,285.87772740004584,285.8611008001026,None,284.8622885000659,None,284.8622885000659,None,284.8622885000659,None,286.858844230033,None,286.858844230033,None,286.858844230033,None,,,,,,,,,,,,,031,2022-05-26_19h57.55.527,Main,2022.1.1,60.01748908975226,
negative,neutral,1,j,l,,,,,,,,,3,11,65,3,,,,,,,,,main,1,1,1,neutral,negative,l,l,1,1.0316747999750078,286.86444980010856,287.8776426000986,287.8610766000347,None,286.86444980010856,None,286.86444980010856,None,286.86444980010856,None,288.89214893007886,None,288.89214893007886,None,288.89214893007886,None,,,,,,,,,,,,,031,2022-05-26_19h57.55.527,Main,2022.1.1,60.01748908975226,
neutral,positive,2,k,k,,,,,,,,,3,12,66,13,,,,,,,,,main,2,2,2,positive,neutral,k,k,1,0.8979695000452921,288.8979984000325,289.9109855000861,289.89432620001025,None,288.8979984000325,None,288.8979984000325,None,288.8979984000325,None,290.7917081300053,None,290.7917081300053,None,290.7917081300053,None,,,,,,,,,,,,,031,2022-05-26_19h57.55.527,Main,2022.1.1,60.01748908975226,
negative,positive,1,j,l,,,,,,,,,3,13,67,6,,,,,,,,,main,2,2,1,positive,negative,l,l,1,0.8651496999664232,290.79171200003475,291.79167910001706,291.79167910001706,None,290.79171200003475,None,290.79171200003475,None,290.79171200003475,None,292.6584379300126,None,292.6584379300126,None,292.6584379300126,None,,,,,,,,,,,,,031,2022-05-26_19h57.55.527,Main,2022.1.1,60.01748908975226,
neutral,negative,2,k,k,,,,,,,,,3,14,68,16,,,,,,,,,main,1,1,2,negative,neutral,k,k,1,0.8315725999418646,292.6637405999936,293.67758830008097,293.6443504000781,None,292.6637405999936,None,292.6637405999936,None,292.6637405999936,None,294.4918272300507,None,294.4918272300507,None,294.4918272300507,None,,,,,,,,,,,,,031,2022-05-26_19h57.55.527,Main,2022.1.1,60.01748908975226,
negative,positive,2,j,l,,,,,,,,,3,15,69,15,,,,,,,,,main,2,2,2,positive,negative,l,l,1,0.8155280000064522,294.49801620002836,295.5109700000612,295.49427760008257,None,294.49801620002836,None,294.49801620002836,None,294.49801620002836,None,296.30867063006156,None,296.30867063006156,None,296.30867063006156,None,,,,,,,,,,,,,031,2022-05-26_19h57.55.527,Main,2022.1.1,60.01748908975226,
neutral,negative,1,k,k,,,,,,,,,3,16,70,7,,,,,,,,,main,2,2,1,negative,neutral,k,k,1,0.898185099940747,296.3146030000644,297.32752050005365,297.3109156000428,None,296.3146030000644,None,296.3146030000644,None,296.3146030000644,None,298.20862812999405,None,298.20862812999405,None,298.20862812999405,None,,,,,,,,,,,,,031,2022-05-26_19h57.55.527,Main,2022.1.1,60.01748908975226,
positive,positive,1,l,j,,,,,,,,,3,17,71,2,,,,,,,,,main,2,2,1,positive,positive,j,j,1,1.0009877000702545,298.21491090010386,299.2275296000298,299.2108739000978,None,298.21491090010386,None,298.21491090010386,None,298.21491090010386,None,300.21078053008534,None,300.21078053008534,None,300.21078053008534,None,,,,,,,,,,,,,031,2022-05-26_19h57.55.527,Main,2022.1.1,60.01748908975226,
neutral,negative,1,k,k,,,,,,,,,4,0,72,7,,,,,,,,,main,1,1,1,negative,neutral,k,k,1,0.8452159999869764,300.21468500001356,301.2248552000383,301.2081828000955,None,300.21468500001356,None,300.21468500001356,None,300.21468500001356,None,302.0581869301037,None,302.0581869301037,None,302.0581869301037,None,,,,,,,,,,,,,031,2022-05-26_19h57.55.527,Main,2022.1.1,60.01748908975226,
neutral,positive,1,k,k,,,,,,,,,4,1,73,4,,,,,,,,,main,1,1,1,positive,neutral,k,k,1,0.8165138999465853,302.0581697000889,303.0581992000807,303.0581992000807,None,302.0581697000889,None,302.0581697000889,None,302.0581697000889,None,303.8752369300579,None,303.8752369300579,None,303.8752369300579,None,,,,,,,,,,,,,031,2022-05-26_19h57.55.527,Main,2022.1.1,60.01748908975226,
negative,negative,1,j,l,,,,,,,,,4,2,74,0,,,,,,,,,main,1,1,1,negative,negative,l,l,1,0.7975655000191182,303.8816496001091,304.89398500008974,304.8773488000734,None,303.8816496001091,None,303.8816496001091,None,303.8816496001091,None,305.6751315300004,None,305.6751315300004,None,305.6751315300004,None,,,,,,,,,,,,,031,2022-05-26_19h57.55.527,Main,2022.1.1,60.01748908975226,
negative,positive,2,j,l,,,,,,,,,4,3,75,15,,,,,,,,,main,1,1,2,positive,negative,l,l,1,0.9178133000386879,305.681293200003,306.6940287000034,306.6773587000789,None,305.681293200003,None,305.681293200003,None,305.681293200003,None,307.5940283300239,None,307.5940283300239,None,307.5940283300239,None,,,,,,,,,,,,,031,2022-05-26_19h57.55.527,Main,2022.1.1,60.01748908975226,
positive,negative,2,l,j,,,,,,,,,4,4,76,14,,,,,,,,,main,2,2,2,negative,positive,j,j,1,1.028567099943757,307.5979769000551,308.61057040002197,308.5940131000243,None,307.5979769000551,None,307.5979769000551,None,307.5979769000551,None,309.6251396300155,None,309.6251396300155,None,309.6251396300155,None,,,,,,,,,,,,,031,2022-05-26_19h57.55.527,Main,2022.1.1,60.01748908975226,
negative,neutral,2,j,l,,,,,,,,,4,5,77,12,,,,,,,,,main,1,1,2,neutral,negative,l,l,1,0.914814900024794,309.6309596000938,310.6439127000049,310.627335300087,None,309.6309596000938,None,309.6309596000938,None,309.6309596000938,None,311.5416584300925,None,311.5416584300925,None,311.5416584300925,None,,,,,,,,,,,,,031,2022-05-26_19h57.55.527,Main,2022.1.1,60.01748908975226,
neutral,neutral,1,k,k,,,,,,,,,4,6,78,1,,,,,,,,,main,1,1,1,neutral,neutral,k,k,1,0.9804316000081599,311.56056640006136,312.5746085999999,312.54128850006964,None,311.56056640006136,None,311.56056640006136,None,311.56056640006136,None,313.52460393003423,None,313.52460393003423,None,313.52460393003423,None,,,,,,,,,,,,,031,2022-05-26_19h57.55.527,Main,2022.1.1,60.01748908975226,
positive,positive,2,l,j,,,,,,,,,4,7,79,11,,,,,,,,,main,2,2,2,positive,positive,j,j,1,1.0837482999777421,313.5252197000664,314.5272590999957,314.5272590999957,None,313.5252197000664,None,313.5252197000664,None,313.5252197000664,None,315.6105177300866,None,315.6105177300866,None,315.6105177300866,None,,,,,,,,,,,,,031,2022-05-26_19h57.55.527,Main,2022.1.1,60.01748908975226,
neutral,negative,2,k,k,,,,,,,,,4,8,80,16,,,,,,,,,main,1,1,2,negative,neutral,k,k,1,0.8624907999765128,315.61349250003695,316.6271642000647,316.6105388000142,None,315.61349250003695,None,315.61349250003695,None,315.61349250003695,None,317.4748910300783,None,317.4748910300783,None,317.4748910300783,None,,,,,,,,,,,,,031,2022-05-26_19h57.55.527,Main,2022.1.1,60.01748908975226,
positive,neutral,2,l,j,,,,,,,,,4,9,81,17,,,,,,,,,main,1,1,2,neutral,positive,j,j,1,0.8985310000134632,317.47887280001305,318.4938058000989,318.46054640004877,None,317.47887280001305,None,317.47887280001305,None,317.47887280001305,None,319.37483313000996,None,319.37483313000996,None,319.37483313000996,None,,,,,,,,,,,,,031,2022-05-26_19h57.55.527,Main,2022.1.1,60.01748908975226,
positive,neutral,1,l,j,,,,,,,,,4,10,82,8,,,,,,,,,main,1,1,1,neutral,positive,j,j,1,1.115982500021346,319.38042590010446,320.39366520009935,320.3770556000527,None,319.38042590010446,None,319.38042590010446,None,319.38042590010446,None,321.4914464300615,None,321.4914464300615,None,321.4914464300615,None,,,,,,,,,,,,,031,2022-05-26_19h57.55.527,Main,2022.1.1,60.01748908975226,
positive,positive,1,l,j,,,,,,,,,4,11,83,2,,,,,,,,,main,2,2,1,positive,positive,j,j,1,0.8470355999888852,321.49596870003734,322.50773270009086,322.4910773000447,None,321.49596870003734,None,321.49596870003734,None,321.49596870003734,None,323.3410666300566,None,323.3410666300566,None,323.3410666300566,None,,,,,,,,,,,,,031,2022-05-26_19h57.55.527,Main,2022.1.1,60.01748908975226,
neutral,neutral,2,k,k,,,,,,,,,4,12,84,10,,,,,,,,,main,1,1,2,neutral,neutral,k,k,1,0.9152333000674844,323.34142060007434,324.3410852000816,324.3410852000816,None,323.34142060007434,None,323.34142060007434,None,323.34142060007434,None,325.2581167301047,None,325.2581167301047,None,325.2581167301047,None,,,,,,,,,,,,,031,2022-05-26_19h57.55.527,Main,2022.1.1,60.01748908975226,
positive,negative,1,l,j,,,,,,,,,4,13,85,5,,,,,,,,,main,2,2,1,negative,positive,j,j,1,1.0146198999136686,325.26421430008486,326.27690360008273,326.26030800002627,None,325.26421430008486,None,325.26421430008486,None,325.26421430008486,None,327.27434203001906,None,327.27434203001906,None,327.27434203001906,None,,,,,,,,,,,,,031,2022-05-26_19h57.55.527,Main,2022.1.1,60.01748908975226,
negative,neutral,1,j,l,,,,,,,,,4,14,86,3,,,,,,,,,main,2,2,1,neutral,negative,l,l,1,0.9155783000169322,327.2778045000741,328.27692730003037,328.27692730003037,None,327.2778045000741,None,327.2778045000741,None,327.2778045000741,None,329.19130443009783,None,329.19130443009783,None,329.19130443009783,None,,,,,,,,,,,,,031,2022-05-26_19h57.55.527,Main,2022.1.1,60.01748908975226,
negative,negative,2,j,l,,,,,,,,,4,15,87,9,,,,,,,,,main,2,2,2,negative,negative,l,l,1,0.9146258999826387,329.1971010999987,330.2101429000031,330.19355280010495,None,329.1971010999987,None,329.1971010999987,None,329.1971010999987,None,331.10790602999043,None,331.10790602999043,None,331.10790602999043,None,,,,,,,,,,,,,031,2022-05-26_19h57.55.527,Main,2022.1.1,60.01748908975226,
neutral,positive,2,k,k,,,,,,,,,4,16,88,13,,,,,,,,,main,1,1,2,positive,neutral,k,k,1,1.0049483000766486,331.1140341000864,332.126723100082,332.1101092000026,None,331.1140341000864,None,331.1140341000864,None,331.1140341000864,None,333.1145295300172,None,333.1145295300172,None,333.1145295300172,None,,,,,,,,,,,,,031,2022-05-26_19h57.55.527,Main,2022.1.1,60.01748908975226,
negative,positive,1,j,l,,,,,,,,,4,17,89,6,,,,,,,,,main,2,2,1,positive,negative,l,l,1,0.9749096999876201,333.1150271000806,334.12416940007824,334.1074623001041,None,333.1150271000806,None,333.1150271000806,None,333.1150271000806,None,335.0908752299962,None,335.0908752299962,None,335.0908752299962,None,,,,,,,,,,,,,031,2022-05-26_19h57.55.527,Main,2022.1.1,60.01748908975226,
neutral,positive,1,k,k,,,,,,,,,5,0,90,4,,,,,,,,,main,1,1,1,positive,neutral,k,k,1,1.3001575999660417,335.09717210009694,336.1099889000179,336.07671890000347,None,335.09717210009694,None,335.09717210009694,None,335.09717210009694,None,337.3911498300382,None,337.3911498300382,None,337.3911498300382,None,,,,,,,,,,,,,031,2022-05-26_19h57.55.527,Main,2022.1.1,60.01748908975226,
positive,negative,1,l,j,,,,,,,,,5,1,91,5,,,,,,,,,main,2,2,1,negative,positive,j,j,1,0.9812771000433713,337.39814629999455,338.4077794000041,338.39338600006886,None,337.39814629999455,None,337.39814629999455,None,337.39814629999455,None,339.3742853300297,None,339.3742853300297,None,339.3742853300297,None,,,,,,,,,,,,,031,2022-05-26_19h57.55.527,Main,2022.1.1,60.01748908975226,
neutral,negative,2,k,k,,,,,,,,,5,2,92,16,,,,,,,,,main,2,2,2,negative,neutral,k,k,1,1.1472119999816641,339.3815023000352,340.3932488000719,340.37662550003733,None,339.3815023000352,None,339.3815023000352,None,339.3815023000352,None,341.52438223009233,None,341.52438223009233,None,341.52438223009233,None,,,,,,,,,,,,,031,2022-05-26_19h57.55.527,Main,2022.1.1,60.01748908975226,
neutral,neutral,1,k,k,,,,,,,,,5,3,93,1,,,,,,,,,main,2,2,1,neutral,neutral,k,k,1,1.0980790000176057,341.52766110002995,342.54324320005253,342.5266330000013,None,341.52766110002995,None,341.52766110002995,None,341.52766110002995,None,343.6240605300642,None,343.6240605300642,None,343.6240605300642,None,,,,,,,,,,,,,031,2022-05-26_19h57.55.527,Main,2022.1.1,60.01748908975226,
positive,positive,1,l,j,,,,,,,,,5,4,94,2,,,,,,,,,main,2,2,1,positive,positive,j,j,1,1.0148543999530375,343.63049830007367,344.6406041000737,344.6239390000701,None,343.63049830007367,None,343.63049830007367,None,343.63049830007367,None,345.64059603001226,None,345.64059603001226,None,345.64059603001226,None,,,,,,,,,,,,,031,2022-05-26_19h57.55.527,Main,2022.1.1,60.01748908975226,
negative,negative,2,j,l,,,,,,,,,5,5,95,9,,,,,,,,,main,2,2,2,negative,negative,l,l,1,0.9816977999871597,345.640571200056,346.640604800079,346.640604800079,None,345.640571200056,None,345.640571200056,None,345.640571200056,None,347.6239614300081,None,347.6239614300081,None,347.6239614300081,None,,,,,,,,,,,,,031,2022-05-26_19h57.55.527,Main,2022.1.1,60.01748908975226,
neutral,neutral,2,k,k,,,,,,,,,5,6,96,10,,,,,,,,,main,1,1,2,neutral,neutral,k,k,1,0.8843116000061855,347.62951130000874,348.6431277000811,348.6265260000946,None,347.62951130000874,None,347.62951130000874,None,347.62951130000874,None,349.5098331300193,None,349.5098331300193,None,349.5098331300193,None,,,,,,,,,,,,,031,2022-05-26_19h57.55.527,Main,2022.1.1,60.01748908975226,
negative,negative,1,j,l,,,,,,,,,5,7,97,0,,,,,,,,,main,2,2,1,negative,negative,l,l,1,1.146170699968934,349.51435840001795,350.52641330007464,350.50980040000286,None,349.51435840001795,None,349.51435840001795,None,349.51435840001795,None,351.65751882999905,None,351.65751882999905,None,351.65751882999905,None,,,,,,,,,,,,,031,2022-05-26_19h57.55.527,Main,2022.1.1,60.01748908975226,
neutral,positive,2,k,k,,,,,,,,,5,8,98,13,,,,,,,,,main,1,1,2,positive,neutral,k,k,1,0.9649347000522539,351.661088700057,352.67634780006483,352.6597588000586,None,351.661088700057,None,351.661088700057,None,351.661088700057,None,353.6241596300039,None,353.6241596300039,None,353.6241596300039,None,,,,,,,,,,,,,031,2022-05-26_19h57.55.527,Main,2022.1.1,60.01748908975226,
neutral,negative,1,k,k,,,,,,,,,5,9,99,7,,,,,,,,,main,1,1,1,negative,neutral,k,k,1,0.9980293000116944,353.6276338000316,354.6430358000798,354.6263953000307,None,353.6276338000316,None,353.6276338000316,None,353.6276338000316,None,355.62373153000374,None,355.62373153000374,None,355.62373153000374,None,,,,,,,,,,,,,031,2022-05-26_19h57.55.527,Main,2022.1.1,60.01748908975226,
negative,positive,1,j,l,,,,,,,,,5,10,100,6,,,,,,,,,main,1,1,1,positive,negative,l,l,1,1.014856299967505,355.62992420000955,356.6403657000046,356.62368479999714,None,355.62992420000955,None,355.62992420000955,None,355.62992420000955,None,357.64040433006596,None,357.64040433006596,None,357.64040433006596,None,,,,,,,,,,,,,031,2022-05-26_19h57.55.527,Main,2022.1.1,60.01748908975226,
positive,neutral,2,l,j,,,,,,,,,5,11,101,17,,,,,,,,,main,1,1,2,neutral,positive,j,j,1,0.9151660999050364,357.64379250002094,358.6429652000079,358.6429652000079,None,357.64379250002094,None,357.64379250002094,None,357.64379250002094,None,359.5573394300533,None,359.5573394300533,None,359.5573394300533,None,,,,,,,,,,,,,031,2022-05-26_19h57.55.527,Main,2022.1.1,60.01748908975226,
negative,neutral,2,j,l,,,,,,,,,5,12,102,12,,,,,,,,,main,2,2,2,neutral,negative,l,l,1,1.1176831000484526,359.5632953000022,360.57620100001805,360.55958170001395,None,359.5632953000022,None,359.5632953000022,None,359.5632953000022,None,361.67652923004937,None,361.67652923004937,None,361.67652923004937,None,,,,,,,,,,,,,031,2022-05-26_19h57.55.527,Main,2022.1.1,60.01748908975226,
negative,positive,2,j,l,,,,,,,,,5,13,103,15,,,,,,,,,main,2,2,2,positive,negative,l,l,1,0.8622471999842674,361.6796391000971,362.6928217000095,362.67621040006634,None,361.6796391000971,None,361.6796391000971,None,361.6796391000971,None,363.5402836301015,None,363.5402836301015,None,363.5402836301015,None,,,,,,,,,,,,,031,2022-05-26_19h57.55.527,Main,2022.1.1,60.01748908975226,
positive,neutral,1,l,j,,,,,,,,,5,14,104,8,,,,,,,,,main,2,2,1,neutral,positive,j,j,1,1.098065200028941,363.54388840007596,364.5594238000922,364.54284130001906,None,363.54388840007596,None,363.54388840007596,None,363.54388840007596,None,365.6401410300401,None,365.6401410300401,None,365.6401410300401,None,,,,,,,,,,,,,031,2022-05-26_19h57.55.527,Main,2022.1.1,60.01748908975226,
positive,negative,2,l,j,,,,,,,,,5,15,105,14,,,,,,,,,main,1,1,2,negative,positive,j,j,1,1.031764499959536,365.65531050006393,366.6568099000724,366.6401469000848,None,365.65531050006393,None,365.65531050006393,None,365.65531050006393,None,367.6735321300454,None,367.6735321300454,None,367.6735321300454,None,,,,,,,,,,,,,031,2022-05-26_19h57.55.527,Main,2022.1.1,60.01748908975226,
positive,positive,2,l,j,,,,,,,,,5,16,106,11,,,,,,,,,main,1,1,2,positive,positive,j,j,1,0.867841099970974,367.67873840010725,368.6927058000583,368.6594580000965,None,367.67873840010725,None,367.67873840010725,None,367.67873840010725,None,369.5427047300269,None,369.5427047300269,None,369.5427047300269,None,,,,,,,,,,,,,031,2022-05-26_19h57.55.527,Main,2022.1.1,60.01748908975226,
negative,neutral,1,j,l,,,,,,,,,5,17,107,3,,,,,,,,,main,2,2,1,neutral,negative,l,l,1,1.0126725999871269,369.5460598000791,370.55932010000106,370.54272420005873,None,369.5460598000791,None,369.5460598000791,None,369.5460598000791,None,371.55708933001154,None,371.55708933001154,None,371.55708933001154,None,,,,,,,,,,,,,031,2022-05-26_19h57.55.527,Main,2022.1.1,60.01748908975226,
neutral,positive,1,k,k,,,,,,,,,6,0,108,4,,,,,,,,,main,1,1,1,positive,neutral,k,k,1,0.997988999937661,371.5629949000431,372.57593809999526,372.55933620000724,None,371.5629949000431,None,371.5629949000431,None,371.5629949000431,None,373.5567523300066,None,373.5567523300066,None,373.5567523300066,None,,,,,,,,,,,,,031,2022-05-26_19h57.55.527,Main,2022.1.1,60.01748908975226,
positive,negative,1,l,j,,,,,,,,,6,1,109,5,,,,,,,,,main,2,2,1,negative,positive,j,j,1,1.1817943999776617,373.56331880006474,374.57584600010887,374.559248900041,None,373.56331880006474,None,373.56331880006474,None,373.56331880006474,None,375.74033253007804,None,375.74033253007804,None,375.74033253007804,None,,,,,,,,,,,,,031,2022-05-26_19h57.55.527,Main,2022.1.1,60.01748908975226,
negative,negative,1,j,l,,,,,,,,,6,2,110,0,,,,,,,,,main,2,2,1,negative,negative,l,l,1,1.0648138999240473,375.7436578000197,376.75659480004106,376.7399338000687,None,375.7436578000197,None,375.7436578000197,None,375.7436578000197,None,377.80658503001325,None,377.80658503001325,None,377.80658503001325,None,,,,,,,,,,,,,031,2022-05-26_19h57.55.527,Main,2022.1.1,60.01748908975226,
neutral,neutral,2,k,k,,,,,,,,,6,3,111,10,,,,,,,,,main,2,2,2,neutral,neutral,k,k,1,0.9341960999881849,377.80670390010346,378.8066101000877,378.8066101000877,None,377.80670390010346,None,377.80670390010346,None,377.80670390010346,None,379.7424598300946,None,379.7424598300946,None,379.7424598300946,None,,,,,,,,,,,,,031,2022-05-26_19h57.55.527,Main,2022.1.1,60.01748908975226,
positive,neutral,1,l,j,,,,,,,,,6,4,112,8,,,,,,,,,main,2,2,1,neutral,positive,j,j,1,1.0460344000020996,379.7455129000591,380.7590992000187,380.742506800103,None,379.7455129000591,None,379.7455129000591,None,379.7455129000591,None,381.79022083008897,None,381.79022083008897,None,381.79022083008897,None,,,,,,,,,,,,,031,2022-05-26_19h57.55.527,Main,2022.1.1,60.01748908975226,
negative,positive,1,j,l,,,,,,,,,6,5,113,6,,,,,,,,,main,2,2,1,positive,negative,l,l,1,0.9818288999376819,381.7958645001054,382.8090441999957,382.79243650007993,None,381.7958645001054,None,381.7958645001054,None,381.7958645001054,None,383.7735059300554,None,383.7735059300554,None,383.7735059300554,None,,,,,,,,,,,,,031,2022-05-26_19h57.55.527,Main,2022.1.1,60.01748908975226,
negative,negative,2,j,l,,,,,,,,,6,6,114,9,,,,,,,,,main,2,2,2,negative,negative,l,l,1,1.1814813999226317,383.776812300086,384.7923504000064,384.77574450010434,None,383.776812300086,None,383.776812300086,None,383.776812300086,None,385.9567781299935,None,385.9567781299935,None,385.9567781299935,None,,,,,,,,,,,,,031,2022-05-26_19h57.55.527,Main,2022.1.1,60.01748908975226,
positive,positive,2,l,j,,,,,,,,,6,7,115,11,,,,,,,,,main,2,2,2,positive,positive,j,j,1,0.9479865999892354,385.9604116000701,386.97305930010043,386.93971590010915,None,385.9604116000701,None,385.9604116000701,None,385.9604116000701,None,387.90637603002835,None,387.90637603002835,None,387.90637603002835,None,,,,,,,,,,,,,031,2022-05-26_19h57.55.527,Main,2022.1.1,60.01748908975226,
positive,positive,1,l,j,,,,,,,,,6,8,116,2,,,,,,,,,main,2,2,1,positive,positive,j,j,1,0.998418000061065,387.9063789000502,388.9063913000282,388.9063913000282,None,387.9063789000502,None,387.9063789000502,None,387.9063789000502,None,389.90638773000103,None,389.90638773000103,None,389.90638773000103,None,,,,,,,,,,,,,031,2022-05-26_19h57.55.527,Main,2022.1.1,60.01748908975226,
negative,neutral,2,j,l,,,,,,,,,6,9,117,12,,,,,,,,,main,2,2,2,neutral,negative,l,l,1,0.9842470999574289,389.90992610005196,390.9090155001031,390.9090155001031,None,389.90992610005196,None,389.90992610005196,None,389.90992610005196,None,391.89216163005915,None,391.89216163005915,None,391.89216163005915,None,,,,,,,,,,,,,031,2022-05-26_19h57.55.527,Main,2022.1.1,60.01748908975226,
neutral,positive,2,k,k,,,,,,,,,6,10,118,13,,,,,,,,,main,1,1,2,positive,neutral,k,k,1,0.9793821999337524,391.89534720010124,392.9088818000164,392.8922603999963,None,391.89534720010124,None,391.89534720010124,None,391.89534720010124,None,393.87329743007433,None,393.87329743007433,None,393.87329743007433,None,,,,,,,,,,,,,031,2022-05-26_19h57.55.527,Main,2022.1.1,60.01748908975226,
neutral,negative,2,k,k,,,,,,,,,6,11,119,16,,,,,,,,,main,1,1,2,negative,neutral,k,k,1,0.8503848999971524,393.87647200003266,394.8921187000815,394.87561330001336,None,393.87647200003266,None,393.87647200003266,None,393.87647200003266,None,395.72547153007474,None,395.72547153007474,None,395.72547153007474,None,,,,,,,,,,,,,031,2022-05-26_19h57.55.527,Main,2022.1.1,60.01748908975226,
neutral,neutral,1,k,k,,,,,,,,,6,12,120,1,,,,,,,,,main,1,1,1,neutral,neutral,k,k,1,0.9958856999874115,395.7288023000583,396.7421158000361,396.7255009000655,None,395.7288023000583,None,395.7288023000583,None,395.7288023000583,None,397.7228385300492,None,397.7228385300492,None,397.7228385300492,None,,,,,,,,,,,,,031,2022-05-26_19h57.55.527,Main,2022.1.1,60.01748908975226,
neutral,negative,1,k,k,,,,,,,,,6,13,121,7,,,,,,,,,main,2,2,1,negative,neutral,k,k,1,0.7316581999184564,397.7395042000571,398.7394729000516,398.7228161999956,None,397.7395042000571,None,397.7395042000571,None,397.7395042000571,None,399.45620213003133,None,399.45620213003133,None,399.45620213003133,None,,,,,,,,,,,,,031,2022-05-26_19h57.55.527,Main,2022.1.1,60.01748908975226,
negative,neutral,1,j,l,,,,,,,,,6,14,122,3,,,,,,,,,main,1,1,1,neutral,negative,l,l,1,0.8843139999080449,399.460217700107,400.4753724000184,400.4590503000654,None,399.460217700107,None,399.460217700107,None,399.460217700107,None,401.34206423008584,None,401.34206423008584,None,401.34206423008584,None,,,,,,,,,,,,,031,2022-05-26_19h57.55.527,Main,2022.1.1,60.01748908975226,
positive,neutral,2,l,j,,,,,,,,,6,15,123,17,,,,,,,,,main,2,2,2,neutral,positive,j,j,1,0.9128717000130564,401.34515010006726,402.3585895000724,402.34198880009353,None,401.34515010006726,None,401.34515010006726,None,401.34515010006726,None,403.2564029300935,None,403.2564029300935,None,403.2564029300935,None,,,,,,,,,,,,,031,2022-05-26_19h57.55.527,Main,2022.1.1,60.01748908975226,
positive,negative,2,l,j,,,,,,,,,6,16,124,14,,,,,,,,,main,2,2,2,negative,positive,j,j,1,0.9322453000349924,403.2598955000285,404.27520620008,404.25861780007835,None,403.2598955000285,None,403.2598955000285,None,403.2598955000285,None,405.189722630044,None,405.189722630044,None,405.189722630044,None,,,,,,,,,,,,,031,2022-05-26_19h57.55.527,Main,2022.1.1,60.01748908975226,
negative,positive,2,j,l,,,,,,,,,6,17,125,15,,,,,,,,,main,2,2,2,positive,negative,l,l,1,0.9665542999282479,405.1937038000906,406.2085564000299,406.1919604000868,None,405.1937038000906,None,405.1937038000906,None,405.1937038000906,None,407.158574530005,None,407.158574530005,None,407.158574530005,None,,,,,,,,,,,,,031,2022-05-26_19h57.55.527,Main,2022.1.1,60.01748908975226,
neutral,negative,2,k,k,,,,,,,,,7,0,126,16,,,,,,,,,main,2,2,2,negative,neutral,k,k,1,0.9115840999875218,407.1626209000824,408.17260960000567,408.1559413000941,None,407.1626209000824,None,407.1626209000824,None,407.1626209000824,None,409.07260482999266,None,409.07260482999266,None,409.07260482999266,None,,,,,,,,,,,,,031,2022-05-26_19h57.55.527,Main,2022.1.1,60.01748908975226,
positive,neutral,1,l,j,,,,,,,,,7,1,127,8,,,,,,,,,main,2,2,1,neutral,positive,j,j,1,0.8330393000505865,409.07260400010273,410.07261870009825,410.07261870009825,None,409.07260400010273,None,409.07260400010273,None,409.07260400010273,None,410.9072838300723,None,410.9072838300723,None,410.9072838300723,None,,,,,,,,,,,,,031,2022-05-26_19h57.55.527,Main,2022.1.1,60.01748908975226,
neutral,neutral,2,k,k,,,,,,,,,7,2,128,10,,,,,,,,,main,1,1,2,neutral,neutral,k,k,1,0.7973630999913439,410.92293020000216,411.92509270005394,411.90850230003707,None,410.92293020000216,None,410.92293020000216,None,410.92293020000216,None,412.70622613009766,None,412.70622613009766,None,412.70622613009766,None,,,,,,,,,,,,,031,2022-05-26_19h57.55.527,Main,2022.1.1,60.01748908975226,
neutral,negative,1,k,k,,,,,,,,,7,3,129,7,,,,,,,,,main,2,2,1,negative,neutral,k,k,1,0.8337934999726713,412.70994620001875,413.72505090001505,413.70849810005166,None,412.70994620001875,None,412.70994620001875,None,412.70994620001875,None,414.54174403004583,None,414.54174403004583,None,414.54174403004583,None,,,,,,,,,,,,,031,2022-05-26_19h57.55.527,Main,2022.1.1,60.01748908975226,
positive,negative,2,l,j,,,,,,,,,7,4,130,14,,,,,,,,,main,1,1,2,negative,positive,j,j,1,0.8818851999239996,414.54406000010204,415.5583698000992,415.5418439001078,None,414.54406000010204,None,414.54406000010204,None,414.54406000010204,None,416.4250989301014,None,416.4250989301014,None,416.4250989301014,None,,,,,,,,,,,,,031,2022-05-26_19h57.55.527,Main,2022.1.1,60.01748908975226,
neutral,neutral,1,k,k,,,,,,,,,7,5,131,1,,,,,,,,,main,1,1,1,neutral,neutral,k,k,1,0.9166401999536902,416.4277318000095,417.4416066000704,417.425003600074,None,416.4277318000095,None,416.4277318000095,None,416.4277318000095,None,418.34305543006633,None,418.34305543006633,None,418.34305543006633,None,,,,,,,,,,,,,031,2022-05-26_19h57.55.527,Main,2022.1.1,60.01748908975226,
negative,positive,1,j,l,,,,,,,,,7,6,132,6,,,,,,,,,main,2,2,1,positive,negative,l,l,1,0.9620222999947146,418.3431135000428,419.3556771000149,419.33901600004174,None,418.3431135000428,None,418.3431135000428,None,418.3431135000428,None,420.30576053002153,None,420.30576053002153,None,420.30576053002153,None,,,,,,,,,,,,,031,2022-05-26_19h57.55.527,Main,2022.1.1,60.01748908975226,
negative,neutral,2,j,l,,,,,,,,,7,7,133,12,,,,,,,,,main,2,2,2,neutral,negative,l,l,1,0.7320557999191806,420.3100162000628,421.3249637000263,421.3082209000131,None,420.3100162000628,None,420.3100162000628,None,420.3100162000628,None,422.03937893008117,None,422.03937893008117,None,422.03937893008117,None,,,,,,,,,,,,,031,2022-05-26_19h57.55.527,Main,2022.1.1,60.01748908975226,
negative,negative,1,j,l,,,,,,,,,7,8,134,0,,,,,,,,,main,1,1,1,negative,negative,l,l,1,0.7663099999772385,422.0434880000539,423.05822160001844,423.041630599997,None,422.0434880000539,None,422.0434880000539,None,422.0434880000539,None,423.8082844300312,None,423.8082844300312,None,423.8082844300312,None,,,,,,,,,,,,,031,2022-05-26_19h57.55.527,Main,2022.1.1,60.01748908975226,
neutral,positive,1,k,k,,,,,,,,,7,9,135,4,,,,,,,,,main,1,1,1,positive,neutral,k,k,1,0.8315053000114858,423.81143780006096,424.8249080000678,424.8082461000886,None,423.81143780006096,None,423.81143780006096,None,423.81143780006096,None,425.64156653006796,None,425.64156653006796,None,425.64156653006796,None,,,,,,,,,,,,,031,2022-05-26_19h57.55.527,Main,2022.1.1,60.01748908975226,
positive,neutral,2,l,j,,,,,,,,,7,10,136,17,,,,,,,,,main,1,1,2,neutral,positive,j,j,1,0.912687600008212,425.6444687000476,426.6581291001057,426.64154440001585,None,425.6444687000476,None,425.6444687000476,None,425.6444687000476,None,427.5559104299988,None,427.5559104299988,None,427.5559104299988,None,,,,,,,,,,,,,031,2022-05-26_19h57.55.527,Main,2022.1.1,60.01748908975226,
neutral,positive,2,k,k,,,,,,,,,7,11,137,13,,,,,,,,,main,1,1,2,positive,neutral,k,k,1,0.8979288999689743,427.56158740003593,428.5712343000341,428.5552870000247,None,427.56158740003593,None,427.56158740003593,None,427.56158740003593,None,429.45550942999546,None,429.45550942999546,None,429.45550942999546,None,,,,,,,,,,,,,031,2022-05-26_19h57.55.527,Main,2022.1.1,60.01748908975226,
negative,neutral,1,j,l,,,,,,,,,7,12,138,3,,,,,,,,,main,1,1,1,neutral,negative,l,l,1,0.7644308001035824,429.4559630000731,430.45548550004605,430.45548550004605,None,429.4559630000731,None,429.4559630000731,None,429.4559630000731,None,431.2221669300576,None,431.2221669300576,None,431.2221669300576,None,,,,,,,,,,,,,031,2022-05-26_19h57.55.527,Main,2022.1.1,60.01748908975226,
negative,positive,2,j,l,,,,,,,,,7,13,139,15,,,,,,,,,main,1,1,2,positive,negative,l,l,1,0.8177872999804094,431.2225437000161,432.22216450003907,432.22216450003907,None,431.2225437000161,None,431.2225437000161,None,431.2225437000161,None,433.0415157300537,None,433.0415157300537,None,433.0415157300537,None,,,,,,,,,,,,,031,2022-05-26_19h57.55.527,Main,2022.1.1,60.01748908975226,
positive,positive,1,l,j,,,,,,,,,7,14,140,2,,,,,,,,,main,2,2,1,positive,positive,j,j,1,0.8646534999134019,433.0447630000999,434.0580088000279,434.04142090003006,None,433.0447630000999,None,433.0447630000999,None,433.0447630000999,None,434.90801483005055,None,434.90801483005055,None,434.90801483005055,None,,,,,,,,,,,,,031,2022-05-26_19h57.55.527,Main,2022.1.1,60.01748908975226,
positive,negative,1,l,j,,,,,,,,,7,15,141,5,,,,,,,,,main,2,2,1,negative,positive,j,j,1,0.7469943999312818,434.9117688999977,435.92460030002985,435.90802630002145,None,434.9117688999977,None,434.9117688999977,None,434.9117688999977,None,436.65573073000417,None,436.65573073000417,None,436.65573073000417,None,,,,,,,,,,,,,031,2022-05-26_19h57.55.527,Main,2022.1.1,60.01748908975226,
positive,positive,2,l,j,,,,,,,,,7,16,142,11,,,,,,,,,main,2,2,2,positive,positive,j,j,1,0.8141022999770939,436.6620035000378,437.6745533000212,437.6579616999952,None,436.6620035000378,None,436.6620035000378,None,436.6620035000378,None,438.4728768299916,None,438.4728768299916,None,438.4728768299916,None,,,,,,,,,,,,,031,2022-05-26_19h57.55.527,Main,2022.1.1,60.01748908975226,
negative,negative,2,j,l,,,,,,,,,7,17,143,9,,,,,,,,,main,1,1,2,negative,negative,l,l,1,0.9807065000059083,438.47887590003666,439.48877170006745,439.47457510000095,None,438.47887590003666,None,438.47887590003666,None,438.47887590003666,None,440.45525983007394,None,440.45525983007394,None,440.45525983007394,None,,,,,,,,,,,,,031,2022-05-26_19h57.55.527,Main,2022.1.1,60.01748908975226,
neutral,positive,1,k,k,,,,,,,,,8,0,144,4,,,,,,,,,main,1,1,1,positive,neutral,k,k,1,0.7985013000434265,440.45524150005076,441.4552429000614,441.4552429000614,None,440.45524150005076,None,440.45524150005076,None,440.45524150005076,None,442.2553009300842,None,442.2553009300842,None,442.2553009300842,None,,,,,,,,,,,,,031,2022-05-26_19h57.55.527,Main,2022.1.1,60.01748908975226,
neutral,negative,1,k,k,,,,,,,,,8,1,145,7,,,,,,,,,main,2,2,1,negative,neutral,k,k,1,0.7487957000266761,442.25868220010307,443.2578713000985,443.2578713000985,None,442.25868220010307,None,442.25868220010307,None,442.25868220010307,None,444.005573730066,None,444.005573730066,None,444.005573730066,None,,,,,,,,,,,,,031,2022-05-26_19h57.55.527,Main,2022.1.1,60.01748908975226,
negative,negative,2,j,l,,,,,,,,,8,2,146,9,,,,,,,,,main,1,1,2,negative,negative,l,l,1,0.7982094999169931,444.0112543000141,445.0244096000679,445.0078182000434,None,444.0112543000141,None,444.0112543000141,None,444.0112543000141,None,445.8055275299936,None,445.8055275299936,None,445.8055275299936,None,,,,,,,,,,,,,031,2022-05-26_19h57.55.527,Main,2022.1.1,60.01748908975226,
positive,negative,2,l,j,,,,,,,,,8,3,147,14,,,,,,,,,main,2,2,2,negative,positive,j,j,1,0.931737000006251,445.8095702000428,446.8243567000609,446.80777990003116,None,445.8095702000428,None,445.8095702000428,None,445.8095702000428,None,447.73880883000095,None,447.73880883000095,None,447.73880883000095,None,,,,,,,,,,,,,031,2022-05-26_19h57.55.527,Main,2022.1.1,60.01748908975226,
neutral,neutral,2,k,k,,,,,,,,,8,4,148,10,,,,,,,,,main,2,2,2,neutral,neutral,k,k,1,0.981707299943082,447.74477910005953,448.7576663000509,448.741048600059,None,447.74477910005953,None,447.74477910005953,None,447.74477910005953,None,449.7221183300368,None,449.7221183300368,None,449.7221183300368,None,,,,,,,,,,,,,031,2022-05-26_19h57.55.527,Main,2022.1.1,60.01748908975226,
negative,negative,1,j,l,,,,,,,,,8,5,149,0,,,,,,,,,main,2,2,1,negative,negative,l,l,1,0.8314439000096172,449.7256177000236,450.73838540003635,450.7217135000974,None,449.7256177000236,None,449.7256177000236,None,449.7256177000236,None,451.55504383003574,None,451.55504383003574,None,451.55504383003574,None,,,,,,,,,,,,,031,2022-05-26_19h57.55.527,Main,2022.1.1,60.01748908975226,
positive,positive,1,l,j,,,,,,,,,8,6,150,2,,,,,,,,,main,1,1,1,positive,positive,j,j,1,0.8814538000151515,451.5551079000579,452.55503869999666,452.55503869999666,None,451.5551079000579,None,451.5551079000579,None,451.5551079000579,None,453.43836133003936,None,453.43836133003936,None,453.43836133003936,None,,,,,,,,,,,,,031,2022-05-26_19h57.55.527,Main,2022.1.1,60.01748908975226,
negative,neutral,1,j,l,,,,,,,,,8,7,151,3,,,,,,,,,main,2,2,1,neutral,negative,l,l,1,0.7654308999190107,453.4413925000699,454.4408228000393,454.42421480000485,None,453.4413925000699,None,453.4413925000699,None,453.4413925000699,None,455.20535083006837,None,455.20535083006837,None,455.20535083006837,None,,,,,,,,,,,,,031,2022-05-26_19h57.55.527,Main,2022.1.1,60.01748908975226,
positive,negative,1,l,j,,,,,,,,,8,8,152,5,,,,,,,,,main,2,2,1,negative,positive,j,j,1,1.0005819000070915,455.2097942000255,456.2241730000824,456.20758400007617,None,455.2097942000255,None,455.2097942000255,None,455.2097942000255,None,457.20753893008225,None,457.20753893008225,None,457.20753893008225,None,,,,,,,,,,,,,031,2022-05-26_19h57.55.527,Main,2022.1.1,60.01748908975226,
positive,neutral,2,l,j,,,,,,,,,8,9,153,17,,,,,,,,,main,2,2,2,neutral,positive,j,j,1,0.8650340000167489,457.2116425000131,458.22414360009134,458.20756380003877,None,457.2116425000131,None,457.2116425000131,None,457.2116425000131,None,459.0741278300644,None,459.0741278300644,None,459.0741278300644,None,,,,,,,,,,,,,031,2022-05-26_19h57.55.527,Main,2022.1.1,60.01748908975226,
neutral,negative,2,k,k,,,,,,,,,8,10,154,16,,,,,,,,,main,1,1,2,negative,neutral,k,k,1,1.0788806000491604,459.07689700007904,460.09082190005574,460.0742345000617,None,459.07689700007904,None,459.07689700007904,None,459.07689700007904,None,461.15484383000296,None,461.15484383000296,None,461.15484383000296,None,,,,,,,,,,,,,031,2022-05-26_19h57.55.527,Main,2022.1.1,60.01748908975226,
negative,positive,1,j,l,,,,,,,,,8,11,155,6,,,,,,,,,main,2,2,1,positive,negative,l,l,1,0.8486822000704706,461.1551182999974,462.15481160010677,462.15481160010677,None,461.1551182999974,None,461.1551182999974,None,461.1551182999974,None,463.0048626300064,None,463.0048626300064,None,463.0048626300064,None,,,,,,,,,,,,,031,2022-05-26_19h57.55.527,Main,2022.1.1,60.01748908975226,
negative,neutral,2,j,l,,,,,,,,,8,12,156,12,,,,,,,,,main,1,1,2,neutral,negative,l,l,1,0.8841472000349313,463.0082156000426,464.007427600096,464.007427600096,None,463.0082156000426,None,463.0082156000426,None,463.0082156000426,None,464.890781430027,None,464.890781430027,None,464.890781430027,None,,,,,,,,,,,,,031,2022-05-26_19h57.55.527,Main,2022.1.1,60.01748908975226,
positive,neutral,1,l,j,,,,,,,,,8,13,157,8,,,,,,,,,main,2,2,1,neutral,positive,j,j,1,1.3985322000226006,464.8949390000198,465.90732750005554,465.89076020009816,None,464.8949390000198,None,464.8949390000198,None,464.8949390000198,None,467.29066843000476,None,467.29066843000476,None,467.29066843000476,None,,,,,,,,,,,,,031,2022-05-26_19h57.55.527,Main,2022.1.1,60.01748908975226,
positive,positive,2,l,j,,,,,,,,,8,14,158,11,,,,,,,,,main,1,1,2,positive,positive,j,j,1,0.8291077999165282,467.29438570002094,468.3073255000636,468.29066160006914,None,467.29438570002094,None,467.29438570002094,None,467.29438570002094,None,469.12170953009047,None,469.12170953009047,None,469.12170953009047,None,,,,,,,,,,,,,031,2022-05-26_19h57.55.527,Main,2022.1.1,60.01748908975226,
neutral,neutral,1,k,k,,,,,,,,,8,15,159,1,,,,,,,,,main,1,1,1,neutral,neutral,k,k,1,0.7981826000614092,469.14061760006007,470.1405904000858,470.12395979999565,None,469.14061760006007,None,469.14061760006007,None,469.14061760006007,None,470.92138223008953,None,470.92138223008953,None,470.92138223008953,None,,,,,,,,,,,,,031,2022-05-26_19h57.55.527,Main,2022.1.1,60.01748908975226,
negative,positive,2,j,l,,,,,,,,,8,16,160,15,,,,,,,,,main,2,2,2,positive,negative,l,l,1,0.7650783000281081,470.92759970005136,471.93793480005115,471.921269100043,None,470.92759970005136,None,470.92759970005136,None,470.92759970005136,None,472.6879364300636,None,472.6879364300636,None,472.6879364300636,None,,,,,,,,,,,,,031,2022-05-26_19h57.55.527,Main,2022.1.1,60.01748908975226,
neutral,positive,2,k,k,,,,,,,,,8,17,161,13,,,,,,,,,main,2,2,2,positive,neutral,k,k,1,0.7842335000168532,472.6882402000483,473.6879520000657,473.6879520000657,None,472.6882402000483,None,472.6882402000483,None,472.6882402000483,None,474.47373233010296,None,474.47373233010296,None,474.47373233010296,None,,,,,,,,,,,,,031,2022-05-26_19h57.55.527,Main,2022.1.1,60.01748908975226,
neutral,neutral,1,k,k,,,,,,,,,9,0,162,1,,,,,,,,,main,1,1,1,neutral,neutral,k,k,1,0.8149143999908119,474.4765793000115,475.4903868000256,475.47376500000246,None,474.4765793000115,None,474.4765793000115,None,474.4765793000115,None,476.2905716300826,None,476.2905716300826,None,476.2905716300826,None,,,,,,,,,,,,,031,2022-05-26_19h57.55.527,Main,2022.1.1,60.01748908975226,
negative,positive,2,j,l,,,,,,,,,9,1,163,15,,,,,,,,,main,1,1,2,positive,negative,l,l,1,0.8484243999700993,476.2939533001045,477.30698820005637,477.2906104000285,None,476.2939533001045,None,476.2939533001045,None,476.2939533001045,None,478.1403737300658,None,478.1403737300658,None,478.1403737300658,None,,,,,,,,,,,,,031,2022-05-26_19h57.55.527,Main,2022.1.1,60.01748908975226,
positive,positive,1,l,j,,,,,,,,,9,2,164,2,,,,,,,,,main,2,2,1,positive,positive,j,j,1,1.0651542999548838,478.14358260005247,479.1570192000363,479.1404317000415,None,478.14358260005247,None,478.14358260005247,None,478.14358260005247,None,480.2070876300219,None,480.2070876300219,None,480.2070876300219,None,,,,,,,,,,,,,031,2022-05-26_19h57.55.527,Main,2022.1.1,60.01748908975226,
neutral,neutral,2,k,k,,,,,,,,,9,3,165,10,,,,,,,,,main,1,1,2,neutral,neutral,k,k,1,0.8120563999982551,480.21003930002917,481.2236606000224,481.2070523001021,None,480.21003930002917,None,480.21003930002917,None,480.21003930002917,None,482.0210605300614,None,482.0210605300614,None,482.0210605300614,None,,,,,,,,,,,,,031,2022-05-26_19h57.55.527,Main,2022.1.1,60.01748908975226,
neutral,positive,1,k,k,,,,,,,,,9,4,166,4,,,,,,,,,main,2,2,1,positive,neutral,k,k,1,0.9643716000718996,482.0216802000068,483.02100840001367,483.02100840001367,None,482.0216802000068,None,482.0216802000068,None,482.0216802000068,None,483.9877344300854,None,483.9877344300854,None,483.9877344300854,None,,,,,,,,,,,,,031,2022-05-26_19h57.55.527,Main,2022.1.1,60.01748908975226,
positive,positive,2,l,j,,,,,,,,,9,5,167,11,,,,,,,,,main,1,1,2,positive,positive,j,j,1,0.8677998000057414,483.9917282999959,485.0069060000824,484.9736697000917,None,483.9917282999959,None,483.9917282999959,None,483.9917282999959,None,485.85695153005656,None,485.85695153005656,None,485.85695153005656,None,,,,,,,,,,,,,031,2022-05-26_19h57.55.527,Main,2022.1.1,60.01748908975226,
positive,neutral,1,l,j,,,,,,,,,9,6,168,8,,,,,,,,,main,2,2,1,neutral,positive,j,j,1,0.7126310000894591,485.8604750999948,486.8735242000548,486.856946600019,None,485.8604750999948,None,485.8604750999948,None,485.8604750999948,None,487.5713245300227,None,487.5713245300227,None,487.5713245300227,None,,,,,,,,,,,,,031,2022-05-26_19h57.55.527,Main,2022.1.1,60.01748908975226,
neutral,positive,2,k,k,,,,,,,,,9,7,169,13,,,,,,,,,main,2,2,2,positive,neutral,k,k,1,0.8342078999849036,487.57476660003886,488.59010890009813,488.57351570005994,None,487.57476660003886,None,487.57476660003886,None,487.57476660003886,None,489.406898030045,None,489.406898030045,None,489.406898030045,None,,,,,,,,,,,,,031,2022-05-26_19h57.55.527,Main,2022.1.1,60.01748908975226,
positive,neutral,2,l,j,,,,,,,,,9,8,170,17,,,,,,,,,main,1,1,2,neutral,positive,j,j,1,0.9457891999045387,489.40987960004713,490.42347330006305,490.40694170002826,None,489.40987960004713,None,489.40987960004713,None,489.40987960004713,None,491.35457823002946,None,491.35457823002946,None,491.35457823002946,None,,,,,,,,,,,,,031,2022-05-26_19h57.55.527,Main,2022.1.1,60.01748908975226,
negative,neutral,1,j,l,,,,,,,,,9,9,171,3,,,,,,,,,main,1,1,1,neutral,negative,l,l,1,0.7979055000469089,491.35777930007316,492.37083620007616,492.354176599998,None,491.35777930007316,None,491.35777930007316,None,491.35777930007316,None,493.1541680300958,None,493.1541680300958,None,493.1541680300958,None,,,,,,,,,,,,,031,2022-05-26_19h57.55.527,Main,2022.1.1,60.01748908975226,
negative,negative,2,j,l,,,,,,,,,9,10,172,9,,,,,,,,,main,1,1,2,negative,negative,l,l,1,0.7977098000701517,493.1545753000537,494.15416640008334,494.15416640008334,None,493.1545753000537,None,493.1545753000537,None,493.1545753000537,None,494.95419693001315,None,494.95419693001315,None,494.95419693001315,None,,,,,,,,,,,,,031,2022-05-26_19h57.55.527,Main,2022.1.1,60.01748908975226,
neutral,negative,2,k,k,,,,,,,,,9,11,173,16,,,,,,,,,main,2,2,2,negative,neutral,k,k,1,0.9174482999369502,494.95743840001523,495.9567783999955,495.9567783999955,None,494.95743840001523,None,494.95743840001523,None,494.95743840001523,None,496.8734075300978,None,496.8734075300978,None,496.8734075300978,None,,,,,,,,,,,,,031,2022-05-26_19h57.55.527,Main,2022.1.1,60.01748908975226,
negative,positive,1,j,l,,,,,,,,,9,12,174,6,,,,,,,,,main,2,2,1,positive,negative,l,l,1,0.7618977000238374,496.8774140001042,497.88997890008613,497.87340480007697,None,496.8774140001042,None,496.8774140001042,None,496.8774140001042,None,498.6374441299937,None,498.6374441299937,None,498.6374441299937,None,,,,,,,,,,,,,031,2022-05-26_19h57.55.527,Main,2022.1.1,60.01748908975226,
positive,negative,2,l,j,,,,,,,,,9,13,175,14,,,,,,,,,main,1,1,2,negative,positive,j,j,1,0.9659119999269024,498.6437325000297,499.6565328000579,499.6399495000951,None,498.6437325000297,None,498.6437325000297,None,498.6437325000297,None,500.60435633008603,None,500.60435633008603,None,500.60435633008603,None,,,,,,,,,,,,,031,2022-05-26_19h57.55.527,Main,2022.1.1,60.01748908975226,
negative,neutral,2,j,l,,,,,,,,,9,14,176,12,,,,,,,,,main,2,2,2,neutral,negative,l,l,1,1.0143489999463782,500.6083835000172,501.62315390002914,501.6065515000373,None,500.6083835000172,None,500.6083835000172,None,500.6083835000172,None,502.62098333003235,None,502.62098333003235,None,502.62098333003235,None,,,,,,,,,,,,,031,2022-05-26_19h57.55.527,Main,2022.1.1,60.01748908975226,
positive,negative,1,l,j,,,,,,,,,9,15,177,5,,,,,,,,,main,1,1,1,negative,positive,j,j,1,0.9813134999712929,502.62431139999535,503.6372318000067,503.6059847000288,None,502.62431139999535,None,502.62431139999535,None,502.62431139999535,None,504.6039025300066,None,504.6039025300066,None,504.6039025300066,None,,,,,,,,,,,,,031,2022-05-26_19h57.55.527,Main,2022.1.1,60.01748908975226,
neutral,negative,1,k,k,,,,,,,,,9,16,178,7,,,,,,,,,main,2,2,1,negative,neutral,k,k,1,0.798933899961412,504.6038931000512,505.60392140003387,505.60392140003387,None,504.6038931000512,None,504.6038931000512,None,504.6038931000512,None,506.40427903000966,None,506.40427903000966,None,506.40427903000966,None,,,,,,,,,,,,,031,2022-05-26_19h57.55.527,Main,2022.1.1,60.01748908975226,
negative,negative,1,j,l,,,,,,,,,9,17,179,0,,,,,,,,,main,2,2,1,negative,negative,l,l,1,1.0652403000276536,506.4079700000584,507.42309060005937,507.4065113000106,None,506.4079700000584,None,506.4079700000584,None,506.4079700000584,None,508.47087623000846,None,508.47087623000846,None,508.47087623000846,None,,,,,,,,,,,,,031,2022-05-26_19h57.55.527,Main,2022.1.1,60.01748908975226,
positive,negative,1,l,j,,,,,,,,,10,0,180,5,,,,,,,,,main,2,2,1,negative,positive,j,j,1,0.9168679000576958,508.4743871000828,509.48978050006554,509.473118300084,None,508.4743871000828,None,508.4743871000828,None,508.4743871000828,None,510.3897669301019,None,510.3897669301019,None,510.3897669301019,None,,,,,,,,,,,,,031,2022-05-26_19h57.55.527,Main,2022.1.1,60.01748908975226,
neutral,neutral,2,k,k,,,,,,,,,10,1,181,10,,,,,,,,,main,1,1,2,neutral,neutral,k,k,1,0.798087399918586,510.3925784000894,511.40637850004714,511.3897518001031,None,510.3925784000894,None,510.3925784000894,None,510.3925784000894,None,512.1896783300559,None,512.1896783300559,None,512.1896783300559,None,,,,,,,,,,,,,031,2022-05-26_19h57.55.527,Main,2022.1.1,60.01748908975226,
negative,negative,1,j,l,,,,,,,,,10,2,182,0,,,,,,,,,main,2,2,1,negative,negative,l,l,1,0.8293823999119923,512.1930405000458,513.206318300101,513.1896946000634,None,512.1930405000458,None,512.1930405000458,None,512.1930405000458,None,514.0204018300516,None,514.0204018300516,None,514.0204018300516,None,,,,,,,,,,,,,031,2022-05-26_19h57.55.527,Main,2022.1.1,60.01748908975226,
positive,positive,2,l,j,,,,,,,,,10,3,183,11,,,,,,,,,main,2,2,2,positive,positive,j,j,1,1.0317646000767127,514.0204041000688,515.0203610000899,515.0203610000899,None,514.0204041000688,None,514.0204041000688,None,514.0204041000688,None,516.053753130103,None,516.053753130103,None,516.053753130103,None,,,,,,,,,,,,,031,2022-05-26_19h57.55.527,Main,2022.1.1,60.01748908975226,
positive,negative,2,l,j,,,,,,,,,10,4,184,14,,,,,,,,,main,2,2,2,negative,positive,j,j,1,0.9340064999414608,516.0575032000197,517.0728813000023,517.0563204000937,None,516.0575032000197,None,516.0575032000197,None,516.0575032000197,None,517.9895876299939,None,517.9895876299939,None,517.9895876299939,None,,,,,,,,,,,,,031,2022-05-26_19h57.55.527,Main,2022.1.1,60.01748908975226,
negative,positive,2,j,l,,,,,,,,,10,5,185,15,,,,,,,,,main,2,2,2,positive,negative,l,l,1,1.0126541000790894,517.9924791000085,519.0061959000304,518.9895810000598,None,517.9924791000085,None,517.9924791000085,None,517.9924791000085,None,520.0036817300949,None,520.0036817300949,None,520.0036817300949,None,,,,,,,,,,,,,031,2022-05-26_19h57.55.527,Main,2022.1.1,60.01748908975226,
neutral,neutral,1,k,k,,,,,,,,,10,6,186,1,,,,,,,,,main,2,2,1,neutral,neutral,k,k,1,0.901547500048764,520.0100322000217,521.0228302000323,521.0062123000389,None,520.0100322000217,None,520.0100322000217,None,520.0100322000217,None,521.9061706300942,None,521.9061706300942,None,521.9061706300942,None,,,,,,,,,,,,,031,2022-05-26_19h57.55.527,Main,2022.1.1,60.01748908975226,
negative,neutral,2,j,l,,,,,,,,,10,7,187,12,,,,,,,,,main,1,1,2,neutral,negative,l,l,1,0.8476459999801591,521.9101219000295,522.9227755001048,522.9061826000689,None,521.9101219000295,None,521.9101219000295,None,521.9101219000295,None,523.7561865300755,None,523.7561865300755,None,523.7561865300755,None,,,,,,,,,,,,,031,2022-05-26_19h57.55.527,Main,2022.1.1,60.01748908975226,
neutral,negative,2,k,k,,,,,,,,,10,8,188,16,,,,,,,,,main,1,1,2,negative,neutral,k,k,1,1.0289957999484614,523.7590086000273,524.770140800043,524.7534667000873,None,523.7590086000273,None,523.7590086000273,None,523.7590086000273,None,525.786832330015,None,525.786832330015,None,525.786832330015,None,,,,,,,,,,,,,031,2022-05-26_19h57.55.527,Main,2022.1.1,60.01748908975226,
neutral,negative,1,k,k,,,,,,,,,10,9,189,7,,,,,,,,,main,2,2,1,negative,neutral,k,k,1,1.0175923000788316,525.7868134001037,526.7893795000855,526.7893795000855,None,525.7868134001037,None,525.7868134001037,None,525.7868134001037,None,527.8060764300986,None,527.8060764300986,None,527.8060764300986,None,,,,,,,,,,,,,031,2022-05-26_19h57.55.527,Main,2022.1.1,60.01748908975226,
positive,positive,1,l,j,,,,,,,,,10,10,190,2,,,,,,,,,main,2,2,1,positive,positive,j,l,0,1.0817742000799626,527.8096789000556,528.8225992000662,528.8060072000371,None,527.8096789000556,None,527.8096789000556,None,527.8096789000556,None,529.8893434000202,None,529.8893434000202,None,529.8893434000202,None,,,,,,,,,,,,,031,2022-05-26_19h57.55.527,Main,2022.1.1,60.01748908975226,
neutral,positive,2,k,k,,,,,,,,,10,11,191,13,,,,,,,,,main,2,2,2,positive,neutral,k,k,1,1.1533384000649676,530.887882900075,531.8892610000912,531.8726581000956,None,530.887882900075,None,530.887882900075,None,530.887882900075,None,533.0393078300054,None,533.0393078300054,None,533.0393078300054,None,,,,,,,,,,,,,031,2022-05-26_19h57.55.527,Main,2022.1.1,60.01748908975226,
negative,positive,1,j,l,,,,,,,,,10,12,192,6,,,,,,,,,main,2,2,1,positive,negative,l,l,1,0.9114375000353903,533.0437167000491,534.0558615000919,534.0392845000606,None,533.0437167000491,None,533.0437167000491,None,533.0437167000491,None,534.9533012300614,None,534.9533012300614,None,534.9533012300614,None,,,,,,,,,,,,,031,2022-05-26_19h57.55.527,Main,2022.1.1,60.01748908975226,
positive,neutral,2,l,j,,,,,,,,,10,13,193,17,,,,,,,,,main,2,2,2,neutral,positive,j,j,1,0.8482582999859005,534.9532847000519,535.9532588000875,535.9532588000875,None,534.9532847000519,None,534.9532847000519,None,534.9532847000519,None,536.8032488301047,None,536.8032488301047,None,536.8032488301047,None,,,,,,,,,,,,,031,2022-05-26_19h57.55.527,Main,2022.1.1,60.01748908975226,
negative,negative,2,j,l,,,,,,,,,10,14,194,9,,,,,,,,,main,2,2,2,negative,negative,l,l,1,1.050890399958007,536.8033853000961,537.8032545000315,537.8032545000315,None,536.8033853000961,None,536.8033853000961,None,536.8033853000961,None,538.8557092300267,None,538.8557092300267,None,538.8557092300267,None,,,,,,,,,,,,,031,2022-05-26_19h57.55.527,Main,2022.1.1,60.01748908975226,
positive,neutral,1,l,j,,,,,,,,,10,15,195,8,,,,,,,,,main,1,1,1,neutral,positive,j,j,1,0.9963361999252811,538.8584060000721,539.8723759000422,539.855782300001,None,538.8584060000721,None,538.8584060000721,None,538.8584060000721,None,540.8535298300791,None,540.8535298300791,None,540.8535298300791,None,,,,,,,,,,,,,031,2022-05-26_19h57.55.527,Main,2022.1.1,60.01748908975226,
negative,neutral,1,j,l,,,,,,,,,10,16,196,3,,,,,,,,,main,1,1,1,neutral,negative,l,l,1,0.8170425000134856,540.8569434999954,541.8723562000087,541.8557510999963,None,540.8569434999954,None,540.8569434999954,None,540.8569434999954,None,542.6723784299917,None,542.6723784299917,None,542.6723784299917,None,,,,,,,,,,,,,031,2022-05-26_19h57.55.527,Main,2022.1.1,60.01748908975226,
neutral,positive,1,k,k,,,,,,,,,10,17,197,4,,,,,,,,,main,2,2,1,positive,neutral,k,k,1,0.8643799000419676,542.6763980000978,543.6890016000252,543.6724150000373,None,542.6763980000978,None,542.6763980000978,None,542.6763980000978,None,544.5390370300389,None,544.5390370300389,None,544.5390370300389,None,,,,,,,,,,,,,031,2022-05-26_19h57.55.527,Main,2022.1.1,60.01748908975226,
positive,neutral,1,l,j,,,,,,,,,11,0,198,8,,,,,,,,,main,2,2,1,neutral,positive,j,j,1,1.0123729000333697,544.5421735000564,545.553065800108,545.536407400039,None,544.5421735000564,None,544.5421735000564,None,544.5421735000564,None,546.55305293001,None,546.55305293001,None,546.55305293001,None,,,,,,,,,,,,,031,2022-05-26_19h57.55.527,Main,2022.1.1,60.01748908975226,
negative,neutral,2,j,l,,,,,,,,,11,1,199,12,,,,,,,,,main,2,2,2,neutral,negative,l,l,1,0.8512071000877768,546.5531593000051,547.5530684000114,547.5530684000114,None,546.5531593000051,None,546.5531593000051,None,546.5531593000051,None,548.4055824300391,None,548.4055824300391,None,548.4055824300391,None,,,,,,,,,,,,,031,2022-05-26_19h57.55.527,Main,2022.1.1,60.01748908975226,
neutral,positive,1,k,k,,,,,,,,,11,2,200,4,,,,,,,,,main,2,2,1,positive,neutral,k,k,1,0.864887599949725,548.4088963000104,549.4222725,549.4056185000809,None,548.4088963000104,None,548.4088963000104,None,548.4088963000104,None,550.2722900299938,None,550.2722900299938,None,550.2722900299938,None,,,,,,,,,,,,,031,2022-05-26_19h57.55.527,Main,2022.1.1,60.01748908975226,
positive,positive,1,l,j,,,,,,,,,11,3,201,2,,,,,,,,,main,2,2,1,positive,positive,j,j,1,0.83016440004576,550.2754645000678,551.2888687000377,551.272250900045,None,550.2754645000678,None,550.2754645000678,None,550.2754645000678,None,552.1033146300703,None,552.1033146300703,None,552.1033146300703,None,,,,,,,,,,,,,031,2022-05-26_19h57.55.527,Main,2022.1.1,60.01748908975226,
positive,negative,1,l,j,,,,,,,,,11,4,202,5,,,,,,,,,main,1,1,1,negative,positive,j,j,1,0.8139867000281811,552.10753690009,553.1221415000036,553.1056225000648,None,552.10753690009,None,552.10753690009,None,552.10753690009,None,553.9199040300097,None,553.9199040300097,None,553.9199040300097,None,,,,,,,,,,,,,031,2022-05-26_19h57.55.527,Main,2022.1.1,60.01748908975226,
positive,neutral,2,l,j,,,,,,,,,11,5,203,17,,,,,,,,,main,2,2,2,neutral,positive,j,j,1,0.7323804000625387,553.9231820000568,554.9387374999933,554.9221154000843,None,553.9231820000568,None,553.9231820000568,None,553.9231820000568,None,555.653227830038,None,555.653227830038,None,555.653227830038,None,,,,,,,,,,,,,031,2022-05-26_19h57.55.527,Main,2022.1.1,60.01748908975226,
positive,positive,2,l,j,,,,,,,,,11,6,204,11,,,,,,,,,main,1,1,2,positive,positive,j,j,1,0.7307813999941573,555.657191400067,556.6694891999941,556.6528204000788,None,555.657191400067,None,555.657191400067,None,555.657191400067,None,557.3861605299986,None,557.3861605299986,None,557.3861605299986,None,,,,,,,,,,,,,031,2022-05-26_19h57.55.527,Main,2022.1.1,60.01748908975226,
neutral,positive,2,k,k,,,,,,,,,11,7,205,13,,,,,,,,,main,2,2,2,positive,neutral,k,k,1,0.8320464000571519,557.3862185000908,558.3861595001072,558.3861595001072,None,557.3862185000908,None,557.3862185000908,None,557.3862185000908,None,559.2198346299934,None,559.2198346299934,None,559.2198346299934,None,,,,,,,,,,,,,031,2022-05-26_19h57.55.527,Main,2022.1.1,60.01748908975226,
neutral,negative,2,k,k,,,,,,,,,11,8,206,16,,,,,,,,,main,2,2,2,negative,neutral,k,k,1,0.8317836999194697,559.2230198000325,560.2220822999952,560.2220822999952,None,559.2230198000325,None,559.2230198000325,None,559.2230198000325,None,561.05310273004,None,561.05310273004,None,561.05310273004,None,,,,,,,,,,,,,031,2022-05-26_19h57.55.527,Main,2022.1.1,60.01748908975226,
neutral,neutral,2,k,k,,,,,,,,,11,9,207,10,,,,,,,,,main,2,2,2,neutral,neutral,k,k,1,0.6670827000634745,561.0566418000963,562.0719627999933,562.055374699994,None,561.0566418000963,None,561.0566418000963,None,561.0566418000963,None,562.7220534300083,None,562.7220534300083,None,562.7220534300083,None,,,,,,,,,,,,,031,2022-05-26_19h57.55.527,Main,2022.1.1,60.01748908975226,
negative,negative,1,j,l,,,,,,,,,11,10,208,0,,,,,,,,,main,1,1,1,negative,negative,l,l,1,0.7954492999706417,562.7259370000102,563.7385892000748,563.7220125000458,None,562.7259370000102,None,562.7259370000102,None,562.7259370000102,None,564.5197147300584,None,564.5197147300584,None,564.5197147300584,None,,,,,,,,,,,,,031,2022-05-26_19h57.55.527,Main,2022.1.1,60.01748908975226,
neutral,negative,1,k,k,,,,,,,,,11,11,209,7,,,,,,,,,main,1,1,1,negative,neutral,k,k,1,0.8343870000680909,564.5231343000196,565.5385516000679,565.5219584000297,None,564.5231343000196,None,564.5231343000196,None,564.5231343000196,None,566.3557826300035,None,566.3557826300035,None,566.3557826300035,None,,,,,,,,,,,,,031,2022-05-26_19h57.55.527,Main,2022.1.1,60.01748908975226,
negative,positive,1,j,l,,,,,,,,,11,12,210,6,,,,,,,,,main,2,2,1,positive,negative,l,l,1,0.8290503999451175,566.3696403000504,567.3694911000784,567.3528357000323,None,566.3696403000504,None,566.3696403000504,None,566.3696403000504,None,568.1861595300376,None,568.1861595300376,None,568.1861595300376,None,,,,,,,,,,,,,031,2022-05-26_19h57.55.527,Main,2022.1.1,60.01748908975226,
neutral,neutral,1,k,k,,,,,,,,,11,13,211,1,,,,,,,,,main,2,2,1,neutral,neutral,k,k,1,0.964845799957402,568.1893404000439,569.2028213000158,569.1861448000418,None,568.1893404000439,None,568.1893404000439,None,568.1893404000439,None,570.1528215300874,None,570.1528215300874,None,570.1528215300874,None,,,,,,,,,,,,,031,2022-05-26_19h57.55.527,Main,2022.1.1,60.01748908975226,
negative,positive,2,j,l,,,,,,,,,11,14,212,15,,,,,,,,,main,1,1,2,positive,negative,l,l,1,0.8150433999253437,570.1563862001058,571.1694523000624,571.1550751000177,None,570.1563862001058,None,570.1563862001058,None,570.1563862001058,None,571.9694590300438,None,571.9694590300438,None,571.9694590300438,None,,,,,,,,,,,,,031,2022-05-26_19h57.55.527,Main,2022.1.1,60.01748908975226,
negative,neutral,1,j,l,,,,,,,,,11,15,213,3,,,,,,,,,main,1,1,1,neutral,negative,l,l,1,0.817066700081341,571.9725905000232,572.9860747000203,572.9715976000298,None,571.9725905000232,None,571.9725905000232,None,571.9725905000232,None,573.7881896301056,None,573.7881896301056,None,573.7881896301056,None,,,,,,,,,,,,,031,2022-05-26_19h57.55.527,Main,2022.1.1,60.01748908975226,
positive,negative,2,l,j,,,,,,,,,11,16,214,14,,,,,,,,,main,1,1,2,negative,positive,j,j,1,0.9299441000912338,573.7908232000191,574.8049087000545,574.7860922000837,None,573.7908232000191,None,573.7908232000191,None,573.7908232000191,None,575.7194180300809,None,575.7194180300809,None,575.7194180300809,None,,,,,,,,,,,,,031,2022-05-26_19h57.55.527,Main,2022.1.1,60.01748908975226,
negative,negative,2,j,l,,,,,,,,,11,17,215,9,,,,,,,,,main,1,1,2,negative,negative,l,l,1,0.8313615000806749,575.7230280000949,576.7360534000909,576.7216658000834,None,575.7230280000949,None,575.7230280000949,None,575.7230280000949,None,577.5527568300837,None,577.5527568300837,None,577.5527568300837,None,,,,,,,,,,,,,031,2022-05-26_19h57.55.527,Main,2022.1.1,60.01748908975226,
neutral,negative,2,k,k,,,,,,,,,12,0,216,16,,,,,,,,,main,1,1,2,negative,neutral,k,k,1,0.8479671999812126,577.5555974000599,578.5690263001015,578.5523527000332,None,577.5555974000599,None,577.5555974000599,None,577.5555974000599,None,579.4023642300978,None,579.4023642300978,None,579.4023642300978,None,,,,,,,,,,,,,031,2022-05-26_19h57.55.527,Main,2022.1.1,60.01748908975226,
negative,neutral,1,j,l,,,,,,,,,12,1,217,3,,,,,,,,,main,1,1,1,neutral,negative,l,l,1,0.8178984000114724,579.4023483000929,580.4023786000907,580.4023786000907,None,579.4023483000929,None,579.4023483000929,None,579.4023483000929,None,581.2216214300948,None,581.2216214300948,None,581.2216214300948,None,,,,,,,,,,,,,031,2022-05-26_19h57.55.527,Main,2022.1.1,60.01748908975226,
positive,positive,1,l,j,,,,,,,,,12,2,218,2,,,,,,,,,main,2,2,1,positive,positive,j,j,1,0.8622797999996692,581.2247907000128,582.2385084000416,582.2216008000541,None,581.2247907000128,None,581.2247907000128,None,581.2247907000128,None,583.0856713300687,None,583.0856713300687,None,583.0856713300687,None,,,,,,,,,,,,,031,2022-05-26_19h57.55.527,Main,2022.1.1,60.01748908975226,
negative,neutral,2,j,l,,,,,,,,,12,3,219,12,,,,,,,,,main,2,2,2,neutral,negative,l,l,1,0.8676080000586808,583.091817400069,584.1048242000397,584.0882179000182,None,583.091817400069,None,583.091817400069,None,583.091817400069,None,584.9548042300972,None,584.9548042300972,None,584.9548042300972,None,,,,,,,,,,,,,031,2022-05-26_19h57.55.527,Main,2022.1.1,60.01748908975226,
positive,neutral,1,l,j,,,,,,,,,12,4,220,8,,,,,,,,,main,2,2,1,neutral,positive,j,j,1,0.8627307000569999,584.9577344000572,585.971387400059,585.9547756999964,None,584.9577344000572,None,584.9577344000572,None,584.9577344000572,None,586.819230030023,None,586.819230030023,None,586.819230030023,None,,,,,,,,,,,,,031,2022-05-26_19h57.55.527,Main,2022.1.1,60.01748908975226,
neutral,neutral,1,k,k,,,,,,,,,12,5,221,1,,,,,,,,,main,1,1,1,neutral,neutral,k,k,1,0.8517318000085652,586.8223718000809,587.8214989000699,587.8214989000699,None,586.8223718000809,None,586.8223718000809,None,586.8223718000809,None,588.6726492300746,None,588.6726492300746,None,588.6726492300746,None,,,,,,,,,,,,,031,2022-05-26_19h57.55.527,Main,2022.1.1,60.01748908975226,
negative,negative,1,j,l,,,,,,,,,12,6,222,0,,,,,,,,,main,2,2,1,negative,negative,l,l,1,0.7947019001003355,588.6857461000327,589.685457500047,589.668794700061,None,588.6857461000327,None,588.6857461000327,None,588.6857461000327,None,590.4687974300119,None,590.4687974300119,None,590.4687974300119,None,,,,,,,,,,,,,031,2022-05-26_19h57.55.527,Main,2022.1.1,60.01748908975226,
positive,positive,2,l,j,,,,,,,,,12,7,223,11,,,,,,,,,main,1,1,2,positive,positive,j,j,1,0.8843366000801325,590.4694164000684,591.4688255999936,591.4688255999936,None,590.4694164000684,None,590.4694164000684,None,590.4694164000684,None,592.3547274300014,None,592.3547274300014,None,592.3547274300014,None,,,,,,,,,,,,,031,2022-05-26_19h57.55.527,Main,2022.1.1,60.01748908975226,
neutral,negative,1,k,k,,,,,,,,,12,8,224,7,,,,,,,,,main,1,1,1,negative,neutral,k,k,1,0.8313478999771178,592.3577453000471,593.3713194000302,593.3547227000818,None,592.3577453000471,None,592.3577453000471,None,592.3577453000471,None,594.1879537300789,None,594.1879537300789,None,594.1879537300789,None,,,,,,,,,,,,,031,2022-05-26_19h57.55.527,Main,2022.1.1,60.01748908975226,
