target,distractor,set,ans1,ans2,rep_loop2.thisRepN,rep_loop2.thisTrialN,rep_loop2.thisN,rep_loop2.thisIndex,flanker_prac_loop.thisRepN,flanker_prac_loop.thisTrialN,flanker_prac_loop.thisN,flanker_prac_loop.thisIndex,flanker_main_loop.thisRepN,flanker_main_loop.thisTrialN,flanker_main_loop.thisN,flanker_main_loop.thisIndex,fl_inst_resp.keys,fl_inst_resp.rt,sound_1.started,sound_1.stopped,image_4.started,image_4.stopped,back_2.started,back_2.stopped,main_prac,fl_cold,fl_colt,fl_set,fl_dcond,fl_tcond,fl_ans,fl_res,fl_corr,fl_rt,fix_fl.started,fix_fl.stopped,targ.started,targ.stopped,j_button.started,j_button.stopped,k_button.started,k_button.stopped,l_button.started,l_button.stopped,j_button2.started,j_button2.stopped,k_button2.started,k_button2.stopped,l_button2.started,l_button2.stopped,mainback.started,mainback.stopped,key_resp.keys,key_resp.rt,mouse_6.x,mouse_6.y,mouse_6.leftButton,mouse_6.midButton,mouse_6.rightButton,mouse_6.started,mouse_6.stopped,text_2.started,text_2.stopped,id*,date,expName,psychopyVersion,frameRate,
,,,,,0,0,0,0,,,,,,,,,space,52.03507250000257,18.23368359997403,None,70.29685629997402,None,,,,,,,,,,,,,,,,,,,,,,,,,,,,,,,,,,,,,,,,,,032,2022-05-27_10h30.47.882,Main,2022.1.1,59.99761210479411,
,,,,,1,0,1,0,,,,,,,,,space,0.6759113000007346,75.7856816999847,None,76.4824030000018,None,,,,,,,,,,,,,,,,,,,,,,,,,,,,,,,,,,,,,,,,,,032,2022-05-27_10h30.47.882,Main,2022.1.1,59.99761210479411,
negative,positive,2,j,l,,,,,0,0,0,15,,,,,,,,,,,79.69663389993366,None,prac,2,2,2,positive,negative,j,j,1,3.291318800067529,81.72893839993048,82.73240750003606,82.71599409996998,None,81.72893839993048,None,81.72893839993048,None,81.72893839993048,None,86.01438019995112,None,86.01438019995112,None,86.01438019995112,None,,,,,,,,,,,,,,032,2022-05-27_10h30.47.882,Main,2022.1.1,59.99761210479411,
negative,positive,1,j,l,,,,,0,1,1,6,,,,,,,,,,,,,prac,1,1,1,positive,negative,j,j,1,1.1674130999017507,87.02517709997483,88.03027500002645,88.01371550001204,None,87.02517709997483,None,87.02517709997483,None,87.02517709997483,None,89.17962399998214,None,89.17962399998214,None,89.17962399998214,None,,,,,,,,,,,,,,032,2022-05-27_10h30.47.882,Main,2022.1.1,59.99761210479411,
positive,positive,2,l,j,,,,,0,2,2,11,,,,,,,,,,,,,prac,2,2,2,positive,positive,l,l,1,1.182383400038816,89.17964979994576,90.17984360002447,90.17984360002447,None,89.17964979994576,None,89.17964979994576,None,89.17964979994576,None,91.36326859996188,None,91.36326859996188,None,91.36326859996188,None,,,,,,,,,,,,,,032,2022-05-27_10h30.47.882,Main,2022.1.1,59.99761210479411,
negative,negative,1,j,l,,,,,0,3,3,0,,,,,,,,,,,,,prac,2,2,1,negative,negative,j,j,1,1.2983090999769047,91.36791899998207,92.37971100001596,92.36560060002375,None,91.36791899998207,None,91.36791899998207,None,91.36791899998207,None,93.66321150003932,None,93.66321150003932,None,93.66321150003932,None,,,,,,,,,,,,,,032,2022-05-27_10h30.47.882,Main,2022.1.1,59.99761210479411,
neutral,negative,2,k,k,,,,,0,4,4,16,,,,,,,,,,,,,prac,2,2,2,negative,neutral,k,k,1,1.215288900071755,93.67651849996764,94.68208729999606,94.66542710002977,None,93.67651849996764,None,93.67651849996764,None,93.67651849996764,None,95.87984910001978,None,95.87984910001978,None,95.87984910001978,None,,,,,,,,,,,,,,032,2022-05-27_10h30.47.882,Main,2022.1.1,59.99761210479411,
neutral,positive,2,k,k,,,,,0,5,5,13,,,,,,,,,,,,,prac,1,1,2,positive,neutral,k,k,1,0.898820300004445,95.89308249996975,96.89864409994334,96.88210659998003,None,95.89308249996975,None,95.89308249996975,None,95.89308249996975,None,97.77978260000236,None,97.77978260000236,None,97.77978260000236,None,,,,,,,,,,,,,,032,2022-05-27_10h30.47.882,Main,2022.1.1,59.99761210479411,
negative,negative,2,j,l,,,,,0,6,6,9,,,,,,,,,,,,,prac,1,1,2,negative,negative,j,j,1,0.9480731000658125,97.79493390000425,98.79862869996578,98.78207730001304,None,97.79493390000425,None,97.79493390000425,None,97.79493390000425,None,99.7293940000236,None,99.7293940000236,None,99.7293940000236,None,,,,,,,,,,,,,,032,2022-05-27_10h30.47.882,Main,2022.1.1,59.99761210479411,
positive,neutral,2,l,j,,,,,0,7,7,17,,,,,,,,,,,,,prac,2,2,2,neutral,positive,l,l,1,0.8655294999480247,99.74168289999943,100.74606279993895,100.72938119992614,None,99.74168289999943,None,99.74168289999943,None,99.74168289999943,None,101.59607680002227,None,101.59607680002227,None,101.59607680002227,None,,,,,,,,,,,,,,032,2022-05-27_10h30.47.882,Main,2022.1.1,59.99761210479411,
neutral,neutral,2,k,k,,,,,0,8,8,10,,,,,,,,,,,,,prac,2,2,2,neutral,neutral,k,k,1,0.8985544999595731,101.59915559994988,102.59878360002767,102.58196929993574,None,101.59915559994988,None,101.59915559994988,None,101.59915559994988,None,103.49603549996391,None,103.49603549996391,None,103.49603549996391,None,,,,,,,,,,,,,,032,2022-05-27_10h30.47.882,Main,2022.1.1,59.99761210479411,
positive,positive,1,l,j,,,,,0,9,9,2,,,,,,,,,,,,,prac,1,1,1,positive,positive,l,l,1,1.0056750000221655,103.50021490000654,104.51515829993878,104.49856159999035,None,103.50021490000654,None,103.50021490000654,None,103.50021490000654,None,105.49847330001649,None,105.49847330001649,None,105.49847330001649,None,,,,,,,,,,,,,,032,2022-05-27_10h30.47.882,Main,2022.1.1,59.99761210479411,
positive,neutral,1,l,j,,,,,0,10,10,8,,,,,,,,,,,,,prac,2,2,1,neutral,positive,l,l,1,0.9402405999135226,105.51827759994194,106.53175620001275,106.49850370001514,None,105.51827759994194,None,105.51827759994194,None,105.51827759994194,None,107.4462368999375,None,107.4462368999375,None,107.4462368999375,None,,,,,,,,,,,,,,032,2022-05-27_10h30.47.882,Main,2022.1.1,59.99761210479411,
negative,neutral,1,j,l,,,,,0,11,11,3,,,,,,,,,,,,,prac,2,2,1,neutral,negative,j,j,1,1.0483729999978095,107.4500221000053,108.46511039999314,108.448503099964,None,107.4500221000053,None,107.4500221000053,None,107.4500221000053,None,109.49591229995713,None,109.49591229995713,None,109.49591229995713,None,,,,,,,,,,,,,,032,2022-05-27_10h30.47.882,Main,2022.1.1,59.99761210479411,
negative,neutral,2,j,l,,,,,0,12,12,12,,,,,,,,,,,,,prac,1,1,2,neutral,negative,j,j,1,0.9829771999502555,109.50023519992828,110.51252440002281,110.49608930002432,None,109.50023519992828,None,109.50023519992828,None,109.50023519992828,None,111.47913829993922,None,111.47913829993922,None,111.47913829993922,None,,,,,,,,,,,,,,032,2022-05-27_10h30.47.882,Main,2022.1.1,59.99761210479411,
neutral,neutral,1,k,k,,,,,0,13,13,1,,,,,,,,,,,,,prac,1,1,1,neutral,neutral,k,k,1,0.9478655999992043,111.4865562999621,112.49837719998322,112.48175889998674,None,111.4865562999621,None,111.4865562999621,None,111.4865562999621,None,113.42943050002214,None,113.42943050002214,None,113.42943050002214,None,,,,,,,,,,,,,,032,2022-05-27_10h30.47.882,Main,2022.1.1,59.99761210479411,
neutral,positive,1,k,k,,,,,0,14,14,4,,,,,,,,,,,,,prac,2,2,1,positive,neutral,k,k,1,0.8822979999240488,113.44344870001078,114.44828220002819,114.43175119999796,None,113.44344870001078,None,113.44344870001078,None,113.44344870001078,None,115.3127392999595,None,115.3127392999595,None,115.3127392999595,None,,,,,,,,,,,,,,032,2022-05-27_10h30.47.882,Main,2022.1.1,59.99761210479411,
positive,negative,1,l,j,,,,,0,15,15,5,,,,,,,,,,,,,prac,2,2,1,negative,positive,l,l,1,0.9653616000432521,115.31841519998852,116.32969869999215,116.31509669998195,None,115.31841519998852,None,115.31841519998852,None,115.31841519998852,None,117.2793719000183,None,117.2793719000183,None,117.2793719000183,None,,,,,,,,,,,,,,032,2022-05-27_10h30.47.882,Main,2022.1.1,59.99761210479411,
neutral,negative,1,k,k,,,,,0,16,16,7,,,,,,,,,,,,,prac,2,2,1,negative,neutral,k,k,1,0.8319914999883622,117.28250600001775,118.28158059995621,118.26505429996178,None,117.28250600001775,None,117.28250600001775,None,117.28250600001775,None,119.11266310000792,None,119.11266310000792,None,119.11266310000792,None,,,,,,,,,,,,,,032,2022-05-27_10h30.47.882,Main,2022.1.1,59.99761210479411,
positive,negative,2,l,j,,,,,0,17,17,14,,,,,,,,,,,,,prac,1,1,2,negative,positive,l,l,1,0.898457899922505,119.11666739999782,120.1289911000058,120.1123254999984,None,119.11666739999782,None,119.11666739999782,None,119.11666739999782,None,121.0126195999328,None,121.0126195999328,None,121.0126195999328,None,,,,,,,,,,,,,,032,2022-05-27_10h30.47.882,Main,2022.1.1,59.99761210479411,
negative,negative,2,j,l,,,,,1,0,18,9,,,,,,,,,,,,,prac,1,1,2,negative,negative,j,j,1,0.9357133000157773,121.01229829993099,122.01231319992803,122.01231319992803,None,121.01229829993099,None,121.01229829993099,None,121.01229829993099,None,122.94588340003975,None,122.94588340003975,None,122.94588340003975,None,,,,,,,,,,,,,,032,2022-05-27_10h30.47.882,Main,2022.1.1,59.99761210479411,
negative,negative,1,j,l,,,,,1,1,19,0,,,,,,,,,,,,,prac,2,2,1,negative,negative,j,j,1,0.9465546000283211,122.956493100035,123.96485839993693,123.94884009996895,None,122.956493100035,None,122.956493100035,None,122.956493100035,None,124.89818959997501,None,124.89818959997501,None,124.89818959997501,None,,,,,,,,,,,,,,032,2022-05-27_10h30.47.882,Main,2022.1.1,59.99761210479411,
negative,positive,1,j,l,,,,,1,2,20,6,,,,,,,,,,,,,prac,2,2,1,positive,negative,j,j,1,0.865243999985978,124.90100870002061,125.91481879993808,125.89822959993035,None,124.90100870002061,None,124.90100870002061,None,124.90100870002061,None,126.76475820003543,None,126.76475820003543,None,126.76475820003543,None,,,,,,,,,,,,,,032,2022-05-27_10h30.47.882,Main,2022.1.1,59.99761210479411,
neutral,positive,1,k,k,,,,,1,3,21,4,,,,,,,,,,,,,prac,2,2,1,positive,neutral,k,k,1,0.8471530999522656,126.76760210003704,127.78143380000256,127.76476079993881,None,126.76760210003704,None,126.76760210003704,None,126.76760210003704,None,128.61299419996794,None,128.61299419996794,None,128.61299419996794,None,,,,,,,,,,,,,,032,2022-05-27_10h30.47.882,Main,2022.1.1,59.99761210479411,
positive,neutral,1,l,j,,,,,1,4,22,8,,,,,,,,,,,,,prac,2,2,1,neutral,positive,l,l,1,0.8313613999634981,128.6160569000058,129.63134660001379,129.61475429998245,None,128.6160569000058,None,128.6160569000058,None,128.6160569000058,None,130.44574140000623,None,130.44574140000623,None,130.44574140000623,None,,,,,,,,,,,,,,032,2022-05-27_10h30.47.882,Main,2022.1.1,59.99761210479411,
positive,positive,2,l,j,,,,,1,5,23,11,,,,,,,,,,,,,prac,1,1,2,positive,positive,l,l,1,0.9151943000033498,130.44862739997916,131.4617512000259,131.44437990000006,None,130.44862739997916,None,130.44862739997916,None,130.44862739997916,None,132.36206429998856,None,132.36206429998856,None,132.36206429998856,None,,,,,,,,,,,,,,032,2022-05-27_10h30.47.882,Main,2022.1.1,59.99761210479411,
neutral,neutral,2,k,k,,,,,1,6,24,10,,,,,,,,,,,,,prac,2,2,2,neutral,neutral,k,k,1,0.8656567999860272,132.36211460002232,133.3621012000367,133.3621012000367,None,132.36211460002232,None,132.36211460002232,None,132.36211460002232,None,134.22906289994717,None,134.22906289994717,None,134.22906289994717,None,,,,,,,,,,,,,,032,2022-05-27_10h30.47.882,Main,2022.1.1,59.99761210479411,
negative,neutral,1,j,l,,,,,1,7,25,3,,,,,,,,,,,,,prac,2,2,1,neutral,negative,j,j,1,0.9357211999595165,134.24794289993588,135.24595619994216,135.23142590001225,None,134.24794289993588,None,134.24794289993588,None,134.24794289993588,None,136.16233590000775,None,136.16233590000775,None,136.16233590000775,None,,,,,,,,,,,,,,032,2022-05-27_10h30.47.882,Main,2022.1.1,59.99761210479411,
negative,positive,2,j,l,,,,,1,8,26,15,,,,,,,,,,,,,prac,2,2,2,positive,negative,j,j,1,0.9111353999469429,136.1695519000059,137.18130940000992,137.16459219995886,None,136.1695519000059,None,136.1695519000059,None,136.1695519000059,None,138.0789661000017,None,138.0789661000017,None,138.0789661000017,None,,,,,,,,,,,,,,032,2022-05-27_10h30.47.882,Main,2022.1.1,59.99761210479411,
neutral,positive,2,k,k,,,,,1,9,27,13,,,,,,,,,,,,,prac,2,2,2,positive,neutral,k,k,1,0.8506277999840677,138.08493449992966,139.0983851000201,139.0792053999612,None,138.08493449992966,None,138.08493449992966,None,138.08493449992966,None,139.93114300002344,None,139.93114300002344,None,139.93114300002344,None,,,,,,,,,,,,,,032,2022-05-27_10h30.47.882,Main,2022.1.1,59.99761210479411,
positive,neutral,2,l,j,,,,,1,10,28,17,,,,,,,,,,,,,prac,2,2,2,neutral,positive,l,l,1,0.7662623000796884,139.93502069998067,140.94784629996866,140.93121479998808,None,139.93502069998067,None,139.93502069998067,None,139.93502069998067,None,141.69874719996005,None,141.69874719996005,None,141.69874719996005,None,,,,,,,,,,,,,,032,2022-05-27_10h30.47.882,Main,2022.1.1,59.99761210479411,
positive,negative,2,l,j,,,,,1,11,29,14,,,,,,,,,,,,,prac,2,2,2,negative,positive,l,l,1,0.7607868999475613,141.71214790001977,142.71183609997388,142.6951714999741,None,141.71214790001977,None,141.71214790001977,None,141.71214790001977,None,143.46181759994943,None,143.46181759994943,None,143.46181759994943,None,,,,,,,,,,,,,,032,2022-05-27_10h30.47.882,Main,2022.1.1,59.99761210479411,
positive,negative,1,l,j,,,,,1,12,30,5,,,,,,,,,,,,,prac,2,2,1,negative,positive,l,l,1,0.8847494999645278,143.46181599993724,144.46442009997554,144.46442009997554,None,143.46181599993724,None,143.46181599993724,None,143.46181599993724,None,145.34771090000868,None,145.34771090000868,None,145.34771090000868,None,,,,,,,,,,,,,,032,2022-05-27_10h30.47.882,Main,2022.1.1,59.99761210479411,
neutral,negative,2,k,k,,,,,1,13,31,16,,,,,,,,,,,,,prac,2,2,2,negative,neutral,k,k,1,0.8296704000094905,145.35050539998338,146.36431039997842,146.34778730000835,None,145.35050539998338,None,145.35050539998338,None,145.35050539998338,None,147.1788540999405,None,147.1788540999405,None,147.1788540999405,None,,,,,,,,,,,,,,032,2022-05-27_10h30.47.882,Main,2022.1.1,59.99761210479411,
negative,neutral,2,j,l,,,,,1,14,32,12,,,,,,,,,,,,,prac,2,2,2,neutral,negative,j,j,1,0.7153059999691322,147.18403120001312,148.195247799973,148.16441780002788,None,147.18403120001312,None,147.18403120001312,None,147.18403120001312,None,148.89539009996224,None,148.89539009996224,None,148.89539009996224,None,,,,,,,,,,,,,,032,2022-05-27_10h30.47.882,Main,2022.1.1,59.99761210479411,
neutral,negative,1,k,k,,,,,1,15,33,7,,,,,,,,,,,,,prac,2,2,1,negative,neutral,k,k,1,0.8154334999853745,148.8983150999993,149.89761119999457,149.8810428000288,None,148.8983150999993,None,148.8983150999993,None,148.8983150999993,None,150.71200920001138,None,150.71200920001138,None,150.71200920001138,None,,,,,,,,,,,,,,032,2022-05-27_10h30.47.882,Main,2022.1.1,59.99761210479411,
neutral,neutral,1,k,k,,,,,1,16,34,1,,,,,,,,,,,,,prac,1,1,1,neutral,neutral,k,k,1,0.7786604000721127,150.71754400001373,151.73090880003292,151.71431029995438,None,150.71754400001373,None,150.71754400001373,None,150.71754400001373,None,152.49194949993398,None,152.49194949993398,None,152.49194949993398,None,,,,,,,,,,,,,,032,2022-05-27_10h30.47.882,Main,2022.1.1,59.99761210479411,
positive,positive,1,l,j,,,,,1,17,35,2,,,,,,,,,,,,,prac,1,1,1,positive,positive,l,l,1,0.8852940999204293,152.50682579993736,153.51160640001763,153.47827469999902,None,152.50682579993736,None,152.50682579993736,None,152.50682579993736,None,154.37826399994083,None,154.37826399994083,None,154.37826399994083,None,,,,,,,,,,,,,,032,2022-05-27_10h30.47.882,Main,2022.1.1,59.99761210479411,
,,,,,,,,,,,,,,,,,,,,,,,,,,,,,,,,,,,,,,,,,,,,,,,,,,,154.37826309993397,None,space,4.090651399921626,,,,,,,,,,032,2022-05-27_10h30.47.882,Main,2022.1.1,59.99761210479411,
,,,,,,,,,,,,,,,,,,,,,,,,,,,,,,,,,,,,,,,,,,,,,,,,,,,,,,,0.8009259,-0.21203704,0,0,0,0.011057500028982759,None,,,032,2022-05-27_10h30.47.882,Main,2022.1.1,59.99761210479411,
positive,positive,2,l,j,,,,,,,,,0,0,0,11,,,,,,,158.49745419993997,None,main,2,2,2,positive,positive,l,l,1,0.8789409000892192,160.50087600003462,161.51401559996884,161.49748789996374,None,160.50087600003462,None,160.50087600003462,None,160.50087600003462,None,162.37846179993358,None,162.37846179993358,None,162.37846179993358,None,,,,,,,,,,,,,,032,2022-05-27_10h30.47.882,Main,2022.1.1,59.99761210479411,
neutral,neutral,2,k,k,,,,,,,,,0,1,1,10,,,,,,,,,main,1,1,2,neutral,neutral,k,k,1,0.7967799999751151,162.38419999997132,163.3947350999806,163.3780710999854,None,162.38419999997132,None,162.38419999997132,None,162.38419999997132,None,164.17804859997705,None,164.17804859997705,None,164.17804859997705,None,,,,,,,,,,,,,,032,2022-05-27_10h30.47.882,Main,2022.1.1,59.99761210479411,
negative,neutral,1,j,l,,,,,,,,,0,2,2,3,,,,,,,,,main,1,1,1,neutral,negative,j,j,1,0.9669950000243261,164.17805410001893,165.17808819992933,165.17808819992933,None,164.17805410001893,None,164.17805410001893,None,164.17805410001893,None,166.14504259999376,None,166.14504259999376,None,166.14504259999376,None,,,,,,,,,,,,,,032,2022-05-27_10h30.47.882,Main,2022.1.1,59.99761210479411,
neutral,positive,2,k,k,,,,,,,,,0,3,3,13,,,,,,,,,main,1,1,2,positive,neutral,k,k,1,0.7817313999403268,166.15253500000108,167.1638722999487,167.14733549999073,None,166.15253500000108,None,166.15253500000108,None,166.15253500000108,None,167.93061649997253,None,167.93061649997253,None,167.93061649997253,None,,,,,,,,,,,,,,032,2022-05-27_10h30.47.882,Main,2022.1.1,59.99761210479411,
negative,negative,2,j,l,,,,,,,,,0,4,4,9,,,,,,,,,main,1,1,2,negative,negative,j,j,1,0.9150260000023991,167.93350209994242,168.94723229994997,168.93064030003734,None,167.93350209994242,None,167.93350209994242,None,167.93350209994242,None,169.84722709993366,None,169.84722709993366,None,169.84722709993366,None,,,,,,,,,,,,,,032,2022-05-27_10h30.47.882,Main,2022.1.1,59.99761210479411,
negative,positive,2,j,l,,,,,,,,,0,5,5,15,,,,,,,,,main,2,2,2,positive,negative,j,j,1,0.7486826000967994,169.85117039992474,170.86382890003733,170.84720950003248,None,169.85117039992474,None,169.85117039992474,None,169.85117039992474,None,171.5971150000114,None,171.5971150000114,None,171.5971150000114,None,,,,,,,,,,,,,,032,2022-05-27_10h30.47.882,Main,2022.1.1,59.99761210479411,
neutral,positive,1,k,k,,,,,,,,,0,6,6,4,,,,,,,,,main,2,2,1,positive,neutral,k,k,1,0.8140460000140592,171.6011056000134,172.61371399997734,172.59720489999745,None,171.6011056000134,None,171.6011056000134,None,171.6011056000134,None,173.41377859993372,None,173.41377859993372,None,173.41377859993372,None,,,,,,,,,,,,,,032,2022-05-27_10h30.47.882,Main,2022.1.1,59.99761210479411,
neutral,negative,2,k,k,,,,,,,,,0,7,7,16,,,,,,,,,main,1,1,2,negative,neutral,k,k,1,0.7625193999847397,173.4176380999852,174.42783719999716,174.41116110002622,None,173.4176380999852,None,173.4176380999852,None,173.4176380999852,None,175.17782410001382,None,175.17782410001382,None,175.17782410001382,None,,,,,,,,,,,,,,032,2022-05-27_10h30.47.882,Main,2022.1.1,59.99761210479411,
negative,negative,1,j,l,,,,,,,,,0,8,8,0,,,,,,,,,main,1,1,1,negative,negative,j,j,1,0.8344813999719918,175.1898952999618,176.19736170000397,176.18072880001273,None,175.1898952999618,None,175.1898952999618,None,175.1898952999618,None,177.01379470003303,None,177.01379470003303,None,177.01379470003303,None,,,,,,,,,,,,,,032,2022-05-27_10h30.47.882,Main,2022.1.1,59.99761210479411,
positive,negative,1,l,j,,,,,,,,,0,9,9,5,,,,,,,,,main,2,2,1,negative,positive,l,l,1,0.9132572999224067,177.01800039992668,178.03062919992954,178.01377229997888,None,177.01800039992668,None,177.01800039992668,None,177.01800039992668,None,178.92838289996143,None,178.92838289996143,None,178.92838289996143,None,,,,,,,,,,,,,,032,2022-05-27_10h30.47.882,Main,2022.1.1,59.99761210479411,
neutral,negative,1,k,k,,,,,,,,,0,10,10,7,,,,,,,,,main,1,1,1,negative,neutral,k,k,1,0.7980907999444753,178.9319908999605,179.94703000003938,179.93044249992818,None,178.9319908999605,None,178.9319908999605,None,178.9319908999605,None,180.72806839994155,None,180.72806839994155,None,180.72806839994155,None,,,,,,,,,,,,,,032,2022-05-27_10h30.47.882,Main,2022.1.1,59.99761210479411,
positive,positive,1,l,j,,,,,,,,,0,11,11,2,,,,,,,,,main,1,1,1,positive,positive,l,l,1,0.848179699969478,180.7325837999815,181.74690759996884,181.7303086000029,None,180.7325837999815,None,180.7325837999815,None,180.7325837999815,None,182.57804980000947,None,182.57804980000947,None,182.57804980000947,None,,,,,,,,,,,,,,032,2022-05-27_10h30.47.882,Main,2022.1.1,59.99761210479411,
neutral,neutral,1,k,k,,,,,,,,,0,12,12,1,,,,,,,,,main,2,2,1,neutral,neutral,k,k,1,0.8313150000758469,182.58130109997,183.59686439996585,183.58024379995186,None,182.58130109997,None,182.58130109997,None,182.58130109997,None,184.41095019993372,None,184.41095019993372,None,184.41095019993372,None,,,,,,,,,,,,,,032,2022-05-27_10h30.47.882,Main,2022.1.1,59.99761210479411,
positive,negative,2,l,j,,,,,,,,,0,13,13,14,,,,,,,,,main,2,2,2,negative,positive,l,l,1,0.8321339000249282,184.41094740002882,185.41092349996325,185.41092349996325,None,184.41094740002882,None,184.41094740002882,None,184.41094740002882,None,186.24455259996466,None,186.24455259996466,None,186.24455259996466,None,,,,,,,,,,,,,,032,2022-05-27_10h30.47.882,Main,2022.1.1,59.99761210479411,
positive,neutral,2,l,j,,,,,,,,,0,14,14,17,,,,,,,,,main,1,1,2,neutral,positive,l,l,1,0.7508493999484926,186.25019569997676,187.26401139993686,187.24715389998164,None,186.25019569997676,None,186.25019569997676,None,186.25019569997676,None,187.997005000012,None,187.997005000012,None,187.997005000012,None,,,,,,,,,,,,,,032,2022-05-27_10h30.47.882,Main,2022.1.1,59.99761210479411,
positive,neutral,1,l,j,,,,,,,,,0,15,15,8,,,,,,,,,main,2,2,1,neutral,positive,l,l,1,0.8291930999839678,188.0009458999848,189.0134429000318,188.99682529992424,None,188.0009458999848,None,188.0009458999848,None,188.0009458999848,None,189.82787389995065,None,189.82787389995065,None,189.82787389995065,None,,,,,,,,,,,,,,032,2022-05-27_10h30.47.882,Main,2022.1.1,59.99761210479411,
negative,positive,1,j,l,,,,,,,,,0,16,16,6,,,,,,,,,main,1,1,1,positive,negative,j,j,1,1.0004058999475092,189.83109160000458,190.83014129998628,190.83014129998628,None,189.83109160000458,None,189.83109160000458,None,189.83109160000458,None,191.83009529998526,None,191.83009529998526,None,191.83009529998526,None,,,,,,,,,,,,,,032,2022-05-27_10h30.47.882,Main,2022.1.1,59.99761210479411,
negative,neutral,2,j,l,,,,,,,,,0,17,17,12,,,,,,,,,main,1,1,2,neutral,negative,j,j,1,0.7960564000532031,191.83353489998262,192.84669179993216,192.830105299945,None,191.83353489998262,None,191.83353489998262,None,191.83353489998262,None,193.6277857000241,None,193.6277857000241,None,193.6277857000241,None,,,,,,,,,,,,,,032,2022-05-27_10h30.47.882,Main,2022.1.1,59.99761210479411,
neutral,neutral,2,k,k,,,,,,,,,1,0,18,10,,,,,,,,,main,1,1,2,neutral,neutral,k,k,1,0.7982126999413595,193.6307149999775,194.6440821000142,194.62741710001137,None,193.6307149999775,None,193.6307149999775,None,193.6307149999775,None,195.42738400003873,None,195.42738400003873,None,195.42738400003873,None,,,,,,,,,,,,,,032,2022-05-27_10h30.47.882,Main,2022.1.1,59.99761210479411,
negative,negative,2,j,l,,,,,,,,,1,1,19,9,,,,,,,,,main,1,1,2,negative,negative,j,j,1,0.9339993000030518,195.4273949000053,196.42742459999863,196.42742459999863,None,195.4273949000053,None,195.4273949000053,None,195.4273949000053,None,197.36322659999132,None,197.36322659999132,None,197.36322659999132,None,,,,,,,,,,,,,,032,2022-05-27_10h30.47.882,Main,2022.1.1,59.99761210479411,
positive,positive,2,l,j,,,,,,,,,1,2,20,11,,,,,,,,,main,1,1,2,positive,positive,l,l,1,0.813118000049144,197.36696150002535,198.3798959000269,198.36333359999117,None,197.36696150002535,None,197.36696150002535,None,197.36696150002535,None,199.17768199997954,None,199.17768199997954,None,199.17768199997954,None,,,,,,,,,,,,,,032,2022-05-27_10h30.47.882,Main,2022.1.1,59.99761210479411,
neutral,neutral,1,k,k,,,,,,,,,1,3,21,1,,,,,,,,,main,2,2,1,neutral,neutral,k,k,1,0.8484540999634191,199.18183020001743,200.1965294999536,200.17993159999605,None,199.18183020001743,None,199.18183020001743,None,199.18183020001743,None,201.02763809997123,None,201.02763809997123,None,201.02763809997123,None,,,,,,,,,,,,,,032,2022-05-27_10h30.47.882,Main,2022.1.1,59.99761210479411,
negative,neutral,2,j,l,,,,,,,,,1,4,22,12,,,,,,,,,main,2,2,2,neutral,negative,j,j,1,0.8975982000119984,201.0339131000219,202.04652380000334,202.02987820003182,None,201.0339131000219,None,201.0339131000219,None,201.0339131000219,None,202.92760049994104,None,202.92760049994104,None,202.92760049994104,None,,,,,,,,,,,,,,032,2022-05-27_10h30.47.882,Main,2022.1.1,59.99761210479411,
negative,positive,1,j,l,,,,,,,,,1,5,23,6,,,,,,,,,main,2,2,1,positive,negative,j,j,1,0.9650352998869494,202.9310687999241,203.94641999993473,203.92990440002177,None,202.9310687999241,None,202.9310687999241,None,202.9310687999241,None,204.89420440001413,None,204.89420440001413,None,204.89420440001413,None,,,,,,,,,,,,,,032,2022-05-27_10h30.47.882,Main,2022.1.1,59.99761210479411,
positive,positive,1,l,j,,,,,,,,,1,6,24,2,,,,,,,,,main,1,1,1,positive,positive,l,l,1,0.9813604999799281,204.8976056999527,205.91051710001193,205.8938526000129,None,204.8976056999527,None,204.8976056999527,None,204.8976056999527,None,206.87716869998258,None,206.87716869998258,None,206.87716869998258,None,,,,,,,,,,,,,,032,2022-05-27_10h30.47.882,Main,2022.1.1,59.99761210479411,
positive,negative,1,l,j,,,,,,,,,1,7,25,5,,,,,,,,,main,1,1,1,negative,positive,l,l,1,0.8009054999565706,206.8771596000297,207.87718840001617,207.87718840001617,None,206.8771596000297,None,206.8771596000297,None,206.8771596000297,None,208.6797003999818,None,208.6797003999818,None,208.6797003999818,None,,,,,,,,,,,,,,032,2022-05-27_10h30.47.882,Main,2022.1.1,59.99761210479411,
negative,positive,2,j,l,,,,,,,,,1,8,26,15,,,,,,,,,main,1,1,2,positive,negative,j,j,1,0.8627357999794185,208.68344309995882,209.69641249999404,209.6797166999895,None,208.68344309995882,None,208.68344309995882,None,208.68344309995882,None,210.54411809996236,None,210.54411809996236,None,210.54411809996236,None,,,,,,,,,,,,,,032,2022-05-27_10h30.47.882,Main,2022.1.1,59.99761210479411,
negative,neutral,1,j,l,,,,,,,,,1,9,27,3,,,,,,,,,main,2,2,1,neutral,negative,j,j,1,0.8484236999647692,210.5474190999521,211.56293200002983,211.54642979998607,None,210.5474190999521,None,210.5474190999521,None,210.5474190999521,None,212.39407099992968,None,212.39407099992968,None,212.39407099992968,None,,,,,,,,,,,,,,032,2022-05-27_10h30.47.882,Main,2022.1.1,59.99761210479411,
neutral,positive,2,k,k,,,,,,,,,1,10,28,13,,,,,,,,,main,2,2,2,positive,neutral,k,k,1,0.7662926999619231,212.40057860000525,213.41285079997033,213.39634899992961,None,212.40057860000525,None,212.40057860000525,None,212.40057860000525,None,214.16068289999384,None,214.16068289999384,None,214.16068289999384,None,,,,,,,,,,,,,,032,2022-05-27_10h30.47.882,Main,2022.1.1,59.99761210479411,
neutral,positive,1,k,k,,,,,,,,,1,11,29,4,,,,,,,,,main,2,2,1,positive,neutral,k,k,1,0.8506237999536097,214.1647933999775,215.17949769995175,215.16289839998353,None,214.1647933999775,None,214.1647933999775,None,214.1647933999775,None,216.01385999994818,None,216.01385999994818,None,216.01385999994818,None,,,,,,,,,,,,,,032,2022-05-27_10h30.47.882,Main,2022.1.1,59.99761210479411,
positive,neutral,1,l,j,,,,,,,,,1,12,30,8,,,,,,,,,main,1,1,1,neutral,positive,l,l,1,0.8281908999197185,216.0271920999512,217.02694699994754,217.01027760002762,None,216.0271920999512,None,216.0271920999512,None,216.0271920999512,None,217.84359820000827,None,217.84359820000827,None,217.84359820000827,None,,,,,,,,,,,,,,032,2022-05-27_10h30.47.882,Main,2022.1.1,59.99761210479411,
positive,neutral,2,l,j,,,,,,,,,1,13,31,17,,,,,,,,,main,1,1,2,neutral,positive,l,l,1,0.8486781000392511,217.8441613999894,218.846188699943,218.846188699943,None,217.8441613999894,None,217.8441613999894,None,217.8441613999894,None,219.69393289997242,None,219.69393289997242,None,219.69393289997242,None,,,,,,,,,,,,,,032,2022-05-27_10h30.47.882,Main,2022.1.1,59.99761210479411,
neutral,negative,1,k,k,,,,,,,,,1,14,32,7,,,,,,,,,main,2,2,1,negative,neutral,k,k,1,0.7983812000602484,219.69958939997014,220.71276499994565,220.69616829999723,None,219.69958939997014,None,219.69958939997014,None,219.69958939997014,None,221.49387829995248,None,221.49387829995248,None,221.49387829995248,None,,,,,,,,,,,,,,032,2022-05-27_10h30.47.882,Main,2022.1.1,59.99761210479411,
negative,negative,1,j,l,,,,,,,,,1,15,33,0,,,,,,,,,main,2,2,1,negative,negative,j,j,1,0.8326501999981701,221.49939230002929,222.51272500003688,222.49617719999515,None,221.49939230002929,None,221.49939230002929,None,221.49939230002929,None,223.32716610003263,None,223.32716610003263,None,223.32716610003263,None,,,,,,,,,,,,,,032,2022-05-27_10h30.47.882,Main,2022.1.1,59.99761210479411,
positive,negative,2,l,j,,,,,,,,,1,16,34,14,,,,,,,,,main,2,2,2,negative,positive,l,l,1,0.8809859999455512,223.33317599992733,224.3460528999567,224.32942810002714,None,223.33317599992733,None,223.33317599992733,None,223.33317599992733,None,225.21044139994774,None,225.21044139994774,None,225.21044139994774,None,,,,,,,,,,,,,,032,2022-05-27_10h30.47.882,Main,2022.1.1,59.99761210479411,
neutral,negative,2,k,k,,,,,,,,,1,17,35,16,,,,,,,,,main,1,1,2,negative,neutral,k,k,1,0.8321521000470966,225.21596860000864,226.22930569993332,226.2104074000381,None,225.21596860000864,None,225.21596860000864,None,225.21596860000864,None,227.0434310999699,None,227.0434310999699,None,227.0434310999699,None,,,,,,,,,,,,,,032,2022-05-27_10h30.47.882,Main,2022.1.1,59.99761210479411,
negative,negative,2,j,l,,,,,,,,,2,0,36,9,,,,,,,,,main,1,1,2,negative,negative,j,j,1,0.8308498000260442,227.04483679996338,228.06005289999302,228.0433821999468,None,227.04483679996338,None,227.04483679996338,None,227.04483679996338,None,228.876757799997,None,228.876757799997,None,228.876757799997,None,,,,,,,,,,,,,,032,2022-05-27_10h30.47.882,Main,2022.1.1,59.99761210479411,
negative,neutral,1,j,l,,,,,,,,,2,1,37,3,,,,,,,,,main,1,1,1,neutral,negative,j,j,1,0.9015206000767648,228.8797312999377,229.87923369999044,229.8626510000322,None,228.8797312999377,None,228.8797312999377,None,228.8797312999377,None,230.77935890003573,None,230.77935890003573,None,230.77935890003573,None,,,,,,,,,,,,,,032,2022-05-27_10h30.47.882,Main,2022.1.1,59.99761210479411,
neutral,neutral,2,k,k,,,,,,,,,2,2,38,10,,,,,,,,,main,2,2,2,neutral,neutral,k,k,1,0.8291929999832064,230.783972300007,231.79594300000463,231.77933920000214,None,230.783972300007,None,230.783972300007,None,230.783972300007,None,232.61030910001136,None,232.61030910001136,None,232.61030910001136,None,,,,,,,,,,,,,,032,2022-05-27_10h30.47.882,Main,2022.1.1,59.99761210479411,
positive,positive,1,l,j,,,,,,,,,2,3,39,2,,,,,,,,,main,2,2,1,positive,positive,l,l,1,0.8151972000487149,232.61618050001562,233.6291514999466,233.6126237999415,None,232.61618050001562,None,232.61618050001562,None,232.61618050001562,None,234.4269525000127,None,234.4269525000127,None,234.4269525000127,None,,,,,,,,,,,,,,032,2022-05-27_10h30.47.882,Main,2022.1.1,59.99761210479411,
neutral,negative,1,k,k,,,,,,,,,2,4,40,7,,,,,,,,,main,2,2,1,negative,neutral,k,k,1,0.7989013999467716,234.4312937000068,235.44356539996807,235.4290937000187,None,234.4312937000068,None,234.4312937000068,None,234.4312937000068,None,236.22773749998305,None,236.22773749998305,None,236.22773749998305,None,,,,,,,,,,,,,,032,2022-05-27_10h30.47.882,Main,2022.1.1,59.99761210479411,
neutral,negative,2,k,k,,,,,,,,,2,5,41,16,,,,,,,,,main,2,2,2,negative,neutral,k,k,1,0.8138128999853507,236.24574349995237,237.25961559999269,237.22563380002975,None,236.24574349995237,None,236.24574349995237,None,236.24574349995237,None,238.0431844999548,None,238.0431844999548,None,238.0431844999548,None,,,,,,,,,,,,,,032,2022-05-27_10h30.47.882,Main,2022.1.1,59.99761210479411,
neutral,neutral,1,k,k,,,,,,,,,2,6,42,1,,,,,,,,,main,2,2,1,neutral,neutral,k,k,1,0.7822029000381008,238.04315990000032,239.04315609997138,239.04315609997138,None,238.04315990000032,None,238.04315990000032,None,238.04315990000032,None,239.82684470003005,None,239.82684470003005,None,239.82684470003005,None,,,,,,,,,,,,,,032,2022-05-27_10h30.47.882,Main,2022.1.1,59.99761210479411,
negative,positive,2,j,l,,,,,,,,,2,7,43,15,,,,,,,,,main,2,2,2,positive,negative,j,j,1,0.8838240000186488,239.83041559997946,240.84567890001927,240.8290532999672,None,239.83041559997946,None,239.83041559997946,None,239.83041559997946,None,241.7123918000143,None,241.7123918000143,None,241.7123918000143,None,,,,,,,,,,,,,,032,2022-05-27_10h30.47.882,Main,2022.1.1,59.99761210479411,
negative,negative,1,j,l,,,,,,,,,2,8,44,0,,,,,,,,,main,1,1,1,negative,negative,j,j,1,0.9465915000764653,241.71510050003417,242.72902700002305,242.71240249997936,None,241.71510050003417,None,241.71510050003417,None,241.71510050003417,None,243.66008269996382,None,243.66008269996382,None,243.66008269996382,None,,,,,,,,,,,,,,032,2022-05-27_10h30.47.882,Main,2022.1.1,59.99761210479411,
positive,neutral,2,l,j,,,,,,,,,2,9,45,17,,,,,,,,,main,2,2,2,neutral,positive,l,l,1,0.7981626000255346,243.6636290999595,244.67888230003882,244.66249309992418,None,243.6636290999595,None,243.6636290999595,None,243.6636290999595,None,245.46001049992628,None,245.46001049992628,None,245.46001049992628,None,,,,,,,,,,,,,,032,2022-05-27_10h30.47.882,Main,2022.1.1,59.99761210479411,
positive,negative,2,l,j,,,,,,,,,2,10,46,14,,,,,,,,,main,2,2,2,negative,positive,l,l,1,0.7651072998996824,245.46320579992607,246.46218459994998,246.46218459994998,None,245.46320579992607,None,245.46320579992607,None,245.46320579992607,None,247.2266414000187,None,247.2266414000187,None,247.2266414000187,None,,,,,,,,,,,,,,032,2022-05-27_10h30.47.882,Main,2022.1.1,59.99761210479411,
positive,neutral,1,l,j,,,,,,,,,2,11,47,8,,,,,,,,,main,1,1,1,neutral,positive,l,l,1,0.8482154000084847,247.22983790002763,248.24296880001202,248.22630109998863,None,247.22983790002763,None,247.22983790002763,None,247.22983790002763,None,249.0762835999485,None,249.0762835999485,None,249.0762835999485,None,,,,,,,,,,,,,,032,2022-05-27_10h30.47.882,Main,2022.1.1,59.99761210479411,
neutral,positive,1,k,k,,,,,,,,,2,12,48,4,,,,,,,,,main,1,1,1,positive,neutral,k,k,1,0.8144564999965951,249.0777862999821,250.09297500003595,250.07630940002855,None,249.0777862999821,None,249.0777862999821,None,249.0777862999821,None,250.893270200002,None,250.893270200002,None,250.893270200002,None,,,,,,,,,,,,,,032,2022-05-27_10h30.47.882,Main,2022.1.1,59.99761210479411,
negative,positive,1,j,l,,,,,,,,,2,13,49,6,,,,,,,,,main,2,2,1,positive,negative,j,j,1,0.8987390999682248,250.89682130003348,251.91214329993818,251.89555409993045,None,250.89682130003348,None,250.89682130003348,None,250.89682130003348,None,252.79321989999153,None,252.79321989999153,None,252.79321989999153,None,,,,,,,,,,,,,,032,2022-05-27_10h30.47.882,Main,2022.1.1,59.99761210479411,
positive,positive,2,l,j,,,,,,,,,2,14,50,11,,,,,,,,,main,2,2,2,positive,positive,l,l,1,0.7804868000093848,252.79779999994207,253.81209849996958,253.79551520000678,None,252.79779999994207,None,252.79779999994207,None,252.79779999994207,None,254.57648729998618,None,254.57648729998618,None,254.57648729998618,None,,,,,,,,,,,,,,032,2022-05-27_10h30.47.882,Main,2022.1.1,59.99761210479411,
negative,neutral,2,j,l,,,,,,,,,2,15,51,12,,,,,,,,,main,1,1,2,neutral,negative,j,j,1,0.81729329994414,254.57973679993302,255.57878490001895,255.57878490001895,None,254.57973679993302,None,254.57973679993302,None,254.57973679993302,None,256.39541550003923,None,256.39541550003923,None,256.39541550003923,None,,,,,,,,,,,,,,032,2022-05-27_10h30.47.882,Main,2022.1.1,59.99761210479411,
neutral,positive,2,k,k,,,,,,,,,2,16,52,13,,,,,,,,,main,1,1,2,positive,neutral,k,k,1,0.795833499985747,256.3982898000395,257.4120180000318,257.39538539992645,None,256.3982898000395,None,256.3982898000395,None,256.3982898000395,None,258.19275930000003,None,258.19275930000003,None,258.19275930000003,None,,,,,,,,,,,,,,032,2022-05-27_10h30.47.882,Main,2022.1.1,59.99761210479411,
positive,negative,1,l,j,,,,,,,,,2,17,53,5,,,,,,,,,main,2,2,1,negative,positive,l,l,1,0.8485451999586076,258.19275359995663,259.192738099955,259.192738099955,None,258.19275359995663,None,258.19275359995663,None,258.19275359995663,None,260.04278389993124,None,260.04278389993124,None,260.04278389993124,None,,,,,,,,,,,,,,032,2022-05-27_10h30.47.882,Main,2022.1.1,59.99761210479411,
negative,negative,1,j,l,,,,,,,,,3,0,54,0,,,,,,,,,main,1,1,1,negative,negative,j,j,1,0.9322683000937104,260.0456901999423,261.04525470000226,261.0286787999794,None,260.0456901999423,None,260.0456901999423,None,260.0456901999423,None,261.976370499935,None,261.976370499935,None,261.976370499935,None,,,,,,,,,,,,,,032,2022-05-27_10h30.47.882,Main,2022.1.1,59.99761210479411,
positive,positive,2,l,j,,,,,,,,,3,1,55,11,,,,,,,,,main,2,2,2,positive,positive,l,l,1,0.814883099985309,261.9821743000066,262.99521680001635,262.9786576000042,None,261.9821743000066,None,261.9821743000066,None,261.9821743000066,None,263.7927020000061,None,263.7927020000061,None,263.7927020000061,None,,,,,,,,,,,,,,032,2022-05-27_10h30.47.882,Main,2022.1.1,59.99761210479411,
negative,neutral,1,j,l,,,,,,,,,3,2,56,3,,,,,,,,,main,2,2,1,neutral,negative,j,j,1,0.898186199949123,263.7967644999735,264.8117902999511,264.79526089993306,None,263.7967644999735,None,263.7967644999735,None,263.7967644999735,None,265.6926565000322,None,265.6926565000322,None,265.6926565000322,None,,,,,,,,,,,,,,032,2022-05-27_10h30.47.882,Main,2022.1.1,59.99761210479411,
positive,neutral,1,l,j,,,,,,,,,3,3,57,8,,,,,,,,,main,2,2,1,neutral,positive,l,l,1,0.8819329999387264,265.6987116000382,266.71172699995805,266.6952072000131,None,265.6987116000382,None,265.6987116000382,None,265.6987116000382,None,267.5762251999695,None,267.5762251999695,None,267.5762251999695,None,,,,,,,,,,,,,,032,2022-05-27_10h30.47.882,Main,2022.1.1,59.99761210479411,
neutral,neutral,2,k,k,,,,,,,,,3,4,58,10,,,,,,,,,main,1,1,2,neutral,neutral,k,k,1,0.8157212000805885,267.58146679995116,268.5921972999349,268.5747441999847,None,267.58146679995116,None,267.58146679995116,None,267.58146679995116,None,269.392530299956,None,269.392530299956,None,269.392530299956,None,,,,,,,,,,,,,,032,2022-05-27_10h30.47.882,Main,2022.1.1,59.99761210479411,
neutral,negative,1,k,k,,,,,,,,,3,5,59,7,,,,,,,,,main,1,1,1,negative,neutral,k,k,1,0.8644524000119418,269.39399729995057,270.4091592000332,270.392501299968,None,269.39399729995057,None,269.39399729995057,None,269.39399729995057,None,271.2594626999926,None,271.2594626999926,None,271.2594626999926,None,,,,,,,,,,,,,,032,2022-05-27_10h30.47.882,Main,2022.1.1,59.99761210479411,
positive,neutral,2,l,j,,,,,,,,,3,6,60,17,,,,,,,,,main,2,2,2,neutral,positive,l,l,1,0.8650922999950126,271.26506240002345,272.27837900002487,272.2617557999911,None,271.26506240002345,None,271.26506240002345,None,271.26506240002345,None,273.1258282000199,None,273.1258282000199,None,273.1258282000199,None,,,,,,,,,,,,,,032,2022-05-27_10h30.47.882,Main,2022.1.1,59.99761210479411,
negative,positive,1,j,l,,,,,,,,,3,7,61,6,,,,,,,,,main,2,2,1,positive,negative,j,j,1,0.9318014000309631,273.1322377999313,274.14506230002735,274.1284231999889,None,273.1322377999313,None,273.1322377999313,None,273.1322377999313,None,275.0594074999681,None,275.0594074999681,None,275.0594074999681,None,,,,,,,,,,,,,,032,2022-05-27_10h30.47.882,Main,2022.1.1,59.99761210479411,
neutral,positive,2,k,k,,,,,,,,,3,8,62,13,,,,,,,,,main,2,2,2,positive,neutral,k,k,1,0.8317760999780148,275.06590859999415,276.0782454999862,276.0617062000092,None,275.06590859999415,None,275.06590859999415,None,275.06590859999415,None,276.8927105999319,None,276.8927105999319,None,276.8927105999319,None,,,,,,,,,,,,,,032,2022-05-27_10h30.47.882,Main,2022.1.1,59.99761210479411,
positive,positive,1,l,j,,,,,,,,,3,9,63,2,,,,,,,,,main,1,1,1,positive,positive,l,l,1,0.8149606001097709,276.89611510001123,277.91159199993126,277.89496189996134,None,276.89611510001123,None,276.89611510001123,None,276.89611510001123,None,278.70933089999016,None,278.70933089999016,None,278.70933089999016,None,,,,,,,,,,,,,,032,2022-05-27_10h30.47.882,Main,2022.1.1,59.99761210479411,
negative,neutral,2,j,l,,,,,,,,,3,10,64,12,,,,,,,,,main,2,2,2,neutral,negative,j,j,1,0.8980271000182256,278.7126218000194,279.7256377999438,279.708970699925,None,278.7126218000194,None,278.7126218000194,None,278.7126218000194,None,280.60895519994665,None,280.60895519994665,None,280.60895519994665,None,,,,,,,,,,,,,,032,2022-05-27_10h30.47.882,Main,2022.1.1,59.99761210479411,
negative,negative,2,j,l,,,,,,,,,3,11,65,9,,,,,,,,,main,1,1,2,negative,negative,j,j,1,0.7663846000796184,280.608953799936,281.6118809999898,281.59500810003374,None,280.608953799936,None,280.608953799936,None,280.608953799936,None,282.37700829992536,None,282.37700829992536,None,282.37700829992536,None,,,,,,,,,,,,,,032,2022-05-27_10h30.47.882,Main,2022.1.1,59.99761210479411,
positive,negative,1,l,j,,,,,,,,,3,12,66,5,,,,,,,,,main,1,1,1,negative,positive,l,l,1,0.8010381000349298,282.38252440001816,283.3948672999395,283.3782084999839,None,282.38252440001816,None,282.38252440001816,None,282.38252440001816,None,284.1788174000103,None,284.1788174000103,None,284.1788174000103,None,,,,,,,,,,,,,,032,2022-05-27_10h30.47.882,Main,2022.1.1,59.99761210479411,
positive,negative,2,l,j,,,,,,,,,3,13,67,14,,,,,,,,,main,2,2,2,negative,positive,l,l,1,0.7618409000569955,284.18236879992764,285.194839600008,285.1762119999621,None,284.18236879992764,None,284.18236879992764,None,284.18236879992764,None,285.94272149994504,None,285.94272149994504,None,285.94272149994504,None,,,,,,,,,,,,,,032,2022-05-27_10h30.47.882,Main,2022.1.1,59.99761210479411,
negative,positive,2,j,l,,,,,,,,,3,14,68,15,,,,,,,,,main,2,2,2,positive,negative,j,j,1,0.9004307000432163,285.94899039994925,286.9596971999854,286.94487380003557,None,285.94899039994925,None,285.94899039994925,None,285.94899039994925,None,287.84477470000274,None,287.84477470000274,None,287.84477470000274,None,,,,,,,,,,,,,,032,2022-05-27_10h30.47.882,Main,2022.1.1,59.99761210479411,
neutral,positive,1,k,k,,,,,,,,,3,15,69,4,,,,,,,,,main,2,2,1,positive,neutral,k,k,1,0.8630729999858886,287.84773549996316,288.8613109999569,288.844697499997,None,287.84773549996316,None,287.84773549996316,None,287.84773549996316,None,289.70910119998734,None,289.70910119998734,None,289.70910119998734,None,,,,,,,,,,,,,,032,2022-05-27_10h30.47.882,Main,2022.1.1,59.99761210479411,
neutral,neutral,1,k,k,,,,,,,,,3,16,70,1,,,,,,,,,main,2,2,1,neutral,neutral,k,k,1,0.7643624000484124,289.71265939995646,290.7254132999806,290.7087452999549,None,289.71265939995646,None,289.71265939995646,None,289.71265939995646,None,291.47537480003666,None,291.47537480003666,None,291.47537480003666,None,,,,,,,,,,,,,,032,2022-05-27_10h30.47.882,Main,2022.1.1,59.99761210479411,
neutral,negative,2,k,k,,,,,,,,,3,17,71,16,,,,,,,,,main,2,2,2,negative,neutral,k,k,1,0.7987814000807703,291.4753810999682,292.4754232999403,292.4754232999403,None,291.4753810999682,None,291.4753810999682,None,291.4753810999682,None,293.2757132999832,None,293.2757132999832,None,293.2757132999832,None,,,,,,,,,,,,,,032,2022-05-27_10h30.47.882,Main,2022.1.1,59.99761210479411,
positive,negative,1,l,j,,,,,,,,,4,0,72,5,,,,,,,,,main,2,2,1,negative,positive,l,l,1,0.8320104000158608,293.2791037999559,294.29461700003594,294.2779775999952,None,293.2791037999559,None,293.2791037999559,None,293.2791037999559,None,295.1090237000026,None,295.1090237000026,None,295.1090237000026,None,,,,,,,,,,,,,,032,2022-05-27_10h30.47.882,Main,2022.1.1,59.99761210479411,
positive,positive,2,l,j,,,,,,,,,4,1,73,11,,,,,,,,,main,2,2,2,positive,positive,l,l,1,0.78152570000384,295.1135164999869,296.1279041999951,296.111309699947,None,295.1135164999869,None,295.1135164999869,None,295.1135164999869,None,296.8922167000128,None,296.8922167000128,None,296.8922167000128,None,,,,,,,,,,,,,,032,2022-05-27_10h30.47.882,Main,2022.1.1,59.99761210479411,
negative,positive,2,j,l,,,,,,,,,4,2,74,15,,,,,,,,,main,1,1,2,positive,negative,j,j,1,0.8152281999355182,296.8982747999253,297.91120909992605,297.89460899995174,None,296.8982747999253,None,296.8982747999253,None,296.8982747999253,None,298.7089221000206,None,298.7089221000206,None,298.7089221000206,None,,,,,,,,,,,,,,032,2022-05-27_10h30.47.882,Main,2022.1.1,59.99761210479411,
negative,neutral,1,j,l,,,,,,,,,4,3,75,3,,,,,,,,,main,1,1,1,neutral,negative,j,j,1,0.817096900078468,298.71246439998504,299.7278126999736,299.71117100003175,None,298.71246439998504,None,298.71246439998504,None,298.71246439998504,None,300.5278288000263,None,300.5278288000263,None,300.5278288000263,None,,,,,,,,,,,,,,032,2022-05-27_10h30.47.882,Main,2022.1.1,59.99761210479411,
neutral,negative,2,k,k,,,,,,,,,4,4,76,16,,,,,,,,,main,1,1,2,negative,neutral,k,k,1,0.8291000999743119,300.5375442999648,301.54182609997224,301.5251571999397,None,300.5375442999648,None,300.5375442999648,None,300.5375442999648,None,302.35851639998145,None,302.35851639998145,None,302.35851639998145,None,,,,,,,,,,,,,,032,2022-05-27_10h30.47.882,Main,2022.1.1,59.99761210479411,
positive,neutral,1,l,j,,,,,,,,,4,5,77,8,,,,,,,,,main,1,1,1,neutral,positive,l,l,1,0.7823957999935374,302.3585228000302,303.3614441000391,303.34447220002767,None,302.3585228000302,None,302.3585228000302,None,302.3585228000302,None,304.14214869996067,None,304.14214869996067,None,304.14214869996067,None,,,,,,,,,,,,,,032,2022-05-27_10h30.47.882,Main,2022.1.1,59.99761210479411,
negative,positive,1,j,l,,,,,,,,,4,6,78,6,,,,,,,,,main,1,1,1,positive,negative,j,j,1,0.8648220000322908,304.14610619994346,305.1590174000012,305.1444858999457,None,304.14610619994346,None,304.14610619994346,None,304.14610619994346,None,306.0087981999386,None,306.0087981999386,None,306.0087981999386,None,,,,,,,,,,,,,,032,2022-05-27_10h30.47.882,Main,2022.1.1,59.99761210479411,
positive,positive,1,l,j,,,,,,,,,4,7,79,2,,,,,,,,,main,2,2,1,positive,positive,l,l,1,0.8806591000175104,306.013162999996,307.0276754000224,307.0110680999933,None,306.013162999996,None,306.013162999996,None,306.013162999996,None,307.8920635000104,None,307.8920635000104,None,307.8920635000104,None,,,,,,,,,,,,,,032,2022-05-27_10h30.47.882,Main,2022.1.1,59.99761210479411,
negative,negative,2,j,l,,,,,,,,,4,8,80,9,,,,,,,,,main,1,1,2,negative,negative,j,j,1,0.8819140000268817,307.89522870001383,308.8924180000322,308.8924180000322,None,307.89522870001383,None,307.89522870001383,None,307.89522870001383,None,309.77546549995895,None,309.77546549995895,None,309.77546549995895,None,,,,,,,,,,,,,,032,2022-05-27_10h30.47.882,Main,2022.1.1,59.99761210479411,
positive,neutral,2,l,j,,,,,,,,,4,9,81,17,,,,,,,,,main,2,2,2,neutral,positive,l,l,1,0.8143819998949766,309.78204670001287,310.79422449995764,310.7776624999242,None,309.78204670001287,None,309.78204670001287,None,309.78204670001287,None,311.59164200001396,None,311.59164200001396,None,311.59164200001396,None,,,,,,,,,,,,,,032,2022-05-27_10h30.47.882,Main,2022.1.1,59.99761210479411,
negative,negative,1,j,l,,,,,,,,,4,10,82,0,,,,,,,,,main,1,1,1,negative,negative,j,j,1,0.8664043999742717,311.5916450000368,312.5918738000328,312.5918738000328,None,311.5916450000368,None,311.5916450000368,None,311.5916450000368,None,313.45860599994194,None,313.45860599994194,None,313.45860599994194,None,,,,,,,,,,,,,,032,2022-05-27_10h30.47.882,Main,2022.1.1,59.99761210479411,
positive,negative,2,l,j,,,,,,,,,4,11,83,14,,,,,,,,,main,2,2,2,negative,positive,l,l,1,0.7814552000490949,313.46519649995025,314.4752597999759,314.46086290001404,None,313.46519649995025,None,313.46519649995025,None,313.46519649995025,None,315.2422570999479,None,315.2422570999479,None,315.2422570999479,None,,,,,,,,,,,,,,032,2022-05-27_10h30.47.882,Main,2022.1.1,59.99761210479411,
neutral,negative,1,k,k,,,,,,,,,4,12,84,7,,,,,,,,,main,2,2,1,negative,neutral,k,k,1,0.7978488999651745,315.2458919000346,316.26077659998555,316.2441845999565,None,315.2458919000346,None,315.2458919000346,None,315.2458919000346,None,317.04188789997716,None,317.04188789997716,None,317.04188789997716,None,,,,,,,,,,,,,,032,2022-05-27_10h30.47.882,Main,2022.1.1,59.99761210479411,
neutral,neutral,2,k,k,,,,,,,,,4,13,85,10,,,,,,,,,main,2,2,2,neutral,neutral,k,k,1,0.7988060000352561,317.0450706999982,318.060778999934,318.04423410003074,None,317.0450706999982,None,317.0450706999982,None,317.0450706999982,None,318.84186449996196,None,318.84186449996196,None,318.84186449996196,None,,,,,,,,,,,,,,032,2022-05-27_10h30.47.882,Main,2022.1.1,59.99761210479411,
neutral,positive,1,k,k,,,,,,,,,4,14,86,4,,,,,,,,,main,1,1,1,positive,neutral,k,k,1,0.8147783000022173,318.84536429995205,319.8443845999427,319.8443845999427,None,318.84536429995205,None,318.84536429995205,None,318.84536429995205,None,320.6584528000094,None,320.6584528000094,None,320.6584528000094,None,,,,,,,,,,,,,,032,2022-05-27_10h30.47.882,Main,2022.1.1,59.99761210479411,
negative,neutral,2,j,l,,,,,,,,,4,15,87,12,,,,,,,,,main,2,2,2,neutral,negative,j,j,1,0.8479923000559211,320.6642686999403,321.67476490000263,321.6580970999785,None,320.6642686999403,None,320.6642686999403,None,320.6642686999403,None,322.5080695999786,None,322.5080695999786,None,322.5080695999786,None,,,,,,,,,,,,,,032,2022-05-27_10h30.47.882,Main,2022.1.1,59.99761210479411,
neutral,positive,2,k,k,,,,,,,,,4,16,88,13,,,,,,,,,main,1,1,2,positive,neutral,k,k,1,0.8154142000712454,322.50807159999385,323.50808659999166,323.50808659999166,None,322.50807159999385,None,322.50807159999385,None,322.50807159999385,None,324.3250527000055,None,324.3250527000055,None,324.3250527000055,None,,,,,,,,,,,,,,032,2022-05-27_10h30.47.882,Main,2022.1.1,59.99761210479411,
neutral,neutral,1,k,k,,,,,,,,,4,17,89,1,,,,,,,,,main,2,2,1,neutral,neutral,k,k,1,0.7808350999839604,324.3291549999267,325.34400339995045,325.3273552999599,None,324.3291549999267,None,324.3291549999267,None,324.3291549999267,None,326.10837799997535,None,326.10837799997535,None,326.10837799997535,None,,,,,,,,,,,,,,032,2022-05-27_10h30.47.882,Main,2022.1.1,59.99761210479411,
positive,neutral,1,l,j,,,,,,,,,5,0,90,8,,,,,,,,,main,2,2,1,neutral,positive,l,l,1,0.8339570000534877,326.112084900029,327.12765589996707,327.1108194999397,None,326.112084900029,None,326.112084900029,None,326.112084900029,None,327.9439802999841,None,327.9439802999841,None,327.9439802999841,None,,,,,,,,,,,,,,032,2022-05-27_10h30.47.882,Main,2022.1.1,59.99761210479411,
neutral,negative,1,k,k,,,,,,,,,5,1,91,7,,,,,,,,,main,2,2,1,negative,neutral,k,k,1,0.7800028999336064,327.9469573999522,328.95882749999873,328.9440573999891,None,327.9469573999522,None,327.9469573999522,None,327.9469573999522,None,329.7252449999796,None,329.7252449999796,None,329.7252449999796,None,,,,,,,,,,,,,,032,2022-05-27_10h30.47.882,Main,2022.1.1,59.99761210479411,
positive,positive,1,l,j,,,,,,,,,5,2,92,2,,,,,,,,,main,2,2,1,positive,positive,l,l,1,0.8405230999924242,329.7312144000316,330.74191029998474,330.7252029000083,None,329.7312144000316,None,329.7312144000316,None,329.7312144000316,None,331.5674328999594,None,331.5674328999594,None,331.5674328999594,None,,,,,,,,,,,,,,032,2022-05-27_10h30.47.882,Main,2022.1.1,59.99761210479411,
negative,negative,2,j,l,,,,,,,,,5,3,93,9,,,,,,,,,main,2,2,2,negative,negative,j,j,1,0.8388926000334322,331.56725269998424,332.5745347000193,332.55787280004006,None,331.56725269998424,None,331.56725269998424,None,331.56725269998424,None,333.4081446999917,None,333.4081446999917,None,333.4081446999917,None,,,,,,,,,,,,,,032,2022-05-27_10h30.47.882,Main,2022.1.1,59.99761210479411,
neutral,positive,1,k,k,,,,,,,,,5,4,94,4,,,,,,,,,main,1,1,1,positive,neutral,k,k,1,0.7817069999873638,333.4100866999943,334.4247849000385,334.4082251000218,None,333.4100866999943,None,333.4100866999943,None,333.4100866999943,None,335.1912286999868,None,335.1912286999868,None,335.1912286999868,None,,,,,,,,,,,,,,032,2022-05-27_10h30.47.882,Main,2022.1.1,59.99761210479411,
neutral,negative,2,k,k,,,,,,,,,5,5,95,16,,,,,,,,,main,1,1,2,negative,neutral,k,k,1,0.7994547999696806,335.19557550002355,336.2103488999419,336.1937595999334,None,335.19557550002355,None,335.19557550002355,None,335.19557550002355,None,336.9925583000295,None,336.9925583000295,None,336.9925583000295,None,,,,,,,,,,,,,,032,2022-05-27_10h30.47.882,Main,2022.1.1,59.99761210479411,
negative,neutral,1,j,l,,,,,,,,,5,6,96,3,,,,,,,,,main,2,2,1,neutral,negative,j,j,1,0.847219799994491,336.9982927000383,338.0103964000009,337.99371980002616,None,336.9982927000383,None,336.9982927000383,None,336.9982927000383,None,338.84143889998086,None,338.84143889998086,None,338.84143889998086,None,,,,,,,,,,,,,,032,2022-05-27_10h30.47.882,Main,2022.1.1,59.99761210479411,
positive,neutral,2,l,j,,,,,,,,,5,7,97,17,,,,,,,,,main,2,2,2,neutral,positive,l,l,1,0.8497700999723747,338.84472449996974,339.86028769996483,339.84369839995634,None,338.84472449996974,None,338.84472449996974,None,338.84472449996974,None,340.69136649998836,None,340.69136649998836,None,340.69136649998836,None,,,,,,,,,,,,,,032,2022-05-27_10h30.47.882,Main,2022.1.1,59.99761210479411,
negative,neutral,2,j,l,,,,,,,,,5,8,98,12,,,,,,,,,main,2,2,2,neutral,negative,j,j,1,0.8305082999868318,340.6954656000016,341.71023979992606,341.6936870999634,None,340.6954656000016,None,340.6954656000016,None,340.6954656000016,None,342.52465619996656,None,342.52465619996656,None,342.52465619996656,None,,,,,,,,,,,,,,032,2022-05-27_10h30.47.882,Main,2022.1.1,59.99761210479411,
negative,positive,2,j,l,,,,,,,,,5,9,99,15,,,,,,,,,main,1,1,2,positive,negative,j,j,1,0.7480261999880895,342.52802249998786,343.5407816999359,343.5239857999841,None,342.52802249998786,None,342.52802249998786,None,342.52802249998786,None,344.27429299999494,None,344.27429299999494,None,344.27429299999494,None,,,,,,,,,,,,,,032,2022-05-27_10h30.47.882,Main,2022.1.1,59.99761210479411,
neutral,neutral,2,k,k,,,,,,,,,5,10,100,10,,,,,,,,,main,1,1,2,neutral,neutral,k,k,1,0.848383600008674,344.2742825000314,345.27426560001913,345.27426560001913,None,344.2742825000314,None,344.2742825000314,None,344.2742825000314,None,346.12427959998604,None,346.12427959998604,None,346.12427959998604,None,,,,,,,,,,,,,,032,2022-05-27_10h30.47.882,Main,2022.1.1,59.99761210479411,
positive,negative,1,l,j,,,,,,,,,5,11,101,5,,,,,,,,,main,2,2,1,negative,positive,l,l,1,0.7980725000379607,346.14095659996383,347.1409437999828,347.1242726999335,None,346.14095659996383,None,346.14095659996383,None,346.14095659996383,None,347.9246123000048,None,347.9246123000048,None,347.9246123000048,None,,,,,,,,,,,,,,032,2022-05-27_10h30.47.882,Main,2022.1.1,59.99761210479411,
neutral,positive,2,k,k,,,,,,,,,5,12,102,13,,,,,,,,,main,2,2,2,positive,neutral,k,k,1,0.8316559999948367,347.9304857000243,348.9437700000126,348.9268733999925,None,347.9304857000243,None,347.9304857000243,None,347.9304857000243,None,349.75787500001024,None,349.75787500001024,None,349.75787500001024,None,,,,,,,,,,,,,,032,2022-05-27_10h30.47.882,Main,2022.1.1,59.99761210479411,
positive,negative,2,l,j,,,,,,,,,5,13,103,14,,,,,,,,,main,2,2,2,negative,positive,l,l,1,0.8650643000146374,349.76124279992655,350.77672580000944,350.7601127999369,None,349.76124279992655,None,349.76124279992655,None,349.76124279992655,None,351.6244833000237,None,351.6244833000237,None,351.6244833000237,None,,,,,,,,,,,,,,032,2022-05-27_10h30.47.882,Main,2022.1.1,59.99761210479411,
negative,negative,1,j,l,,,,,,,,,5,14,104,0,,,,,,,,,main,1,1,1,negative,negative,j,j,1,0.8318221000954509,351.6280860999832,352.6433007000014,352.6267108999891,None,351.6280860999832,None,351.6280860999832,None,351.6280860999832,None,353.45805639994796,None,353.45805639994796,None,353.45805639994796,None,,,,,,,,,,,,,,032,2022-05-27_10h30.47.882,Main,2022.1.1,59.99761210479411,
positive,positive,2,l,j,,,,,,,,,5,15,105,11,,,,,,,,,main,2,2,2,positive,positive,l,l,1,0.8146247999975458,353.46156269998755,354.4765846999362,354.46007449994795,None,353.46156269998755,None,353.46156269998755,None,353.46156269998755,None,355.27406169997994,None,355.27406169997994,None,355.27406169997994,None,,,,,,,,,,,,,,032,2022-05-27_10h30.47.882,Main,2022.1.1,59.99761210479411,
neutral,neutral,1,k,k,,,,,,,,,5,16,106,1,,,,,,,,,main,2,2,1,neutral,neutral,k,k,1,0.8150712000206113,355.2746034000302,356.27405779995024,356.27405779995024,None,355.2746034000302,None,355.2746034000302,None,355.2746034000302,None,357.09076809999533,None,357.09076809999533,None,357.09076809999533,None,,,,,,,,,,,,,,032,2022-05-27_10h30.47.882,Main,2022.1.1,59.99761210479411,
negative,positive,1,j,l,,,,,,,,,5,17,107,6,,,,,,,,,main,1,1,1,positive,negative,j,j,1,0.8842136999592185,357.09404380002525,358.09331549995113,358.09331549995113,None,357.09404380002525,None,357.09404380002525,None,357.09404380002525,None,358.976685600006,None,358.976685600006,None,358.976685600006,None,,,,,,,,,,,,,,032,2022-05-27_10h30.47.882,Main,2022.1.1,59.99761210479411,
neutral,neutral,2,k,k,,,,,,,,,6,0,108,10,,,,,,,,,main,1,1,2,neutral,neutral,k,k,1,0.8291666000150144,358.98032560001593,360.04952679993585,359.9765966000268,None,358.98032560001593,None,358.98032560001593,None,358.98032560001593,None,360.80731519998517,None,360.80731519998517,None,360.80731519998517,None,,,,,,,,,,,,,,032,2022-05-27_10h30.47.882,Main,2022.1.1,59.99761210479411,
negative,positive,1,j,l,,,,,,,,,6,1,109,6,,,,,,,,,main,1,1,1,positive,negative,j,j,1,0.8520750999450684,360.8117080000229,361.8265387000283,361.80992349993903,None,360.8117080000229,None,360.8117080000229,None,360.8117080000229,None,362.6597753999522,None,362.6597753999522,None,362.6597753999522,None,,,,,,,,,,,,,,032,2022-05-27_10h30.47.882,Main,2022.1.1,59.99761210479411,
negative,negative,1,j,l,,,,,,,,,6,2,110,0,,,,,,,,,main,1,1,1,negative,negative,j,j,1,0.7785801000427455,362.6663840999827,363.6764503000304,363.6598108999897,None,362.6663840999827,None,362.6663840999827,None,362.6663840999827,None,364.4408798000077,None,364.4408798000077,None,364.4408798000077,None,,,,,,,,,,,,,,032,2022-05-27_10h30.47.882,Main,2022.1.1,59.99761210479411,
neutral,negative,2,k,k,,,,,,,,,6,3,111,16,,,,,,,,,main,2,2,2,negative,neutral,k,k,1,0.7636392000131309,364.45014199998695,365.45719260000624,365.42991139995866,None,364.45014199998695,None,364.45014199998695,None,364.45014199998695,None,366.20715869998094,None,366.20715869998094,None,366.20715869998094,None,,,,,,,,,,,,,,032,2022-05-27_10h30.47.882,Main,2022.1.1,59.99761210479411,
neutral,positive,1,k,k,,,,,,,,,6,4,112,4,,,,,,,,,main,2,2,1,positive,neutral,k,k,1,0.7655057000229135,366.20715869998094,367.20714780001435,367.20714780001435,None,366.20715869998094,None,366.20715869998094,None,366.20715869998094,None,367.9738475999329,None,367.9738475999329,None,367.9738475999329,None,,,,,,,,,,,,,,032,2022-05-27_10h30.47.882,Main,2022.1.1,59.99761210479411,
positive,positive,1,l,j,,,,,,,,,6,5,113,2,,,,,,,,,main,1,1,1,positive,positive,l,l,1,0.8652190999127924,367.97966089996044,368.9930383999599,368.97641210001893,None,367.97966089996044,None,367.97966089996044,None,367.97966089996044,None,369.8407891000388,None,369.8407891000388,None,369.8407891000388,None,,,,,,,,,,,,,,032,2022-05-27_10h30.47.882,Main,2022.1.1,59.99761210479411,
neutral,negative,1,k,k,,,,,,,,,6,6,114,7,,,,,,,,,main,2,2,1,negative,neutral,k,k,1,0.7818101000739262,369.8444777999539,370.85961159993894,370.8430149999913,None,369.8444777999539,None,369.8444777999539,None,369.8444777999539,None,371.62407110002823,None,371.62407110002823,None,371.62407110002823,None,,,,,,,,,,,,,,032,2022-05-27_10h30.47.882,Main,2022.1.1,59.99761210479411,
positive,negative,1,l,j,,,,,,,,,6,7,115,5,,,,,,,,,main,2,2,1,negative,positive,l,l,1,0.782672300003469,371.62838839995675,372.6429020999931,372.62629739998374,None,371.62838839995675,None,371.62838839995675,None,371.62838839995675,None,373.4072561999783,None,373.4072561999783,None,373.4072561999783,None,,,,,,,,,,,,,,032,2022-05-27_10h30.47.882,Main,2022.1.1,59.99761210479411,
neutral,positive,2,k,k,,,,,,,,,6,8,116,13,,,,,,,,,main,1,1,2,positive,neutral,k,k,1,0.7305195999797434,373.4142445999896,374.4239875000203,374.40952169999946,None,373.4142445999896,None,373.4142445999896,None,373.4142445999896,None,375.1406882000156,None,375.1406882000156,None,375.1406882000156,None,,,,,,,,,,,,,,032,2022-05-27_10h30.47.882,Main,2022.1.1,59.99761210479411,
positive,neutral,2,l,j,,,,,,,,,6,9,117,17,,,,,,,,,main,2,2,2,neutral,positive,l,l,1,0.7652317000320181,375.14420789992437,376.1577699999325,376.14048509998247,None,375.14420789992437,None,375.14420789992437,None,375.14420789992437,None,376.9073395000305,None,376.9073395000305,None,376.9073395000305,None,,,,,,,,,,,,,,032,2022-05-27_10h30.47.882,Main,2022.1.1,59.99761210479411,
negative,negative,2,j,l,,,,,,,,,6,10,118,9,,,,,,,,,main,2,2,2,negative,negative,j,j,1,0.7982234000228345,376.9072080999613,377.9072138000047,377.9072138000047,None,376.9072080999613,None,376.9072080999613,None,376.9072080999613,None,378.7072696000105,None,378.7072696000105,None,378.7072696000105,None,,,,,,,,,,,,,,032,2022-05-27_10h30.47.882,Main,2022.1.1,59.99761210479411,
negative,positive,2,j,l,,,,,,,,,6,11,119,15,,,,,,,,,main,2,2,2,positive,negative,j,j,1,0.7338660999666899,378.7110177000286,379.72616159997415,379.7095429999754,None,378.7110177000286,None,378.7110177000286,None,378.7110177000286,None,380.4427948000375,None,380.4427948000375,None,380.4427948000375,None,,,,,,,,,,,,,,032,2022-05-27_10h30.47.882,Main,2022.1.1,59.99761210479411,
positive,negative,2,l,j,,,,,,,,,6,12,120,14,,,,,,,,,main,1,1,2,negative,positive,l,l,1,0.7795646999729797,380.4455466000363,381.45772679999936,381.4428434999427,None,380.4455466000363,None,380.4455466000363,None,380.4455466000363,None,382.22386979998555,None,382.22386979998555,None,382.22386979998555,None,,,,,,,,,,,,,,032,2022-05-27_10h30.47.882,Main,2022.1.1,59.99761210479411,
positive,positive,2,l,j,,,,,,,,,6,13,121,11,,,,,,,,,main,2,2,2,positive,positive,l,l,1,0.7841393999988213,382.227452000021,383.24077339994255,383.22643609996885,None,382.227452000021,None,382.227452000021,None,382.227452000021,None,384.00944970001,None,384.00944970001,None,384.00944970001,None,,,,,,,,,,,,,,032,2022-05-27_10h30.47.882,Main,2022.1.1,59.99761210479411,
neutral,neutral,1,k,k,,,,,,,,,6,14,122,1,,,,,,,,,main,2,2,1,neutral,neutral,k,k,1,0.7463045000331476,384.01370409992523,385.0261029000394,385.00745759997517,None,384.01370409992523,None,384.01370409992523,None,384.01370409992523,None,385.7571319999406,None,385.7571319999406,None,385.7571319999406,None,,,,,,,,,,,,,,032,2022-05-27_10h30.47.882,Main,2022.1.1,59.99761210479411,
negative,neutral,2,j,l,,,,,,,,,6,15,123,12,,,,,,,,,main,1,1,2,neutral,negative,j,j,1,0.7966037000296637,385.7614548000274,386.77356030000374,386.7570355000207,None,385.7614548000274,None,385.7614548000274,None,385.7614548000274,None,387.5567103000358,None,387.5567103000358,None,387.5567103000358,None,,,,,,,,,,,,,,032,2022-05-27_10h30.47.882,Main,2022.1.1,59.99761210479411,
positive,neutral,1,l,j,,,,,,,,,6,16,124,8,,,,,,,,,main,2,2,1,neutral,positive,l,l,1,0.8321033000247553,387.5567082000198,388.55673830001615,388.55673830001615,None,387.5567082000198,None,387.5567082000198,None,387.5567082000198,None,389.3903105999343,None,389.3903105999343,None,389.3903105999343,None,,,,,,,,,,,,,,032,2022-05-27_10h30.47.882,Main,2022.1.1,59.99761210479411,
negative,neutral,1,j,l,,,,,,,,,6,17,125,3,,,,,,,,,main,1,1,1,neutral,negative,j,j,1,0.8487716000527143,389.3935048999265,390.3926065999549,390.37601529993117,None,389.3935048999265,None,389.3935048999265,None,389.3935048999265,None,391.2408076999709,None,391.2408076999709,None,391.2408076999709,None,,,,,,,,,,,,,,032,2022-05-27_10h30.47.882,Main,2022.1.1,59.99761210479411,
neutral,neutral,2,k,k,,,,,,,,,7,0,126,10,,,,,,,,,main,1,1,2,neutral,neutral,k,k,1,0.7479078000178561,391.244028099929,392.2572556999512,392.24259739997797,None,391.244028099929,None,391.244028099929,None,391.244028099929,None,392.9902997999452,None,392.9902997999452,None,392.9902997999452,None,,,,,,,,,,,,,,032,2022-05-27_10h30.47.882,Main,2022.1.1,59.99761210479411,
negative,negative,2,j,l,,,,,,,,,7,1,127,9,,,,,,,,,main,2,2,2,negative,negative,j,j,1,0.8651937999529764,392.9933555999305,393.9926402999554,393.9926402999554,None,392.9933555999305,None,392.9933555999305,None,392.9933555999305,None,394.85693759995047,None,394.85693759995047,None,394.85693759995047,None,,,,,,,,,,,,,,032,2022-05-27_10h30.47.882,Main,2022.1.1,59.99761210479411,
neutral,negative,1,k,k,,,,,,,,,7,2,128,7,,,,,,,,,main,1,1,1,negative,neutral,k,k,1,0.7317886999808252,394.86096790002193,395.87576550000813,395.8591807000339,None,394.86096790002193,None,394.86096790002193,None,394.86096790002193,None,396.5902118999511,None,396.5902118999511,None,396.5902118999511,None,,,,,,,,,,,,,,032,2022-05-27_10h30.47.882,Main,2022.1.1,59.99761210479411,
negative,negative,1,j,l,,,,,,,,,7,3,129,0,,,,,,,,,main,2,2,1,negative,negative,j,j,1,0.8147885999642313,396.5945761000039,397.60647530003916,397.58981639996637,None,396.5945761000039,None,396.5945761000039,None,396.5945761000039,None,398.4065057999687,None,398.4065057999687,None,398.4065057999687,None,,,,,,,,,,,,,,032,2022-05-27_10h30.47.882,Main,2022.1.1,59.99761210479411,
positive,negative,1,l,j,,,,,,,,,7,4,130,5,,,,,,,,,main,2,2,1,negative,positive,l,l,1,0.7643231999827549,398.41017419996206,399.4232109999284,399.40674639993813,None,398.41017419996206,None,398.41017419996206,None,398.41017419996206,None,400.173753399984,None,400.173753399984,None,400.173753399984,None,,,,,,,,,,,,,,032,2022-05-27_10h30.47.882,Main,2022.1.1,59.99761210479411,
negative,neutral,2,j,l,,,,,,,,,7,5,131,12,,,,,,,,,main,2,2,2,neutral,negative,j,j,1,0.7826799000613391,400.17743259994313,401.19242239999585,401.1738191000186,None,400.17743259994313,None,400.17743259994313,None,400.17743259994313,None,401.9582146999892,None,401.9582146999892,None,401.9582146999892,None,,,,,,,,,,,,,,032,2022-05-27_10h30.47.882,Main,2022.1.1,59.99761210479411,
positive,positive,1,l,j,,,,,,,,,7,6,132,2,,,,,,,,,main,1,1,1,positive,positive,l,l,1,0.8138831000542268,401.96354090003297,402.97572739992756,402.95909759995993,None,401.96354090003297,None,401.96354090003297,None,401.96354090003297,None,403.7734169999603,None,403.7734169999603,None,403.7734169999603,None,,,,,,,,,,,,,,032,2022-05-27_10h30.47.882,Main,2022.1.1,59.99761210479411,
positive,neutral,2,l,j,,,,,,,,,7,7,133,17,,,,,,,,,main,2,2,2,neutral,positive,l,l,1,0.698717400082387,403.77792939997744,404.7922564999899,404.7736607999541,None,403.77792939997744,None,403.77792939997744,None,403.77792939997744,None,405.4736352999462,None,405.4736352999462,None,405.4736352999462,None,,,,,,,,,,,,,,032,2022-05-27_10h30.47.882,Main,2022.1.1,59.99761210479411,
positive,negative,2,l,j,,,,,,,,,7,8,134,14,,,,,,,,,main,1,1,2,negative,positive,l,l,1,0.7823204000014812,405.477070700028,406.492160600028,406.4756784000201,None,405.477070700028,None,405.477070700028,None,405.477070700028,None,407.2566621999722,None,407.2566621999722,None,407.2566621999722,None,,,,,,,,,,,,,,032,2022-05-27_10h30.47.882,Main,2022.1.1,59.99761210479411,
neutral,positive,1,k,k,,,,,,,,,7,9,135,4,,,,,,,,,main,1,1,1,positive,neutral,k,k,1,0.7639131000032648,407.2608987999847,408.27296830003615,408.2565423999913,None,407.2608987999847,None,407.2608987999847,None,407.2608987999847,None,409.02316979994066,None,409.02316979994066,None,409.02316979994066,None,,,,,,,,,,,,,,032,2022-05-27_10h30.47.882,Main,2022.1.1,59.99761210479411,
positive,positive,2,l,j,,,,,,,,,7,10,136,11,,,,,,,,,main,2,2,2,positive,positive,l,l,1,0.7319261999800801,409.0233054999262,410.0232002999401,410.0232002999401,None,409.0233054999262,None,409.0233054999262,None,409.0233054999262,None,410.7565606000135,None,410.7565606000135,None,410.7565606000135,None,,,,,,,,,,,,,,032,2022-05-27_10h30.47.882,Main,2022.1.1,59.99761210479411,
positive,neutral,1,l,j,,,,,,,,,7,11,137,8,,,,,,,,,main,1,1,1,neutral,positive,l,l,1,0.8314672000706196,410.7629468999803,411.7754692999879,411.75911710003857,None,410.7629468999803,None,410.7629468999803,None,410.7629468999803,None,412.58986069995444,None,412.58986069995444,None,412.58986069995444,None,,,,,,,,,,,,,,032,2022-05-27_10h30.47.882,Main,2022.1.1,59.99761210479411,
neutral,neutral,1,k,k,,,,,,,,,7,12,138,1,,,,,,,,,main,2,2,1,neutral,neutral,k,k,1,0.8819416000042111,412.59300600003917,413.5921108999755,413.5921108999755,None,412.59300600003917,None,412.59300600003917,None,412.59300600003917,None,414.473196499981,None,414.473196499981,None,414.473196499981,None,,,,,,,,,,,,,,032,2022-05-27_10h30.47.882,Main,2022.1.1,59.99761210479411,
negative,neutral,1,j,l,,,,,,,,,7,13,139,3,,,,,,,,,main,1,1,1,neutral,negative,j,j,1,0.8171260000672191,414.4766064999858,415.4919317000313,415.47547309997026,None,414.4766064999858,None,414.4766064999858,None,414.4766064999858,None,416.29202890000306,None,416.29202890000306,None,416.29202890000306,None,,,,,,,,,,,,,,032,2022-05-27_10h30.47.882,Main,2022.1.1,59.99761210479411,
negative,positive,2,j,l,,,,,,,,,7,14,140,15,,,,,,,,,main,1,1,2,positive,negative,j,j,1,0.979446200071834,416.29496420000214,417.30681280000135,417.2922061999561,None,416.29496420000214,None,416.29496420000214,None,416.29496420000214,None,418.2729929999914,None,418.2729929999914,None,418.2729929999914,None,,,,,,,,,,,,,,032,2022-05-27_10h30.47.882,Main,2022.1.1,59.99761210479411,
negative,positive,1,j,l,,,,,,,,,7,15,141,6,,,,,,,,,main,2,2,1,positive,negative,j,j,1,0.8148315000580624,418.27283449994866,419.2727476999862,419.2727476999862,None,418.27283449994866,None,418.27283449994866,None,418.27283449994866,None,420.0894367999863,None,420.0894367999863,None,420.0894367999863,None,,,,,,,,,,,,,,032,2022-05-27_10h30.47.882,Main,2022.1.1,59.99761210479411,
neutral,negative,2,k,k,,,,,,,,,7,16,142,16,,,,,,,,,main,2,2,2,negative,neutral,k,k,1,0.8342023999430239,420.09849290002603,421.10888690000866,421.09225059999153,None,420.09849290002603,None,420.09849290002603,None,420.09849290002603,None,421.92530070000794,None,421.92530070000794,None,421.92530070000794,None,,,,,,,,,,,,,,032,2022-05-27_10h30.47.882,Main,2022.1.1,59.99761210479411,
neutral,positive,2,k,k,,,,,,,,,7,17,143,13,,,,,,,,,main,2,2,2,positive,neutral,k,k,1,0.7296518000075594,421.92813140002545,422.94183719996363,422.92522360000294,None,421.92813140002545,None,421.92813140002545,None,421.92813140002545,None,423.65631120000035,None,423.65631120000035,None,423.65631120000035,None,,,,,,,,,,,,,,032,2022-05-27_10h30.47.882,Main,2022.1.1,59.99761210479411,
neutral,negative,1,k,k,,,,,,,,,8,0,144,7,,,,,,,,,main,2,2,1,negative,neutral,k,k,1,0.8316968000726774,423.66000629996415,424.67519670003094,424.6585582999978,None,423.66000629996415,None,423.66000629996415,None,423.66000629996415,None,425.4896020999877,None,425.4896020999877,None,425.4896020999877,None,,,,,,,,,,,,,,032,2022-05-27_10h30.47.882,Main,2022.1.1,59.99761210479411,
neutral,neutral,1,k,k,,,,,,,,,8,1,145,1,,,,,,,,,main,1,1,1,neutral,neutral,k,k,1,0.7317382999463007,425.49302359996364,426.50841060001403,426.4918524000095,None,425.49302359996364,None,425.49302359996364,None,425.49302359996364,None,427.22291020001285,None,427.22291020001285,None,427.22291020001285,None,,,,,,,,,,,,,,032,2022-05-27_10h30.47.882,Main,2022.1.1,59.99761210479411,
negative,negative,2,j,l,,,,,,,,,8,2,146,9,,,,,,,,,main,1,1,2,negative,negative,j,j,1,0.8814130999380723,427.22639450000133,428.2386164999334,428.22243650001474,None,427.22639450000133,None,427.22639450000133,None,427.22639450000133,None,429.1061739999568,None,429.1061739999568,None,429.1061739999568,None,,,,,,,,,,,,,,032,2022-05-27_10h30.47.882,Main,2022.1.1,59.99761210479411,
positive,neutral,2,l,j,,,,,,,,,8,3,147,17,,,,,,,,,main,2,2,2,neutral,positive,l,l,1,0.7816134999739006,429.1062466999283,430.1060833999654,430.1060833999654,None,429.1062466999283,None,429.1062466999283,None,429.1062466999283,None,430.88919359992724,None,430.88919359992724,None,430.88919359992724,None,,,,,,,,,,,,,,032,2022-05-27_10h30.47.882,Main,2022.1.1,59.99761210479411,
neutral,neutral,2,k,k,,,,,,,,,8,4,148,10,,,,,,,,,main,2,2,2,neutral,neutral,k,k,1,0.815404099994339,430.88967770000454,431.88943370000925,431.88943370000925,None,430.88967770000454,None,430.88967770000454,None,430.88967770000454,None,432.7061460999539,None,432.7061460999539,None,432.7061460999539,None,,,,,,,,,,,,,,032,2022-05-27_10h30.47.882,Main,2022.1.1,59.99761210479411,
positive,positive,1,l,j,,,,,,,,,8,5,149,2,,,,,,,,,main,2,2,1,positive,positive,l,l,1,0.8522845000261441,432.7124581999378,433.7250221000286,433.7086296000052,None,432.7124581999378,None,432.7124581999378,None,432.7124581999378,None,434.55607960000634,None,434.55607960000634,None,434.55607960000634,None,,,,,,,,,,,,,,032,2022-05-27_10h30.47.882,Main,2022.1.1,59.99761210479411,
neutral,positive,2,k,k,,,,,,,,,8,6,150,13,,,,,,,,,main,1,1,2,positive,neutral,k,k,1,0.776653999928385,434.56428349995986,435.57491229998413,435.55833819997497,None,434.56428349995986,None,434.56428349995986,None,434.56428349995986,None,436.33940589998383,None,436.33940589998383,None,436.33940589998383,None,,,,,,,,,,,,,,032,2022-05-27_10h30.47.882,Main,2022.1.1,59.99761210479411,
positive,negative,2,l,j,,,,,,,,,8,7,151,14,,,,,,,,,main,2,2,2,negative,positive,l,l,1,0.7316474000690505,436.34288439992815,437.358504600008,437.33968480001204,None,436.34288439992815,None,436.34288439992815,None,436.34288439992815,None,438.07269059994724,None,438.07269059994724,None,438.07269059994724,None,,,,,,,,,,,,,,032,2022-05-27_10h30.47.882,Main,2022.1.1,59.99761210479411,
neutral,negative,2,k,k,,,,,,,,,8,8,152,16,,,,,,,,,main,2,2,2,negative,neutral,k,k,1,0.7649948999751359,438.0759690999985,439.0749842999503,439.0749842999503,None,438.0759690999985,None,438.0759690999985,None,438.0759690999985,None,439.83902469999157,None,439.83902469999157,None,439.83902469999157,None,,,,,,,,,,,,,,032,2022-05-27_10h30.47.882,Main,2022.1.1,59.99761210479411,
positive,positive,2,l,j,,,,,,,,,8,9,153,11,,,,,,,,,main,1,1,2,positive,positive,l,l,1,0.7648933000164106,439.83921539993025,440.83895230002236,440.83895230002236,None,439.83921539993025,None,439.83921539993025,None,439.83921539993025,None,441.6055810999824,None,441.6055810999824,None,441.6055810999824,None,,,,,,,,,,,,,,032,2022-05-27_10h30.47.882,Main,2022.1.1,59.99761210479411,
positive,neutral,1,l,j,,,,,,,,,8,10,154,8,,,,,,,,,main,1,1,1,neutral,positive,l,l,1,0.7662823999999091,441.6223092,442.6247873000102,442.60816740000155,None,441.6223092,None,441.6223092,None,441.6223092,None,443.3724203000311,None,443.3724203000311,None,443.3724203000311,None,,,,,,,,,,,,,,032,2022-05-27_10h30.47.882,Main,2022.1.1,59.99761210479411,
neutral,positive,1,k,k,,,,,,,,,8,11,155,4,,,,,,,,,main,1,1,1,positive,neutral,k,k,1,0.880737999919802,443.37910319992807,444.3915147000225,444.3748605999863,None,443.37910319992807,None,443.37910319992807,None,443.37910319992807,None,445.25587320001796,None,445.25587320001796,None,445.25587320001796,None,,,,,,,,,,,,,,032,2022-05-27_10h30.47.882,Main,2022.1.1,59.99761210479411,
positive,negative,1,l,j,,,,,,,,,8,12,156,5,,,,,,,,,main,1,1,1,negative,positive,l,l,1,0.8650245999451727,445.26146820001304,446.2747458999511,446.25611670000944,None,445.26146820001304,None,445.26146820001304,None,445.26146820001304,None,447.12247910001315,None,447.12247910001315,None,447.12247910001315,None,,,,,,,,,,,,,,032,2022-05-27_10h30.47.882,Main,2022.1.1,59.99761210479411,
negative,positive,2,j,l,,,,,,,,,8,13,157,15,,,,,,,,,main,2,2,2,positive,negative,j,j,1,0.798441500053741,447.1258659999585,448.1413290000055,448.1247065999778,None,447.1258659999585,None,447.1258659999585,None,447.1258659999585,None,448.9224614999257,None,448.9224614999257,None,448.9224614999257,None,,,,,,,,,,,,,,032,2022-05-27_10h30.47.882,Main,2022.1.1,59.99761210479411,
negative,positive,1,j,l,,,,,,,,,8,14,158,6,,,,,,,,,main,2,2,1,positive,negative,j,j,1,0.8479165999451652,448.92592309997417,449.9387604999356,449.9224534999812,None,448.92592309997417,None,448.92592309997417,None,448.92592309997417,None,450.77205599995796,None,450.77205599995796,None,450.77205599995796,None,,,,,,,,,,,,,,032,2022-05-27_10h30.47.882,Main,2022.1.1,59.99761210479411,
negative,neutral,2,j,l,,,,,,,,,8,15,159,12,,,,,,,,,main,2,2,2,neutral,negative,j,j,1,0.8487139999633655,450.7887601000257,451.7891380999936,451.772089999984,None,450.7887601000257,None,450.7887601000257,None,450.7887601000257,None,452.6220755999675,None,452.6220755999675,None,452.6220755999675,None,,,,,,,,,,,,,,032,2022-05-27_10h30.47.882,Main,2022.1.1,59.99761210479411,
negative,neutral,1,j,l,,,,,,,,,8,16,160,3,,,,,,,,,main,2,2,1,neutral,negative,j,j,1,0.8353734000120312,452.62551809998695,453.62463869992644,453.62463869992644,None,452.62551809998695,None,452.62551809998695,None,452.62551809998695,None,454.4594034999609,None,454.4594034999609,None,454.4594034999609,None,,,,,,,,,,,,,,032,2022-05-27_10h30.47.882,Main,2022.1.1,59.99761210479411,
negative,negative,1,j,l,,,,,,,,,8,17,161,0,,,,,,,,,main,1,1,1,negative,negative,j,j,1,0.7127583000110462,454.4620069999946,455.47473290003836,455.4580428999616,None,454.4620069999946,None,454.4620069999946,None,454.4620069999946,None,456.17338249995373,None,456.17338249995373,None,456.17338249995373,None,,,,,,,,,,,,,,032,2022-05-27_10h30.47.882,Main,2022.1.1,59.99761210479411,
positive,negative,1,l,j,,,,,,,,,9,0,162,5,,,,,,,,,main,1,1,1,negative,positive,l,l,1,0.8307311999378726,456.17914329993073,457.1912563999649,457.17464869993273,None,456.17914329993073,None,456.17914329993073,None,456.17914329993073,None,458.00570189999416,None,458.00570189999416,None,458.00570189999416,None,,,,,,,,,,,,,,032,2022-05-27_10h30.47.882,Main,2022.1.1,59.99761210479411,
negative,neutral,1,j,l,,,,,,,,,9,1,163,3,,,,,,,,,main,2,2,1,neutral,negative,j,j,1,0.8483245999086648,458.0113475000253,459.024433100014,459.0079775999766,None,458.0113475000253,None,458.0113475000253,None,458.0113475000253,None,459.8555517999921,None,459.8555517999921,None,459.8555517999921,None,,,,,,,,,,,,,,032,2022-05-27_10h30.47.882,Main,2022.1.1,59.99761210479411,
negative,negative,2,j,l,,,,,,,,,9,2,164,9,,,,,,,,,main,2,2,2,negative,negative,j,j,1,0.8477968999650329,459.8590344999684,460.8715275999857,460.85435839998536,None,459.8590344999684,None,459.8590344999684,None,459.8590344999684,None,461.70518930000253,None,461.70518930000253,None,461.70518930000253,None,,,,,,,,,,,,,,032,2022-05-27_10h30.47.882,Main,2022.1.1,59.99761210479411,
negative,positive,2,j,l,,,,,,,,,9,3,165,15,,,,,,,,,main,2,2,2,positive,negative,j,j,1,0.8317316999891773,461.7051644999301,462.7051475000335,462.7051475000335,None,461.7051644999301,None,461.7051644999301,None,461.7051644999301,None,463.5384896999458,None,463.5384896999458,None,463.5384896999458,None,,,,,,,,,,,,,,032,2022-05-27_10h30.47.882,Main,2022.1.1,59.99761210479411,
neutral,negative,2,k,k,,,,,,,,,9,4,166,16,,,,,,,,,main,1,1,2,negative,neutral,k,k,1,0.7822524000657722,463.5413500999566,464.5410242000362,464.5243402000051,None,463.5413500999566,None,463.5413500999566,None,463.5413500999566,None,465.3222926999442,None,465.3222926999442,None,465.3222926999442,None,,,,,,,,,,,,,,032,2022-05-27_10h30.47.882,Main,2022.1.1,59.99761210479411,
neutral,neutral,1,k,k,,,,,,,,,9,5,167,1,,,,,,,,,main,1,1,1,neutral,neutral,k,k,1,0.7505870000459254,465.32776469993405,466.34106300002895,466.3244136000285,None,465.32776469993405,None,465.32776469993405,None,465.32776469993405,None,467.07438030000776,None,467.07438030000776,None,467.07438030000776,None,,,,,,,,,,,,,,032,2022-05-27_10h30.47.882,Main,2022.1.1,59.99761210479411,
positive,neutral,2,l,j,,,,,,,,,9,6,168,17,,,,,,,,,main,2,2,2,neutral,positive,l,l,1,0.7462345999665558,467.0786851999583,468.09110980003607,468.0722650999669,None,467.0786851999583,None,467.0786851999583,None,467.0786851999583,None,468.82201939995866,None,468.82201939995866,None,468.82201939995866,None,,,,,,,,,,,,,,032,2022-05-27_10h30.47.882,Main,2022.1.1,59.99761210479411,
positive,positive,2,l,j,,,,,,,,,9,7,169,11,,,,,,,,,main,1,1,2,positive,positive,l,l,1,0.7483842000365257,468.8268473999342,469.840946399956,469.82435549993534,None,468.8268473999342,None,468.8268473999342,None,468.8268473999342,None,470.57192040001974,None,470.57192040001974,None,470.57192040001974,None,,,,,,,,,,,,,,032,2022-05-27_10h30.47.882,Main,2022.1.1,59.99761210479411,
neutral,positive,1,k,k,,,,,,,,,9,8,170,4,,,,,,,,,main,2,2,1,positive,neutral,k,k,1,0.7623812999809161,470.5788721999852,471.5882900999859,471.57161250000354,None,470.5788721999852,None,470.5788721999852,None,470.5788721999852,None,472.33827259996906,None,472.33827259996906,None,472.33827259996906,None,,,,,,,,,,,,,,032,2022-05-27_10h30.47.882,Main,2022.1.1,59.99761210479411,
positive,positive,1,l,j,,,,,,,,,9,9,171,2,,,,,,,,,main,2,2,1,positive,positive,l,l,1,0.8988681000191718,472.33827309997287,473.3383260000264,473.3383260000264,None,472.33827309997287,None,472.33827309997287,None,472.33827309997287,None,474.23863659997005,None,474.23863659997005,None,474.23863659997005,None,,,,,,,,,,,,,,032,2022-05-27_10h30.47.882,Main,2022.1.1,59.99761210479411,
neutral,negative,1,k,k,,,,,,,,,9,10,172,7,,,,,,,,,main,2,2,1,negative,neutral,k,k,1,0.7315492000197992,474.2432749000145,475.2574908999959,475.2408871999942,None,474.2432749000145,None,474.2432749000145,None,474.2432749000145,None,475.97190480004065,None,475.97190480004065,None,475.97190480004065,None,,,,,,,,,,,,,,032,2022-05-27_10h30.47.882,Main,2022.1.1,59.99761210479411,
negative,positive,1,j,l,,,,,,,,,9,11,173,6,,,,,,,,,main,2,2,1,positive,negative,j,j,1,0.8491595999803394,475.97602729999926,476.98880940000527,476.97431690001395,None,475.97602729999926,None,475.97602729999926,None,475.97602729999926,None,477.8225864999695,None,477.8225864999695,None,477.8225864999695,None,,,,,,,,,,,,,,032,2022-05-27_10h30.47.882,Main,2022.1.1,59.99761210479411,
positive,neutral,1,l,j,,,,,,,,,9,12,174,8,,,,,,,,,main,2,2,1,neutral,positive,l,l,1,0.7643605000339448,477.82863839995116,478.84066330001224,478.82406389992684,None,477.82863839995116,None,477.82863839995116,None,477.82863839995116,None,479.58846869994886,None,479.58846869994886,None,479.58846869994886,None,,,,,,,,,,,,,,032,2022-05-27_10h30.47.882,Main,2022.1.1,59.99761210479411,
negative,neutral,2,j,l,,,,,,,,,9,13,175,12,,,,,,,,,main,2,2,2,neutral,negative,j,j,1,0.8510805000551045,479.5921056999359,480.60735139995813,480.5907492999686,None,479.5921056999359,None,479.5921056999359,None,479.5921056999359,None,481.4411445999285,None,481.4411445999285,None,481.4411445999285,None,,,,,,,,,,,,,,032,2022-05-27_10h30.47.882,Main,2022.1.1,59.99761210479411,
neutral,positive,2,k,k,,,,,,,,,9,14,176,13,,,,,,,,,main,2,2,2,positive,neutral,k,k,1,0.7610134000424296,481.44632450002246,482.4547319000121,482.4380674000131,None,481.44632450002246,None,481.44632450002246,None,481.44632450002246,None,483.2047080999473,None,483.2047080999473,None,483.2047080999473,None,,,,,,,,,,,,,,032,2022-05-27_10h30.47.882,Main,2022.1.1,59.99761210479411,
positive,negative,2,l,j,,,,,,,,,9,15,177,14,,,,,,,,,main,1,1,2,negative,positive,l,l,1,0.8841572999954224,483.2047114999732,484.2047429999802,484.2047429999802,None,483.2047114999732,None,483.2047114999732,None,483.2047114999732,None,485.0906279999763,None,485.0906279999763,None,485.0906279999763,None,,,,,,,,,,,,,,032,2022-05-27_10h30.47.882,Main,2022.1.1,59.99761210479411,
negative,negative,1,j,l,,,,,,,,,9,16,178,0,,,,,,,,,main,1,1,1,negative,negative,j,j,1,0.9462789000244811,485.09346729994286,486.1071863999823,486.09064519999083,None,485.09346729994286,None,485.09346729994286,None,485.09346729994286,None,487.0383340999251,None,487.0383340999251,None,487.0383340999251,None,,,,,,,,,,,,,,032,2022-05-27_10h30.47.882,Main,2022.1.1,59.99761210479411,
neutral,neutral,2,k,k,,,,,,,,,9,17,179,10,,,,,,,,,main,2,2,2,neutral,neutral,k,k,1,0.7506881000008434,487.0453701999504,488.0572167999344,488.0406207999913,None,487.0453701999504,None,487.0453701999504,None,487.0453701999504,None,488.7904978999868,None,488.7904978999868,None,488.7904978999868,None,,,,,,,,,,,,,,032,2022-05-27_10h30.47.882,Main,2022.1.1,59.99761210479411,
neutral,positive,2,k,k,,,,,,,,,10,0,180,13,,,,,,,,,main,2,2,2,positive,neutral,k,k,1,0.7632907000370324,488.79359569994267,489.80716570001096,489.7905608000001,None,488.79359569994267,None,488.79359569994267,None,488.79359569994267,None,490.5550067999866,None,490.5550067999866,None,490.5550067999866,None,,,,,,,,,,,,,,032,2022-05-27_10h30.47.882,Main,2022.1.1,59.99761210479411,
negative,positive,2,j,l,,,,,,,,,10,1,181,15,,,,,,,,,main,1,1,2,positive,negative,j,j,1,0.7845334000885487,490.55937469995115,491.57155759993475,491.55708209995646,None,490.55937469995115,None,490.55937469995115,None,490.55937469995115,None,492.3404955000151,None,492.3404955000151,None,492.3404955000151,None,,,,,,,,,,,,,,032,2022-05-27_10h30.47.882,Main,2022.1.1,59.99761210479411,
positive,negative,1,l,j,,,,,,,,,10,2,182,5,,,,,,,,,main,1,1,1,negative,positive,l,l,1,0.7284661000594497,492.34418270003516,493.3544996000128,493.33783540001605,None,492.34418270003516,None,492.34418270003516,None,492.34418270003516,None,494.07114959997125,None,494.07114959997125,None,494.07114959997125,None,,,,,,,,,,,,,,032,2022-05-27_10h30.47.882,Main,2022.1.1,59.99761210479411,
negative,negative,1,j,l,,,,,,,,,10,3,183,0,,,,,,,,,main,2,2,1,negative,negative,j,j,1,0.898450699984096,494.07114539993927,495.0711791999638,495.0711791999638,None,494.07114539993927,None,494.07114539993927,None,494.07114539993927,None,495.97147530002985,None,495.97147530002985,None,495.97147530002985,None,,,,,,,,,,,,,,032,2022-05-27_10h30.47.882,Main,2022.1.1,59.99761210479411,
positive,positive,1,l,j,,,,,,,,,10,4,184,2,,,,,,,,,main,1,1,1,positive,positive,l,l,1,0.7662396000232548,495.9745541999582,496.97370840003714,496.97370840003714,None,495.9745541999582,None,495.9745541999582,None,495.9745541999582,None,497.73910150001757,None,497.73910150001757,None,497.73910150001757,None,,,,,,,,,,,,,,032,2022-05-27_10h30.47.882,Main,2022.1.1,59.99761210479411,
positive,neutral,1,l,j,,,,,,,,,10,5,185,8,,,,,,,,,main,2,2,1,neutral,positive,l,l,1,0.7476971000432968,497.74491639994085,498.75699609995354,498.74041269999,None,497.74491639994085,None,497.74491639994085,None,497.74491639994085,None,499.48806609993335,None,499.48806609993335,None,499.48806609993335,None,,,,,,,,,,,,,,032,2022-05-27_10h30.47.882,Main,2022.1.1,59.99761210479411,
neutral,positive,1,k,k,,,,,,,,,10,6,186,4,,,,,,,,,main,1,1,1,positive,neutral,k,k,1,0.8471075999550521,499.4921769000357,500.5068854999263,500.49025849998,None,499.4921769000357,None,499.4921769000357,None,499.4921769000357,None,501.3380105999531,None,501.3380105999531,None,501.3380105999531,None,,,,,,,,,,,,,,032,2022-05-27_10h30.47.882,Main,2022.1.1,59.99761210479411,
positive,neutral,2,l,j,,,,,,,,,10,7,187,17,,,,,,,,,main,2,2,2,neutral,positive,l,l,1,0.7744291999842972,501.3412469000323,502.3402848999249,502.3402848999249,None,501.3412469000323,None,501.3412469000323,None,501.3412469000323,None,503.1136998999864,None,503.1136998999864,None,503.1136998999864,None,,,,,,,,,,,,,,032,2022-05-27_10h30.47.882,Main,2022.1.1,59.99761210479411,
neutral,negative,2,k,k,,,,,,,,,10,8,188,16,,,,,,,,,main,2,2,2,negative,neutral,k,k,1,0.7387924999929965,503.1243399999803,504.13762569997925,504.10449109994806,None,503.1243399999803,None,503.1243399999803,None,503.1243399999803,None,504.85426269995514,None,504.85426269995514,None,504.85426269995514,None,,,,,,,,,,,,,,032,2022-05-27_10h30.47.882,Main,2022.1.1,59.99761210479411,
neutral,neutral,1,k,k,,,,,,,,,10,9,189,1,,,,,,,,,main,1,1,1,neutral,neutral,k,k,1,0.7843917000573128,504.8542632999597,505.8571919000242,505.84024639998097,None,504.8542632999597,None,504.8542632999597,None,504.8542632999597,None,506.64014579996,None,506.64014579996,None,506.64014579996,None,,,,,,,,,,,,,,032,2022-05-27_10h30.47.882,Main,2022.1.1,59.99761210479411,
negative,neutral,1,j,l,,,,,,,,,10,10,190,3,,,,,,,,,main,1,1,1,neutral,negative,j,j,1,0.7462342999642715,506.6437368999468,507.65675490000285,507.64016559999436,None,506.6437368999468,None,506.6437368999468,None,506.6437368999468,None,508.38791209994815,None,508.38791209994815,None,508.38791209994815,None,,,,,,,,,,,,,,032,2022-05-27_10h30.47.882,Main,2022.1.1,59.99761210479411,
negative,neutral,2,j,l,,,,,,,,,10,11,191,12,,,,,,,,,main,2,2,2,neutral,negative,j,j,1,0.8140278999926522,508.3920005999971,509.406758600031,509.39032040000893,None,508.3920005999971,None,508.3920005999971,None,508.3920005999971,None,510.2045103999553,None,510.2045103999553,None,510.2045103999553,None,,,,,,,,,,,,,,032,2022-05-27_10h30.47.882,Main,2022.1.1,59.99761210479411,
positive,negative,2,l,j,,,,,,,,,10,12,192,14,,,,,,,,,main,1,1,2,negative,positive,l,l,1,0.7818096000701189,510.20780109998304,511.223582000006,511.188243499957,None,510.20780109998304,None,510.20780109998304,None,510.20780109998304,None,511.98781850002706,None,511.98781850002706,None,511.98781850002706,None,,,,,,,,,,,,,,032,2022-05-27_10h30.47.882,Main,2022.1.1,59.99761210479411,
neutral,negative,1,k,k,,,,,,,,,10,13,193,7,,,,,,,,,main,2,2,1,negative,neutral,k,k,1,0.7652166000334546,511.99110789992847,513.0066405000398,512.9900973000331,None,511.99110789992847,None,511.99110789992847,None,511.99110789992847,None,513.7543942999328,None,513.7543942999328,None,513.7543942999328,None,,,,,,,,,,,,,,032,2022-05-27_10h30.47.882,Main,2022.1.1,59.99761210479411,
negative,positive,1,j,l,,,,,,,,,10,14,194,6,,,,,,,,,main,2,2,1,positive,negative,j,j,1,0.8322509999852628,513.7543364999583,514.7546115999576,514.7546115999576,None,513.7543364999583,None,513.7543364999583,None,513.7543364999583,None,515.5874069000129,None,515.5874069000129,None,515.5874069000129,None,,,,,,,,,,,,,,032,2022-05-27_10h30.47.882,Main,2022.1.1,59.99761210479411,
positive,positive,2,l,j,,,,,,,,,10,15,195,11,,,,,,,,,main,1,1,2,positive,positive,l,l,1,0.7324292999692261,515.5916885000188,516.6065625000047,516.5877000000328,None,515.5916885000188,None,515.5916885000188,None,515.5916885000188,None,517.3210920999991,None,517.3210920999991,None,517.3210920999991,None,,,,,,,,,,,,,,032,2022-05-27_10h30.47.882,Main,2022.1.1,59.99761210479411,
negative,negative,2,j,l,,,,,,,,,10,16,196,9,,,,,,,,,main,1,1,2,negative,negative,j,j,1,0.8133456000359729,517.3278867999325,518.3399659999413,518.321301399963,None,517.3278867999325,None,517.3278867999325,None,517.3278867999325,None,519.1374761000043,None,519.1374761000043,None,519.1374761000043,None,,,,,,,,,,,,,,032,2022-05-27_10h30.47.882,Main,2022.1.1,59.99761210479411,
neutral,neutral,2,k,k,,,,,,,,,10,17,197,10,,,,,,,,,main,2,2,2,neutral,neutral,k,k,1,0.7657039000187069,519.1435513999313,520.1565970999654,520.1399984000018,None,519.1435513999313,None,519.1435513999313,None,519.1435513999313,None,520.904265500023,None,520.904265500023,None,520.904265500023,None,,,,,,,,,,,,,,032,2022-05-27_10h30.47.882,Main,2022.1.1,59.99761210479411,
neutral,positive,2,k,k,,,,,,,,,11,0,198,13,,,,,,,,,main,2,2,2,positive,neutral,k,k,1,0.6503683000337332,520.9081631000154,521.9235966999549,521.9066175000044,None,520.9081631000154,None,520.9081631000154,None,520.9081631000154,None,522.5565549000166,None,522.5565549000166,None,522.5565549000166,None,,,,,,,,,,,,,,032,2022-05-27_10h30.47.882,Main,2022.1.1,59.99761210479411,
neutral,neutral,1,k,k,,,,,,,,,11,1,199,1,,,,,,,,,main,2,2,1,neutral,neutral,k,k,1,0.6791786999674514,522.5592757000122,523.57303650002,523.5564440999879,None,522.5592757000122,None,522.5592757000122,None,522.5592757000122,None,524.2371953999391,None,524.2371953999391,None,524.2371953999391,None,,,,,,,,,,,,,,032,2022-05-27_10h30.47.882,Main,2022.1.1,59.99761210479411,
neutral,neutral,2,k,k,,,,,,,,,11,2,200,10,,,,,,,,,main,2,2,2,neutral,neutral,k,k,1,0.680964200058952,524.2384662999539,525.2371653999435,525.2371653999435,None,524.2384662999539,None,524.2384662999539,None,524.2384662999539,None,525.9205461000092,None,525.9205461000092,None,525.9205461000092,None,,,,,,,,,,,,,,032,2022-05-27_10h30.47.882,Main,2022.1.1,59.99761210479411,
negative,positive,1,j,l,,,,,,,,,11,3,201,6,,,,,,,,,main,2,2,1,positive,negative,j,j,1,0.7651631999760866,525.924213499995,526.9397309999913,526.9230763999512,None,525.924213499995,None,525.924213499995,None,525.924213499995,None,527.6874834999908,None,527.6874834999908,None,527.6874834999908,None,,,,,,,,,,,,,,032,2022-05-27_10h30.47.882,Main,2022.1.1,59.99761210479411,
positive,negative,1,l,j,,,,,,,,,11,4,202,5,,,,,,,,,main,2,2,1,negative,positive,l,l,1,0.7642900000791997,527.6915081000188,528.7062983999494,528.6897545999382,None,527.6915081000188,None,527.6915081000188,None,527.6915081000188,None,529.4541051000124,None,529.4541051000124,None,529.4541051000124,None,,,,,,,,,,,,,,032,2022-05-27_10h30.47.882,Main,2022.1.1,59.99761210479411,
positive,neutral,2,l,j,,,,,,,,,11,5,203,17,,,,,,,,,main,2,2,2,neutral,positive,l,l,1,0.7162978999549523,529.457673399942,530.4729786999524,530.4563717999263,None,529.457673399942,None,529.457673399942,None,529.457673399942,None,531.1707388999639,None,531.1707388999639,None,531.1707388999639,None,,,,,,,,,,,,,,032,2022-05-27_10h30.47.882,Main,2022.1.1,59.99761210479411,
negative,neutral,2,j,l,,,,,,,,,11,6,204,12,,,,,,,,,main,2,2,2,neutral,negative,j,j,1,0.7970175999216735,531.1748621999286,532.1895985000301,532.1729702999583,None,531.1748621999286,None,531.1748621999286,None,531.1748621999286,None,532.9706947000232,None,532.9706947000232,None,532.9706947000232,None,,,,,,,,,,,,,,032,2022-05-27_10h30.47.882,Main,2022.1.1,59.99761210479411,
neutral,positive,1,k,k,,,,,,,,,11,7,205,4,,,,,,,,,main,1,1,1,positive,neutral,k,k,1,0.7249952999409288,532.9736750000156,533.9728546999395,533.9562671999447,None,532.9736750000156,None,532.9736750000156,None,532.9736750000156,None,534.6970060999738,None,534.6970060999738,None,534.6970060999738,None,,,,,,,,,,,,,,032,2022-05-27_10h30.47.882,Main,2022.1.1,59.99761210479411,
neutral,negative,1,k,k,,,,,,,,,11,8,206,7,,,,,,,,,main,1,1,1,negative,neutral,k,k,1,0.6716421999735758,534.701060499996,535.7036122999853,535.6869305999717,None,534.701060499996,None,534.701060499996,None,534.701060499996,None,536.370269899955,None,536.370269899955,None,536.370269899955,None,,,,,,,,,,,,,,032,2022-05-27_10h30.47.882,Main,2022.1.1,59.99761210479411,
negative,positive,2,j,l,,,,,,,,,11,9,207,15,,,,,,,,,main,1,1,2,positive,negative,j,j,1,0.7646891999756917,536.3710039999569,537.3702929000137,537.3702929000137,None,536.3710039999569,None,536.3710039999569,None,536.3710039999569,None,538.1374764000066,None,538.1374764000066,None,538.1374764000066,None,,,,,,,,,,,,,,032,2022-05-27_10h30.47.882,Main,2022.1.1,59.99761210479411,
negative,neutral,1,j,l,,,,,,,,,11,10,208,3,,,,,,,,,main,1,1,1,neutral,negative,j,j,1,0.8314042999409139,538.1434233000036,539.1561204999452,539.1395243000006,None,538.1434233000036,None,538.1434233000036,None,538.1434233000036,None,539.9705513999797,None,539.9705513999797,None,539.9705513999797,None,,,,,,,,,,,,,,032,2022-05-27_10h30.47.882,Main,2022.1.1,59.99761210479411,
negative,negative,1,j,l,,,,,,,,,11,11,209,0,,,,,,,,,main,1,1,1,negative,negative,j,j,1,0.7651830000104383,539.9735872999299,540.97275299998,540.956086799968,None,539.9735872999299,None,539.9735872999299,None,539.9735872999299,None,541.7371757000219,None,541.7371757000219,None,541.7371757000219,None,,,,,,,,,,,,,,032,2022-05-27_10h30.47.882,Main,2022.1.1,59.99761210479411,
positive,negative,2,l,j,,,,,,,,,11,12,210,14,,,,,,,,,main,2,2,2,negative,positive,l,l,1,0.798510100110434,541.7403875000309,542.7394809999969,542.7394809999969,None,541.7403875000309,None,541.7403875000309,None,541.7403875000309,None,543.5371309999609,None,543.5371309999609,None,543.5371309999609,None,,,,,,,,,,,,,,032,2022-05-27_10h30.47.882,Main,2022.1.1,59.99761210479411,
neutral,negative,2,k,k,,,,,,,,,11,13,211,16,,,,,,,,,main,2,2,2,negative,neutral,k,k,1,0.7480785000370815,543.5411926000379,544.5560352000175,544.5394452000037,None,543.5411926000379,None,543.5411926000379,None,543.5411926000379,None,545.2867467999458,None,545.2867467999458,None,545.2867467999458,None,,,,,,,,,,,,,,032,2022-05-27_10h30.47.882,Main,2022.1.1,59.99761210479411,
positive,neutral,1,l,j,,,,,,,,,11,14,212,8,,,,,,,,,main,1,1,1,neutral,positive,l,l,1,0.8474444999592379,545.2874042999465,546.2867269000271,546.2867269000271,None,545.2874042999465,None,545.2874042999465,None,545.2874042999465,None,547.1367629999295,None,547.1367629999295,None,547.1367629999295,None,,,,,,,,,,,,,,032,2022-05-27_10h30.47.882,Main,2022.1.1,59.99761210479411,
negative,negative,2,j,l,,,,,,,,,11,15,213,9,,,,,,,,,main,1,1,2,negative,negative,j,j,1,0.7844319000141695,547.1397993999999,548.1392885999521,548.1226511999266,None,547.1397993999999,None,547.1397993999999,None,547.1397993999999,None,548.9226447000401,None,548.9226447000401,None,548.9226447000401,None,,,,,,,,,,,,,,032,2022-05-27_10h30.47.882,Main,2022.1.1,59.99761210479411,
positive,positive,2,l,j,,,,,,,,,11,16,214,11,,,,,,,,,main,2,2,2,positive,positive,l,l,1,0.7649566000327468,548.9258147999644,549.9392248999793,549.922672900022,None,548.9258147999644,None,548.9258147999644,None,548.9258147999644,None,550.6892235999694,None,550.6892235999694,None,550.6892235999694,None,,,,,,,,,,,,,,032,2022-05-27_10h30.47.882,Main,2022.1.1,59.99761210479411,
positive,positive,1,l,j,,,,,,,,,11,17,215,2,,,,,,,,,main,1,1,1,positive,positive,l,l,1,0.8460486000403762,550.6922181999544,551.705805500038,551.6892944999272,None,550.6922181999544,None,550.6922181999544,None,550.6922181999544,None,552.5369436999317,None,552.5369436999317,None,552.5369436999317,None,,,,,,,,,,,,,,032,2022-05-27_10h30.47.882,Main,2022.1.1,59.99761210479411,
positive,negative,1,l,j,,,,,,,,,12,0,216,5,,,,,,,,,main,2,2,1,negative,positive,l,l,1,0.698675399995409,552.5401434999658,553.5392379999394,553.5392379999394,None,552.5401434999658,None,552.5401434999658,None,552.5401434999658,None,554.2369180000387,None,554.2369180000387,None,554.2369180000387,None,,,,,,,,,,,,,,032,2022-05-27_10h30.47.882,Main,2022.1.1,59.99761210479411,
positive,positive,2,l,j,,,,,,,,,12,1,217,11,,,,,,,,,main,1,1,2,positive,positive,l,l,1,0.7483088000444695,554.2404066999443,555.2557468999876,555.2391760000028,None,554.2404066999443,None,554.2404066999443,None,554.2404066999443,None,555.9868158999598,None,555.9868158999598,None,555.9868158999598,None,,,,,,,,,,,,,,032,2022-05-27_10h30.47.882,Main,2022.1.1,59.99761210479411,
negative,neutral,2,j,l,,,,,,,,,12,2,218,12,,,,,,,,,main,2,2,2,neutral,negative,j,j,1,0.7648039000341669,555.9866381000029,556.9865000999998,556.9865000999998,None,555.9866381000029,None,555.9866381000029,None,555.9866381000029,None,557.7532018999336,None,557.7532018999336,None,557.7532018999336,None,,,,,,,,,,,,,,032,2022-05-27_10h30.47.882,Main,2022.1.1,59.99761210479411,
negative,neutral,1,j,l,,,,,,,,,12,3,219,3,,,,,,,,,main,2,2,1,neutral,negative,j,j,1,0.7511270999675617,557.7562277999241,558.7557008999866,558.7391274999827,None,557.7562277999241,None,557.7562277999241,None,557.7562277999241,None,559.5058712000027,None,559.5058712000027,None,559.5058712000027,None,,,,,,,,,,,,,,032,2022-05-27_10h30.47.882,Main,2022.1.1,59.99761210479411,
neutral,negative,1,k,k,,,,,,,,,12,4,220,7,,,,,,,,,main,2,2,1,negative,neutral,k,k,1,0.7462264000205323,559.5087924000109,560.522306400002,560.5057657000143,None,559.5087924000109,None,559.5087924000109,None,559.5087924000109,None,561.2534351999639,None,561.2534351999639,None,561.2534351999639,None,,,,,,,,,,,,,,032,2022-05-27_10h30.47.882,Main,2022.1.1,59.99761210479411,
negative,positive,2,j,l,,,,,,,,,12,5,221,15,,,,,,,,,main,2,2,2,positive,negative,j,j,1,0.7503207999980077,561.2573112000246,562.2723200999899,562.2556859999895,None,561.2573112000246,None,561.2573112000246,None,561.2573112000246,None,563.0055538000306,None,563.0055538000306,None,563.0055538000306,None,,,,,,,,,,,,,,032,2022-05-27_10h30.47.882,Main,2022.1.1,59.99761210479411,
neutral,positive,1,k,k,,,,,,,,,12,6,222,4,,,,,,,,,main,2,2,1,positive,neutral,k,k,1,0.6986402000766248,563.0083447999787,564.0222400999628,564.0057107999455,None,563.0083447999787,None,563.0083447999787,None,563.0083447999787,None,564.7055805999553,None,564.7055805999553,None,564.7055805999553,None,,,,,,,,,,,,,,032,2022-05-27_10h30.47.882,Main,2022.1.1,59.99761210479411,
negative,negative,1,j,l,,,,,,,,,12,7,223,0,,,,,,,,,main,1,1,1,negative,negative,j,j,1,0.7827104999450967,564.7095004000003,565.7196440999396,565.7029860999901,None,564.7095004000003,None,564.7095004000003,None,564.7095004000003,None,566.4864134000381,None,566.4864134000381,None,566.4864134000381,None,,,,,,,,,,,,,,032,2022-05-27_10h30.47.882,Main,2022.1.1,59.99761210479411,
