target,distractor,set,ans1,ans2,rep_loop2.thisRepN,rep_loop2.thisTrialN,rep_loop2.thisN,rep_loop2.thisIndex,flanker_prac_loop.thisRepN,flanker_prac_loop.thisTrialN,flanker_prac_loop.thisN,flanker_prac_loop.thisIndex,flanker_main_loop.thisRepN,flanker_main_loop.thisTrialN,flanker_main_loop.thisN,flanker_main_loop.thisIndex,fl_inst_resp.keys,fl_inst_resp.rt,sound_1.started,sound_1.stopped,image_4.started,image_4.stopped,back_2.started,back_2.stopped,main_prac,fl_cold,fl_colt,fl_set,fl_dcond,fl_tcond,fl_ans,fl_res,fl_corr,fl_rt,fix_fl.started,fix_fl.stopped,targ.started,targ.stopped,j_button.started,j_button.stopped,k_button.started,k_button.stopped,l_button.started,l_button.stopped,j_button2.started,j_button2.stopped,k_button2.started,k_button2.stopped,l_button2.started,l_button2.stopped,mainback.started,mainback.stopped,key_resp.keys,key_resp.rt,mouse_6.x,mouse_6.y,mouse_6.leftButton,mouse_6.midButton,mouse_6.rightButton,mouse_6.started,mouse_6.stopped,text_2.started,text_2.stopped,id*,date,expName,psychopyVersion,frameRate,
,,,,,0,0,0,0,,,,,,,,,space,56.464535699924454,41.09081495013088,None,97.57305130013265,None,,,,,,,,,,,,,,,,,,,,,,,,,,,,,,,,,,,,,,,,,,033,2022-05-30_20h00.37.460,Main,2022.1.1,60.003228184286634,
negative,neutral,2,j,l,,,,,0,0,0,12,,,,,,,,,,,103.82032690010965,None,prac,1,1,2,neutral,negative,l,l,1,4.389057900058106,105.86010970012285,106.87278169998899,106.8395227000583,None,105.86010970012285,None,105.86010970012285,None,105.86010970012285,None,111.24136800016277,None,111.24136800016277,None,111.24136800016277,None,,,,,,,,,,,,,,033,2022-05-30_20h00.37.460,Main,2022.1.1,60.003228184286634,
positive,neutral,1,l,j,,,,,0,1,1,8,,,,,,,,,,,,,prac,1,1,1,neutral,positive,j,j,1,1.0672990998718888,112.26551130018197,113.27003780007362,113.27003780007362,None,112.26551130018197,None,112.26551130018197,None,112.26551130018197,None,114.32002004999667,None,114.32002004999667,None,114.32002004999667,None,,,,,,,,,,,,,,033,2022-05-30_20h00.37.460,Main,2022.1.1,60.003228184286634,
neutral,positive,2,k,k,,,,,0,2,2,13,,,,,,,,,,,,,prac,1,1,2,positive,neutral,k,k,1,0.885982499923557,114.32836730009876,115.33926120004617,115.32007070002146,None,114.32836730009876,None,114.32836730009876,None,114.32836730009876,None,116.20590564999729,None,116.20590564999729,None,116.20590564999729,None,,,,,,,,,,,,,,033,2022-05-30_20h00.37.460,Main,2022.1.1,60.003228184286634,
neutral,negative,1,k,k,,,,,0,3,3,7,,,,,,,,,,,,,prac,2,2,1,negative,neutral,k,k,1,0.9135938000399619,116.21251250011846,117.2225713999942,117.20630880002864,None,116.21251250011846,None,116.21251250011846,None,116.21251250011846,None,118.12258084998466,None,118.12258084998466,None,118.12258084998466,None,,,,,,,,,,,,,,033,2022-05-30_20h00.37.460,Main,2022.1.1,60.003228184286634,
neutral,negative,2,k,k,,,,,0,4,4,16,,,,,,,,,,,,,prac,1,1,2,negative,neutral,k,k,1,0.8296151000540704,118.12573750014417,119.13918450009078,119.12259450019337,None,118.12573750014417,None,118.12573750014417,None,118.12573750014417,None,119.95360155003145,None,119.95360155003145,None,119.95360155003145,None,,,,,,,,,,,,,,033,2022-05-30_20h00.37.460,Main,2022.1.1,60.003228184286634,
positive,positive,1,l,j,,,,,0,5,5,2,,,,,,,,,,,,,prac,2,2,1,positive,positive,j,j,1,1.6318104001693428,119.96809380012564,120.97244600020349,120.95588310016319,None,119.96809380012564,None,119.96809380012564,None,119.96809380012564,None,122.58906900021248,None,122.58906900021248,None,122.58906900021248,None,,,,,,,,,,,,,,033,2022-05-30_20h00.37.460,Main,2022.1.1,60.003228184286634,
positive,neutral,2,l,j,,,,,0,6,6,17,,,,,,,,,,,,,prac,2,2,2,neutral,positive,j,j,1,0.9865604001097381,123.6136200001929,124.61980410013348,124.58646940020844,None,123.6136200001929,None,123.6136200001929,None,123.6136200001929,None,125.58682575002312,None,125.58682575002312,None,125.58682575002312,None,,,,,,,,,,,,,,033,2022-05-30_20h00.37.460,Main,2022.1.1,60.003228184286634,
positive,negative,1,l,j,,,,,0,7,7,5,,,,,,,,,,,,,prac,1,1,1,negative,positive,j,j,1,0.667092900024727,125.59272440010682,126.60564450011589,126.58902040007524,None,125.59272440010682,None,125.59272440010682,None,125.59272440010682,None,127.25571725000627,None,127.25571725000627,None,127.25571725000627,None,,,,,,,,,,,,,,033,2022-05-30_20h00.37.460,Main,2022.1.1,60.003228184286634,
negative,negative,2,j,l,,,,,0,8,8,9,,,,,,,,,,,,,prac,2,2,2,negative,negative,l,l,1,0.6630017999559641,127.26962510007434,128.27232990018092,128.25572290015407,None,127.26962510007434,None,127.26962510007434,None,127.26962510007434,None,128.92009405018763,None,128.92009405018763,None,128.92009405018763,None,,,,,,,,,,,,,,033,2022-05-30_20h00.37.460,Main,2022.1.1,60.003228184286634,
negative,negative,1,j,l,,,,,0,9,9,0,,,,,,,,,,,,,prac,2,2,1,negative,negative,l,k,0,1.1824725000187755,128.92621210007928,129.93895260011777,129.9223992000334,None,128.92621210007928,None,128.92621210007928,None,128.92621210007928,None,131.10930250003003,None,131.10930250003003,None,131.10930250003003,None,,,,,,,,,,,,,,033,2022-05-30_20h00.37.460,Main,2022.1.1,60.003228184286634,
neutral,positive,1,k,k,,,,,0,10,10,4,,,,,,,,,,,,,prac,2,2,1,positive,neutral,k,k,1,0.9007921998854727,132.12098750006407,133.13555570016615,133.10222090012394,None,132.12098750006407,None,132.12098750006407,None,132.12098750006407,None,134.01961765014568,None,134.01961765014568,None,134.01961765014568,None,,,,,,,,,,,,,,033,2022-05-30_20h00.37.460,Main,2022.1.1,60.003228184286634,
negative,positive,2,j,l,,,,,0,11,11,15,,,,,,,,,,,,,prac,1,1,2,positive,negative,l,l,1,1.0155521999113262,134.0196335001383,135.0196428000927,135.0196428000927,None,134.0196335001383,None,134.0196335001383,None,134.0196335001383,None,136.03628375004047,None,136.03628375004047,None,136.03628375004047,None,,,,,,,,,,,,,,033,2022-05-30_20h00.37.460,Main,2022.1.1,60.003228184286634,
neutral,neutral,1,k,k,,,,,0,12,12,1,,,,,,,,,,,,,prac,2,2,1,neutral,neutral,k,k,1,0.8167113999370486,136.05332030006684,137.05296580004506,137.03631009999663,None,136.05332030006684,None,136.05332030006684,None,136.05332030006684,None,137.85551065015608,None,137.85551065015608,None,137.85551065015608,None,,,,,,,,,,,,,,033,2022-05-30_20h00.37.460,Main,2022.1.1,60.003228184286634,
positive,positive,2,l,j,,,,,0,13,13,11,,,,,,,,,,,,,prac,1,1,2,positive,positive,j,j,1,0.6792623000219464,137.85949180019088,138.872144700028,138.855472400086,None,137.85949180019088,None,137.85949180019088,None,137.85949180019088,None,139.53624895000831,None,139.53624895000831,None,139.53624895000831,None,,,,,,,,,,,,,,033,2022-05-30_20h00.37.460,Main,2022.1.1,60.003228184286634,
neutral,neutral,2,k,k,,,,,0,14,14,10,,,,,,,,,,,,,prac,2,2,2,neutral,neutral,k,k,1,0.6823541999328882,139.54225679999217,140.55543800001033,140.5221540001221,None,139.54225679999217,None,139.54225679999217,None,139.54225679999217,None,141.2199172500521,None,141.2199172500521,None,141.2199172500521,None,,,,,,,,,,,,,,033,2022-05-30_20h00.37.460,Main,2022.1.1,60.003228184286634,
positive,negative,2,l,j,,,,,0,15,15,14,,,,,,,,,,,,,prac,2,2,2,negative,positive,j,j,1,0.7484322001691908,141.236577300122,142.23871579999104,142.22212740010582,None,141.236577300122,None,141.236577300122,None,141.236577300122,None,142.96977675003,None,142.96977675003,None,142.96977675003,None,,,,,,,,,,,,,,033,2022-05-30_20h00.37.460,Main,2022.1.1,60.003228184286634,
negative,positive,1,j,l,,,,,0,16,16,6,,,,,,,,,,,,,prac,2,2,1,positive,negative,l,l,1,0.8001434002071619,142.98872520006262,143.9886880000122,143.972089700168,None,142.98872520006262,None,142.98872520006262,None,142.98872520006262,None,144.77195555013606,None,144.77195555013606,None,144.77195555013606,None,,,,,,,,,,,,,,033,2022-05-30_20h00.37.460,Main,2022.1.1,60.003228184286634,
negative,neutral,1,j,l,,,,,0,17,17,3,,,,,,,,,,,,,prac,2,2,1,neutral,negative,l,l,1,0.6793770999647677,144.77474140003324,145.78606349998154,145.7693970000837,None,144.77474140003324,None,144.77474140003324,None,144.77474140003324,None,146.45270075015725,None,146.45270075015725,None,146.45270075015725,None,,,,,,,,,,,,,,033,2022-05-30_20h00.37.460,Main,2022.1.1,60.003228184286634,
positive,negative,2,l,j,,,,,1,0,18,14,,,,,,,,,,,,,prac,1,1,2,negative,positive,j,j,1,0.7144732000306249,146.45411910000257,147.469390100101,147.45272910012864,None,146.45411910000257,None,146.45411910000257,None,146.45411910000257,None,148.16936635011808,None,148.16936635011808,None,148.16936635011808,None,,,,,,,,,,,,,,033,2022-05-30_20h00.37.460,Main,2022.1.1,60.003228184286634,
negative,neutral,2,j,l,,,,,1,1,19,12,,,,,,,,,,,,,prac,2,2,2,neutral,negative,l,l,1,0.7828729001339525,148.1721912000794,149.18605210003443,149.16940210014582,None,148.1721912000794,None,148.1721912000794,None,148.1721912000794,None,149.95359885012732,None,149.95359885012732,None,149.95359885012732,None,,,,,,,,,,,,,,033,2022-05-30_20h00.37.460,Main,2022.1.1,60.003228184286634,
neutral,neutral,2,k,k,,,,,1,2,20,10,,,,,,,,,,,,,prac,1,1,2,neutral,neutral,k,k,1,0.6503113999497145,149.95957539998926,150.97188880015165,150.95528450002894,None,149.95957539998926,None,149.95957539998926,None,149.95957539998926,None,151.60548365018332,None,151.60548365018332,None,151.60548365018332,None,,,,,,,,,,,,,,033,2022-05-30_20h00.37.460,Main,2022.1.1,60.003228184286634,
neutral,neutral,1,k,k,,,,,1,3,21,1,,,,,,,,,,,,,prac,2,2,1,neutral,neutral,k,k,1,0.5795515000354499,151.60924390004948,152.6218617002014,152.60524510010146,None,151.60924390004948,None,151.60924390004948,None,151.60924390004948,None,153.18631345005707,None,153.18631345005707,None,153.18631345005707,None,,,,,,,,,,,,,,033,2022-05-30_20h00.37.460,Main,2022.1.1,60.003228184286634,
positive,positive,2,l,j,,,,,1,4,22,11,,,,,,,,,,,,,prac,2,2,2,positive,positive,j,j,1,0.7480991000775248,153.20525050000288,154.2051325000357,154.1885334001854,None,153.20525050000288,None,153.20525050000288,None,153.20525050000288,None,154.93620895007626,None,154.93620895007626,None,154.93620895007626,None,,,,,,,,,,,,,,033,2022-05-30_20h00.37.460,Main,2022.1.1,60.003228184286634,
negative,negative,1,j,l,,,,,1,5,23,0,,,,,,,,,,,,,prac,2,2,1,negative,negative,l,l,1,0.5820381001103669,154.9393624002114,155.93843410001136,155.9218256000895,None,154.9393624002114,None,154.9393624002114,None,154.9393624002114,None,156.5195293500554,None,156.5195293500554,None,156.5195293500554,None,,,,,,,,,,,,,,033,2022-05-30_20h00.37.460,Main,2022.1.1,60.003228184286634,
negative,neutral,1,j,l,,,,,1,6,24,3,,,,,,,,,,,,,prac,2,2,1,neutral,negative,l,l,1,0.8648830999154598,156.52918890002184,157.53583730012178,157.51916020014323,None,156.52918890002184,None,156.52918890002184,None,156.52918890002184,None,158.3857908499893,None,158.3857908499893,None,158.3857908499893,None,,,,,,,,,,,,,,033,2022-05-30_20h00.37.460,Main,2022.1.1,60.003228184286634,
positive,neutral,2,l,j,,,,,1,7,25,17,,,,,,,,,,,,,prac,2,2,2,neutral,positive,j,j,1,0.7325393999926746,158.38582319999114,159.3883599000983,159.37177300010808,None,158.38582319999114,None,158.38582319999114,None,158.38582319999114,None,160.11945485016332,None,160.11945485016332,None,160.11945485016332,None,,,,,,,,,,,,,,033,2022-05-30_20h00.37.460,Main,2022.1.1,60.003228184286634,
neutral,negative,2,k,k,,,,,1,8,26,16,,,,,,,,,,,,,prac,2,2,2,negative,neutral,k,k,1,0.8149578000884503,160.1251768001821,161.1383164001163,161.121715700021,None,160.1251768001821,None,160.1251768001821,None,160.1251768001821,None,161.93606385001914,None,161.93606385001914,None,161.93606385001914,None,,,,,,,,,,,,,,033,2022-05-30_20h00.37.460,Main,2022.1.1,60.003228184286634,
negative,positive,1,j,l,,,,,1,9,27,6,,,,,,,,,,,,,prac,1,1,1,positive,negative,l,l,1,0.984366700053215,161.95167089998722,162.95489200018346,162.93829190009274,None,161.95167089998722,None,161.95167089998722,None,161.95167089998722,None,163.921684250189,None,163.921684250189,None,163.921684250189,None,,,,,,,,,,,,,,033,2022-05-30_20h00.37.460,Main,2022.1.1,60.003228184286634,
neutral,positive,2,k,k,,,,,1,10,28,13,,,,,,,,,,,,,prac,1,1,2,positive,neutral,k,k,1,0.665347300004214,163.92564070015214,164.9382066000253,164.92165879998356,None,163.92564070015214,None,163.92564070015214,None,163.92564070015214,None,165.58826345014387,None,165.58826345014387,None,165.58826345014387,None,,,,,,,,,,,,,,033,2022-05-30_20h00.37.460,Main,2022.1.1,60.003228184286634,
neutral,negative,1,k,k,,,,,1,11,29,7,,,,,,,,,,,,,prac,1,1,1,negative,neutral,k,k,1,0.7126066000200808,165.5911224000156,166.6048727000598,166.58829260012135,None,165.5911224000156,None,165.5911224000156,None,165.5911224000156,None,167.30228085019627,None,167.30228085019627,None,167.30228085019627,None,,,,,,,,,,,,,,033,2022-05-30_20h00.37.460,Main,2022.1.1,60.003228184286634,
positive,negative,1,l,j,,,,,1,12,30,5,,,,,,,,,,,,,prac,2,2,1,negative,positive,j,j,1,0.6487436001189053,167.3023000000976,168.30227190000005,168.30227190000005,None,167.3023000000976,None,167.3023000000976,None,167.3023000000976,None,168.95227994997987,None,168.95227994997987,None,168.95227994997987,None,,,,,,,,,,,,,,033,2022-05-30_20h00.37.460,Main,2022.1.1,60.003228184286634,
positive,positive,1,l,j,,,,,1,13,31,2,,,,,,,,,,,,,prac,1,1,1,positive,positive,j,j,1,0.6980447000823915,168.95866080000997,169.97155690006912,169.95488900016062,None,168.95866080000997,None,168.95866080000997,None,168.95866080000997,None,170.65269365017303,None,170.65269365017303,None,170.65269365017303,None,,,,,,,,,,,,,,033,2022-05-30_20h00.37.460,Main,2022.1.1,60.003228184286634,
negative,negative,2,j,l,,,,,1,14,32,9,,,,,,,,,,,,,prac,2,2,2,negative,negative,l,l,1,0.6485536000691354,170.66929330001585,171.67143980017863,171.63819910003804,None,170.66929330001585,None,170.66929330001585,None,170.66929330001585,None,172.30254105008208,None,172.30254105008208,None,172.30254105008208,None,,,,,,,,,,,,,,033,2022-05-30_20h00.37.460,Main,2022.1.1,60.003228184286634,
negative,positive,2,j,l,,,,,1,15,33,15,,,,,,,,,,,,,prac,2,2,2,positive,negative,l,l,1,0.7321713999845088,172.30809170007706,173.3213948002085,173.2881575000938,None,172.30809170007706,None,172.30809170007706,None,172.30809170007706,None,174.0359191500582,None,174.0359191500582,None,174.0359191500582,None,,,,,,,,,,,,,,033,2022-05-30_20h00.37.460,Main,2022.1.1,60.003228184286634,
positive,neutral,1,l,j,,,,,1,16,34,8,,,,,,,,,,,,,prac,1,1,1,neutral,positive,j,j,1,0.7340357999783009,174.04141970002092,175.05477720010094,175.03810050012544,None,174.04141970002092,None,174.04141970002092,None,174.04141970002092,None,175.7715011501685,None,175.7715011501685,None,175.7715011501685,None,,,,,,,,,,,,,,033,2022-05-30_20h00.37.460,Main,2022.1.1,60.003228184286634,
neutral,positive,1,k,k,,,,,1,17,35,4,,,,,,,,,,,,,prac,1,1,1,positive,neutral,k,k,1,0.7627305998466909,175.77535900007933,176.78790000011213,176.77138780010864,None,175.77535900007933,None,175.77535900007933,None,175.77535900007933,None,177.53539945017548,None,177.53539945017548,None,177.53539945017548,None,,,,,,,,,,,,,,033,2022-05-30_20h00.37.460,Main,2022.1.1,60.003228184286634,
,,,,,,,,,,,,,,,,,,,,,,,,,,,,,,,,,,,,,,,,,,,,,,,,,,,177.5354313000571,None,space,11.252539599779993,,,,,,,,,,033,2022-05-30_20h00.37.460,Main,2022.1.1,60.003228184286634,
,,,,,,,,,,,,,,,,,,,,,,,,,,,,,,,,,,,,,,,,,,,,,,,,,,,,,,,0.6527778,-0.19814815,0,0,0,0.011049350025132298,None,,,033,2022-05-30_20h00.37.460,Main,2022.1.1,60.003228184286634,
positive,neutral,1,l,j,,,,,,,,,0,0,0,8,,,,,,,188.81855279998854,None,main,2,2,1,neutral,positive,j,j,1,0.943583499873057,190.82739670015872,191.83515500021167,191.81849390012212,None,190.82739670015872,None,190.82739670015872,None,190.82739670015872,None,192.77100725001657,None,192.77100725001657,None,192.77100725001657,None,,,,,,,,,,,,,,033,2022-05-30_20h00.37.460,Main,2022.1.1,60.003228184286634,
neutral,positive,1,k,k,,,,,,,,,0,1,1,4,,,,,,,,,main,1,1,1,positive,neutral,k,k,1,1.0619768998585641,192.77499020006508,193.78771780012175,193.77108510001563,None,192.77499020006508,None,192.77499020006508,None,192.77499020006508,None,194.83542665019633,None,194.83542665019633,None,194.83542665019633,None,,,,,,,,,,,,,,033,2022-05-30_20h00.37.460,Main,2022.1.1,60.003228184286634,
negative,positive,1,j,l,,,,,,,,,0,2,2,6,,,,,,,,,main,2,2,1,positive,negative,l,l,1,0.5330364999826998,194.8398373001255,195.8542486000806,195.83759270003065,None,194.8398373001255,None,194.8398373001255,None,194.8398373001255,None,196.37107675005683,None,196.37107675005683,None,196.37107675005683,None,,,,,,,,,,,,,,033,2022-05-30_20h00.37.460,Main,2022.1.1,60.003228184286634,
positive,negative,1,l,j,,,,,,,,,0,3,3,5,,,,,,,,,main,2,2,1,negative,positive,j,j,1,0.5815867001656443,196.37405430013314,197.38765890011564,197.37099180021323,None,196.37405430013314,None,196.37405430013314,None,196.37405430013314,None,197.95422015008518,None,197.95422015008518,None,197.95422015008518,None,,,,,,,,,,,,,,033,2022-05-30_20h00.37.460,Main,2022.1.1,60.003228184286634,
negative,neutral,2,j,l,,,,,,,,,0,4,4,12,,,,,,,,,main,2,2,2,neutral,negative,l,l,1,0.8459802002180368,197.95722010009922,198.9679203000851,198.95130640012212,None,197.95722010009922,None,197.95722010009922,None,197.95722010009922,None,199.80160815007986,None,199.80160815007986,None,199.80160815007986,None,,,,,,,,,,,,,,033,2022-05-30_20h00.37.460,Main,2022.1.1,60.003228184286634,
neutral,negative,2,k,k,,,,,,,,,0,5,5,16,,,,,,,,,main,2,2,2,negative,neutral,k,k,1,0.5147714999038726,199.80164120020345,200.80161090008914,200.80161090008914,None,199.80164120020345,None,199.80164120020345,None,199.80164120020345,None,201.31831045001746,None,201.31831045001746,None,201.31831045001746,None,,,,,,,,,,,,,,033,2022-05-30_20h00.37.460,Main,2022.1.1,60.003228184286634,
positive,positive,1,l,j,,,,,,,,,0,6,6,2,,,,,,,,,main,1,1,1,positive,positive,j,j,1,0.7154605002142489,201.3239877000451,202.33750140015036,202.32089430000633,None,201.3239877000451,None,201.3239877000451,None,201.3239877000451,None,203.0352384501137,None,203.0352384501137,None,203.0352384501137,None,,,,,,,,,,,,,,033,2022-05-30_20h00.37.460,Main,2022.1.1,60.003228184286634,
negative,neutral,1,j,l,,,,,,,,,0,7,7,3,,,,,,,,,main,1,1,1,neutral,negative,l,l,1,0.7982570000458509,203.04103970015422,204.05419320007786,204.0375210000202,None,203.04103970015422,None,203.04103970015422,None,203.04103970015422,None,204.83519815020264,None,204.83519815020264,None,204.83519815020264,None,,,,,,,,,,,,,,033,2022-05-30_20h00.37.460,Main,2022.1.1,60.003228184286634,
negative,negative,1,j,l,,,,,,,,,0,8,8,0,,,,,,,,,main,2,2,1,negative,negative,l,l,1,0.9315835000015795,204.83888350008056,205.854012100026,205.8373926000204,None,204.83888350008056,None,204.83888350008056,None,204.83888350008056,None,206.76850205003285,None,206.76850205003285,None,206.76850205003285,None,,,,,,,,,,,,,,033,2022-05-30_20h00.37.460,Main,2022.1.1,60.003228184286634,
neutral,neutral,2,k,k,,,,,,,,,0,9,9,10,,,,,,,,,main,2,2,2,neutral,neutral,k,k,1,0.5149036999791861,206.7743483001832,207.7874502001796,207.77078030002303,None,206.7743483001832,None,206.7743483001832,None,206.7743483001832,None,208.28513585003094,None,208.28513585003094,None,208.28513585003094,None,,,,,,,,,,,,,,033,2022-05-30_20h00.37.460,Main,2022.1.1,60.003228184286634,
positive,positive,2,l,j,,,,,,,,,0,10,10,11,,,,,,,,,main,2,2,2,positive,positive,j,j,1,0.5814338000491261,208.28867540019564,209.3011037001852,209.2838657000102,None,208.28867540019564,None,208.28867540019564,None,208.28867540019564,None,209.86805995013566,None,209.86805995013566,None,209.86805995013566,None,,,,,,,,,,,,,,033,2022-05-30_20h00.37.460,Main,2022.1.1,60.003228184286634,
neutral,positive,2,k,k,,,,,,,,,0,11,11,13,,,,,,,,,main,1,1,2,positive,neutral,k,k,1,0.7984313999768347,209.88478160020895,210.884715200169,210.86806650017388,None,209.88478160020895,None,209.88478160020895,None,209.88478160020895,None,211.6680977500044,None,211.6680977500044,None,211.6680977500044,None,,,,,,,,,,,,,,033,2022-05-30_20h00.37.460,Main,2022.1.1,60.003228184286634,
negative,positive,2,j,l,,,,,,,,,0,12,12,15,,,,,,,,,main,1,1,2,positive,negative,l,l,1,0.5338512000162154,211.67154920008034,212.6706122001633,212.6706122001633,None,211.67154920008034,None,211.67154920008034,None,211.67154920008034,None,213.2038685502019,None,213.2038685502019,None,213.2038685502019,None,,,,,,,,,,,,,,033,2022-05-30_20h00.37.460,Main,2022.1.1,60.003228184286634,
neutral,neutral,1,k,k,,,,,,,,,0,13,13,1,,,,,,,,,main,1,1,1,neutral,neutral,k,k,1,0.5294510000385344,213.20675640017726,214.2205821000971,214.2039942999836,None,213.20675640017726,None,213.20675640017726,None,213.20675640017726,None,214.7350688501727,None,214.7350688501727,None,214.7350688501727,None,,,,,,,,,,,,,,033,2022-05-30_20h00.37.460,Main,2022.1.1,60.003228184286634,
positive,negative,2,l,j,,,,,,,,,0,14,14,14,,,,,,,,,main,2,2,2,negative,positive,j,j,1,0.617221400141716,214.74075110000558,215.7539647000376,215.7372909002006,None,214.74075110000558,None,214.74075110000558,None,214.74075110000558,None,216.35389285017737,None,216.35389285017737,None,216.35389285017737,None,,,,,,,,,,,,,,033,2022-05-30_20h00.37.460,Main,2022.1.1,60.003228184286634,
negative,negative,2,j,l,,,,,,,,,0,15,15,9,,,,,,,,,main,2,2,2,negative,negative,l,l,1,0.7127969998400658,216.35677410010248,217.36809810018167,217.35386000014842,None,216.35677410010248,None,216.35677410010248,None,216.35677410010248,None,218.06820475002752,None,218.06820475002752,None,218.06820475002752,None,,,,,,,,,,,,,,033,2022-05-30_20h00.37.460,Main,2022.1.1,60.003228184286634,
positive,neutral,2,l,j,,,,,,,,,0,16,16,17,,,,,,,,,main,1,1,2,neutral,positive,j,j,1,0.7146923001855612,218.07448180019855,219.0871034001466,219.07056140014902,None,218.07448180019855,None,218.07448180019855,None,218.07448180019855,None,219.78478705016897,None,219.78478705016897,None,219.78478705016897,None,,,,,,,,,,,,,,033,2022-05-30_20h00.37.460,Main,2022.1.1,60.003228184286634,
neutral,negative,1,k,k,,,,,,,,,0,17,17,7,,,,,,,,,main,2,2,1,negative,neutral,k,k,1,0.48178089992143214,219.79069599998184,220.80144650000148,220.78476900001988,None,219.79069599998184,None,219.79069599998184,None,219.79069599998184,None,221.26807695017197,None,221.26807695017197,None,221.26807695017197,None,,,,,,,,,,,,,,033,2022-05-30_20h00.37.460,Main,2022.1.1,60.003228184286634,
negative,neutral,1,j,l,,,,,,,,,1,0,18,3,,,,,,,,,main,2,2,1,neutral,negative,l,l,1,0.7165310999844223,221.27217100001872,222.28477480006404,222.27033600001596,None,221.27217100001872,None,221.27217100001872,None,221.27217100001872,None,222.98699275003747,None,222.98699275003747,None,222.98699275003747,None,,,,,,,,,,,,,,033,2022-05-30_20h00.37.460,Main,2022.1.1,60.003228184286634,
neutral,negative,1,k,k,,,,,,,,,1,1,19,7,,,,,,,,,main,2,2,1,negative,neutral,k,k,1,0.6451842000242323,222.99089320003986,224.00359640014358,223.98472880013287,None,222.99089320003986,None,222.99089320003986,None,222.99089320003986,None,224.63473355020398,None,224.63473355020398,None,224.63473355020398,None,,,,,,,,,,,,,,033,2022-05-30_20h00.37.460,Main,2022.1.1,60.003228184286634,
neutral,neutral,2,k,k,,,,,,,,,1,2,20,10,,,,,,,,,main,1,1,2,neutral,neutral,k,k,1,0.6984510000329465,224.6378975000698,225.65139890019782,225.6345737001393,None,224.6378975000698,None,224.6378975000698,None,224.6378975000698,None,226.33470445005224,None,226.33470445005224,None,226.33470445005224,None,,,,,,,,,,,,,,033,2022-05-30_20h00.37.460,Main,2022.1.1,60.003228184286634,
negative,neutral,2,j,l,,,,,,,,,1,3,21,12,,,,,,,,,main,1,1,2,neutral,negative,l,l,1,0.7475199999753386,226.35359539999627,227.35358540015295,227.33698710007593,None,226.35359539999627,None,226.35359539999627,None,226.35359539999627,None,228.08472535009497,None,228.08472535009497,None,228.08472535009497,None,,,,,,,,,,,,,,033,2022-05-30_20h00.37.460,Main,2022.1.1,60.003228184286634,
positive,positive,2,l,j,,,,,,,,,1,4,22,11,,,,,,,,,main,2,2,2,positive,positive,j,j,1,0.5484751998446882,228.0881626000628,229.1035118000582,229.08466160017997,None,228.0881626000628,None,228.0881626000628,None,228.0881626000628,None,229.63466445002706,None,229.63466445002706,None,229.63466445002706,None,,,,,,,,,,,,,,033,2022-05-30_20h00.37.460,Main,2022.1.1,60.003228184286634,
neutral,positive,1,k,k,,,,,,,,,1,5,23,4,,,,,,,,,main,2,2,1,positive,neutral,k,k,1,0.5815063000191003,229.63805930013768,230.65105290012434,230.63439350016415,None,229.63805930013768,None,229.63805930013768,None,229.63805930013768,None,231.2176992501598,None,231.2176992501598,None,231.2176992501598,None,,,,,,,,,,,,,,033,2022-05-30_20h00.37.460,Main,2022.1.1,60.003228184286634,
neutral,positive,2,k,k,,,,,,,,,1,6,24,13,,,,,,,,,main,2,2,2,positive,neutral,k,k,1,0.6008925999049097,231.21773959998973,232.2176898000762,232.2176898000762,None,231.21773959998973,None,231.21773959998973,None,231.21773959998973,None,232.82039875020274,None,232.82039875020274,None,232.82039875020274,None,,,,,,,,,,,,,,033,2022-05-30_20h00.37.460,Main,2022.1.1,60.003228184286634,
neutral,neutral,1,k,k,,,,,,,,,1,7,25,1,,,,,,,,,main,1,1,1,neutral,neutral,k,k,1,0.5299909000750631,232.82435320015065,233.83684370014817,233.82025400013663,None,232.82435320015065,None,232.82435320015065,None,232.82435320015065,None,234.35128885013984,None,234.35128885013984,None,234.35128885013984,None,,,,,,,,,,,,,,033,2022-05-30_20h00.37.460,Main,2022.1.1,60.003228184286634,
negative,positive,1,j,l,,,,,,,,,1,8,26,6,,,,,,,,,main,2,2,1,positive,negative,l,l,1,0.7809981000609696,234.35565520008095,235.37014040001668,235.35360889998265,None,234.35565520008095,None,234.35565520008095,None,234.35565520008095,None,236.13454685006292,None,236.13454685006292,None,236.13454685006292,None,,,,,,,,,,,,,,033,2022-05-30_20h00.37.460,Main,2022.1.1,60.003228184286634,
negative,negative,2,j,l,,,,,,,,,1,9,27,9,,,,,,,,,main,2,2,2,negative,negative,l,l,1,0.6656627000775188,236.13791510020383,237.1533965000417,237.13679110002704,None,236.13791510020383,None,236.13791510020383,None,236.13791510020383,None,237.8012103500776,None,237.8012103500776,None,237.8012103500776,None,,,,,,,,,,,,,,033,2022-05-30_20h00.37.460,Main,2022.1.1,60.003228184286634,
neutral,negative,2,k,k,,,,,,,,,1,10,28,16,,,,,,,,,main,2,2,2,negative,neutral,k,k,1,0.6977142000105232,237.80740270018578,238.820140800206,238.80355549999513,None,237.80740270018578,None,237.80740270018578,None,237.80740270018578,None,239.5012922500726,None,239.5012922500726,None,239.5012922500726,None,,,,,,,,,,,,,,033,2022-05-30_20h00.37.460,Main,2022.1.1,60.003228184286634,
positive,neutral,2,l,j,,,,,,,,,1,11,29,17,,,,,,,,,main,2,2,2,neutral,positive,j,j,1,0.9312221999280155,239.50761219998822,240.52006050013006,240.50352989998646,None,239.50761219998822,None,239.50761219998822,None,239.50761219998822,None,241.4341023501009,None,241.4341023501009,None,241.4341023501009,None,,,,,,,,,,,,,,033,2022-05-30_20h00.37.460,Main,2022.1.1,60.003228184286634,
positive,negative,2,l,j,,,,,,,,,1,12,30,14,,,,,,,,,main,1,1,2,negative,positive,j,j,1,0.7150319998618215,241.43412840017118,242.434090499999,242.434090499999,None,241.43412840017118,None,241.43412840017118,None,241.43412840017118,None,243.1507506500464,None,243.1507506500464,None,243.1507506500464,None,,,,,,,,,,,,,,033,2022-05-30_20h00.37.460,Main,2022.1.1,60.003228184286634,
positive,positive,1,l,j,,,,,,,,,1,13,31,2,,,,,,,,,main,2,2,1,positive,positive,j,j,1,0.6654173000715673,243.15389810013585,244.15330710005946,244.15330710005946,None,243.15389810013585,None,243.15389810013585,None,243.15389810013585,None,244.81774645014667,None,244.81774645014667,None,244.81774645014667,None,,,,,,,,,,,,,,033,2022-05-30_20h00.37.460,Main,2022.1.1,60.003228184286634,
negative,negative,1,j,l,,,,,,,,,1,14,32,0,,,,,,,,,main,2,2,1,negative,negative,l,l,1,0.5482227001339197,244.82363430014811,245.83659350010566,245.82000230019912,None,244.82363430014811,None,244.82363430014811,None,244.82363430014811,None,246.36769385002555,None,246.36769385002555,None,246.36769385002555,None,,,,,,,,,,,,,,033,2022-05-30_20h00.37.460,Main,2022.1.1,60.003228184286634,
positive,negative,1,l,j,,,,,,,,,1,15,33,5,,,,,,,,,main,2,2,1,negative,positive,j,j,1,0.9317990001291037,246.37341460003518,247.3866404001601,247.3533105000388,None,246.37341460003518,None,246.37341460003518,None,246.37341460003518,None,248.30098935002462,None,248.30098935002462,None,248.30098935002462,None,,,,,,,,,,,,,,033,2022-05-30_20h00.37.460,Main,2022.1.1,60.003228184286634,
negative,positive,2,j,l,,,,,,,,,1,16,34,15,,,,,,,,,main,2,2,2,positive,negative,l,l,1,0.7483374001458287,248.304594400106,249.31991449999623,249.30318400007673,None,248.304594400106,None,248.304594400106,None,248.304594400106,None,250.05091225001962,None,250.05091225001962,None,250.05091225001962,None,,,,,,,,,,,,,,033,2022-05-30_20h00.37.460,Main,2022.1.1,60.003228184286634,
positive,neutral,1,l,j,,,,,,,,,1,17,35,8,,,,,,,,,main,2,2,1,neutral,positive,j,j,1,0.7351026001852006,250.05431570019573,251.05738070001826,251.04982870002277,None,250.05431570019573,None,250.05431570019573,None,250.05431570019573,None,251.7838871501852,None,251.7838871501852,None,251.7838871501852,None,,,,,,,,,,,,,,033,2022-05-30_20h00.37.460,Main,2022.1.1,60.003228184286634,
positive,negative,2,l,j,,,,,,,,,2,0,36,14,,,,,,,,,main,1,1,2,negative,positive,j,j,1,0.6610315998550504,251.78791220020503,252.80055150017142,252.78388110012747,None,251.78791220020503,None,251.78791220020503,None,251.78791220020503,None,253.4505508502014,None,253.4505508502014,None,253.4505508502014,None,,,,,,,,,,,,,,033,2022-05-30_20h00.37.460,Main,2022.1.1,60.003228184286634,
negative,positive,2,j,l,,,,,,,,,2,1,37,15,,,,,,,,,main,1,1,2,positive,negative,l,,0,0.9714844999834895,253.45083410013467,254.45057490002364,254.45057490002364,None,253.45083410013467,None,253.45083410013467,None,253.45083410013467,None,255.419313600054,None,255.419313600054,None,255.419313600054,None,,,,,,,,,,,,,,033,2022-05-30_20h00.37.460,Main,2022.1.1,60.003228184286634,
neutral,negative,1,k,k,,,,,,,,,2,2,38,7,,,,,,,,,main,2,2,1,negative,neutral,k,k,1,0.8866618000902236,256.4184503001161,257.41969000012614,257.4031060000416,None,256.4184503001161,None,256.4184503001161,None,256.4184503001161,None,258.303002850106,None,258.303002850106,None,258.303002850106,None,,,,,,,,,,,,,,033,2022-05-30_20h00.37.460,Main,2022.1.1,60.003228184286634,
negative,neutral,2,j,l,,,,,,,,,2,3,39,12,,,,,,,,,main,2,2,2,neutral,negative,l,l,1,0.7810580001678318,258.3075811001472,259.31967510003597,259.30305410013534,None,258.3075811001472,None,258.3075811001472,None,258.3075811001472,None,260.08564695012757,None,260.08564695012757,None,260.08564695012757,None,,,,,,,,,,,,,,033,2022-05-30_20h00.37.460,Main,2022.1.1,60.003228184286634,
neutral,neutral,2,k,k,,,,,,,,,2,4,40,10,,,,,,,,,main,2,2,2,neutral,neutral,k,k,1,0.7140717001166195,260.09090980002657,261.10054980008863,261.08631930011325,None,260.09090980002657,None,260.09090980002657,None,260.09090980002657,None,261.80072205020116,None,261.80072205020116,None,261.80072205020116,None,,,,,,,,,,,,,,033,2022-05-30_20h00.37.460,Main,2022.1.1,60.003228184286634,
positive,positive,1,l,j,,,,,,,,,2,5,41,2,,,,,,,,,main,2,2,1,positive,positive,j,j,1,0.6968435999006033,261.80531970015727,262.8170096001122,262.80034210020676,None,261.80531970015727,None,261.80531970015727,None,261.80531970015727,None,263.5002974501811,None,263.5002974501811,None,263.5002974501811,None,,,,,,,,,,,,,,033,2022-05-30_20h00.37.460,Main,2022.1.1,60.003228184286634,
positive,negative,1,l,j,,,,,,,,,2,6,42,5,,,,,,,,,main,1,1,1,negative,positive,j,j,1,0.7486991998739541,263.5009796000086,264.5003659001086,264.5003659001086,None,263.5009796000086,None,263.5009796000086,None,263.5009796000086,None,265.2506345500704,None,265.2506345500704,None,265.2506345500704,None,,,,,,,,,,,,,,033,2022-05-30_20h00.37.460,Main,2022.1.1,60.003228184286634,
neutral,positive,2,k,k,,,,,,,,,2,7,43,13,,,,,,,,,main,2,2,2,positive,neutral,k,k,1,0.6665354000870138,265.25481400010176,266.26958870003,266.2530496001709,None,265.25481400010176,None,265.25481400010176,None,265.25481400010176,None,266.9195559501648,None,266.9195559501648,None,266.9195559501648,None,,,,,,,,,,,,,,033,2022-05-30_20h00.37.460,Main,2022.1.1,60.003228184286634,
neutral,neutral,1,k,k,,,,,,,,,2,8,44,1,,,,,,,,,main,1,1,1,neutral,neutral,k,k,1,0.7828212999738753,266.92241510003805,267.93614810006693,267.9195556000341,None,266.92241510003805,None,266.92241510003805,None,266.92241510003805,None,268.70417465008796,None,268.70417465008796,None,268.70417465008796,None,,,,,,,,,,,,,,033,2022-05-30_20h00.37.460,Main,2022.1.1,60.003228184286634,
neutral,negative,2,k,k,,,,,,,,,2,9,45,16,,,,,,,,,main,2,2,2,negative,neutral,k,k,1,0.6103533999994397,268.708413900109,269.7194405000191,269.7028374001384,None,268.708413900109,None,268.708413900109,None,268.708413900109,None,270.317211050028,None,270.317211050028,None,270.317211050028,None,,,,,,,,,,,,,,033,2022-05-30_20h00.37.460,Main,2022.1.1,60.003228184286634,
positive,positive,2,l,j,,,,,,,,,2,10,46,11,,,,,,,,,main,2,2,2,positive,positive,j,j,1,0.6838016998954117,270.3206830001436,271.33605720009655,271.31947150011547,None,270.3206830001436,None,270.3206830001436,None,270.3206830001436,None,272.0026596500073,None,272.0026596500073,None,272.0026596500073,None,,,,,,,,,,,,,,033,2022-05-30_20h00.37.460,Main,2022.1.1,60.003228184286634,
negative,positive,1,j,l,,,,,,,,,2,11,47,6,,,,,,,,,main,1,1,1,positive,negative,l,l,1,0.7626002999022603,272.0055238001514,273.0167998999823,273.00013729999773,None,272.0055238001514,None,272.0055238001514,None,272.0055238001514,None,273.76675255009906,None,273.76675255009906,None,273.76675255009906,None,,,,,,,,,,,,,,033,2022-05-30_20h00.37.460,Main,2022.1.1,60.003228184286634,
positive,neutral,1,l,j,,,,,,,,,2,12,48,8,,,,,,,,,main,1,1,1,neutral,positive,j,j,1,0.7314691001083702,273.766833800124,274.7668232000433,274.7668232000433,None,273.766833800124,None,273.766833800124,None,273.766833800124,None,275.50013715000824,None,275.50013715000824,None,275.50013715000824,None,,,,,,,,,,,,,,033,2022-05-30_20h00.37.460,Main,2022.1.1,60.003228184286634,
negative,negative,1,j,l,,,,,,,,,2,13,49,0,,,,,,,,,main,2,2,1,negative,negative,l,l,1,0.7321243998594582,275.50344100012444,276.50272059999406,276.50272059999406,None,275.50344100012444,None,275.50344100012444,None,275.50344100012444,None,277.23371265009047,None,277.23371265009047,None,277.23371265009047,None,,,,,,,,,,,,,,033,2022-05-30_20h00.37.460,Main,2022.1.1,60.003228184286634,
neutral,positive,1,k,k,,,,,,,,,2,14,50,4,,,,,,,,,main,1,1,1,positive,neutral,k,k,1,0.6186293999198824,277.2372254000511,278.2525995001197,278.2360125000123,None,277.2372254000511,None,277.2372254000511,None,277.2372254000511,None,278.85257075000555,None,278.85257075000555,None,278.85257075000555,None,,,,,,,,,,,,,,033,2022-05-30_20h00.37.460,Main,2022.1.1,60.003228184286634,
positive,neutral,2,l,j,,,,,,,,,2,15,51,17,,,,,,,,,main,1,1,2,neutral,positive,j,j,1,0.6800903000403196,278.8570149000734,279.86930360016413,279.8527046001982,None,278.8570149000734,None,278.8570149000734,None,278.8570149000734,None,280.53592245019973,None,280.53592245019973,None,280.53592245019973,None,,,,,,,,,,,,,,033,2022-05-30_20h00.37.460,Main,2022.1.1,60.003228184286634,
negative,negative,2,j,l,,,,,,,,,2,16,52,9,,,,,,,,,main,1,1,2,negative,negative,l,l,1,0.7961036001797765,280.5397686001379,281.5525427001994,281.5359102000948,None,280.5397686001379,None,280.5397686001379,None,280.5397686001379,None,282.3336176501587,None,282.3336176501587,None,282.3336176501587,None,,,,,,,,,,,,,,033,2022-05-30_20h00.37.460,Main,2022.1.1,60.003228184286634,
negative,neutral,1,j,l,,,,,,,,,2,17,53,3,,,,,,,,,main,2,2,1,neutral,negative,l,l,1,0.9314990001730621,282.3369362000376,283.34991640015505,283.33325910009444,None,282.3369362000376,None,282.3369362000376,None,282.3369362000376,None,284.2665493501816,None,284.2665493501816,None,284.2665493501816,None,,,,,,,,,,,,,,033,2022-05-30_20h00.37.460,Main,2022.1.1,60.003228184286634,
negative,neutral,2,j,l,,,,,,,,,3,0,54,12,,,,,,,,,main,2,2,2,neutral,negative,l,l,1,0.7343500999268144,284.28329340019263,285.28324280004017,285.2665836000815,None,284.28329340019263,None,284.28329340019263,None,284.28329340019263,None,286.00263985008934,None,286.00263985008934,None,286.00263985008934,None,,,,,,,,,,,,,,033,2022-05-30_20h00.37.460,Main,2022.1.1,60.003228184286634,
positive,negative,2,l,j,,,,,,,,,3,1,55,14,,,,,,,,,main,2,2,2,negative,positive,j,j,1,0.7291421999689192,286.00743490015157,287.01909420010634,287.0024789001327,None,286.00743490015157,None,286.00743490015157,None,286.00743490015157,None,287.73350985017606,None,287.73350985017606,None,287.73350985017606,None,,,,,,,,,,,,,,033,2022-05-30_20h00.37.460,Main,2022.1.1,60.003228184286634,
negative,negative,2,j,l,,,,,,,,,3,2,56,9,,,,,,,,,main,2,2,2,negative,negative,l,l,1,0.815045400056988,287.7397696999833,288.7524624001235,288.73578730016015,None,287.7397696999833,None,287.7397696999833,None,287.7397696999833,None,289.5501493501477,None,289.5501493501477,None,289.5501493501477,None,,,,,,,,,,,,,,033,2022-05-30_20h00.37.460,Main,2022.1.1,60.003228184286634,
negative,positive,2,j,l,,,,,,,,,3,3,57,15,,,,,,,,,main,1,1,2,positive,negative,l,l,1,0.7328517001587898,289.5535520000849,290.5690699000843,290.55247430014424,None,289.5535520000849,None,289.5535520000849,None,289.5535520000849,None,291.2845884500537,None,291.2845884500537,None,291.2845884500537,None,,,,,,,,,,,,,,033,2022-05-30_20h00.37.460,Main,2022.1.1,60.003228184286634,
neutral,negative,2,k,k,,,,,,,,,3,4,58,16,,,,,,,,,main,1,1,2,negative,neutral,k,k,1,0.8136579000856727,291.29023550008424,292.30228820000775,292.285652999999,None,291.29023550008424,None,291.29023550008424,None,291.29023550008424,None,293.1000636501238,None,293.1000636501238,None,293.1000636501238,None,,,,,,,,,,,,,,033,2022-05-30_20h00.37.460,Main,2022.1.1,60.003228184286634,
neutral,neutral,1,k,k,,,,,,,,,3,5,59,1,,,,,,,,,main,1,1,1,neutral,neutral,k,k,1,0.7978002999443561,293.10562020004727,294.11636590003036,294.09970550006256,None,293.10562020004727,None,293.10562020004727,None,293.10562020004727,None,294.899675350124,None,294.899675350124,None,294.899675350124,None,,,,,,,,,,,,,,033,2022-05-30_20h00.37.460,Main,2022.1.1,60.003228184286634,
negative,neutral,1,j,l,,,,,,,,,3,6,60,3,,,,,,,,,main,2,2,1,neutral,negative,l,l,1,0.8490303000435233,294.90031650010496,295.8997081001289,295.8997081001289,None,294.90031650010496,None,294.90031650010496,None,294.90031650010496,None,296.75009575015866,None,296.75009575015866,None,296.75009575015866,None,,,,,,,,,,,,,,033,2022-05-30_20h00.37.460,Main,2022.1.1,60.003228184286634,
neutral,negative,1,k,k,,,,,,,,,3,7,61,7,,,,,,,,,main,2,2,1,negative,neutral,k,k,1,0.7837489999365062,296.7559707001783,297.76886240020394,297.75229010009207,None,296.7559707001783,None,296.7559707001783,None,296.7559707001783,None,298.53548825015315,None,298.53548825015315,None,298.53548825015315,None,,,,,,,,,,,,,,033,2022-05-30_20h00.37.460,Main,2022.1.1,60.003228184286634,
positive,neutral,1,l,j,,,,,,,,,3,8,62,8,,,,,,,,,main,2,2,1,neutral,positive,j,j,1,0.7484430000185966,298.5386928000953,299.5522545001004,299.53557760012336,None,298.5386928000953,None,298.5386928000953,None,298.5386928000953,None,300.285641250154,None,300.285641250154,None,300.285641250154,None,,,,,,,,,,,,,,033,2022-05-30_20h00.37.460,Main,2022.1.1,60.003228184286634,
negative,positive,1,j,l,,,,,,,,,3,9,63,6,,,,,,,,,main,2,2,1,positive,negative,l,l,1,0.7293916000053287,300.2900398999918,301.30215920018964,301.28546870010905,None,300.2900398999918,None,300.2900398999918,None,300.2900398999918,None,302.0165599500295,None,302.0165599500295,None,302.0165599500295,None,,,,,,,,,,,,,,033,2022-05-30_20h00.37.460,Main,2022.1.1,60.003228184286634,
neutral,positive,2,k,k,,,,,,,,,3,10,64,13,,,,,,,,,main,2,2,2,positive,neutral,k,k,1,0.832466899883002,302.0225855000317,303.03543480020016,303.01890890020877,None,302.0225855000317,None,302.0225855000317,None,302.0225855000317,None,303.8498540501576,None,303.8498540501576,None,303.8498540501576,None,,,,,,,,,,,,,,033,2022-05-30_20h00.37.460,Main,2022.1.1,60.003228184286634,
positive,positive,1,l,j,,,,,,,,,3,11,65,2,,,,,,,,,main,1,1,1,positive,positive,j,j,1,0.7803534001577646,303.8562188001815,304.8665061001666,304.84948300011456,None,303.8562188001815,None,303.8562188001815,None,303.8562188001815,None,305.63277865010315,None,305.63277865010315,None,305.63277865010315,None,,,,,,,,,,,,,,033,2022-05-30_20h00.37.460,Main,2022.1.1,60.003228184286634,
positive,neutral,2,l,j,,,,,,,,,3,12,66,17,,,,,,,,,main,2,2,2,neutral,positive,j,j,1,0.7539719000924379,305.63280980009586,306.6328338000458,306.6328338000458,None,305.63280980009586,None,305.63280980009586,None,305.63280980009586,None,307.38835685020314,None,307.38835685020314,None,307.38835685020314,None,,,,,,,,,,,,,,033,2022-05-30_20h00.37.460,Main,2022.1.1,60.003228184286634,
neutral,neutral,2,k,k,,,,,,,,,3,13,67,10,,,,,,,,,main,2,2,2,neutral,neutral,k,k,1,0.8786424000281841,307.3914517001249,308.40199050004594,308.3853555000387,None,307.3914517001249,None,307.3914517001249,None,307.3914517001249,None,309.26856805006975,None,309.26856805006975,None,309.26856805006975,None,,,,,,,,,,,,,,033,2022-05-30_20h00.37.460,Main,2022.1.1,60.003228184286634,
positive,positive,2,l,j,,,,,,,,,3,14,68,11,,,,,,,,,main,1,1,2,positive,positive,j,j,1,0.7296086999122053,309.2725445001852,310.285218300065,310.2687052001711,None,309.2725445001852,None,309.2725445001852,None,309.2725445001852,None,310.9997158501763,None,310.9997158501763,None,310.9997158501763,None,,,,,,,,,,,,,,033,2022-05-30_20h00.37.460,Main,2022.1.1,60.003228184286634,
positive,negative,1,l,j,,,,,,,,,3,15,69,5,,,,,,,,,main,1,1,1,negative,positive,j,j,1,0.6837810999713838,311.00630380003713,312.0185738999862,312.0019648000598,None,311.00630380003713,None,311.00630380003713,None,311.00630380003713,None,312.6852257500403,None,312.6852257500403,None,312.6852257500403,None,,,,,,,,,,,,,,033,2022-05-30_20h00.37.460,Main,2022.1.1,60.003228184286634,
neutral,positive,1,k,k,,,,,,,,,3,16,70,4,,,,,,,,,main,2,2,1,positive,neutral,k,k,1,0.6814960001502186,312.6884754002094,313.70193660003133,313.68526190007105,None,312.6884754002094,None,312.6884754002094,None,312.6884754002094,None,314.36840325007216,None,314.36840325007216,None,314.36840325007216,None,,,,,,,,,,,,,,033,2022-05-30_20h00.37.460,Main,2022.1.1,60.003228184286634,
negative,negative,1,j,l,,,,,,,,,3,17,71,0,,,,,,,,,main,1,1,1,negative,negative,l,l,1,0.5791907000821084,314.3715698001906,315.3825676999986,315.3659073000308,None,314.3715698001906,None,314.3715698001906,None,314.3715698001906,None,315.9492382499855,None,315.9492382499855,None,315.9492382499855,None,,,,,,,,,,,,,,033,2022-05-30_20h00.37.460,Main,2022.1.1,60.003228184286634,
positive,positive,1,l,j,,,,,,,,,4,0,72,2,,,,,,,,,main,1,1,1,positive,positive,j,j,1,0.7807142999954522,315.95020700013265,316.94928390020505,316.94928390020505,None,315.95020700013265,None,315.95020700013265,None,315.95020700013265,None,317.73259035004304,None,317.73259035004304,None,317.73259035004304,None,,,,,,,,,,,,,,033,2022-05-30_20h00.37.460,Main,2022.1.1,60.003228184286634,
positive,negative,1,l,j,,,,,,,,,4,1,73,5,,,,,,,,,main,2,2,1,negative,positive,j,j,1,0.6485900001134723,317.7358684001956,318.73517210013233,318.73517210013233,None,317.7358684001956,None,317.7358684001956,None,317.7358684001956,None,319.3828566499986,None,319.3828566499986,None,319.3828566499986,None,,,,,,,,,,,,,,033,2022-05-30_20h00.37.460,Main,2022.1.1,60.003228184286634,
neutral,neutral,1,k,k,,,,,,,,,4,2,74,1,,,,,,,,,main,2,2,1,neutral,neutral,k,k,1,0.6509151998907328,319.38682660018094,320.40168420015834,320.385062500136,None,319.38682660018094,None,319.38682660018094,None,319.38682660018094,None,321.03511775000953,None,321.03511775000953,None,321.03511775000953,None,,,,,,,,,,,,,,033,2022-05-30_20h00.37.460,Main,2022.1.1,60.003228184286634,
neutral,negative,1,k,k,,,,,,,,,4,3,75,7,,,,,,,,,main,2,2,1,negative,neutral,k,k,1,0.6292195001151413,321.03825360001065,322.05170740000904,322.03509120014496,None,321.03825360001065,None,321.03825360001065,None,321.03825360001065,None,322.6661426501349,None,322.6661426501349,None,322.6661426501349,None,,,,,,,,,,,,,,033,2022-05-30_20h00.37.460,Main,2022.1.1,60.003228184286634,
negative,neutral,2,j,l,,,,,,,,,4,4,76,12,,,,,,,,,main,2,2,2,neutral,negative,l,l,1,0.7650015000253916,322.6719196001068,323.68498950009234,323.66846509999596,None,322.6719196001068,None,322.6719196001068,None,322.6719196001068,None,324.4327476501465,None,324.4327476501465,None,324.4327476501465,None,,,,,,,,,,,,,,033,2022-05-30_20h00.37.460,Main,2022.1.1,60.003228184286634,
positive,positive,2,l,j,,,,,,,,,4,5,77,11,,,,,,,,,main,2,2,2,positive,positive,j,j,1,0.5979917999356985,324.4361880000215,325.44903080002405,325.4323643001262,None,324.4361880000215,None,324.4361880000215,None,324.4361880000215,None,326.03235635017046,None,326.03235635017046,None,326.03235635017046,None,,,,,,,,,,,,,,033,2022-05-30_20h00.37.460,Main,2022.1.1,60.003228184286634,
negative,neutral,1,j,l,,,,,,,,,4,6,78,3,,,,,,,,,main,2,2,1,neutral,negative,l,l,1,0.7150301001966,326.0323766001966,327.0323652001098,327.0323652001098,None,326.0323766001966,None,326.0323766001966,None,326.0323766001966,None,327.7490524500143,None,327.7490524500143,None,327.7490524500143,None,,,,,,,,,,,,,,033,2022-05-30_20h00.37.460,Main,2022.1.1,60.003228184286634,
neutral,neutral,2,k,k,,,,,,,,,4,7,79,10,,,,,,,,,main,1,1,2,neutral,neutral,k,k,1,0.615161299938336,327.75209820014425,328.75163330021314,328.7350550000556,None,327.75209820014425,None,327.75209820014425,None,327.75209820014425,None,329.3659662501421,None,329.3659662501421,None,329.3659662501421,None,,,,,,,,,,,,,,033,2022-05-30_20h00.37.460,Main,2022.1.1,60.003228184286634,
negative,positive,2,j,l,,,,,,,,,4,8,80,15,,,,,,,,,main,2,2,2,positive,negative,l,l,1,0.6339257000945508,329.37153010000475,330.38483000011183,330.3682053000666,None,329.37153010000475,None,329.37153010000475,None,329.37153010000475,None,331.0014451501891,None,331.0014451501891,None,331.0014451501891,None,,,,,,,,,,,,,,033,2022-05-30_20h00.37.460,Main,2022.1.1,60.003228184286634,
neutral,positive,1,k,k,,,,,,,,,4,9,81,4,,,,,,,,,main,1,1,1,positive,neutral,k,k,1,0.5952169999945909,331.0056249999907,332.0181639001239,332.00155670009553,None,331.0056249999907,None,331.0056249999907,None,331.0056249999907,None,332.59924225015567,None,332.59924225015567,None,332.59924225015567,None,,,,,,,,,,,,,,033,2022-05-30_20h00.37.460,Main,2022.1.1,60.003228184286634,
negative,negative,2,j,l,,,,,,,,,4,10,82,9,,,,,,,,,main,2,2,2,negative,negative,l,l,1,0.7171003997791559,332.60257140011527,333.6181120001711,333.6015193001367,None,332.60257140011527,None,332.60257140011527,None,332.60257140011527,None,334.3180097501725,None,334.3180097501725,None,334.3180097501725,None,,,,,,,,,,,,,,033,2022-05-30_20h00.37.460,Main,2022.1.1,60.003228184286634,
negative,positive,1,j,l,,,,,,,,,4,11,83,6,,,,,,,,,main,2,2,1,positive,negative,l,l,1,0.8127253002021462,334.32096650009044,335.3346959000919,335.3181503000669,None,334.32096650009044,None,334.32096650009044,None,334.32096650009044,None,336.1321563501377,None,336.1321563501377,None,336.1321563501377,None,,,,,,,,,,,,,,033,2022-05-30_20h00.37.460,Main,2022.1.1,60.003228184286634,
positive,neutral,1,l,j,,,,,,,,,4,12,84,8,,,,,,,,,main,1,1,1,neutral,positive,j,j,1,0.6981230999808758,336.13218710012734,337.1321482001804,337.1321482001804,None,336.13218710012734,None,336.13218710012734,None,336.13218710012734,None,337.83215395007284,None,337.83215395007284,None,337.83215395007284,None,,,,,,,,,,,,,,033,2022-05-30_20h00.37.460,Main,2022.1.1,60.003228184286634,
negative,negative,1,j,l,,,,,,,,,4,13,85,0,,,,,,,,,main,1,1,1,negative,negative,l,l,1,0.831726900069043,337.83241660008207,338.83215100015514,338.83215100015514,None,337.83241660008207,None,337.83241660008207,None,337.83241660008207,None,339.6654814499896,None,339.6654814499896,None,339.6654814499896,None,,,,,,,,,,,,,,033,2022-05-30_20h00.37.460,Main,2022.1.1,60.003228184286634,
positive,negative,2,l,j,,,,,,,,,4,14,86,14,,,,,,,,,main,2,2,2,negative,positive,j,j,1,0.7320755999535322,339.67184650013223,340.68465470010415,340.66809000005014,None,339.67184650013223,None,339.67184650013223,None,339.67184650013223,None,341.3990803500172,None,341.3990803500172,None,341.3990803500172,None,,,,,,,,,,,,,,033,2022-05-30_20h00.37.460,Main,2022.1.1,60.003228184286634,
neutral,positive,2,k,k,,,,,,,,,4,15,87,13,,,,,,,,,main,2,2,2,positive,neutral,k,k,1,0.6673103999346495,341.403771399986,342.4179175000172,342.4013467000332,None,341.403771399986,None,341.403771399986,None,341.403771399986,None,343.0680511500221,None,343.0680511500221,None,343.0680511500221,None,,,,,,,,,,,,,,033,2022-05-30_20h00.37.460,Main,2022.1.1,60.003228184286634,
neutral,negative,2,k,k,,,,,,,,,4,16,88,16,,,,,,,,,main,1,1,2,negative,neutral,k,k,1,0.595931600080803,343.07095200009644,344.0846189002041,344.0679941000417,None,343.07095200009644,None,343.07095200009644,None,343.07095200009644,None,344.66570335016587,None,344.66570335016587,None,344.66570335016587,None,,,,,,,,,,,,,,033,2022-05-30_20h00.37.460,Main,2022.1.1,60.003228184286634,
positive,neutral,2,l,j,,,,,,,,,4,17,89,17,,,,,,,,,main,1,1,2,neutral,positive,j,j,1,0.8671625999268144,344.6718332001474,345.6845728000626,345.6679856001865,None,344.6718332001474,None,344.6718332001474,None,344.6718332001474,None,346.5345212500077,None,346.5345212500077,None,346.5345212500077,None,,,,,,,,,,,,,,033,2022-05-30_20h00.37.460,Main,2022.1.1,60.003228184286634,
neutral,negative,1,k,k,,,,,,,,,5,0,90,7,,,,,,,,,main,1,1,1,negative,neutral,k,k,1,0.6956459002103657,346.53724770015106,347.5485720001161,347.531914500054,None,346.53724770015106,None,346.53724770015106,None,346.53724770015106,None,348.23190865009093,None,348.23190865009093,None,348.23190865009093,None,,,,,,,,,,,,,,033,2022-05-30_20h00.37.460,Main,2022.1.1,60.003228184286634,
neutral,neutral,1,k,k,,,,,,,,,5,1,91,1,,,,,,,,,main,2,2,1,neutral,neutral,k,k,1,0.5654468999709934,348.23193640005775,349.2319552002009,349.2319552002009,None,348.23193640005775,None,348.23193640005775,None,348.23193640005775,None,349.7989103500266,None,349.7989103500266,None,349.7989103500266,None,,,,,,,,,,,,,,033,2022-05-30_20h00.37.460,Main,2022.1.1,60.003228184286634,
positive,neutral,1,l,j,,,,,,,,,5,2,92,8,,,,,,,,,main,2,2,1,neutral,positive,j,j,1,0.733112100046128,349.8052485000808,350.81776630016975,350.8011831000913,None,349.8052485000808,None,349.8052485000808,None,349.8052485000808,None,351.5344193500467,None,351.5344193500467,None,351.5344193500467,None,,,,,,,,,,,,,,033,2022-05-30_20h00.37.460,Main,2022.1.1,60.003228184286634,
neutral,positive,2,k,k,,,,,,,,,5,3,93,13,,,,,,,,,main,2,2,2,positive,neutral,k,k,1,0.5618966000620276,351.5384853000287,352.5511547999922,352.53456110018305,None,351.5384853000287,None,351.5384853000287,None,351.5384853000287,None,353.0988388501108,None,353.0988388501108,None,353.0988388501108,None,,,,,,,,,,,,,,033,2022-05-30_20h00.37.460,Main,2022.1.1,60.003228184286634,
neutral,positive,1,k,k,,,,,,,,,5,4,94,4,,,,,,,,,main,1,1,1,positive,neutral,k,k,1,0.6490408999379724,353.10234039998613,354.10110080009326,354.10110080009326,None,353.10234039998613,None,353.10234039998613,None,353.10234039998613,None,354.748464950081,None,354.748464950081,None,354.748464950081,None,,,,,,,,,,,,,,033,2022-05-30_20h00.37.460,Main,2022.1.1,60.003228184286634,
positive,positive,1,l,j,,,,,,,,,5,5,95,2,,,,,,,,,main,1,1,1,positive,positive,j,j,1,0.697526799980551,354.7549899001606,355.7677383001428,355.75106330006383,None,354.7549899001606,None,354.7549899001606,None,354.7549899001606,None,356.448744950071,None,356.448744950071,None,356.448744950071,None,,,,,,,,,,,,,,033,2022-05-30_20h00.37.460,Main,2022.1.1,60.003228184286634,
negative,positive,1,j,l,,,,,,,,,5,6,96,6,,,,,,,,,main,2,2,1,positive,negative,l,l,1,0.8147825000341982,356.45283200009726,357.4650365000125,357.4338200001512,None,356.45283200009726,None,356.45283200009726,None,356.45283200009726,None,358.26502925013193,None,358.26502925013193,None,358.26502925013193,None,,,,,,,,,,,,,,033,2022-05-30_20h00.37.460,Main,2022.1.1,60.003228184286634,
negative,neutral,1,j,l,,,,,,,,,5,7,97,3,,,,,,,,,main,2,2,1,neutral,negative,l,l,1,0.8149471001233906,358.2650530000683,359.2650765001308,359.2650765001308,None,358.2650530000683,None,358.2650530000683,None,358.2650530000683,None,360.0817188501358,None,360.0817188501358,None,360.0817188501358,None,,,,,,,,,,,,,,033,2022-05-30_20h00.37.460,Main,2022.1.1,60.003228184286634,
negative,negative,2,j,l,,,,,,,,,5,8,98,9,,,,,,,,,main,2,2,2,negative,negative,l,l,1,0.8986575999297202,360.08473840006627,361.08425030019134,361.06763120018877,None,360.08473840006627,None,360.08473840006627,None,360.08473840006627,None,361.9819881501142,None,361.9819881501142,None,361.9819881501142,None,,,,,,,,,,,,,,033,2022-05-30_20h00.37.460,Main,2022.1.1,60.003228184286634,
neutral,neutral,2,k,k,,,,,,,,,5,9,99,10,,,,,,,,,main,2,2,2,neutral,neutral,k,k,1,0.7310564001090825,361.98595050000586,363.000858000014,362.9842542000115,None,361.98595050000586,None,361.98595050000586,None,361.98595050000586,None,363.7152566501871,None,363.7152566501871,None,363.7152566501871,None,,,,,,,,,,,,,,033,2022-05-30_20h00.37.460,Main,2022.1.1,60.003228184286634,
positive,neutral,2,l,j,,,,,,,,,5,10,100,17,,,,,,,,,main,1,1,2,neutral,positive,j,j,1,0.8482371000573039,363.7185506001115,364.73414880014025,364.71763189998455,None,363.7185506001115,None,363.7185506001115,None,363.7185506001115,None,365.5652312500868,None,365.5652312500868,None,365.5652312500868,None,,,,,,,,,,,,,,033,2022-05-30_20h00.37.460,Main,2022.1.1,60.003228184286634,
positive,positive,2,l,j,,,,,,,,,5,11,101,11,,,,,,,,,main,2,2,2,positive,positive,j,j,1,0.6175239000003785,365.5707371002063,366.58404480013996,366.56746820011176,None,365.5707371002063,None,365.5707371002063,None,365.5707371002063,None,367.18416865002365,None,367.18416865002365,None,367.18416865002365,None,,,,,,,,,,,,,,033,2022-05-30_20h00.37.460,Main,2022.1.1,60.003228184286634,
positive,negative,1,l,j,,,,,,,,,5,12,102,5,,,,,,,,,main,2,2,1,negative,positive,j,j,1,0.6955792000517249,367.18762770015746,368.19818449998274,368.1815191002097,None,367.18762770015746,None,367.18762770015746,None,367.18762770015746,None,368.88147775009276,None,368.88147775009276,None,368.88147775009276,None,,,,,,,,,,,,,,033,2022-05-30_20h00.37.460,Main,2022.1.1,60.003228184286634,
neutral,negative,2,k,k,,,,,,,,,5,13,103,16,,,,,,,,,main,2,2,2,negative,neutral,k,k,1,0.7018044001888484,368.8815104002133,369.8815287000034,369.8815287000034,None,368.8815104002133,None,368.8815104002133,None,368.8815104002133,None,370.58396785003134,None,370.58396785003134,None,370.58396785003134,None,,,,,,,,,,,,,,033,2022-05-30_20h00.37.460,Main,2022.1.1,60.003228184286634,
negative,neutral,2,j,l,,,,,,,,,5,14,104,12,,,,,,,,,main,1,1,2,neutral,negative,l,l,1,0.7118878997862339,370.58788250014186,371.6006474001333,371.58402210008353,None,370.58788250014186,None,370.58788250014186,None,370.58788250014186,None,372.298449850129,None,372.298449850129,None,372.298449850129,None,,,,,,,,,,,,,,033,2022-05-30_20h00.37.460,Main,2022.1.1,60.003228184286634,
positive,negative,2,l,j,,,,,,,,,5,15,105,14,,,,,,,,,main,1,1,2,negative,positive,j,j,1,0.8162227999418974,372.30279770004563,373.31746849999763,373.3007440001238,None,372.30279770004563,None,372.30279770004563,None,372.30279770004563,None,374.1173842499964,None,374.1173842499964,None,374.1173842499964,None,,,,,,,,,,,,,,033,2022-05-30_20h00.37.460,Main,2022.1.1,60.003228184286634,
negative,positive,2,j,l,,,,,,,,,5,16,106,15,,,,,,,,,main,2,2,2,positive,negative,l,l,1,0.8650742000900209,374.12071770010516,375.1339797000401,375.11735740001313,None,374.12071770010516,None,374.12071770010516,None,374.12071770010516,None,375.98405785015785,None,375.98405785015785,None,375.98405785015785,None,,,,,,,,,,,,,,033,2022-05-30_20h00.37.460,Main,2022.1.1,60.003228184286634,
negative,negative,1,j,l,,,,,,,,,5,17,107,0,,,,,,,,,main,2,2,1,negative,negative,l,l,1,0.8626116001978517,375.98790700011887,377.00063970009796,376.9839765999932,None,375.98790700011887,None,375.98790700011887,None,375.98790700011887,None,377.8483236501459,None,377.8483236501459,None,377.8483236501459,None,,,,,,,,,,,,,,033,2022-05-30_20h00.37.460,Main,2022.1.1,60.003228184286634,
neutral,positive,2,k,k,,,,,,,,,6,0,108,13,,,,,,,,,main,1,1,2,positive,neutral,k,k,1,0.6980018999893218,377.8516492000781,378.86467370018363,378.8480477000121,None,377.8516492000781,None,377.8516492000781,None,377.8516492000781,None,379.547919350164,None,379.547919350164,None,379.547919350164,None,,,,,,,,,,,,,,033,2022-05-30_20h00.37.460,Main,2022.1.1,60.003228184286634,
negative,positive,1,j,l,,,,,,,,,6,1,109,6,,,,,,,,,main,2,2,1,positive,negative,l,l,1,0.8343968999106437,379.5479182000272,380.54797110008076,380.54797110008076,None,379.5479182000272,None,379.5479182000272,None,379.5479182000272,None,381.38389765000903,None,381.38389765000903,None,381.38389765000903,None,,,,,,,,,,,,,,033,2022-05-30_20h00.37.460,Main,2022.1.1,60.003228184286634,
neutral,neutral,1,k,k,,,,,,,,,6,2,110,1,,,,,,,,,main,2,2,1,neutral,neutral,k,k,1,0.6959613000508398,381.38667000015266,382.40046380017884,382.38386900001206,None,381.38667000015266,None,381.38667000015266,None,381.38667000015266,None,383.08154465020635,None,383.08154465020635,None,383.08154465020635,None,,,,,,,,,,,,,,033,2022-05-30_20h00.37.460,Main,2022.1.1,60.003228184286634,
negative,negative,2,j,l,,,,,,,,,6,3,111,9,,,,,,,,,main,2,2,2,negative,negative,l,l,1,0.7672935998998582,383.0846846001223,384.083844400011,384.083844400011,None,383.0846846001223,None,383.0846846001223,None,383.0846846001223,None,384.8504529501777,None,384.8504529501777,None,384.8504529501777,None,,,,,,,,,,,,,,033,2022-05-30_20h00.37.460,Main,2022.1.1,60.003228184286634,
neutral,negative,1,k,k,,,,,,,,,6,4,112,7,,,,,,,,,main,1,1,1,negative,neutral,k,k,1,0.6460726999212056,384.85331970010884,385.867027600063,385.8504313000012,None,384.85331970010884,None,384.85331970010884,None,384.85331970010884,None,386.49813005020843,None,386.49813005020843,None,386.49813005020843,None,,,,,,,,,,,,,,033,2022-05-30_20h00.37.460,Main,2022.1.1,60.003228184286634,
neutral,negative,2,k,k,,,,,,,,,6,5,113,16,,,,,,,,,main,2,2,2,negative,neutral,k,k,1,0.6171265000011772,386.5014476000797,387.5170348000247,387.50035800016485,None,386.5014476000797,None,386.5014476000797,None,386.5014476000797,None,388.1169521500822,None,388.1169521500822,None,388.1169521500822,None,,,,,,,,,,,,,,033,2022-05-30_20h00.37.460,Main,2022.1.1,60.003228184286634,
positive,negative,2,l,j,,,,,,,,,6,6,114,14,,,,,,,,,main,1,1,2,negative,positive,j,j,1,0.7802371999714524,388.1209561000578,389.13108930015005,389.1144146001898,None,388.1209561000578,None,388.1209561000578,None,388.1209561000578,None,389.897721550148,None,389.897721550148,None,389.897721550148,None,,,,,,,,,,,,,,033,2022-05-30_20h00.37.460,Main,2022.1.1,60.003228184286634,
negative,positive,2,j,l,,,,,,,,,6,7,115,15,,,,,,,,,main,2,2,2,positive,negative,l,l,1,0.7485386000480503,389.9144561002031,390.9144290999975,390.89776830002666,None,389.9144561002031,None,389.9144561002031,None,389.9144561002031,None,391.64887145017275,None,391.64887145017275,None,391.64887145017275,None,,,,,,,,,,,,,,033,2022-05-30_20h00.37.460,Main,2022.1.1,60.003228184286634,
neutral,neutral,2,k,k,,,,,,,,,6,8,116,10,,,,,,,,,main,1,1,2,neutral,neutral,k,k,1,0.6807426000013947,391.66703680017963,392.6669302000664,392.65033030021004,None,391.66703680017963,None,391.66703680017963,None,391.66703680017963,None,393.3313556501642,None,393.3313556501642,None,393.3313556501642,None,,,,,,,,,,,,,,033,2022-05-30_20h00.37.460,Main,2022.1.1,60.003228184286634,
positive,negative,1,l,j,,,,,,,,,6,9,117,5,,,,,,,,,main,1,1,1,negative,positive,j,j,1,0.8145657998975366,393.3376925000921,394.35023039998487,394.333634900162,None,393.3376925000921,None,393.3376925000921,None,393.3376925000921,None,395.1483861500863,None,395.1483861500863,None,395.1483861500863,None,,,,,,,,,,,,,,033,2022-05-30_20h00.37.460,Main,2022.1.1,60.003228184286634,
neutral,positive,1,k,k,,,,,,,,,6,10,118,4,,,,,,,,,main,2,2,1,positive,neutral,k,k,1,0.767040700186044,395.1544793001376,396.16685120016336,396.1502355001867,None,395.1544793001376,None,395.1544793001376,None,395.1544793001376,None,396.9168600500096,None,396.9168600500096,None,396.9168600500096,None,,,,,,,,,,,,,,033,2022-05-30_20h00.37.460,Main,2022.1.1,60.003228184286634,
positive,neutral,1,l,j,,,,,,,,,6,11,119,8,,,,,,,,,main,2,2,1,neutral,positive,j,j,1,0.8141006999649107,396.9207496000454,397.9334585000761,397.91687760013156,None,396.9207496000454,None,396.9207496000454,None,396.9207496000454,None,398.73342295009644,None,398.73342295009644,None,398.73342295009644,None,,,,,,,,,,,,,,033,2022-05-30_20h00.37.460,Main,2022.1.1,60.003228184286634,
positive,positive,2,l,j,,,,,,,,,6,12,120,11,,,,,,,,,main,1,1,2,positive,positive,j,j,1,0.6781677000690252,398.7373884001281,399.74752650014125,399.7308633001521,None,398.7373884001281,None,398.7373884001281,None,398.7373884001281,None,400.4141384500079,None,400.4141384500079,None,400.4141384500079,None,,,,,,,,,,,,,,033,2022-05-30_20h00.37.460,Main,2022.1.1,60.003228184286634,
positive,neutral,2,l,j,,,,,,,,,6,13,121,17,,,,,,,,,main,2,2,2,neutral,positive,j,j,1,0.6985281000379473,400.4141612001695,401.4141948001925,401.4141948001925,None,400.4141612001695,None,400.4141612001695,None,400.4141612001695,None,402.1141515501775,None,402.1141515501775,None,402.1141515501775,None,,,,,,,,,,,,,,033,2022-05-30_20h00.37.460,Main,2022.1.1,60.003228184286634,
positive,positive,1,l,j,,,,,,,,,6,14,122,2,,,,,,,,,main,1,1,1,positive,positive,j,j,1,0.649693800136447,402.1145804000553,403.11421230016276,403.11421230016276,None,402.1145804000553,None,402.1145804000553,None,402.1145804000553,None,403.76446645003745,None,403.76446645003745,None,403.76446645003745,None,,,,,,,,,,,,,,033,2022-05-30_20h00.37.460,Main,2022.1.1,60.003228184286634,
negative,neutral,1,j,l,,,,,,,,,6,15,123,3,,,,,,,,,main,2,2,1,neutral,negative,l,l,1,0.9304814001079649,403.77077950001694,404.7833246001974,404.76674590003677,None,403.77077950001694,None,403.77077950001694,None,403.77077950001694,None,405.6977537502069,None,405.6977537502069,None,405.6977537502069,None,,,,,,,,,,,,,,033,2022-05-30_20h00.37.460,Main,2022.1.1,60.003228184286634,
negative,neutral,2,j,l,,,,,,,,,6,16,124,12,,,,,,,,,main,2,2,2,neutral,negative,l,l,1,0.8484809999354184,405.7038661001716,406.7166482000612,406.68333340017125,None,405.7038661001716,None,405.7038661001716,None,405.7038661001716,None,407.5477007501293,None,407.5477007501293,None,407.5477007501293,None,,,,,,,,,,,,,,033,2022-05-30_20h00.37.460,Main,2022.1.1,60.003228184286634,
negative,negative,1,j,l,,,,,,,,,6,17,125,0,,,,,,,,,main,2,2,1,negative,negative,l,l,1,0.7499601000454277,407.5539163001813,408.5665374000091,408.5499466001056,None,407.5539163001813,None,407.5539163001813,None,407.5539163001813,None,409.2999558501877,None,409.2999558501877,None,409.2999558501877,None,,,,,,,,,,,,,,033,2022-05-30_20h00.37.460,Main,2022.1.1,60.003228184286634,
positive,negative,1,l,j,,,,,,,,,7,0,126,5,,,,,,,,,main,2,2,1,negative,positive,j,j,1,0.9113112001214176,409.30294690001756,410.3165535000153,410.30017220019363,None,409.30294690001756,None,409.30294690001756,None,409.30294690001756,None,411.2129740500357,None,411.2129740500357,None,411.2129740500357,None,,,,,,,,,,,,,,033,2022-05-30_20h00.37.460,Main,2022.1.1,60.003228184286634,
neutral,positive,1,k,k,,,,,,,,,7,1,127,4,,,,,,,,,main,1,1,1,positive,neutral,k,k,1,0.8152230998966843,411.21621720003895,412.23060580017045,412.21393670002,None,411.21621720003895,None,411.21621720003895,None,411.21621720003895,None,413.0305997500662,None,413.0305997500662,None,413.0305997500662,None,,,,,,,,,,,,,,033,2022-05-30_20h00.37.460,Main,2022.1.1,60.003228184286634,
negative,positive,2,j,l,,,,,,,,,7,2,128,15,,,,,,,,,main,1,1,2,positive,negative,l,l,1,0.9159691999666393,413.03073510015383,414.03060360020027,414.03060360020027,None,413.03073510015383,None,413.03073510015383,None,413.03073510015383,None,414.94726335019806,None,414.94726335019806,None,414.94726335019806,None,,,,,,,,,,,,,,033,2022-05-30_20h00.37.460,Main,2022.1.1,60.003228184286634,
neutral,neutral,2,k,k,,,,,,,,,7,3,129,10,,,,,,,,,main,2,2,2,neutral,neutral,k,k,1,0.7320866000372916,414.9516708001029,415.9664890000131,415.949869700009,None,414.9516708001029,None,414.9516708001029,None,414.9516708001029,None,416.68086545001717,None,416.68086545001717,None,416.68086545001717,None,,,,,,,,,,,,,,033,2022-05-30_20h00.37.460,Main,2022.1.1,60.003228184286634,
neutral,negative,2,k,k,,,,,,,,,7,4,130,16,,,,,,,,,main,2,2,2,negative,neutral,k,k,1,0.7967407000251114,416.68783370009623,417.69969879998825,417.6830923000816,None,416.68783370009623,None,416.68783370009623,None,416.68783370009623,None,418.4808422501199,None,418.4808422501199,None,418.4808422501199,None,,,,,,,,,,,,,,033,2022-05-30_20h00.37.460,Main,2022.1.1,60.003228184286634,
neutral,positive,2,k,k,,,,,,,,,7,5,131,13,,,,,,,,,main,2,2,2,positive,neutral,k,k,1,0.8671828000806272,418.48667420004494,419.49970530020073,419.48311440018006,None,418.48667420004494,None,418.48667420004494,None,418.48667420004494,None,420.3497567499988,None,420.3497567499988,None,420.3497567499988,None,,,,,,,,,,,,,,033,2022-05-30_20h00.37.460,Main,2022.1.1,60.003228184286634,
negative,negative,2,j,l,,,,,,,,,7,6,132,9,,,,,,,,,main,2,2,2,negative,negative,l,l,1,0.8462652999442071,420.3530367000494,421.3663672001567,421.3497359000612,None,420.3530367000494,None,420.3530367000494,None,420.3530367000494,None,422.19752495009453,None,422.19752495009453,None,422.19752495009453,None,,,,,,,,,,,,,,033,2022-05-30_20h00.37.460,Main,2022.1.1,60.003228184286634,
negative,negative,1,j,l,,,,,,,,,7,7,133,0,,,,,,,,,main,2,2,1,negative,negative,l,l,1,0.7313598999753594,422.2032444002107,423.21350010018796,423.19651910010725,None,422.2032444002107,None,422.2032444002107,None,422.2032444002107,None,423.9303559499793,None,423.9303559499793,None,423.9303559499793,None,,,,,,,,,,,,,,033,2022-05-30_20h00.37.460,Main,2022.1.1,60.003228184286634,
neutral,neutral,1,k,k,,,,,,,,,7,8,134,1,,,,,,,,,main,2,2,1,neutral,neutral,k,k,1,0.798048899974674,423.9303910001181,424.93034330010414,424.93034330010414,None,423.9303910001181,None,423.9303910001181,None,423.9303910001181,None,425.73031765008346,None,425.73031765008346,None,425.73031765008346,None,,,,,,,,,,,,,,033,2022-05-30_20h00.37.460,Main,2022.1.1,60.003228184286634,
positive,negative,2,l,j,,,,,,,,,7,9,135,14,,,,,,,,,main,2,2,2,negative,positive,j,j,1,0.7814885000698268,425.7305916000623,426.73036620020866,426.73036620020866,None,425.7305916000623,None,425.7305916000623,None,425.7305916000623,None,427.5136691501364,None,427.5136691501364,None,427.5136691501364,None,,,,,,,,,,,,,,033,2022-05-30_20h00.37.460,Main,2022.1.1,60.003228184286634,
neutral,negative,1,k,k,,,,,,,,,7,10,136,7,,,,,,,,,main,1,1,1,negative,neutral,k,k,1,0.9530609999783337,427.5188049999997,428.5329346000217,428.4996236001607,None,427.5188049999997,None,427.5188049999997,None,427.5188049999997,None,429.4639676501509,None,429.4639676501509,None,429.4639676501509,None,,,,,,,,,,,,,,033,2022-05-30_20h00.37.460,Main,2022.1.1,60.003228184286634,
negative,positive,1,j,l,,,,,,,,,7,11,137,6,,,,,,,,,main,2,2,1,positive,negative,l,l,1,0.6275478999596089,429.47109060012735,430.48282460006885,430.46621910016984,None,429.47109060012735,None,429.47109060012735,None,429.47109060012735,None,431.09725265013986,None,431.09725265013986,None,431.09725265013986,None,,,,,,,,,,,,,,033,2022-05-30_20h00.37.460,Main,2022.1.1,60.003228184286634,
positive,positive,1,l,j,,,,,,,,,7,12,138,2,,,,,,,,,main,1,1,1,positive,positive,j,j,1,0.7480349000543356,431.1007058999967,432.1161037001293,432.09949639998376,None,431.1007058999967,None,431.1007058999967,None,431.1007058999967,None,432.8472046500072,None,432.8472046500072,None,432.8472046500072,None,,,,,,,,,,,,,,033,2022-05-30_20h00.37.460,Main,2022.1.1,60.003228184286634,
negative,neutral,1,j,l,,,,,,,,,7,13,139,3,,,,,,,,,main,1,1,1,neutral,negative,l,l,1,0.7818045997992158,432.85026850015856,433.8494200001005,433.8494200001005,None,432.85026850015856,None,432.85026850015856,None,432.85026850015856,None,434.6304676502012,None,434.6304676502012,None,434.6304676502012,None,,,,,,,,,,,,,,033,2022-05-30_20h00.37.460,Main,2022.1.1,60.003228184286634,
positive,positive,2,l,j,,,,,,,,,7,14,140,11,,,,,,,,,main,1,1,2,positive,positive,j,j,1,0.6979213000740856,434.63389240019023,435.6467594001442,435.6300936001353,None,434.63389240019023,None,434.63389240019023,None,434.63389240019023,None,436.33009445010686,None,436.33009445010686,None,436.33009445010686,None,,,,,,,,,,,,,,033,2022-05-30_20h00.37.460,Main,2022.1.1,60.003228184286634,
negative,neutral,2,j,l,,,,,,,,,7,15,141,12,,,,,,,,,main,2,2,2,neutral,negative,l,l,1,0.8150384998880327,436.3301138000097,437.330115100136,437.330115100136,None,436.3301138000097,None,436.3301138000097,None,436.3301138000097,None,438.1467598501593,None,438.1467598501593,None,438.1467598501593,None,,,,,,,,,,,,,,033,2022-05-30_20h00.37.460,Main,2022.1.1,60.003228184286634,
positive,neutral,2,l,j,,,,,,,,,7,16,142,17,,,,,,,,,main,1,1,2,neutral,positive,j,j,1,0.717483599903062,438.1467846999876,439.1467669000849,439.1467669000849,None,438.1467846999876,None,438.1467846999876,None,438.1467846999876,None,439.86599274999463,None,439.86599274999463,None,439.86599274999463,None,,,,,,,,,,,,,,033,2022-05-30_20h00.37.460,Main,2022.1.1,60.003228184286634,
positive,neutral,1,l,j,,,,,,,,,7,17,143,8,,,,,,,,,main,1,1,1,neutral,positive,j,j,1,0.7800272000022233,439.8684768001549,440.8826578001026,440.866029900033,None,439.8684768001549,None,439.8684768001549,None,439.8684768001549,None,441.64669525013306,None,441.64669525013306,None,441.64669525013306,None,,,,,,,,,,,,,,033,2022-05-30_20h00.37.460,Main,2022.1.1,60.003228184286634,
negative,positive,1,j,l,,,,,,,,,8,0,144,6,,,,,,,,,main,2,2,1,positive,negative,l,l,1,0.7168505000881851,441.6659168000333,442.66581760020927,442.6492910000961,None,441.6659168000333,None,441.6659168000333,None,441.6659168000333,None,443.3659371500369,None,443.3659371500369,None,443.3659371500369,None,,,,,,,,,,,,,,033,2022-05-30_20h00.37.460,Main,2022.1.1,60.003228184286634,
negative,neutral,1,j,l,,,,,,,,,8,1,145,3,,,,,,,,,main,2,2,1,neutral,negative,l,l,1,0.8141902000643313,443.36992600001395,444.38253970001824,444.36593260010704,None,443.36992600001395,None,443.36992600001395,None,443.36992600001395,None,445.1825595499948,None,445.1825595499948,None,445.1825595499948,None,,,,,,,,,,,,,,033,2022-05-30_20h00.37.460,Main,2022.1.1,60.003228184286634,
neutral,positive,2,k,k,,,,,,,,,8,2,146,13,,,,,,,,,main,2,2,2,positive,neutral,k,k,1,0.695316799916327,445.1863104000222,446.1991660001222,446.1826015000697,None,445.1863104000222,None,445.1863104000222,None,445.1863104000222,None,446.8802225500811,None,446.8802225500811,None,446.8802225500811,None,,,,,,,,,,,,,,033,2022-05-30_20h00.37.460,Main,2022.1.1,60.003228184286634,
neutral,neutral,1,k,k,,,,,,,,,8,3,147,1,,,,,,,,,main,1,1,1,neutral,neutral,k,k,1,0.6972459000535309,446.88630390004255,447.8965331001673,447.87986890017055,None,446.88630390004255,None,446.88630390004255,None,446.88630390004255,None,448.5798195499927,None,448.5798195499927,None,448.5798195499927,None,,,,,,,,,,,,,,033,2022-05-30_20h00.37.460,Main,2022.1.1,60.003228184286634,
neutral,positive,1,k,k,,,,,,,,,8,4,148,4,,,,,,,,,main,1,1,1,positive,neutral,k,k,1,0.6143135000020266,448.58182600000873,449.5965251000598,449.57985740015283,None,448.58182600000873,None,448.58182600000873,None,448.58182600000873,None,450.1964997502044,None,450.1964997502044,None,450.1964997502044,None,,,,,,,,,,,,,,033,2022-05-30_20h00.37.460,Main,2022.1.1,60.003228184286634,
positive,positive,1,l,j,,,,,,,,,8,5,149,2,,,,,,,,,main,2,2,1,positive,positive,j,j,1,0.7007935999426991,450.19697990012355,451.1965229001362,451.1965229001362,None,450.19697990012355,None,450.19697990012355,None,450.19697990012355,None,451.8990803500172,None,451.8990803500172,None,451.8990803500172,None,,,,,,,,,,,,,,033,2022-05-30_20h00.37.460,Main,2022.1.1,60.003228184286634,
negative,neutral,2,j,l,,,,,,,,,8,6,150,12,,,,,,,,,main,2,2,2,neutral,negative,l,l,1,0.698819300159812,451.90207720012404,452.9156729001552,452.8990712000523,None,451.90207720012404,None,451.90207720012404,None,451.90207720012404,None,453.5990175501909,None,453.5990175501909,None,453.5990175501909,None,,,,,,,,,,,,,,033,2022-05-30_20h00.37.460,Main,2022.1.1,60.003228184286634,
neutral,negative,2,k,k,,,,,,,,,8,7,151,16,,,,,,,,,main,1,1,2,negative,neutral,k,k,1,0.6829984998330474,453.6021498001646,454.61566530005075,454.59902140009217,None,453.6021498001646,None,453.6021498001646,None,453.6021498001646,None,455.2801860500593,None,455.2801860500593,None,455.2801860500593,None,,,,,,,,,,,,,,033,2022-05-30_20h00.37.460,Main,2022.1.1,60.003228184286634,
neutral,negative,1,k,k,,,,,,,,,8,8,152,7,,,,,,,,,main,2,2,1,negative,neutral,k,k,1,0.6277349998708814,455.28757300018333,456.29894580016844,456.2823460001964,None,455.28757300018333,None,455.28757300018333,None,455.28757300018333,None,456.91337355012075,None,456.91337355012075,None,456.91337355012075,None,,,,,,,,,,,,,,033,2022-05-30_20h00.37.460,Main,2022.1.1,60.003228184286634,
negative,negative,2,j,l,,,,,,,,,8,9,153,9,,,,,,,,,main,2,2,2,negative,negative,l,l,1,0.6982220001518726,456.9164321999997,457.91557820001617,457.91557820001617,None,456.9164321999997,None,456.9164321999997,None,456.9164321999997,None,458.61333715002985,None,458.61333715002985,None,458.61333715002985,None,,,,,,,,,,,,,,033,2022-05-30_20h00.37.460,Main,2022.1.1,60.003228184286634,
positive,negative,1,l,j,,,,,,,,,8,10,154,5,,,,,,,,,main,1,1,1,negative,positive,j,j,1,0.7978911001700908,458.6166222000029,459.62962540006265,459.6129613001831,None,458.6166222000029,None,458.6166222000029,None,458.6166222000029,None,460.4128993500024,None,460.4128993500024,None,460.4128993500024,None,,,,,,,,,,,,,,033,2022-05-30_20h00.37.460,Main,2022.1.1,60.003228184286634,
positive,positive,2,l,j,,,,,,,,,8,11,155,11,,,,,,,,,main,1,1,2,positive,positive,j,j,1,0.7010262999683619,460.41359440004453,461.41550350002944,461.39890490006655,None,460.41359440004453,None,460.41359440004453,None,460.41359440004453,None,462.1155858500395,None,462.1155858500395,None,462.1155858500395,None,,,,,,,,,,,,,,033,2022-05-30_20h00.37.460,Main,2022.1.1,60.003228184286634,
positive,negative,2,l,j,,,,,,,,,8,12,156,14,,,,,,,,,main,1,1,2,negative,positive,j,j,1,0.5626316000707448,462.11814899998717,463.13213920011185,463.1155306000728,None,462.11814899998717,None,462.11814899998717,None,462.11814899998717,None,463.6799420502037,None,463.6799420502037,None,463.6799420502037,None,,,,,,,,,,,,,,033,2022-05-30_20h00.37.460,Main,2022.1.1,60.003228184286634,
neutral,neutral,2,k,k,,,,,,,,,8,13,157,10,,,,,,,,,main,2,2,2,neutral,neutral,k,k,1,0.6173588000237942,463.6833131001331,464.69876150018536,464.68217040016316,None,463.6833131001331,None,463.6833131001331,None,463.6833131001331,None,465.29879864999094,None,465.29879864999094,None,465.29879864999094,None,,,,,,,,,,,,,,033,2022-05-30_20h00.37.460,Main,2022.1.1,60.003228184286634,
positive,neutral,1,l,j,,,,,,,,,8,14,158,8,,,,,,,,,main,2,2,1,neutral,positive,j,j,1,0.6793104999233037,465.301600900013,466.3153965000529,466.2988041001372,None,465.301600900013,None,465.301600900013,None,465.301600900013,None,466.9798313499894,None,466.9798313499894,None,466.9798313499894,None,,,,,,,,,,,,,,033,2022-05-30_20h00.37.460,Main,2022.1.1,60.003228184286634,
negative,negative,1,j,l,,,,,,,,,8,15,159,0,,,,,,,,,main,1,1,1,negative,negative,l,l,1,0.8170183000620455,466.983207100071,467.9986865001265,467.98204280016944,None,466.983207100071,None,466.983207100071,None,466.983207100071,None,468.79860014999286,None,468.79860014999286,None,468.79860014999286,None,,,,,,,,,,,,,,033,2022-05-30_20h00.37.460,Main,2022.1.1,60.003228184286634,
negative,positive,2,j,l,,,,,,,,,8,16,160,15,,,,,,,,,main,2,2,2,positive,negative,l,l,1,0.629310900112614,468.8023983000312,469.81271470012143,469.79606170021,None,468.8023983000312,None,468.8023983000312,None,468.8023983000312,None,470.4293868501671,None,470.4293868501671,None,470.4293868501671,None,,,,,,,,,,,,,,033,2022-05-30_20h00.37.460,Main,2022.1.1,60.003228184286634,
positive,neutral,2,l,j,,,,,,,,,8,17,161,17,,,,,,,,,main,1,1,2,neutral,positive,j,j,1,0.7818241999484599,470.4294796001632,471.4294381001964,471.4294381001964,None,470.4294796001632,None,470.4294796001632,None,470.4294796001632,None,472.21305675008335,None,472.21305675008335,None,472.21305675008335,None,,,,,,,,,,,,,,033,2022-05-30_20h00.37.460,Main,2022.1.1,60.003228184286634,
neutral,positive,2,k,k,,,,,,,,,9,0,162,13,,,,,,,,,main,2,2,2,positive,neutral,k,k,1,0.615215300116688,472.2165752002038,473.2319236001931,473.21532410010695,None,472.2165752002038,None,472.2165752002038,None,472.2165752002038,None,473.8296531501226,None,473.8296531501226,None,473.8296531501226,None,,,,,,,,,,,,,,033,2022-05-30_20h00.37.460,Main,2022.1.1,60.003228184286634,
neutral,negative,2,k,k,,,,,,,,,9,1,163,16,,,,,,,,,main,2,2,2,negative,neutral,k,k,1,0.6001088998746127,473.83316590008326,474.8484879001044,474.83187930006534,None,473.83316590008326,None,473.83316590008326,None,473.83316590008326,None,475.43184585003183,None,475.43184585003183,None,475.43184585003183,None,,,,,,,,,,,,,,033,2022-05-30_20h00.37.460,Main,2022.1.1,60.003228184286634,
neutral,positive,1,k,k,,,,,,,,,9,2,164,4,,,,,,,,,main,2,2,1,positive,neutral,k,k,1,0.6152378001715988,475.4346692999825,476.4485567000229,476.43193620000966,None,475.4346692999825,None,475.4346692999825,None,475.4346692999825,None,477.04847185006366,None,477.04847185006366,None,477.04847185006366,None,,,,,,,,,,,,,,033,2022-05-30_20h00.37.460,Main,2022.1.1,60.003228184286634,
neutral,negative,1,k,k,,,,,,,,,9,3,165,7,,,,,,,,,main,1,1,1,negative,neutral,k,k,1,0.5793684998061508,477.0515350000933,478.065087800147,478.04850050015375,None,477.0515350000933,None,477.0515350000933,None,477.0515350000933,None,478.6295861501247,None,478.6295861501247,None,478.6295861501247,None,,,,,,,,,,,,,,033,2022-05-30_20h00.37.460,Main,2022.1.1,60.003228184286634,
negative,negative,2,j,l,,,,,,,,,9,4,166,9,,,,,,,,,main,2,2,2,negative,negative,l,l,1,0.7981686999555677,478.63271050015464,479.6458823001012,479.6292150001973,None,478.63271050015464,None,478.63271050015464,None,478.63271050015464,None,480.42918325001375,None,480.42918325001375,None,480.42918325001375,None,,,,,,,,,,,,,,033,2022-05-30_20h00.37.460,Main,2022.1.1,60.003228184286634,
positive,positive,2,l,j,,,,,,,,,9,5,167,11,,,,,,,,,main,2,2,2,positive,positive,j,j,1,0.7842210999224335,480.42929680016823,481.4292314001359,481.4292314001359,None,480.42929680016823,None,480.42929680016823,None,480.42929680016823,None,482.215123349987,None,482.215123349987,None,482.215123349987,None,,,,,,,,,,,,,,033,2022-05-30_20h00.37.460,Main,2022.1.1,60.003228184286634,
negative,positive,2,j,l,,,,,,,,,9,6,168,15,,,,,,,,,main,1,1,2,positive,negative,l,l,1,0.8650470001157373,482.2185679001268,483.2317186000291,483.2151327000465,None,482.2185679001268,None,482.2185679001268,None,482.2185679001268,None,484.0819251501933,None,484.0819251501933,None,484.0819251501933,None,,,,,,,,,,,,,,033,2022-05-30_20h00.37.460,Main,2022.1.1,60.003228184286634,
neutral,neutral,1,k,k,,,,,,,,,9,7,169,1,,,,,,,,,main,1,1,1,neutral,neutral,k,k,1,0.6122198000084609,484.0862754001282,485.09834700007923,485.081691800151,None,484.0862754001282,None,484.0862754001282,None,484.0862754001282,None,485.695806850167,None,485.695806850167,None,485.695806850167,None,,,,,,,,,,,,,,033,2022-05-30_20h00.37.460,Main,2022.1.1,60.003228184286634,
negative,neutral,2,j,l,,,,,,,,,9,8,170,12,,,,,,,,,main,1,1,2,neutral,negative,l,l,1,0.8318419000133872,485.6990993001964,486.6983621001709,486.6983621001709,None,485.6990993001964,None,485.6990993001964,None,485.6990993001964,None,487.52939395019786,None,487.52939395019786,None,487.52939395019786,None,,,,,,,,,,,,,,033,2022-05-30_20h00.37.460,Main,2022.1.1,60.003228184286634,
neutral,neutral,2,k,k,,,,,,,,,9,9,171,10,,,,,,,,,main,1,1,2,neutral,neutral,k,k,1,0.598402600036934,487.5332406000234,488.54833520017564,488.5316591002047,None,487.5332406000234,None,487.5332406000234,None,487.5332406000234,None,489.12936505018735,None,489.12936505018735,None,489.12936505018735,None,,,,,,,,,,,,,,033,2022-05-30_20h00.37.460,Main,2022.1.1,60.003228184286634,
negative,negative,1,j,l,,,,,,,,,9,10,172,0,,,,,,,,,main,2,2,1,negative,negative,l,l,1,0.7315069998148829,489.13275310001336,490.14566050004214,490.12899440014735,None,489.13275310001336,None,489.13275310001336,None,489.13275310001336,None,490.86229525012897,None,490.86229525012897,None,490.86229525012897,None,,,,,,,,,,,,,,033,2022-05-30_20h00.37.460,Main,2022.1.1,60.003228184286634,
positive,negative,2,l,j,,,,,,,,,9,11,173,14,,,,,,,,,main,2,2,2,negative,positive,j,j,1,0.8479639999568462,490.862325000111,491.8623163001612,491.8623163001612,None,490.862325000111,None,490.862325000111,None,490.862325000111,None,492.71228855005467,None,492.71228855005467,None,492.71228855005467,None,,,,,,,,,,,,,,033,2022-05-30_20h00.37.460,Main,2022.1.1,60.003228184286634,
negative,positive,1,j,l,,,,,,,,,9,12,174,6,,,,,,,,,main,2,2,1,positive,negative,l,l,1,0.8684296999126673,492.7134576002136,493.7289834001567,493.7123158001341,None,492.7134576002136,None,492.7134576002136,None,492.7134576002136,None,494.5795712500811,None,494.5795712500811,None,494.5795712500811,None,,,,,,,,,,,,,,033,2022-05-30_20h00.37.460,Main,2022.1.1,60.003228184286634,
positive,neutral,1,l,j,,,,,,,,,9,13,175,8,,,,,,,,,main,1,1,1,neutral,positive,j,j,1,0.7132817998062819,494.59034220012836,495.5981540000066,495.5815491999965,None,494.59034220012836,None,494.59034220012836,None,494.59034220012836,None,496.29812885001303,None,496.29812885001303,None,496.29812885001303,None,,,,,,,,,,,,,,033,2022-05-30_20h00.37.460,Main,2022.1.1,60.003228184286634,
positive,negative,1,l,j,,,,,,,,,9,14,176,5,,,,,,,,,main,1,1,1,negative,positive,j,j,1,0.7324886000715196,496.3011826002039,497.3148787000682,497.29817090020515,None,496.3011826002039,None,496.3011826002039,None,496.3011826002039,None,498.0321389501449,None,498.0321389501449,None,498.0321389501449,None,,,,,,,,,,,,,,033,2022-05-30_20h00.37.460,Main,2022.1.1,60.003228184286634,
negative,neutral,1,j,l,,,,,,,,,9,15,177,3,,,,,,,,,main,2,2,1,neutral,negative,l,l,1,0.8619925999082625,498.0360248000361,499.04801560007036,499.0314035001211,None,498.0360248000361,None,498.0360248000361,None,498.0360248000361,None,499.89581555007027,None,499.89581555007027,None,499.89581555007027,None,,,,,,,,,,,,,,033,2022-05-30_20h00.37.460,Main,2022.1.1,60.003228184286634,
positive,neutral,2,l,j,,,,,,,,,9,16,178,17,,,,,,,,,main,1,1,2,neutral,positive,j,j,1,0.7505542000290006,499.8998475000262,500.91475970018655,500.89810650004074,None,499.8998475000262,None,499.8998475000262,None,499.8998475000262,None,501.6480394501239,None,501.6480394501239,None,501.6480394501239,None,,,,,,,,,,,,,,033,2022-05-30_20h00.37.460,Main,2022.1.1,60.003228184286634,
positive,positive,1,l,j,,,,,,,,,9,17,179,2,,,,,,,,,main,2,2,1,positive,positive,j,j,1,0.761705500073731,501.65207770001143,502.66206250013784,502.64540560008027,None,501.65207770001143,None,501.65207770001143,None,501.65207770001143,None,503.41203855019995,None,503.41203855019995,None,503.41203855019995,None,,,,,,,,,,,,,,033,2022-05-30_20h00.37.460,Main,2022.1.1,60.003228184286634,
positive,neutral,2,l,j,,,,,,,,,10,0,180,17,,,,,,,,,main,2,2,2,neutral,positive,j,j,1,0.6148632999975234,503.41204850003123,504.4120670000557,504.4120670000557,None,503.41204850003123,None,503.41204850003123,None,503.41204850003123,None,505.02868215013297,None,505.02868215013297,None,505.02868215013297,None,,,,,,,,,,,,,,033,2022-05-30_20h00.37.460,Main,2022.1.1,60.003228184286634,
neutral,positive,1,k,k,,,,,,,,,10,1,181,4,,,,,,,,,main,1,1,1,positive,neutral,k,k,1,0.5686316001228988,505.02883160021156,506.0287088002078,506.0287088002078,None,505.02883160021156,None,505.02883160021156,None,505.02883160021156,None,506.5980633501429,None,506.5980633501429,None,506.5980633501429,None,,,,,,,,,,,,,,033,2022-05-30_20h00.37.460,Main,2022.1.1,60.003228184286634,
positive,negative,1,l,j,,,,,,,,,10,2,182,5,,,,,,,,,main,1,1,1,negative,positive,j,j,1,0.7318589999340475,506.60212180018425,507.6145654001739,507.59815390012227,None,506.60212180018425,None,506.60212180018425,None,506.60212180018425,None,508.3312953500543,None,508.3312953500543,None,508.3312953500543,None,,,,,,,,,,,,,,033,2022-05-30_20h00.37.460,Main,2022.1.1,60.003228184286634,
negative,neutral,1,j,l,,,,,,,,,10,3,183,3,,,,,,,,,main,1,1,1,neutral,negative,l,l,1,0.9137671999633312,508.3353883000091,509.34785950020887,509.33125420007855,None,508.3353883000091,None,508.3353883000091,None,508.3353883000091,None,510.24783895020374,None,510.24783895020374,None,510.24783895020374,None,,,,,,,,,,,,,,033,2022-05-30_20h00.37.460,Main,2022.1.1,60.003228184286634,
positive,negative,2,l,j,,,,,,,,,10,4,184,14,,,,,,,,,main,2,2,2,negative,positive,j,j,1,0.6627675998024642,510.25061180000193,511.26199110015295,511.2478608000092,None,510.25061180000193,None,510.25061180000193,None,510.25061180000193,None,511.912233950058,None,511.912233950058,None,511.912233950058,None,,,,,,,,,,,,,,033,2022-05-30_20h00.37.460,Main,2022.1.1,60.003228184286634,
negative,negative,2,j,l,,,,,,,,,10,5,185,9,,,,,,,,,main,1,1,2,negative,negative,l,l,1,0.934620400192216,511.91541470005177,512.9145096000284,512.9145096000284,None,511.91541470005177,None,511.91541470005177,None,511.91541470005177,None,513.8482483501546,None,513.8482483501546,None,513.8482483501546,None,,,,,,,,,,,,,,033,2022-05-30_20h00.37.460,Main,2022.1.1,60.003228184286634,
neutral,positive,2,k,k,,,,,,,,,10,6,186,13,,,,,,,,,main,2,2,2,positive,neutral,k,k,1,0.7784015000797808,513.8621065001935,514.8618088001385,514.845148100052,None,513.8621065001935,None,513.8621065001935,None,513.8621065001935,None,515.6284529501106,None,515.6284529501106,None,515.6284529501106,None,,,,,,,,,,,,,,033,2022-05-30_20h00.37.460,Main,2022.1.1,60.003228184286634,
positive,positive,2,l,j,,,,,,,,,10,7,187,11,,,,,,,,,main,1,1,2,positive,positive,j,j,1,0.5149268000386655,515.6284600000363,516.6284682000987,516.6284682000987,None,515.6284600000363,None,515.6284600000363,None,515.6284600000363,None,517.1451235501561,None,517.1451235501561,None,517.1451235501561,None,,,,,,,,,,,,,,033,2022-05-30_20h00.37.460,Main,2022.1.1,60.003228184286634,
positive,neutral,1,l,j,,,,,,,,,10,8,188,8,,,,,,,,,main,1,1,1,neutral,positive,j,j,1,0.7176756002008915,517.1480504001956,518.1476673001889,518.1310442001559,None,517.1480504001956,None,517.1480504001956,None,517.1480504001956,None,518.8644744501914,None,518.8644744501914,None,518.8644744501914,None,,,,,,,,,,,,,,033,2022-05-30_20h00.37.460,Main,2022.1.1,60.003228184286634,
neutral,negative,1,k,k,,,,,,,,,10,9,189,7,,,,,,,,,main,2,2,1,negative,neutral,k,k,1,0.6665537999942899,518.8674338001292,519.8809860001784,519.8643989001866,None,518.8674338001292,None,518.8674338001292,None,518.8674338001292,None,520.5309576501138,None,520.5309576501138,None,520.5309576501138,None,,,,,,,,,,,,,,033,2022-05-30_20h00.37.460,Main,2022.1.1,60.003228184286634,
neutral,negative,2,k,k,,,,,,,,,10,10,190,16,,,,,,,,,main,2,2,2,negative,neutral,k,k,1,0.6474450998939574,520.535510300193,521.547933800146,521.5309957000427,None,520.535510300193,None,520.535510300193,None,520.535510300193,None,522.1807937500532,None,522.1807937500532,None,522.1807937500532,None,,,,,,,,,,,,,,033,2022-05-30_20h00.37.460,Main,2022.1.1,60.003228184286634,
negative,negative,1,j,l,,,,,,,,,10,11,191,0,,,,,,,,,main,2,2,1,negative,negative,l,l,1,0.7620564000681043,522.1849796001334,523.1975389001891,523.1809073002078,None,522.1849796001334,None,522.1849796001334,None,522.1849796001334,None,523.9453264500014,None,523.9453264500014,None,523.9453264500014,None,,,,,,,,,,,,,,033,2022-05-30_20h00.37.460,Main,2022.1.1,60.003228184286634,
neutral,neutral,2,k,k,,,,,,,,,10,12,192,10,,,,,,,,,main,2,2,2,neutral,neutral,k,k,1,0.7146163999568671,523.9489943000954,524.964177899994,524.9475953001529,None,523.9489943000954,None,523.9489943000954,None,523.9489943000954,None,525.661582450103,None,525.661582450103,None,525.661582450103,None,,,,,,,,,,,,,,033,2022-05-30_20h00.37.460,Main,2022.1.1,60.003228184286634,
neutral,neutral,1,k,k,,,,,,,,,10,13,193,1,,,,,,,,,main,2,2,1,neutral,neutral,k,k,1,0.648146599996835,525.661598799983,526.6615687999874,526.6615687999874,None,525.661598799983,None,525.661598799983,None,525.661598799983,None,527.3115935499779,None,527.3115935499779,None,527.3115935499779,None,,,,,,,,,,,,,,033,2022-05-30_20h00.37.460,Main,2022.1.1,60.003228184286634,
negative,neutral,2,j,l,,,,,,,,,10,14,194,12,,,,,,,,,main,1,1,2,neutral,negative,l,l,1,0.8843231000937521,527.3144412001129,528.3140542001929,528.2974545001052,None,527.3144412001129,None,527.3144412001129,None,527.3144412001129,None,529.1974711501505,None,529.1974711501505,None,529.1974711501505,None,,,,,,,,,,,,,,033,2022-05-30_20h00.37.460,Main,2022.1.1,60.003228184286634,
positive,positive,1,l,j,,,,,,,,,10,15,195,2,,,,,,,,,main,1,1,1,positive,positive,j,j,1,0.9857711000367999,529.2003529001959,530.2140275000129,530.1974157001823,None,529.2003529001959,None,529.2003529001959,None,529.2003529001959,None,531.1809086501132,None,531.1809086501132,None,531.1809086501132,None,,,,,,,,,,,,,,033,2022-05-30_20h00.37.460,Main,2022.1.1,60.003228184286634,
negative,positive,2,j,l,,,,,,,,,10,16,196,15,,,,,,,,,main,2,2,2,positive,negative,l,l,1,0.6450281001161784,531.1879013001453,532.1973320001271,532.1807010001503,None,531.1879013001453,None,531.1879013001453,None,531.1879013001453,None,532.8284142501186,None,532.8284142501186,None,532.8284142501186,None,,,,,,,,,,,,,,033,2022-05-30_20h00.37.460,Main,2022.1.1,60.003228184286634,
negative,positive,1,j,l,,,,,,,,,10,17,197,6,,,,,,,,,main,2,2,1,positive,negative,l,l,1,0.880822999868542,532.8352934001014,533.8473240002058,533.8307120001409,None,532.8352934001014,None,532.8352934001014,None,532.8352934001014,None,534.7139411500655,None,534.7139411500655,None,534.7139411500655,None,,,,,,,,,,,,,,033,2022-05-30_20h00.37.460,Main,2022.1.1,60.003228184286634,
negative,neutral,2,j,l,,,,,,,,,11,0,198,12,,,,,,,,,main,1,1,2,neutral,negative,l,l,1,0.6291350000537932,534.716801200062,535.7286786001641,535.7111270001624,None,534.716801200062,None,534.716801200062,None,534.716801200062,None,536.3446912501938,None,536.3446912501938,None,536.3446912501938,None,,,,,,,,,,,,,,033,2022-05-30_20h00.37.460,Main,2022.1.1,60.003228184286634,
positive,negative,1,l,j,,,,,,,,,11,1,199,5,,,,,,,,,main,2,2,1,negative,positive,j,j,1,0.9152166999410838,536.3447812001687,537.3446820999961,537.3446820999961,None,536.3447812001687,None,536.3447812001687,None,536.3447812001687,None,538.2613494500517,None,538.2613494500517,None,538.2613494500517,None,,,,,,,,,,,,,,033,2022-05-30_20h00.37.460,Main,2022.1.1,60.003228184286634,
negative,positive,2,j,l,,,,,,,,,11,2,200,15,,,,,,,,,main,1,1,2,positive,negative,l,l,1,0.784165799850598,538.26474530017,539.2639176000375,539.2639176000375,None,538.26474530017,None,538.26474530017,None,538.26474530017,None,540.0473047501407,None,540.0473047501407,None,540.0473047501407,None,,,,,,,,,,,,,,033,2022-05-30_20h00.37.460,Main,2022.1.1,60.003228184286634,
neutral,positive,2,k,k,,,,,,,,,11,3,201,13,,,,,,,,,main,2,2,2,positive,neutral,k,k,1,0.7459849999286234,540.0505470000207,541.063868300058,541.0472721999977,None,540.0505470000207,None,540.0505470000207,None,540.0505470000207,None,541.7949518500361,None,541.7949518500361,None,541.7949518500361,None,,,,,,,,,,,,,,033,2022-05-30_20h00.37.460,Main,2022.1.1,60.003228184286634,
positive,positive,1,l,j,,,,,,,,,11,4,202,2,,,,,,,,,main,2,2,1,positive,positive,j,j,1,0.9816020999569446,541.7985890000127,542.8138276000973,542.7972307000309,None,541.7985890000127,None,541.7985890000127,None,541.7985890000127,None,543.7782341499812,None,543.7782341499812,None,543.7782341499812,None,,,,,,,,,,,,,,033,2022-05-30_20h00.37.460,Main,2022.1.1,60.003228184286634,
neutral,negative,2,k,k,,,,,,,,,11,5,203,16,,,,,,,,,main,2,2,2,negative,neutral,k,k,1,0.7482660000678152,543.7816566000693,544.7971146001946,544.7805192000233,None,543.7816566000693,None,543.7816566000693,None,543.7816566000693,None,545.5282026500906,None,545.5282026500906,None,545.5282026500906,None,,,,,,,,,,,,,,033,2022-05-30_20h00.37.460,Main,2022.1.1,60.003228184286634,
neutral,positive,1,k,k,,,,,,,,,11,6,204,4,,,,,,,,,main,2,2,1,positive,neutral,k,k,1,0.6646811999380589,545.5345236000139,546.5444866002072,546.5278325001709,None,545.5345236000139,None,545.5345236000139,None,545.5345236000139,None,547.1944668502081,None,547.1944668502081,None,547.1944668502081,None,,,,,,,,,,,,,,033,2022-05-30_20h00.37.460,Main,2022.1.1,60.003228184286634,
positive,positive,2,l,j,,,,,,,,,11,7,205,11,,,,,,,,,main,1,1,2,positive,positive,j,j,1,0.6317669001873583,547.1945716000628,548.1944966001902,548.1944966001902,None,547.1945716000628,None,547.1945716000628,None,547.1945716000628,None,548.8281385499984,None,548.8281385499984,None,548.8281385499984,None,,,,,,,,,,,,,,033,2022-05-30_20h00.37.460,Main,2022.1.1,60.003228184286634,
negative,negative,2,j,l,,,,,,,,,11,8,206,9,,,,,,,,,main,2,2,2,negative,negative,l,l,1,0.7151957000605762,548.8312165001407,549.8304006999824,549.8137768001761,None,548.8312165001407,None,548.8312165001407,None,548.8312165001407,None,550.5447749502025,None,550.5447749502025,None,550.5447749502025,None,,,,,,,,,,,,,,033,2022-05-30_20h00.37.460,Main,2022.1.1,60.003228184286634,
neutral,negative,1,k,k,,,,,,,,,11,9,207,7,,,,,,,,,main,2,2,1,negative,neutral,k,k,1,0.6817747000604868,550.5505081000738,551.5636354000308,551.5470333001576,None,550.5505081000738,None,550.5505081000738,None,550.5505081000738,None,552.2280459501314,None,552.2280459501314,None,552.2280459501314,None,,,,,,,,,,,,,,033,2022-05-30_20h00.37.460,Main,2022.1.1,60.003228184286634,
neutral,neutral,2,k,k,,,,,,,,,11,10,208,10,,,,,,,,,main,2,2,2,neutral,neutral,k,k,1,0.6315130000002682,552.2317236000672,553.2469014001545,553.2302526000421,None,552.2317236000672,None,552.2317236000672,None,552.2317236000672,None,553.8613305501174,None,553.8613305501174,None,553.8613305501174,None,,,,,,,,,,,,,,033,2022-05-30_20h00.37.460,Main,2022.1.1,60.003228184286634,
neutral,neutral,1,k,k,,,,,,,,,11,11,209,1,,,,,,,,,main,2,2,1,neutral,neutral,k,k,1,0.5336996999103576,553.8646809000056,554.8802371001802,554.8635923000984,None,553.8646809000056,None,553.8646809000056,None,553.8646809000056,None,555.3967946501914,None,555.3967946501914,None,555.3967946501914,None,,,,,,,,,,,,,,033,2022-05-30_20h00.37.460,Main,2022.1.1,60.003228184286634,
negative,neutral,1,j,l,,,,,,,,,11,12,210,3,,,,,,,,,main,1,1,1,neutral,negative,l,l,1,0.8163154998328537,555.399521100102,556.4109581001103,556.394263900118,None,555.399521100102,None,555.399521100102,None,555.399521100102,None,557.2109175500925,None,557.2109175500925,None,557.2109175500925,None,,,,,,,,,,,,,,033,2022-05-30_20h00.37.460,Main,2022.1.1,60.003228184286634,
positive,neutral,1,l,j,,,,,,,,,11,13,211,8,,,,,,,,,main,1,1,1,neutral,positive,j,j,1,0.7788474000990391,557.2141057001427,558.2275924000423,558.2109285001643,None,557.2141057001427,None,557.2141057001427,None,557.2141057001427,None,558.9942581501789,None,558.9942581501789,None,558.9942581501789,None,,,,,,,,,,,,,,033,2022-05-30_20h00.37.460,Main,2022.1.1,60.003228184286634,
negative,positive,1,j,l,,,,,,,,,11,14,212,6,,,,,,,,,main,2,2,1,positive,negative,l,l,1,0.8313124999403954,558.9966204001103,560.0109445000999,559.9942821001168,None,558.9966204001103,None,558.9966204001103,None,558.9966204001103,None,560.827956750011,None,560.827956750011,None,560.827956750011,None,,,,,,,,,,,,,,033,2022-05-30_20h00.37.460,Main,2022.1.1,60.003228184286634,
positive,neutral,2,l,j,,,,,,,,,11,15,213,17,,,,,,,,,main,2,2,2,neutral,positive,j,j,1,0.714652800001204,560.8337587001733,561.8467914001085,561.8302568001673,None,560.8337587001733,None,560.8337587001733,None,560.8337587001733,None,562.5442076501902,None,562.5442076501902,None,562.5442076501902,None,,,,,,,,,,,,,,033,2022-05-30_20h00.37.460,Main,2022.1.1,60.003228184286634,
negative,negative,1,j,l,,,,,,,,,11,16,214,0,,,,,,,,,main,1,1,1,negative,negative,l,l,1,0.6842622999101877,562.5475928001106,563.5467592000496,563.5301160002127,None,562.5475928001106,None,562.5475928001106,None,562.5475928001106,None,564.2300527500454,None,564.2300527500454,None,564.2300527500454,None,,,,,,,,,,,,,,033,2022-05-30_20h00.37.460,Main,2022.1.1,60.003228184286634,
positive,negative,2,l,j,,,,,,,,,11,17,215,14,,,,,,,,,main,1,1,2,negative,positive,j,j,1,0.699223600095138,564.2330358000472,565.2466772000771,565.2301040000748,None,564.2330358000472,None,564.2330358000472,None,564.2330358000472,None,565.929977250006,None,565.929977250006,None,565.929977250006,None,,,,,,,,,,,,,,033,2022-05-30_20h00.37.460,Main,2022.1.1,60.003228184286634,
positive,positive,2,l,j,,,,,,,,,12,0,216,11,,,,,,,,,main,1,1,2,positive,positive,j,j,1,0.611741199856624,565.934116500197,566.9466665000655,566.9300716000143,None,565.934116500197,None,565.934116500197,None,565.934116500197,None,567.5444130501244,None,567.5444130501244,None,567.5444130501244,None,,,,,,,,,,,,,,033,2022-05-30_20h00.37.460,Main,2022.1.1,60.003228184286634,
positive,neutral,1,l,j,,,,,,,,,12,1,217,8,,,,,,,,,main,1,1,1,neutral,positive,j,j,1,0.5981655998621136,567.5478047002107,568.560704600066,568.5440333001316,None,567.5478047002107,None,567.5478047002107,None,567.5478047002107,None,569.1440155501011,None,569.1440155501011,None,569.1440155501011,None,,,,,,,,,,,,,,033,2022-05-30_20h00.37.460,Main,2022.1.1,60.003228184286634,
negative,negative,2,j,l,,,,,,,,,12,2,218,9,,,,,,,,,main,1,1,2,negative,negative,l,l,1,0.6984546999447048,569.1440308000892,570.1440626000986,570.1440626000986,None,569.1440308000892,None,569.1440308000892,None,569.1440308000892,None,570.844350850163,None,570.844350850163,None,570.844350850163,None,,,,,,,,,,,,,,033,2022-05-30_20h00.37.460,Main,2022.1.1,60.003228184286634,
neutral,neutral,1,k,k,,,,,,,,,12,3,219,1,,,,,,,,,main,1,1,1,neutral,neutral,k,k,1,0.5475825001485646,570.8482948001474,571.8632259999868,571.8466219999827,None,570.8482948001474,None,570.8482948001474,None,570.8482948001474,None,572.3942884502001,None,572.3942884502001,None,572.3942884502001,None,,,,,,,,,,,,,,033,2022-05-30_20h00.37.460,Main,2022.1.1,60.003228184286634,
neutral,negative,2,k,k,,,,,,,,,12,4,220,16,,,,,,,,,main,2,2,2,negative,neutral,k,k,1,0.7506257998757064,572.3975339001045,573.3965928000398,573.3965928000398,None,572.3975339001045,None,572.3975339001045,None,572.3975339001045,None,574.1464693501591,None,574.1464693501591,None,574.1464693501591,None,,,,,,,,,,,,,,033,2022-05-30_20h00.37.460,Main,2022.1.1,60.003228184286634,
neutral,positive,2,k,k,,,,,,,,,12,5,221,13,,,,,,,,,main,1,1,2,positive,neutral,k,k,1,0.5793219001498073,574.1495188002009,575.163208300015,575.146630700212,None,574.1495188002009,None,574.1495188002009,None,574.1495188002009,None,575.7275794501882,None,575.7275794501882,None,575.7275794501882,None,,,,,,,,,,,,,,033,2022-05-30_20h00.37.460,Main,2022.1.1,60.003228184286634,
negative,neutral,2,j,l,,,,,,,,,12,6,222,12,,,,,,,,,main,1,1,2,neutral,negative,l,l,1,0.800689100055024,575.7306868000887,576.7298672001343,576.7298672001343,None,575.7306868000887,None,575.7306868000887,None,575.7306868000887,None,577.5297103500459,None,577.5297103500459,None,577.5297103500459,None,,,,,,,,,,,,,,033,2022-05-30_20h00.37.460,Main,2022.1.1,60.003228184286634,
