target,distractor,set,ans1,ans2,rep_loop2.thisRepN,rep_loop2.thisTrialN,rep_loop2.thisN,rep_loop2.thisIndex,flanker_prac_loop.thisRepN,flanker_prac_loop.thisTrialN,flanker_prac_loop.thisN,flanker_prac_loop.thisIndex,flanker_main_loop.thisRepN,flanker_main_loop.thisTrialN,flanker_main_loop.thisN,flanker_main_loop.thisIndex,fl_inst_resp.keys,fl_inst_resp.rt,sound_1.started,sound_1.stopped,image_4.started,image_4.stopped,back_2.started,back_2.stopped,main_prac,fl_cold,fl_colt,fl_set,fl_dcond,fl_tcond,fl_ans,fl_res,fl_corr,fl_rt,fix_fl.started,fix_fl.stopped,targ.started,targ.stopped,j_button.started,j_button.stopped,k_button.started,k_button.stopped,l_button.started,l_button.stopped,j_button2.started,j_button2.stopped,k_button2.started,k_button2.stopped,l_button2.started,l_button2.stopped,mainback.started,mainback.stopped,key_resp.keys,key_resp.rt,mouse_6.x,mouse_6.y,mouse_6.leftButton,mouse_6.midButton,mouse_6.rightButton,mouse_6.started,mouse_6.stopped,text_2.started,text_2.stopped,id*,date,expName,psychopyVersion,frameRate,
,,,,,0,0,0,0,,,,,,,,,space,54.94411550019868,37.46562178013846,None,92.43113499996252,None,,,,,,,,,,,,,,,,,,,,,,,,,,,,,,,,,,,,,,,,,,034,2022-06-01_17h42.31.876,Main,2022.1.1,60.97222660569417,
negative,neutral,2,j,l,,,,,0,0,0,12,,,,,,,,,,,96.49775500013493,None,prac,2,2,2,neutral,negative,j,j,1,2.896235699998215,98.5326446001418,99.54503330006264,99.52836770005524,None,98.5326446001418,None,98.5326446001418,None,98.5326446001418,None,102.43178960005753,None,102.43178960005753,None,102.43178960005753,None,,,,,,,,,,,,,,034,2022-06-01_17h42.31.876,Main,2022.1.1,60.97222660569417,
positive,neutral,1,l,j,,,,,0,1,1,8,,,,,,,,,,,,,prac,1,1,1,neutral,positive,l,l,1,1.17444680002518,103.42980780010112,104.43079950008541,104.41423200001009,None,103.42980780010112,None,103.42980780010112,None,103.42980780010112,None,105.60092548001558,None,105.60092548001558,None,105.60092548001558,None,,,,,,,,,,,,,,034,2022-06-01_17h42.31.876,Main,2022.1.1,60.97222660569417,
neutral,positive,1,k,k,,,,,0,2,2,4,,,,,,,,,,,,,prac,2,2,1,positive,neutral,k,k,1,0.858078199904412,105.60881910007447,106.61186970002018,106.5975176000502,None,105.60881910007447,None,105.60881910007447,None,105.60881910007447,None,107.46185467997566,None,107.46185467997566,None,107.46185467997566,None,,,,,,,,,,,,,,034,2022-06-01_17h42.31.876,Main,2022.1.1,60.97222660569417,
negative,positive,2,j,l,,,,,0,3,3,15,,,,,,,,,,,,,prac,2,2,2,positive,negative,j,j,1,0.7150193999987096,107.46548380004242,108.47816419997253,108.46149390004575,None,107.46548380004242,None,107.46548380004242,None,107.46548380004242,None,109.17813848005608,None,109.17813848005608,None,109.17813848005608,None,,,,,,,,,,,,,,034,2022-06-01_17h42.31.876,Main,2022.1.1,60.97222660569417,
neutral,neutral,1,k,k,,,,,0,4,4,1,,,,,,,,,,,,,prac,2,2,1,neutral,neutral,k,k,1,0.7488279999233782,109.1781256000977,110.17814440000802,110.17814440000802,None,109.1781256000977,None,109.1781256000977,None,109.1781256000977,None,110.92814708012156,None,110.92814708012156,None,110.92814708012156,None,,,,,,,,,,,,,,034,2022-06-01_17h42.31.876,Main,2022.1.1,60.97222660569417,
negative,negative,1,j,l,,,,,0,5,5,0,,,,,,,,,,,,,prac,2,2,1,negative,negative,j,j,1,0.9327585999853909,110.93083250010386,111.94479129998945,111.92814110009931,None,110.93083250010386,None,110.93083250010386,None,110.93083250010386,None,112.86178597994149,None,112.86178597994149,None,112.86178597994149,None,,,,,,,,,,,,,,034,2022-06-01_17h42.31.876,Main,2022.1.1,60.97222660569417,
positive,negative,1,l,j,,,,,0,6,6,5,,,,,,,,,,,,,prac,1,1,1,negative,positive,l,l,1,0.748027800116688,112.8680990000721,113.88065559999086,113.86401499994099,None,112.8680990000721,None,112.8680990000721,None,112.8680990000721,None,114.61173157999292,None,114.61173157999292,None,114.61173157999292,None,,,,,,,,,,,,,,034,2022-06-01_17h42.31.876,Main,2022.1.1,60.97222660569417,
neutral,positive,2,k,k,,,,,0,7,7,13,,,,,,,,,,,,,prac,1,1,2,positive,neutral,k,k,1,0.7319134001154453,114.6176390000619,115.62835759995505,115.61397129995748,None,114.6176390000619,None,114.6176390000619,None,114.6176390000619,None,116.34501947998069,None,116.34501947998069,None,116.34501947998069,None,,,,,,,,,,,,,,034,2022-06-01_17h42.31.876,Main,2022.1.1,60.97222660569417,
negative,neutral,1,j,l,,,,,0,8,8,3,,,,,,,,,,,,,prac,2,2,1,neutral,negative,j,j,1,0.665242200018838,116.3503579001408,117.36166330007836,117.34498629998416,None,116.3503579001408,None,116.3503579001408,None,116.3503579001408,None,118.01166487997398,None,118.01166487997398,None,118.01166487997398,None,,,,,,,,,,,,,,034,2022-06-01_17h42.31.876,Main,2022.1.1,60.97222660569417,
neutral,neutral,2,k,k,,,,,0,9,9,10,,,,,,,,,,,,,prac,2,2,2,neutral,neutral,k,k,1,0.648902399931103,118.01784679992124,119.02830810006708,119.01162250014022,None,118.01784679992124,None,118.01784679992124,None,118.01784679992124,None,119.66173727996647,None,119.66173727996647,None,119.66173727996647,None,,,,,,,,,,,,,,034,2022-06-01_17h42.31.876,Main,2022.1.1,60.97222660569417,
positive,positive,1,l,j,,,,,0,10,10,2,,,,,,,,,,,,,prac,1,1,1,positive,positive,l,l,1,0.7814052000176162,119.66732569993474,120.67792290006764,120.66125719994307,None,119.66732569993474,None,119.66732569993474,None,119.66732569993474,None,121.44456228008494,None,121.44456228008494,None,121.44456228008494,None,,,,,,,,,,,,,,034,2022-06-01_17h42.31.876,Main,2022.1.1,60.97222660569417,
negative,negative,2,j,l,,,,,0,11,11,9,,,,,,,,,,,,,prac,1,1,2,negative,negative,j,j,1,0.6986287001054734,121.44455450004898,122.44458370003849,122.44458370003849,None,121.44455450004898,None,121.44455450004898,None,121.44455450004898,None,123.14458038005978,None,123.14458038005978,None,123.14458038005978,None,,,,,,,,,,,,,,034,2022-06-01_17h42.31.876,Main,2022.1.1,60.97222660569417,
positive,neutral,2,l,j,,,,,0,12,12,17,,,,,,,,,,,,,prac,2,2,2,neutral,positive,l,l,1,0.6993234001565725,123.14457840006799,124.14457000000402,124.14457000000402,None,123.14457840006799,None,123.14457840006799,None,123.14457840006799,None,124.84495578007773,None,124.84495578007773,None,124.84495578007773,None,,,,,,,,,,,,,,034,2022-06-01_17h42.31.876,Main,2022.1.1,60.97222660569417,
neutral,negative,2,k,k,,,,,0,13,13,16,,,,,,,,,,,,,prac,2,2,2,negative,neutral,k,k,1,0.6149104000069201,124.85073549998924,125.86368170008063,125.84719340014271,None,124.85073549998924,None,124.85073549998924,None,124.85073549998924,None,126.46150137996301,None,126.46150137996301,None,126.46150137996301,None,,,,,,,,,,,,,,034,2022-06-01_17h42.31.876,Main,2022.1.1,60.97222660569417,
negative,positive,1,j,l,,,,,0,14,14,6,,,,,,,,,,,,,prac,1,1,1,positive,negative,j,j,1,0.9853316000662744,126.46684100013226,127.48041109996848,127.4471245999448,None,126.46684100013226,None,126.46684100013226,None,126.46684100013226,None,128.4476419801358,None,128.4476419801358,None,128.4476419801358,None,,,,,,,,,,,,,,034,2022-06-01_17h42.31.876,Main,2022.1.1,60.97222660569417,
positive,positive,2,l,j,,,,,0,15,15,11,,,,,,,,,,,,,prac,2,2,2,positive,positive,l,l,1,0.7454111999832094,128.45184160000645,129.46359380008653,129.44707490014844,None,128.45184160000645,None,128.45184160000645,None,128.45184160000645,None,130.19472248014063,None,130.19472248014063,None,130.19472248014063,None,,,,,,,,,,,,,,034,2022-06-01_17h42.31.876,Main,2022.1.1,60.97222660569417,
neutral,negative,1,k,k,,,,,0,16,16,7,,,,,,,,,,,,,prac,2,2,1,negative,neutral,k,k,1,0.7150149000808597,130.20041580009274,131.21367110009305,131.1969484000001,None,130.20041580009274,None,130.20041580009274,None,130.20041580009274,None,131.91113757994026,None,131.91113757994026,None,131.91113757994026,None,,,,,,,,,,,,,,034,2022-06-01_17h42.31.876,Main,2022.1.1,60.97222660569417,
positive,negative,2,l,j,,,,,0,17,17,14,,,,,,,,,,,,,prac,2,2,2,negative,positive,l,l,1,0.6816034000366926,131.92710780003108,132.92768470011652,132.91100939991884,None,131.92710780003108,None,131.92710780003108,None,131.92710780003108,None,133.59434178005904,None,133.59434178005904,None,133.59434178005904,None,,,,,,,,,,,,,,034,2022-06-01_17h42.31.876,Main,2022.1.1,60.97222660569417,
positive,neutral,1,l,j,,,,,1,0,18,8,,,,,,,,,,,,,prac,2,2,1,neutral,positive,l,l,1,0.615633700042963,133.59476509992965,134.59435170004144,134.59435170004144,None,133.59476509992965,None,133.59476509992965,None,133.59476509992965,None,135.2110054800287,None,135.2110054800287,None,135.2110054800287,None,,,,,,,,,,,,,,034,2022-06-01_17h42.31.876,Main,2022.1.1,60.97222660569417,
positive,negative,2,l,j,,,,,1,1,19,14,,,,,,,,,,,,,prac,1,1,2,negative,positive,l,j,0,0.8676849000621587,135.21133690001443,136.21097490005195,136.21097490005195,None,135.21133690001443,None,135.21133690001443,None,135.21133690001443,None,137.08042489993386,None,137.08042489993386,None,137.08042489993386,None,,,,,,,,,,,,,,034,2022-06-01_17h42.31.876,Main,2022.1.1,60.97222660569417,
negative,positive,2,j,l,,,,,1,2,20,15,,,,,,,,,,,,,prac,1,1,2,positive,negative,j,j,1,0.9521432998590171,138.0785523999948,139.0801679000724,139.06352189998142,None,138.0785523999948,None,138.0785523999948,None,138.0785523999948,None,140.02788608008996,None,140.02788608008996,None,140.02788608008996,None,,,,,,,,,,,,,,034,2022-06-01_17h42.31.876,Main,2022.1.1,60.97222660569417,
neutral,neutral,2,k,k,,,,,1,3,21,10,,,,,,,,,,,,,prac,1,1,2,neutral,neutral,k,k,1,0.73178939986974,140.03184840013273,141.04455190012231,141.03017470007762,None,140.03184840013273,None,140.03184840013273,None,140.03184840013273,None,141.76120738009922,None,141.76120738009922,None,141.76120738009922,None,,,,,,,,,,,,,,034,2022-06-01_17h42.31.876,Main,2022.1.1,60.97222660569417,
negative,positive,1,j,l,,,,,1,4,22,6,,,,,,,,,,,,,prac,1,1,1,positive,negative,j,j,1,0.8142704998608679,141.77796149998903,142.7778382000979,142.76117650000378,None,141.77796149998903,None,141.77796149998903,None,141.77796149998903,None,143.57780627999455,None,143.57780627999455,None,143.57780627999455,None,,,,,,,,,,,,,,034,2022-06-01_17h42.31.876,Main,2022.1.1,60.97222660569417,
positive,negative,1,l,j,,,,,1,5,23,5,,,,,,,,,,,,,prac,1,1,1,negative,positive,l,l,1,0.5482914999593049,143.58093519997783,144.5941184000112,144.57745380001143,None,143.58093519997783,None,143.58093519997783,None,143.58093519997783,None,145.1274275800679,None,145.1274275800679,None,145.1274275800679,None,,,,,,,,,,,,,,034,2022-06-01_17h42.31.876,Main,2022.1.1,60.97222660569417,
negative,neutral,1,j,l,,,,,1,6,24,3,,,,,,,,,,,,,prac,2,2,1,neutral,negative,j,j,1,0.6986648000311106,145.12742489995435,146.12744910013862,146.12744910013862,None,145.12742489995435,None,145.12742489995435,None,145.12742489995435,None,146.82744238013402,None,146.82744238013402,None,146.82744238013402,None,,,,,,,,,,,,,,034,2022-06-01_17h42.31.876,Main,2022.1.1,60.97222660569417,
negative,negative,2,j,l,,,,,1,7,25,9,,,,,,,,,,,,,prac,1,1,2,negative,negative,j,j,1,0.9846999999135733,146.82752560009249,147.82745039998554,147.82745039998554,None,146.82752560009249,None,146.82752560009249,None,146.82752560009249,None,148.81350088003092,None,148.81350088003092,None,148.81350088003092,None,,,,,,,,,,,,,,034,2022-06-01_17h42.31.876,Main,2022.1.1,60.97222660569417,
neutral,positive,2,k,k,,,,,1,8,26,13,,,,,,,,,,,,,prac,1,1,2,positive,neutral,k,k,1,0.6469196998514235,148.8163620000705,149.82995570008643,149.81325719994493,None,148.8163620000705,None,148.8163620000705,None,148.8163620000705,None,150.46181768015958,None,150.46181768015958,None,150.46181768015958,None,,,,,,,,,,,,,,034,2022-06-01_17h42.31.876,Main,2022.1.1,60.97222660569417,
neutral,negative,2,k,k,,,,,1,9,27,16,,,,,,,,,,,,,prac,1,1,2,negative,neutral,k,k,1,0.7308685998432338,150.46749330009334,151.47992400010116,151.4633327999618,None,150.46749330009334,None,150.46749330009334,None,150.46749330009334,None,152.1940198801458,None,152.1940198801458,None,152.1940198801458,None,,,,,,,,,,,,,,034,2022-06-01_17h42.31.876,Main,2022.1.1,60.97222660569417,
positive,positive,1,l,j,,,,,1,10,28,2,,,,,,,,,,,,,prac,1,1,1,positive,positive,l,l,1,0.6326109000947326,152.1992162000388,153.2132121999748,153.17995209991932,None,152.1992162000388,None,152.1992162000388,None,152.1992162000388,None,153.82777078007348,None,153.82777078007348,None,153.82777078007348,None,,,,,,,,,,,,,,034,2022-06-01_17h42.31.876,Main,2022.1.1,60.97222660569417,
positive,positive,2,l,j,,,,,1,11,29,11,,,,,,,,,,,,,prac,1,1,2,positive,positive,l,l,1,0.7153191999532282,153.83315289998427,154.84427449991927,154.8299178001471,None,153.83315289998427,None,153.83315289998427,None,153.83315289998427,None,155.54435107996687,None,155.54435107996687,None,155.54435107996687,None,,,,,,,,,,,,,,034,2022-06-01_17h42.31.876,Main,2022.1.1,60.97222660569417,
neutral,neutral,1,k,k,,,,,1,12,30,1,,,,,,,,,,,,,prac,2,2,1,neutral,neutral,k,k,1,0.7986825997941196,155.54972140002064,156.56054880004376,156.5438792000059,None,155.54972140002064,None,155.54972140002064,None,155.54972140002064,None,157.34387248009443,None,157.34387248009443,None,157.34387248009443,None,,,,,,,,,,,,,,034,2022-06-01_17h42.31.876,Main,2022.1.1,60.97222660569417,
negative,neutral,2,j,l,,,,,1,13,31,12,,,,,,,,,,,,,prac,2,2,2,neutral,negative,j,j,1,0.7479078001342714,157.34429179993458,158.34386939997785,158.34386939997785,None,157.34429179993458,None,157.34429179993458,None,157.34429179993458,None,159.0938652800396,None,159.0938652800396,None,159.0938652800396,None,,,,,,,,,,,,,,034,2022-06-01_17h42.31.876,Main,2022.1.1,60.97222660569417,
positive,neutral,2,l,j,,,,,1,14,32,17,,,,,,,,,,,,,prac,1,1,2,neutral,positive,l,l,1,0.6657046000473201,159.09397990000434,160.09385080006905,160.09385080006905,None,159.09397990000434,None,159.09397990000434,None,159.09397990000434,None,160.76098918006755,None,160.76098918006755,None,160.76098918006755,None,,,,,,,,,,,,,,034,2022-06-01_17h42.31.876,Main,2022.1.1,60.97222660569417,
neutral,negative,1,k,k,,,,,1,15,33,7,,,,,,,,,,,,,prac,2,2,1,negative,neutral,k,k,1,1.098586400039494,160.7799428999424,161.77969310013577,161.74640880012885,None,160.7799428999424,None,160.7799428999424,None,160.7799428999424,None,162.86080908006988,None,162.86080908006988,None,162.86080908006988,None,,,,,,,,,,,,,,034,2022-06-01_17h42.31.876,Main,2022.1.1,60.97222660569417,
neutral,positive,1,k,k,,,,,1,16,34,4,,,,,,,,,,,,,prac,1,1,1,positive,neutral,k,k,1,0.8153550999704748,162.8663459001109,163.87965880008414,163.86306270002387,None,162.8663459001109,None,162.8663459001109,None,162.8663459001109,None,164.67749148001894,None,164.67749148001894,None,164.67749148001894,None,,,,,,,,,,,,,,034,2022-06-01_17h42.31.876,Main,2022.1.1,60.97222660569417,
negative,negative,1,j,l,,,,,1,17,35,0,,,,,,,,,,,,,prac,2,2,1,negative,negative,j,j,1,0.8817958000581712,164.68084140005521,165.69622020004317,165.67739510000683,None,164.68084140005521,None,164.68084140005521,None,164.68084140005521,None,166.56068878015503,None,166.56068878015503,None,166.56068878015503,None,,,,,,,,,,,,,,034,2022-06-01_17h42.31.876,Main,2022.1.1,60.97222660569417,
,,,,,,,,,,,,,,,,,,,,,,,,,,,,,,,,,,,,,,,,,,,,,,,,,,,166.56068730005063,None,space,4.600519800093025,,,,,,,,,,034,2022-06-01_17h42.31.876,Main,2022.1.1,60.97222660569417,
,,,,,,,,,,,,,,,,,,,,,,,,,,,,,,,,,,,,,,,,,,,,,,,,,,,,,,,0.2212963,-0.33055556,0,0,0,0.011162680108100176,None,,,034,2022-06-01_17h42.31.876,Main,2022.1.1,60.97222660569417,
positive,neutral,2,l,j,,,,,,,,,0,0,0,17,,,,,,,171.19369799993,None,main,2,2,2,neutral,positive,l,l,1,0.8734340998344123,173.2054793999996,174.21284059993923,174.19623090000823,None,173.2054793999996,None,173.2054793999996,None,173.2054793999996,None,175.07720288005657,None,175.07720288005657,None,175.07720288005657,None,,,,,,,,,,,,,,034,2022-06-01_17h42.31.876,Main,2022.1.1,60.97222660569417,
positive,neutral,1,l,j,,,,,,,,,0,1,1,8,,,,,,,,,main,2,2,1,neutral,positive,l,l,1,0.6996818999759853,175.08352450001985,176.09606910008006,176.07950050011277,None,175.08352450001985,None,175.08352450001985,None,175.08352450001985,None,176.77951498003677,None,176.77951498003677,None,176.77951498003677,None,,,,,,,,,,,,,,034,2022-06-01_17h42.31.876,Main,2022.1.1,60.97222660569417,
positive,positive,1,l,j,,,,,,,,,0,2,2,2,,,,,,,,,main,1,1,1,positive,positive,l,l,1,0.5667562999296933,176.78242029994726,177.79382420005277,177.77945489995182,None,176.78242029994726,None,176.78242029994726,None,176.78242029994726,None,178.34470758005045,None,178.34470758005045,None,178.34470758005045,None,,,,,,,,,,,,,,034,2022-06-01_17h42.31.876,Main,2022.1.1,60.97222660569417,
neutral,negative,1,k,k,,,,,,,,,0,3,3,7,,,,,,,,,main,1,1,1,negative,neutral,k,k,1,0.7267386999446899,178.3520899999421,179.36048269993626,179.34378729993477,None,178.3520899999421,None,178.3520899999421,None,178.3520899999421,None,180.07709467993118,None,180.07709467993118,None,180.07709467993118,None,,,,,,,,,,,,,,034,2022-06-01_17h42.31.876,Main,2022.1.1,60.97222660569417,
negative,neutral,1,j,l,,,,,,,,,0,4,4,3,,,,,,,,,main,2,2,1,neutral,negative,j,j,1,0.7146054001059383,180.08289030008018,181.0933989000041,181.07673189998604,None,180.08289030008018,None,180.08289030008018,None,180.08289030008018,None,181.79032328003086,None,181.79032328003086,None,181.79032328003086,None,,,,,,,,,,,,,,034,2022-06-01_17h42.31.876,Main,2022.1.1,60.97222660569417,
neutral,positive,1,k,k,,,,,,,,,0,5,5,4,,,,,,,,,main,2,2,1,positive,neutral,k,k,1,0.6977375999558717,181.79587100003846,182.8100644000806,182.79339869995601,None,181.79587100003846,None,181.79587100003846,None,181.79587100003846,None,183.49336708011106,None,183.49336708011106,None,183.49336708011106,None,,,,,,,,,,,,,,034,2022-06-01_17h42.31.876,Main,2022.1.1,60.97222660569417,
negative,neutral,2,j,l,,,,,,,,,0,6,6,12,,,,,,,,,main,1,1,2,neutral,negative,j,j,1,0.781936899991706,183.496045100037,184.51004209998064,184.49337769998237,None,183.496045100037,None,183.496045100037,None,183.496045100037,None,185.27701287996024,None,185.27701287996024,None,185.27701287996024,None,,,,,,,,,,,,,,034,2022-06-01_17h42.31.876,Main,2022.1.1,60.97222660569417,
positive,negative,2,l,j,,,,,,,,,0,7,7,14,,,,,,,,,main,2,2,2,negative,positive,l,l,1,0.815625200048089,185.28081810008734,186.29595639999025,186.27930509997532,None,185.28081810008734,None,185.28081810008734,None,185.28081810008734,None,187.094079580158,None,187.094079580158,None,187.094079580158,None,,,,,,,,,,,,,,034,2022-06-01_17h42.31.876,Main,2022.1.1,60.97222660569417,
neutral,negative,2,k,k,,,,,,,,,0,8,8,16,,,,,,,,,main,1,1,2,negative,neutral,k,k,1,0.6978784999810159,187.09751440002583,188.11249900003895,188.09361370000988,None,187.09751440002583,None,187.09751440002583,None,187.09751440002583,None,188.7936972801108,None,188.7936972801108,None,188.7936972801108,None,,,,,,,,,,,,,,034,2022-06-01_17h42.31.876,Main,2022.1.1,60.97222660569417,
positive,positive,2,l,j,,,,,,,,,0,9,9,11,,,,,,,,,main,2,2,2,positive,positive,l,l,1,0.7317137999925762,188.79737309995107,189.81024269992486,189.79582120012492,None,188.79737309995107,None,188.79737309995107,None,188.79737309995107,None,190.52688098000363,None,190.52688098000363,None,190.52688098000363,None,,,,,,,,,,,,,,034,2022-06-01_17h42.31.876,Main,2022.1.1,60.97222660569417,
neutral,neutral,2,k,k,,,,,,,,,0,10,10,10,,,,,,,,,main,2,2,2,neutral,neutral,k,k,1,0.6982831000350416,190.53048539999872,191.5456787000876,191.52918680012226,None,190.53048539999872,None,190.53048539999872,None,190.53048539999872,None,192.2269020800013,None,192.2269020800013,None,192.2269020800013,None,,,,,,,,,,,,,,034,2022-06-01_17h42.31.876,Main,2022.1.1,60.97222660569417,
negative,negative,2,j,l,,,,,,,,,0,11,11,9,,,,,,,,,main,1,1,2,negative,negative,j,j,1,0.9647454000078142,192.230025799945,193.24316000007093,193.22648820001632,None,192.230025799945,None,192.230025799945,None,192.230025799945,None,194.19312817999162,None,194.19312817999162,None,194.19312817999162,None,,,,,,,,,,,,,,034,2022-06-01_17h42.31.876,Main,2022.1.1,60.97222660569417,
negative,positive,2,j,l,,,,,,,,,0,12,12,15,,,,,,,,,main,2,2,2,positive,negative,j,j,1,0.6648654998280108,194.19312640000135,195.19315590010956,195.19315590010956,None,194.19312640000135,None,194.19312640000135,None,194.19312640000135,None,195.85981947998516,None,195.85981947998516,None,195.85981947998516,None,,,,,,,,,,,,,,034,2022-06-01_17h42.31.876,Main,2022.1.1,60.97222660569417,
negative,positive,1,j,l,,,,,,,,,0,13,13,6,,,,,,,,,main,1,1,1,positive,negative,j,j,1,0.7486246000044048,195.86091729998589,196.86240270012058,196.84588039992377,None,195.86091729998589,None,195.86091729998589,None,195.86091729998589,None,197.610107579967,None,197.610107579967,None,197.610107579967,None,,,,,,,,,,,,,,034,2022-06-01_17h42.31.876,Main,2022.1.1,60.97222660569417,
neutral,neutral,1,k,k,,,,,,,,,0,14,14,1,,,,,,,,,main,2,2,1,neutral,neutral,k,k,1,0.6984780998900533,197.62914959993213,198.62901509995572,198.61237059999257,None,197.62914959993213,None,197.62914959993213,None,197.62914959993213,None,199.31015958008356,None,199.31015958008356,None,199.31015958008356,None,,,,,,,,,,,,,,034,2022-06-01_17h42.31.876,Main,2022.1.1,60.97222660569417,
negative,negative,1,j,l,,,,,,,,,0,15,15,0,,,,,,,,,main,2,2,1,negative,negative,j,j,1,0.7149883999954909,199.31541129993275,200.32894259993918,200.31003209995106,None,199.31541129993275,None,199.31541129993275,None,199.31541129993275,None,201.02667498006485,None,201.02667498006485,None,201.02667498006485,None,,,,,,,,,,,,,,034,2022-06-01_17h42.31.876,Main,2022.1.1,60.97222660569417,
neutral,positive,2,k,k,,,,,,,,,0,16,16,13,,,,,,,,,main,2,2,2,positive,neutral,k,k,1,0.731827000156045,201.02995710005052,202.0433294000104,202.02888919995166,None,201.02995710005052,None,201.02995710005052,None,201.02995710005052,None,202.7601401801221,None,202.7601401801221,None,202.7601401801221,None,,,,,,,,,,,,,,034,2022-06-01_17h42.31.876,Main,2022.1.1,60.97222660569417,
positive,negative,1,l,j,,,,,,,,,0,17,17,5,,,,,,,,,main,1,1,1,negative,positive,l,l,1,0.6979101998731494,202.76618320005946,203.7776739001274,203.75978050008416,None,202.76618320005946,None,202.76618320005946,None,202.76618320005946,None,204.4595977801364,None,204.4595977801364,None,204.4595977801364,None,,,,,,,,,,,,,,034,2022-06-01_17h42.31.876,Main,2022.1.1,60.97222660569417,
positive,negative,2,l,j,,,,,,,,,1,0,18,14,,,,,,,,,main,1,1,2,negative,positive,l,l,1,0.8816286998335272,204.45958660007454,205.45957310008816,205.45957310008816,None,204.45958660007454,None,204.45958660007454,None,204.45958660007454,None,206.34293798008002,None,206.34293798008002,None,206.34293798008002,None,,,,,,,,,,,,,,034,2022-06-01_17h42.31.876,Main,2022.1.1,60.97222660569417,
neutral,positive,2,k,k,,,,,,,,,1,1,19,13,,,,,,,,,main,2,2,2,positive,neutral,k,k,1,0.6860440000891685,206.3462346000597,207.3455650000833,207.3455650000833,None,206.3462346000597,None,206.3462346000597,None,206.3462346000597,None,208.0265462801326,None,208.0265462801326,None,208.0265462801326,None,,,,,,,,,,,,,,034,2022-06-01_17h42.31.876,Main,2022.1.1,60.97222660569417,
positive,positive,2,l,j,,,,,,,,,1,2,20,11,,,,,,,,,main,1,1,2,positive,positive,l,l,1,0.661155299982056,208.0335709999781,209.04540690011345,209.02875449997373,None,208.0335709999781,None,208.0335709999781,None,208.0335709999781,None,209.69317187997513,None,209.69317187997513,None,209.69317187997513,None,,,,,,,,,,,,,,034,2022-06-01_17h42.31.876,Main,2022.1.1,60.97222660569417,
neutral,negative,2,k,k,,,,,,,,,1,3,21,16,,,,,,,,,main,2,2,2,negative,neutral,k,k,1,1.2307724000420421,209.69720920012332,210.7098141000606,210.69316140003502,None,209.69720920012332,None,209.69720920012332,None,209.69720920012332,None,211.9264889799524,None,211.9264889799524,None,211.9264889799524,None,,,,,,,,,,,,,,034,2022-06-01_17h42.31.876,Main,2022.1.1,60.97222660569417,
positive,positive,1,l,j,,,,,,,,,1,4,22,2,,,,,,,,,main,1,1,1,positive,positive,l,l,1,0.6307558000553399,211.93049670010805,212.94275310006924,212.92609430011362,None,211.93049670010805,None,211.93049670010805,None,211.93049670010805,None,213.5594065799378,None,213.5594065799378,None,213.5594065799378,None,,,,,,,,,,,,,,034,2022-06-01_17h42.31.876,Main,2022.1.1,60.97222660569417,
positive,neutral,1,l,j,,,,,,,,,1,5,23,8,,,,,,,,,main,1,1,1,neutral,positive,l,l,1,0.5485982000827789,213.5593992001377,214.55942980013788,214.55942980013788,None,213.5593992001377,None,213.5593992001377,None,213.5593992001377,None,215.10978048015386,None,215.10978048015386,None,215.10978048015386,None,,,,,,,,,,,,,,034,2022-06-01_17h42.31.876,Main,2022.1.1,60.97222660569417,
negative,positive,2,j,l,,,,,,,,,1,6,24,15,,,,,,,,,main,2,2,2,positive,negative,j,j,1,0.981730500003323,215.11322950012982,216.12862780014984,216.10973770008422,None,215.11322950012982,None,215.11322950012982,None,215.11322950012982,None,217.09303938015364,None,217.09303938015364,None,217.09303938015364,None,,,,,,,,,,,,,,034,2022-06-01_17h42.31.876,Main,2022.1.1,60.97222660569417,
negative,neutral,2,j,l,,,,,,,,,1,7,25,12,,,,,,,,,main,1,1,2,neutral,negative,j,j,1,0.6982016998808831,217.0987080000341,218.11193619994447,218.09526029997505,None,217.0987080000341,None,217.0987080000341,None,217.0987080000341,None,218.79301508003846,None,218.79301508003846,None,218.79301508003846,None,,,,,,,,,,,,,,034,2022-06-01_17h42.31.876,Main,2022.1.1,60.97222660569417,
positive,neutral,2,l,j,,,,,,,,,1,8,26,17,,,,,,,,,main,1,1,2,neutral,positive,l,l,1,0.6152711000759155,218.79835009993985,219.8118255001027,219.7929750001058,None,218.79835009993985,None,218.79835009993985,None,218.79835009993985,None,220.40966768004,None,220.40966768004,None,220.40966768004,None,,,,,,,,,,,,,,034,2022-06-01_17h42.31.876,Main,2022.1.1,60.97222660569417,
neutral,neutral,1,k,k,,,,,,,,,1,9,27,1,,,,,,,,,main,2,2,1,neutral,neutral,k,k,1,0.7316363998688757,220.41343099996448,221.42626600014046,221.41190119995736,None,220.41343099996448,None,220.41343099996448,None,220.41343099996448,None,222.14295248012058,None,222.14295248012058,None,222.14295248012058,None,,,,,,,,,,,,,,034,2022-06-01_17h42.31.876,Main,2022.1.1,60.97222660569417,
neutral,neutral,2,k,k,,,,,,,,,1,10,28,10,,,,,,,,,main,1,1,2,neutral,neutral,k,k,1,0.8979338000062853,222.14868979994208,223.15923590003513,223.14256810001098,None,222.14868979994208,None,222.14868979994208,None,222.14868979994208,None,224.04256017995067,None,224.04256017995067,None,224.04256017995067,None,,,,,,,,,,,,,,034,2022-06-01_17h42.31.876,Main,2022.1.1,60.97222660569417,
negative,neutral,1,j,l,,,,,,,,,1,11,29,3,,,,,,,,,main,2,2,1,neutral,negative,j,j,1,0.6142313999589533,224.04411679995246,225.05923300003633,225.04256480000913,None,224.04411679995246,None,224.04411679995246,None,224.04411679995246,None,225.65920338011347,None,225.65920338011347,None,225.65920338011347,None,,,,,,,,,,,,,,034,2022-06-01_17h42.31.876,Main,2022.1.1,60.97222660569417,
negative,negative,1,j,l,,,,,,,,,1,12,30,0,,,,,,,,,main,2,2,1,negative,negative,j,j,1,0.5156260000076145,225.6595189999789,226.659211399965,226.659211399965,None,225.6595189999789,None,225.6595189999789,None,225.6595189999789,None,227.17627617996186,None,227.17627617996186,None,227.17627617996186,None,,,,,,,,,,,,,,034,2022-06-01_17h42.31.876,Main,2022.1.1,60.97222660569417,
positive,negative,1,l,j,,,,,,,,,1,13,31,5,,,,,,,,,main,2,2,1,negative,positive,l,l,1,0.5660129000898451,227.17962840013206,228.19516739994287,228.1784389000386,None,227.17962840013206,None,227.17962840013206,None,227.17962840013206,None,228.74281758000143,None,228.74281758000143,None,228.74281758000143,None,,,,,,,,,,,,,,034,2022-06-01_17h42.31.876,Main,2022.1.1,60.97222660569417,
neutral,positive,1,k,k,,,,,,,,,1,14,32,4,,,,,,,,,main,2,2,1,positive,neutral,k,k,1,0.7318198999855667,228.74714930006303,229.76171030011028,229.74509879993275,None,228.74714930006303,None,228.74714930006303,None,228.74714930006303,None,230.47610898013227,None,230.47610898013227,None,230.47610898013227,None,,,,,,,,,,,,,,034,2022-06-01_17h42.31.876,Main,2022.1.1,60.97222660569417,
neutral,negative,1,k,k,,,,,,,,,1,15,33,7,,,,,,,,,main,2,2,1,negative,neutral,k,k,1,0.5805141997989267,230.48043270013295,231.4949256000109,231.47837050003,None,230.48043270013295,None,230.48043270013295,None,230.48043270013295,None,232.05941778002307,None,232.05941778002307,None,232.05941778002307,None,,,,,,,,,,,,,,034,2022-06-01_17h42.31.876,Main,2022.1.1,60.97222660569417,
negative,negative,2,j,l,,,,,,,,,1,16,34,9,,,,,,,,,main,2,2,2,negative,negative,j,l,0,0.5482861998025328,232.06283630011603,233.0760403999593,233.05937399994582,None,232.06283630011603,None,232.06283630011603,None,232.06283630011603,None,233.6093771001324,None,233.6093771001324,None,233.6093771001324,None,,,,,,,,,,,,,,034,2022-06-01_17h42.31.876,Main,2022.1.1,60.97222660569417,
negative,positive,1,j,l,,,,,,,,,1,17,35,6,,,,,,,,,main,2,2,1,positive,negative,j,j,1,0.8360127999912947,234.60928410012275,235.60897719999775,235.60897719999775,None,234.60928410012275,None,234.60928410012275,None,234.60928410012275,None,236.44234667997807,None,236.44234667997807,None,236.44234667997807,None,,,,,,,,,,,,,,034,2022-06-01_17h42.31.876,Main,2022.1.1,60.97222660569417,
neutral,positive,1,k,k,,,,,,,,,2,0,36,4,,,,,,,,,main,1,1,1,positive,neutral,k,k,1,0.7506818999536335,236.44603680004366,237.46147139999084,237.44495479995385,None,236.44603680004366,None,236.44603680004366,None,236.44603680004366,None,238.1949470799882,None,238.1949470799882,None,238.1949470799882,None,,,,,,,,,,,,,,034,2022-06-01_17h42.31.876,Main,2022.1.1,60.97222660569417,
negative,negative,2,j,l,,,,,,,,,2,1,37,9,,,,,,,,,main,1,1,2,negative,negative,j,l,0,0.6460216999985278,238.1980046001263,239.2115220001433,239.1926003000699,None,238.1980046001263,None,238.1980046001263,None,238.1980046001263,None,239.84257140010595,None,239.84257140010595,None,239.84257140010595,None,,,,,,,,,,,,,,034,2022-06-01_17h42.31.876,Main,2022.1.1,60.97222660569417,
negative,neutral,1,j,l,,,,,,,,,2,2,38,3,,,,,,,,,main,2,2,1,neutral,negative,j,j,1,0.6343054000753909,240.847774800146,241.86148660001345,241.8425640000496,None,240.847774800146,None,240.847774800146,None,240.847774800146,None,242.47589508001693,None,242.47589508001693,None,242.47589508001693,None,,,,,,,,,,,,,,034,2022-06-01_17h42.31.876,Main,2022.1.1,60.97222660569417,
neutral,negative,1,k,k,,,,,,,,,2,3,39,7,,,,,,,,,main,2,2,1,negative,neutral,k,k,1,0.6810465999878943,242.47936680004932,243.4925166000612,243.4780687999446,None,242.47936680004932,None,242.47936680004932,None,242.47936680004932,None,244.1588265800383,None,244.1588265800383,None,244.1588265800383,None,,,,,,,,,,,,,,034,2022-06-01_17h42.31.876,Main,2022.1.1,60.97222660569417,
positive,neutral,2,l,j,,,,,,,,,2,4,40,17,,,,,,,,,main,2,2,2,neutral,positive,l,l,1,0.6483922000043094,244.15882700006478,245.15877819992602,245.15877819992602,None,244.15882700006478,None,244.15882700006478,None,244.15882700006478,None,245.8088042801246,None,245.8088042801246,None,245.8088042801246,None,,,,,,,,,,,,,,034,2022-06-01_17h42.31.876,Main,2022.1.1,60.97222660569417,
negative,negative,1,j,l,,,,,,,,,2,5,41,0,,,,,,,,,main,1,1,1,negative,negative,j,j,1,0.6647980001289397,245.8093169000931,246.80878700013272,246.80878700013272,None,245.8093169000931,None,245.8093169000931,None,245.8093169000931,None,247.475487079937,None,247.475487079937,None,247.475487079937,None,,,,,,,,,,,,,,034,2022-06-01_17h42.31.876,Main,2022.1.1,60.97222660569417,
negative,positive,1,j,l,,,,,,,,,2,6,42,6,,,,,,,,,main,2,2,1,positive,negative,j,j,1,0.5991120000835508,247.47958970000036,248.49475529999472,248.47814829996787,None,247.47958970000036,None,247.47958970000036,None,247.47958970000036,None,249.07585708005354,None,249.07585708005354,None,249.07585708005354,None,,,,,,,,,,,,,,034,2022-06-01_17h42.31.876,Main,2022.1.1,60.97222660569417,
neutral,neutral,2,k,k,,,,,,,,,2,7,43,10,,,,,,,,,main,1,1,2,neutral,neutral,k,k,1,0.7147629000246525,249.07923449994996,250.09230130002834,250.07809700001962,None,249.07923449994996,None,249.07923449994996,None,249.07923449994996,None,250.79236958012916,None,250.79236958012916,None,250.79236958012916,None,,,,,,,,,,,,,,034,2022-06-01_17h42.31.876,Main,2022.1.1,60.97222660569417,
positive,negative,2,l,j,,,,,,,,,2,8,44,14,,,,,,,,,main,2,2,2,negative,positive,l,l,1,0.9543966001365334,250.7958728999365,251.81126930005848,251.79455969994888,None,250.7958728999365,None,250.7958728999365,None,250.7958728999365,None,252.74605057993904,None,252.74605057993904,None,252.74605057993904,None,,,,,,,,,,,,,,034,2022-06-01_17h42.31.876,Main,2022.1.1,60.97222660569417,
negative,neutral,2,j,l,,,,,,,,,2,9,45,12,,,,,,,,,main,1,1,2,neutral,negative,j,j,1,0.8082306000869721,252.75202949997038,253.76123740011826,253.74230449995957,None,252.75202949997038,None,252.75202949997038,None,252.75202949997038,None,254.55896298005246,None,254.55896298005246,None,254.55896298005246,None,,,,,,,,,,,,,,034,2022-06-01_17h42.31.876,Main,2022.1.1,60.97222660569417,
neutral,negative,2,k,k,,,,,,,,,2,10,46,16,,,,,,,,,main,2,2,2,negative,neutral,k,k,1,0.7481752999592572,254.56209890008904,255.57526340009645,255.55859700008295,None,254.56209890008904,None,254.56209890008904,None,254.56209890008904,None,256.30858628009446,None,256.30858628009446,None,256.30858628009446,None,,,,,,,,,,,,,,034,2022-06-01_17h42.31.876,Main,2022.1.1,60.97222660569417,
positive,neutral,1,l,j,,,,,,,,,2,11,47,8,,,,,,,,,main,2,2,1,neutral,positive,l,l,1,0.7321574999950826,256.3085853001103,257.3086113999598,257.3086113999598,None,256.3085853001103,None,256.3085853001103,None,256.3085853001103,None,258.0422346801497,None,258.0422346801497,None,258.0422346801497,None,,,,,,,,,,,,,,034,2022-06-01_17h42.31.876,Main,2022.1.1,60.97222660569417,
negative,positive,2,j,l,,,,,,,,,2,12,48,15,,,,,,,,,main,1,1,2,positive,negative,j,j,1,0.7814340000040829,258.04578169994056,259.0611399000045,259.0444537999574,None,258.04578169994056,None,258.04578169994056,None,258.04578169994056,None,259.8255141801201,None,259.8255141801201,None,259.8255141801201,None,,,,,,,,,,,,,,034,2022-06-01_17h42.31.876,Main,2022.1.1,60.97222660569417,
positive,positive,2,l,j,,,,,,,,,2,13,49,11,,,,,,,,,main,1,1,2,positive,positive,l,l,1,0.8318585001397878,259.82932329992764,260.8421801000368,260.81116640008986,None,259.82932329992764,None,259.82932329992764,None,259.82932329992764,None,261.6588161799591,None,261.6588161799591,None,261.6588161799591,None,,,,,,,,,,,,,,034,2022-06-01_17h42.31.876,Main,2022.1.1,60.97222660569417,
neutral,positive,2,k,k,,,,,,,,,2,14,50,13,,,,,,,,,main,2,2,2,positive,neutral,k,k,1,0.731659899931401,261.66238220012747,262.6776324000675,262.66109740012325,None,261.66238220012747,None,261.66238220012747,None,261.66238220012747,None,263.3921099801082,None,263.3921099801082,None,263.3921099801082,None,,,,,,,,,,,,,,034,2022-06-01_17h42.31.876,Main,2022.1.1,60.97222660569417,
positive,negative,1,l,j,,,,,,,,,2,15,51,5,,,,,,,,,main,2,2,1,negative,positive,l,l,1,0.781430299859494,263.39580149995163,264.408770600101,264.39441259996966,None,263.39580149995163,None,263.39580149995163,None,263.39580149995163,None,265.17507838015445,None,265.17507838015445,None,265.17507838015445,None,,,,,,,,,,,,,,034,2022-06-01_17h42.31.876,Main,2022.1.1,60.97222660569417,
positive,positive,1,l,j,,,,,,,,,2,16,52,2,,,,,,,,,main,2,2,1,positive,positive,l,l,1,0.882473099976778,265.1750731000211,266.17505359998904,266.17505359998904,None,265.1750731000211,None,265.1750731000211,None,265.1750731000211,None,267.05838547996245,None,267.05838547996245,None,267.05838547996245,None,,,,,,,,,,,,,,034,2022-06-01_17h42.31.876,Main,2022.1.1,60.97222660569417,
neutral,neutral,1,k,k,,,,,,,,,2,17,53,1,,,,,,,,,main,1,1,1,neutral,neutral,k,k,1,0.7140109001193196,267.0597524000332,268.0750504999887,268.05838089995086,None,267.0597524000332,None,267.0597524000332,None,267.0597524000332,None,268.77504508011043,None,268.77504508011043,None,268.77504508011043,None,,,,,,,,,,,,,,034,2022-06-01_17h42.31.876,Main,2022.1.1,60.97222660569417,
neutral,positive,2,k,k,,,,,,,,,3,0,54,13,,,,,,,,,main,1,1,2,positive,neutral,k,k,1,0.8479351000860333,268.7917182999663,269.79425220005214,269.7777072000317,None,268.7917182999663,None,268.7917182999663,None,268.7917182999663,None,270.6253103800118,None,270.6253103800118,None,270.6253103800118,None,,,,,,,,,,,,,,034,2022-06-01_17h42.31.876,Main,2022.1.1,60.97222660569417,
neutral,neutral,2,k,k,,,,,,,,,3,1,55,10,,,,,,,,,main,2,2,2,neutral,neutral,k,k,1,0.7650539998430759,270.6287682999391,271.64417900005355,271.627580499975,None,270.6287682999391,None,270.6287682999391,None,270.6287682999391,None,272.391943480121,None,272.391943480121,None,272.391943480121,None,,,,,,,,,,,,,,034,2022-06-01_17h42.31.876,Main,2022.1.1,60.97222660569417,
positive,positive,1,l,j,,,,,,,,,3,2,56,2,,,,,,,,,main,2,2,1,positive,positive,l,l,1,0.6317845999728888,272.39554230007343,273.4085981999524,273.3942464001011,None,272.39554230007343,None,272.39554230007343,None,272.39554230007343,None,274.0252399800811,None,274.0252399800811,None,274.0252399800811,None,,,,,,,,,,,,,,034,2022-06-01_17h42.31.876,Main,2022.1.1,60.97222660569417,
neutral,negative,1,k,k,,,,,,,,,3,3,57,7,,,,,,,,,main,1,1,1,negative,neutral,k,k,1,0.7649677998851985,274.0287359999493,275.04410569998436,275.0252084999811,None,274.0287359999493,None,274.0287359999493,None,274.0287359999493,None,275.7918791801203,None,275.7918791801203,None,275.7918791801203,None,,,,,,,,,,,,,,034,2022-06-01_17h42.31.876,Main,2022.1.1,60.97222660569417,
neutral,neutral,1,k,k,,,,,,,,,3,4,58,1,,,,,,,,,main,1,1,1,neutral,neutral,k,k,1,0.7978773000650108,275.79737689998,276.80815379996784,276.7914875000715,None,275.79737689998,None,275.79737689998,None,275.79737689998,None,277.59149987995625,None,277.59149987995625,None,277.59149987995625,None,,,,,,,,,,,,,,034,2022-06-01_17h42.31.876,Main,2022.1.1,60.97222660569417,
positive,neutral,1,l,j,,,,,,,,,3,5,59,8,,,,,,,,,main,2,2,1,neutral,positive,l,l,1,0.714905799832195,277.5917730999645,278.5915143999737,278.5915143999737,None,277.5917730999645,None,277.5917730999645,None,277.5917730999645,None,279.30848158011213,None,279.30848158011213,None,279.30848158011213,None,,,,,,,,,,,,,,034,2022-06-01_17h42.31.876,Main,2022.1.1,60.97222660569417,
negative,neutral,2,j,l,,,,,,,,,3,6,60,12,,,,,,,,,main,2,2,2,neutral,negative,j,j,1,0.8353297999128699,279.3121197000146,280.3273297001142,280.3107561999932,None,279.3121197000146,None,279.3121197000146,None,279.3121197000146,None,281.14287908002734,None,281.14287908002734,None,281.14287908002734,None,,,,,,,,,,,,,,034,2022-06-01_17h42.31.876,Main,2022.1.1,60.97222660569417,
negative,positive,2,j,l,,,,,,,,,3,7,61,15,,,,,,,,,main,1,1,2,positive,negative,j,j,1,0.7967150998301804,281.14969540014863,282.15840529999696,282.1417374999728,None,281.14969540014863,None,281.14969540014863,None,281.14969540014863,None,282.9439305800479,None,282.9439305800479,None,282.9439305800479,None,,,,,,,,,,,,,,034,2022-06-01_17h42.31.876,Main,2022.1.1,60.97222660569417,
neutral,negative,2,k,k,,,,,,,,,3,8,62,16,,,,,,,,,main,1,1,2,negative,neutral,k,k,1,0.6628308000508696,282.9465258999262,283.96058419998735,283.94403790007345,None,282.9465258999262,None,282.9465258999262,None,282.9465258999262,None,284.60837527993135,None,284.60837527993135,None,284.60837527993135,None,,,,,,,,,,,,,,034,2022-06-01_17h42.31.876,Main,2022.1.1,60.97222660569417,
positive,positive,2,l,j,,,,,,,,,3,9,63,11,,,,,,,,,main,1,1,2,positive,positive,l,l,1,0.6982946000061929,284.61472490010783,285.62726610014215,285.60833139996976,None,284.61472490010783,None,284.61472490010783,None,284.61472490010783,None,286.30797597998753,None,286.30797597998753,None,286.30797597998753,None,,,,,,,,,,,,,,034,2022-06-01_17h42.31.876,Main,2022.1.1,60.97222660569417,
negative,positive,1,j,l,,,,,,,,,3,10,64,6,,,,,,,,,main,2,2,1,positive,negative,j,j,1,0.6482980998698622,286.3079899000004,287.30796230002306,287.30796230002306,None,286.3079899000004,None,286.3079899000004,None,286.3079899000004,None,287.9579266801011,None,287.9579266801011,None,287.9579266801011,None,,,,,,,,,,,,,,034,2022-06-01_17h42.31.876,Main,2022.1.1,60.97222660569417,
positive,negative,2,l,j,,,,,,,,,3,11,65,14,,,,,,,,,main,2,2,2,negative,positive,l,l,1,0.5982420998625457,287.957936800085,288.9580415999517,288.9580415999517,None,287.957936800085,None,287.957936800085,None,287.957936800085,None,289.55795498006046,None,289.55795498006046,None,289.55795498006046,None,,,,,,,,,,,,,,034,2022-06-01_17h42.31.876,Main,2022.1.1,60.97222660569417,
neutral,positive,1,k,k,,,,,,,,,3,12,66,4,,,,,,,,,main,1,1,1,positive,neutral,k,k,1,0.6318361999001354,289.55925519997254,290.56058660009876,290.56058660009876,None,289.55925519997254,None,289.55925519997254,None,289.55925519997254,None,291.19127198006026,None,291.19127198006026,None,291.19127198006026,None,,,,,,,,,,,,,,034,2022-06-01_17h42.31.876,Main,2022.1.1,60.97222660569417,
negative,negative,2,j,l,,,,,,,,,3,13,67,9,,,,,,,,,main,2,2,2,negative,negative,j,j,1,0.7152794001158327,291.19462359999306,292.19387129996903,292.1771817000117,None,291.19462359999306,None,291.19462359999306,None,291.19462359999306,None,292.908211580012,None,292.908211580012,None,292.908211580012,None,,,,,,,,,,,,,,034,2022-06-01_17h42.31.876,Main,2022.1.1,60.97222660569417,
negative,neutral,1,j,l,,,,,,,,,3,14,68,3,,,,,,,,,main,1,1,1,neutral,negative,j,j,1,1.115116500062868,292.9114079999272,293.9104730000254,293.9104730000254,None,292.9114079999272,None,292.9114079999272,None,292.9114079999272,None,295.02483708015643,None,295.02483708015643,None,295.02483708015643,None,,,,,,,,,,,,,,034,2022-06-01_17h42.31.876,Main,2022.1.1,60.97222660569417,
positive,negative,1,l,j,,,,,,,,,3,15,69,5,,,,,,,,,main,2,2,1,negative,positive,l,l,1,0.631153899943456,295.0288710000459,296.0436943001114,296.027142399922,None,295.0288710000459,None,295.0288710000459,None,295.0288710000459,None,296.6581331801135,None,296.6581331801135,None,296.6581331801135,None,,,,,,,,,,,,,,034,2022-06-01_17h42.31.876,Main,2022.1.1,60.97222660569417,
negative,negative,1,j,l,,,,,,,,,3,16,70,0,,,,,,,,,main,2,2,1,negative,negative,j,j,1,0.7144230999983847,296.66179080004804,297.677021499956,297.66043940000236,None,296.66179080004804,None,296.66179080004804,None,296.66179080004804,None,298.3744097801391,None,298.3744097801391,None,298.3744097801391,None,,,,,,,,,,,,,,034,2022-06-01_17h42.31.876,Main,2022.1.1,60.97222660569417,
positive,neutral,2,l,j,,,,,,,,,3,17,71,17,,,,,,,,,main,2,2,2,neutral,positive,l,l,1,0.5997156999073923,298.374390500132,299.3743980000727,299.3743980000727,None,298.374390500132,None,298.374390500132,None,298.374390500132,None,299.97436938015744,None,299.97436938015744,None,299.97436938015744,None,,,,,,,,,,,,,,034,2022-06-01_17h42.31.876,Main,2022.1.1,60.97222660569417,
neutral,positive,1,k,k,,,,,,,,,4,0,72,4,,,,,,,,,main,1,1,1,positive,neutral,k,k,1,0.7138966000638902,299.975497599924,300.99104510014877,300.97437750012614,None,299.975497599924,None,299.975497599924,None,299.975497599924,None,301.69108238001354,None,301.69108238001354,None,301.69108238001354,None,,,,,,,,,,,,,,034,2022-06-01_17h42.31.876,Main,2022.1.1,60.97222660569417,
negative,positive,1,j,l,,,,,,,,,4,1,73,6,,,,,,,,,main,2,2,1,positive,negative,j,j,1,0.7332482000347227,301.6978204001207,302.7102403000463,302.69364459998906,None,301.6978204001207,None,301.6978204001207,None,301.6978204001207,None,303.426830080105,None,303.426830080105,None,303.426830080105,None,,,,,,,,,,,,,,034,2022-06-01_17h42.31.876,Main,2022.1.1,60.97222660569417,
positive,negative,2,l,j,,,,,,,,,4,2,74,14,,,,,,,,,main,2,2,2,negative,positive,l,l,1,0.6785983999725431,303.4307186999358,304.443600700004,304.4268738999963,None,303.4307186999358,None,303.4307186999358,None,303.4307186999358,None,305.1079609801527,None,305.1079609801527,None,305.1079609801527,None,,,,,,,,,,,,,,034,2022-06-01_17h42.31.876,Main,2022.1.1,60.97222660569417,
negative,positive,2,j,l,,,,,,,,,4,3,75,15,,,,,,,,,main,2,2,2,positive,negative,j,j,1,0.7153725000098348,305.1111135999672,306.1245961000677,306.1102808001451,None,305.1111135999672,None,305.1111135999672,None,305.1111135999672,None,306.8247353800107,None,306.8247353800107,None,306.8247353800107,None,,,,,,,,,,,,,,034,2022-06-01_17h42.31.876,Main,2022.1.1,60.97222660569417,
negative,negative,1,j,l,,,,,,,,,4,4,76,0,,,,,,,,,main,2,2,1,negative,negative,j,j,1,0.6311625000089407,306.82790290005505,307.82459450000897,307.82459450000897,None,306.82790290005505,None,306.82790290005505,None,306.82790290005505,None,308.45758517994545,None,308.45758517994545,None,308.45758517994545,None,,,,,,,,,,,,,,034,2022-06-01_17h42.31.876,Main,2022.1.1,60.97222660569417,
positive,positive,2,l,j,,,,,,,,,4,5,77,11,,,,,,,,,main,2,2,2,positive,positive,l,l,1,0.7670913999900222,308.4611474000849,309.4768262000289,309.4602036001161,None,308.4611474000849,None,308.4611474000849,None,308.4611474000849,None,310.2262343801558,None,310.2262343801558,None,310.2262343801558,None,,,,,,,,,,,,,,034,2022-06-01_17h42.31.876,Main,2022.1.1,60.97222660569417,
negative,neutral,2,j,l,,,,,,,,,4,6,78,12,,,,,,,,,main,2,2,2,neutral,negative,j,j,1,0.6628308000508696,310.24106970010325,311.2408271001186,311.2241581999697,None,310.24106970010325,None,310.24106970010325,None,310.24106970010325,None,311.89078268012963,None,311.89078268012963,None,311.89078268012963,None,,,,,,,,,,,,,,034,2022-06-01_17h42.31.876,Main,2022.1.1,60.97222660569417,
neutral,negative,1,k,k,,,,,,,,,4,7,79,7,,,,,,,,,main,1,1,1,negative,neutral,k,k,1,0.6828102001454681,311.89078230015,312.8907938001212,312.8907938001212,None,311.89078230015,None,311.89078230015,None,311.89078230015,None,313.5741471799556,None,313.5741471799556,None,313.5741471799556,None,,,,,,,,,,,,,,034,2022-06-01_17h42.31.876,Main,2022.1.1,60.97222660569417,
positive,positive,1,l,j,,,,,,,,,4,8,80,2,,,,,,,,,main,2,2,1,positive,positive,l,l,1,0.6190793998539448,313.57574740005657,314.59081730013713,314.57414879999124,None,313.57574740005657,None,313.57574740005657,None,313.57574740005657,None,315.1932047801092,None,315.1932047801092,None,315.1932047801092,None,,,,,,,,,,,,,,034,2022-06-01_17h42.31.876,Main,2022.1.1,60.97222660569417,
neutral,positive,2,k,k,,,,,,,,,4,9,81,13,,,,,,,,,main,1,1,2,positive,neutral,k,k,1,0.6273302999325097,315.1988454000093,316.20999639993533,316.1934237999376,None,315.1988454000093,None,315.1988454000093,None,315.1988454000093,None,316.82441568002105,None,316.82441568002105,None,316.82441568002105,None,,,,,,,,,,,,,,034,2022-06-01_17h42.31.876,Main,2022.1.1,60.97222660569417,
negative,neutral,1,j,l,,,,,,,,,4,10,82,3,,,,,,,,,main,1,1,1,neutral,negative,j,j,1,0.7147146000061184,316.83031560014933,317.841044300003,317.82671870011836,None,316.83031560014933,None,316.83031560014933,None,316.83031560014933,None,318.54102007998154,None,318.54102007998154,None,318.54102007998154,None,,,,,,,,,,,,,,034,2022-06-01_17h42.31.876,Main,2022.1.1,60.97222660569417,
positive,negative,1,l,j,,,,,,,,,4,11,83,5,,,,,,,,,main,2,2,1,negative,positive,l,l,1,0.6816809999290854,318.54457100015134,319.5599410000723,319.5433187999297,None,318.54457100015134,None,318.54457100015134,None,318.54457100015134,None,320.22432967997156,None,320.22432967997156,None,320.22432967997156,None,,,,,,,,,,,,,,034,2022-06-01_17h42.31.876,Main,2022.1.1,60.97222660569417,
neutral,neutral,1,k,k,,,,,,,,,4,12,84,1,,,,,,,,,main,2,2,1,neutral,neutral,k,k,1,0.6268341999966651,320.2283409999218,321.2430986999534,321.22650210000575,None,320.2283409999218,None,320.2283409999218,None,320.2283409999218,None,321.85371337994,None,321.85371337994,None,321.85371337994,None,,,,,,,,,,,,,,034,2022-06-01_17h42.31.876,Main,2022.1.1,60.97222660569417,
positive,neutral,2,l,j,,,,,,,,,4,13,85,17,,,,,,,,,main,1,1,2,neutral,positive,l,l,1,0.6187154999934137,321.8532329001464,322.8572448999621,322.84058429999277,None,321.8532329001464,None,321.8532329001464,None,321.8532329001464,None,323.4739210801199,None,323.4739210801199,None,323.4739210801199,None,,,,,,,,,,,,,,034,2022-06-01_17h42.31.876,Main,2022.1.1,60.97222660569417,
neutral,neutral,2,k,k,,,,,,,,,4,14,86,10,,,,,,,,,main,2,2,2,neutral,neutral,k,k,1,0.7820621998980641,323.4739209001418,324.4764924000483,324.4764924000483,None,323.4739209001418,None,323.4739209001418,None,323.4739209001418,None,325.25758648011833,None,325.25758648011833,None,325.25758648011833,None,,,,,,,,,,,,,,034,2022-06-01_17h42.31.876,Main,2022.1.1,60.97222660569417,
neutral,negative,2,k,k,,,,,,,,,4,15,87,16,,,,,,,,,main,1,1,2,negative,neutral,k,k,1,0.5315797999501228,325.2611002000049,326.27637580013834,326.25984830013476,None,325.2611002000049,None,325.2611002000049,None,325.2611002000049,None,326.79085658001713,None,326.79085658001713,None,326.79085658001713,None,,,,,,,,,,,,,,034,2022-06-01_17h42.31.876,Main,2022.1.1,60.97222660569417,
positive,neutral,1,l,j,,,,,,,,,4,16,88,8,,,,,,,,,main,1,1,1,neutral,positive,l,l,1,0.6843210998922586,326.7938868000638,327.79083260009065,327.77645030012354,None,326.7938868000638,None,326.7938868000638,None,326.7938868000638,None,328.4766055799555,None,328.4766055799555,None,328.4766055799555,None,,,,,,,,,,,,,,034,2022-06-01_17h42.31.876,Main,2022.1.1,60.97222660569417,
negative,negative,2,j,l,,,,,,,,,4,17,89,9,,,,,,,,,main,1,1,2,negative,negative,j,j,1,0.7792036999017,328.47957350010984,329.4930610000156,329.4741321001202,None,328.47957350010984,None,328.47957350010984,None,328.47957350010984,None,330.2574480799958,None,330.2574480799958,None,330.2574480799958,None,,,,,,,,,,,,,,034,2022-06-01_17h42.31.876,Main,2022.1.1,60.97222660569417,
positive,negative,2,l,j,,,,,,,,,5,0,90,14,,,,,,,,,main,2,2,2,negative,positive,l,l,1,0.6813864998985082,330.26088319998235,331.27632059995085,331.259713599924,None,330.26088319998235,None,330.26088319998235,None,330.26088319998235,None,331.94044538005255,None,331.94044538005255,None,331.94044538005255,None,,,,,,,,,,,,,,034,2022-06-01_17h42.31.876,Main,2022.1.1,60.97222660569417,
neutral,neutral,1,k,k,,,,,,,,,5,1,91,1,,,,,,,,,main,2,2,1,neutral,neutral,k,k,1,1.1147633001673967,331.9403918001335,332.9403600001242,332.9403600001242,None,331.9403918001335,None,331.9403918001335,None,331.9403918001335,None,334.0570632801391,None,334.0570632801391,None,334.0570632801391,None,,,,,,,,,,,,,,034,2022-06-01_17h42.31.876,Main,2022.1.1,60.97222660569417,
neutral,negative,2,k,k,,,,,,,,,5,2,92,16,,,,,,,,,main,2,2,2,negative,neutral,k,k,1,0.6182305000256747,334.0582667000126,335.07372580002993,335.05706200003624,None,334.0582667000126,None,334.0582667000126,None,334.0582667000126,None,335.6737118801102,None,335.6737118801102,None,335.6737118801102,None,,,,,,,,,,,,,,034,2022-06-01_17h42.31.876,Main,2022.1.1,60.97222660569417,
positive,neutral,1,l,j,,,,,,,,,5,3,93,8,,,,,,,,,main,2,2,1,neutral,positive,l,l,1,0.6781760999001563,335.68049199995585,336.69296030001715,336.6763160000555,None,335.68049199995585,None,335.68049199995585,None,335.68049199995585,None,337.35731528000906,None,337.35731528000906,None,337.35731528000906,None,,,,,,,,,,,,,,034,2022-06-01_17h42.31.876,Main,2022.1.1,60.97222660569417,
negative,neutral,1,j,l,,,,,,,,,5,4,94,3,,,,,,,,,main,2,2,1,neutral,negative,j,j,1,0.6314596000593156,337.36101049999706,338.37627070001327,338.35730720008723,None,337.36101049999706,None,337.36101049999706,None,337.36101049999706,None,338.9906125799753,None,338.9906125799753,None,338.9906125799753,None,,,,,,,,,,,,,,034,2022-06-01_17h42.31.876,Main,2022.1.1,60.97222660569417,
negative,negative,1,j,l,,,,,,,,,5,5,95,0,,,,,,,,,main,2,2,1,negative,negative,j,j,1,0.5477873000781983,338.99464139994234,340.0095015000552,339.99288600008003,None,338.99464139994234,None,338.99464139994234,None,338.99464139994234,None,340.54063737997785,None,340.54063737997785,None,340.54063737997785,None,,,,,,,,,,,,,,034,2022-06-01_17h42.31.876,Main,2022.1.1,60.97222660569417,
neutral,positive,1,k,k,,,,,,,,,5,6,96,4,,,,,,,,,main,2,2,1,positive,neutral,k,k,1,1.1650267001241446,340.5440643001348,341.55944380001165,341.54279640014283,None,340.5440643001348,None,340.5440643001348,None,340.5440643001348,None,342.70732008013874,None,342.70732008013874,None,342.70732008013874,None,,,,,,,,,,,,,,034,2022-06-01_17h42.31.876,Main,2022.1.1,60.97222660569417,
neutral,neutral,2,k,k,,,,,,,,,5,7,97,10,,,,,,,,,main,2,2,2,neutral,neutral,k,k,1,0.7806129998061806,342.71123780007474,343.72354510007426,343.70685419999063,None,342.71123780007474,None,342.71123780007474,None,342.71123780007474,None,344.49017308000475,None,344.49017308000475,None,344.49017308000475,None,,,,,,,,,,,,,,034,2022-06-01_17h42.31.876,Main,2022.1.1,60.97222660569417,
negative,negative,2,j,l,,,,,,,,,5,8,98,9,,,,,,,,,main,2,2,2,negative,negative,j,j,1,0.7481997001450509,344.4901666000951,345.49016909999773,345.49016909999773,None,344.4901666000951,None,344.4901666000951,None,344.4901666000951,None,346.24014928005636,None,346.24014928005636,None,346.24014928005636,None,,,,,,,,,,,,,,034,2022-06-01_17h42.31.876,Main,2022.1.1,60.97222660569417,
positive,positive,1,l,j,,,,,,,,,5,9,99,2,,,,,,,,,main,1,1,1,positive,positive,l,l,1,0.615588900167495,346.240388300037,347.24016769998707,347.24016769998707,None,346.240388300037,None,346.240388300037,None,346.240388300037,None,347.857144680107,None,347.857144680107,None,347.857144680107,None,,,,,,,,,,,,,,034,2022-06-01_17h42.31.876,Main,2022.1.1,60.97222660569417,
negative,neutral,2,j,l,,,,,,,,,5,10,100,12,,,,,,,,,main,1,1,2,neutral,negative,j,j,1,1.0146804999094456,347.86033629998565,348.85938840010203,348.85938840010203,None,347.86033629998565,None,347.86033629998565,None,347.86033629998565,None,349.87376098008826,None,349.87376098008826,None,349.87376098008826,None,,,,,,,,,,,,,,034,2022-06-01_17h42.31.876,Main,2022.1.1,60.97222660569417,
negative,positive,1,j,l,,,,,,,,,5,11,101,6,,,,,,,,,main,1,1,1,positive,negative,j,j,1,0.965059099951759,349.8777511001099,350.8903781999834,350.8737170000095,None,349.8777511001099,None,349.8777511001099,None,349.8777511001099,None,351.8403799801599,None,351.8403799801599,None,351.8403799801599,None,,,,,,,,,,,,,,034,2022-06-01_17h42.31.876,Main,2022.1.1,60.97222660569417,
neutral,negative,1,k,k,,,,,,,,,5,12,102,7,,,,,,,,,main,2,2,1,negative,neutral,k,k,1,1.1154867999721318,351.84417779999785,352.85700860014185,352.8259876000229,None,351.84417779999785,None,351.84417779999785,None,351.84417779999785,None,353.9570199800655,None,353.9570199800655,None,353.9570199800655,None,,,,,,,,,,,,,,034,2022-06-01_17h42.31.876,Main,2022.1.1,60.97222660569417,
positive,negative,1,l,j,,,,,,,,,5,13,103,5,,,,,,,,,main,2,2,1,negative,positive,l,l,1,0.6979559001047164,353.96051459992304,354.97293970012106,354.9556591999717,None,353.96051459992304,None,353.96051459992304,None,353.96051459992304,None,355.656614680076,None,355.656614680076,None,355.656614680076,None,,,,,,,,,,,,,,034,2022-06-01_17h42.31.876,Main,2022.1.1,60.97222660569417,
positive,neutral,2,l,j,,,,,,,,,5,14,104,17,,,,,,,,,main,2,2,2,neutral,positive,l,l,1,0.8316874001175165,355.6566330001224,356.6565887001343,356.6565887001343,None,355.6566330001224,None,355.6566330001224,None,355.6566330001224,None,357.48997128009796,None,357.48997128009796,None,357.48997128009796,None,,,,,,,,,,,,,,034,2022-06-01_17h42.31.876,Main,2022.1.1,60.97222660569417,
neutral,positive,2,k,k,,,,,,,,,5,15,105,13,,,,,,,,,main,1,1,2,positive,neutral,k,k,1,0.7152293000835925,357.49347950005904,358.4925432000309,358.4925432000309,None,357.49347950005904,None,357.49347950005904,None,357.49347950005904,None,359.20689188013785,None,359.20689188013785,None,359.20689188013785,None,,,,,,,,,,,,,,034,2022-06-01_17h42.31.876,Main,2022.1.1,60.97222660569417,
positive,positive,2,l,j,,,,,,,,,5,16,106,11,,,,,,,,,main,1,1,2,positive,positive,l,l,1,0.849037199979648,359.2125284001231,360.22352030011825,360.20686009991914,None,359.2125284001231,None,359.2125284001231,None,359.2125284001231,None,361.0568503800314,None,361.0568503800314,None,361.0568503800314,None,,,,,,,,,,,,,,034,2022-06-01_17h42.31.876,Main,2022.1.1,60.97222660569417,
negative,positive,2,j,l,,,,,,,,,5,17,107,15,,,,,,,,,main,2,2,2,positive,negative,j,j,1,0.8143376000225544,361.0630324999802,362.0734806000255,362.0590425999835,None,361.0630324999802,None,361.0630324999802,None,361.0630324999802,None,362.87346577993594,None,362.87346577993594,None,362.87346577993594,None,,,,,,,,,,,,,,034,2022-06-01_17h42.31.876,Main,2022.1.1,60.97222660569417,
neutral,neutral,2,k,k,,,,,,,,,6,0,108,10,,,,,,,,,main,1,1,2,neutral,neutral,k,k,1,0.6879043998196721,362.8769503000658,363.890118899988,363.873445100151,None,362.8769503000658,None,362.8769503000658,None,362.8769503000658,None,364.56290058000013,None,364.56290058000013,None,364.56290058000013,None,,,,,,,,,,,,,,034,2022-06-01_17h42.31.876,Main,2022.1.1,60.97222660569417,
positive,positive,2,l,j,,,,,,,,,6,1,109,11,,,,,,,,,main,1,1,2,positive,positive,l,l,1,0.6584795999806374,364.572811299935,365.573086499935,365.5564139999915,None,364.572811299935,None,364.572811299935,None,364.572811299935,None,366.22305628005415,None,366.22305628005415,None,366.22305628005415,None,,,,,,,,,,,,,,034,2022-06-01_17h42.31.876,Main,2022.1.1,60.97222660569417,
positive,positive,1,l,j,,,,,,,,,6,2,110,2,,,,,,,,,main,2,2,1,positive,positive,l,l,1,0.748430100036785,366.2246318999678,367.23971779993735,367.2230543999467,None,366.2246318999678,None,366.2246318999678,None,366.2246318999678,None,367.97306668013334,None,367.97306668013334,None,367.97306668013334,None,,,,,,,,,,,,,,034,2022-06-01_17h42.31.876,Main,2022.1.1,60.97222660569417,
negative,positive,2,j,l,,,,,,,,,6,3,111,15,,,,,,,,,main,1,1,2,positive,negative,j,j,1,0.9477011000271887,367.98975430009887,368.9897134001367,368.97304630000144,None,367.98975430009887,None,367.98975430009887,None,367.98975430009887,None,369.9233613801189,None,369.9233613801189,None,369.9233613801189,None,,,,,,,,,,,,,,034,2022-06-01_17h42.31.876,Main,2022.1.1,60.97222660569417,
neutral,negative,1,k,k,,,,,,,,,6,4,112,7,,,,,,,,,main,2,2,1,negative,neutral,k,k,1,0.681861599907279,369.9295608999673,370.94001229992136,370.9090208001435,None,369.9295608999673,None,369.9295608999673,None,369.9295608999673,None,371.60663227993064,None,371.60663227993064,None,371.60663227993064,None,,,,,,,,,,,,,,034,2022-06-01_17h42.31.876,Main,2022.1.1,60.97222660569417,
neutral,negative,2,k,k,,,,,,,,,6,5,113,16,,,,,,,,,main,2,2,2,negative,neutral,k,k,1,0.6983515999745578,371.60999709996395,372.6255314000882,372.6089065000415,None,371.60999709996395,None,371.60999709996395,None,371.60999709996395,None,373.3067160800565,None,373.3067160800565,None,373.3067160800565,None,,,,,,,,,,,,,,034,2022-06-01_17h42.31.876,Main,2022.1.1,60.97222660569417,
neutral,positive,2,k,k,,,,,,,,,6,6,114,13,,,,,,,,,main,1,1,2,positive,neutral,k,k,1,0.681560599943623,373.312325600069,374.32324089994654,374.3088949001394,None,373.312325600069,None,373.312325600069,None,373.312325600069,None,374.98989988001995,None,374.98989988001995,None,374.98989988001995,None,,,,,,,,,,,,,,034,2022-06-01_17h42.31.876,Main,2022.1.1,60.97222660569417,
negative,negative,1,j,l,,,,,,,,,6,7,115,0,,,,,,,,,main,2,2,1,negative,negative,j,j,1,0.7313600000925362,374.9957024999894,376.0065326001495,375.9898753000889,None,374.9957024999894,None,374.9957024999894,None,374.9957024999894,None,376.72285528015345,None,376.72285528015345,None,376.72285528015345,None,,,,,,,,,,,,,,034,2022-06-01_17h42.31.876,Main,2022.1.1,60.97222660569417,
negative,positive,1,j,l,,,,,,,,,6,8,116,6,,,,,,,,,main,1,1,1,positive,negative,j,j,1,0.7694721000734717,376.7228636001237,377.7228373999242,377.7228373999242,None,376.7228636001237,None,376.7228636001237,None,376.7228636001237,None,378.49088768009096,None,378.49088768009096,None,378.49088768009096,None,,,,,,,,,,,,,,034,2022-06-01_17h42.31.876,Main,2022.1.1,60.97222660569417,
neutral,positive,1,k,k,,,,,,,,,6,9,117,4,,,,,,,,,main,1,1,1,positive,neutral,k,k,1,0.6773830000311136,378.497232099995,379.5086602999363,379.4921252001077,None,378.497232099995,None,378.497232099995,None,378.497232099995,None,380.17315368005075,None,380.17315368005075,None,380.17315368005075,None,,,,,,,,,,,,,,034,2022-06-01_17h42.31.876,Main,2022.1.1,60.97222660569417,
negative,negative,2,j,l,,,,,,,,,6,10,118,9,,,,,,,,,main,2,2,2,negative,negative,j,j,1,0.714938199846074,380.17889650003053,381.19191789999604,381.1753173000179,None,380.17889650003053,None,380.17889650003053,None,380.17889650003053,None,381.88979268004186,None,381.88979268004186,None,381.88979268004186,None,,,,,,,,,,,,,,034,2022-06-01_17h42.31.876,Main,2022.1.1,60.97222660569417,
positive,negative,1,l,j,,,,,,,,,6,11,119,5,,,,,,,,,main,2,2,1,negative,positive,l,l,1,0.6984308999963105,381.89358190004714,382.9086144999601,382.88973739999346,None,381.89358190004714,None,381.89358190004714,None,381.89358190004714,None,383.5897207800299,None,383.5897207800299,None,383.5897207800299,None,,,,,,,,,,,,,,034,2022-06-01_17h42.31.876,Main,2022.1.1,60.97222660569417,
positive,neutral,1,l,j,,,,,,,,,6,12,120,8,,,,,,,,,main,2,2,1,neutral,positive,l,l,1,0.7643091999925673,383.5937751000747,384.60862509999424,384.59203479997814,None,383.5937751000747,None,383.5937751000747,None,383.5937751000747,None,385.3563612799626,None,385.3563612799626,None,385.3563612799626,None,,,,,,,,,,,,,,034,2022-06-01_17h42.31.876,Main,2022.1.1,60.97222660569417,
negative,neutral,1,j,l,,,,,,,,,6,13,121,3,,,,,,,,,main,2,2,1,neutral,negative,j,j,1,0.6979575001168996,385.3625068999827,386.37266659992747,386.35598530014977,None,385.3625068999827,None,385.3625068999827,None,385.3625068999827,None,387.05597658012994,None,387.05597658012994,None,387.05597658012994,None,,,,,,,,,,,,,,034,2022-06-01_17h42.31.876,Main,2022.1.1,60.97222660569417,
negative,neutral,2,j,l,,,,,,,,,6,14,122,12,,,,,,,,,main,2,2,2,neutral,negative,j,l,0,0.19868230004794896,387.0559640999418,388.0559915001504,388.0559915001504,None,387.0559640999418,None,387.0559640999418,None,387.0559640999418,None,388.25596809992567,None,388.25596809992567,None,388.25596809992567,None,,,,,,,,,,,,,,034,2022-06-01_17h42.31.876,Main,2022.1.1,60.97222660569417,
positive,negative,2,l,j,,,,,,,,,6,15,123,14,,,,,,,,,main,1,1,2,negative,positive,l,l,1,0.8696355000138283,389.2559533000458,390.25861539994366,390.24200289999135,None,389.2559533000458,None,389.2559533000458,None,389.2559533000458,None,391.1229235799983,None,391.1229235799983,None,391.1229235799983,None,,,,,,,,,,,,,,034,2022-06-01_17h42.31.876,Main,2022.1.1,60.97222660569417,
positive,neutral,2,l,j,,,,,,,,,6,16,124,17,,,,,,,,,main,1,1,2,neutral,positive,l,l,1,0.7004082000348717,391.12636979995295,392.14185050013475,392.1251356001012,None,391.12636979995295,None,391.12636979995295,None,391.12636979995295,None,392.8251498800237,None,392.8251498800237,None,392.8251498800237,None,,,,,,,,,,,,,,034,2022-06-01_17h42.31.876,Main,2022.1.1,60.97222660569417,
neutral,neutral,1,k,k,,,,,,,,,6,17,125,1,,,,,,,,,main,2,2,1,neutral,neutral,k,k,1,0.7296078999061137,392.8282260999549,393.8416870001238,393.8251195999328,None,392.8282260999549,None,392.8282260999549,None,392.8282260999549,None,394.55617208010517,None,394.55617208010517,None,394.55617208010517,None,,,,,,,,,,,,,,034,2022-06-01_17h42.31.876,Main,2022.1.1,60.97222660569417,
positive,positive,1,l,j,,,,,,,,,7,0,126,2,,,,,,,,,main,1,1,1,positive,positive,l,l,1,0.8814426998142153,394.5621309999842,395.57501989998855,395.55837010010146,None,394.5621309999842,None,394.5621309999842,None,394.5621309999842,None,396.43946538004093,None,396.43946538004093,None,396.43946538004093,None,,,,,,,,,,,,,,034,2022-06-01_17h42.31.876,Main,2022.1.1,60.97222660569417,
neutral,positive,2,k,k,,,,,,,,,7,1,127,13,,,,,,,,,main,2,2,2,positive,neutral,k,k,1,0.6147604000288993,396.4452929000836,397.4583221001085,397.44169150013477,None,396.4452929000836,None,396.4452929000836,None,396.4452929000836,None,398.0557712800801,None,398.0557712800801,None,398.0557712800801,None,,,,,,,,,,,,,,034,2022-06-01_17h42.31.876,Main,2022.1.1,60.97222660569417,
neutral,positive,1,k,k,,,,,,,,,7,2,128,4,,,,,,,,,main,1,1,1,positive,neutral,k,k,1,0.7150077999103814,398.05576990009286,399.05574400001206,399.05574400001206,None,398.05576990009286,None,398.05576990009286,None,398.05576990009286,None,399.7723897800315,None,399.7723897800315,None,399.7723897800315,None,,,,,,,,,,,,,,034,2022-06-01_17h42.31.876,Main,2022.1.1,60.97222660569417,
positive,neutral,2,l,j,,,,,,,,,7,3,129,17,,,,,,,,,main,1,1,2,neutral,positive,l,l,1,0.5985628999769688,399.77239990001544,400.7724101000931,400.7724101000931,None,399.77239990001544,None,399.77239990001544,None,399.77239990001544,None,401.3723874799907,None,401.3723874799907,None,401.3723874799907,None,,,,,,,,,,,,,,034,2022-06-01_17h42.31.876,Main,2022.1.1,60.97222660569417,
negative,neutral,1,j,l,,,,,,,,,7,4,130,3,,,,,,,,,main,2,2,1,neutral,negative,j,j,1,0.682934699812904,401.3728714999743,402.3750952000264,402.3750952000264,None,401.3728714999743,None,401.3728714999743,None,401.3728714999743,None,403.0560332799796,None,403.0560332799796,None,403.0560332799796,None,,,,,,,,,,,,,,034,2022-06-01_17h42.31.876,Main,2022.1.1,60.97222660569417,
positive,negative,2,l,j,,,,,,,,,7,5,131,14,,,,,,,,,main,2,2,2,negative,positive,l,l,1,1.7644141998607665,403.06039520003833,404.07494379999116,404.05831290013157,None,403.06039520003833,None,403.06039520003833,None,403.06039520003833,None,405.8226982001215,None,405.8226982001215,None,405.8226982001215,None,,,,,,,,,,,,,,034,2022-06-01_17h42.31.876,Main,2022.1.1,60.97222660569417,
neutral,negative,1,k,k,,,,,,,,,7,6,132,7,,,,,,,,,main,2,2,1,negative,neutral,k,k,1,0.6852165998425335,406.8231296001468,407.8225769000128,407.8082194000017,None,406.8231296001468,None,406.8231296001468,None,406.8231296001468,None,408.50591427995823,None,408.50591427995823,None,408.50591427995823,None,,,,,,,,,,,,,,034,2022-06-01_17h42.31.876,Main,2022.1.1,60.97222660569417,
neutral,neutral,1,k,k,,,,,,,,,7,7,133,1,,,,,,,,,main,1,1,1,neutral,neutral,k,k,1,0.6800401001237333,408.50995440012775,409.505530500086,409.49615760007873,None,408.50995440012775,None,408.50995440012775,None,408.50995440012775,None,410.1888325801119,None,410.1888325801119,None,410.1888325801119,None,,,,,,,,,,,,,,034,2022-06-01_17h42.31.876,Main,2022.1.1,60.97222660569417,
negative,negative,2,j,l,,,,,,,,,7,8,134,9,,,,,,,,,main,2,2,2,negative,negative,j,j,1,0.7320613998454064,410.18917130003683,411.1888006001245,411.1888006001245,None,410.18917130003683,None,410.18917130003683,None,410.18917130003683,None,411.9225258801598,None,411.9225258801598,None,411.9225258801598,None,,,,,,,,,,,,,,034,2022-06-01_17h42.31.876,Main,2022.1.1,60.97222660569417,
negative,neutral,2,j,l,,,,,,,,,7,9,135,12,,,,,,,,,main,2,2,2,neutral,negative,j,j,1,0.931895500048995,411.9264980000444,412.941458000103,412.9081681999378,None,411.9264980000444,None,411.9264980000444,None,411.9264980000444,None,413.85581828001887,None,413.85581828001887,None,413.85581828001887,None,,,,,,,,,,,,,,034,2022-06-01_17h42.31.876,Main,2022.1.1,60.97222660569417,
negative,positive,1,j,l,,,,,,,,,7,10,136,6,,,,,,,,,main,1,1,1,positive,negative,j,j,1,1.1151961998548359,413.859158199979,414.8724335001316,414.8580998000689,None,413.859158199979,None,413.859158199979,None,413.859158199979,None,415.9724320799578,None,415.9724320799578,None,415.9724320799578,None,,,,,,,,,,,,,,034,2022-06-01_17h42.31.876,Main,2022.1.1,60.97222660569417,
neutral,neutral,2,k,k,,,,,,,,,7,11,137,10,,,,,,,,,main,2,2,2,neutral,neutral,k,k,1,0.8189330000896007,415.9760477000382,416.9911819000263,416.9723968000617,None,415.9760477000382,None,415.9760477000382,None,415.9760477000382,None,417.7899174799677,None,417.7899174799677,None,417.7899174799677,None,,,,,,,,,,,,,,034,2022-06-01_17h42.31.876,Main,2022.1.1,60.97222660569417,
positive,negative,1,l,j,,,,,,,,,7,12,138,5,,,,,,,,,main,2,2,1,negative,positive,l,l,1,0.7640431001782417,417.7971513001248,418.80567750008777,418.78902320005,None,417.7971513001248,None,417.7971513001248,None,417.7971513001248,None,419.5553390800487,None,419.5553390800487,None,419.5553390800487,None,,,,,,,,,,,,,,034,2022-06-01_17h42.31.876,Main,2022.1.1,60.97222660569417,
neutral,negative,2,k,k,,,,,,,,,7,13,139,16,,,,,,,,,main,1,1,2,negative,neutral,k,k,1,0.6440398001577705,419.55928859999403,420.57197810010985,420.5553167001344,None,419.55928859999403,None,419.55928859999403,None,419.55928859999403,None,421.2053010801319,None,421.2053010801319,None,421.2053010801319,None,,,,,,,,,,,,,,034,2022-06-01_17h42.31.876,Main,2022.1.1,60.97222660569417,
positive,positive,2,l,j,,,,,,,,,7,14,140,11,,,,,,,,,main,2,2,2,positive,positive,l,l,1,0.7652437000069767,421.2058179001324,422.205279200105,422.205279200105,None,421.2058179001324,None,421.2058179001324,None,421.2058179001324,None,422.97200718009844,None,422.97200718009844,None,422.97200718009844,None,,,,,,,,,,,,,,034,2022-06-01_17h42.31.876,Main,2022.1.1,60.97222660569417,
negative,positive,2,j,l,,,,,,,,,7,15,141,15,,,,,,,,,main,1,1,2,positive,negative,j,j,1,0.7318075001239777,422.9779684001114,423.9912648999598,423.97466950002126,None,422.9779684001114,None,422.9779684001114,None,422.9779684001114,None,424.70560808014125,None,424.70560808014125,None,424.70560808014125,None,,,,,,,,,,,,,,034,2022-06-01_17h42.31.876,Main,2022.1.1,60.97222660569417,
positive,neutral,1,l,j,,,,,,,,,7,16,142,8,,,,,,,,,main,2,2,1,neutral,positive,l,l,1,0.8149377999361604,424.7114077999722,425.72441600007005,425.7078158999793,None,424.7114077999722,None,424.7114077999722,None,424.7114077999722,None,426.5222029800061,None,426.5222029800061,None,426.5222029800061,None,,,,,,,,,,,,,,034,2022-06-01_17h42.31.876,Main,2022.1.1,60.97222660569417,
negative,negative,1,j,l,,,,,,,,,7,17,143,0,,,,,,,,,main,2,2,1,negative,negative,j,j,1,0.8817385998554528,426.5254836000968,427.5244645001367,427.5244645001367,None,426.5254836000968,None,426.5254836000968,None,426.5254836000968,None,428.4055143799633,None,428.4055143799633,None,428.4055143799633,None,,,,,,,,,,,,,,034,2022-06-01_17h42.31.876,Main,2022.1.1,60.97222660569417,
neutral,negative,1,k,k,,,,,,,,,8,0,144,7,,,,,,,,,main,1,1,1,negative,neutral,k,k,1,0.7153874000068754,428.41122650005855,429.42427610000595,429.40546800009906,None,428.41122650005855,None,428.41122650005855,None,428.41122650005855,None,430.1221712799743,None,430.1221712799743,None,430.1221712799743,None,,,,,,,,,,,,,,034,2022-06-01_17h42.31.876,Main,2022.1.1,60.97222660569417,
negative,positive,2,j,l,,,,,,,,,8,1,145,15,,,,,,,,,main,1,1,2,positive,negative,j,j,1,0.8309055001009256,430.1261072999332,431.13841350004077,431.12175279995427,None,430.1261072999332,None,430.1261072999332,None,430.1261072999332,None,431.95508908014745,None,431.95508908014745,None,431.95508908014745,None,,,,,,,,,,,,,,034,2022-06-01_17h42.31.876,Main,2022.1.1,60.97222660569417,
negative,negative,2,j,l,,,,,,,,,8,2,146,9,,,,,,,,,main,2,2,2,negative,negative,j,j,1,0.5655030000489205,431.95506300008856,432.95510050002486,432.95510050002486,None,431.95506300008856,None,431.95506300008856,None,431.95506300008856,None,433.5220751799643,None,433.5220751799643,None,433.5220751799643,None,,,,,,,,,,,,,,034,2022-06-01_17h42.31.876,Main,2022.1.1,60.97222660569417,
positive,negative,1,l,j,,,,,,,,,8,3,147,5,,,,,,,,,main,1,1,1,negative,positive,l,l,1,0.5985976001247764,433.5256318000611,434.54091570014134,434.5243613999337,None,433.5256318000611,None,433.5256318000611,None,433.5256318000611,None,435.12202778016217,None,435.12202778016217,None,435.12202778016217,None,,,,,,,,,,,,,,034,2022-06-01_17h42.31.876,Main,2022.1.1,60.97222660569417,
neutral,negative,2,k,k,,,,,,,,,8,4,148,16,,,,,,,,,main,2,2,2,negative,neutral,k,k,1,0.6835634000599384,435.12598120002076,436.138673099922,436.12438539997675,None,435.12598120002076,None,435.12598120002076,None,435.12598120002076,None,436.80770328012295,None,436.80770328012295,None,436.80770328012295,None,,,,,,,,,,,,,,034,2022-06-01_17h42.31.876,Main,2022.1.1,60.97222660569417,
positive,neutral,2,l,j,,,,,,,,,8,5,149,17,,,,,,,,,main,2,2,2,neutral,positive,l,l,1,0.7795763001777232,436.8112687000539,437.82414590008557,437.8076802000869,None,436.8112687000539,None,436.8112687000539,None,436.8112687000539,None,438.5886348800268,None,438.5886348800268,None,438.5886348800268,None,,,,,,,,,,,,,,034,2022-06-01_17h42.31.876,Main,2022.1.1,60.97222660569417,
neutral,neutral,1,k,k,,,,,,,,,8,6,150,1,,,,,,,,,main,2,2,1,neutral,neutral,k,k,1,0.6649124000687152,438.59219260001555,439.60751460003667,439.5886079999618,None,438.59219260001555,None,438.59219260001555,None,438.59219260001555,None,440.25529618002474,None,440.25529618002474,None,440.25529618002474,None,,,,,,,,,,,,,,034,2022-06-01_17h42.31.876,Main,2022.1.1,60.97222660569417,
negative,negative,1,j,l,,,,,,,,,8,7,151,0,,,,,,,,,main,2,2,1,negative,negative,j,j,1,0.6311858999542892,440.2611364000477,441.27156729996204,441.2549040999729,None,440.2611364000477,None,440.2611364000477,None,440.2611364000477,None,441.88822798011824,None,441.88822798011824,None,441.88822798011824,None,,,,,,,,,,,,,,034,2022-06-01_17h42.31.876,Main,2022.1.1,60.97222660569417,
neutral,positive,1,k,k,,,,,,,,,8,8,152,4,,,,,,,,,main,2,2,1,positive,neutral,k,j,0,0.5642927000299096,441.9049470999744,442.9049174999818,442.88825309998356,None,441.9049470999744,None,441.9049470999744,None,441.9049470999744,None,443.45489139994606,None,443.45489139994606,None,443.45489139994606,None,,,,,,,,,,,,,,034,2022-06-01_17h42.31.876,Main,2022.1.1,60.97222660569417,
neutral,neutral,2,k,k,,,,,,,,,8,9,153,10,,,,,,,,,main,2,2,2,neutral,neutral,k,k,1,1.0012336999643594,444.45574990008026,445.4574703001417,445.44080460001715,None,444.45574990008026,None,444.45574990008026,None,444.45574990008026,None,446.4551553800702,None,446.4551553800702,None,446.4551553800702,None,,,,,,,,,,,,,,034,2022-06-01_17h42.31.876,Main,2022.1.1,60.97222660569417,
negative,neutral,2,j,l,,,,,,,,,8,10,154,12,,,,,,,,,main,2,2,2,neutral,negative,j,j,1,0.7479783999733627,446.45906110014766,447.4739459999837,447.45731239998713,None,446.45906110014766,None,446.45906110014766,None,446.45906110014766,None,448.20511648012325,None,448.20511648012325,None,448.20511648012325,None,,,,,,,,,,,,,,034,2022-06-01_17h42.31.876,Main,2022.1.1,60.97222660569417,
negative,neutral,1,j,l,,,,,,,,,8,11,155,3,,,,,,,,,main,2,2,1,neutral,negative,j,j,1,0.7981936000287533,448.2085533000063,449.2239892000798,449.20733360014856,None,448.2085533000063,None,448.2085533000063,None,448.2085533000063,None,450.00508707994595,None,450.00508707994595,None,450.00508707994595,None,,,,,,,,,,,,,,034,2022-06-01_17h42.31.876,Main,2022.1.1,60.97222660569417,
neutral,positive,2,k,k,,,,,,,,,8,12,156,13,,,,,,,,,main,2,2,2,positive,neutral,k,k,1,0.7647537000011653,450.0106184000615,451.01045350008644,451.01045350008644,None,450.0106184000615,None,450.0106184000615,None,450.0106184000615,None,451.77133518015034,None,451.77133518015034,None,451.77133518015034,None,,,,,,,,,,,,,,034,2022-06-01_17h42.31.876,Main,2022.1.1,60.97222660569417,
negative,positive,1,j,l,,,,,,,,,8,13,157,6,,,,,,,,,main,2,2,1,positive,negative,j,j,1,0.6975008000154048,451.7722376000602,452.77133030002005,452.77133030002005,None,451.7722376000602,None,451.7722376000602,None,451.7722376000602,None,453.4713593800552,None,453.4713593800552,None,453.4713593800552,None,,,,,,,,,,,,,,034,2022-06-01_17h42.31.876,Main,2022.1.1,60.97222660569417,
positive,neutral,1,l,j,,,,,,,,,8,14,158,8,,,,,,,,,main,1,1,1,neutral,positive,l,l,1,0.7322624002117664,453.4773079000879,454.48833320010453,454.45731650013477,None,453.4773079000879,None,453.4773079000879,None,453.4773079000879,None,455.20509498007596,None,455.20509498007596,None,455.20509498007596,None,,,,,,,,,,,,,,034,2022-06-01_17h42.31.876,Main,2022.1.1,60.97222660569417,
positive,positive,2,l,j,,,,,,,,,8,15,159,11,,,,,,,,,main,1,1,2,positive,positive,l,l,1,0.7829392000567168,455.2112307001371,456.2216157000512,456.2073103999719,None,455.2112307001371,None,455.2112307001371,None,455.2112307001371,None,456.9884337801486,None,456.9884337801486,None,456.9884337801486,None,,,,,,,,,,,,,,034,2022-06-01_17h42.31.876,Main,2022.1.1,60.97222660569417,
positive,negative,2,l,j,,,,,,,,,8,16,160,14,,,,,,,,,main,1,1,2,negative,positive,l,l,1,1.4135547999758273,456.99449370009825,458.0070835999213,457.99047770001926,None,456.99449370009825,None,456.99449370009825,None,456.99449370009825,None,459.40487388009205,None,459.40487388009205,None,459.40487388009205,None,,,,,,,,,,,,,,034,2022-06-01_17h42.31.876,Main,2022.1.1,60.97222660569417,
positive,positive,1,l,j,,,,,,,,,8,17,161,2,,,,,,,,,main,2,2,1,positive,positive,l,l,1,0.7825911000836641,459.41030150000006,460.4215222999919,460.40716190007515,None,459.41030150000006,None,459.41030150000006,None,459.41030150000006,None,461.1881727799773,None,461.1881727799773,None,461.1881727799773,None,,,,,,,,,,,,,,034,2022-06-01_17h42.31.876,Main,2022.1.1,60.97222660569417,
negative,negative,1,j,l,,,,,,,,,9,0,162,0,,,,,,,,,main,1,1,1,negative,negative,j,,0,1.2511118999682367,461.1942332999315,462.2044836001005,462.18781829997897,None,461.1942332999315,None,461.1942332999315,None,461.1942332999315,None,463.43779999995604,None,463.43779999995604,None,463.43779999995604,None,,,,,,,,,,,,,,034,2022-06-01_17h42.31.876,Main,2022.1.1,60.97222660569417,
positive,positive,1,l,j,,,,,,,,,9,1,163,2,,,,,,,,,main,1,1,1,positive,positive,l,l,1,0.9030047000851482,464.4385363000911,465.43778989999555,465.43778989999555,None,464.4385363000911,None,464.4385363000911,None,464.4385363000911,None,466.3381109801121,None,466.3381109801121,None,466.3381109801121,None,,,,,,,,,,,,,,034,2022-06-01_17h42.31.876,Main,2022.1.1,60.97222660569417,
positive,neutral,1,l,j,,,,,,,,,9,2,164,8,,,,,,,,,main,2,2,1,neutral,positive,l,l,1,0.6813955998513848,466.34391569998115,467.3547461000271,467.3404109000694,None,466.34391569998115,None,466.34391569998115,None,466.34391569998115,None,468.021383079933,None,468.021383079933,None,468.021383079933,None,,,,,,,,,,,,,,034,2022-06-01_17h42.31.876,Main,2022.1.1,60.97222660569417,
neutral,positive,1,k,k,,,,,,,,,9,3,165,4,,,,,,,,,main,2,2,1,positive,neutral,k,k,1,1.0648445999249816,468.0270921001211,469.04028409998864,469.0213870999869,None,468.0270921001211,None,468.0270921001211,None,468.0270921001211,None,470.0879984800704,None,470.0879984800704,None,470.0879984800704,None,,,,,,,,,,,,,,034,2022-06-01_17h42.31.876,Main,2022.1.1,60.97222660569417,
positive,neutral,2,l,j,,,,,,,,,9,4,166,17,,,,,,,,,main,1,1,2,neutral,positive,l,l,1,0.664377500070259,470.0940990000963,471.1068719001487,471.0903004000429,None,470.0940990000963,None,470.0940990000963,None,470.0940990000963,None,471.7547408801038,None,471.7547408801038,None,471.7547408801038,None,,,,,,,,,,,,,,034,2022-06-01_17h42.31.876,Main,2022.1.1,60.97222660569417,
negative,neutral,1,j,l,,,,,,,,,9,5,167,3,,,,,,,,,main,2,2,1,neutral,negative,j,j,1,0.7680685000959784,471.76023319992237,472.77127830008976,472.75460699992254,None,471.76023319992237,None,471.76023319992237,None,471.76023319992237,None,473.5247327799443,None,473.5247327799443,None,473.5247327799443,None,,,,,,,,,,,,,,034,2022-06-01_17h42.31.876,Main,2022.1.1,60.97222660569417,
positive,negative,2,l,j,,,,,,,,,9,6,168,14,,,,,,,,,main,2,2,2,negative,positive,l,l,1,0.6947611998766661,473.5378405000083,474.5375568999443,474.5208902999293,None,473.5378405000083,None,473.5378405000083,None,473.5378405000083,None,475.22087838011794,None,475.22087838011794,None,475.22087838011794,None,,,,,,,,,,,,,,034,2022-06-01_17h42.31.876,Main,2022.1.1,60.97222660569417,
neutral,negative,1,k,k,,,,,,,,,9,7,169,7,,,,,,,,,main,1,1,1,negative,neutral,k,k,1,0.7988797000143677,475.22087249998003,476.2208990000654,476.2208990000654,None,475.22087249998003,None,475.22087249998003,None,475.22087249998003,None,477.02091958001256,None,477.02091958001256,None,477.02091958001256,None,,,,,,,,,,,,,,034,2022-06-01_17h42.31.876,Main,2022.1.1,60.97222660569417,
neutral,positive,2,k,k,,,,,,,,,9,8,170,13,,,,,,,,,main,2,2,2,positive,neutral,k,k,1,1.0484624998643994,477.0246914001182,478.04014279996045,478.02358249993995,None,477.0246914001182,None,477.0246914001182,None,477.0246914001182,None,479.0712109799497,None,479.0712109799497,None,479.0712109799497,None,,,,,,,,,,,,,,034,2022-06-01_17h42.31.876,Main,2022.1.1,60.97222660569417,
positive,negative,1,l,j,,,,,,,,,9,9,171,5,,,,,,,,,main,2,2,1,negative,positive,l,l,1,0.7483995000366122,479.07487270003185,480.09008989995345,480.0734107999597,None,479.07487270003185,None,479.07487270003185,None,479.07487270003185,None,480.82112177996896,None,480.82112177996896,None,480.82112177996896,None,,,,,,,,,,,,,,034,2022-06-01_17h42.31.876,Main,2022.1.1,60.97222660569417,
neutral,neutral,1,k,k,,,,,,,,,9,10,172,1,,,,,,,,,main,1,1,1,neutral,neutral,k,k,1,0.6983527999836951,480.8249353999272,481.84003590000793,481.8211231001187,None,480.8249353999272,None,480.8249353999272,None,480.8249353999272,None,482.52107998006977,None,482.52107998006977,None,482.52107998006977,None,,,,,,,,,,,,,,034,2022-06-01_17h42.31.876,Main,2022.1.1,60.97222660569417,
negative,negative,2,j,l,,,,,,,,,9,11,173,9,,,,,,,,,main,1,1,2,negative,negative,j,l,0,0.6983960999641567,482.5244229999371,483.539958700072,483.52105300012045,None,482.5244229999371,None,482.5244229999371,None,482.5244229999371,None,484.2210723001044,None,484.2210723001044,None,484.2210723001044,None,,,,,,,,,,,,,,034,2022-06-01_17h42.31.876,Main,2022.1.1,60.97222660569417,
negative,positive,2,j,l,,,,,,,,,9,12,174,15,,,,,,,,,main,2,2,2,positive,negative,j,j,1,0.9349985001608729,485.22205330012366,486.23733810009435,486.20399129996076,None,485.22205330012366,None,485.22205330012366,None,485.22205330012366,None,487.1539868800901,None,487.1539868800901,None,487.1539868800901,None,,,,,,,,,,,,,,034,2022-06-01_17h42.31.876,Main,2022.1.1,60.97222660569417,
negative,neutral,2,j,l,,,,,,,,,9,13,175,12,,,,,,,,,main,2,2,2,neutral,negative,j,j,1,0.6636854000389576,487.1551024001092,488.1706684001256,488.1539988000877,None,487.1551024001092,None,487.1551024001092,None,487.1551024001092,None,488.82065348001197,None,488.82065348001197,None,488.82065348001197,None,,,,,,,,,,,,,,034,2022-06-01_17h42.31.876,Main,2022.1.1,60.97222660569417,
negative,positive,1,j,l,,,,,,,,,9,14,176,6,,,,,,,,,main,1,1,1,positive,negative,j,j,1,0.9654712001793087,488.82078399998136,489.8206681001466,489.8206681001466,None,488.82078399998136,None,488.82078399998136,None,488.82078399998136,None,490.7876142801251,None,490.7876142801251,None,490.7876142801251,None,,,,,,,,,,,,,,034,2022-06-01_17h42.31.876,Main,2022.1.1,60.97222660569417,
neutral,negative,2,k,k,,,,,,,,,9,15,177,16,,,,,,,,,main,1,1,2,negative,neutral,k,k,1,0.681606600061059,490.79057620000094,491.7898794999346,491.7732931000646,None,490.79057620000094,None,490.79057620000094,None,490.79057620000094,None,492.4708761801012,None,492.4708761801012,None,492.4708761801012,None,,,,,,,,,,,,,,034,2022-06-01_17h42.31.876,Main,2022.1.1,60.97222660569417,
positive,positive,2,l,j,,,,,,,,,9,16,178,11,,,,,,,,,main,1,1,2,positive,positive,l,l,1,0.9819821999408305,492.47642079996876,493.48968390002847,493.4730891000945,None,492.47642079996876,None,492.47642079996876,None,492.47642079996876,None,494.4541691800114,None,494.4541691800114,None,494.4541691800114,None,,,,,,,,,,,,,,034,2022-06-01_17h42.31.876,Main,2022.1.1,60.97222660569417,
neutral,neutral,2,k,k,,,,,,,,,9,17,179,10,,,,,,,,,main,1,1,2,neutral,neutral,k,k,1,0.6687333998270333,494.4596998000052,495.473070200067,495.4565149000846,None,494.4596998000052,None,494.4596998000052,None,494.4596998000052,None,496.12083458015695,None,496.12083458015695,None,496.12083458015695,None,,,,,,,,,,,,,,034,2022-06-01_17h42.31.876,Main,2022.1.1,60.97222660569417,
neutral,neutral,1,k,k,,,,,,,,,10,0,180,1,,,,,,,,,main,1,1,1,neutral,neutral,k,k,1,0.7101337998174131,496.13364879996516,497.13136140001006,497.1196087000426,None,496.13364879996516,None,496.13364879996516,None,496.13364879996516,None,497.8370957800653,None,497.8370957800653,None,497.8370957800653,None,,,,,,,,,,,,,,034,2022-06-01_17h42.31.876,Main,2022.1.1,60.97222660569417,
neutral,positive,2,k,k,,,,,,,,,10,1,181,13,,,,,,,,,main,1,1,2,positive,neutral,k,k,1,0.5817950000055134,497.8371081999503,498.8370715000201,498.8370715000201,None,497.8371081999503,None,497.8371081999503,None,497.8371081999503,None,499.4204474799335,None,499.4204474799335,None,499.4204474799335,None,,,,,,,,,,,,,,034,2022-06-01_17h42.31.876,Main,2022.1.1,60.97222660569417,
positive,positive,1,l,j,,,,,,,,,10,2,182,2,,,,,,,,,main,1,1,1,positive,positive,l,l,1,0.7320107999257743,499.4235726001207,500.42301920009777,500.42301920009777,None,499.4235726001207,None,499.4235726001207,None,499.4235726001207,None,501.1540592799429,None,501.1540592799429,None,501.1540592799429,None,,,,,,,,,,,,,,034,2022-06-01_17h42.31.876,Main,2022.1.1,60.97222660569417,
positive,neutral,2,l,j,,,,,,,,,10,3,183,17,,,,,,,,,main,2,2,2,neutral,positive,l,l,1,0.7483624999877065,501.15979710011743,502.1730186000932,502.1563339999411,None,501.15979710011743,None,501.15979710011743,None,501.15979710011743,None,502.90401908010244,None,502.90401908010244,None,502.90401908010244,None,,,,,,,,,,,,,,034,2022-06-01_17h42.31.876,Main,2022.1.1,60.97222660569417,
negative,neutral,2,j,l,,,,,,,,,10,4,184,12,,,,,,,,,main,2,2,2,neutral,negative,j,j,1,0.7148430999368429,502.90962369996123,503.92289660009556,503.906267600134,None,502.90962369996123,None,502.90962369996123,None,502.90962369996123,None,504.6206325800158,None,504.6206325800158,None,504.6206325800158,None,,,,,,,,,,,,,,034,2022-06-01_17h42.31.876,Main,2022.1.1,60.97222660569417,
positive,neutral,1,l,j,,,,,,,,,10,5,185,8,,,,,,,,,main,1,1,1,neutral,positive,l,l,1,0.7483612999785691,504.6260099001229,505.6395712001249,505.6206175000407,None,504.6260099001229,None,504.6260099001229,None,504.6260099001229,None,506.37063017999753,None,506.37063017999753,None,506.37063017999753,None,,,,,,,,,,,,,,034,2022-06-01_17h42.31.876,Main,2022.1.1,60.97222660569417,
negative,negative,2,j,l,,,,,,,,,10,6,186,9,,,,,,,,,main,2,2,2,negative,negative,j,j,1,0.7145940000191331,506.37605830002576,507.3868929001037,507.3702368000522,None,506.37605830002576,None,506.37605830002576,None,506.37605830002576,None,508.08690308011137,None,508.08690308011137,None,508.08690308011137,None,,,,,,,,,,,,,,034,2022-06-01_17h42.31.876,Main,2022.1.1,60.97222660569417,
positive,negative,1,l,j,,,,,,,,,10,7,187,5,,,,,,,,,main,1,1,1,negative,positive,l,j,0,0.5985226999036968,508.0869056000374,509.086910400074,509.086910400074,None,508.0869056000374,None,508.0869056000374,None,508.0869056000374,None,509.6868783000391,None,509.6868783000391,None,509.6868783000391,None,,,,,,,,,,,,,,034,2022-06-01_17h42.31.876,Main,2022.1.1,60.97222660569417,
negative,positive,2,j,l,,,,,,,,,10,8,188,15,,,,,,,,,main,2,2,2,positive,negative,j,j,1,0.8694579999428242,510.6884508000221,511.68941190000623,511.67288079997525,None,510.6884508000221,None,510.6884508000221,None,510.6884508000221,None,512.5538084800355,None,512.5538084800355,None,512.5538084800355,None,,,,,,,,,,,,,,034,2022-06-01_17h42.31.876,Main,2022.1.1,60.97222660569417,
negative,negative,1,j,l,,,,,,,,,10,9,189,0,,,,,,,,,main,2,2,1,negative,negative,j,j,1,0.865133099956438,512.5579196999315,513.5727143001277,513.5560626001097,None,512.5579196999315,None,512.5579196999315,None,512.5579196999315,None,514.4204445800278,None,514.4204445800278,None,514.4204445800278,None,,,,,,,,,,,,,,034,2022-06-01_17h42.31.876,Main,2022.1.1,60.97222660569417,
negative,neutral,1,j,l,,,,,,,,,10,10,190,3,,,,,,,,,main,2,2,1,neutral,negative,j,j,1,0.5313909000251442,514.426402100129,515.4393492999952,515.4204224001151,None,514.426402100129,None,514.426402100129,None,514.426402100129,None,515.9537494799588,None,515.9537494799588,None,515.9537494799588,None,,,,,,,,,,,,,,034,2022-06-01_17h42.31.876,Main,2022.1.1,60.97222660569417,
positive,positive,2,l,j,,,,,,,,,10,11,191,11,,,,,,,,,main,2,2,2,positive,positive,l,l,1,0.6818800000473857,515.957112400094,516.9726106000599,516.9537281999364,None,515.957112400094,None,515.957112400094,None,515.957112400094,None,517.6370462800842,None,517.6370462800842,None,517.6370462800842,None,,,,,,,,,,,,,,034,2022-06-01_17h42.31.876,Main,2022.1.1,60.97222660569417,
positive,negative,2,l,j,,,,,,,,,10,12,192,14,,,,,,,,,main,1,1,2,negative,positive,l,l,1,0.7978544998914003,517.6428753000218,518.6533411000855,518.636673900066,None,517.6428753000218,None,517.6428753000218,None,517.6428753000218,None,519.436653980054,None,519.436653980054,None,519.436653980054,None,,,,,,,,,,,,,,034,2022-06-01_17h42.31.876,Main,2022.1.1,60.97222660569417,
neutral,negative,1,k,k,,,,,,,,,10,13,193,7,,,,,,,,,main,2,2,1,negative,neutral,k,k,1,0.8697901999112219,519.4366488999221,520.4367066000123,520.4367066000123,None,519.4366488999221,None,519.4366488999221,None,519.4366488999221,None,521.308007480111,None,521.308007480111,None,521.308007480111,None,,,,,,,,,,,,,,034,2022-06-01_17h42.31.876,Main,2022.1.1,60.97222660569417,
neutral,positive,1,k,k,,,,,,,,,10,14,194,4,,,,,,,,,main,2,2,1,positive,neutral,k,k,1,0.67731330008246,521.3112149001099,522.3225444999989,522.3036179000046,None,521.3112149001099,None,521.3112149001099,None,521.3112149001099,None,522.9869599801023,None,522.9869599801023,None,522.9869599801023,None,,,,,,,,,,,,,,034,2022-06-01_17h42.31.876,Main,2022.1.1,60.97222660569417,
negative,positive,1,j,l,,,,,,,,,10,15,195,6,,,,,,,,,main,2,2,1,positive,negative,j,j,1,0.8158676000311971,522.9908596000168,524.005828200141,523.9869115001056,None,522.9908596000168,None,522.9908596000168,None,522.9908596000168,None,524.8045052799862,None,524.8045052799862,None,524.8045052799862,None,,,,,,,,,,,,,,034,2022-06-01_17h42.31.876,Main,2022.1.1,60.97222660569417,
neutral,negative,2,k,k,,,,,,,,,10,16,196,16,,,,,,,,,main,2,2,2,negative,neutral,k,k,1,0.6474633000325412,524.8100914999377,525.8224073001184,525.8058005999774,None,524.8100914999377,None,524.8100914999377,None,524.8100914999377,None,526.4536296799779,None,526.4536296799779,None,526.4536296799779,None,,,,,,,,,,,,,,034,2022-06-01_17h42.31.876,Main,2022.1.1,60.97222660569417,
neutral,neutral,2,k,k,,,,,,,,,10,17,197,10,,,,,,,,,main,2,2,2,neutral,neutral,k,k,1,0.6478929999284446,526.4571734999772,527.4724133000709,527.4558173001278,None,526.4571734999772,None,526.4571734999772,None,526.4571734999772,None,528.1031685799826,None,528.1031685799826,None,528.1031685799826,None,,,,,,,,,,,,,,034,2022-06-01_17h42.31.876,Main,2022.1.1,60.97222660569417,
neutral,negative,2,k,k,,,,,,,,,11,0,198,16,,,,,,,,,main,2,2,2,negative,neutral,k,k,1,0.5857716000173241,528.1032805000432,529.1031411001459,529.1031411001459,None,528.1032805000432,None,528.1032805000432,None,528.1032805000432,None,529.6864596800879,None,529.6864596800879,None,529.6864596800879,None,,,,,,,,,,,,,,034,2022-06-01_17h42.31.876,Main,2022.1.1,60.97222660569417,
positive,neutral,1,l,j,,,,,,,,,11,1,199,8,,,,,,,,,main,1,1,1,neutral,positive,l,l,1,0.7111849000211805,529.6900498999748,530.7031346999574,530.6864597001113,None,529.6900498999748,None,529.6900498999748,None,529.6900498999748,None,531.4031459800899,None,531.4031459800899,None,531.4031459800899,None,,,,,,,,,,,,,,034,2022-06-01_17h42.31.876,Main,2022.1.1,60.97222660569417,
negative,negative,2,j,l,,,,,,,,,11,2,200,9,,,,,,,,,main,2,2,2,negative,negative,j,j,1,0.6650874998886138,531.4067035999615,532.405777100008,532.405777100008,None,531.4067035999615,None,531.4067035999615,None,531.4067035999615,None,533.0701020800043,None,533.0701020800043,None,533.0701020800043,None,,,,,,,,,,,,,,034,2022-06-01_17h42.31.876,Main,2022.1.1,60.97222660569417,
positive,negative,2,l,j,,,,,,,,,11,3,201,14,,,,,,,,,main,1,1,2,negative,positive,l,l,1,0.6479460999835283,533.0867769001052,534.0890172000509,534.0724067001138,None,533.0867769001052,None,533.0867769001052,None,533.0867769001052,None,534.7200650800951,None,534.7200650800951,None,534.7200650800951,None,,,,,,,,,,,,,,034,2022-06-01_17h42.31.876,Main,2022.1.1,60.97222660569417,
positive,positive,2,l,j,,,,,,,,,11,4,202,11,,,,,,,,,main,1,1,2,positive,positive,l,l,1,0.6151019998360425,534.7234151000157,535.7223770001438,535.7223770001438,None,534.7234151000157,None,534.7234151000157,None,534.7234151000157,None,536.3367057801224,None,536.3367057801224,None,536.3367057801224,None,,,,,,,,,,,,,,034,2022-06-01_17h42.31.876,Main,2022.1.1,60.97222660569417,
negative,positive,2,j,l,,,,,,,,,11,5,203,15,,,,,,,,,main,1,1,2,positive,negative,j,j,1,0.6984323998913169,536.340214200085,537.3533216000069,537.3366435000207,None,536.340214200085,None,536.340214200085,None,536.340214200085,None,538.0367705801036,None,538.0367705801036,None,538.0367705801036,None,,,,,,,,,,,,,,034,2022-06-01_17h42.31.876,Main,2022.1.1,60.97222660569417,
positive,negative,1,l,j,,,,,,,,,11,6,204,5,,,,,,,,,main,1,1,1,negative,positive,l,l,1,0.6148065999150276,538.0404638999607,539.0554583999328,539.0388857999351,None,538.0404638999607,None,538.0404638999607,None,538.0404638999607,None,539.6529498801101,None,539.6529498801101,None,539.6529498801101,None,,,,,,,,,,,,,,034,2022-06-01_17h42.31.876,Main,2022.1.1,60.97222660569417,
neutral,positive,2,k,k,,,,,,,,,11,7,205,13,,,,,,,,,main,2,2,2,positive,neutral,k,k,1,0.6482413001358509,539.6529077999294,540.6528853999916,540.6528853999916,None,539.6529077999294,None,539.6529077999294,None,539.6529077999294,None,541.3029684801586,None,541.3029684801586,None,541.3029684801586,None,,,,,,,,,,,,,,034,2022-06-01_17h42.31.876,Main,2022.1.1,60.97222660569417,
neutral,positive,1,k,k,,,,,,,,,11,8,206,4,,,,,,,,,main,2,2,1,positive,neutral,k,k,1,0.6655361999291927,541.3063942000736,542.3055277999956,542.3055277999956,None,541.3063942000736,None,541.3063942000736,None,541.3063942000736,None,542.9698851800058,None,542.9698851800058,None,542.9698851800058,None,,,,,,,,,,,,,,034,2022-06-01_17h42.31.876,Main,2022.1.1,60.97222660569417,
neutral,negative,1,k,k,,,,,,,,,11,9,207,7,,,,,,,,,main,1,1,1,negative,neutral,k,k,1,0.6479979001451284,542.9736111001112,543.9887498000171,543.9722096000332,None,542.9736111001112,None,542.9736111001112,None,542.9736111001112,None,544.6198583799414,None,544.6198583799414,None,544.6198583799414,None,,,,,,,,,,,,,,034,2022-06-01_17h42.31.876,Main,2022.1.1,60.97222660569417,
negative,neutral,2,j,l,,,,,,,,,11,10,208,12,,,,,,,,,main,2,2,2,neutral,negative,j,j,1,0.8483191998675466,544.623047699919,545.6220470999833,545.6220470999833,None,544.623047699919,None,544.623047699919,None,544.623047699919,None,546.4697929800022,None,546.4697929800022,None,546.4697929800022,None,,,,,,,,,,,,,,034,2022-06-01_17h42.31.876,Main,2022.1.1,60.97222660569417,
positive,neutral,2,l,j,,,,,,,,,11,11,209,17,,,,,,,,,main,1,1,2,neutral,positive,l,l,1,0.698450000025332,546.4733323000837,547.4886797999498,547.4720932999626,None,546.4733323000837,None,546.4733323000837,None,546.4733323000837,None,548.1697910800576,None,548.1697910800576,None,548.1697910800576,None,,,,,,,,,,,,,,034,2022-06-01_17h42.31.876,Main,2022.1.1,60.97222660569417,
positive,positive,1,l,j,,,,,,,,,11,12,210,2,,,,,,,,,main,2,2,1,positive,positive,l,l,1,0.7646739000920206,548.173457399942,549.1860641001258,549.1693941000849,None,548.173457399942,None,548.173457399942,None,548.173457399942,None,549.9360676801298,None,549.9360676801298,None,549.9360676801298,None,,,,,,,,,,,,,,034,2022-06-01_17h42.31.876,Main,2022.1.1,60.97222660569417,
negative,neutral,1,j,l,,,,,,,,,11,13,211,3,,,,,,,,,main,1,1,1,neutral,negative,j,j,1,0.7150217001326382,549.936068699928,550.936032100115,550.936032100115,None,549.936068699928,None,549.936068699928,None,549.936068699928,None,551.6527094801422,None,551.6527094801422,None,551.6527094801422,None,,,,,,,,,,,,,,034,2022-06-01_17h42.31.876,Main,2022.1.1,60.97222660569417,
neutral,neutral,1,k,k,,,,,,,,,11,14,212,1,,,,,,,,,main,2,2,1,neutral,neutral,k,k,1,0.798796399962157,551.6530744000338,552.6527369001415,552.6527369001415,None,551.6530744000338,None,551.6530744000338,None,551.6530744000338,None,553.4530915799551,None,553.4530915799551,None,553.4530915799551,None,,,,,,,,,,,,,,034,2022-06-01_17h42.31.876,Main,2022.1.1,60.97222660569417,
neutral,neutral,2,k,k,,,,,,,,,11,15,213,10,,,,,,,,,main,1,1,2,neutral,neutral,k,k,1,1.3647090001031756,553.4564535000827,554.4719563000835,554.4552511000074,None,553.4564535000827,None,553.4564535000827,None,553.4564535000827,None,555.8196322801523,None,555.8196322801523,None,555.8196322801523,None,,,,,,,,,,,,,,034,2022-06-01_17h42.31.876,Main,2022.1.1,60.97222660569417,
negative,positive,1,j,l,,,,,,,,,11,16,214,6,,,,,,,,,main,2,2,1,positive,negative,j,j,1,1.03108000010252,555.8236227999441,556.8384996999521,556.8195972000249,None,555.8236227999441,None,555.8236227999441,None,555.8236227999441,None,557.8529197799508,None,557.8529197799508,None,557.8529197799508,None,,,,,,,,,,,,,,034,2022-06-01_17h42.31.876,Main,2022.1.1,60.97222660569417,
negative,negative,1,j,l,,,,,,,,,11,17,215,0,,,,,,,,,main,2,2,1,negative,negative,j,j,1,0.7150049998890609,557.8563948001247,558.8717660000548,558.8528811000288,None,557.8563948001247,None,557.8563948001247,None,557.8563948001247,None,559.5695736799389,None,559.5695736799389,None,559.5695736799389,None,,,,,,,,,,,,,,034,2022-06-01_17h42.31.876,Main,2022.1.1,60.97222660569417,
positive,positive,1,l,j,,,,,,,,,12,0,216,2,,,,,,,,,main,1,1,1,positive,positive,l,l,1,0.7480572999920696,559.5730487999972,560.5855316000525,560.5682626999915,None,559.5730487999972,None,559.5730487999972,None,559.5730487999972,None,561.3191667799838,None,561.3191667799838,None,561.3191667799838,None,,,,,,,,,,,,,,034,2022-06-01_17h42.31.876,Main,2022.1.1,60.97222660569417,
neutral,neutral,2,k,k,,,,,,,,,12,1,217,10,,,,,,,,,main,1,1,2,neutral,neutral,k,k,1,0.8691203999333084,561.3191699001472,562.3191509000026,562.3191509000026,None,561.3191699001472,None,561.3191699001472,None,561.3191699001472,None,563.1871126799379,None,563.1871126799379,None,563.1871126799379,None,,,,,,,,,,,,,,034,2022-06-01_17h42.31.876,Main,2022.1.1,60.97222660569417,
negative,negative,2,j,l,,,,,,,,,12,2,218,9,,,,,,,,,main,2,2,2,negative,negative,j,j,1,0.812216900056228,563.1930327999871,564.2050100001507,564.1883517999668,None,563.1930327999871,None,563.1930327999871,None,563.1930327999871,None,565.0027671800926,None,565.0027671800926,None,565.0027671800926,None,,,,,,,,,,,,,,034,2022-06-01_17h42.31.876,Main,2022.1.1,60.97222660569417,
positive,negative,1,l,j,,,,,,,,,12,3,219,5,,,,,,,,,main,2,2,1,negative,positive,l,l,1,0.780550800031051,565.006842300063,566.0192456999794,566.0050884000957,None,565.006842300063,None,565.006842300063,None,565.006842300063,None,566.7857563800644,None,566.7857563800644,None,566.7857563800644,None,,,,,,,,,,,,,,034,2022-06-01_17h42.31.876,Main,2022.1.1,60.97222660569417,
neutral,negative,2,k,k,,,,,,,,,12,4,220,16,,,,,,,,,main,2,2,2,negative,neutral,k,k,1,0.6831720999907702,566.7891730000265,567.7860312000848,567.7860312000848,None,566.7891730000265,None,566.7891730000265,None,566.7891730000265,None,568.4693825801369,None,568.4693825801369,None,568.4693825801369,None,,,,,,,,,,,,,,034,2022-06-01_17h42.31.876,Main,2022.1.1,60.97222660569417,
positive,neutral,1,l,j,,,,,,,,,12,5,221,8,,,,,,,,,main,2,2,1,neutral,positive,l,l,1,0.9648792999796569,568.4734708999749,569.4860070000868,569.4716495000757,None,568.4734708999749,None,568.4734708999749,None,568.4734708999749,None,570.4362034799997,None,570.4362034799997,None,570.4362034799997,None,,,,,,,,,,,,,,034,2022-06-01_17h42.31.876,Main,2022.1.1,60.97222660569417,
neutral,neutral,1,k,k,,,,,,,,,12,6,222,1,,,,,,,,,main,2,2,1,neutral,neutral,k,k,1,0.6806609998457134,570.4424761000555,571.452546400018,571.435898500029,None,570.4424761000555,None,570.4424761000555,None,570.4424761000555,None,572.1192713801283,None,572.1192713801283,None,572.1192713801283,None,,,,,,,,,,,,,,034,2022-06-01_17h42.31.876,Main,2022.1.1,60.97222660569417,
positive,negative,2,l,j,,,,,,,,,12,7,223,14,,,,,,,,,main,1,1,2,negative,positive,l,l,1,0.7814573000650853,572.1245558999944,573.135861299932,573.1192078001332,None,572.1245558999944,None,572.1245558999944,None,572.1245558999944,None,573.9025128800422,None,573.9025128800422,None,573.9025128800422,None,,,,,,,,,,,,,,034,2022-06-01_17h42.31.876,Main,2022.1.1,60.97222660569417,
