target,distractor,set,ans1,ans2,rep_loop2.thisRepN,rep_loop2.thisTrialN,rep_loop2.thisN,rep_loop2.thisIndex,flanker_prac_loop.thisRepN,flanker_prac_loop.thisTrialN,flanker_prac_loop.thisN,flanker_prac_loop.thisIndex,flanker_main_loop.thisRepN,flanker_main_loop.thisTrialN,flanker_main_loop.thisN,flanker_main_loop.thisIndex,fl_inst_resp.keys,fl_inst_resp.rt,sound_1.started,sound_1.stopped,image_4.started,image_4.stopped,back_2.started,back_2.stopped,main_prac,fl_cold,fl_colt,fl_set,fl_dcond,fl_tcond,fl_ans,fl_res,fl_corr,fl_rt,fix_fl.started,fix_fl.stopped,targ.started,targ.stopped,j_button.started,j_button.stopped,k_button.started,k_button.stopped,l_button.started,l_button.stopped,j_button2.started,j_button2.stopped,k_button2.started,k_button2.stopped,l_button2.started,l_button2.stopped,mainback.started,mainback.stopped,key_resp.keys,mouse_6.x,mouse_6.y,mouse_6.leftButton,mouse_6.midButton,mouse_6.rightButton,mouse_6.started,mouse_6.stopped,text_2.started,text_2.stopped,id*,date,expName,psychopyVersion,frameRate,
,,,,,0,0,0,0,,,,,,,,,space,55.43547450006008,22.162048849952406,None,77.62517829984426,None,,,,,,,,,,,,,,,,,,,,,,,,,,,,,,,,,,,,,,,,,035,2022-06-02_10h15.39.112,Main,2022.1.1,61.17206901427552,
neutral,neutral,2,k,k,,,,,0,0,0,10,,,,,,,,,,,80.81082949996926,None,prac,2,2,2,neutral,neutral,k,k,1,2.2144140999298543,82.83388469996862,83.8440169999376,83.82735689985566,None,82.83388469996862,None,82.83388469996862,None,82.83388469996862,None,86.04581649997272,None,86.04581649997272,None,86.04581649997272,None,,,,,,,,,,,,,035,2022-06-02_10h15.39.112,Main,2022.1.1,61.17206901427552,
neutral,positive,1,k,k,,,,,0,1,1,4,,,,,,,,,,,,,prac,2,2,1,positive,neutral,k,k,1,1.2841505000833422,87.05980980000459,88.07465169997886,88.04131989995949,None,87.05980980000459,None,87.05980980000459,None,87.05980980000459,None,89.34129904999864,None,89.34129904999864,None,89.34129904999864,None,,,,,,,,,,,,,035,2022-06-02_10h15.39.112,Main,2022.1.1,61.17206901427552,
positive,neutral,1,l,j,,,,,0,2,2,8,,,,,,,,,,,,,prac,1,1,1,neutral,positive,j,l,0,1.3653092000167817,89.34507089992985,90.3604908999987,90.34389679995365,None,89.34507089992985,None,89.34507089992985,None,89.34507089992985,None,91.71044439985417,None,91.71044439985417,None,91.71044439985417,None,,,,,,,,,,,,,035,2022-06-02_10h15.39.112,Main,2022.1.1,61.17206901427552,
positive,negative,2,l,j,,,,,0,3,3,14,,,,,,,,,,,,,prac,2,2,2,negative,positive,j,j,1,1.0705417001154274,92.70933149987832,93.7104181998875,93.69382459996268,None,92.70933149987832,None,92.70933149987832,None,92.70933149987832,None,94.77492764985655,None,94.77492764985655,None,94.77492764985655,None,,,,,,,,,,,,,035,2022-06-02_10h15.39.112,Main,2022.1.1,61.17206901427552,
neutral,negative,2,k,k,,,,,0,4,4,16,,,,,,,,,,,,,prac,2,2,2,negative,neutral,k,k,1,1.163603900000453,94.78101959987544,95.79368289979175,95.77538039977662,None,94.78101959987544,None,94.78101959987544,None,94.78101959987544,None,96.94145664989483,None,96.94145664989483,None,96.94145664989483,None,,,,,,,,,,,,,035,2022-06-02_10h15.39.112,Main,2022.1.1,61.17206901427552,
negative,neutral,2,j,l,,,,,0,5,5,12,,,,,,,,,,,,,prac,2,2,2,neutral,negative,l,l,1,1.1639491999521852,96.95817589992657,97.95776019990444,97.94109269999899,None,96.95817589992657,None,96.95817589992657,None,96.95817589992657,None,99.1077036498813,None,99.1077036498813,None,99.1077036498813,None,,,,,,,,,,,,,035,2022-06-02_10h15.39.112,Main,2022.1.1,61.17206901427552,
positive,positive,2,l,j,,,,,0,6,6,11,,,,,,,,,,,,,prac,1,1,2,positive,positive,j,j,1,0.9885177998803556,99.10782779986039,100.10777719994076,100.10777719994076,None,99.10782779986039,None,99.10782779986039,None,99.10782779986039,None,101.09371485000011,None,101.09371485000011,None,101.09371485000011,None,,,,,,,,,,,,,035,2022-06-02_10h15.39.112,Main,2022.1.1,61.17206901427552,
negative,negative,1,j,l,,,,,0,7,7,0,,,,,,,,,,,,,prac,2,2,1,negative,negative,l,l,1,0.9248685999773443,101.10248729982413,102.11030779988505,102.09363759984262,None,101.10248729982413,None,101.10248729982413,None,101.10248729982413,None,103.02435464991723,None,103.02435464991723,None,103.02435464991723,None,,,,,,,,,,,,,035,2022-06-02_10h15.39.112,Main,2022.1.1,61.17206901427552,
negative,positive,1,j,l,,,,,0,8,8,6,,,,,,,,,,,,,prac,2,2,1,positive,negative,l,l,1,0.7819059998728335,103.02999609988183,104.04353829985484,104.02695029997267,None,103.02999609988183,None,103.02999609988183,None,103.02999609988183,None,104.80763944981155,None,104.80763944981155,None,104.80763944981155,None,,,,,,,,,,,,,035,2022-06-02_10h15.39.112,Main,2022.1.1,61.17206901427552,
positive,neutral,2,l,j,,,,,0,9,9,17,,,,,,,,,,,,,prac,2,2,2,neutral,positive,j,j,1,0.8487611000891775,104.81399639998563,105.82689299993217,105.79239819990471,None,104.81399639998563,None,104.81399639998563,None,104.81399639998563,None,106.65761574984063,None,106.65761574984063,None,106.65761574984063,None,,,,,,,,,,,,,035,2022-06-02_10h15.39.112,Main,2022.1.1,61.17206901427552,
positive,positive,1,l,j,,,,,0,10,10,2,,,,,,,,,,,,,prac,2,2,1,positive,positive,j,j,1,0.8653599999379367,106.66301709995605,107.6744704998564,107.6575901999604,None,106.66301709995605,None,106.66301709995605,None,106.66301709995605,None,108.52420314981137,None,108.52420314981137,None,108.52420314981137,None,,,,,,,,,,,,,035,2022-06-02_10h15.39.112,Main,2022.1.1,61.17206901427552,
negative,negative,2,j,l,,,,,0,11,11,9,,,,,,,,,,,,,prac,2,2,2,negative,negative,l,l,1,0.8180446999613196,108.52441989979707,109.52457769983448,109.52457769983448,None,108.52441989979707,None,108.52441989979707,None,108.52441989979707,None,110.3434147499269,None,110.3434147499269,None,110.3434147499269,None,,,,,,,,,,,,,035,2022-06-02_10h15.39.112,Main,2022.1.1,61.17206901427552,
neutral,neutral,1,k,k,,,,,0,12,12,1,,,,,,,,,,,,,prac,2,2,1,neutral,neutral,k,k,1,0.7152452000882477,110.34642590000294,111.36002349993214,111.34343599993736,None,110.34642590000294,None,110.34642590000294,None,110.34642590000294,None,112.06001744999085,None,112.06001744999085,None,112.06001744999085,None,,,,,,,,,,,,,035,2022-06-02_10h15.39.112,Main,2022.1.1,61.17206901427552,
positive,negative,1,l,j,,,,,0,13,13,5,,,,,,,,,,,,,prac,2,2,1,negative,positive,j,j,1,0.7127936000470072,112.06401450000703,113.07666039979085,113.06012699985877,None,112.06401450000703,None,112.06401450000703,None,112.06401450000703,None,113.774160649837,None,113.774160649837,None,113.774160649837,None,,,,,,,,,,,,,035,2022-06-02_10h15.39.112,Main,2022.1.1,61.17206901427552,
negative,neutral,1,j,l,,,,,0,14,14,3,,,,,,,,,,,,,prac,1,1,1,neutral,negative,l,l,1,0.8657718000467867,113.78034049994312,114.79331999993883,114.76010019984096,None,113.78034049994312,None,113.78034049994312,None,113.78034049994312,None,115.64106224987191,None,115.64106224987191,None,115.64106224987191,None,,,,,,,,,,,,,035,2022-06-02_10h15.39.112,Main,2022.1.1,61.17206901427552,
negative,positive,2,j,l,,,,,0,15,15,15,,,,,,,,,,,,,prac,1,1,2,positive,negative,l,l,1,0.898617499973625,115.64683449990116,116.6600120998919,116.64342330000363,None,115.64683449990116,None,115.64683449990116,None,115.64683449990116,None,117.54098504988943,None,117.54098504988943,None,117.54098504988943,None,,,,,,,,,,,,,035,2022-06-02_10h15.39.112,Main,2022.1.1,61.17206901427552,
neutral,positive,2,k,k,,,,,0,16,16,13,,,,,,,,,,,,,prac,2,2,2,positive,neutral,k,k,1,0.8318672000896186,117.5443864997942,118.55733569990844,118.54066909989342,None,117.5443864997942,None,117.5443864997942,None,117.5443864997942,None,119.37397384990473,None,119.37397384990473,None,119.37397384990473,None,,,,,,,,,,,,,035,2022-06-02_10h15.39.112,Main,2022.1.1,61.17206901427552,
neutral,negative,1,k,k,,,,,0,17,17,7,,,,,,,,,,,,,prac,1,1,1,negative,neutral,k,k,1,1.198597300099209,119.37398409983143,120.37410849984735,120.37410849984735,None,119.37398409983143,None,119.37398409983143,None,119.37398409983143,None,121.57397564987187,None,121.57397564987187,None,121.57397564987187,None,,,,,,,,,,,,,035,2022-06-02_10h15.39.112,Main,2022.1.1,61.17206901427552,
negative,positive,2,j,l,,,,,1,0,18,15,,,,,,,,,,,,,prac,2,2,2,positive,negative,l,l,1,0.7981513000559062,121.57713179988787,122.57660319982097,122.57660319982097,None,121.57713179988787,None,121.57713179988787,None,121.57713179988787,None,123.37425764997025,None,123.37425764997025,None,123.37425764997025,None,,,,,,,,,,,,,035,2022-06-02_10h15.39.112,Main,2022.1.1,61.17206901427552,
neutral,positive,1,k,k,,,,,1,1,19,4,,,,,,,,,,,,,prac,2,2,1,positive,neutral,k,k,1,0.682040800107643,123.39104109979235,124.39312559994869,124.37652309983969,None,123.39104109979235,None,123.39104109979235,None,123.39104109979235,None,125.0575451499084,None,125.0575451499084,None,125.0575451499084,None,,,,,,,,,,,,,035,2022-06-02_10h15.39.112,Main,2022.1.1,61.17206901427552,
negative,negative,1,j,l,,,,,1,2,20,0,,,,,,,,,,,,,prac,2,2,1,negative,negative,l,l,1,0.7654617000371218,125.0632848998066,126.07640979997814,126.05979289999232,None,125.0632848998066,None,125.0632848998066,None,125.0632848998066,None,126.82418184981216,None,126.82418184981216,None,126.82418184981216,None,,,,,,,,,,,,,035,2022-06-02_10h15.39.112,Main,2022.1.1,61.17206901427552,
positive,positive,2,l,j,,,,,1,3,21,11,,,,,,,,,,,,,prac,2,2,2,positive,positive,j,j,1,0.8153280999977142,126.83012779988348,127.84109619981609,127.82662339997478,None,126.83012779988348,None,126.83012779988348,None,126.83012779988348,None,128.6407805499388,None,128.6407805499388,None,128.6407805499388,None,,,,,,,,,,,,,035,2022-06-02_10h15.39.112,Main,2022.1.1,61.17206901427552,
positive,negative,2,l,j,,,,,1,4,22,14,,,,,,,,,,,,,prac,1,1,2,negative,positive,j,j,1,0.6654288000427186,128.64609509985894,129.65971109992824,129.62646039994434,None,128.64609509985894,None,128.64609509985894,None,128.64609509985894,None,130.30743664989714,None,130.30743664989714,None,130.30743664989714,None,,,,,,,,,,,,,035,2022-06-02_10h15.39.112,Main,2022.1.1,61.17206901427552,
positive,neutral,2,l,j,,,,,1,5,23,17,,,,,,,,,,,,,prac,1,1,2,neutral,positive,j,j,1,0.5845724998507649,130.31366719980724,131.32376399985515,131.30709189991467,None,130.31366719980724,None,130.31366719980724,None,130.31366719980724,None,131.89041924986523,None,131.89041924986523,None,131.89041924986523,None,,,,,,,,,,,,,035,2022-06-02_10h15.39.112,Main,2022.1.1,61.17206901427552,
neutral,negative,1,k,k,,,,,1,6,24,7,,,,,,,,,,,,,prac,1,1,1,negative,neutral,k,k,1,0.7611548998393118,131.8965867999941,132.9070941999089,132.890427300008,None,131.8965867999941,None,131.8965867999941,None,131.8965867999941,None,133.65734484998976,None,133.65734484998976,None,133.65734484998976,None,,,,,,,,,,,,,035,2022-06-02_10h15.39.112,Main,2022.1.1,61.17206901427552,
positive,negative,1,l,j,,,,,1,7,25,5,,,,,,,,,,,,,prac,1,1,1,negative,positive,j,j,1,0.7337835000362247,133.66289459983818,134.674315799959,134.65967999980785,None,133.66289459983818,None,133.66289459983818,None,133.66289459983818,None,135.39065924983007,None,135.39065924983007,None,135.39065924983007,None,,,,,,,,,,,,,035,2022-06-02_10h15.39.112,Main,2022.1.1,61.17206901427552,
negative,negative,2,j,l,,,,,1,8,26,9,,,,,,,,,,,,,prac,2,2,2,negative,negative,l,l,1,0.7815916000399739,135.39686999982223,136.40956549998373,136.3929322999902,None,135.39686999982223,None,135.39686999982223,None,135.39686999982223,None,137.17632394980174,None,137.17632394980174,None,137.17632394980174,None,,,,,,,,,,,,,035,2022-06-02_10h15.39.112,Main,2022.1.1,61.17206901427552,
positive,neutral,1,l,j,,,,,1,9,27,8,,,,,,,,,,,,,prac,2,2,1,neutral,positive,j,j,1,0.7630408999975771,137.18021279992536,138.19286379986443,138.17622139980085,None,137.18021279992536,None,137.18021279992536,None,137.18021279992536,None,138.94058924980928,None,138.94058924980928,None,138.94058924980928,None,,,,,,,,,,,,,035,2022-06-02_10h15.39.112,Main,2022.1.1,61.17206901427552,
positive,positive,1,l,j,,,,,1,10,28,2,,,,,,,,,,,,,prac,2,2,1,positive,positive,j,j,1,0.6154710999689996,138.94606789993122,139.95946419984102,139.9262202999089,None,138.94606789993122,None,138.94606789993122,None,138.94606789993122,None,140.5572163499659,None,140.5572163499659,None,140.5572163499659,None,,,,,,,,,,,,,035,2022-06-02_10h15.39.112,Main,2022.1.1,61.17206901427552,
neutral,positive,2,k,k,,,,,1,11,29,13,,,,,,,,,,,,,prac,2,2,2,positive,neutral,k,k,1,0.7651649999897927,140.56285429978743,141.57385769998655,141.55688269995153,None,140.56285429978743,None,140.56285429978743,None,140.56285429978743,None,142.32349604994525,None,142.32349604994525,None,142.32349604994525,None,,,,,,,,,,,,,035,2022-06-02_10h15.39.112,Main,2022.1.1,61.17206901427552,
negative,neutral,2,j,l,,,,,1,12,30,12,,,,,,,,,,,,,prac,1,1,2,neutral,negative,l,l,1,0.9154206998646259,142.32370579987764,143.32362479995936,143.32362479995936,None,142.32370579987764,None,142.32370579987764,None,142.32370579987764,None,144.24047494980042,None,144.24047494980042,None,144.24047494980042,None,,,,,,,,,,,,,035,2022-06-02_10h15.39.112,Main,2022.1.1,61.17206901427552,
negative,neutral,1,j,l,,,,,1,13,31,3,,,,,,,,,,,,,prac,1,1,1,neutral,negative,l,l,1,0.9155875998549163,144.24580869986676,145.25935479998589,145.2261614999734,None,144.24580869986676,None,144.24580869986676,None,144.24580869986676,None,146.15709334982094,None,146.15709334982094,None,146.15709334982094,None,,,,,,,,,,,,,035,2022-06-02_10h15.39.112,Main,2022.1.1,61.17206901427552,
negative,positive,1,j,l,,,,,1,14,32,6,,,,,,,,,,,,,prac,1,1,1,positive,negative,l,l,1,0.6144852000288665,146.16338909999467,147.17595419986174,147.1594345998019,None,146.16338909999467,None,146.16338909999467,None,146.16338909999467,None,147.77372044997756,None,147.77372044997756,None,147.77372044997756,None,,,,,,,,,,,,,035,2022-06-02_10h15.39.112,Main,2022.1.1,61.17206901427552,
neutral,neutral,2,k,k,,,,,1,15,33,10,,,,,,,,,,,,,prac,2,2,2,neutral,neutral,k,k,1,0.6675811999011785,147.77948889997788,148.79267939995043,148.7760262999218,None,147.77948889997788,None,147.77948889997788,None,147.77948889997788,None,149.44270284983796,None,149.44270284983796,None,149.44270284983796,None,,,,,,,,,,,,,035,2022-06-02_10h15.39.112,Main,2022.1.1,61.17206901427552,
neutral,negative,2,k,k,,,,,1,16,34,16,,,,,,,,,,,,,prac,2,2,2,negative,neutral,k,k,1,0.5797233001794666,149.44657279993407,150.45925989979878,150.44266199995764,None,149.44657279993407,None,149.44657279993407,None,149.44657279993407,None,151.0236476498889,None,151.0236476498889,None,151.0236476498889,None,,,,,,,,,,,,,035,2022-06-02_10h15.39.112,Main,2022.1.1,61.17206901427552,
neutral,neutral,1,k,k,,,,,1,17,35,1,,,,,,,,,,,,,prac,2,2,1,neutral,neutral,k,k,1,0.6991043998859823,151.02923059999011,152.0399889999535,152.02330929995514,None,151.02923059999011,None,151.02923059999011,None,151.02923059999011,None,152.72332284993027,None,152.72332284993027,None,152.72332284993027,None,,,,,,,,,,,,,035,2022-06-02_10h15.39.112,Main,2022.1.1,61.17206901427552,
,,,,,,,,,,,,,,,,,,,,,,,,,,,,,,,,,,,,,,,,,,,,,,,,,,,152.7233205998782,None,None,,,,,,,,,,035,2022-06-02_10h15.39.112,Main,2022.1.1,61.17206901427552,
,,,,,,,,,,,,,,,,,,,,,,,,,,,,,,,,,,,,,,,,,,,,,,,,,,,,,,0.036111113,-0.041666668,1,0,0,0.010346050141379237,None,,,035,2022-06-02_10h15.39.112,Main,2022.1.1,61.17206901427552,
neutral,neutral,2,k,k,,,,,,,,,0,0,0,10,,,,,,,162.34240719978698,None,main,1,1,2,neutral,neutral,k,k,1,0.7435947000049055,164.3611407999415,165.37308449996635,165.35641659982502,None,164.3611407999415,None,164.3611407999415,None,164.3611407999415,None,166.1063616499072,None,166.1063616499072,None,166.1063616499072,None,,,,,,,,,,,,,035,2022-06-02_10h15.39.112,Main,2022.1.1,61.17206901427552,
positive,negative,1,l,j,,,,,,,,,0,1,1,5,,,,,,,,,main,2,2,1,negative,positive,j,j,1,0.7820296999998391,166.10933449980803,167.12305399985053,167.10639659990557,None,166.10933449980803,None,166.10933449980803,None,166.10933449980803,None,167.88967285000254,None,167.88967285000254,None,167.88967285000254,None,,,,,,,,,,,,,035,2022-06-02_10h15.39.112,Main,2022.1.1,61.17206901427552,
negative,neutral,1,j,l,,,,,,,,,0,2,2,3,,,,,,,,,main,2,2,1,neutral,negative,l,l,1,0.7311910998541862,167.8940351998899,168.90887269983068,168.89226099988446,None,167.8940351998899,None,167.8940351998899,None,167.8940351998899,None,169.62329644986895,None,169.62329644986895,None,169.62329644986895,None,,,,,,,,,,,,,035,2022-06-02_10h15.39.112,Main,2022.1.1,61.17206901427552,
negative,neutral,2,j,l,,,,,,,,,0,3,3,12,,,,,,,,,main,2,2,2,neutral,negative,l,l,1,0.7314299999270588,169.62931539979763,170.64215799979866,170.62555779982358,None,169.62931539979763,None,169.62931539979763,None,169.62931539979763,None,171.35658034982626,None,171.35658034982626,None,171.35658034982626,None,,,,,,,,,,,,,035,2022-06-02_10h15.39.112,Main,2022.1.1,61.17206901427552,
neutral,positive,1,k,k,,,,,,,,,0,4,4,4,,,,,,,,,main,2,2,1,positive,neutral,k,k,1,0.6151741000358015,171.36226909980178,172.3754467999097,172.35884259990416,None,171.36226909980178,None,171.36226909980178,None,171.36226909980178,None,172.97320884999354,None,172.97320884999354,None,172.97320884999354,None,,,,,,,,,,,,,035,2022-06-02_10h15.39.112,Main,2022.1.1,61.17206901427552,
positive,neutral,1,l,j,,,,,,,,,0,5,5,8,,,,,,,,,main,1,1,1,neutral,positive,j,j,1,0.7649697000160813,172.97880079993047,173.99211209989153,173.97554819984362,None,172.97880079993047,None,172.97880079993047,None,172.97880079993047,None,174.73985444984865,None,174.73985444984865,None,174.73985444984865,None,,,,,,,,,,,,,035,2022-06-02_10h15.39.112,Main,2022.1.1,61.17206901427552,
positive,neutral,2,l,j,,,,,,,,,0,6,6,17,,,,,,,,,main,1,1,2,neutral,positive,j,j,1,0.614839999936521,174.74549529980868,175.75617720000446,175.7397225999739,None,174.74549529980868,None,174.74549529980868,None,174.74549529980868,None,176.3561380498344,None,176.3561380498344,None,176.3561380498344,None,,,,,,,,,,,,,035,2022-06-02_10h15.39.112,Main,2022.1.1,61.17206901427552,
neutral,positive,2,k,k,,,,,,,,,0,7,7,13,,,,,,,,,main,2,2,2,positive,neutral,k,k,1,0.7985340999439359,176.3561928998679,177.35613809991628,177.35613809991628,None,176.3561928998679,None,176.3561928998679,None,176.3561928998679,None,178.15609874993098,None,178.15609874993098,None,178.15609874993098,None,,,,,,,,,,,,,035,2022-06-02_10h15.39.112,Main,2022.1.1,61.17206901427552,
positive,negative,2,l,j,,,,,,,,,0,8,8,14,,,,,,,,,main,1,1,2,negative,positive,j,j,1,0.8150750999338925,178.1585841998458,179.17327299993485,179.156159899896,None,178.1585841998458,None,178.1585841998458,None,178.1585841998458,None,179.9727584498236,None,179.9727584498236,None,179.9727584498236,None,,,,,,,,,,,,,035,2022-06-02_10h15.39.112,Main,2022.1.1,61.17206901427552,
positive,positive,2,l,j,,,,,,,,,0,9,9,11,,,,,,,,,main,2,2,2,positive,positive,j,j,1,0.6478309999220073,179.97939869994298,180.99196749995463,180.97538239997812,None,179.97939869994298,None,179.97939869994298,None,179.97939869994298,None,181.62304624982644,None,181.62304624982644,None,181.62304624982644,None,,,,,,,,,,,,,035,2022-06-02_10h15.39.112,Main,2022.1.1,61.17206901427552,
negative,negative,2,j,l,,,,,,,,,0,10,10,9,,,,,,,,,main,1,1,2,negative,negative,l,l,1,0.7652028000447899,181.62632339983247,182.6419495998416,182.62531109992415,None,181.62632339983247,None,181.62632339983247,None,181.62632339983247,None,183.3896620499203,None,183.3896620499203,None,183.3896620499203,None,,,,,,,,,,,,,035,2022-06-02_10h15.39.112,Main,2022.1.1,61.17206901427552,
neutral,neutral,1,k,k,,,,,,,,,0,11,11,1,,,,,,,,,main,1,1,1,neutral,neutral,k,k,1,0.7146624000743032,183.39553729980253,184.4085507998243,184.39201109996065,None,183.39553729980253,None,183.39553729980253,None,183.39553729980253,None,185.10599664992188,None,185.10599664992188,None,185.10599664992188,None,,,,,,,,,,,,,035,2022-06-02_10h15.39.112,Main,2022.1.1,61.17206901427552,
negative,negative,1,j,l,,,,,,,,,0,12,12,0,,,,,,,,,main,2,2,1,negative,negative,l,l,1,0.7490545001346618,185.1116123998072,186.1251538998913,186.10863489983603,None,185.1116123998072,None,185.1116123998072,None,185.1116123998072,None,186.85636104990263,None,186.85636104990263,None,186.85636104990263,None,,,,,,,,,,,,,035,2022-06-02_10h15.39.112,Main,2022.1.1,61.17206901427552,
negative,positive,2,j,l,,,,,,,,,0,13,13,15,,,,,,,,,main,2,2,2,positive,negative,l,l,1,0.681427099974826,186.86250029993244,187.87256339984015,187.85590239986777,None,186.86250029993244,None,186.86250029993244,None,186.86250029993244,None,188.5392110498855,None,188.5392110498855,None,188.5392110498855,None,,,,,,,,,,,,,035,2022-06-02_10h15.39.112,Main,2022.1.1,61.17206901427552,
positive,positive,1,l,j,,,,,,,,,0,14,14,2,,,,,,,,,main,2,2,1,positive,positive,j,j,1,0.7148500999901444,188.5393695998937,189.53924269997515,189.53924269997515,None,188.5393695998937,None,188.5393695998937,None,188.5393695998937,None,190.25585824993905,None,190.25585824993905,None,190.25585824993905,None,,,,,,,,,,,,,035,2022-06-02_10h15.39.112,Main,2022.1.1,61.17206901427552,
neutral,negative,1,k,k,,,,,,,,,0,15,15,7,,,,,,,,,main,1,1,1,negative,neutral,k,k,1,0.6692337000276893,190.25620379997417,191.25590789993294,191.25590789993294,None,190.25620379997417,None,190.25620379997417,None,190.25620379997417,None,191.9225094499765,None,191.9225094499765,None,191.9225094499765,None,,,,,,,,,,,,,035,2022-06-02_10h15.39.112,Main,2022.1.1,61.17206901427552,
neutral,negative,2,k,k,,,,,,,,,0,16,16,16,,,,,,,,,main,2,2,2,negative,neutral,k,k,1,0.6939364999998361,191.93035309994593,192.94173829979263,192.92510190000758,None,191.93035309994593,None,191.93035309994593,None,191.93035309994593,None,193.62278604994063,None,193.62278604994063,None,193.62278604994063,None,,,,,,,,,,,,,035,2022-06-02_10h15.39.112,Main,2022.1.1,61.17206901427552,
negative,positive,1,j,l,,,,,,,,,0,17,17,6,,,,,,,,,main,2,2,1,positive,negative,l,l,1,0.765267499955371,193.62866049981676,194.64167689997703,194.62513219984248,None,193.62866049981676,None,193.62866049981676,None,193.62866049981676,None,195.38940394993406,None,195.38940394993406,None,195.38940394993406,None,,,,,,,,,,,,,035,2022-06-02_10h15.39.112,Main,2022.1.1,61.17206901427552,
positive,positive,2,l,j,,,,,,,,,1,0,18,11,,,,,,,,,main,2,2,2,positive,positive,j,j,1,0.731661600060761,195.3954273997806,196.40826359996572,196.39174349978566,None,195.3954273997806,None,195.3954273997806,None,195.3954273997806,None,197.12269444994163,None,197.12269444994163,None,197.12269444994163,None,,,,,,,,,,,,,035,2022-06-02_10h15.39.112,Main,2022.1.1,61.17206901427552,
positive,negative,1,l,j,,,,,,,,,1,1,19,5,,,,,,,,,main,2,2,1,negative,positive,j,j,1,0.6150645997840911,197.1286145998165,198.1415669999551,198.1249639999587,None,197.1286145998165,None,197.1286145998165,None,197.1286145998165,None,198.73935384999496,None,198.73935384999496,None,198.73935384999496,None,,,,,,,,,,,,,035,2022-06-02_10h15.39.112,Main,2022.1.1,61.17206901427552,
positive,neutral,2,l,j,,,,,,,,,1,2,20,17,,,,,,,,,main,1,1,2,neutral,positive,j,j,1,0.714733799919486,198.74560949997976,199.75584909995086,199.73864559992217,None,198.74560949997976,None,198.74560949997976,None,198.74560949997976,None,200.45562624998857,None,200.45562624998857,None,200.45562624998857,None,,,,,,,,,,,,,035,2022-06-02_10h15.39.112,Main,2022.1.1,61.17206901427552,
positive,negative,2,l,j,,,,,,,,,1,3,21,14,,,,,,,,,main,1,1,2,negative,positive,j,j,1,0.6483000998850912,200.45753019978292,201.5116376997903,201.50480619980954,None,200.45753019978292,None,200.45753019978292,None,200.45753019978292,None,202.1056053498527,None,202.1056053498527,None,202.1056053498527,None,,,,,,,,,,,,,035,2022-06-02_10h15.39.112,Main,2022.1.1,61.17206901427552,
negative,negative,2,j,l,,,,,,,,,1,4,22,9,,,,,,,,,main,2,2,2,negative,negative,l,l,1,0.7985655998345464,202.1059685999062,203.10560849984176,203.10560849984176,None,202.1059685999062,None,202.1059685999062,None,202.1059685999062,None,203.90559654983227,None,203.90559654983227,None,203.90559654983227,None,,,,,,,,,,,,,035,2022-06-02_10h15.39.112,Main,2022.1.1,61.17206901427552,
neutral,positive,2,k,k,,,,,,,,,1,5,23,13,,,,,,,,,main,1,1,2,positive,neutral,k,k,1,0.6679537000600249,203.9110037998762,204.92481629992835,204.90821019979194,None,203.9110037998762,None,203.9110037998762,None,203.9110037998762,None,205.5749328499427,None,205.5749328499427,None,205.5749328499427,None,,,,,,,,,,,,,035,2022-06-02_10h15.39.112,Main,2022.1.1,61.17206901427552,
positive,neutral,1,l,j,,,,,,,,,1,6,24,8,,,,,,,,,main,2,2,1,neutral,positive,j,j,1,0.680437299888581,205.57871439983137,206.58948599989526,206.5751281999983,None,205.57871439983137,None,205.57871439983137,None,205.57871439983137,None,207.25583654989023,None,207.25583654989023,None,207.25583654989023,None,,,,,,,,,,,,,035,2022-06-02_10h15.39.112,Main,2022.1.1,61.17206901427552,
neutral,positive,1,k,k,,,,,,,,,1,7,25,4,,,,,,,,,main,2,2,1,positive,neutral,k,k,1,0.7140424998942763,207.26247679977678,208.27233730000444,208.25811689998955,None,207.26247679977678,None,207.26247679977678,None,207.26247679977678,None,208.97245644985233,None,208.97245644985233,None,208.97245644985233,None,,,,,,,,,,,,,035,2022-06-02_10h15.39.112,Main,2022.1.1,61.17206901427552,
negative,neutral,2,j,l,,,,,,,,,1,8,26,12,,,,,,,,,main,2,2,2,neutral,negative,l,l,1,0.8316932001616806,208.97838579979725,209.99132829997689,209.97480789991096,None,208.97838579979725,None,208.97838579979725,None,208.97838579979725,None,210.80573424997274,None,210.80573424997274,None,210.80573424997274,None,,,,,,,,,,,,,035,2022-06-02_10h15.39.112,Main,2022.1.1,61.17206901427552,
neutral,negative,2,k,k,,,,,,,,,1,9,27,16,,,,,,,,,main,1,1,2,negative,neutral,k,k,1,0.6480821999721229,210.81158909993246,211.82109049987048,211.80508369999006,None,210.81158909993246,None,210.81158909993246,None,210.81158909993246,None,212.455587849929,None,212.455587849929,None,212.455587849929,None,,,,,,,,,,,,,035,2022-06-02_10h15.39.112,Main,2022.1.1,61.17206901427552,
neutral,neutral,1,k,k,,,,,,,,,1,10,28,1,,,,,,,,,main,2,2,1,neutral,neutral,k,k,1,0.6326613000128418,212.45564129995182,213.45536549994722,213.45536549994722,None,212.45564129995182,None,212.45564129995182,None,212.45564129995182,None,214.08868154997472,None,214.08868154997472,None,214.08868154997472,None,,,,,,,,,,,,,035,2022-06-02_10h15.39.112,Main,2022.1.1,61.17206901427552,
negative,positive,2,j,l,,,,,,,,,1,11,29,15,,,,,,,,,main,1,1,2,positive,negative,l,l,1,0.8307304999325424,214.1054427998606,215.10536459996365,215.08868709998205,None,214.1054427998606,None,214.1054427998606,None,214.1054427998606,None,215.9220028498443,None,215.9220028498443,None,215.9220028498443,None,,,,,,,,,,,,,035,2022-06-02_10h15.39.112,Main,2022.1.1,61.17206901427552,
negative,neutral,1,j,l,,,,,,,,,1,12,30,3,,,,,,,,,main,1,1,1,neutral,negative,l,l,1,0.6818707999773324,215.92786869988777,216.93881769990548,216.92462559998967,None,215.92786869988777,None,215.92786869988777,None,215.92786869988777,None,217.60569124992472,None,217.60569124992472,None,217.60569124992472,None,,,,,,,,,,,,,035,2022-06-02_10h15.39.112,Main,2022.1.1,61.17206901427552,
neutral,negative,1,k,k,,,,,,,,,1,13,31,7,,,,,,,,,main,2,2,1,negative,neutral,k,k,1,0.7173466999083757,217.6169157999102,218.62456959998235,218.60794319980778,None,217.6169157999102,None,217.6169157999102,None,217.6169157999102,None,219.3245204498293,None,219.3245204498293,None,219.3245204498293,None,,,,,,,,,,,,,035,2022-06-02_10h15.39.112,Main,2022.1.1,61.17206901427552,
neutral,neutral,2,k,k,,,,,,,,,1,14,32,10,,,,,,,,,main,2,2,2,neutral,neutral,k,k,1,0.5960085999686271,219.32847730000503,220.34119779989123,220.32449719985016,None,219.32847730000503,None,219.32847730000503,None,219.32847730000503,None,220.9221974499291,None,220.9221974499291,None,220.9221974499291,None,,,,,,,,,,,,,035,2022-06-02_10h15.39.112,Main,2022.1.1,61.17206901427552,
negative,positive,1,j,l,,,,,,,,,1,15,33,6,,,,,,,,,main,2,2,1,positive,negative,l,l,1,0.6817739999387413,220.92806979990564,221.94111779984087,221.92453399999067,None,220.92806979990564,None,220.92806979990564,None,220.92806979990564,None,222.60552094990854,None,222.60552094990854,None,222.60552094990854,None,,,,,,,,,,,,,035,2022-06-02_10h15.39.112,Main,2022.1.1,61.17206901427552,
negative,negative,1,j,l,,,,,,,,,1,16,34,0,,,,,,,,,main,2,2,1,negative,negative,l,l,1,0.6651496000122279,222.61125349998474,223.6224449998699,223.6077990999911,None,222.61125349998474,None,222.61125349998474,None,222.61125349998474,None,224.27213574990165,None,224.27213574990165,None,224.27213574990165,None,,,,,,,,,,,,,035,2022-06-02_10h15.39.112,Main,2022.1.1,61.17206901427552,
positive,positive,1,l,j,,,,,,,,,1,17,35,2,,,,,,,,,main,1,1,1,positive,positive,j,j,1,0.7644871999509633,224.27803569985554,225.28845559991896,225.27178029995412,None,224.27803569985554,None,224.27803569985554,None,224.27803569985554,None,226.03840454991442,None,226.03840454991442,None,226.03840454991442,None,,,,,,,,,,,,,035,2022-06-02_10h15.39.112,Main,2022.1.1,61.17206901427552,
positive,negative,1,l,j,,,,,,,,,2,0,36,5,,,,,,,,,main,2,2,1,negative,positive,j,j,1,1.348950400017202,226.03845449979417,227.0384771998506,227.0384771998506,None,226.03845449979417,None,226.03845449979417,None,226.03845449979417,None,228.388744349801,None,228.388744349801,None,228.388744349801,None,,,,,,,,,,,,,035,2022-06-02_10h15.39.112,Main,2022.1.1,61.17206901427552,
negative,negative,2,j,l,,,,,,,,,2,1,37,9,,,,,,,,,main,2,2,2,negative,negative,l,l,1,0.7833096000831574,228.39502729987726,229.40763629996218,229.39098059991375,None,228.39502729987726,None,228.39502729987726,None,228.39502729987726,None,230.17213274978567,None,230.17213274978567,None,230.17213274978567,None,,,,,,,,,,,,,035,2022-06-02_10h15.39.112,Main,2022.1.1,61.17206901427552,
positive,positive,2,l,j,,,,,,,,,2,2,38,11,,,,,,,,,main,2,2,2,positive,positive,j,j,1,0.7826636999379843,230.17823769990355,231.19087159982882,231.17428609984927,None,230.17823769990355,None,230.17823769990355,None,230.17823769990355,None,231.95770524998662,None,231.95770524998662,None,231.95770524998662,None,,,,,,,,,,,,,035,2022-06-02_10h15.39.112,Main,2022.1.1,61.17206901427552,
neutral,positive,2,k,k,,,,,,,,,2,3,39,13,,,,,,,,,main,1,1,2,positive,neutral,k,k,1,0.6982030998915434,231.96164139988832,232.9741873999592,232.95762409991585,None,231.96164139988832,None,231.96164139988832,None,231.96164139988832,None,233.65752384995577,None,233.65752384995577,None,233.65752384995577,None,,,,,,,,,,,,,035,2022-06-02_10h15.39.112,Main,2022.1.1,61.17206901427552,
neutral,neutral,2,k,k,,,,,,,,,2,4,40,10,,,,,,,,,main,2,2,2,neutral,neutral,k,k,1,0.5957954998593777,233.66052549984306,234.67176129994914,234.6575367997866,None,233.66052549984306,None,233.66052549984306,None,233.66052549984306,None,235.25486894997303,None,235.25486894997303,None,235.25486894997303,None,,,,,,,,,,,,,035,2022-06-02_10h15.39.112,Main,2022.1.1,61.17206901427552,
negative,neutral,1,j,l,,,,,,,,,2,5,41,3,,,,,,,,,main,2,2,1,neutral,negative,l,l,1,0.7151589998975396,235.2549172998406,236.25490139983594,236.25490139983594,None,235.2549172998406,None,235.2549172998406,None,235.2549172998406,None,236.97156064978336,None,236.97156064978336,None,236.97156064978336,None,,,,,,,,,,,,,035,2022-06-02_10h15.39.112,Main,2022.1.1,61.17206901427552,
positive,positive,1,l,j,,,,,,,,,2,6,42,2,,,,,,,,,main,2,2,1,positive,positive,j,j,1,0.7319461000151932,236.97727879998274,237.99074549996294,237.97413539979607,None,236.97727879998274,None,236.97727879998274,None,236.97727879998274,None,238.705163049954,None,238.705163049954,None,238.705163049954,None,,,,,,,,,,,,,035,2022-06-02_10h15.39.112,Main,2022.1.1,61.17206901427552,
neutral,neutral,1,k,k,,,,,,,,,2,7,43,1,,,,,,,,,main,1,1,1,neutral,neutral,k,k,1,1.3651835001073778,238.71069769980386,239.7241195999086,239.7074658998754,None,238.71069769980386,None,238.71069769980386,None,238.71069769980386,None,241.07192955000792,None,241.07192955000792,None,241.07192955000792,None,,,,,,,,,,,,,035,2022-06-02_10h15.39.112,Main,2022.1.1,61.17206901427552,
neutral,negative,1,k,k,,,,,,,,,2,8,44,7,,,,,,,,,main,2,2,1,negative,neutral,k,k,1,0.8484390999656171,241.07737679989077,242.09071679995395,242.07411799998954,None,241.07737679989077,None,241.07737679989077,None,241.07737679989077,None,242.9217376499204,None,242.9217376499204,None,242.9217376499204,None,,,,,,,,,,,,,035,2022-06-02_10h15.39.112,Main,2022.1.1,61.17206901427552,
positive,neutral,2,l,j,,,,,,,,,2,9,45,17,,,,,,,,,main,1,1,2,neutral,positive,j,j,1,0.6983691998757422,242.92740149982274,243.93822859995998,243.924007399939,None,242.92740149982274,None,242.92740149982274,None,242.92740149982274,None,244.62178754990455,None,244.62178754990455,None,244.62178754990455,None,,,,,,,,,,,,,035,2022-06-02_10h15.39.112,Main,2022.1.1,61.17206901427552,
neutral,negative,2,k,k,,,,,,,,,2,10,46,16,,,,,,,,,main,1,1,2,negative,neutral,k,k,1,0.7812093000393361,244.62728909985162,245.63757459982298,245.61539299995638,None,244.62728909985162,None,244.62728909985162,None,244.62728909985162,None,246.4046332498314,None,246.4046332498314,None,246.4046332498314,None,,,,,,,,,,,,,035,2022-06-02_10h15.39.112,Main,2022.1.1,61.17206901427552,
positive,neutral,1,l,j,,,,,,,,,2,11,47,8,,,,,,,,,main,2,2,1,neutral,positive,j,j,1,0.6819104999303818,246.40467929979786,247.40464989980683,247.40464989980683,None,246.40467929979786,None,246.40467929979786,None,246.40467929979786,None,248.08798854982015,None,248.08798854982015,None,248.08798854982015,None,,,,,,,,,,,,,035,2022-06-02_10h15.39.112,Main,2022.1.1,61.17206901427552,
negative,neutral,2,j,l,,,,,,,,,2,12,48,12,,,,,,,,,main,1,1,2,neutral,negative,l,l,1,0.7489710999652743,248.09315679990686,249.10720420000143,249.07393459999003,None,248.09315679990686,None,248.09315679990686,None,248.09315679990686,None,249.83826634983998,None,249.83826634983998,None,249.83826634983998,None,,,,,,,,,,,,,035,2022-06-02_10h15.39.112,Main,2022.1.1,61.17206901427552,
neutral,positive,1,k,k,,,,,,,,,2,13,49,4,,,,,,,,,main,1,1,1,positive,neutral,k,k,1,0.6650336000602692,249.8441488998942,250.85717099998146,250.84053419996053,None,249.8441488998942,None,249.8441488998942,None,249.8441488998942,None,251.50490435000975,None,251.50490435000975,None,251.50490435000975,None,,,,,,,,,,,,,035,2022-06-02_10h15.39.112,Main,2022.1.1,61.17206901427552,
negative,positive,1,j,l,,,,,,,,,2,14,50,6,,,,,,,,,main,2,2,1,positive,negative,l,l,1,0.7175025001633912,251.521614999976,252.52382619981654,252.50719769997522,None,251.521614999976,None,251.521614999976,None,251.521614999976,None,253.22401374995243,None,253.22401374995243,None,253.22401374995243,None,,,,,,,,,,,,,035,2022-06-02_10h15.39.112,Main,2022.1.1,61.17206901427552,
negative,negative,1,j,l,,,,,,,,,2,15,51,0,,,,,,,,,main,2,2,1,negative,negative,l,l,1,0.7167265999596566,253.22784479986876,254.24038869980723,254.22379789990373,None,253.22784479986876,None,253.22784479986876,None,253.22784479986876,None,254.93826484980528,None,254.93826484980528,None,254.93826484980528,None,,,,,,,,,,,,,035,2022-06-02_10h15.39.112,Main,2022.1.1,61.17206901427552,
negative,positive,2,j,l,,,,,,,,,2,16,52,15,,,,,,,,,main,1,1,2,positive,negative,l,l,1,0.7111188000999391,254.952292899834,255.9541859999299,255.93683879985474,None,254.952292899834,None,254.952292899834,None,254.952292899834,None,256.6547281499719,None,256.6547281499719,None,256.6547281499719,None,,,,,,,,,,,,,035,2022-06-02_10h15.39.112,Main,2022.1.1,61.17206901427552,
positive,negative,2,l,j,,,,,,,,,2,17,53,14,,,,,,,,,main,2,2,2,negative,positive,j,j,1,0.7634437000378966,256.6569493999705,257.6711202999577,257.6544481997844,None,256.6569493999705,None,256.6569493999705,None,256.6569493999705,None,258.42113805001134,None,258.42113805001134,None,258.42113805001134,None,,,,,,,,,,,,,035,2022-06-02_10h15.39.112,Main,2022.1.1,61.17206901427552,
positive,neutral,1,l,j,,,,,,,,,3,0,54,8,,,,,,,,,main,1,1,1,neutral,positive,j,j,1,0.631967400200665,258.4267219998874,259.43843509978615,259.4237095999997,None,258.4267219998874,None,258.4267219998874,None,258.4267219998874,None,260.0547181498026,None,260.0547181498026,None,260.0547181498026,None,,,,,,,,,,,,,035,2022-06-02_10h15.39.112,Main,2022.1.1,61.17206901427552,
positive,neutral,2,l,j,,,,,,,,,3,1,55,17,,,,,,,,,main,2,2,2,neutral,positive,j,j,1,0.731908000074327,260.06040079984814,261.07359719998203,261.0569864998106,None,260.06040079984814,None,260.06040079984814,None,260.06040079984814,None,261.78802824995944,None,261.78802824995944,None,261.78802824995944,None,,,,,,,,,,,,,035,2022-06-02_10h15.39.112,Main,2022.1.1,61.17206901427552,
neutral,neutral,2,k,k,,,,,,,,,3,2,56,10,,,,,,,,,main,1,1,2,neutral,neutral,k,k,1,0.7661558999679983,261.79420349979773,262.806932099862,262.79032409982756,None,261.79420349979773,None,261.79420349979773,None,261.79420349979773,None,263.55476154990026,None,263.55476154990026,None,263.55476154990026,None,,,,,,,,,,,,,035,2022-06-02_10h15.39.112,Main,2022.1.1,61.17206901427552,
positive,positive,2,l,j,,,,,,,,,3,3,57,11,,,,,,,,,main,2,2,2,positive,positive,j,j,1,0.6972077998798341,263.56148299993947,264.5735537998844,264.5569605999626,None,263.56148299993947,None,263.56148299993947,None,263.56148299993947,None,265.25458544979335,None,265.25458544979335,None,265.25458544979335,None,,,,,,,,,,,,,035,2022-06-02_10h15.39.112,Main,2022.1.1,61.17206901427552,
neutral,positive,2,k,k,,,,,,,,,3,4,58,13,,,,,,,,,main,1,1,2,positive,neutral,k,k,1,0.6231930998619646,265.26078379992396,266.27343519986607,266.2568804998882,None,265.26078379992396,None,265.26078379992396,None,265.26078379992396,None,266.8792523499345,None,266.8792523499345,None,266.8792523499345,None,,,,,,,,,,,,,035,2022-06-02_10h15.39.112,Main,2022.1.1,61.17206901427552,
negative,positive,1,j,l,,,,,,,,,3,5,59,6,,,,,,,,,main,1,1,1,positive,negative,l,l,1,0.7904278999194503,266.8944276999682,267.9044597998727,267.8711275998503,None,266.8944276999682,None,266.8944276999682,None,266.8944276999682,None,268.67110014983916,None,268.67110014983916,None,268.67110014983916,None,,,,,,,,,,,,,035,2022-06-02_10h15.39.112,Main,2022.1.1,61.17206901427552,
neutral,neutral,1,k,k,,,,,,,,,3,6,60,1,,,,,,,,,main,1,1,1,neutral,neutral,k,k,1,0.6650797000620514,268.6761940999422,269.6877645999193,269.67109999991953,None,268.6761940999422,None,268.6761940999422,None,268.6761940999422,None,270.33772774992974,None,270.33772774992974,None,270.33772774992974,None,,,,,,,,,,,,,035,2022-06-02_10h15.39.112,Main,2022.1.1,61.17206901427552,
negative,neutral,1,j,l,,,,,,,,,3,7,61,3,,,,,,,,,main,1,1,1,neutral,negative,l,l,1,0.7150437999516726,270.3428818997927,271.356589499861,271.3377647998277,None,270.3428818997927,None,270.3428818997927,None,270.3428818997927,None,272.0543757499894,None,272.0543757499894,None,272.0543757499894,None,,,,,,,,,,,,,035,2022-06-02_10h15.39.112,Main,2022.1.1,61.17206901427552,
positive,negative,2,l,j,,,,,,,,,3,8,62,14,,,,,,,,,main,2,2,2,negative,positive,j,j,1,0.7893777000717819,272.0595243999269,273.0732875999529,273.05438230000436,None,272.0595243999269,None,272.0595243999269,None,272.0595243999269,None,273.84221745000684,None,273.84221745000684,None,273.84221745000684,None,,,,,,,,,,,,,035,2022-06-02_10h15.39.112,Main,2022.1.1,61.17206901427552,
positive,positive,1,l,j,,,,,,,,,3,9,63,2,,,,,,,,,main,2,2,1,positive,positive,j,j,1,0.574462299933657,273.84818989993073,274.8543786997907,274.83770989999175,None,273.84818989993073,None,273.84818989993073,None,273.84818989993073,None,275.4210876498604,None,275.4210876498604,None,275.4210876498604,None,,,,,,,,,,,,,035,2022-06-02_10h15.39.112,Main,2022.1.1,61.17206901427552,
negative,negative,2,j,l,,,,,,,,,3,10,64,9,,,,,,,,,main,2,2,2,negative,negative,l,l,1,0.7665348998270929,275.4271356998943,276.43797849980183,276.42125239991583,None,275.4271356998943,None,275.4271356998943,None,275.4271356998943,None,277.1876515499083,None,277.1876515499083,None,277.1876515499083,None,,,,,,,,,,,,,035,2022-06-02_10h15.39.112,Main,2022.1.1,61.17206901427552,
neutral,negative,1,k,k,,,,,,,,,3,11,65,7,,,,,,,,,main,2,2,1,negative,neutral,k,k,1,0.68048350000754,277.1938366999384,278.2065142998472,278.1876650999766,None,277.1938366999384,None,277.1938366999384,None,277.1938366999384,None,278.8710712499218,None,278.8710712499218,None,278.8710712499218,None,,,,,,,,,,,,,035,2022-06-02_10h15.39.112,Main,2022.1.1,61.17206901427552,
negative,positive,2,j,l,,,,,,,,,3,12,66,15,,,,,,,,,main,1,1,2,positive,negative,l,l,1,0.7310587000101805,278.87738379999064,279.8873083998915,279.87062820000574,None,278.87738379999064,None,278.87738379999064,None,278.87738379999064,None,280.6039433500031,None,280.6039433500031,None,280.6039433500031,None,,,,,,,,,,,,,035,2022-06-02_10h15.39.112,Main,2022.1.1,61.17206901427552,
neutral,negative,2,k,k,,,,,,,,,3,13,67,16,,,,,,,,,main,2,2,2,negative,neutral,k,k,1,0.6151364999823272,280.62065869988874,281.6206599997822,281.60399459977634,None,280.62065869988874,None,280.62065869988874,None,280.62065869988874,None,282.22061294990124,None,282.22061294990124,None,282.22061294990124,None,,,,,,,,,,,,,035,2022-06-02_10h15.39.112,Main,2022.1.1,61.17206901427552,
negative,negative,1,j,l,,,,,,,,,3,14,68,0,,,,,,,,,main,1,1,1,negative,negative,l,l,1,0.6896032001823187,282.2259163998533,283.2398513997905,283.22323249978945,None,282.2259163998533,None,282.2259163998533,None,282.2259163998533,None,283.9088697498431,None,283.9088697498431,None,283.9088697498431,None,,,,,,,,,,,,,035,2022-06-02_10h15.39.112,Main,2022.1.1,61.17206901427552,
positive,negative,1,l,j,,,,,,,,,3,15,69,5,,,,,,,,,main,2,2,1,negative,positive,j,j,1,0.7576345999259502,283.9148432998918,284.9231551999692,284.9064879999496,None,283.9148432998918,None,283.9148432998918,None,283.9148432998918,None,285.6708426498575,None,285.6708426498575,None,285.6708426498575,None,,,,,,,,,,,,,035,2022-06-02_10h15.39.112,Main,2022.1.1,61.17206901427552,
negative,neutral,2,j,l,,,,,,,,,3,16,70,12,,,,,,,,,main,2,2,2,neutral,negative,l,l,1,0.7151096002198756,285.6768613997847,286.6898230998777,286.6731473999098,None,285.6768613997847,None,285.6768613997847,None,285.6768613997847,None,287.3874527499778,None,287.3874527499778,None,287.3874527499778,None,,,,,,,,,,,,,035,2022-06-02_10h15.39.112,Main,2022.1.1,61.17206901427552,
neutral,positive,1,k,k,,,,,,,,,3,17,71,4,,,,,,,,,main,1,1,1,positive,neutral,k,k,1,0.6482406998984516,287.39324989984743,288.4063899999019,288.3897896998096,None,287.39324989984743,None,287.39324989984743,None,287.39324989984743,None,289.0374052498722,None,289.0374052498722,None,289.0374052498722,None,,,,,,,,,,,,,035,2022-06-02_10h15.39.112,Main,2022.1.1,61.17206901427552,
positive,neutral,1,l,j,,,,,,,,,4,0,72,8,,,,,,,,,main,1,1,1,neutral,positive,j,j,1,0.6971829999238253,289.0541497999802,290.05635089986026,290.0396657998208,None,289.0541497999802,None,289.0541497999802,None,289.0541497999802,None,290.73704024984033,None,290.73704024984033,None,290.73704024984033,None,,,,,,,,,,,,,035,2022-06-02_10h15.39.112,Main,2022.1.1,61.17206901427552,
positive,negative,1,l,j,,,,,,,,,4,1,73,5,,,,,,,,,main,2,2,1,negative,positive,j,j,1,0.6652896997984499,290.7537552998401,291.753749899799,291.7370612998493,None,290.7537552998401,None,290.7537552998401,None,290.7537552998401,None,292.40372514978515,None,292.40372514978515,None,292.40372514978515,None,,,,,,,,,,,,,035,2022-06-02_10h15.39.112,Main,2022.1.1,61.17206901427552,
positive,positive,2,l,j,,,,,,,,,4,2,74,11,,,,,,,,,main,1,1,2,positive,positive,j,j,1,0.865060499869287,292.4040335000027,293.40374509990215,293.40374509990215,None,292.4040335000027,None,292.4040335000027,None,292.4040335000027,None,294.27037294998297,None,294.27037294998297,None,294.27037294998297,None,,,,,,,,,,,,,035,2022-06-02_10h15.39.112,Main,2022.1.1,61.17206901427552,
neutral,neutral,2,k,k,,,,,,,,,4,3,75,10,,,,,,,,,main,1,1,2,neutral,neutral,k,k,1,0.7022267999127507,294.2756142998114,295.2896251999773,295.25631609978154,None,294.2756142998114,None,294.2756142998114,None,294.2756142998114,None,295.9728813499445,None,295.9728813499445,None,295.9728813499445,None,,,,,,,,,,,,,035,2022-06-02_10h15.39.112,Main,2022.1.1,61.17206901427552,
neutral,positive,2,k,k,,,,,,,,,4,4,76,13,,,,,,,,,main,2,2,2,positive,neutral,k,k,1,0.6785117001272738,295.9770185998641,296.9894849997945,296.9729283999186,None,295.9770185998641,None,295.9770185998641,None,295.9770185998641,None,297.65394374981986,None,297.65394374981986,None,297.65394374981986,None,,,,,,,,,,,,,035,2022-06-02_10h15.39.112,Main,2022.1.1,61.17206901427552,
negative,positive,1,j,l,,,,,,,,,4,5,77,6,,,,,,,,,main,1,1,1,positive,negative,l,l,1,0.7318955999799073,297.6604369999841,298.6728190998547,298.65622040000744,None,297.6604369999841,None,297.6604369999841,None,297.6604369999841,None,299.38730844992676,None,299.38730844992676,None,299.38730844992676,None,,,,,,,,,,,,,035,2022-06-02_10h15.39.112,Main,2022.1.1,61.17206901427552,
negative,negative,2,j,l,,,,,,,,,4,6,78,9,,,,,,,,,main,2,2,2,negative,negative,l,l,1,0.6149963999632746,299.3936043998692,300.40615949989296,300.3895260998979,None,299.3936043998692,None,299.3936043998692,None,299.3936043998692,None,301.00385424981357,None,301.00385424981357,None,301.00385424981357,None,,,,,,,,,,,,,035,2022-06-02_10h15.39.112,Main,2022.1.1,61.17206901427552,
negative,neutral,1,j,l,,,,,,,,,4,7,79,3,,,,,,,,,main,2,2,1,neutral,negative,l,l,1,0.6814148998819292,301.0096312998794,302.0227908999659,302.00613759993576,None,301.0096312998794,None,301.0096312998794,None,301.0096312998794,None,302.6867900499841,None,302.6867900499841,None,302.6867900499841,None,,,,,,,,,,,,,035,2022-06-02_10h15.39.112,Main,2022.1.1,61.17206901427552,
neutral,negative,2,k,k,,,,,,,,,4,8,80,16,,,,,,,,,main,2,2,2,negative,neutral,k,k,1,0.7471592999063432,302.6956533999182,303.7035037998576,303.6868284000084,None,302.6956533999182,None,302.6956533999182,None,302.6956533999182,None,304.4368091497803,None,304.4368091497803,None,304.4368091497803,None,,,,,,,,,,,,,035,2022-06-02_10h15.39.112,Main,2022.1.1,61.17206901427552,
positive,negative,2,l,j,,,,,,,,,4,9,81,14,,,,,,,,,main,1,1,2,negative,positive,j,j,1,0.7316570000257343,304.43711199983954,305.4373454998713,305.4373454998713,None,304.43711199983954,None,304.43711199983954,None,304.43711199983954,None,306.1701236499706,None,306.1701236499706,None,306.1701236499706,None,,,,,,,,,,,,,035,2022-06-02_10h15.39.112,Main,2022.1.1,61.17206901427552,
neutral,negative,1,k,k,,,,,,,,,4,10,82,7,,,,,,,,,main,2,2,1,negative,neutral,k,k,1,0.6011880999431014,306.17587549984455,307.18933219998144,307.1560747998301,None,306.17587549984455,None,306.17587549984455,None,306.17587549984455,None,307.77264694983603,None,307.77264694983603,None,307.77264694983603,None,,,,,,,,,,,,,035,2022-06-02_10h15.39.112,Main,2022.1.1,61.17206901427552,
negative,negative,1,j,l,,,,,,,,,4,11,83,0,,,,,,,,,main,2,2,1,negative,negative,l,l,1,0.848400600021705,307.77688799984753,308.78926229989156,308.7726806998253,None,307.77688799984753,None,307.77688799984753,None,307.77688799984753,None,309.62270154987925,None,309.62270154987925,None,309.62270154987925,None,,,,,,,,,,,,,035,2022-06-02_10h15.39.112,Main,2022.1.1,61.17206901427552,
positive,neutral,2,l,j,,,,,,,,,4,12,84,17,,,,,,,,,main,1,1,2,neutral,positive,j,j,1,0.764460900099948,309.62657339987345,310.63923679990694,310.62260709982365,None,309.62657339987345,None,309.62657339987345,None,309.62657339987345,None,311.3869789498625,None,311.3869789498625,None,311.3869789498625,None,,,,,,,,,,,,,035,2022-06-02_10h15.39.112,Main,2022.1.1,61.17206901427552,
neutral,positive,1,k,k,,,,,,,,,4,13,85,4,,,,,,,,,main,1,1,1,positive,neutral,k,k,1,0.6159586000721902,311.39327209978364,312.40584829985164,312.3892587998416,None,311.39327209978364,None,311.39327209978364,None,311.39327209978364,None,313.00590574995147,None,313.00590574995147,None,313.00590574995147,None,,,,,,,,,,,,,035,2022-06-02_10h15.39.112,Main,2022.1.1,61.17206901427552,
positive,positive,1,l,j,,,,,,,,,4,14,86,2,,,,,,,,,main,1,1,1,positive,positive,j,j,1,0.731027000118047,313.0100154997781,314.0224772999063,314.0058747997973,None,313.0100154997781,None,313.0100154997781,None,313.0100154997781,None,314.7384253497934,None,314.7384253497934,None,314.7384253497934,None,,,,,,,,,,,,,035,2022-06-02_10h15.39.112,Main,2022.1.1,61.17206901427552,
neutral,neutral,1,k,k,,,,,,,,,4,15,87,1,,,,,,,,,main,2,2,1,neutral,neutral,k,k,1,1.54539390001446,314.7391667999327,315.7532473998144,315.73679160000756,None,314.7391667999327,None,314.7391667999327,None,314.7391667999327,None,317.28655919991434,None,317.28655919991434,None,317.28655919991434,None,,,,,,,,,,,,,035,2022-06-02_10h15.39.112,Main,2022.1.1,61.17206901427552,
negative,positive,2,j,l,,,,,,,,,4,16,88,15,,,,,,,,,main,1,1,2,positive,negative,l,l,1,0.8071211001370102,318.28900359990075,319.289079999784,319.27248369995505,None,318.28900359990075,None,318.28900359990075,None,318.28900359990075,None,320.0869211498415,None,320.0869211498415,None,320.0869211498415,None,,,,,,,,,,,,,035,2022-06-02_10h15.39.112,Main,2022.1.1,61.17206901427552,
negative,neutral,2,j,l,,,,,,,,,4,17,89,12,,,,,,,,,main,2,2,2,neutral,negative,l,l,1,0.6337502999231219,320.0943389998283,321.1056731999852,321.0890632998198,None,320.0943389998283,None,320.0943389998283,None,320.0943389998283,None,321.72385804981457,None,321.72385804981457,None,321.72385804981457,None,,,,,,,,,,,,,035,2022-06-02_10h15.39.112,Main,2022.1.1,61.17206901427552,
negative,negative,1,j,l,,,,,,,,,5,0,90,0,,,,,,,,,main,1,1,1,negative,negative,l,l,1,0.592306099832058,321.72929909988306,322.7389721998479,322.7223692999687,None,321.72929909988306,None,321.72929909988306,None,321.72929909988306,None,323.3200589499669,None,323.3200589499669,None,323.3200589499669,None,,,,,,,,,,,,,035,2022-06-02_10h15.39.112,Main,2022.1.1,61.17206901427552,
neutral,neutral,1,k,k,,,,,,,,,5,1,91,1,,,,,,,,,main,2,2,1,neutral,neutral,k,k,1,0.6649454000871629,323.32583869993687,324.3390004998073,324.32238969998434,None,323.32583869993687,None,323.32583869993687,None,323.32583869993687,None,324.9866874499479,None,324.9866874499479,None,324.9866874499479,None,,,,,,,,,,,,,035,2022-06-02_10h15.39.112,Main,2022.1.1,61.17206901427552,
positive,positive,2,l,j,,,,,,,,,5,2,92,11,,,,,,,,,main,2,2,2,positive,positive,j,j,1,0.7068547001108527,324.99244189984165,326.0055535999127,325.98894909978844,None,324.99244189984165,None,324.99244189984165,None,324.99244189984165,None,326.69498294985385,None,326.69498294985385,None,326.69498294985385,None,,,,,,,,,,,,,035,2022-06-02_10h15.39.112,Main,2022.1.1,61.17206901427552,
neutral,positive,2,k,k,,,,,,,,,5,3,93,13,,,,,,,,,main,2,2,2,positive,neutral,k,k,1,0.6233538999222219,326.7103167998139,327.71991489990614,327.6865343998652,None,326.7103167998139,None,326.7103167998139,None,326.7103167998139,None,328.31983994992913,None,328.31983994992913,None,328.31983994992913,None,,,,,,,,,,,,,035,2022-06-02_10h15.39.112,Main,2022.1.1,61.17206901427552,
positive,positive,1,l,j,,,,,,,,,5,4,94,2,,,,,,,,,main,2,2,1,positive,positive,j,j,1,0.6983610999304801,328.3262935997918,329.33652259991504,329.3199004000053,None,328.3262935997918,None,328.3262935997918,None,328.3262935997918,None,330.01980534985194,None,330.01980534985194,None,330.01980534985194,None,,,,,,,,,,,,,035,2022-06-02_10h15.39.112,Main,2022.1.1,61.17206901427552,
negative,neutral,1,j,l,,,,,,,,,5,5,95,3,,,,,,,,,main,2,2,1,neutral,negative,l,l,1,0.7150499001145363,330.02331599988975,331.0387038998306,331.0220574999694,None,330.02331599988975,None,330.02331599988975,None,330.02331599988975,None,331.73644804998764,None,331.73644804998764,None,331.73644804998764,None,,,,,,,,,,,,,035,2022-06-02_10h15.39.112,Main,2022.1.1,61.17206901427552,
positive,neutral,2,l,j,,,,,,,,,5,6,96,17,,,,,,,,,main,1,1,2,neutral,positive,j,j,1,0.6816727998666465,331.7417716998607,332.75529109989293,332.73688419978134,None,331.7417716998607,None,331.7417716998607,None,331.7417716998607,None,333.4197591498727,None,333.4197591498727,None,333.4197591498727,None,,,,,,,,,,,,,035,2022-06-02_10h15.39.112,Main,2022.1.1,61.17206901427552,
neutral,negative,2,k,k,,,,,,,,,5,7,97,16,,,,,,,,,main,2,2,2,negative,neutral,k,k,1,0.7483081999234855,333.42503469996154,334.4367570998147,334.4200650998391,None,333.42503469996154,None,333.42503469996154,None,333.42503469996154,None,335.169732949906,None,335.169732949906,None,335.169732949906,None,,,,,,,,,,,,,035,2022-06-02_10h15.39.112,Main,2022.1.1,61.17206901427552,
negative,positive,1,j,l,,,,,,,,,5,8,98,6,,,,,,,,,main,1,1,1,positive,negative,l,l,1,0.6153861000202596,335.1750184998382,336.18860509991646,336.169764299877,None,335.1750184998382,None,335.1750184998382,None,335.1750184998382,None,336.78639144983606,None,336.78639144983606,None,336.78639144983606,None,,,,,,,,,,,,,035,2022-06-02_10h15.39.112,Main,2022.1.1,61.17206901427552,
neutral,neutral,2,k,k,,,,,,,,,5,9,99,10,,,,,,,,,main,1,1,2,neutral,neutral,k,k,1,0.6995002999901772,336.79180069989525,337.80525879980996,337.7864031000063,None,336.79180069989525,None,336.79180069989525,None,336.79180069989525,None,338.4863531498471,None,338.4863531498471,None,338.4863531498471,None,,,,,,,,,,,,,035,2022-06-02_10h15.39.112,Main,2022.1.1,61.17206901427552,
negative,negative,2,j,l,,,,,,,,,5,10,100,9,,,,,,,,,main,1,1,2,negative,negative,l,l,1,0.7640270001720637,338.49245219980367,339.5052510998212,339.4885593999643,None,338.49245219980367,None,338.49245219980367,None,338.49245219980367,None,340.2529854499502,None,340.2529854499502,None,340.2529854499502,None,,,,,,,,,,,,,035,2022-06-02_10h15.39.112,Main,2022.1.1,61.17206901427552,
negative,neutral,2,j,l,,,,,,,,,5,11,101,12,,,,,,,,,main,1,1,2,neutral,negative,l,l,1,0.6314278999343514,340.25608359999023,341.2696123998612,341.2526717998553,None,340.25608359999023,None,340.25608359999023,None,340.25608359999023,None,341.88595764988565,None,341.88595764988565,None,341.88595764988565,None,,,,,,,,,,,,,035,2022-06-02_10h15.39.112,Main,2022.1.1,61.17206901427552,
positive,neutral,1,l,j,,,,,,,,,5,12,102,8,,,,,,,,,main,1,1,1,neutral,positive,j,j,1,0.6824685998726636,341.8859994998202,342.8860255999025,342.8860255999025,None,341.8859994998202,None,341.8859994998202,None,341.8859994998202,None,343.5696373497834,None,343.5696373497834,None,343.5696373497834,None,,,,,,,,,,,,,035,2022-06-02_10h15.39.112,Main,2022.1.1,61.17206901427552,
positive,negative,2,l,j,,,,,,,,,5,13,103,14,,,,,,,,,main,2,2,2,negative,positive,j,j,1,0.7648297001142055,343.57549620000646,344.58848789986223,344.57197699998505,None,343.57549620000646,None,343.57549620000646,None,343.57549620000646,None,345.33626484984995,None,345.33626484984995,None,345.33626484984995,None,,,,,,,,,,,,,035,2022-06-02_10h15.39.112,Main,2022.1.1,61.17206901427552,
neutral,positive,1,k,k,,,,,,,,,5,14,104,4,,,,,,,,,main,1,1,1,positive,neutral,k,k,1,0.6151670999825001,345.3418990999926,346.35513329994865,346.33853730000556,None,345.3418990999926,None,345.3418990999926,None,345.3418990999926,None,346.95288814997764,None,346.95288814997764,None,346.95288814997764,None,,,,,,,,,,,,,035,2022-06-02_10h15.39.112,Main,2022.1.1,61.17206901427552,
negative,positive,2,j,l,,,,,,,,,5,15,105,15,,,,,,,,,main,2,2,2,positive,negative,l,l,1,0.7985281001310796,346.9586456997786,347.97178389993496,347.9551826999523,None,346.9586456997786,None,346.9586456997786,None,346.9586456997786,None,348.75285874980034,None,348.75285874980034,None,348.75285874980034,None,,,,,,,,,,,,,035,2022-06-02_10h15.39.112,Main,2022.1.1,61.17206901427552,
positive,negative,1,l,j,,,,,,,,,5,16,106,5,,,,,,,,,main,1,1,1,negative,positive,j,j,1,0.6817604000680149,348.75841259979643,349.77173539996147,349.7551131998189,None,348.75841259979643,None,348.75841259979643,None,348.75841259979643,None,350.4361516497796,None,350.4361516497796,None,350.4361516497796,None,,,,,,,,,,,,,035,2022-06-02_10h15.39.112,Main,2022.1.1,61.17206901427552,
neutral,negative,1,k,k,,,,,,,,,5,17,107,7,,,,,,,,,main,2,2,1,negative,neutral,k,k,1,0.6148671000264585,350.4418462999165,351.4525541998446,351.4359661999624,None,350.4418462999165,None,350.4418462999165,None,350.4418462999165,None,352.05248634980524,None,352.05248634980524,None,352.05248634980524,None,,,,,,,,,,,,,035,2022-06-02_10h15.39.112,Main,2022.1.1,61.17206901427552,
neutral,positive,1,k,k,,,,,,,,,6,0,108,4,,,,,,,,,main,1,1,1,positive,neutral,k,k,1,0.6641751001589,352.06912449980155,353.06911419983953,353.0524730999023,None,352.06912449980155,None,352.06912449980155,None,352.06912449980155,None,353.7190759498393,None,353.7190759498393,None,353.7190759498393,None,,,,,,,,,,,,,035,2022-06-02_10h15.39.112,Main,2022.1.1,61.17206901427552,
neutral,positive,2,k,k,,,,,,,,,6,1,109,13,,,,,,,,,main,2,2,2,positive,neutral,k,k,1,0.5497710001654923,353.71949289995246,354.71912679984234,354.71912679984234,None,353.71949289995246,None,353.71949289995246,None,353.71949289995246,None,355.2690812498098,None,355.2690812498098,None,355.2690812498098,None,,,,,,,,,,,,,035,2022-06-02_10h15.39.112,Main,2022.1.1,61.17206901427552,
positive,negative,2,l,j,,,,,,,,,6,2,110,14,,,,,,,,,main,1,1,2,negative,positive,j,j,1,0.7664954999927431,355.2757519998122,356.28829910000786,356.2716778998729,None,355.2757519998122,None,355.2757519998122,None,355.2757519998122,None,357.0385237498907,None,357.0385237498907,None,357.0385237498907,None,,,,,,,,,,,,,035,2022-06-02_10h15.39.112,Main,2022.1.1,61.17206901427552,
positive,positive,2,l,j,,,,,,,,,6,3,111,11,,,,,,,,,main,2,2,2,positive,positive,j,j,1,0.5961225999053568,357.0422925997991,358.05489949998446,358.03831259999424,None,357.0422925997991,None,357.0422925997991,None,357.0422925997991,None,358.6359934499254,None,358.6359934499254,None,358.6359934499254,None,,,,,,,,,,,,,035,2022-06-02_10h15.39.112,Main,2022.1.1,61.17206901427552,
neutral,negative,2,k,k,,,,,,,,,6,4,112,16,,,,,,,,,main,1,1,2,negative,neutral,k,k,1,0.8191062998957932,358.6418544999324,359.65486349980347,359.6382598998025,None,358.6418544999324,None,358.6418544999324,None,358.6418544999324,None,360.4549016498262,None,360.4549016498262,None,360.4549016498262,None,,,,,,,,,,,,,035,2022-06-02_10h15.39.112,Main,2022.1.1,61.17206901427552,
negative,positive,2,j,l,,,,,,,,,6,5,113,15,,,,,,,,,main,2,2,2,positive,negative,l,l,1,0.6602997998706996,360.46398049988784,361.47147439979017,361.4549141000025,None,360.46398049988784,None,360.46398049988784,None,360.46398049988784,None,362.1192411498399,None,362.1192411498399,None,362.1192411498399,None,,,,,,,,,,,,,035,2022-06-02_10h15.39.112,Main,2022.1.1,61.17206901427552,
neutral,negative,1,k,k,,,,,,,,,6,6,114,7,,,,,,,,,main,2,2,1,negative,neutral,k,k,1,0.5981313998345286,362.1251098997891,363.13557629985735,363.10221439995803,None,362.1251098997891,None,362.1251098997891,None,362.1251098997891,None,363.71886914989443,None,363.71886914989443,None,363.71886914989443,None,,,,,,,,,,,,,035,2022-06-02_10h15.39.112,Main,2022.1.1,61.17206901427552,
neutral,neutral,2,k,k,,,,,,,,,6,7,115,10,,,,,,,,,main,2,2,2,neutral,neutral,k,k,1,0.6828965998720378,363.71898839995265,364.7188541998621,364.7188541998621,None,363.71898839995265,None,363.71898839995265,None,363.71898839995265,None,365.4021714499453,None,365.4021714499453,None,365.4021714499453,None,,,,,,,,,,,,,035,2022-06-02_10h15.39.112,Main,2022.1.1,61.17206901427552,
negative,neutral,1,j,l,,,,,,,,,6,8,116,3,,,,,,,,,main,1,1,1,neutral,negative,l,l,1,0.6471465001814067,365.40535699995235,366.418853999814,366.40219379984774,None,365.40535699995235,None,365.40535699995235,None,365.40535699995235,None,367.0521659499267,None,367.0521659499267,None,367.0521659499267,None,,,,,,,,,,,,,035,2022-06-02_10h15.39.112,Main,2022.1.1,61.17206901427552,
positive,negative,1,l,j,,,,,,,,,6,9,117,5,,,,,,,,,main,1,1,1,negative,positive,j,j,1,0.6985818000975996,367.0633547999896,368.07138350000605,368.05476129986346,None,367.0633547999896,None,367.0633547999896,None,367.0633547999896,None,368.75245284985283,None,368.75245284985283,None,368.75245284985283,None,,,,,,,,,,,,,035,2022-06-02_10h15.39.112,Main,2022.1.1,61.17206901427552,
positive,neutral,1,l,j,,,,,,,,,6,10,118,8,,,,,,,,,main,1,1,1,neutral,positive,j,j,1,0.7682506998535246,368.7581632998772,369.7713365999516,369.7547298998106,None,368.7581632998772,None,368.7581632998772,None,368.7581632998772,None,370.521289349976,None,370.521289349976,None,370.521289349976,None,,,,,,,,,,,,,035,2022-06-02_10h15.39.112,Main,2022.1.1,61.17206901427552,
neutral,neutral,1,k,k,,,,,,,,,6,11,119,1,,,,,,,,,main,2,2,1,neutral,neutral,k,k,1,0.6117962000425905,370.5259486997966,371.5379621000029,371.5213298997842,None,370.5259486997966,None,370.5259486997966,None,370.5259486997966,None,372.1357009499101,None,372.1357009499101,None,372.1357009499101,None,,,,,,,,,,,,,035,2022-06-02_10h15.39.112,Main,2022.1.1,61.17206901427552,
negative,negative,1,j,l,,,,,,,,,6,12,120,0,,,,,,,,,main,2,2,1,negative,negative,l,l,1,0.6485093999654055,372.141592099797,373.15456399996765,373.1379766999744,None,372.141592099797,None,372.141592099797,None,372.141592099797,None,373.78552034983875,None,373.78552034983875,None,373.78552034983875,None,,,,,,,,,,,,,035,2022-06-02_10h15.39.112,Main,2022.1.1,61.17206901427552,
positive,neutral,2,l,j,,,,,,,,,6,13,121,17,,,,,,,,,main,2,2,2,neutral,positive,j,j,1,0.7147528999485075,373.7920264999848,374.8045272999443,374.78793269977905,None,373.7920264999848,None,373.7920264999848,None,373.7920264999848,None,375.50195604979524,None,375.50195604979524,None,375.50195604979524,None,,,,,,,,,,,,,035,2022-06-02_10h15.39.112,Main,2022.1.1,61.17206901427552,
positive,positive,1,l,j,,,,,,,,,6,14,122,2,,,,,,,,,main,2,2,1,positive,positive,j,j,1,0.6318415000569075,375.5037387998309,376.51860889978707,376.5019274998922,None,375.5037387998309,None,375.5037387998309,None,375.5037387998309,None,377.1352512498619,None,377.1352512498619,None,377.1352512498619,None,,,,,,,,,,,,,035,2022-06-02_10h15.39.112,Main,2022.1.1,61.17206901427552,
negative,positive,1,j,l,,,,,,,,,6,15,123,6,,,,,,,,,main,1,1,1,positive,negative,l,l,1,0.6986404000781476,377.13577599986456,378.13527349988,378.13527349988,None,377.13577599986456,None,377.13577599986456,None,377.13577599986456,None,378.83528504983985,None,378.83528504983985,None,378.83528504983985,None,,,,,,,,,,,,,035,2022-06-02_10h15.39.112,Main,2022.1.1,61.17206901427552,
negative,neutral,2,j,l,,,,,,,,,6,16,124,12,,,,,,,,,main,2,2,2,neutral,negative,l,l,1,0.6009549000300467,378.84124869992957,379.85445149987936,379.83788089989685,None,378.84124869992957,None,378.84124869992957,None,378.84124869992957,None,380.4379186499631,None,380.4379186499631,None,380.4379186499631,None,,,,,,,,,,,,,035,2022-06-02_10h15.39.112,Main,2022.1.1,61.17206901427552,
negative,negative,2,j,l,,,,,,,,,6,17,125,9,,,,,,,,,main,2,2,2,negative,negative,l,l,1,0.6151756001636386,380.44183479994535,381.45446529984474,381.43780999979936,None,380.44183479994535,None,380.44183479994535,None,380.44183479994535,None,382.05454574988687,None,382.05454574988687,None,382.05454574988687,None,,,,,,,,,,,,,035,2022-06-02_10h15.39.112,Main,2022.1.1,61.17206901427552,
positive,negative,2,l,j,,,,,,,,,7,0,126,14,,,,,,,,,main,2,2,2,negative,positive,j,j,1,0.6626629999373108,382.05842079990543,383.0710518998094,383.0544408999849,None,382.05842079990543,None,382.05842079990543,None,382.05842079990543,None,383.7187985498225,None,383.7187985498225,None,383.7187985498225,None,,,,,,,,,,,,,035,2022-06-02_10h15.39.112,Main,2022.1.1,61.17206901427552,
negative,negative,2,j,l,,,,,,,,,7,1,127,9,,,,,,,,,main,2,2,2,negative,negative,l,l,1,0.7483570999465883,383.72439079987817,384.73593809991144,384.7212181999348,None,383.72439079987817,None,383.72439079987817,None,383.72439079987817,None,385.4687546498375,None,385.4687546498375,None,385.4687546498375,None,,,,,,,,,,,,,035,2022-06-02_10h15.39.112,Main,2022.1.1,61.17206901427552,
neutral,neutral,1,k,k,,,,,,,,,7,2,128,1,,,,,,,,,main,2,2,1,neutral,neutral,k,k,1,0.6702877001371235,385.47426559985615,386.48766989982687,386.47105899988674,None,385.47426559985615,None,385.47426559985615,None,385.47426559985615,None,387.14044994998255,None,387.14044994998255,None,387.14044994998255,None,,,,,,,,,,,,,035,2022-06-02_10h15.39.112,Main,2022.1.1,61.17206901427552,
neutral,positive,1,k,k,,,,,,,,,7,3,129,4,,,,,,,,,main,2,2,1,positive,neutral,k,k,1,1.2097564998548478,387.15171849983744,388.15169619978406,388.13503399980254,None,387.15171849983744,None,387.15171849983744,None,387.15171849983744,None,389.35166654989587,None,389.35166654989587,None,389.35166654989587,None,,,,,,,,,,,,,035,2022-06-02_10h15.39.112,Main,2022.1.1,61.17206901427552,
negative,neutral,2,j,l,,,,,,,,,7,4,130,12,,,,,,,,,main,2,2,2,neutral,negative,l,l,1,0.6816926000174135,389.354337599827,390.3683547999244,390.3516879999079,None,389.354337599827,None,389.354337599827,None,389.354337599827,None,391.0349916498875,None,391.0349916498875,None,391.0349916498875,None,,,,,,,,,,,,,035,2022-06-02_10h15.39.112,Main,2022.1.1,61.17206901427552,
negative,neutral,1,j,l,,,,,,,,,7,5,131,3,,,,,,,,,main,2,2,1,neutral,negative,l,l,1,0.6489534999709576,391.0404403998982,392.0542230999563,392.02095199981704,None,391.0404403998982,None,391.0404403998982,None,391.0404403998982,None,392.68527875000143,None,392.68527875000143,None,392.68527875000143,None,,,,,,,,,,,,,035,2022-06-02_10h15.39.112,Main,2022.1.1,61.17206901427552,
negative,positive,1,j,l,,,,,,,,,7,6,132,6,,,,,,,,,main,2,2,1,positive,negative,l,l,1,0.7507371997926384,392.69118589977734,393.7042056999635,393.68754459987395,None,392.69118589977734,None,392.69118589977734,None,392.69118589977734,None,394.4375072498573,None,394.4375072498573,None,394.4375072498573,None,,,,,,,,,,,,,035,2022-06-02_10h15.39.112,Main,2022.1.1,61.17206901427552,
neutral,positive,2,k,k,,,,,,,,,7,7,133,13,,,,,,,,,main,1,1,2,positive,neutral,k,k,1,0.6963115998078138,394.44059699983336,395.45411890000105,395.437507199822,None,394.44059699983336,None,394.44059699983336,None,394.44059699983336,None,396.1352522498695,None,396.1352522498695,None,396.1352522498695,None,,,,,,,,,,,,,035,2022-06-02_10h15.39.112,Main,2022.1.1,61.17206901427552,
neutral,negative,1,k,k,,,,,,,,,7,8,134,7,,,,,,,,,main,1,1,1,negative,neutral,k,k,1,0.6981254999991506,396.14112109993584,397.15405919984914,397.1374634997919,None,396.14112109993584,None,396.14112109993584,None,396.14112109993584,None,397.8351584498072,None,397.8351584498072,None,397.8351584498072,None,,,,,,,,,,,,,035,2022-06-02_10h15.39.112,Main,2022.1.1,61.17206901427552,
negative,positive,2,j,l,,,,,,,,,7,9,135,15,,,,,,,,,main,1,1,2,positive,negative,l,l,1,0.6996508000884205,397.8408832999412,398.8539936998859,398.83747229981236,None,397.8408832999412,None,397.8408832999412,None,397.8408832999412,None,399.5347790498985,None,399.5347790498985,None,399.5347790498985,None,,,,,,,,,,,,,035,2022-06-02_10h15.39.112,Main,2022.1.1,61.17206901427552,
neutral,negative,2,k,k,,,,,,,,,7,10,136,16,,,,,,,,,main,2,2,2,negative,neutral,k,k,1,0.5803118001203984,399.5371103999205,400.5514548998326,400.53479129984044,None,399.5371103999205,None,399.5371103999205,None,399.5371103999205,None,401.1180523498682,None,401.1180523498682,None,401.1180523498682,None,,,,,,,,,,,,,035,2022-06-02_10h15.39.112,Main,2022.1.1,61.17206901427552,
positive,negative,1,l,j,,,,,,,,,7,11,137,5,,,,,,,,,main,2,2,1,negative,positive,j,j,1,0.7153565001208335,401.11809629993513,402.11810059985146,402.11810059985146,None,401.11809629993513,None,401.11809629993513,None,401.11809629993513,None,402.8349506498547,None,402.8349506498547,None,402.8349506498547,None,,,,,,,,,,,,,035,2022-06-02_10h15.39.112,Main,2022.1.1,61.17206901427552,
negative,negative,1,j,l,,,,,,,,,7,12,138,0,,,,,,,,,main,2,2,1,negative,negative,l,l,1,0.6818175001535565,402.83858179999515,403.83742269990034,403.83742269990034,None,402.83858179999515,None,402.83858179999515,None,402.83858179999515,None,404.5183601497905,None,404.5183601497905,None,404.5183601497905,None,,,,,,,,,,,,,035,2022-06-02_10h15.39.112,Main,2022.1.1,61.17206901427552,
positive,neutral,1,l,j,,,,,,,,,7,13,139,8,,,,,,,,,main,1,1,1,neutral,positive,j,j,1,0.7148684000130743,404.52462619985454,405.53725619986653,405.5206493998412,None,404.52462619985454,None,404.52462619985454,None,404.52462619985454,None,406.2349759498378,None,406.2349759498378,None,406.2349759498378,None,,,,,,,,,,,,,035,2022-06-02_10h15.39.112,Main,2022.1.1,61.17206901427552,
positive,positive,2,l,j,,,,,,,,,7,14,140,11,,,,,,,,,main,2,2,2,positive,positive,j,j,1,0.6320986000355333,406.24072070000693,407.25385589990765,407.23723889980465,None,406.24072070000693,None,406.24072070000693,None,406.24072070000693,None,407.86830704982856,None,407.86830704982856,None,407.86830704982856,None,,,,,,,,,,,,,035,2022-06-02_10h15.39.112,Main,2022.1.1,61.17206901427552,
neutral,neutral,2,k,k,,,,,,,,,7,15,141,10,,,,,,,,,main,1,1,2,neutral,neutral,k,k,1,0.6648521998431534,407.8744596999604,408.887149799848,408.8705187998712,None,407.8744596999604,None,407.8744596999604,None,407.8744596999604,None,409.5349145498825,None,409.5349145498825,None,409.5349145498825,None,,,,,,,,,,,,,035,2022-06-02_10h15.39.112,Main,2022.1.1,61.17206901427552,
positive,neutral,2,l,j,,,,,,,,,7,16,142,17,,,,,,,,,main,2,2,2,neutral,positive,j,j,1,0.7795571000315249,409.5457752000075,410.5538572999649,410.5372344998177,None,409.5457752000075,None,409.5457752000075,None,409.5457752000075,None,411.3167813499225,None,411.3167813499225,None,411.3167813499225,None,,,,,,,,,,,,,035,2022-06-02_10h15.39.112,Main,2022.1.1,61.17206901427552,
positive,positive,1,l,j,,,,,,,,,7,17,143,2,,,,,,,,,main,2,2,1,positive,positive,j,j,1,0.7163638998754323,411.3321949997917,412.3347539999522,412.3178710998036,None,411.3321949997917,None,411.3321949997917,None,411.3321949997917,None,413.0344640498282,None,413.0344640498282,None,413.0344640498282,None,,,,,,,,,,,,,035,2022-06-02_10h15.39.112,Main,2022.1.1,61.17206901427552,
neutral,positive,1,k,k,,,,,,,,,8,0,144,4,,,,,,,,,main,1,1,1,positive,neutral,k,k,1,0.631762299919501,413.03450049995445,414.0345178998541,414.0345178998541,None,413.03450049995445,None,413.03450049995445,None,413.03450049995445,None,414.66783174986483,None,414.66783174986483,None,414.66783174986483,None,,,,,,,,,,,,,035,2022-06-02_10h15.39.112,Main,2022.1.1,61.17206901427552,
positive,neutral,2,l,j,,,,,,,,,8,1,145,17,,,,,,,,,main,1,1,2,neutral,positive,j,j,1,0.7152903999667615,414.66832279996015,415.668085699901,415.668085699901,None,414.66832279996015,None,414.66832279996015,None,414.66832279996015,None,416.3848380499752,None,416.3848380499752,None,416.3848380499752,None,,,,,,,,,,,,,035,2022-06-02_10h15.39.112,Main,2022.1.1,61.17206901427552,
positive,negative,2,l,j,,,,,,,,,8,2,146,14,,,,,,,,,main,2,2,2,negative,positive,j,j,1,0.704094500048086,416.3905491998885,417.4036425999366,417.3870492998976,None,416.3905491998885,None,416.3905491998885,None,416.3905491998885,None,418.0903992498992,None,418.0903992498992,None,418.0903992498992,None,,,,,,,,,,,,,035,2022-06-02_10h15.39.112,Main,2022.1.1,61.17206901427552,
negative,negative,1,j,l,,,,,,,,,8,3,147,0,,,,,,,,,main,1,1,1,negative,negative,l,l,1,0.6774814000818878,418.0933856999036,419.1036374999676,419.08700569998473,None,418.0933856999036,None,418.0933856999036,None,418.0933856999036,None,419.76803354986475,None,419.76803354986475,None,419.76803354986475,None,,,,,,,,,,,,,035,2022-06-02_10h15.39.112,Main,2022.1.1,61.17206901427552,
negative,negative,2,j,l,,,,,,,,,8,4,148,9,,,,,,,,,main,1,1,2,negative,negative,l,l,1,0.5803413998801261,419.7745762998238,420.78497339994647,420.77041179989465,None,419.7745762998238,None,419.7745762998238,None,419.7745762998238,None,421.35132814988026,None,421.35132814988026,None,421.35132814988026,None,,,,,,,,,,,,,035,2022-06-02_10h15.39.112,Main,2022.1.1,61.17206901427552,
neutral,neutral,2,k,k,,,,,,,,,8,5,149,10,,,,,,,,,main,2,2,2,neutral,neutral,k,k,1,0.6318961000069976,421.3569659998175,422.370193899842,422.35362769989297,None,421.3569659998175,None,421.3569659998175,None,421.3569659998175,None,422.98462974999563,None,422.98462974999563,None,422.98462974999563,None,,,,,,,,,,,,,035,2022-06-02_10h15.39.112,Main,2022.1.1,61.17206901427552,
neutral,negative,2,k,k,,,,,,,,,8,6,150,16,,,,,,,,,main,1,1,2,negative,neutral,k,k,1,0.5311722001060843,422.99027689988725,424.0009377999231,423.98425609990954,None,422.99027689988725,None,422.99027689988725,None,422.99027689988725,None,424.5175503499107,None,424.5175503499107,None,424.5175503499107,None,,,,,,,,,,,,,035,2022-06-02_10h15.39.112,Main,2022.1.1,61.17206901427552,
positive,neutral,1,l,j,,,,,,,,,8,7,151,8,,,,,,,,,main,2,2,1,neutral,positive,j,j,1,1.4986040000803769,424.51760429982096,425.51782969990745,425.51782969990745,None,424.51760429982096,None,424.51760429982096,None,424.51760429982096,None,427.0175800497876,None,427.0175800497876,None,427.0175800497876,None,,,,,,,,,,,,,035,2022-06-02_10h15.39.112,Main,2022.1.1,61.17206901427552,
negative,neutral,1,j,l,,,,,,,,,8,8,152,3,,,,,,,,,main,1,1,1,neutral,negative,l,l,1,0.7513224000576884,427.0231121999677,428.03679479984567,428.02018379978836,None,427.0231121999677,None,427.0231121999677,None,427.0231121999677,None,428.77040164985226,None,428.77040164985226,None,428.77040164985226,None,,,,,,,,,,,,,035,2022-06-02_10h15.39.112,Main,2022.1.1,61.17206901427552,
neutral,neutral,1,k,k,,,,,,,,,8,9,153,1,,,,,,,,,main,2,2,1,neutral,neutral,k,k,1,0.6327891999389976,428.77416799985804,429.7867558998987,429.77009749994613,None,428.77416799985804,None,428.77416799985804,None,428.77416799985804,None,430.40358184997456,None,430.40358184997456,None,430.40358184997456,None,,,,,,,,,,,,,035,2022-06-02_10h15.39.112,Main,2022.1.1,61.17206901427552,
neutral,positive,2,k,k,,,,,,,,,8,10,154,13,,,,,,,,,main,1,1,2,positive,neutral,k,k,1,0.713650899939239,430.4078439997975,431.4200404000003,431.4034427998122,None,430.4078439997975,None,430.4078439997975,None,430.4078439997975,None,432.119996950007,None,432.119996950007,None,432.119996950007,None,,,,,,,,,,,,,035,2022-06-02_10h15.39.112,Main,2022.1.1,61.17206901427552,
negative,positive,1,j,l,,,,,,,,,8,11,155,6,,,,,,,,,main,2,2,1,positive,negative,l,l,1,0.5949748000130057,432.1328608999029,433.13668279978447,433.1200597998686,None,432.1328608999029,None,432.1328608999029,None,432.1328608999029,None,433.7174219498178,None,433.7174219498178,None,433.7174219498178,None,,,,,,,,,,,,,035,2022-06-02_10h15.39.112,Main,2022.1.1,61.17206901427552,
negative,positive,2,j,l,,,,,,,,,8,12,156,15,,,,,,,,,main,1,1,2,positive,negative,l,l,1,0.7651796001009643,433.7231993000023,434.73662859993055,434.71999009978026,None,433.7231993000023,None,433.7231993000023,None,433.7231993000023,None,435.48385424979494,None,435.48385424979494,None,435.48385424979494,None,,,,,,,,,,,,,035,2022-06-02_10h15.39.112,Main,2022.1.1,61.17206901427552,
neutral,negative,1,k,k,,,,,,,,,8,13,157,7,,,,,,,,,main,1,1,1,negative,neutral,k,k,1,0.6815975999925286,435.4999561998993,436.5006916997954,436.4842435999308,None,435.4999561998993,None,435.4999561998993,None,435.4999561998993,None,437.16731894991824,None,437.16731894991824,None,437.16731894991824,None,,,,,,,,,,,,,035,2022-06-02_10h15.39.112,Main,2022.1.1,61.17206901427552,
positive,negative,1,l,j,,,,,,,,,8,14,158,5,,,,,,,,,main,1,1,1,negative,positive,j,j,1,0.6650185999460518,437.16769399982877,438.16739759990014,438.16739759990014,None,437.16769399982877,None,437.16769399982877,None,437.16769399982877,None,438.83418754998127,None,438.83418754998127,None,438.83418754998127,None,,,,,,,,,,,,,035,2022-06-02_10h15.39.112,Main,2022.1.1,61.17206901427552,
positive,positive,1,l,j,,,,,,,,,8,15,159,2,,,,,,,,,main,2,2,1,positive,positive,j,j,1,0.7508934999350458,438.83642659988254,439.850675099995,439.83438029978424,None,438.83642659988254,None,438.83642659988254,None,438.83642659988254,None,440.5866215498885,None,440.5866215498885,None,440.5866215498885,None,,,,,,,,,,,,,035,2022-06-02_10h15.39.112,Main,2022.1.1,61.17206901427552,
negative,neutral,2,j,l,,,,,,,,,8,16,160,12,,,,,,,,,main,1,1,2,neutral,negative,l,l,1,0.7961677999701351,440.5906108999625,441.60315659991466,441.58655359991826,None,440.5906108999625,None,440.5906108999625,None,440.5906108999625,None,442.38422964999916,None,442.38422964999916,None,442.38422964999916,None,,,,,,,,,,,,,035,2022-06-02_10h15.39.112,Main,2022.1.1,61.17206901427552,
positive,positive,2,l,j,,,,,,,,,8,17,161,11,,,,,,,,,main,2,2,2,positive,positive,j,j,1,0.6983276000246406,442.39010609989055,443.40308889979497,443.3864889999386,None,442.39010609989055,None,442.39010609989055,None,442.39010609989055,None,444.08417304998727,None,444.08417304998727,None,444.08417304998727,None,,,,,,,,,,,,,035,2022-06-02_10h15.39.112,Main,2022.1.1,61.17206901427552,
neutral,neutral,1,k,k,,,,,,,,,9,0,162,1,,,,,,,,,main,1,1,1,neutral,neutral,k,k,1,0.6357080999296159,444.0898289999459,445.10305749997497,445.08644879981875,None,444.0898289999459,None,444.0898289999459,None,444.0898289999459,None,445.71757964997084,None,445.71757964997084,None,445.71757964997084,None,,,,,,,,,,,,,035,2022-06-02_10h15.39.112,Main,2022.1.1,61.17206901427552,
neutral,negative,1,k,k,,,,,,,,,9,1,163,7,,,,,,,,,main,2,2,1,negative,neutral,k,k,1,0.5438208000268787,445.7264485999476,446.7366535998881,446.71985769993626,None,445.7264485999476,None,445.7264485999476,None,445.7264485999476,None,447.26745784978846,None,447.26745784978846,None,447.26745784978846,None,,,,,,,,,,,,,035,2022-06-02_10h15.39.112,Main,2022.1.1,61.17206901427552,
positive,negative,1,l,j,,,,,,,,,9,2,164,5,,,,,,,,,main,2,2,1,negative,positive,j,j,1,0.7019776001106948,447.27324869995937,448.28376439982094,448.267102799844,None,447.27324869995937,None,447.27324869995937,None,447.27324869995937,None,448.9670531498035,None,448.9670531498035,None,448.9670531498035,None,,,,,,,,,,,,,035,2022-06-02_10h15.39.112,Main,2022.1.1,61.17206901427552,
negative,negative,1,j,l,,,,,,,,,9,3,165,0,,,,,,,,,main,2,2,1,negative,negative,l,l,1,0.727841200074181,448.97093559987843,449.9837454999797,449.9670797998551,None,448.97093559987843,None,448.97093559987843,None,448.97093559987843,None,450.70038364988284,None,450.70038364988284,None,450.70038364988284,None,,,,,,,,,,,,,035,2022-06-02_10h15.39.112,Main,2022.1.1,61.17206901427552,
neutral,positive,1,k,k,,,,,,,,,9,4,166,4,,,,,,,,,main,1,1,1,positive,neutral,k,k,1,0.5986194999422878,450.7049333998002,451.7170505998656,451.70038829999976,None,450.7049333998002,None,450.7049333998002,None,450.7049333998002,None,452.3007835498778,None,452.3007835498778,None,452.3007835498778,None,,,,,,,,,,,,,035,2022-06-02_10h15.39.112,Main,2022.1.1,61.17206901427552,
positive,positive,2,l,j,,,,,,,,,9,5,167,11,,,,,,,,,main,2,2,2,positive,positive,j,j,1,0.6316112999338657,452.3069176999852,453.3195610998664,453.30298179993406,None,452.3069176999852,None,452.3069176999852,None,452.3069176999852,None,453.9339945500018,None,453.9339945500018,None,453.9339945500018,None,,,,,,,,,,,,,035,2022-06-02_10h15.39.112,Main,2022.1.1,61.17206901427552,
positive,positive,1,l,j,,,,,,,,,9,6,168,2,,,,,,,,,main,1,1,1,positive,positive,j,j,1,0.699056499870494,453.94003719999455,454.9528636999894,454.9362580999732,None,453.94003719999455,None,453.94003719999455,None,453.94003719999455,None,455.6347814500099,None,455.6347814500099,None,455.6347814500099,None,,,,,,,,,,,,,035,2022-06-02_10h15.39.112,Main,2022.1.1,61.17206901427552,
negative,positive,2,j,l,,,,,,,,,9,7,169,15,,,,,,,,,main,1,1,2,positive,negative,l,l,1,0.7832088998984545,455.6407249998301,456.6528212998528,456.63630259991623,None,455.6407249998301,None,455.6407249998301,None,455.6407249998301,None,457.41951734989414,None,457.41951734989414,None,457.41951734989414,None,,,,,,,,,,,,,035,2022-06-02_10h15.39.112,Main,2022.1.1,61.17206901427552,
negative,positive,1,j,l,,,,,,,,,9,8,170,6,,,,,,,,,main,2,2,1,positive,negative,l,l,1,0.6003990999888629,457.42354159988463,458.4361010999419,458.41958739981055,None,457.42354159988463,None,457.42354159988463,None,457.42354159988463,None,459.017286749999,None,459.017286749999,None,459.017286749999,None,,,,,,,,,,,,,035,2022-06-02_10h15.39.112,Main,2022.1.1,61.17206901427552,
positive,neutral,1,l,j,,,,,,,,,9,9,171,8,,,,,,,,,main,1,1,1,neutral,positive,j,j,1,0.6273747999221087,459.0244314998854,460.0335183998104,460.01683749980293,None,459.0244314998854,None,459.0244314998854,None,459.0244314998854,None,460.6503721498651,None,460.6503721498651,None,460.6503721498651,None,,,,,,,,,,,,,035,2022-06-02_10h15.39.112,Main,2022.1.1,61.17206901427552,
neutral,negative,2,k,k,,,,,,,,,9,10,172,16,,,,,,,,,main,2,2,2,negative,neutral,k,k,1,0.7149064999539405,460.6502150997985,461.6502019998152,461.6502019998152,None,460.6502150997985,None,460.6502150997985,None,460.6502150997985,None,462.36679664996916,None,462.36679664996916,None,462.36679664996916,None,,,,,,,,,,,,,035,2022-06-02_10h15.39.112,Main,2022.1.1,61.17206901427552,
negative,neutral,1,j,l,,,,,,,,,9,11,173,3,,,,,,,,,main,2,2,1,neutral,negative,l,l,1,0.6653016000054777,462.3685687999241,463.38351139985025,463.36683809990063,None,462.3685687999241,None,462.3685687999241,None,462.3685687999241,None,464.03345494994426,None,464.03345494994426,None,464.03345494994426,None,,,,,,,,,,,,,035,2022-06-02_10h15.39.112,Main,2022.1.1,61.17206901427552,
positive,neutral,2,l,j,,,,,,,,,9,12,174,17,,,,,,,,,main,1,1,2,neutral,positive,j,j,1,0.6985470000654459,464.0396240998525,465.0526602999307,465.0360774998553,None,464.0396240998525,None,464.0396240998525,None,464.0396240998525,None,465.73373914996625,None,465.73373914996625,None,465.73373914996625,None,,,,,,,,,,,,,035,2022-06-02_10h15.39.112,Main,2022.1.1,61.17206901427552,
positive,negative,2,l,j,,,,,,,,,9,13,175,14,,,,,,,,,main,1,1,2,negative,positive,j,j,1,0.5973826998379081,465.7400925999973,466.75261069997214,466.7360193999484,None,465.7400925999973,None,465.7400925999973,None,465.7400925999973,None,467.3336958498461,None,467.3336958498461,None,467.3336958498461,None,,,,,,,,,,,,,035,2022-06-02_10h15.39.112,Main,2022.1.1,61.17206901427552,
neutral,neutral,2,k,k,,,,,,,,,9,14,176,10,,,,,,,,,main,2,2,2,neutral,neutral,k,k,1,0.6186454000417143,467.33973359991796,468.35255539999343,468.3359448998235,None,467.33973359991796,None,467.33973359991796,None,467.33973359991796,None,468.9527063499903,None,468.9527063499903,None,468.9527063499903,None,,,,,,,,,,,,,035,2022-06-02_10h15.39.112,Main,2022.1.1,61.17206901427552,
negative,negative,2,j,l,,,,,,,,,9,15,177,9,,,,,,,,,main,1,1,2,negative,negative,l,l,1,0.8114874998573214,468.9568141999189,469.96925999992527,469.9525769997854,None,468.9568141999189,None,468.9568141999189,None,468.9568141999189,None,470.76704754980744,None,470.76704754980744,None,470.76704754980744,None,,,,,,,,,,,,,035,2022-06-02_10h15.39.112,Main,2022.1.1,61.17206901427552,
neutral,positive,2,k,k,,,,,,,,,9,16,178,13,,,,,,,,,main,2,2,2,positive,neutral,k,k,1,0.631914199795574,470.77281199977733,471.7829437998589,471.76165649993345,None,470.77281199977733,None,470.77281199977733,None,470.77281199977733,None,472.4003453498939,None,472.4003453498939,None,472.4003453498939,None,,,,,,,,,,,,,035,2022-06-02_10h15.39.112,Main,2022.1.1,61.17206901427552,
negative,neutral,2,j,l,,,,,,,,,9,17,179,12,,,,,,,,,main,2,2,2,neutral,negative,l,l,1,0.7483196998946369,472.40209879982285,473.41657169978134,473.3999002999626,None,472.40209879982285,None,472.40209879982285,None,472.40209879982285,None,474.1498754499247,None,474.1498754499247,None,474.1498754499247,None,,,,,,,,,,,,,035,2022-06-02_10h15.39.112,Main,2022.1.1,61.17206901427552,
neutral,positive,2,k,k,,,,,,,,,10,0,180,13,,,,,,,,,main,1,1,2,positive,neutral,k,k,1,0.6136910999193788,474.1528288999107,475.1669304999523,475.1499173999764,None,474.1528288999107,None,474.1528288999107,None,474.1528288999107,None,475.7665961498627,None,475.7665961498627,None,475.7665961498627,None,,,,,,,,,,,,,035,2022-06-02_10h15.39.112,Main,2022.1.1,61.17206901427552,
negative,neutral,1,j,l,,,,,,,,,10,1,181,3,,,,,,,,,main,2,2,1,neutral,negative,l,l,1,0.6987910999450833,475.7727401999291,476.7857636997942,476.76916239992715,None,475.7727401999291,None,475.7727401999291,None,475.7727401999291,None,477.46694724981205,None,477.46694724981205,None,477.46694724981205,None,,,,,,,,,,,,,035,2022-06-02_10h15.39.112,Main,2022.1.1,61.17206901427552,
positive,positive,1,l,j,,,,,,,,,10,2,182,2,,,,,,,,,main,1,1,1,positive,positive,j,j,1,0.7649568999186158,477.47250369982794,478.4857319998555,478.4691187997814,None,477.47250369982794,None,477.47250369982794,None,477.47250369982794,None,479.2334391500102,None,479.2334391500102,None,479.2334391500102,None,,,,,,,,,,,,,035,2022-06-02_10h15.39.112,Main,2022.1.1,61.17206901427552,
neutral,negative,2,k,k,,,,,,,,,10,3,183,16,,,,,,,,,main,2,2,2,negative,neutral,k,k,1,0.7316999000031501,479.2391330997925,480.2523139999248,480.2357604999561,None,479.2391330997925,None,479.2391330997925,None,479.2391330997925,None,480.96674434978047,None,480.96674434978047,None,480.96674434978047,None,,,,,,,,,,,,,035,2022-06-02_10h15.39.112,Main,2022.1.1,61.17206901427552,
negative,neutral,2,j,l,,,,,,,,,10,4,184,12,,,,,,,,,main,1,1,2,neutral,negative,l,l,1,0.7484651999548078,480.9723402999807,481.9856486998033,481.96900879987516,None,480.9723402999807,None,480.9723402999807,None,480.9723402999807,None,482.71669064995365,None,482.71669064995365,None,482.71669064995365,None,,,,,,,,,,,,,035,2022-06-02_10h15.39.112,Main,2022.1.1,61.17206901427552,
negative,negative,1,j,l,,,,,,,,,10,5,185,0,,,,,,,,,main,1,1,1,negative,negative,l,l,1,0.6649833000265062,482.72228149999864,483.73555959993973,483.71896509989165,None,482.72228149999864,None,482.72228149999864,None,482.72228149999864,None,484.3829630499007,None,484.3829630499007,None,484.3829630499007,None,,,,,,,,,,,,,035,2022-06-02_10h15.39.112,Main,2022.1.1,61.17206901427552,
neutral,positive,1,k,k,,,,,,,,,10,6,186,4,,,,,,,,,main,1,1,1,positive,neutral,k,k,1,0.7650146998930722,484.38304439978674,485.3829714998137,485.3829714998137,None,484.38304439978674,None,484.38304439978674,None,484.38304439978674,None,486.14962204985784,None,486.14962204985784,None,486.14962204985784,None,,,,,,,,,,,,,035,2022-06-02_10h15.39.112,Main,2022.1.1,61.17206901427552,
neutral,negative,1,k,k,,,,,,,,,10,7,187,7,,,,,,,,,main,2,2,1,negative,neutral,k,k,1,0.5650430999230593,486.1512565999292,487.1670820999425,487.1496658998076,None,486.1512565999292,None,486.1512565999292,None,486.1512565999292,None,487.7163164498983,None,487.7163164498983,None,487.7163164498983,None,,,,,,,,,,,,,035,2022-06-02_10h15.39.112,Main,2022.1.1,61.17206901427552,
positive,positive,2,l,j,,,,,,,,,10,8,188,11,,,,,,,,,main,1,1,2,positive,positive,j,j,1,0.7165765999816358,487.7206662998069,488.7355600998271,488.7189323999919,None,487.7206662998069,None,487.7206662998069,None,487.7206662998069,None,489.4354545499431,None,489.4354545499431,None,489.4354545499431,None,,,,,,,,,,,,,035,2022-06-02_10h15.39.112,Main,2022.1.1,61.17206901427552,
negative,positive,1,j,l,,,,,,,,,10,9,189,6,,,,,,,,,main,1,1,1,positive,negative,l,l,1,0.6963802000973374,489.4395210999064,490.4521106998436,490.43551479978487,None,489.4395210999064,None,489.4395210999064,None,489.4395210999064,None,491.1331823498243,None,491.1331823498243,None,491.1331823498243,None,,,,,,,,,,,,,035,2022-06-02_10h15.39.112,Main,2022.1.1,61.17206901427552,
positive,negative,1,l,j,,,,,,,,,10,10,190,5,,,,,,,,,main,2,2,1,negative,positive,j,j,1,0.7150918999686837,491.1390817000065,492.15207939990796,492.1354635998141,None,491.1390817000065,None,491.1390817000065,None,491.1390817000065,None,492.84990054995285,None,492.84990054995285,None,492.84990054995285,None,,,,,,,,,,,,,035,2022-06-02_10h15.39.112,Main,2022.1.1,61.17206901427552,
positive,neutral,2,l,j,,,,,,,,,10,11,191,17,,,,,,,,,main,1,1,2,neutral,positive,j,j,1,0.6480295001529157,492.8559998997953,493.86863749986514,493.8521050999407,None,492.8559998997953,None,492.8559998997953,None,492.8559998997953,None,494.4997864498058,None,494.4997864498058,None,494.4997864498058,None,,,,,,,,,,,,,035,2022-06-02_10h15.39.112,Main,2022.1.1,61.17206901427552,
positive,neutral,1,l,j,,,,,,,,,10,12,192,8,,,,,,,,,main,1,1,1,neutral,positive,j,j,1,0.601674199802801,494.5076954998076,495.5187236999627,495.50205329991877,None,494.5076954998076,None,494.5076954998076,None,494.5076954998076,None,496.1029523499077,None,496.1029523499077,None,496.1029523499077,None,,,,,,,,,,,,,035,2022-06-02_10h15.39.112,Main,2022.1.1,61.17206901427552,
negative,positive,2,j,l,,,,,,,,,10,13,193,15,,,,,,,,,main,1,1,2,positive,negative,l,l,1,0.6791536998935044,496.10394729999825,497.11629729997367,497.09938979987055,None,496.10394729999825,None,496.10394729999825,None,496.10394729999825,None,497.78358144985975,None,497.78358144985975,None,497.78358144985975,None,,,,,,,,,,,,,035,2022-06-02_10h15.39.112,Main,2022.1.1,61.17206901427552,
neutral,neutral,2,k,k,,,,,,,,,10,14,194,10,,,,,,,,,main,2,2,2,neutral,neutral,k,k,1,0.5640570998657495,497.7994621999096,498.79942749999464,498.782976699993,None,497.7994621999096,None,497.7994621999096,None,497.7994621999096,None,499.3493829499697,None,499.3493829499697,None,499.3493829499697,None,,,,,,,,,,,,,035,2022-06-02_10h15.39.112,Main,2022.1.1,61.17206901427552,
positive,negative,2,l,j,,,,,,,,,10,15,195,14,,,,,,,,,main,2,2,2,negative,positive,j,j,1,0.6819360998924822,499.3511409999337,500.36605229997076,500.3494049999863,None,499.3511409999337,None,499.3511409999337,None,499.3511409999337,None,501.03300164986865,None,501.03300164986865,None,501.03300164986865,None,,,,,,,,,,,,,035,2022-06-02_10h15.39.112,Main,2022.1.1,61.17206901427552,
negative,negative,2,j,l,,,,,,,,,10,16,196,9,,,,,,,,,main,1,1,2,negative,negative,l,l,1,0.700789000140503,501.03935289988294,502.0518968999386,502.0352816998493,None,501.03935289988294,None,501.03935289988294,None,501.03935289988294,None,502.7352871498791,None,502.7352871498791,None,502.7352871498791,None,,,,,,,,,,,,,035,2022-06-02_10h15.39.112,Main,2022.1.1,61.17206901427552,
neutral,neutral,1,k,k,,,,,,,,,10,17,197,1,,,,,,,,,main,2,2,1,neutral,neutral,k,k,1,0.7459787998814136,502.7392994998954,503.75184379983693,503.73286879993975,None,502.7392994998954,None,502.7392994998954,None,502.7392994998954,None,504.48290374989153,None,504.48290374989153,None,504.48290374989153,None,,,,,,,,,,,,,035,2022-06-02_10h15.39.112,Main,2022.1.1,61.17206901427552,
negative,neutral,2,j,l,,,,,,,,,11,0,198,12,,,,,,,,,main,2,2,2,neutral,negative,l,l,1,0.7151415999978781,504.4894017998595,505.50177989993244,505.48519859998487,None,504.4894017998595,None,504.4894017998595,None,504.4894017998595,None,506.19953104991,None,506.19953104991,None,506.19953104991,None,,,,,,,,,,,,,035,2022-06-02_10h15.39.112,Main,2022.1.1,61.17206901427552,
negative,positive,1,j,l,,,,,,,,,11,1,199,6,,,,,,,,,main,1,1,1,positive,negative,l,l,1,0.6483895999845117,506.2065334999934,507.2184619999025,507.20181279978715,None,506.2065334999934,None,506.2065334999934,None,506.2065334999934,None,507.84949465000534,None,507.84949465000534,None,507.84949465000534,None,,,,,,,,,,,,,035,2022-06-02_10h15.39.112,Main,2022.1.1,61.17206901427552,
neutral,neutral,2,k,k,,,,,,,,,11,2,200,10,,,,,,,,,main,1,1,2,neutral,neutral,k,k,1,0.7147986001800746,507.85547789977863,508.8657960998826,508.8491746999789,None,507.85547789977863,None,507.85547789977863,None,507.85547789977863,None,509.565792249958,None,509.565792249958,None,509.565792249958,None,,,,,,,,,,,,,035,2022-06-02_10h15.39.112,Main,2022.1.1,61.17206901427552,
negative,negative,1,j,l,,,,,,,,,11,3,201,0,,,,,,,,,main,1,1,1,negative,negative,l,l,1,0.6971223000437021,509.5680554998107,510.5824763998389,510.565806399798,None,509.5680554998107,None,509.5680554998107,None,509.5680554998107,None,511.26578814999664,None,511.26578814999664,None,511.26578814999664,None,,,,,,,,,,,,,035,2022-06-02_10h15.39.112,Main,2022.1.1,61.17206901427552,
positive,negative,1,l,j,,,,,,,,,11,4,202,5,,,,,,,,,main,1,1,1,negative,positive,j,j,1,0.7653957000002265,511.271489799954,512.284949199995,512.268359299982,None,511.271489799954,None,511.271489799954,None,511.271489799954,None,513.0327299500117,None,513.0327299500117,None,513.0327299500117,None,,,,,,,,,,,,,035,2022-06-02_10h15.39.112,Main,2022.1.1,61.17206901427552,
neutral,positive,2,k,k,,,,,,,,,11,5,203,13,,,,,,,,,main,2,2,2,positive,neutral,k,k,1,0.6330945000518113,513.0446961999405,514.051608099835,514.0350232999772,None,513.0446961999405,None,513.0446961999405,None,513.0446961999405,None,514.6689422498224,None,514.6689422498224,None,514.6689422498224,None,,,,,,,,,,,,,035,2022-06-02_10h15.39.112,Main,2022.1.1,61.17206901427552,
negative,negative,2,j,l,,,,,,,,,11,6,204,9,,,,,,,,,main,2,2,2,negative,negative,l,l,1,0.749597999965772,514.6731143998913,515.6828983000014,515.6685229998548,None,514.6731143998913,None,514.6731143998913,None,514.6731143998913,None,516.4160697499523,None,516.4160697499523,None,516.4160697499523,None,,,,,,,,,,,,,035,2022-06-02_10h15.39.112,Main,2022.1.1,61.17206901427552,
negative,positive,2,j,l,,,,,,,,,11,7,205,15,,,,,,,,,main,2,2,2,positive,negative,l,l,1,0.7770188001450151,516.4239120997954,517.4348649999592,517.4182599999476,None,516.4239120997954,None,516.4239120997954,None,516.4239120997954,None,518.1989685499342,None,518.1989685499342,None,518.1989685499342,None,,,,,,,,,,,,,035,2022-06-02_10h15.39.112,Main,2022.1.1,61.17206901427552,
neutral,neutral,1,k,k,,,,,,,,,11,8,206,1,,,,,,,,,main,2,2,1,neutral,neutral,k,k,1,0.5979792000725865,518.2027164997999,519.2155929999426,519.1989364000037,None,518.2027164997999,None,518.2027164997999,None,518.2027164997999,None,519.7988803498214,None,519.7988803498214,None,519.7988803498214,None,,,,,,,,,,,,,035,2022-06-02_10h15.39.112,Main,2022.1.1,61.17206901427552,
neutral,negative,1,k,k,,,,,,,,,11,9,207,7,,,,,,,,,main,1,1,1,negative,neutral,k,k,1,0.5523906999733299,519.8005926997866,520.8155901997816,520.7989193999674,None,519.8005926997866,None,519.8005926997866,None,519.8005926997866,None,521.3490073499037,None,521.3490073499037,None,521.3490073499037,None,,,,,,,,,,,,,035,2022-06-02_10h15.39.112,Main,2022.1.1,61.17206901427552,
neutral,positive,1,k,k,,,,,,,,,11,10,208,4,,,,,,,,,main,1,1,1,positive,neutral,k,k,1,0.5939493998885155,521.3591865999624,522.368144699838,522.3348339998629,None,521.3591865999624,None,521.3591865999624,None,521.3591865999624,None,522.949184849835,None,522.949184849835,None,522.949184849835,None,,,,,,,,,,,,,035,2022-06-02_10h15.39.112,Main,2022.1.1,61.17206901427552,
neutral,negative,2,k,k,,,,,,,,,11,11,209,16,,,,,,,,,main,2,2,2,negative,neutral,k,k,1,0.6150345001369715,522.9524861997925,523.9680566999596,523.951445199782,None,522.9524861997925,None,522.9524861997925,None,522.9524861997925,None,524.5658044498181,None,524.5658044498181,None,524.5658044498181,None,,,,,,,,,,,,,035,2022-06-02_10h15.39.112,Main,2022.1.1,61.17206901427552,
positive,neutral,2,l,j,,,,,,,,,11,12,210,17,,,,,,,,,main,1,1,2,neutral,positive,j,j,1,0.8152069998905063,524.5712781997863,525.5846694998909,525.5681066999678,None,524.5712781997863,None,524.5712781997863,None,524.5712781997863,None,526.3824425497791,None,526.3824425497791,None,526.3824425497791,None,,,,,,,,,,,,,035,2022-06-02_10h15.39.112,Main,2022.1.1,61.17206901427552,
positive,positive,2,l,j,,,,,,,,,11,13,211,11,,,,,,,,,main,2,2,2,positive,positive,j,j,1,0.6150880998466164,526.3884166998323,527.4013471999206,527.3848107999656,None,526.3884166998323,None,526.3884166998323,None,526.3884166998323,None,527.9991839499911,None,527.9991839499911,None,527.9991839499911,None,,,,,,,,,,,,,035,2022-06-02_10h15.39.112,Main,2022.1.1,61.17206901427552,
positive,neutral,1,l,j,,,,,,,,,11,14,212,8,,,,,,,,,main,2,2,1,neutral,positive,j,j,1,0.681580200092867,528.0046716998331,529.017949400004,529.0013950997964,None,528.0046716998331,None,528.0046716998331,None,528.0046716998331,None,529.6823651499348,None,529.6823651499348,None,529.6823651499348,None,,,,,,,,,,,,,035,2022-06-02_10h15.39.112,Main,2022.1.1,61.17206901427552,
positive,positive,1,l,j,,,,,,,,,11,15,213,2,,,,,,,,,main,1,1,1,positive,positive,j,j,1,0.7659911001101136,529.6885639999527,530.6987030999735,530.6820478998125,None,529.6885639999527,None,529.6885639999527,None,529.6885639999527,None,531.4486667499644,None,531.4486667499644,None,531.4486667499644,None,,,,,,,,,,,,,035,2022-06-02_10h15.39.112,Main,2022.1.1,61.17206901427552,
positive,negative,2,l,j,,,,,,,,,11,16,214,14,,,,,,,,,main,2,2,2,negative,positive,j,j,1,0.5808067000471056,531.450642199954,532.4653609998059,532.448723899899,None,531.450642199954,None,531.450642199954,None,531.450642199954,None,533.0323036499088,None,533.0323036499088,None,533.0323036499088,None,,,,,,,,,,,,,035,2022-06-02_10h15.39.112,Main,2022.1.1,61.17206901427552,
negative,neutral,1,j,l,,,,,,,,,11,17,215,3,,,,,,,,,main,2,2,1,neutral,negative,l,l,1,0.7486332000698894,533.037941099843,534.0511866000015,534.0345672999974,None,533.037941099843,None,533.037941099843,None,533.037941099843,None,534.7822679499862,None,534.7822679499862,None,534.7822679499862,None,,,,,,,,,,,,,035,2022-06-02_10h15.39.112,Main,2022.1.1,61.17206901427552,
positive,negative,1,l,j,,,,,,,,,12,0,216,5,,,,,,,,,main,2,2,1,negative,positive,j,j,1,0.7652571001090109,534.7879910999909,535.8011791999452,535.7845759999473,None,534.7879910999909,None,534.7879910999909,None,534.7879910999909,None,536.548895849823,None,536.548895849823,None,536.548895849823,None,,,,,,,,,,,,,035,2022-06-02_10h15.39.112,Main,2022.1.1,61.17206901427552,
neutral,neutral,1,k,k,,,,,,,,,12,1,217,1,,,,,,,,,main,1,1,1,neutral,neutral,k,k,1,0.8648089000489563,536.5545972997788,537.5677880998701,537.5512590999715,None,536.5545972997788,None,536.5545972997788,None,536.5545972997788,None,538.4155019498197,None,538.4155019498197,None,538.4155019498197,None,,,,,,,,,,,,,035,2022-06-02_10h15.39.112,Main,2022.1.1,61.17206901427552,
positive,negative,2,l,j,,,,,,,,,12,2,218,14,,,,,,,,,main,1,1,2,negative,positive,j,j,1,0.7718256998341531,538.4187723000068,539.4344229998533,539.4178312998265,None,538.4187723000068,None,538.4187723000068,None,538.4187723000068,None,540.1876582498429,None,540.1876582498429,None,540.1876582498429,None,,,,,,,,,,,,,035,2022-06-02_10h15.39.112,Main,2022.1.1,61.17206901427552,
positive,positive,2,l,j,,,,,,,,,12,3,219,11,,,,,,,,,main,2,2,2,positive,positive,j,j,1,0.7414283000398427,540.1924589998089,541.1984679999296,541.1817870999221,None,540.1924589998089,None,540.1924589998089,None,540.1924589998089,None,541.9317433498567,None,541.9317433498567,None,541.9317433498567,None,,,,,,,,,,,,,035,2022-06-02_10h15.39.112,Main,2022.1.1,61.17206901427552,
neutral,negative,1,k,k,,,,,,,,,12,4,220,7,,,,,,,,,main,1,1,1,negative,neutral,k,k,1,0.6653412999585271,541.9317902999464,542.9318338998128,542.9318338998128,None,541.9317902999464,None,541.9317902999464,None,541.9317902999464,None,543.5988101497991,None,543.5988101497991,None,543.5988101497991,None,,,,,,,,,,,,,035,2022-06-02_10h15.39.112,Main,2022.1.1,61.17206901427552,
positive,neutral,1,l,j,,,,,,,,,12,5,221,8,,,,,,,,,main,1,1,1,neutral,positive,j,j,1,0.6994823000859469,543.6042393997777,544.6176181999035,544.6010304999072,None,543.6042393997777,None,543.6042393997777,None,543.6042393997777,None,545.2987112498143,None,545.2987112498143,None,545.2987112498143,None,,,,,,,,,,,,,035,2022-06-02_10h15.39.112,Main,2022.1.1,61.17206901427552,
negative,positive,2,j,l,,,,,,,,,12,6,222,15,,,,,,,,,main,1,1,2,positive,negative,l,l,1,0.7319267999846488,545.3049954997841,546.3176262998022,546.3010366999079,None,545.3049954997841,None,545.3049954997841,None,545.3049954997841,None,547.0319944498827,None,547.0319944498827,None,547.0319944498827,None,,,,,,,,,,,,,035,2022-06-02_10h15.39.112,Main,2022.1.1,61.17206901427552,
negative,negative,1,j,l,,,,,,,,,12,7,223,0,,,,,,,,,main,2,2,1,negative,negative,l,l,1,0.7010555998422205,547.038500599796,548.0509157998022,548.0343283999246,None,547.038500599796,None,547.038500599796,None,547.038500599796,None,548.732040949841,None,548.732040949841,None,548.732040949841,None,,,,,,,,,,,,,035,2022-06-02_10h15.39.112,Main,2022.1.1,61.17206901427552,
positive,positive,1,l,j,,,,,,,,,12,8,224,2,,,,,,,,,main,2,2,1,positive,positive,j,j,1,0.7111993001308292,548.7403386000078,549.7508752997965,549.7342761999462,None,548.7403386000078,None,548.7403386000078,None,548.7403386000078,None,550.4485636499943,None,550.4485636499943,None,550.4485636499943,None,,,,,,,,,,,,,035,2022-06-02_10h15.39.112,Main,2022.1.1,61.17206901427552,
