target,distractor,set,ans1,ans2,rep_loop2.thisRepN,rep_loop2.thisTrialN,rep_loop2.thisN,rep_loop2.thisIndex,flanker_prac_loop.thisRepN,flanker_prac_loop.thisTrialN,flanker_prac_loop.thisN,flanker_prac_loop.thisIndex,flanker_main_loop.thisRepN,flanker_main_loop.thisTrialN,flanker_main_loop.thisN,flanker_main_loop.thisIndex,fl_inst_resp.keys,mouse.x,mouse.y,mouse.leftButton,mouse.midButton,mouse.rightButton,mouse.started,mouse.stopped,sound_1.started,sound_1.stopped,no_text.started,no_text.stopped,yes_text.started,yes_text.stopped,mouse_2.x,mouse_2.y,mouse_2.leftButton,mouse_2.midButton,mouse_2.rightButton,mouse_2.started,mouse_2.stopped,back_2.started,back_2.stopped,main_prac,fl_cold,fl_colt,fl_set,fl_dcond,fl_tcond,fl_ans,fl_res,fl_corr,fl_rt,fix_fl.started,fix_fl.stopped,targ.started,targ.stopped,j_button.started,j_button.stopped,k_button.started,k_button.stopped,l_button.started,l_button.stopped,j_button2.started,j_button2.stopped,k_button2.started,k_button2.stopped,l_button2.started,l_button2.stopped,mainback.started,mainback.stopped,key_resp.keys,mouse_6.x,mouse_6.y,mouse_6.leftButton,mouse_6.midButton,mouse_6.rightButton,mouse_6.started,mouse_6.stopped,id*,age*,gender*,date,expName,psychopyVersion,frameRate,
,,,,,0,0,0,0,,,,,,,,,None,0.06574074,-0.34166667,0,0,0,1.0316356956027448,None,40.70003719991073,None,96.91925230016932,None,96.91925230016932,None,-0.097222224,-0.07962963,0,0,0,0.01284520048648119,None,,,,,,,,,,,,,,,,,,,,,,,,,,,,,,,,,,,,,,,101,22,Male,2022-04-27_15h38.55.923,Main,2022.1.1,59.89619975089294,
neutral,negative,2,k,k,,,,,0,0,0,16,,,,,,,,,,,,,,,,,,,,,,,,,,100.93722990015522,None,prac,1,1,2,negative,neutral,k,k,1,1.1670289002358913,102.98170359991491,103.99301209999248,103.95587769988924,None,102.98170359991491,None,102.98170359991491,None,102.98170359991491,None,105.10892620021477,None,105.10892620021477,None,105.10892620021477,None,,,,,,,,,,,101,22,Male,2022-04-27_15h38.55.923,Main,2022.1.1,59.89619975089294,
positive,negative,2,l,j,,,,,0,1,1,14,,,,,,,,,,,,,,,,,,,,,,,,,,,,prac,1,1,2,negative,positive,j,j,1,1.3135547996498644,105.14263259992003,106.14642979996279,106.12717089988291,None,105.14263259992003,None,105.14263259992003,None,105.14263259992003,None,107.42554390002041,None,107.42554390002041,None,107.42554390002041,None,,,,,,,,,,,101,22,Male,2022-04-27_15h38.55.923,Main,2022.1.1,59.89619975089294,
positive,positive,2,l,j,,,,,0,2,2,11,,,,,,,,,,,,,,,,,,,,,,,,,,,,prac,1,1,2,positive,positive,j,j,1,0.9092915002256632,107.4524695998989,108.45627110032365,108.43947230000049,None,107.4524695998989,None,107.4524695998989,None,107.4524695998989,None,109.33816150007769,None,109.33816150007769,None,109.33816150007769,None,,,,,,,,,,,101,22,Male,2022-04-27_15h38.55.923,Main,2022.1.1,59.89619975089294,
neutral,positive,1,k,k,,,,,0,3,3,4,,,,,,,,,,,,,,,,,,,,,,,,,,,,prac,2,2,1,positive,neutral,k,k,1,0.8773097000084817,109.37917960016057,110.38962309993804,110.35155750019476,None,109.37917960016057,None,109.37917960016057,None,109.37917960016057,None,111.21941560031846,None,111.21941560031846,None,111.21941560031846,None,,,,,,,,,,,101,22,Male,2022-04-27_15h38.55.923,Main,2022.1.1,59.89619975089294,
negative,negative,1,j,l,,,,,0,4,4,0,,,,,,,,,,,,,,,,,,,,,,,,,,,,prac,1,1,1,negative,negative,l,l,1,0.8252786998637021,111.25537020014599,112.25667349994183,112.239646400325,None,111.25537020014599,None,111.25537020014599,None,111.25537020014599,None,113.04403910031542,None,113.04403910031542,None,113.04403910031542,None,,,,,,,,,,,101,22,Male,2022-04-27_15h38.55.923,Main,2022.1.1,59.89619975089294,
negative,positive,1,j,l,,,,,0,5,5,6,,,,,,,,,,,,,,,,,,,,,,,,,,,,prac,1,1,1,positive,negative,l,l,1,0.7969752997159958,113.08276619995013,114.09164420003071,114.0557655999437,None,113.08276619995013,None,113.08276619995013,None,113.08276619995013,None,114.8461036001332,None,114.8461036001332,None,114.8461036001332,None,,,,,,,,,,,101,22,Male,2022-04-27_15h38.55.923,Main,2022.1.1,59.89619975089294,
neutral,neutral,2,k,k,,,,,0,6,6,10,,,,,,,,,,,,,,,,,,,,,,,,,,,,prac,1,1,2,neutral,neutral,k,k,1,0.7974708997644484,114.87225280003622,115.87424729997292,115.85672349995002,None,114.87225280003622,None,114.87225280003622,None,114.87225280003622,None,116.6467147999443,None,116.6467147999443,None,116.6467147999443,None,,,,,,,,,,,101,22,Male,2022-04-27_15h38.55.923,Main,2022.1.1,59.89619975089294,
positive,positive,1,l,j,,,,,0,7,7,2,,,,,,,,,,,,,,,,,,,,,,,,,,,,prac,2,2,1,positive,positive,j,j,1,1.5669211000204086,116.66899010026827,117.67774019995704,117.64097060030326,None,116.66899010026827,None,116.66899010026827,None,116.66899010026827,None,119.24450869997963,None,119.24450869997963,None,119.24450869997963,None,,,,,,,,,,,101,22,Male,2022-04-27_15h38.55.923,Main,2022.1.1,59.89619975089294,
negative,negative,2,j,l,,,,,0,8,8,9,,,,,,,,,,,,,,,,,,,,,,,,,,,,prac,1,1,2,negative,negative,l,l,1,1.101842099800706,120.26004340033978,121.27525909990072,121.24028300028294,None,120.26004340033978,None,120.26004340033978,None,120.26004340033978,None,122.3467093002051,None,122.3467093002051,None,122.3467093002051,None,,,,,,,,,,,101,22,Male,2022-04-27_15h38.55.923,Main,2022.1.1,59.89619975089294,
neutral,negative,1,k,k,,,,,0,9,9,7,,,,,,,,,,,,,,,,,,,,,,,,,,,,prac,1,1,1,negative,neutral,k,k,1,0.8800413999706507,122.37758360011503,123.39004749991,123.37192890001461,None,122.37758360011503,None,122.37758360011503,None,122.37758360011503,None,124.22730799987912,None,124.22730799987912,None,124.22730799987912,None,,,,,,,,,,,101,22,Male,2022-04-27_15h38.55.923,Main,2022.1.1,59.89619975089294,
negative,neutral,1,j,l,,,,,0,10,10,3,,,,,,,,,,,,,,,,,,,,,,,,,,,,prac,1,1,1,neutral,negative,l,l,1,0.841786100063473,124.2613809001632,125.27326640021056,125.23468540003523,None,124.2613809001632,None,124.2613809001632,None,124.2613809001632,None,126.07360970033332,None,126.07360970033332,None,126.07360970033332,None,,,,,,,,,,,101,22,Male,2022-04-27_15h38.55.923,Main,2022.1.1,59.89619975089294,
negative,neutral,2,j,l,,,,,0,11,11,12,,,,,,,,,,,,,,,,,,,,,,,,,,,,prac,2,2,2,neutral,negative,l,l,1,0.8528072000481188,126.11030560033396,127.12760110013187,127.09021610021591,None,126.11030560033396,None,126.11030560033396,None,126.11030560033396,None,127.92942710025235,None,127.92942710025235,None,127.92942710025235,None,,,,,,,,,,,101,22,Male,2022-04-27_15h38.55.923,Main,2022.1.1,59.89619975089294,
positive,neutral,1,l,j,,,,,0,12,12,8,,,,,,,,,,,,,,,,,,,,,,,,,,,,prac,2,2,1,neutral,positive,j,j,1,1.199332700110972,127.96017049998045,128.97391059994698,128.9559141001664,None,127.96017049998045,None,127.96017049998045,None,127.96017049998045,None,130.12899610018357,None,130.12899610018357,None,130.12899610018357,None,,,,,,,,,,,101,22,Male,2022-04-27_15h38.55.923,Main,2022.1.1,59.89619975089294,
neutral,positive,2,k,k,,,,,0,13,13,13,,,,,,,,,,,,,,,,,,,,,,,,,,,,prac,1,1,2,positive,neutral,k,k,1,0.7968032998032868,130.15297870012,131.1747079999186,131.1352615999058,None,130.15297870012,None,130.15297870012,None,130.15297870012,None,131.93028359990566,None,131.93028359990566,None,131.93028359990566,None,,,,,,,,,,,101,22,Male,2022-04-27_15h38.55.923,Main,2022.1.1,59.89619975089294,
positive,negative,1,l,j,,,,,0,14,14,5,,,,,,,,,,,,,,,,,,,,,,,,,,,,prac,1,1,1,negative,positive,j,j,1,0.9728164998814464,131.95071700029075,132.9569431003183,132.93795940000564,None,131.95071700029075,None,131.95071700029075,None,131.95071700029075,None,133.90559240002185,None,133.90559240002185,None,133.90559240002185,None,,,,,,,,,,,101,22,Male,2022-04-27_15h38.55.923,Main,2022.1.1,59.89619975089294,
neutral,neutral,1,k,k,,,,,0,15,15,1,,,,,,,,,,,,,,,,,,,,,,,,,,,,prac,2,2,1,neutral,neutral,k,k,1,0.7994066998362541,133.9237945000641,134.9405910000205,134.90175320021808,None,133.9237945000641,None,133.9237945000641,None,133.9237945000641,None,135.7067174002528,None,135.7067174002528,None,135.7067174002528,None,,,,,,,,,,,101,22,Male,2022-04-27_15h38.55.923,Main,2022.1.1,59.89619975089294,
positive,neutral,2,l,j,,,,,0,16,16,17,,,,,,,,,,,,,,,,,,,,,,,,,,,,prac,1,1,2,neutral,positive,j,j,1,0.810086399782449,135.7273766999133,136.7409359002486,136.70698000025004,None,135.7273766999133,None,135.7273766999133,None,135.7273766999133,None,137.521137700323,None,137.521137700323,None,137.521137700323,None,,,,,,,,,,,101,22,Male,2022-04-27_15h38.55.923,Main,2022.1.1,59.89619975089294,
negative,positive,2,j,l,,,,,0,17,17,15,,,,,,,,,,,,,,,,,,,,,,,,,,,,prac,1,1,2,positive,negative,l,l,1,0.7672832999378443,137.5398365999572,138.55676730023697,138.51366570033133,None,137.5398365999572,None,137.5398365999572,None,137.5398365999572,None,139.29046590011566,None,139.29046590011566,None,139.29046590011566,None,,,,,,,,,,,101,22,Male,2022-04-27_15h38.55.923,Main,2022.1.1,59.89619975089294,
negative,neutral,2,j,l,,,,,1,0,18,12,,,,,,,,,,,,,,,,,,,,,,,,,,,,prac,1,1,2,neutral,negative,l,l,1,0.7611638996750116,139.30922400020063,140.31327270017937,140.29478640016168,None,139.30922400020063,None,139.30922400020063,None,139.30922400020063,None,141.0555873000063,None,141.0555873000063,None,141.0555873000063,None,,,,,,,,,,,101,22,Male,2022-04-27_15h38.55.923,Main,2022.1.1,59.89619975089294,
negative,positive,2,j,l,,,,,1,1,19,15,,,,,,,,,,,,,,,,,,,,,,,,,,,,prac,2,2,2,positive,negative,l,l,1,0.7372436998412013,141.09058069996536,142.1090436000377,142.0728015000932,None,141.09058069996536,None,141.09058069996536,None,141.09058069996536,None,142.79417549995705,None,142.79417549995705,None,142.79417549995705,None,,,,,,,,,,,101,22,Male,2022-04-27_15h38.55.923,Main,2022.1.1,59.89619975089294,
neutral,negative,2,k,k,,,,,1,2,20,16,,,,,,,,,,,,,,,,,,,,,,,,,,,,prac,2,2,2,negative,neutral,k,k,1,0.7215009001083672,142.82050300017,143.82420000014827,143.80700040003285,None,142.82050300017,None,142.82050300017,None,142.82050300017,None,144.52058370029553,None,144.52058370029553,None,144.52058370029553,None,,,,,,,,,,,101,22,Male,2022-04-27_15h38.55.923,Main,2022.1.1,59.89619975089294,
negative,negative,2,j,l,,,,,1,3,21,9,,,,,,,,,,,,,,,,,,,,,,,,,,,,prac,2,2,2,negative,negative,l,l,1,0.7349747000262141,144.53930100006983,145.55580210033804,145.53540180018172,None,144.53930100006983,None,144.53930100006983,None,144.53930100006983,None,146.25612850012257,None,146.25612850012257,None,146.25612850012257,None,,,,,,,,,,,101,22,Male,2022-04-27_15h38.55.923,Main,2022.1.1,59.89619975089294,
neutral,neutral,2,k,k,,,,,1,4,22,10,,,,,,,,,,,,,,,,,,,,,,,,,,,,prac,2,2,2,neutral,neutral,k,k,1,0.6288139997050166,146.27641199994832,147.2934296000749,147.25742979999632,None,146.27641199994832,None,146.27641199994832,None,146.27641199994832,None,147.88689190000295,None,147.88689190000295,None,147.88689190000295,None,,,,,,,,,,,101,22,Male,2022-04-27_15h38.55.923,Main,2022.1.1,59.89619975089294,
positive,negative,2,l,j,,,,,1,5,23,14,,,,,,,,,,,,,,,,,,,,,,,,,,,,prac,1,1,2,negative,positive,j,j,1,0.8466364000923932,147.91142230015248,148.9321682001464,148.90508559998125,None,147.91142230015248,None,147.91142230015248,None,147.91142230015248,None,149.73934689993038,None,149.73934689993038,None,149.73934689993038,None,,,,,,,,,,,101,22,Male,2022-04-27_15h38.55.923,Main,2022.1.1,59.89619975089294,
positive,positive,1,l,j,,,,,1,6,24,2,,,,,,,,,,,,,,,,,,,,,,,,,,,,prac,2,2,1,positive,positive,j,k,0,0.837468100246042,149.75822210032493,150.77200740016997,150.75213910033926,None,149.75822210032493,None,149.75822210032493,None,149.75822210032493,None,151.5899129002355,None,151.5899129002355,None,151.5899129002355,None,,,,,,,,,,,101,22,Male,2022-04-27_15h38.55.923,Main,2022.1.1,59.89619975089294,
positive,neutral,2,l,j,,,,,1,7,25,17,,,,,,,,,,,,,,,,,,,,,,,,,,,,prac,2,2,2,neutral,positive,j,j,1,0.7522636000066996,152.61012630024925,153.61924830032513,153.5977374999784,None,152.61012630024925,None,152.61012630024925,None,152.61012630024925,None,154.34614100018516,None,154.34614100018516,None,154.34614100018516,None,,,,,,,,,,,101,22,Male,2022-04-27_15h38.55.923,Main,2022.1.1,59.89619975089294,
positive,neutral,1,l,j,,,,,1,8,26,8,,,,,,,,,,,,,,,,,,,,,,,,,,,,prac,2,2,1,neutral,positive,j,j,1,0.666163899935782,154.3679007999599,155.37600490031764,155.3404357000254,None,154.3679007999599,None,154.3679007999599,None,154.3679007999599,None,156.01691570030525,None,156.01691570030525,None,156.01691570030525,None,,,,,,,,,,,101,22,Male,2022-04-27_15h38.55.923,Main,2022.1.1,59.89619975089294,
neutral,negative,1,k,k,,,,,1,9,27,7,,,,,,,,,,,,,,,,,,,,,,,,,,,,prac,2,2,1,negative,neutral,k,k,1,0.6959387003444135,156.05368330003694,157.07226860010996,157.05199280008674,None,156.05368330003694,None,156.05368330003694,None,156.05368330003694,None,157.71405530013143,None,157.71405530013143,None,157.71405530013143,None,,,,,,,,,,,101,22,Male,2022-04-27_15h38.55.923,Main,2022.1.1,59.89619975089294,
positive,negative,1,l,j,,,,,1,10,28,5,,,,,,,,,,,,,,,,,,,,,,,,,,,,prac,1,1,1,negative,positive,j,j,1,0.8392036999575794,157.73529900005087,158.74089450016618,158.7225350001827,None,157.73529900005087,None,157.73529900005087,None,157.73529900005087,None,159.55624449988827,None,159.55624449988827,None,159.55624449988827,None,,,,,,,,,,,101,22,Male,2022-04-27_15h38.55.923,Main,2022.1.1,59.89619975089294,
negative,negative,1,j,l,,,,,1,11,29,0,,,,,,,,,,,,,,,,,,,,,,,,,,,,prac,2,2,1,negative,negative,l,l,1,0.8310679001733661,159.57619750034064,160.59269200032577,160.55783369997516,None,159.57619750034064,None,159.57619750034064,None,159.57619750034064,None,161.3906134002842,None,161.3906134002842,None,161.3906134002842,None,,,,,,,,,,,101,22,Male,2022-04-27_15h38.55.923,Main,2022.1.1,59.89619975089294,
neutral,positive,2,k,k,,,,,1,12,30,13,,,,,,,,,,,,,,,,,,,,,,,,,,,,prac,1,1,2,positive,neutral,k,k,1,0.6789092002436519,161.40841610031202,162.4243208002299,162.40428090002388,None,161.40841610031202,None,161.40841610031202,None,161.40841610031202,None,163.0730287999846,None,163.0730287999846,None,163.0730287999846,None,,,,,,,,,,,101,22,Male,2022-04-27_15h38.55.923,Main,2022.1.1,59.89619975089294,
positive,positive,2,l,j,,,,,1,13,31,11,,,,,,,,,,,,,,,,,,,,,,,,,,,,prac,1,1,2,positive,positive,j,j,1,0.6585908001288772,163.09216509992257,164.0930515001528,164.07566510001197,None,163.09216509992257,None,163.09216509992257,None,163.09216509992257,None,164.73523650029674,None,164.73523650029674,None,164.73523650029674,None,,,,,,,,,,,101,22,Male,2022-04-27_15h38.55.923,Main,2022.1.1,59.89619975089294,
negative,neutral,1,j,l,,,,,1,14,32,3,,,,,,,,,,,,,,,,,,,,,,,,,,,,prac,1,1,1,neutral,negative,l,l,1,0.7688124999403954,164.7565625999123,165.75739930011332,165.74065130017698,None,164.7565625999123,None,164.7565625999123,None,164.7565625999123,None,166.5062759000808,None,166.5062759000808,None,166.5062759000808,None,,,,,,,,,,,101,22,Male,2022-04-27_15h38.55.923,Main,2022.1.1,59.89619975089294,
neutral,neutral,1,k,k,,,,,1,15,33,1,,,,,,,,,,,,,,,,,,,,,,,,,,,,prac,2,2,1,neutral,neutral,k,k,1,0.6299851001240313,166.52430030005053,167.52415629988536,167.5076433001086,None,166.52430030005053,None,166.52430030005053,None,166.52430030005053,None,168.13959570033475,None,168.13959570033475,None,168.13959570033475,None,,,,,,,,,,,101,22,Male,2022-04-27_15h38.55.923,Main,2022.1.1,59.89619975089294,
negative,positive,1,j,l,,,,,1,16,34,6,,,,,,,,,,,,,,,,,,,,,,,,,,,,prac,1,1,1,positive,negative,l,l,1,0.7112459000200033,168.15957360016182,169.17722800001502,169.14164640009403,None,168.15957360016182,None,168.15957360016182,None,168.15957360016182,None,169.8537752999924,None,169.8537752999924,None,169.8537752999924,None,,,,,,,,,,,101,22,Male,2022-04-27_15h38.55.923,Main,2022.1.1,59.89619975089294,
neutral,positive,1,k,k,,,,,1,17,35,4,,,,,,,,,,,,,,,,,,,,,,,,,,,,prac,1,1,1,positive,neutral,k,k,1,0.655247500166297,169.87299450021237,170.87612299993634,170.85859850002453,None,169.87299450021237,None,169.87299450021237,None,169.87299450021237,None,171.51011100029572,None,171.51011100029572,None,171.51011100029572,None,,,,,,,,,,,101,22,Male,2022-04-27_15h38.55.923,Main,2022.1.1,59.89619975089294,
,,,,,,,,,,,,,,,,,,,,,,,,,,,,,,,,,,,,,,,,,,,,,,,,,,,,,,,,,,,,,,,,,,171.52627430018038,None,None,,,,,,,,101,22,Male,2022-04-27_15h38.55.923,Main,2022.1.1,59.89619975089294,
,,,,,,,,,,,,,,,,,,,,,,,,,,,,,,,,,,,,,,,,,,,,,,,,,,,,,,,,,,,,,,,,,,,,,0.15555556,-0.26574075,1,0,0,0.0049959998577833176,None,101,22,Male,2022-04-27_15h38.55.923,Main,2022.1.1,59.89619975089294,
negative,neutral,1,j,l,,,,,,,,,0,0,0,3,,,,,,,,,,,,,,,,,,,,,,181.88612750032917,None,main,2,2,1,neutral,negative,l,l,1,0.7773023000918329,183.9106875001453,184.91553690005094,184.89727080008015,None,183.9106875001453,None,183.9106875001453,None,183.9106875001453,None,185.66727490015327,None,185.66727490015327,None,185.66727490015327,None,,,,,,,,,,,101,22,Male,2022-04-27_15h38.55.923,Main,2022.1.1,59.89619975089294,
negative,neutral,2,j,l,,,,,,,,,0,1,1,12,,,,,,,,,,,,,,,,,,,,,,,,main,1,1,2,neutral,negative,l,l,1,0.6709654997102916,185.69070990011096,186.69160050014034,186.6747436001897,None,185.69070990011096,None,185.69070990011096,None,185.69070990011096,None,187.34156130012124,None,187.34156130012124,None,187.34156130012124,None,,,,,,,,,,,101,22,Male,2022-04-27_15h38.55.923,Main,2022.1.1,59.89619975089294,
neutral,positive,2,k,k,,,,,,,,,0,2,2,13,,,,,,,,,,,,,,,,,,,,,,,,main,2,2,2,positive,neutral,k,k,1,0.6193703003227711,187.360474599991,188.37505970010534,188.3366470001638,None,187.360474599991,None,187.360474599991,None,187.360474599991,None,188.96370890028774,None,188.96370890028774,None,188.96370890028774,None,,,,,,,,,,,101,22,Male,2022-04-27_15h38.55.923,Main,2022.1.1,59.89619975089294,
positive,neutral,1,l,j,,,,,,,,,0,3,3,8,,,,,,,,,,,,,,,,,,,,,,,,main,1,1,1,neutral,positive,j,j,1,0.7287200000137091,188.98637429997325,190.00712520023808,189.9651546999812,None,188.98637429997325,None,188.98637429997325,None,188.98637429997325,None,190.69775179997086,None,190.69775179997086,None,190.69775179997086,None,,,,,,,,,,,101,22,Male,2022-04-27_15h38.55.923,Main,2022.1.1,59.89619975089294,
negative,negative,2,j,l,,,,,,,,,0,4,4,9,,,,,,,,,,,,,,,,,,,,,,,,main,1,1,2,negative,negative,l,l,1,0.6571474997326732,190.72037929994985,191.72492770012468,191.7064376999624,None,190.72037929994985,None,190.72037929994985,None,190.72037929994985,None,192.35814669998362,None,192.35814669998362,None,192.35814669998362,None,,,,,,,,,,,101,22,Male,2022-04-27_15h38.55.923,Main,2022.1.1,59.89619975089294,
negative,positive,1,j,l,,,,,,,,,0,5,5,6,,,,,,,,,,,,,,,,,,,,,,,,main,2,2,1,positive,negative,l,l,1,0.7038476001471281,192.37509080022573,193.3919482002966,193.35322759998962,None,192.37509080022573,None,192.37509080022573,None,192.37509080022573,None,194.06360199991613,None,194.06360199991613,None,194.06360199991613,None,,,,,,,,,,,101,22,Male,2022-04-27_15h38.55.923,Main,2022.1.1,59.89619975089294,
neutral,neutral,1,k,k,,,,,,,,,0,6,6,1,,,,,,,,,,,,,,,,,,,,,,,,main,1,1,1,neutral,neutral,k,k,1,0.689209199976176,194.08409029990435,195.09988400014117,195.0582973002456,None,194.08409029990435,None,194.08409029990435,None,194.08409029990435,None,195.7568867000751,None,195.7568867000751,None,195.7568867000751,None,,,,,,,,,,,101,22,Male,2022-04-27_15h38.55.923,Main,2022.1.1,59.89619975089294,
positive,negative,2,l,j,,,,,,,,,0,7,7,14,,,,,,,,,,,,,,,,,,,,,,,,main,2,2,2,negative,positive,j,j,1,0.6902600000612438,195.77618200005963,196.79152350034565,196.75306309992447,None,195.77618200005963,None,195.77618200005963,None,195.77618200005963,None,197.45119500011205,None,197.45119500011205,None,197.45119500011205,None,,,,,,,,,,,101,22,Male,2022-04-27_15h38.55.923,Main,2022.1.1,59.89619975089294,
negative,negative,1,j,l,,,,,,,,,0,8,8,0,,,,,,,,,,,,,,,,,,,,,,,,main,2,2,1,negative,negative,l,l,1,0.6534017003141344,197.4730894002132,198.477093399968,198.45898779993877,None,197.4730894002132,None,197.4730894002132,None,197.4730894002132,None,199.10703640002757,None,199.10703640002757,None,199.10703640002757,None,,,,,,,,,,,101,22,Male,2022-04-27_15h38.55.923,Main,2022.1.1,59.89619975089294,
positive,positive,1,l,j,,,,,,,,,0,9,9,2,,,,,,,,,,,,,,,,,,,,,,,,main,2,2,1,positive,positive,j,j,1,0.6619347003288567,199.12577280029655,200.14323320006952,200.1079810000956,None,199.12577280029655,None,199.12577280029655,None,199.12577280029655,None,200.7730448999442,None,200.7730448999442,None,200.7730448999442,None,,,,,,,,,,,101,22,Male,2022-04-27_15h38.55.923,Main,2022.1.1,59.89619975089294,
neutral,neutral,2,k,k,,,,,,,,,0,10,10,10,,,,,,,,,,,,,,,,,,,,,,,,main,2,2,2,neutral,neutral,k,k,1,0.6292197001166642,200.79079720005393,201.80683739995584,201.78651749994606,None,200.79079720005393,None,200.79079720005393,None,200.79079720005393,None,202.4055980000645,None,202.4055980000645,None,202.4055980000645,None,,,,,,,,,,,101,22,Male,2022-04-27_15h38.55.923,Main,2022.1.1,59.89619975089294,
neutral,negative,2,k,k,,,,,,,,,0,11,11,16,,,,,,,,,,,,,,,,,,,,,,,,main,1,1,2,negative,neutral,k,k,1,0.7100653001107275,202.42496380023658,203.426900499966,203.40838079992682,None,202.42496380023658,None,202.42496380023658,None,202.42496380023658,None,204.11787410024553,None,204.11787410024553,None,204.11787410024553,None,,,,,,,,,,,101,22,Male,2022-04-27_15h38.55.923,Main,2022.1.1,59.89619975089294,
neutral,positive,1,k,k,,,,,,,,,0,12,12,4,,,,,,,,,,,,,,,,,,,,,,,,main,1,1,1,positive,neutral,k,k,1,0.6428941003978252,204.14090069988742,205.1420284002088,205.12520210025832,None,204.14090069988742,None,204.14090069988742,None,204.14090069988742,None,205.7620360002853,None,205.7620360002853,None,205.7620360002853,None,,,,,,,,,,,101,22,Male,2022-04-27_15h38.55.923,Main,2022.1.1,59.89619975089294,
positive,positive,2,l,j,,,,,,,,,0,13,13,11,,,,,,,,,,,,,,,,,,,,,,,,main,1,1,2,positive,positive,j,j,1,0.7135179000906646,205.78168389992788,206.79399539995939,206.75823340006173,None,205.78168389992788,None,205.78168389992788,None,205.78168389992788,None,207.4780835000798,None,207.4780835000798,None,207.4780835000798,None,,,,,,,,,,,101,22,Male,2022-04-27_15h38.55.923,Main,2022.1.1,59.89619975089294,
negative,positive,2,j,l,,,,,,,,,0,14,14,15,,,,,,,,,,,,,,,,,,,,,,,,main,1,1,2,positive,negative,l,l,1,0.6853252002038062,207.4983836999163,208.51645500026643,208.47649840032682,None,207.4983836999163,None,207.4983836999163,None,207.4983836999163,None,209.16819890020415,None,209.16819890020415,None,209.16819890020415,None,,,,,,,,,,,101,22,Male,2022-04-27_15h38.55.923,Main,2022.1.1,59.89619975089294,
positive,negative,1,l,j,,,,,,,,,0,15,15,5,,,,,,,,,,,,,,,,,,,,,,,,main,2,2,1,negative,positive,j,j,1,0.7673454997129738,209.1897582001984,210.2084091003053,210.17004689993337,None,209.1897582001984,None,209.1897582001984,None,209.1897582001984,None,210.93767040027305,None,210.93767040027305,None,210.93767040027305,None,,,,,,,,,,,101,22,Male,2022-04-27_15h38.55.923,Main,2022.1.1,59.89619975089294,
neutral,negative,1,k,k,,,,,,,,,0,16,16,7,,,,,,,,,,,,,,,,,,,,,,,,main,2,2,1,negative,neutral,k,k,1,0.6021130997687578,210.9571227999404,211.958911200054,211.9420151002705,None,210.9571227999404,None,210.9571227999404,None,210.9571227999404,None,212.54197029992937,None,212.54197029992937,None,212.54197029992937,None,,,,,,,,,,,101,22,Male,2022-04-27_15h38.55.923,Main,2022.1.1,59.89619975089294,
positive,neutral,2,l,j,,,,,,,,,0,17,17,17,,,,,,,,,,,,,,,,,,,,,,,,main,1,1,2,neutral,positive,j,j,1,0.5737645998597145,212.56158749992028,213.57922410033643,213.53654289990664,None,212.56158749992028,None,212.56158749992028,None,212.56158749992028,None,214.1206259000115,None,214.1206259000115,None,214.1206259000115,None,,,,,,,,,,,101,22,Male,2022-04-27_15h38.55.923,Main,2022.1.1,59.89619975089294,
neutral,neutral,1,k,k,,,,,,,,,1,0,18,1,,,,,,,,,,,,,,,,,,,,,,,,main,2,2,1,neutral,neutral,k,k,1,0.59975970024243,214.14061579992995,215.14214960020036,215.12541630025953,None,214.14061579992995,None,214.14061579992995,None,214.14061579992995,None,215.72269530026242,None,215.72269530026242,None,215.72269530026242,None,,,,,,,,,,,101,22,Male,2022-04-27_15h38.55.923,Main,2022.1.1,59.89619975089294,
positive,neutral,2,l,j,,,,,,,,,1,1,19,17,,,,,,,,,,,,,,,,,,,,,,,,main,2,2,2,neutral,positive,j,j,1,0.6639847001060843,215.74117030017078,216.74342820001766,216.72534450003877,None,215.74117030017078,None,215.74117030017078,None,215.74117030017078,None,217.3897415999323,None,217.3897415999323,None,217.3897415999323,None,,,,,,,,,,,101,22,Male,2022-04-27_15h38.55.923,Main,2022.1.1,59.89619975089294,
negative,positive,1,j,l,,,,,,,,,1,2,20,6,,,,,,,,,,,,,,,,,,,,,,,,main,2,2,1,positive,negative,l,l,1,0.7140673003159463,217.4091163002886,218.41674520028755,218.39693990023807,None,217.4091163002886,None,217.4091163002886,None,217.4091163002886,None,219.10748730031773,None,219.10748730031773,None,219.10748730031773,None,,,,,,,,,,,101,22,Male,2022-04-27_15h38.55.923,Main,2022.1.1,59.89619975089294,
neutral,negative,1,k,k,,,,,,,,,1,3,21,7,,,,,,,,,,,,,,,,,,,,,,,,main,2,2,1,negative,neutral,k,k,1,0.6067273002117872,219.12649459997192,220.12860230030492,220.11090470012277,None,219.12649459997192,None,219.12649459997192,None,219.12649459997192,None,220.71803650017827,None,220.71803650017827,None,220.71803650017827,None,,,,,,,,,,,101,22,Male,2022-04-27_15h38.55.923,Main,2022.1.1,59.89619975089294,
positive,positive,1,l,j,,,,,,,,,1,4,22,2,,,,,,,,,,,,,,,,,,,,,,,,main,2,2,1,positive,positive,j,j,1,0.6024962002411485,220.73650770029053,221.73989100009203,221.72016060026363,None,220.73650770029053,None,220.73650770029053,None,220.73650770029053,None,222.32385520022362,None,222.32385520022362,None,222.32385520022362,None,,,,,,,,,,,101,22,Male,2022-04-27_15h38.55.923,Main,2022.1.1,59.89619975089294,
neutral,positive,1,k,k,,,,,,,,,1,5,23,4,,,,,,,,,,,,,,,,,,,,,,,,main,1,1,1,positive,neutral,k,k,1,0.629494299646467,222.34154920000583,223.34224350005388,223.3239818001166,None,222.34154920000583,None,222.34154920000583,None,222.34154920000583,None,223.95591799998655,None,223.95591799998655,None,223.95591799998655,None,,,,,,,,,,,101,22,Male,2022-04-27_15h38.55.923,Main,2022.1.1,59.89619975089294,
positive,negative,1,l,j,,,,,,,,,1,6,24,5,,,,,,,,,,,,,,,,,,,,,,,,main,1,1,1,negative,positive,j,j,1,0.6683594998903573,223.97428370034322,224.97654480021447,224.95888150017709,None,223.97428370034322,None,223.97428370034322,None,223.97428370034322,None,225.6258256001398,None,225.6258256001398,None,225.6258256001398,None,,,,,,,,,,,101,22,Male,2022-04-27_15h38.55.923,Main,2022.1.1,59.89619975089294,
negative,neutral,1,j,l,,,,,,,,,1,7,25,3,,,,,,,,,,,,,,,,,,,,,,,,main,2,2,1,neutral,negative,l,l,1,0.6845883000642061,225.64514710009098,226.66690560011193,226.63872419996187,None,225.64514710009098,None,225.64514710009098,None,225.64514710009098,None,227.31309390012174,None,227.31309390012174,None,227.31309390012174,None,,,,,,,,,,,101,22,Male,2022-04-27_15h38.55.923,Main,2022.1.1,59.89619975089294,
negative,positive,2,j,l,,,,,,,,,1,8,26,15,,,,,,,,,,,,,,,,,,,,,,,,main,1,1,2,positive,negative,l,l,1,0.7556361998431385,227.33165280008689,228.34325799997896,228.30868620006368,None,227.33165280008689,None,227.33165280008689,None,227.33165280008689,None,229.07267970023676,None,229.07267970023676,None,229.07267970023676,None,,,,,,,,,,,101,22,Male,2022-04-27_15h38.55.923,Main,2022.1.1,59.89619975089294,
positive,positive,2,l,j,,,,,,,,,1,9,27,11,,,,,,,,,,,,,,,,,,,,,,,,main,1,1,2,positive,positive,j,j,1,0.6764002996496856,229.09116500010714,230.11712610023096,230.07044780021533,None,229.09116500010714,None,229.09116500010714,None,229.09116500010714,None,230.75254090027883,None,230.75254090027883,None,230.75254090027883,None,,,,,,,,,,,101,22,Male,2022-04-27_15h38.55.923,Main,2022.1.1,59.89619975089294,
neutral,positive,2,k,k,,,,,,,,,1,10,28,13,,,,,,,,,,,,,,,,,,,,,,,,main,2,2,2,positive,neutral,k,k,1,0.600110299885273,230.77420850005,231.79239779990166,231.75388760026544,None,230.77420850005,None,230.77420850005,None,230.77420850005,None,232.35457810005173,None,232.35457810005173,None,232.35457810005173,None,,,,,,,,,,,101,22,Male,2022-04-27_15h38.55.923,Main,2022.1.1,59.89619975089294,
neutral,neutral,2,k,k,,,,,,,,,1,11,29,10,,,,,,,,,,,,,,,,,,,,,,,,main,1,1,2,neutral,neutral,k,k,1,0.6852489998564124,232.37456210004166,233.38132810033858,233.36289330013096,None,232.37456210004166,None,232.37456210004166,None,232.37456210004166,None,234.04275020016357,None,234.04275020016357,None,234.04275020016357,None,,,,,,,,,,,101,22,Male,2022-04-27_15h38.55.923,Main,2022.1.1,59.89619975089294,
positive,neutral,1,l,j,,,,,,,,,1,12,30,8,,,,,,,,,,,,,,,,,,,,,,,,main,2,2,1,neutral,positive,j,j,1,0.5952853001654148,234.06004839995876,235.07599809998646,235.04228210030124,None,234.06004839995876,None,234.06004839995876,None,234.06004839995876,None,235.64083409998565,None,235.64083409998565,None,235.64083409998565,None,,,,,,,,,,,101,22,Male,2022-04-27_15h38.55.923,Main,2022.1.1,59.89619975089294,
negative,negative,1,j,l,,,,,,,,,1,13,31,0,,,,,,,,,,,,,,,,,,,,,,,,main,2,2,1,negative,negative,l,l,1,0.667266100179404,235.66080499999225,236.66277390019968,236.6445679999888,None,235.66080499999225,None,235.66080499999225,None,235.66080499999225,None,237.31060030022635,None,237.31060030022635,None,237.31060030022635,None,,,,,,,,,,,101,22,Male,2022-04-27_15h38.55.923,Main,2022.1.1,59.89619975089294,
neutral,negative,2,k,k,,,,,,,,,1,14,32,16,,,,,,,,,,,,,,,,,,,,,,,,main,1,1,2,negative,neutral,k,k,1,0.5507201002910733,237.3293157001026,238.34391270019114,238.30925639998168,None,237.3293157001026,None,237.3293157001026,None,237.3293157001026,None,238.8660558000207,None,238.8660558000207,None,238.8660558000207,None,,,,,,,,,,,101,22,Male,2022-04-27_15h38.55.923,Main,2022.1.1,59.89619975089294,
negative,neutral,2,j,l,,,,,,,,,1,15,33,12,,,,,,,,,,,,,,,,,,,,,,,,main,2,2,2,neutral,negative,l,l,1,0.659608299843967,238.8845148999244,239.8990461002104,239.86119170021266,None,238.8845148999244,None,238.8845148999244,None,238.8845148999244,None,240.5260921003297,None,240.5260921003297,None,240.5260921003297,None,,,,,,,,,,,101,22,Male,2022-04-27_15h38.55.923,Main,2022.1.1,59.89619975089294,
negative,negative,2,j,l,,,,,,,,,1,16,34,9,,,,,,,,,,,,,,,,,,,,,,,,main,1,1,2,negative,negative,l,l,1,0.6812018002383411,240.54614889994264,241.54907360021025,241.53245089994743,None,240.54614889994264,None,240.54614889994264,None,240.54614889994264,None,242.20992310009896,None,242.20992310009896,None,242.20992310009896,None,,,,,,,,,,,101,22,Male,2022-04-27_15h38.55.923,Main,2022.1.1,59.89619975089294,
positive,negative,2,l,j,,,,,,,,,1,17,35,14,,,,,,,,,,,,,,,,,,,,,,,,main,1,1,2,negative,positive,j,j,1,0.7185502997599542,242.23007229994982,243.2385618002154,243.2178507000208,None,242.23007229994982,None,242.23007229994982,None,242.23007229994982,None,243.93277460001408,None,243.93277460001408,None,243.93277460001408,None,,,,,,,,,,,101,22,Male,2022-04-27_15h38.55.923,Main,2022.1.1,59.89619975089294,
negative,neutral,2,j,l,,,,,,,,,2,0,36,12,,,,,,,,,,,,,,,,,,,,,,,,main,1,1,2,neutral,negative,l,l,1,0.6554132997989655,243.95184700004756,244.96424550004303,244.92759330011904,None,243.95184700004756,None,243.95184700004756,None,243.95184700004756,None,245.5912086999975,None,245.5912086999975,None,245.5912086999975,None,,,,,,,,,,,101,22,Male,2022-04-27_15h38.55.923,Main,2022.1.1,59.89619975089294,
negative,positive,2,j,l,,,,,,,,,2,1,37,15,,,,,,,,,,,,,,,,,,,,,,,,main,2,2,2,positive,negative,l,l,1,0.5674219001084566,245.6102297999896,246.61211800016463,246.59409590018913,None,245.6102297999896,None,245.6102297999896,None,245.6102297999896,None,247.15936780013143,None,247.15936780013143,None,247.15936780013143,None,,,,,,,,,,,101,22,Male,2022-04-27_15h38.55.923,Main,2022.1.1,59.89619975089294,
positive,neutral,2,l,j,,,,,,,,,2,2,38,17,,,,,,,,,,,,,,,,,,,,,,,,main,1,1,2,neutral,positive,j,j,1,0.7074203998781741,247.17982250032946,248.19429340027273,248.15935910027474,None,247.17982250032946,None,247.17982250032946,None,247.17982250032946,None,248.8730586999096,None,248.8730586999096,None,248.8730586999096,None,,,,,,,,,,,101,22,Male,2022-04-27_15h38.55.923,Main,2022.1.1,59.89619975089294,
neutral,negative,1,k,k,,,,,,,,,2,3,39,7,,,,,,,,,,,,,,,,,,,,,,,,main,1,1,1,negative,neutral,k,k,1,0.5509003000333905,248.89255440002307,249.9078045003116,249.86632389994338,None,248.89255440002307,None,248.89255440002307,None,248.89255440002307,None,250.42603570027276,None,250.42603570027276,None,250.42603570027276,None,,,,,,,,,,,101,22,Male,2022-04-27_15h38.55.923,Main,2022.1.1,59.89619975089294,
neutral,neutral,1,k,k,,,,,,,,,2,4,40,1,,,,,,,,,,,,,,,,,,,,,,,,main,2,2,1,neutral,neutral,k,k,1,0.7115767998620868,250.44612159999087,251.46037620026618,251.42409230023623,None,250.44612159999087,None,250.44612159999087,None,250.44612159999087,None,252.1419614999555,None,252.1419614999555,None,252.1419614999555,None,,,,,,,,,,,101,22,Male,2022-04-27_15h38.55.923,Main,2022.1.1,59.89619975089294,
neutral,neutral,2,k,k,,,,,,,,,2,5,41,10,,,,,,,,,,,,,,,,,,,,,,,,main,1,1,2,neutral,neutral,k,k,1,0.6971072000451386,252.16062990017235,253.17881940025836,253.14288750011474,None,252.16062990017235,None,252.16062990017235,None,252.16062990017235,None,253.84286760017275,None,253.84286760017275,None,253.84286760017275,None,,,,,,,,,,,101,22,Male,2022-04-27_15h38.55.923,Main,2022.1.1,59.89619975089294,
neutral,positive,2,k,k,,,,,,,,,2,6,42,13,,,,,,,,,,,,,,,,,,,,,,,,main,2,2,2,positive,neutral,k,k,1,0.5492593003436923,253.86217690026388,254.8640066003427,254.84565789997578,None,253.86217690026388,None,253.86217690026388,None,253.86217690026388,None,255.39475570004433,None,255.39475570004433,None,255.39475570004433,None,,,,,,,,,,,101,22,Male,2022-04-27_15h38.55.923,Main,2022.1.1,59.89619975089294,
positive,neutral,1,l,j,,,,,,,,,2,7,43,8,,,,,,,,,,,,,,,,,,,,,,,,main,2,2,1,neutral,positive,j,j,1,0.7299607000313699,255.41408570017666,256.4252431001514,256.40500329993665,None,255.41408570017666,None,255.41408570017666,None,255.41408570017666,None,257.12675670012834,None,257.12675670012834,None,257.12675670012834,None,,,,,,,,,,,101,22,Male,2022-04-27_15h38.55.923,Main,2022.1.1,59.89619975089294,
negative,negative,1,j,l,,,,,,,,,2,8,44,0,,,,,,,,,,,,,,,,,,,,,,,,main,2,2,1,negative,negative,l,l,1,0.6228462001308799,257.14714820031077,258.1597140002996,258.12429600022733,None,257.14714820031077,None,257.14714820031077,None,257.14714820031077,None,258.754456099961,None,258.754456099961,None,258.754456099961,None,,,,,,,,,,,101,22,Male,2022-04-27_15h38.55.923,Main,2022.1.1,59.89619975089294,
negative,positive,1,j,l,,,,,,,,,2,9,45,6,,,,,,,,,,,,,,,,,,,,,,,,main,2,2,1,positive,negative,l,l,1,0.628936399705708,258.77460859995335,259.78371770028025,259.74666450032964,None,258.77460859995335,None,258.77460859995335,None,258.77460859995335,None,260.38591920016336,None,260.38591920016336,None,260.38591920016336,None,,,,,,,,,,,101,22,Male,2022-04-27_15h38.55.923,Main,2022.1.1,59.89619975089294,
negative,negative,2,j,l,,,,,,,,,2,10,46,9,,,,,,,,,,,,,,,,,,,,,,,,main,2,2,2,negative,negative,l,l,1,0.6437769001349807,260.4087721002288,261.41382279992104,261.377919100225,None,260.4087721002288,None,260.4087721002288,None,260.4087721002288,None,262.0313773000613,None,262.0313773000613,None,262.0313773000613,None,,,,,,,,,,,101,22,Male,2022-04-27_15h38.55.923,Main,2022.1.1,59.89619975089294,
neutral,negative,2,k,k,,,,,,,,,2,11,47,16,,,,,,,,,,,,,,,,,,,,,,,,main,2,2,2,negative,neutral,k,k,1,0.5678933002054691,262.0538786002435,263.06322410004213,263.02652209997177,None,262.0538786002435,None,262.0538786002435,None,262.0538786002435,None,263.6036748000421,None,263.6036748000421,None,263.6036748000421,None,,,,,,,,,,,101,22,Male,2022-04-27_15h38.55.923,Main,2022.1.1,59.89619975089294,
neutral,positive,1,k,k,,,,,,,,,2,12,48,4,,,,,,,,,,,,,,,,,,,,,,,,main,2,2,1,positive,neutral,k,k,1,0.6750640003010631,263.6251023001969,264.6429924000986,264.60454330034554,None,263.6251023001969,None,263.6251023001969,None,263.6251023001969,None,265.2815248001367,None,265.2815248001367,None,265.2815248001367,None,,,,,,,,,,,101,22,Male,2022-04-27_15h38.55.923,Main,2022.1.1,59.89619975089294,
positive,positive,2,l,j,,,,,,,,,2,13,49,11,,,,,,,,,,,,,,,,,,,,,,,,main,2,2,2,positive,positive,j,j,1,0.6729872999712825,265.3048697002232,266.31134130014107,266.2765973000787,None,265.3048697002232,None,265.3048697002232,None,265.3048697002232,None,266.9583595999517,None,266.9583595999517,None,266.9583595999517,None,,,,,,,,,,,101,22,Male,2022-04-27_15h38.55.923,Main,2022.1.1,59.89619975089294,
positive,negative,1,l,j,,,,,,,,,2,14,50,5,,,,,,,,,,,,,,,,,,,,,,,,main,2,2,1,negative,positive,j,j,1,0.8449853998608887,266.97582940012217,267.99312510015443,267.9544967999682,None,266.97582940012217,None,266.97582940012217,None,266.97582940012217,None,268.80465790014716,None,268.80465790014716,None,268.80465790014716,None,,,,,,,,,,,101,22,Male,2022-04-27_15h38.55.923,Main,2022.1.1,59.89619975089294,
positive,positive,1,l,j,,,,,,,,,2,15,51,2,,,,,,,,,,,,,,,,,,,,,,,,main,1,1,1,positive,positive,j,j,1,0.6521607004106045,268.82750699995086,269.82751200022176,269.8100939001888,None,268.82750699995086,None,268.82750699995086,None,268.82750699995086,None,270.46103929998355,None,270.46103929998355,None,270.46103929998355,None,,,,,,,,,,,101,22,Male,2022-04-27_15h38.55.923,Main,2022.1.1,59.89619975089294,
negative,neutral,1,j,l,,,,,,,,,2,16,52,3,,,,,,,,,,,,,,,,,,,,,,,,main,2,2,1,neutral,negative,l,l,1,0.619216600432992,270.48158759996295,271.49362460011616,271.45964620029554,None,270.48158759996295,None,270.48158759996295,None,270.48158759996295,None,272.0838021001779,None,272.0838021001779,None,272.0838021001779,None,,,,,,,,,,,101,22,Male,2022-04-27_15h38.55.923,Main,2022.1.1,59.89619975089294,
positive,negative,2,l,j,,,,,,,,,2,17,53,14,,,,,,,,,,,,,,,,,,,,,,,,main,2,2,2,negative,positive,j,j,1,1.0017147003673017,272.1043644002639,273.11047580000013,273.0931239002384,None,272.1043644002639,None,272.1043644002639,None,272.1043644002639,None,274.088588700071,None,274.088588700071,None,274.088588700071,None,,,,,,,,,,,101,22,Male,2022-04-27_15h38.55.923,Main,2022.1.1,59.89619975089294,
negative,negative,1,j,l,,,,,,,,,3,0,54,0,,,,,,,,,,,,,,,,,,,,,,,,main,2,2,1,negative,negative,l,l,1,0.7007690002210438,274.10868730023503,275.1269690003246,275.08351760031655,None,274.10868730023503,None,274.10868730023503,None,274.10868730023503,None,275.79198339991274,None,275.79198339991274,None,275.79198339991274,None,,,,,,,,,,,101,22,Male,2022-04-27_15h38.55.923,Main,2022.1.1,59.89619975089294,
negative,positive,1,j,l,,,,,,,,,3,1,55,6,,,,,,,,,,,,,,,,,,,,,,,,main,2,2,1,positive,negative,l,l,1,0.554105400107801,275.81116800010204,276.82896140031517,276.7929306998849,None,275.81116800010204,None,275.81116800010204,None,275.81116800010204,None,277.35000340025874,None,277.35000340025874,None,277.35000340025874,None,,,,,,,,,,,101,22,Male,2022-04-27_15h38.55.923,Main,2022.1.1,59.89619975089294,
neutral,positive,2,k,k,,,,,,,,,3,2,56,13,,,,,,,,,,,,,,,,,,,,,,,,main,1,1,2,positive,neutral,k,k,1,0.6281449003145099,277.3680815002881,278.3793764002621,278.3426846000366,None,277.3680815002881,None,277.3680815002881,None,277.3680815002881,None,278.97909319996836,None,278.97909319996836,None,278.97909319996836,None,,,,,,,,,,,101,22,Male,2022-04-27_15h38.55.923,Main,2022.1.1,59.89619975089294,
neutral,positive,1,k,k,,,,,,,,,3,3,57,4,,,,,,,,,,,,,,,,,,,,,,,,main,2,2,1,positive,neutral,k,k,1,0.6822168002836406,278.9998026001267,280.01071540033445,279.99302940024063,None,278.9998026001267,None,278.9998026001267,None,278.9998026001267,None,280.6638465001248,None,280.6638465001248,None,280.6638465001248,None,,,,,,,,,,,101,22,Male,2022-04-27_15h38.55.923,Main,2022.1.1,59.89619975089294,
positive,neutral,2,l,j,,,,,,,,,3,4,58,17,,,,,,,,,,,,,,,,,,,,,,,,main,2,2,2,neutral,positive,j,j,1,0.7375960000790656,280.6825263001956,281.6921872003004,281.6718542999588,None,280.6825263001956,None,280.6825263001956,None,280.6825263001956,None,282.40566360009836,None,282.40566360009836,None,282.40566360009836,None,,,,,,,,,,,101,22,Male,2022-04-27_15h38.55.923,Main,2022.1.1,59.89619975089294,
negative,neutral,2,j,l,,,,,,,,,3,5,59,12,,,,,,,,,,,,,,,,,,,,,,,,main,2,2,2,neutral,negative,l,l,1,0.7130701998248696,282.4272579001263,283.4434611001052,283.4040510999039,None,282.4272579001263,None,282.4272579001263,None,282.4272579001263,None,284.12034049993383,None,284.12034049993383,None,284.12034049993383,None,,,,,,,,,,,101,22,Male,2022-04-27_15h38.55.923,Main,2022.1.1,59.89619975089294,
positive,neutral,1,l,j,,,,,,,,,3,6,60,8,,,,,,,,,,,,,,,,,,,,,,,,main,2,2,1,neutral,positive,j,j,1,0.7080891001969576,284.1413151999004,285.1589369000867,285.13335100002587,None,284.1413151999004,None,284.1413151999004,None,284.1413151999004,None,285.8271580002271,None,285.8271580002271,None,285.8271580002271,None,,,,,,,,,,,101,22,Male,2022-04-27_15h38.55.923,Main,2022.1.1,59.89619975089294,
positive,negative,1,l,j,,,,,,,,,3,7,61,5,,,,,,,,,,,,,,,,,,,,,,,,main,1,1,1,negative,positive,j,j,1,0.7275384003296494,285.85840240027755,286.86579339997843,286.8475244999863,None,285.85840240027755,None,285.85840240027755,None,285.85840240027755,None,287.56059840032833,None,287.56059840032833,None,287.56059840032833,None,,,,,,,,,,,101,22,Male,2022-04-27_15h38.55.923,Main,2022.1.1,59.89619975089294,
neutral,negative,2,k,k,,,,,,,,,3,8,62,16,,,,,,,,,,,,,,,,,,,,,,,,main,2,2,2,negative,neutral,k,k,1,0.6024018996395171,287.58345329994336,288.6050368999131,288.5638946001418,None,287.58345329994336,None,287.58345329994336,None,287.58345329994336,None,289.16783069996166,None,289.16783069996166,None,289.16783069996166,None,,,,,,,,,,,101,22,Male,2022-04-27_15h38.55.923,Main,2022.1.1,59.89619975089294,
positive,positive,2,l,j,,,,,,,,,3,9,63,11,,,,,,,,,,,,,,,,,,,,,,,,main,2,2,2,positive,positive,j,j,1,0.7876842999830842,289.1918633999303,290.2097216001712,290.18645650008693,None,289.1918633999303,None,289.1918633999303,None,289.1918633999303,None,290.9601772002876,None,290.9601772002876,None,290.9601772002876,None,,,,,,,,,,,101,22,Male,2022-04-27_15h38.55.923,Main,2022.1.1,59.89619975089294,
neutral,neutral,1,k,k,,,,,,,,,3,10,64,1,,,,,,,,,,,,,,,,,,,,,,,,main,1,1,1,neutral,neutral,k,k,1,0.617327299900353,290.97844900004566,291.9928125999868,291.97225730028003,None,290.97844900004566,None,290.97844900004566,None,290.97844900004566,None,292.58009210033345,None,292.58009210033345,None,292.58009210033345,None,,,,,,,,,,,101,22,Male,2022-04-27_15h38.55.923,Main,2022.1.1,59.89619975089294,
neutral,negative,1,k,k,,,,,,,,,3,11,65,7,,,,,,,,,,,,,,,,,,,,,,,,main,1,1,1,negative,neutral,k,k,1,0.6396904997527599,292.5970628000796,293.61361550027505,293.57709400029853,None,292.5970628000796,None,292.5970628000796,None,292.5970628000796,None,294.2229596999474,None,294.2229596999474,None,294.2229596999474,None,,,,,,,,,,,101,22,Male,2022-04-27_15h38.55.923,Main,2022.1.1,59.89619975089294,
positive,positive,1,l,j,,,,,,,,,3,12,66,2,,,,,,,,,,,,,,,,,,,,,,,,main,1,1,1,positive,positive,j,j,1,0.7006151997484267,294.2425152999349,295.26231410028413,295.22251600027084,None,294.2425152999349,None,294.2425152999349,None,294.2425152999349,None,295.9259550002404,None,295.9259550002404,None,295.9259550002404,None,,,,,,,,,,,101,22,Male,2022-04-27_15h38.55.923,Main,2022.1.1,59.89619975089294,
positive,negative,2,l,j,,,,,,,,,3,13,67,14,,,,,,,,,,,,,,,,,,,,,,,,main,1,1,2,negative,positive,j,j,1,0.6723472001031041,295.94631829997525,296.94642780022696,296.928836800158,None,295.94631829997525,None,295.94631829997525,None,295.94631829997525,None,297.6028789001517,None,297.6028789001517,None,297.6028789001517,None,,,,,,,,,,,101,22,Male,2022-04-27_15h38.55.923,Main,2022.1.1,59.89619975089294,
neutral,neutral,2,k,k,,,,,,,,,3,14,68,10,,,,,,,,,,,,,,,,,,,,,,,,main,2,2,2,neutral,neutral,k,k,1,0.5833081002347171,297.6225850000046,298.6382522000931,298.59371010027826,None,297.6225850000046,None,297.6225850000046,None,297.6225850000046,None,299.18888230007144,None,299.18888230007144,None,299.18888230007144,None,,,,,,,,,,,101,22,Male,2022-04-27_15h38.55.923,Main,2022.1.1,59.89619975089294,
negative,positive,2,j,l,,,,,,,,,3,15,69,15,,,,,,,,,,,,,,,,,,,,,,,,main,2,2,2,positive,negative,l,l,1,0.5905363000929356,299.2082934002392,300.2104378999211,300.1929375003092,None,299.2082934002392,None,299.2082934002392,None,299.2082934002392,None,300.7811655000784,None,300.7811655000784,None,300.7811655000784,None,,,,,,,,,,,101,22,Male,2022-04-27_15h38.55.923,Main,2022.1.1,59.89619975089294,
negative,negative,2,j,l,,,,,,,,,3,16,70,9,,,,,,,,,,,,,,,,,,,,,,,,main,1,1,2,negative,negative,l,l,1,0.5717215002514422,300.7988503999077,301.8105758000165,301.7720837001689,None,300.7988503999077,None,300.7988503999077,None,300.7988503999077,None,302.35656590005385,None,302.35656590005385,None,302.35656590005385,None,,,,,,,,,,,101,22,Male,2022-04-27_15h38.55.923,Main,2022.1.1,59.89619975089294,
negative,neutral,1,j,l,,,,,,,,,3,17,71,3,,,,,,,,,,,,,,,,,,,,,,,,main,1,1,1,neutral,negative,l,l,1,0.6798336002975702,302.37571280030534,303.37807790003717,303.3609557002783,None,302.37571280030534,None,302.37571280030534,None,302.37571280030534,None,304.03927540024745,None,304.03927540024745,None,304.03927540024745,None,,,,,,,,,,,101,22,Male,2022-04-27_15h38.55.923,Main,2022.1.1,59.89619975089294,
positive,positive,2,l,j,,,,,,,,,4,0,72,11,,,,,,,,,,,,,,,,,,,,,,,,main,2,2,2,positive,positive,j,j,1,0.7072459999471903,304.05931660020724,305.0622908999212,305.0270986999385,None,304.05931660020724,None,304.05931660020724,None,304.05931660020724,None,305.7475562001579,None,305.7475562001579,None,305.7475562001579,None,,,,,,,,,,,101,22,Male,2022-04-27_15h38.55.923,Main,2022.1.1,59.89619975089294,
neutral,negative,2,k,k,,,,,,,,,4,1,73,16,,,,,,,,,,,,,,,,,,,,,,,,main,2,2,2,negative,neutral,k,k,1,0.6003618999384344,305.76613820018247,306.77536620013416,306.755447300151,None,305.76613820018247,None,305.76613820018247,None,305.76613820018247,None,307.35268239993604,None,307.35268239993604,None,307.35268239993604,None,,,,,,,,,,,101,22,Male,2022-04-27_15h38.55.923,Main,2022.1.1,59.89619975089294,
neutral,neutral,1,k,k,,,,,,,,,4,2,74,1,,,,,,,,,,,,,,,,,,,,,,,,main,1,1,1,neutral,neutral,k,k,1,0.68788590002805,307.3705838001333,308.38863820023835,308.3494027000852,None,307.3705838001333,None,307.3705838001333,None,307.3705838001333,None,309.042835399881,None,309.042835399881,None,309.042835399881,None,,,,,,,,,,,101,22,Male,2022-04-27_15h38.55.923,Main,2022.1.1,59.89619975089294,
negative,positive,1,j,l,,,,,,,,,4,3,75,6,,,,,,,,,,,,,,,,,,,,,,,,main,2,2,1,positive,negative,l,l,1,0.7386549999937415,309.06474750023335,310.0769083001651,310.03472559992224,None,309.06474750023335,None,309.06474750023335,None,309.06474750023335,None,310.7830434999429,None,310.7830434999429,None,310.7830434999429,None,,,,,,,,,,,101,22,Male,2022-04-27_15h38.55.923,Main,2022.1.1,59.89619975089294,
negative,negative,2,j,l,,,,,,,,,4,4,76,9,,,,,,,,,,,,,,,,,,,,,,,,main,1,1,2,negative,negative,l,l,1,0.6363631002604961,310.80230259988457,311.81145850010216,311.77743120025843,None,310.80230259988457,None,310.80230259988457,None,310.80230259988457,None,312.42492990000176,None,312.42492990000176,None,312.42492990000176,None,,,,,,,,,,,101,22,Male,2022-04-27_15h38.55.923,Main,2022.1.1,59.89619975089294,
positive,neutral,1,l,j,,,,,,,,,4,5,77,8,,,,,,,,,,,,,,,,,,,,,,,,main,2,2,1,neutral,positive,j,j,1,0.6821139003150165,312.4442445002496,313.4554938999936,313.43571860017255,None,312.4442445002496,None,312.4442445002496,None,312.4442445002496,None,314.11017000013965,None,314.11017000013965,None,314.11017000013965,None,,,,,,,,,,,101,22,Male,2022-04-27_15h38.55.923,Main,2022.1.1,59.89619975089294,
neutral,neutral,2,k,k,,,,,,,,,4,6,78,10,,,,,,,,,,,,,,,,,,,,,,,,main,1,1,2,neutral,neutral,k,k,1,0.6093274001032114,314.1281294003129,315.13030169997364,315.1120945001021,None,314.1281294003129,None,314.1281294003129,None,314.1281294003129,None,315.7228048000485,None,315.7228048000485,None,315.7228048000485,None,,,,,,,,,,,101,22,Male,2022-04-27_15h38.55.923,Main,2022.1.1,59.89619975089294,
positive,positive,1,l,j,,,,,,,,,4,7,79,2,,,,,,,,,,,,,,,,,,,,,,,,main,2,2,1,positive,positive,j,j,1,0.6244286000728607,315.7428629999049,316.74452530033886,316.7275145999156,None,315.7428629999049,None,315.7428629999049,None,315.7428629999049,None,317.3479647002183,None,317.3479647002183,None,317.3479647002183,None,,,,,,,,,,,101,22,Male,2022-04-27_15h38.55.923,Main,2022.1.1,59.89619975089294,
negative,neutral,2,j,l,,,,,,,,,4,8,80,12,,,,,,,,,,,,,,,,,,,,,,,,main,2,2,2,neutral,negative,l,l,1,0.7493676003068686,317.3671897002496,318.37392520019785,318.34990369994193,None,317.3671897002496,None,317.3671897002496,None,317.3671897002496,None,319.1010842001066,None,319.1010842001066,None,319.1010842001066,None,,,,,,,,,,,101,22,Male,2022-04-27_15h38.55.923,Main,2022.1.1,59.89619975089294,
positive,negative,2,l,j,,,,,,,,,4,9,81,14,,,,,,,,,,,,,,,,,,,,,,,,main,2,2,2,negative,positive,j,j,1,0.7013244000263512,319.12116930028424,320.1342202001251,320.09514580015093,None,319.12116930028424,None,319.12116930028424,None,319.12116930028424,None,320.80554700028154,None,320.80554700028154,None,320.80554700028154,None,,,,,,,,,,,101,22,Male,2022-04-27_15h38.55.923,Main,2022.1.1,59.89619975089294,
neutral,positive,2,k,k,,,,,,,,,4,10,82,13,,,,,,,,,,,,,,,,,,,,,,,,main,2,2,2,positive,neutral,k,k,1,0.5610977998003364,320.8262594998814,321.82831060001627,321.8102895002812,None,320.8262594998814,None,320.8262594998814,None,320.8262594998814,None,322.36981530012565,None,322.36981530012565,None,322.36981530012565,None,,,,,,,,,,,101,22,Male,2022-04-27_15h38.55.923,Main,2022.1.1,59.89619975089294,
negative,negative,1,j,l,,,,,,,,,4,11,83,0,,,,,,,,,,,,,,,,,,,,,,,,main,2,2,1,negative,negative,l,l,1,0.6346195000223815,322.3897839002311,323.3976871999912,323.3618838000111,None,322.3897839002311,None,322.3897839002311,None,322.3897839002311,None,324.00613170014697,None,324.00613170014697,None,324.00613170014697,None,,,,,,,,,,,101,22,Male,2022-04-27_15h38.55.923,Main,2022.1.1,59.89619975089294,
positive,negative,1,l,j,,,,,,,,,4,12,84,5,,,,,,,,,,,,,,,,,,,,,,,,main,1,1,1,negative,positive,j,j,1,0.669541500043124,324.02623090008274,325.04433010006323,325.02318560006097,None,324.02623090008274,None,324.02623090008274,None,324.02623090008274,None,325.677803300228,None,325.677803300228,None,325.677803300228,None,,,,,,,,,,,101,22,Male,2022-04-27_15h38.55.923,Main,2022.1.1,59.89619975089294,
neutral,positive,1,k,k,,,,,,,,,4,13,85,4,,,,,,,,,,,,,,,,,,,,,,,,main,1,1,1,positive,neutral,k,k,1,0.5968373999930918,325.69655690016225,326.71915070014074,326.67771860025823,None,325.69655690016225,None,325.69655690016225,None,325.69655690016225,None,327.27765960004183,None,327.27765960004183,None,327.27765960004183,None,,,,,,,,,,,101,22,Male,2022-04-27_15h38.55.923,Main,2022.1.1,59.89619975089294,
negative,neutral,1,j,l,,,,,,,,,4,14,86,3,,,,,,,,,,,,,,,,,,,,,,,,main,2,2,1,neutral,negative,l,l,1,0.6553438999690115,327.29625840019435,328.30591059988365,328.28587390016764,None,327.29625840019435,None,327.29625840019435,None,327.29625840019435,None,328.93644510013985,None,328.93644510013985,None,328.93644510013985,None,,,,,,,,,,,101,22,Male,2022-04-27_15h38.55.923,Main,2022.1.1,59.89619975089294,
positive,neutral,2,l,j,,,,,,,,,4,15,87,17,,,,,,,,,,,,,,,,,,,,,,,,main,1,1,2,neutral,positive,j,j,1,0.6737060002051294,328.9583083000034,329.960956200026,329.94422190031037,None,328.9583083000034,None,328.9583083000034,None,328.9583083000034,None,330.61093500014397,None,330.61093500014397,None,330.61093500014397,None,,,,,,,,,,,101,22,Male,2022-04-27_15h38.55.923,Main,2022.1.1,59.89619975089294,
negative,positive,2,j,l,,,,,,,,,4,16,88,15,,,,,,,,,,,,,,,,,,,,,,,,main,1,1,2,positive,negative,l,l,1,0.6968002002686262,330.63079690001905,331.6448229001835,331.60657030018046,None,330.63079690001905,None,330.63079690001905,None,330.63079690001905,None,332.31133610000836,None,332.31133610000836,None,332.31133610000836,None,,,,,,,,,,,101,22,Male,2022-04-27_15h38.55.923,Main,2022.1.1,59.89619975089294,
neutral,negative,1,k,k,,,,,,,,,4,17,89,7,,,,,,,,,,,,,,,,,,,,,,,,main,1,1,1,negative,neutral,k,k,1,0.6300583002157509,332.33074760017917,333.3445524000563,333.3058084999211,None,332.33074760017917,None,332.33074760017917,None,332.33074760017917,None,333.9443946000189,None,333.9443946000189,None,333.9443946000189,None,,,,,,,,,,,101,22,Male,2022-04-27_15h38.55.923,Main,2022.1.1,59.89619975089294,
positive,neutral,2,l,j,,,,,,,,,5,0,90,17,,,,,,,,,,,,,,,,,,,,,,,,main,2,2,2,neutral,positive,j,j,1,0.6688480000011623,333.9647403000854,334.9753800001927,334.95594640029594,None,333.9647403000854,None,333.9647403000854,None,333.9647403000854,None,335.616509400215,None,335.616509400215,None,335.616509400215,None,,,,,,,,,,,101,22,Male,2022-04-27_15h38.55.923,Main,2022.1.1,59.89619975089294,
neutral,neutral,1,k,k,,,,,,,,,5,1,91,1,,,,,,,,,,,,,,,,,,,,,,,,main,2,2,1,neutral,neutral,k,k,1,0.5824656998738647,335.6342508001253,336.6452084002085,336.6112454002723,None,335.6342508001253,None,335.6342508001253,None,335.6342508001253,None,337.20267970012503,None,337.20267970012503,None,337.20267970012503,None,,,,,,,,,,,101,22,Male,2022-04-27_15h38.55.923,Main,2022.1.1,59.89619975089294,
positive,neutral,1,l,j,,,,,,,,,5,2,92,8,,,,,,,,,,,,,,,,,,,,,,,,main,1,1,1,neutral,positive,j,j,1,0.6305761998519301,337.2204313999973,338.2282988000661,338.21132729994133,None,337.2204313999973,None,337.2204313999973,None,337.2204313999973,None,338.83451940016823,None,338.83451940016823,None,338.83451940016823,None,,,,,,,,,,,101,22,Male,2022-04-27_15h38.55.923,Main,2022.1.1,59.89619975089294,
positive,positive,2,l,j,,,,,,,,,5,3,93,11,,,,,,,,,,,,,,,,,,,,,,,,main,1,1,2,positive,positive,j,j,1,0.6566560999490321,338.85601430013776,339.8658453002572,339.82958360016346,None,338.85601430013776,None,338.85601430013776,None,338.85601430013776,None,340.4947000000626,None,340.4947000000626,None,340.4947000000626,None,,,,,,,,,,,101,22,Male,2022-04-27_15h38.55.923,Main,2022.1.1,59.89619975089294,
negative,neutral,2,j,l,,,,,,,,,5,4,94,12,,,,,,,,,,,,,,,,,,,,,,,,main,2,2,2,neutral,negative,l,l,1,0.622641199734062,340.51308540022,341.53091529989615,341.49465020000935,None,340.51308540022,None,340.51308540022,None,340.51308540022,None,342.11963730016726,None,342.11963730016726,None,342.11963730016726,None,,,,,,,,,,,101,22,Male,2022-04-27_15h38.55.923,Main,2022.1.1,59.89619975089294,
positive,negative,1,l,j,,,,,,,,,5,5,95,5,,,,,,,,,,,,,,,,,,,,,,,,main,1,1,1,negative,positive,j,j,1,0.7198809999972582,342.1386342002079,343.1622127001174,343.1186489001848,None,342.1386342002079,None,342.1386342002079,None,342.1386342002079,None,343.84341800017285,None,343.84341800017285,None,343.84341800017285,None,,,,,,,,,,,101,22,Male,2022-04-27_15h38.55.923,Main,2022.1.1,59.89619975089294,
neutral,positive,2,k,k,,,,,,,,,5,6,96,13,,,,,,,,,,,,,,,,,,,,,,,,main,2,2,2,positive,neutral,k,k,1,0.6200182000175118,343.86199710005894,344.87669839989394,344.8356357002631,None,343.86199710005894,None,343.86199710005894,None,343.86199710005894,None,345.46549089988696,None,345.46549089988696,None,345.46549089988696,None,,,,,,,,,,,101,22,Male,2022-04-27_15h38.55.923,Main,2022.1.1,59.89619975089294,
negative,negative,1,j,l,,,,,,,,,5,7,97,0,,,,,,,,,,,,,,,,,,,,,,,,main,1,1,1,negative,negative,l,l,1,0.6168064000084996,345.48600269993767,346.5027478002012,346.46180019993335,None,345.48600269993767,None,345.48600269993767,None,345.48600269993767,None,347.08570920014756,None,347.08570920014756,None,347.08570920014756,None,,,,,,,,,,,101,22,Male,2022-04-27_15h38.55.923,Main,2022.1.1,59.89619975089294,
neutral,positive,1,k,k,,,,,,,,,5,8,98,4,,,,,,,,,,,,,,,,,,,,,,,,main,2,2,1,positive,neutral,k,k,1,0.5798606998287141,347.1069068000652,348.11608080007136,348.07818780001253,None,347.1069068000652,None,347.1069068000652,None,347.1069068000652,None,348.66684610014784,None,348.66684610014784,None,348.66684610014784,None,,,,,,,,,,,101,22,Male,2022-04-27_15h38.55.923,Main,2022.1.1,59.89619975089294,
neutral,negative,1,k,k,,,,,,,,,5,9,99,7,,,,,,,,,,,,,,,,,,,,,,,,main,2,2,1,negative,neutral,k,k,1,0.6793832001276314,348.6860696999356,349.6960042999126,349.6615399001166,None,348.6860696999356,None,348.6860696999356,None,348.6860696999356,None,350.349140100088,None,350.349140100088,None,350.349140100088,None,,,,,,,,,,,101,22,Male,2022-04-27_15h38.55.923,Main,2022.1.1,59.89619975089294,
negative,positive,1,j,l,,,,,,,,,5,10,100,6,,,,,,,,,,,,,,,,,,,,,,,,main,1,1,1,positive,negative,l,l,1,0.5962434001266956,350.375045100227,351.3783460999839,351.36039120005444,None,350.375045100227,None,350.375045100227,None,350.375045100227,None,351.9486963999458,None,351.9486963999458,None,351.9486963999458,None,,,,,,,,,,,101,22,Male,2022-04-27_15h38.55.923,Main,2022.1.1,59.89619975089294,
negative,neutral,1,j,l,,,,,,,,,5,11,101,3,,,,,,,,,,,,,,,,,,,,,,,,main,1,1,1,neutral,negative,l,l,1,0.7155750999227166,351.96807330008596,352.98649309994653,352.9450640003197,None,351.96807330008596,None,351.96807330008596,None,351.96807330008596,None,353.667033499945,None,353.667033499945,None,353.667033499945,None,,,,,,,,,,,101,22,Male,2022-04-27_15h38.55.923,Main,2022.1.1,59.89619975089294,
positive,positive,1,l,j,,,,,,,,,5,12,102,2,,,,,,,,,,,,,,,,,,,,,,,,main,2,2,1,positive,positive,j,j,1,0.5977722001262009,353.68627460021526,354.7070279000327,354.6613340000622,None,353.68627460021526,None,353.68627460021526,None,353.68627460021526,None,355.2690969001502,None,355.2690969001502,None,355.2690969001502,None,,,,,,,,,,,101,22,Male,2022-04-27_15h38.55.923,Main,2022.1.1,59.89619975089294,
negative,negative,2,j,l,,,,,,,,,5,13,103,9,,,,,,,,,,,,,,,,,,,,,,,,main,2,2,2,negative,negative,l,l,1,0.622044499963522,355.2894851001911,356.2955145002343,356.278183599934,None,355.2894851001911,None,355.2894851001911,None,355.2894851001911,None,356.8947360002436,None,356.8947360002436,None,356.8947360002436,None,,,,,,,,,,,101,22,Male,2022-04-27_15h38.55.923,Main,2022.1.1,59.89619975089294,
negative,positive,2,j,l,,,,,,,,,5,14,104,15,,,,,,,,,,,,,,,,,,,,,,,,main,1,1,2,positive,negative,l,l,1,0.5923489998094738,356.9144411999732,357.9285254999995,357.889714400284,None,356.9144411999732,None,356.9144411999732,None,356.9144411999732,None,358.49072770019995,None,358.49072770019995,None,358.49072770019995,None,,,,,,,,,,,101,22,Male,2022-04-27_15h38.55.923,Main,2022.1.1,59.89619975089294,
neutral,neutral,2,k,k,,,,,,,,,5,15,105,10,,,,,,,,,,,,,,,,,,,,,,,,main,1,1,2,neutral,neutral,k,k,1,0.6105434000492096,358.5102071999572,359.51465849997476,359.49673420004547,None,358.5102071999572,None,358.5102071999572,None,358.5102071999572,None,360.1039959000424,None,360.1039959000424,None,360.1039959000424,None,,,,,,,,,,,101,22,Male,2022-04-27_15h38.55.923,Main,2022.1.1,59.89619975089294,
positive,negative,2,l,j,,,,,,,,,5,16,106,14,,,,,,,,,,,,,,,,,,,,,,,,main,1,1,2,negative,positive,j,j,1,0.6146053001284599,360.12598330015317,361.13998180022463,361.11977900005877,None,360.12598330015317,None,360.12598330015317,None,360.12598330015317,None,361.72193090002986,None,361.72193090002986,None,361.72193090002986,None,,,,,,,,,,,101,22,Male,2022-04-27_15h38.55.923,Main,2022.1.1,59.89619975089294,
neutral,negative,2,k,k,,,,,,,,,5,17,107,16,,,,,,,,,,,,,,,,,,,,,,,,main,2,2,2,negative,neutral,k,k,1,0.6061360999010503,361.7424619002268,362.7470451002009,362.71213350025937,None,361.7424619002268,None,361.7424619002268,None,361.7424619002268,None,363.32926020016896,None,363.32926020016896,None,363.32926020016896,None,,,,,,,,,,,101,22,Male,2022-04-27_15h38.55.923,Main,2022.1.1,59.89619975089294,
neutral,positive,2,k,k,,,,,,,,,6,0,108,13,,,,,,,,,,,,,,,,,,,,,,,,main,2,2,2,positive,neutral,k,k,1,0.639805399812758,363.34853189997375,364.3516119001433,364.33346970006824,None,363.34853189997375,None,363.34853189997375,None,363.34853189997375,None,364.9727959999815,None,364.9727959999815,None,364.9727959999815,None,,,,,,,,,,,101,22,Male,2022-04-27_15h38.55.923,Main,2022.1.1,59.89619975089294,
positive,positive,2,l,j,,,,,,,,,6,1,109,11,,,,,,,,,,,,,,,,,,,,,,,,main,1,1,2,positive,positive,j,j,1,0.6503793997690082,364.99086720030755,366.0034918002784,365.9760714001022,None,364.99086720030755,None,364.99086720030755,None,364.99086720030755,None,366.62572529995816,None,366.62572529995816,None,366.62572529995816,None,,,,,,,,,,,101,22,Male,2022-04-27_15h38.55.923,Main,2022.1.1,59.89619975089294,
positive,neutral,2,l,j,,,,,,,,,6,2,110,17,,,,,,,,,,,,,,,,,,,,,,,,main,2,2,2,neutral,positive,j,j,1,0.634408799931407,366.6445917999372,367.6616092999466,367.62357900012285,None,366.6445917999372,None,366.6445917999372,None,366.6445917999372,None,368.26228660009804,None,368.26228660009804,None,368.26228660009804,None,,,,,,,,,,,101,22,Male,2022-04-27_15h38.55.923,Main,2022.1.1,59.89619975089294,
positive,negative,1,l,j,,,,,,,,,6,3,111,5,,,,,,,,,,,,,,,,,,,,,,,,main,2,2,1,negative,positive,j,j,1,0.7692291000857949,368.28149869991466,369.2944986000657,369.2738629002124,None,368.28149869991466,None,368.28149869991466,None,368.28149869991466,None,370.0359039999545,None,370.0359039999545,None,370.0359039999545,None,,,,,,,,,,,101,22,Male,2022-04-27_15h38.55.923,Main,2022.1.1,59.89619975089294,
positive,neutral,1,l,j,,,,,,,,,6,4,112,8,,,,,,,,,,,,,,,,,,,,,,,,main,1,1,1,neutral,positive,j,j,1,0.6504665003158152,370.05452960031107,371.0636165002361,371.0289779002778,None,370.05452960031107,None,370.05452960031107,None,370.05452960031107,None,371.6894869999029,None,371.6894869999029,None,371.6894869999029,None,,,,,,,,,,,101,22,Male,2022-04-27_15h38.55.923,Main,2022.1.1,59.89619975089294,
negative,positive,1,j,l,,,,,,,,,6,5,113,6,,,,,,,,,,,,,,,,,,,,,,,,main,1,1,1,positive,negative,l,l,1,0.712752700317651,371.7071964000352,372.7131905001588,372.69551829993725,None,371.7071964000352,None,371.7071964000352,None,371.7071964000352,None,373.4043360998854,None,373.4043360998854,None,373.4043360998854,None,,,,,,,,,,,101,22,Male,2022-04-27_15h38.55.923,Main,2022.1.1,59.89619975089294,
neutral,negative,1,k,k,,,,,,,,,6,6,114,7,,,,,,,,,,,,,,,,,,,,,,,,main,2,2,1,negative,neutral,k,k,1,0.5339090996421874,373.4261880000122,374.42976320022717,374.39552680030465,None,373.4261880000122,None,373.4261880000122,None,373.4261880000122,None,374.9405662002042,None,374.9405662002042,None,374.9405662002042,None,,,,,,,,,,,101,22,Male,2022-04-27_15h38.55.923,Main,2022.1.1,59.89619975089294,
positive,negative,2,l,j,,,,,,,,,6,7,115,14,,,,,,,,,,,,,,,,,,,,,,,,main,1,1,2,negative,positive,j,j,1,0.5898410999216139,374.96070969989523,375.9701376003213,375.94521570019424,None,374.96070969989523,None,374.96070969989523,None,374.96070969989523,None,376.5320736001246,None,376.5320736001246,None,376.5320736001246,None,,,,,,,,,,,101,22,Male,2022-04-27_15h38.55.923,Main,2022.1.1,59.89619975089294,
negative,neutral,1,j,l,,,,,,,,,6,8,116,3,,,,,,,,,,,,,,,,,,,,,,,,main,1,1,1,neutral,negative,l,l,1,0.6703166998922825,376.55087980022654,377.56266420008615,377.5288617000915,None,376.55087980022654,None,376.55087980022654,None,376.55087980022654,None,378.20631579998883,None,378.20631579998883,None,378.20631579998883,None,,,,,,,,,,,101,22,Male,2022-04-27_15h38.55.923,Main,2022.1.1,59.89619975089294,
neutral,positive,1,k,k,,,,,,,,,6,9,117,4,,,,,,,,,,,,,,,,,,,,,,,,main,2,2,1,positive,neutral,k,k,1,0.5630628000944853,378.2258077999577,379.2325125001371,379.2127160001546,None,378.2258077999577,None,378.2258077999577,None,378.2258077999577,None,379.7725030001253,None,379.7725030001253,None,379.7725030001253,None,,,,,,,,,,,101,22,Male,2022-04-27_15h38.55.923,Main,2022.1.1,59.89619975089294,
negative,neutral,2,j,l,,,,,,,,,6,10,118,12,,,,,,,,,,,,,,,,,,,,,,,,main,1,1,2,neutral,negative,l,l,1,0.6356141995638609,379.7936178003438,380.7956210998818,380.7789878002368,None,379.7936178003438,None,379.7936178003438,None,379.7936178003438,None,381.4105272999965,None,381.4105272999965,None,381.4105272999965,None,,,,,,,,,,,101,22,Male,2022-04-27_15h38.55.923,Main,2022.1.1,59.89619975089294,
negative,negative,2,j,l,,,,,,,,,6,11,119,9,,,,,,,,,,,,,,,,,,,,,,,,main,2,2,2,negative,negative,l,l,1,0.6172497998923063,381.42833600007,382.42992069991305,382.41237140027806,None,381.42833600007,None,381.42833600007,None,381.42833600007,None,383.02788100009786,None,383.02788100009786,None,383.02788100009786,None,,,,,,,,,,,101,22,Male,2022-04-27_15h38.55.923,Main,2022.1.1,59.89619975089294,
negative,negative,1,j,l,,,,,,,,,6,12,120,0,,,,,,,,,,,,,,,,,,,,,,,,main,2,2,1,negative,negative,l,l,1,0.5878088995814323,383.04936669999734,384.0605604001321,384.0404884000309,None,383.04936669999734,None,383.04936669999734,None,383.04936669999734,None,384.6218553002924,None,384.6218553002924,None,384.6218553002924,None,,,,,,,,,,,101,22,Male,2022-04-27_15h38.55.923,Main,2022.1.1,59.89619975089294,
positive,positive,1,l,j,,,,,,,,,6,13,121,2,,,,,,,,,,,,,,,,,,,,,,,,main,1,1,1,positive,positive,j,j,1,0.7129494999535382,384.6418210999109,385.64778180001304,385.6122012003325,None,384.6418210999109,None,384.6418210999109,None,384.6418210999109,None,386.3379779000767,None,386.3379779000767,None,386.3379779000767,None,,,,,,,,,,,101,22,Male,2022-04-27_15h38.55.923,Main,2022.1.1,59.89619975089294,
neutral,neutral,1,k,k,,,,,,,,,6,14,122,1,,,,,,,,,,,,,,,,,,,,,,,,main,1,1,1,neutral,neutral,k,k,1,0.5982876997441053,386.3561948002316,387.3740085000172,387.35403990000486,None,386.3561948002316,None,386.3561948002316,None,386.3561948002316,None,387.9380678002723,None,387.9380678002723,None,387.9380678002723,None,,,,,,,,,,,101,22,Male,2022-04-27_15h38.55.923,Main,2022.1.1,59.89619975089294,
neutral,neutral,2,k,k,,,,,,,,,6,15,123,10,,,,,,,,,,,,,,,,,,,,,,,,main,2,2,2,neutral,neutral,k,k,1,0.5828681001439691,387.9599632001482,388.9664731998928,388.9291388001293,None,387.9599632001482,None,387.9599632001482,None,387.9599632001482,None,389.52381579987707,None,389.52381579987707,None,389.52381579987707,None,,,,,,,,,,,101,22,Male,2022-04-27_15h38.55.923,Main,2022.1.1,59.89619975089294,
neutral,negative,2,k,k,,,,,,,,,6,16,124,16,,,,,,,,,,,,,,,,,,,,,,,,main,2,2,2,negative,neutral,k,k,1,0.5274191000498831,389.544925800059,390.5616242000833,390.51962980022654,None,389.544925800059,None,389.544925800059,None,389.544925800059,None,391.0550455999561,None,391.0550455999561,None,391.0550455999561,None,,,,,,,,,,,101,22,Male,2022-04-27_15h38.55.923,Main,2022.1.1,59.89619975089294,
negative,positive,2,j,l,,,,,,,,,6,17,125,15,,,,,,,,,,,,,,,,,,,,,,,,main,1,1,2,positive,negative,l,l,1,0.6779869999736547,391.07297470001504,392.0786966001615,392.0573595003225,None,391.07297470001504,None,391.07297470001504,None,391.07297470001504,None,392.73345410022887,None,392.73345410022887,None,392.73345410022887,None,,,,,,,,,,,101,22,Male,2022-04-27_15h38.55.923,Main,2022.1.1,59.89619975089294,
negative,neutral,2,j,l,,,,,,,,,7,0,126,12,,,,,,,,,,,,,,,,,,,,,,,,main,1,1,2,neutral,negative,l,l,1,0.6481435000896454,392.75244260020554,393.75310000032187,393.7351251998916,None,392.75244260020554,None,392.75244260020554,None,392.75244260020554,None,394.38571610013025,None,394.38571610013025,None,394.38571610013025,None,,,,,,,,,,,101,22,Male,2022-04-27_15h38.55.923,Main,2022.1.1,59.89619975089294,
positive,positive,1,l,j,,,,,,,,,7,1,127,2,,,,,,,,,,,,,,,,,,,,,,,,main,2,2,1,positive,positive,j,j,1,0.7558388998731971,394.40546730021015,395.4287753999233,395.3871315000579,None,394.40546730021015,None,394.40546730021015,None,394.40546730021015,None,396.1447706002742,None,396.1447706002742,None,396.1447706002742,None,,,,,,,,,,,101,22,Male,2022-04-27_15h38.55.923,Main,2022.1.1,59.89619975089294,
negative,negative,1,j,l,,,,,,,,,7,2,128,0,,,,,,,,,,,,,,,,,,,,,,,,main,1,1,1,negative,negative,l,l,1,0.6418791003525257,396.1626218999736,397.1795616000891,397.14065130008385,None,396.1626218999736,None,396.1626218999736,None,396.1626218999736,None,397.789648100175,None,397.789648100175,None,397.789648100175,None,,,,,,,,,,,101,22,Male,2022-04-27_15h38.55.923,Main,2022.1.1,59.89619975089294,
neutral,positive,2,k,k,,,,,,,,,7,3,129,13,,,,,,,,,,,,,,,,,,,,,,,,main,2,2,2,positive,neutral,k,k,1,0.6043158997781575,397.80906319990754,398.81281469995156,398.7959416001104,None,397.80906319990754,None,397.80906319990754,None,397.80906319990754,None,399.3960467003286,None,399.3960467003286,None,399.3960467003286,None,,,,,,,,,,,101,22,Male,2022-04-27_15h38.55.923,Main,2022.1.1,59.89619975089294,
positive,negative,2,l,j,,,,,,,,,7,4,130,14,,,,,,,,,,,,,,,,,,,,,,,,main,2,2,2,negative,positive,j,j,1,0.6355431000702083,399.41700980020687,400.43040100019425,400.3946575000882,None,399.41700980020687,None,399.41700980020687,None,399.41700980020687,None,401.03584930012005,None,401.03584930012005,None,401.03584930012005,None,,,,,,,,,,,101,22,Male,2022-04-27_15h38.55.923,Main,2022.1.1,59.89619975089294,
neutral,neutral,1,k,k,,,,,,,,,7,5,131,1,,,,,,,,,,,,,,,,,,,,,,,,main,1,1,1,neutral,neutral,k,k,1,0.5771618997678161,401.0542411999777,402.0642119999975,402.02929140022025,None,401.0542411999777,None,401.0542411999777,None,401.0542411999777,None,402.61282950025054,None,402.61282950025054,None,402.61282950025054,None,,,,,,,,,,,101,22,Male,2022-04-27_15h38.55.923,Main,2022.1.1,59.89619975089294,
negative,negative,2,j,l,,,,,,,,,7,6,132,9,,,,,,,,,,,,,,,,,,,,,,,,main,1,1,2,negative,negative,l,l,1,0.6903859996236861,402.6324165002443,403.64074910013005,403.62011149991304,None,402.6324165002443,None,402.6324165002443,None,402.6324165002443,None,404.30727520016956,None,404.30727520016956,None,404.30727520016956,None,,,,,,,,,,,101,22,Male,2022-04-27_15h38.55.923,Main,2022.1.1,59.89619975089294,
neutral,negative,2,k,k,,,,,,,,,7,7,133,16,,,,,,,,,,,,,,,,,,,,,,,,main,2,2,2,negative,neutral,k,k,1,0.5936608999036252,404.32774419989437,405.3307483000681,405.3130105002783,None,404.32774419989437,None,404.32774419989437,None,404.32774419989437,None,405.9049502000213,None,405.9049502000213,None,405.9049502000213,None,,,,,,,,,,,101,22,Male,2022-04-27_15h38.55.923,Main,2022.1.1,59.89619975089294,
positive,neutral,1,l,j,,,,,,,,,7,8,134,8,,,,,,,,,,,,,,,,,,,,,,,,main,2,2,1,neutral,positive,j,j,1,0.6318572997115552,405.9232117999345,406.9273268999532,406.9074324001558,None,405.9232117999345,None,405.9232117999345,None,405.9232117999345,None,407.5394219000824,None,407.5394219000824,None,407.5394219000824,None,,,,,,,,,,,101,22,Male,2022-04-27_15h38.55.923,Main,2022.1.1,59.89619975089294,
negative,neutral,1,j,l,,,,,,,,,7,9,135,3,,,,,,,,,,,,,,,,,,,,,,,,main,2,2,1,neutral,negative,l,l,1,0.6342084002681077,407.55830299993977,408.5621470003389,408.5417538001202,None,407.55830299993977,None,407.55830299993977,None,407.55830299993977,None,409.17539559993895,None,409.17539559993895,None,409.17539559993895,None,,,,,,,,,,,101,22,Male,2022-04-27_15h38.55.923,Main,2022.1.1,59.89619975089294,
negative,positive,2,j,l,,,,,,,,,7,10,136,15,,,,,,,,,,,,,,,,,,,,,,,,main,1,1,2,positive,negative,l,l,1,0.6330800000578165,409.19688310008496,410.19750140002,410.1800371003337,None,409.19688310008496,None,409.19688310008496,None,409.19688310008496,None,410.8128580999561,None,410.8128580999561,None,410.8128580999561,None,,,,,,,,,,,101,22,Male,2022-04-27_15h38.55.923,Main,2022.1.1,59.89619975089294,
neutral,negative,1,k,k,,,,,,,,,7,11,137,7,,,,,,,,,,,,,,,,,,,,,,,,main,2,2,1,negative,neutral,k,k,1,0.5745168998837471,410.83218460017815,411.84775250032544,411.813009200152,None,410.83218460017815,None,410.83218460017815,None,410.83218460017815,None,412.390738100186,None,412.390738100186,None,412.390738100186,None,,,,,,,,,,,101,22,Male,2022-04-27_15h38.55.923,Main,2022.1.1,59.89619975089294,
positive,neutral,2,l,j,,,,,,,,,7,12,138,17,,,,,,,,,,,,,,,,,,,,,,,,main,2,2,2,neutral,positive,j,j,1,0.5479025999084115,412.4118567002006,413.4248104998842,413.384463599883,None,412.4118567002006,None,412.4118567002006,None,412.4118567002006,None,413.94114880021664,None,413.94114880021664,None,413.94114880021664,None,,,,,,,,,,,101,22,Male,2022-04-27_15h38.55.923,Main,2022.1.1,59.89619975089294,
neutral,positive,1,k,k,,,,,,,,,7,13,139,4,,,,,,,,,,,,,,,,,,,,,,,,main,1,1,1,positive,neutral,k,k,1,0.5592978000640869,413.9596576001495,414.97448690002784,414.93424559989944,None,413.9596576001495,None,413.9596576001495,None,413.9596576001495,None,415.5018808002584,None,415.5018808002584,None,415.5018808002584,None,,,,,,,,,,,101,22,Male,2022-04-27_15h38.55.923,Main,2022.1.1,59.89619975089294,
negative,positive,1,j,l,,,,,,,,,7,14,140,6,,,,,,,,,,,,,,,,,,,,,,,,main,1,1,1,positive,negative,l,l,1,0.5859818002209067,415.5256942003034,416.53230320010334,416.4965448002331,None,415.5256942003034,None,415.5256942003034,None,415.5256942003034,None,417.09208790017294,None,417.09208790017294,None,417.09208790017294,None,,,,,,,,,,,101,22,Male,2022-04-27_15h38.55.923,Main,2022.1.1,59.89619975089294,
positive,positive,2,l,j,,,,,,,,,7,15,141,11,,,,,,,,,,,,,,,,,,,,,,,,main,2,2,2,positive,positive,j,j,1,0.624768600333482,417.110282599926,418.12959940033033,418.091412700247,None,417.110282599926,None,417.110282599926,None,417.110282599926,None,418.7180290998891,None,418.7180290998891,None,418.7180290998891,None,,,,,,,,,,,101,22,Male,2022-04-27_15h38.55.923,Main,2022.1.1,59.89619975089294,
positive,negative,1,l,j,,,,,,,,,7,16,142,5,,,,,,,,,,,,,,,,,,,,,,,,main,2,2,1,negative,positive,j,j,1,0.5543658002279699,418.73668109998107,419.75284369988367,419.7159397001378,None,418.73668109998107,None,418.73668109998107,None,418.73668109998107,None,420.27427180008965,None,420.27427180008965,None,420.27427180008965,None,,,,,,,,,,,101,22,Male,2022-04-27_15h38.55.923,Main,2022.1.1,59.89619975089294,
neutral,neutral,2,k,k,,,,,,,,,7,17,143,10,,,,,,,,,,,,,,,,,,,,,,,,main,1,1,2,neutral,neutral,k,k,1,0.5507058002986014,420.2968867002055,421.2980655999854,421.280362599995,None,420.2968867002055,None,420.2968867002055,None,420.2968867002055,None,421.8296593002975,None,421.8296593002975,None,421.8296593002975,None,,,,,,,,,,,101,22,Male,2022-04-27_15h38.55.923,Main,2022.1.1,59.89619975089294,
neutral,neutral,1,k,k,,,,,,,,,8,0,144,1,,,,,,,,,,,,,,,,,,,,,,,,main,1,1,1,neutral,neutral,k,k,1,0.6637404998764396,421.84829910006374,422.8487497000024,422.83120460016653,None,421.84829910006374,None,421.84829910006374,None,421.84829910006374,None,423.4964615003206,None,423.4964615003206,None,423.4964615003206,None,,,,,,,,,,,101,22,Male,2022-04-27_15h38.55.923,Main,2022.1.1,59.89619975089294,
negative,positive,1,j,l,,,,,,,,,8,1,145,6,,,,,,,,,,,,,,,,,,,,,,,,main,1,1,1,positive,negative,l,l,1,0.6031329999677837,423.51467869989574,424.53077500034124,424.4916759999469,None,423.51467869989574,None,423.51467869989574,None,423.51467869989574,None,425.1031142001972,None,425.1031142001972,None,425.1031142001972,None,,,,,,,,,,,101,22,Male,2022-04-27_15h38.55.923,Main,2022.1.1,59.89619975089294,
positive,negative,1,l,j,,,,,,,,,8,2,146,5,,,,,,,,,,,,,,,,,,,,,,,,main,1,1,1,negative,positive,j,j,1,0.5935698999091983,425.1248361999169,426.129750800319,426.11269490001723,None,425.1248361999169,None,425.1248361999169,None,425.1248361999169,None,426.6980858001858,None,426.6980858001858,None,426.6980858001858,None,,,,,,,,,,,101,22,Male,2022-04-27_15h38.55.923,Main,2022.1.1,59.89619975089294,
neutral,positive,1,k,k,,,,,,,,,8,3,147,4,,,,,,,,,,,,,,,,,,,,,,,,main,1,1,1,positive,neutral,k,k,1,0.5179745000787079,426.7174070002511,427.7192933000624,427.70104240020737,None,426.7174070002511,None,426.7174070002511,None,426.7174070002511,None,428.21995419999587,None,428.21995419999587,None,428.21995419999587,None,,,,,,,,,,,101,22,Male,2022-04-27_15h38.55.923,Main,2022.1.1,59.89619975089294,
positive,positive,1,l,j,,,,,,,,,8,4,148,2,,,,,,,,,,,,,,,,,,,,,,,,main,1,1,1,positive,positive,j,j,1,0.5363265001215041,428.24081399990246,429.2491383003071,429.2142019001767,None,428.24081399990246,None,428.24081399990246,None,428.24081399990246,None,429.7584693002515,None,429.7584693002515,None,429.7584693002515,None,,,,,,,,,,,101,22,Male,2022-04-27_15h38.55.923,Main,2022.1.1,59.89619975089294,
positive,neutral,2,l,j,,,,,,,,,8,5,149,17,,,,,,,,,,,,,,,,,,,,,,,,main,2,2,2,neutral,positive,j,j,1,0.6415999000892043,429.77930320007727,430.7866877000779,430.76653870008886,None,429.77930320007727,None,429.77930320007727,None,429.77930320007727,None,431.4025373001583,None,431.4025373001583,None,431.4025373001583,None,,,,,,,,,,,101,22,Male,2022-04-27_15h38.55.923,Main,2022.1.1,59.89619975089294,
neutral,positive,2,k,k,,,,,,,,,8,6,150,13,,,,,,,,,,,,,,,,,,,,,,,,main,1,1,2,positive,neutral,k,k,1,0.6130757997743785,431.4219082002528,432.42984170001,432.40978690003976,None,431.4219082002528,None,431.4219082002528,None,431.4219082002528,None,433.0200802999549,None,433.0200802999549,None,433.0200802999549,None,,,,,,,,,,,101,22,Male,2022-04-27_15h38.55.923,Main,2022.1.1,59.89619975089294,
neutral,negative,2,k,k,,,,,,,,,8,7,151,16,,,,,,,,,,,,,,,,,,,,,,,,main,2,2,2,negative,neutral,k,k,1,0.5831082998774946,433.041712500155,434.0623931000009,434.02026520017534,None,433.041712500155,None,433.041712500155,None,433.041712500155,None,434.60592399993914,None,434.60592399993914,None,434.60592399993914,None,,,,,,,,,,,101,22,Male,2022-04-27_15h38.55.923,Main,2022.1.1,59.89619975089294,
negative,neutral,1,j,l,,,,,,,,,8,8,152,3,,,,,,,,,,,,,,,,,,,,,,,,main,2,2,1,neutral,negative,l,l,1,0.6611183998174965,434.62425350025296,435.63454789994285,435.5984841999598,None,434.62425350025296,None,434.62425350025296,None,434.62425350025296,None,436.268235400226,None,436.268235400226,None,436.268235400226,None,,,,,,,,,,,101,22,Male,2022-04-27_15h38.55.923,Main,2022.1.1,59.89619975089294,
negative,positive,2,j,l,,,,,,,,,8,9,153,15,,,,,,,,,,,,,,,,,,,,,,,,main,2,2,2,positive,negative,l,l,1,0.6102172997780144,436.28847789997235,437.29487650003284,437.27481850003824,None,436.28847789997235,None,436.28847789997235,None,436.28847789997235,None,437.88086580010133,None,437.88086580010133,None,437.88086580010133,None,,,,,,,,,,,101,22,Male,2022-04-27_15h38.55.923,Main,2022.1.1,59.89619975089294,
positive,neutral,1,l,j,,,,,,,,,8,10,154,8,,,,,,,,,,,,,,,,,,,,,,,,main,1,1,1,neutral,positive,j,j,1,0.7882165000773966,437.9013141002506,438.9079502001405,438.8873001001775,None,437.9013141002506,None,437.9013141002506,None,437.9013141002506,None,439.6742156999186,None,439.6742156999186,None,439.6742156999186,None,,,,,,,,,,,101,22,Male,2022-04-27_15h38.55.923,Main,2022.1.1,59.89619975089294,
positive,negative,2,l,j,,,,,,,,,8,11,155,14,,,,,,,,,,,,,,,,,,,,,,,,main,1,1,2,negative,positive,j,k,0,0.5447828001342714,439.69552770024166,440.6971104000695,440.6802058001049,None,439.69552770024166,None,439.69552770024166,None,439.69552770024166,None,441.2299995003268,None,441.2299995003268,None,441.2299995003268,None,,,,,,,,,,,101,22,Male,2022-04-27_15h38.55.923,Main,2022.1.1,59.89619975089294,
negative,negative,1,j,l,,,,,,,,,8,12,156,0,,,,,,,,,,,,,,,,,,,,,,,,main,1,1,1,negative,negative,l,l,1,0.740680200047791,442.24910080013797,443.2638326003216,443.2301489999518,None,442.24910080013797,None,442.24910080013797,None,442.24910080013797,None,443.9766824002378,None,443.9766824002378,None,443.9766824002378,None,,,,,,,,,,,101,22,Male,2022-04-27_15h38.55.923,Main,2022.1.1,59.89619975089294,
neutral,negative,1,k,k,,,,,,,,,8,13,157,7,,,,,,,,,,,,,,,,,,,,,,,,main,1,1,1,negative,neutral,k,k,1,0.6681878999806941,443.99667940009385,444.9969732002355,444.9803291000426,None,443.99667940009385,None,443.99667940009385,None,443.99667940009385,None,445.64693250032144,None,445.64693250032144,None,445.64693250032144,None,,,,,,,,,,,101,22,Male,2022-04-27_15h38.55.923,Main,2022.1.1,59.89619975089294,
negative,neutral,2,j,l,,,,,,,,,8,14,158,12,,,,,,,,,,,,,,,,,,,,,,,,main,1,1,2,neutral,negative,l,l,1,0.6203598999418318,445.6664284002036,446.6785663999617,446.6584622003138,None,445.6664284002036,None,445.6664284002036,None,445.6664284002036,None,447.27129410011696,None,447.27129410011696,None,447.27129410011696,None,,,,,,,,,,,101,22,Male,2022-04-27_15h38.55.923,Main,2022.1.1,59.89619975089294,
neutral,neutral,2,k,k,,,,,,,,,8,15,159,10,,,,,,,,,,,,,,,,,,,,,,,,main,2,2,2,neutral,neutral,k,k,1,0.6134927999228239,447.292475100141,448.29746789997444,448.28075130004436,None,447.292475100141,None,447.292475100141,None,447.292475100141,None,448.88627080004665,None,448.88627080004665,None,448.88627080004665,None,,,,,,,,,,,101,22,Male,2022-04-27_15h38.55.923,Main,2022.1.1,59.89619975089294,
negative,negative,2,j,l,,,,,,,,,8,16,160,9,,,,,,,,,,,,,,,,,,,,,,,,main,1,1,2,negative,negative,l,l,1,0.718758299946785,448.90454570017755,449.91628420026973,449.8809084999375,None,448.90454570017755,None,448.90454570017755,None,448.90454570017755,None,450.6084354002029,None,450.6084354002029,None,450.6084354002029,None,,,,,,,,,,,101,22,Male,2022-04-27_15h38.55.923,Main,2022.1.1,59.89619975089294,
positive,positive,2,l,j,,,,,,,,,8,17,161,11,,,,,,,,,,,,,,,,,,,,,,,,main,1,1,2,positive,positive,j,j,1,0.5958124999888241,450.6292979000136,451.63237540004775,451.61447719996795,None,450.6292979000136,None,450.6292979000136,None,450.6292979000136,None,452.20804089996966,None,452.20804089996966,None,452.20804089996966,None,,,,,,,,,,,101,22,Male,2022-04-27_15h38.55.923,Main,2022.1.1,59.89619975089294,
neutral,positive,2,k,k,,,,,,,,,9,0,162,13,,,,,,,,,,,,,,,,,,,,,,,,main,2,2,2,positive,neutral,k,k,1,0.6158003001473844,452.2264661001973,453.2351593999192,453.1979364003055,None,452.2264661001973,None,452.2264661001973,None,452.2264661001973,None,453.82600440029057,None,453.82600440029057,None,453.82600440029057,None,,,,,,,,,,,101,22,Male,2022-04-27_15h38.55.923,Main,2022.1.1,59.89619975089294,
negative,positive,2,j,l,,,,,,,,,9,1,163,15,,,,,,,,,,,,,,,,,,,,,,,,main,1,1,2,positive,negative,l,l,1,0.6751435999758542,453.84604820003733,454.8479782999493,454.83067730022594,None,453.84604820003733,None,453.84604820003733,None,453.84604820003733,None,455.5028254998848,None,455.5028254998848,None,455.5028254998848,None,,,,,,,,,,,101,22,Male,2022-04-27_15h38.55.923,Main,2022.1.1,59.89619975089294,
neutral,negative,2,k,k,,,,,,,,,9,2,164,16,,,,,,,,,,,,,,,,,,,,,,,,main,1,1,2,negative,neutral,k,k,1,0.5574309001676738,455.5222483999096,456.53485450008884,456.4978897003457,None,455.5222483999096,None,455.5222483999096,None,455.5222483999096,None,457.0644267000258,None,457.0644267000258,None,457.0644267000258,None,,,,,,,,,,,101,22,Male,2022-04-27_15h38.55.923,Main,2022.1.1,59.89619975089294,
neutral,positive,1,k,k,,,,,,,,,9,3,165,4,,,,,,,,,,,,,,,,,,,,,,,,main,1,1,1,positive,neutral,k,k,1,0.5741702001541853,457.083041400183,458.0949822999537,458.0752882002853,None,457.083041400183,None,457.083041400183,None,457.083041400183,None,458.64136019991713,None,458.64136019991713,None,458.64136019991713,None,,,,,,,,,,,101,22,Male,2022-04-27_15h38.55.923,Main,2022.1.1,59.89619975089294,
positive,neutral,2,l,j,,,,,,,,,9,4,166,17,,,,,,,,,,,,,,,,,,,,,,,,main,2,2,2,neutral,positive,j,j,1,0.7244076002389193,458.6596937002614,459.6634077001363,459.6423937003128,None,458.6596937002614,None,458.6596937002614,None,458.6596937002614,None,460.36707330020147,None,460.36707330020147,None,460.36707330020147,None,,,,,,,,,,,101,22,Male,2022-04-27_15h38.55.923,Main,2022.1.1,59.89619975089294,
negative,neutral,2,j,l,,,,,,,,,9,5,167,12,,,,,,,,,,,,,,,,,,,,,,,,main,2,2,2,neutral,negative,l,l,1,0.6670650998130441,460.3860931000672,461.4052548999898,461.3637761003338,None,460.3860931000672,None,460.3860931000672,None,460.3860931000672,None,462.0383021001704,None,462.0383021001704,None,462.0383021001704,None,,,,,,,,,,,101,22,Male,2022-04-27_15h38.55.923,Main,2022.1.1,59.89619975089294,
positive,negative,1,l,j,,,,,,,,,9,6,168,5,,,,,,,,,,,,,,,,,,,,,,,,main,1,1,1,negative,positive,j,j,1,0.6296573001891375,462.05921350000426,463.0664355000481,463.02820220030844,None,462.05921350000426,None,462.05921350000426,None,462.05921350000426,None,463.66887779990213,None,463.66887779990213,None,463.66887779990213,None,,,,,,,,,,,101,22,Male,2022-04-27_15h38.55.923,Main,2022.1.1,59.89619975089294,
positive,negative,2,l,j,,,,,,,,,9,7,169,14,,,,,,,,,,,,,,,,,,,,,,,,main,1,1,2,negative,positive,j,j,1,0.7539173997938633,463.68778289994225,464.7008191002533,464.66448020003736,None,463.68778289994225,None,463.68778289994225,None,463.68778289994225,None,465.42668620022016,None,465.42668620022016,None,465.42668620022016,None,,,,,,,,,,,101,22,Male,2022-04-27_15h38.55.923,Main,2022.1.1,59.89619975089294,
positive,positive,1,l,j,,,,,,,,,9,8,170,2,,,,,,,,,,,,,,,,,,,,,,,,main,1,1,1,positive,positive,j,j,1,0.5915326997637749,465.4465477000922,466.4488889002241,466.4295991002582,None,465.4465477000922,None,465.4465477000922,None,465.4465477000922,None,467.01877620015296,None,467.01877620015296,None,467.01877620015296,None,,,,,,,,,,,101,22,Male,2022-04-27_15h38.55.923,Main,2022.1.1,59.89619975089294,
neutral,negative,1,k,k,,,,,,,,,9,9,171,7,,,,,,,,,,,,,,,,,,,,,,,,main,1,1,1,negative,neutral,k,k,1,0.6267874999903142,467.0395853999071,468.0482095000334,468.0309748998843,None,467.0395853999071,None,467.0395853999071,None,467.0395853999071,None,468.64935789993035,None,468.64935789993035,None,468.64935789993035,None,,,,,,,,,,,101,22,Male,2022-04-27_15h38.55.923,Main,2022.1.1,59.89619975089294,
neutral,neutral,2,k,k,,,,,,,,,9,10,172,10,,,,,,,,,,,,,,,,,,,,,,,,main,2,2,2,neutral,neutral,k,k,1,0.654884499963373,468.66880149999633,469.68256310001016,469.64756519999355,None,468.66880149999633,None,468.66880149999633,None,468.66880149999633,None,470.3086630999111,None,470.3086630999111,None,470.3086630999111,None,,,,,,,,,,,101,22,Male,2022-04-27_15h38.55.923,Main,2022.1.1,59.89619975089294,
negative,negative,2,j,l,,,,,,,,,9,11,173,9,,,,,,,,,,,,,,,,,,,,,,,,main,2,2,2,negative,negative,l,l,1,0.6890154997818172,470.3268007002771,471.3308570999652,471.3128225002438,None,470.3268007002771,None,470.3268007002771,None,470.3268007002771,None,471.9990759002045,None,471.9990759002045,None,471.9990759002045,None,,,,,,,,,,,101,22,Male,2022-04-27_15h38.55.923,Main,2022.1.1,59.89619975089294,
negative,neutral,1,j,l,,,,,,,,,9,12,174,3,,,,,,,,,,,,,,,,,,,,,,,,main,1,1,1,neutral,negative,l,l,1,0.6348075000569224,472.0164864999242,473.04237030027434,472.9954618001357,None,472.0164864999242,None,472.0164864999242,None,472.0164864999242,None,473.6343892001547,None,473.6343892001547,None,473.6343892001547,None,,,,,,,,,,,101,22,Male,2022-04-27_15h38.55.923,Main,2022.1.1,59.89619975089294,
neutral,neutral,1,k,k,,,,,,,,,9,13,175,1,,,,,,,,,,,,,,,,,,,,,,,,main,1,1,1,neutral,neutral,k,k,1,0.5660264999605715,473.65468200016767,474.6629739003256,474.64247360033914,None,473.65468200016767,None,473.65468200016767,None,473.65468200016767,None,475.2063439999707,None,475.2063439999707,None,475.2063439999707,None,,,,,,,,,,,101,22,Male,2022-04-27_15h38.55.923,Main,2022.1.1,59.89619975089294,
negative,negative,1,j,l,,,,,,,,,9,14,176,0,,,,,,,,,,,,,,,,,,,,,,,,main,1,1,1,negative,negative,l,l,1,0.6440085000358522,475.22460540011525,476.233438400086,476.19785650027916,None,475.22460540011525,None,475.22460540011525,None,475.22460540011525,None,476.85124099990355,None,476.85124099990355,None,476.85124099990355,None,,,,,,,,,,,101,22,Male,2022-04-27_15h38.55.923,Main,2022.1.1,59.89619975089294,
positive,positive,2,l,j,,,,,,,,,9,15,177,11,,,,,,,,,,,,,,,,,,,,,,,,main,1,1,2,positive,positive,j,j,1,0.6039836001582444,476.86965620005503,477.88303290028125,477.8480605003424,None,476.86965620005503,None,476.86965620005503,None,476.86965620005503,None,478.4597969999537,None,478.4597969999537,None,478.4597969999537,None,,,,,,,,,,,101,22,Male,2022-04-27_15h38.55.923,Main,2022.1.1,59.89619975089294,
positive,neutral,1,l,j,,,,,,,,,9,16,178,8,,,,,,,,,,,,,,,,,,,,,,,,main,1,1,1,neutral,positive,j,j,1,0.6236007995903492,478.47859159996733,479.48276020027697,479.46505350014195,None,478.47859159996733,None,478.47859159996733,None,478.47859159996733,None,480.08444369994106,None,480.08444369994106,None,480.08444369994106,None,,,,,,,,,,,101,22,Male,2022-04-27_15h38.55.923,Main,2022.1.1,59.89619975089294,
negative,positive,1,j,l,,,,,,,,,9,17,179,6,,,,,,,,,,,,,,,,,,,,,,,,main,1,1,1,positive,negative,l,l,1,0.758064900059253,480.10344329988584,481.1151506002061,481.0798184000887,None,480.10344329988584,None,480.10344329988584,None,480.10344329988584,None,481.846225300245,None,481.846225300245,None,481.846225300245,None,,,,,,,,,,,101,22,Male,2022-04-27_15h38.55.923,Main,2022.1.1,59.89619975089294,
negative,positive,2,j,l,,,,,,,,,10,0,180,15,,,,,,,,,,,,,,,,,,,,,,,,main,1,1,2,positive,negative,l,l,1,0.5887399003840983,481.86432410031557,482.8650195999071,482.8476809002459,None,481.86432410031557,None,481.86432410031557,None,481.86432410031557,None,483.4385948999785,None,483.4385948999785,None,483.4385948999785,None,,,,,,,,,,,101,22,Male,2022-04-27_15h38.55.923,Main,2022.1.1,59.89619975089294,
positive,negative,1,l,j,,,,,,,,,10,1,181,5,,,,,,,,,,,,,,,,,,,,,,,,main,2,2,1,negative,positive,j,j,1,0.6120672998949885,483.4600686999038,484.4659267999232,484.4314950001426,None,483.4600686999038,None,483.4600686999038,None,483.4600686999038,None,485.053974199947,None,485.053974199947,None,485.053974199947,None,,,,,,,,,,,101,22,Male,2022-04-27_15h38.55.923,Main,2022.1.1,59.89619975089294,
positive,neutral,1,l,j,,,,,,,,,10,2,182,8,,,,,,,,,,,,,,,,,,,,,,,,main,2,2,1,neutral,positive,j,j,1,0.6982240001671016,485.0710636000149,486.0758620002307,486.05596970021725,None,485.0710636000149,None,485.0710636000149,None,485.0710636000149,None,486.7522373002954,None,486.7522373002954,None,486.7522373002954,None,,,,,,,,,,,101,22,Male,2022-04-27_15h38.55.923,Main,2022.1.1,59.89619975089294,
negative,neutral,1,j,l,,,,,,,,,10,3,183,3,,,,,,,,,,,,,,,,,,,,,,,,main,1,1,1,neutral,negative,l,l,1,0.6842547999694943,486.7716244002804,487.78112060017884,487.7625855002552,None,486.7716244002804,None,486.7716244002804,None,486.7716244002804,None,488.44085140004756,None,488.44085140004756,None,488.44085140004756,None,,,,,,,,,,,101,22,Male,2022-04-27_15h38.55.923,Main,2022.1.1,59.89619975089294,
positive,neutral,2,l,j,,,,,,,,,10,4,184,17,,,,,,,,,,,,,,,,,,,,,,,,main,1,1,2,neutral,positive,j,j,1,0.5438109003007412,488.46003680024296,489.4647483001463,489.44603350013494,None,488.46003680024296,None,488.46003680024296,None,488.46003680024296,None,489.98788790022957,None,489.98788790022957,None,489.98788790022957,None,,,,,,,,,,,101,22,Male,2022-04-27_15h38.55.923,Main,2022.1.1,59.89619975089294,
positive,positive,2,l,j,,,,,,,,,10,5,185,11,,,,,,,,,,,,,,,,,,,,,,,,main,2,2,2,positive,positive,j,j,1,0.6141176000237465,490.00624549994245,491.0160882999189,490.97960110008717,None,490.00624549994245,None,490.00624549994245,None,490.00624549994245,None,491.60430179992693,None,491.60430179992693,None,491.60430179992693,None,,,,,,,,,,,101,22,Male,2022-04-27_15h38.55.923,Main,2022.1.1,59.89619975089294,
negative,negative,1,j,l,,,,,,,,,10,6,186,0,,,,,,,,,,,,,,,,,,,,,,,,main,2,2,1,negative,negative,l,l,1,0.7149707996286452,491.6228277999908,492.62635040003806,492.60565260006115,None,491.6228277999908,None,491.6228277999908,None,491.6228277999908,None,493.3202893001959,None,493.3202893001959,None,493.3202893001959,None,,,,,,,,,,,101,22,Male,2022-04-27_15h38.55.923,Main,2022.1.1,59.89619975089294,
neutral,negative,2,k,k,,,,,,,,,10,7,187,16,,,,,,,,,,,,,,,,,,,,,,,,main,1,1,2,negative,neutral,k,k,1,0.5962643995881081,493.3387808999978,494.35939950030297,494.31465950002894,None,493.3387808999978,None,493.3387808999978,None,493.3387808999978,None,494.9185629001819,None,494.9185629001819,None,494.9185629001819,None,,,,,,,,,,,101,22,Male,2022-04-27_15h38.55.923,Main,2022.1.1,59.89619975089294,
negative,positive,1,j,l,,,,,,,,,10,8,188,6,,,,,,,,,,,,,,,,,,,,,,,,main,1,1,1,positive,negative,l,l,1,0.6816312996670604,494.9388836999424,495.9421419999562,495.92166989995167,None,494.9388836999424,None,494.9388836999424,None,494.9388836999424,None,496.6031246999279,None,496.6031246999279,None,496.6031246999279,None,,,,,,,,,,,101,22,Male,2022-04-27_15h38.55.923,Main,2022.1.1,59.89619975089294,
neutral,neutral,1,k,k,,,,,,,,,10,9,189,1,,,,,,,,,,,,,,,,,,,,,,,,main,2,2,1,neutral,neutral,k,k,1,0.6473229001276195,496.62230970012024,497.64318330027163,497.60361360013485,None,496.62230970012024,None,496.62230970012024,None,496.62230970012024,None,498.2538026002236,None,498.2538026002236,None,498.2538026002236,None,,,,,,,,,,,101,22,Male,2022-04-27_15h38.55.923,Main,2022.1.1,59.89619975089294,
neutral,positive,2,k,k,,,,,,,,,10,10,190,13,,,,,,,,,,,,,,,,,,,,,,,,main,1,1,2,positive,neutral,k,k,1,0.7149445996619761,498.2742455000989,499.28134750016034,499.2635353002697,None,498.2742455000989,None,498.2742455000989,None,498.2742455000989,None,499.97298840004953,None,499.97298840004953,None,499.97298840004953,None,,,,,,,,,,,101,22,Male,2022-04-27_15h38.55.923,Main,2022.1.1,59.89619975089294,
neutral,negative,1,k,k,,,,,,,,,10,11,191,7,,,,,,,,,,,,,,,,,,,,,,,,main,1,1,1,negative,neutral,k,k,1,0.5624376996420324,499.9907162003219,500.99992700014263,500.9650420001708,None,499.9907162003219,None,499.9907162003219,None,499.9907162003219,None,501.5363139001653,None,501.5363139001653,None,501.5363139001653,None,,,,,,,,,,,101,22,Male,2022-04-27_15h38.55.923,Main,2022.1.1,59.89619975089294,
neutral,positive,1,k,k,,,,,,,,,10,12,192,4,,,,,,,,,,,,,,,,,,,,,,,,main,1,1,1,positive,neutral,k,k,1,0.5426876000128686,501.5543035999872,502.5637441002764,502.54310810007155,None,501.5543035999872,None,501.5543035999872,None,501.5543035999872,None,503.08168400023135,None,503.08168400023135,None,503.08168400023135,None,,,,,,,,,,,101,22,Male,2022-04-27_15h38.55.923,Main,2022.1.1,59.89619975089294,
negative,negative,2,j,l,,,,,,,,,10,13,193,9,,,,,,,,,,,,,,,,,,,,,,,,main,2,2,2,negative,negative,l,l,1,0.6695203999988735,503.1006046002731,504.1184391002171,504.08187900017947,None,503.1006046002731,None,503.1006046002731,None,503.1006046002731,None,504.75402750018986,None,504.75402750018986,None,504.75402750018986,None,,,,,,,,,,,101,22,Male,2022-04-27_15h38.55.923,Main,2022.1.1,59.89619975089294,
positive,positive,1,l,j,,,,,,,,,10,14,194,2,,,,,,,,,,,,,,,,,,,,,,,,main,2,2,1,positive,positive,j,j,1,0.6660841000266373,504.7722861999646,505.7868194002658,505.74959030002356,None,504.7722861999646,None,504.7722861999646,None,504.7722861999646,None,506.4241808000021,None,506.4241808000021,None,506.4241808000021,None,,,,,,,,,,,101,22,Male,2022-04-27_15h38.55.923,Main,2022.1.1,59.89619975089294,
negative,neutral,2,j,l,,,,,,,,,10,15,195,12,,,,,,,,,,,,,,,,,,,,,,,,main,2,2,2,neutral,negative,l,l,1,0.61066780006513,506.4449578002095,507.44992500031367,507.41493380023167,None,506.4449578002095,None,506.4449578002095,None,506.4449578002095,None,508.036321400106,None,508.036321400106,None,508.036321400106,None,,,,,,,,,,,101,22,Male,2022-04-27_15h38.55.923,Main,2022.1.1,59.89619975089294,
positive,negative,2,l,j,,,,,,,,,10,16,196,14,,,,,,,,,,,,,,,,,,,,,,,,main,1,1,2,negative,positive,j,j,1,0.6595495999790728,508.0549460002221,509.0656360001303,509.03181619988754,None,508.0549460002221,None,508.0549460002221,None,508.0549460002221,None,509.69822800010445,None,509.69822800010445,None,509.69822800010445,None,,,,,,,,,,,101,22,Male,2022-04-27_15h38.55.923,Main,2022.1.1,59.89619975089294,
neutral,neutral,2,k,k,,,,,,,,,10,17,197,10,,,,,,,,,,,,,,,,,,,,,,,,main,2,2,2,neutral,neutral,k,k,1,0.5412977002561092,509.7175027001649,510.7328022001311,510.69726569997147,None,509.7175027001649,None,509.7175027001649,None,509.7175027001649,None,511.2437793001533,None,511.2437793001533,None,511.2437793001533,None,,,,,,,,,,,101,22,Male,2022-04-27_15h38.55.923,Main,2022.1.1,59.89619975089294,
negative,negative,2,j,l,,,,,,,,,11,0,198,9,,,,,,,,,,,,,,,,,,,,,,,,main,1,1,2,negative,negative,l,l,1,0.5260919001884758,511.2619452001527,512.2665069000795,512.2317115003243,None,511.2619452001527,None,511.2619452001527,None,511.2619452001527,None,512.7726065999829,None,512.7726065999829,None,512.7726065999829,None,,,,,,,,,,,101,22,Male,2022-04-27_15h38.55.923,Main,2022.1.1,59.89619975089294,
neutral,neutral,2,k,k,,,,,,,,,11,1,199,10,,,,,,,,,,,,,,,,,,,,,,,,main,1,1,2,neutral,neutral,k,k,1,0.5943622998893261,512.7910870001651,513.7962003001012,513.7762103001587,None,512.7910870001651,None,512.7910870001651,None,512.7910870001651,None,514.3687650001608,None,514.3687650001608,None,514.3687650001608,None,,,,,,,,,,,101,22,Male,2022-04-27_15h38.55.923,Main,2022.1.1,59.89619975089294,
negative,negative,1,j,l,,,,,,,,,11,2,200,0,,,,,,,,,,,,,,,,,,,,,,,,main,2,2,1,negative,negative,l,l,1,0.66876280028373,514.385751100257,515.3995250998996,515.3635523002595,None,514.385751100257,None,514.385751100257,None,514.385751100257,None,516.0407307999209,None,516.0407307999209,None,516.0407307999209,None,,,,,,,,,,,101,22,Male,2022-04-27_15h38.55.923,Main,2022.1.1,59.89619975089294,
positive,negative,2,l,j,,,,,,,,,11,3,201,14,,,,,,,,,,,,,,,,,,,,,,,,main,2,2,2,negative,positive,j,j,1,0.5935201998800039,516.0605446998961,517.0765745001845,517.0362674999051,None,516.0605446998961,None,516.0605446998961,None,516.0605446998961,None,517.6368014001288,None,517.6368014001288,None,517.6368014001288,None,,,,,,,,,,,101,22,Male,2022-04-27_15h38.55.923,Main,2022.1.1,59.89619975089294,
neutral,negative,1,k,k,,,,,,,,,11,4,202,7,,,,,,,,,,,,,,,,,,,,,,,,main,2,2,1,negative,neutral,k,k,1,0.5608721999451518,517.6552444002591,518.6642479998991,518.6435996000655,None,517.6552444002591,None,517.6552444002591,None,517.6552444002591,None,519.2001643002965,None,519.2001643002965,None,519.2001643002965,None,,,,,,,,,,,101,22,Male,2022-04-27_15h38.55.923,Main,2022.1.1,59.89619975089294,
positive,neutral,1,l,j,,,,,,,,,11,5,203,8,,,,,,,,,,,,,,,,,,,,,,,,main,1,1,1,neutral,positive,j,j,1,0.7406783998012543,519.2185297003016,520.2319382000715,520.193770899903,None,519.2185297003016,None,519.2185297003016,None,519.2185297003016,None,520.9447365001776,None,520.9447365001776,None,520.9447365001776,None,,,,,,,,,,,101,22,Male,2022-04-27_15h38.55.923,Main,2022.1.1,59.89619975089294,
neutral,positive,2,k,k,,,,,,,,,11,6,204,13,,,,,,,,,,,,,,,,,,,,,,,,main,2,2,2,positive,neutral,k,k,1,0.5758758001029491,520.964546599891,521.9697269001044,521.9519485002384,None,520.964546599891,None,520.964546599891,None,520.964546599891,None,522.5227960002609,None,522.5227960002609,None,522.5227960002609,None,,,,,,,,,,,101,22,Male,2022-04-27_15h38.55.923,Main,2022.1.1,59.89619975089294,
negative,neutral,2,j,l,,,,,,,,,11,7,205,12,,,,,,,,,,,,,,,,,,,,,,,,main,2,2,2,neutral,negative,l,l,1,0.627982699777931,522.5461120000109,523.553133700043,523.5162772000767,None,522.5461120000109,None,522.5461120000109,None,522.5461120000109,None,524.1525083001703,None,524.1525083001703,None,524.1525083001703,None,,,,,,,,,,,101,22,Male,2022-04-27_15h38.55.923,Main,2022.1.1,59.89619975089294,
positive,neutral,2,l,j,,,,,,,,,11,8,206,17,,,,,,,,,,,,,,,,,,,,,,,,main,1,1,2,neutral,positive,j,j,1,0.6752404998987913,524.1712837000377,525.1820968999527,525.1638521999121,None,524.1712837000377,None,524.1712837000377,None,524.1712837000377,None,525.8317484002561,None,525.8317484002561,None,525.8317484002561,None,,,,,,,,,,,101,22,Male,2022-04-27_15h38.55.923,Main,2022.1.1,59.89619975089294,
neutral,neutral,1,k,k,,,,,,,,,11,9,207,1,,,,,,,,,,,,,,,,,,,,,,,,main,2,2,1,neutral,neutral,k,k,1,0.5528400000184774,525.8499711002223,526.8530319002457,526.8353722998872,None,525.8499711002223,None,525.8499711002223,None,525.8499711002223,None,527.3859570002184,None,527.3859570002184,None,527.3859570002184,None,,,,,,,,,,,101,22,Male,2022-04-27_15h38.55.923,Main,2022.1.1,59.89619975089294,
negative,neutral,1,j,l,,,,,,,,,11,10,208,3,,,,,,,,,,,,,,,,,,,,,,,,main,2,2,1,neutral,negative,l,l,1,0.6971122999675572,527.4065228002146,528.4101382000372,528.3899830998853,None,527.4065228002146,None,527.4065228002146,None,527.4065228002146,None,529.086989099998,None,529.086989099998,None,529.086989099998,None,,,,,,,,,,,101,22,Male,2022-04-27_15h38.55.923,Main,2022.1.1,59.89619975089294,
positive,positive,2,l,j,,,,,,,,,11,11,209,11,,,,,,,,,,,,,,,,,,,,,,,,main,1,1,2,positive,positive,j,j,1,0.617724800016731,529.1045015002601,530.114183400292,530.0939922002144,None,529.1045015002601,None,529.1045015002601,None,529.1045015002601,None,530.708285699971,None,530.708285699971,None,530.708285699971,None,,,,,,,,,,,101,22,Male,2022-04-27_15h38.55.923,Main,2022.1.1,59.89619975089294,
