target,distractor,set,ans1,ans2,rep_loop2.thisRepN,rep_loop2.thisTrialN,rep_loop2.thisN,rep_loop2.thisIndex,flanker_prac_loop.thisRepN,flanker_prac_loop.thisTrialN,flanker_prac_loop.thisN,flanker_prac_loop.thisIndex,flanker_main_loop.thisRepN,flanker_main_loop.thisTrialN,flanker_main_loop.thisN,flanker_main_loop.thisIndex,fl_inst_resp.keys,mouse.x,mouse.y,mouse.leftButton,mouse.midButton,mouse.rightButton,mouse.started,mouse.stopped,sound_1.started,sound_1.stopped,no_text.started,no_text.stopped,yes_text.started,yes_text.stopped,mouse_2.x,mouse_2.y,mouse_2.leftButton,mouse_2.midButton,mouse_2.rightButton,mouse_2.started,mouse_2.stopped,back_2.started,back_2.stopped,main_prac,fl_cold,fl_colt,fl_set,fl_dcond,fl_tcond,fl_ans,fl_res,fl_corr,fl_rt,fix_fl.started,fix_fl.stopped,targ.started,targ.stopped,j_button.started,j_button.stopped,k_button.started,k_button.stopped,l_button.started,l_button.stopped,j_button2.started,j_button2.stopped,k_button2.started,k_button2.stopped,l_button2.started,l_button2.stopped,mainback.started,mainback.stopped,key_resp.keys,mouse_6.x,mouse_6.y,mouse_6.leftButton,mouse_6.midButton,mouse_6.rightButton,mouse_6.started,mouse_6.stopped,id*,age*,gender*,date,expName,psychopyVersion,frameRate,
,,,,,0,0,0,0,,,,,,,,,None,0.20185184,-0.4101852,0,0,0,1.0327659500544542,None,36.26560431000617,None,88.38408039999922,None,88.38408039999922,None,-0.106481485,-0.06574074,0,0,0,0.013107209997542668,None,,,,,,,,,,,,,,,,,,,,,,,,,,,,,,,,,,,,,,,102,23,Female,2022-04-28_09h40.41.006,Main,2022.1.1,59.857121050283745,
negative,negative,2,j,l,,,,,0,0,0,9,,,,,,,,,,,,,,,,,,,,,,,,,,93.01727419999952,None,prac,2,2,2,negative,negative,j,j,1,2.2529695999983232,95.0536934000047,96.05626770000526,96.03882760000124,None,95.0536934000047,None,95.0536934000047,None,95.0536934000047,None,98.30218910000258,None,98.30218910000258,None,98.30218910000258,None,,,,,,,,,,,102,23,Female,2022-04-28_09h40.41.006,Main,2022.1.1,59.857121050283745,
neutral,neutral,2,k,k,,,,,0,1,1,10,,,,,,,,,,,,,,,,,,,,,,,,,,,,prac,2,2,2,neutral,neutral,k,k,1,1.1493485000028159,99.32498360000318,100.33874080000533,100.30484560000332,None,99.32498360000318,None,99.32498360000318,None,99.32498360000318,None,101.45817101000212,None,101.45817101000212,None,101.45817101000212,None,,,,,,,,,,,102,23,Female,2022-04-28_09h40.41.006,Main,2022.1.1,59.857121050283745,
negative,positive,2,j,l,,,,,0,2,2,15,,,,,,,,,,,,,,,,,,,,,,,,,,,,prac,2,2,2,positive,negative,j,j,1,1.232240899997123,101.47785830000066,102.49138610000227,102.45488480000495,None,101.47785830000066,None,101.47785830000066,None,101.47785830000066,None,103.69458321000202,None,103.69458321000202,None,103.69458321000202,None,,,,,,,,,,,102,23,Female,2022-04-28_09h40.41.006,Main,2022.1.1,59.857121050283745,
negative,neutral,1,j,l,,,,,0,3,3,3,,,,,,,,,,,,,,,,,,,,,,,,,,,,prac,1,1,1,neutral,negative,j,j,1,1.0808730999997351,103.71657470000355,104.71989060000487,104.69993650000106,None,103.71657470000355,None,103.71657470000355,None,103.71657470000355,None,105.77811430999937,None,105.77811430999937,None,105.77811430999937,None,,,,,,,,,,,102,23,Female,2022-04-28_09h40.41.006,Main,2022.1.1,59.857121050283745,
positive,positive,2,l,j,,,,,0,4,4,11,,,,,,,,,,,,,,,,,,,,,,,,,,,,prac,2,2,2,positive,positive,l,l,1,0.7240374000029988,105.79707520000375,106.81761720000213,106.77643520000129,None,105.79707520000375,None,105.79707520000375,None,105.79707520000375,None,107.50491511000219,None,107.50491511000219,None,107.50491511000219,None,,,,,,,,,,,102,23,Female,2022-04-28_09h40.41.006,Main,2022.1.1,59.857121050283745,
neutral,negative,1,k,k,,,,,0,5,5,7,,,,,,,,,,,,,,,,,,,,,,,,,,,,prac,2,2,1,negative,neutral,k,k,1,0.8038522999995621,107.524954600005,108.53907430000254,108.50503790000221,None,107.524954600005,None,107.524954600005,None,107.524954600005,None,109.3108566100047,None,109.3108566100047,None,109.3108566100047,None,,,,,,,,,,,102,23,Female,2022-04-28_09h40.41.006,Main,2022.1.1,59.857121050283745,
negative,neutral,2,j,l,,,,,0,6,6,12,,,,,,,,,,,,,,,,,,,,,,,,,,,,prac,2,2,2,neutral,negative,j,j,1,0.6690788999985671,109.32750490000035,110.3403993000029,110.30514080000285,None,109.32750490000035,None,109.32750490000035,None,109.32750490000035,None,110.98306871000314,None,110.98306871000314,None,110.98306871000314,None,,,,,,,,,,,102,23,Female,2022-04-28_09h40.41.006,Main,2022.1.1,59.857121050283745,
negative,negative,1,j,l,,,,,0,7,7,0,,,,,,,,,,,,,,,,,,,,,,,,,,,,prac,1,1,1,negative,negative,j,j,1,0.8716149000028963,111.00177180000173,112.01340890000574,111.98650080000516,None,111.00177180000173,None,111.00177180000173,None,111.00177180000173,None,112.8552576100039,None,112.8552576100039,None,112.8552576100039,None,,,,,,,,,,,102,23,Female,2022-04-28_09h40.41.006,Main,2022.1.1,59.857121050283745,
positive,positive,1,l,j,,,,,0,8,8,2,,,,,,,,,,,,,,,,,,,,,,,,,,,,prac,2,2,1,positive,positive,l,l,1,0.7707290000034845,112.87574250000034,113.8926500000016,113.85568280000007,None,112.87574250000034,None,112.87574250000034,None,112.87574250000034,None,114.63026201000248,None,114.63026201000248,None,114.63026201000248,None,,,,,,,,,,,102,23,Female,2022-04-28_09h40.41.006,Main,2022.1.1,59.857121050283745,
negative,positive,1,j,l,,,,,0,9,9,6,,,,,,,,,,,,,,,,,,,,,,,,,,,,prac,2,2,1,positive,negative,j,j,1,0.7796741999991355,114.65157480000198,115.67183900000236,115.63337610000599,None,114.65157480000198,None,114.65157480000198,None,114.65157480000198,None,116.41268621000127,None,116.41268621000127,None,116.41268621000127,None,,,,,,,,,,,102,23,Female,2022-04-28_09h40.41.006,Main,2022.1.1,59.857121050283745,
positive,neutral,2,l,j,,,,,0,10,10,17,,,,,,,,,,,,,,,,,,,,,,,,,,,,prac,2,2,2,neutral,positive,l,l,1,0.7975809999988996,116.43089370000234,117.43979160000163,117.40508460000274,None,116.43089370000234,None,116.43089370000234,None,116.43089370000234,None,118.21219971000319,None,118.21219971000319,None,118.21219971000319,None,,,,,,,,,,,102,23,Female,2022-04-28_09h40.41.006,Main,2022.1.1,59.857121050283745,
neutral,negative,2,k,k,,,,,0,11,11,16,,,,,,,,,,,,,,,,,,,,,,,,,,,,prac,1,1,2,negative,neutral,k,k,1,0.7660947000040323,118.2312058000025,119.23993370000244,119.20506990000285,None,118.2312058000025,None,118.2312058000025,None,118.2312058000025,None,119.98143421000641,None,119.98143421000641,None,119.98143421000641,None,,,,,,,,,,,102,23,Female,2022-04-28_09h40.41.006,Main,2022.1.1,59.857121050283745,
positive,negative,1,l,j,,,,,0,12,12,5,,,,,,,,,,,,,,,,,,,,,,,,,,,,prac,1,1,1,negative,positive,l,l,1,1.3687755999999354,119.99938150000526,121.0058091000028,120.97191960000055,None,119.99938150000526,None,119.99938150000526,None,119.99938150000526,None,122.35218491000633,None,122.35218491000633,None,122.35218491000633,None,,,,,,,,,,,102,23,Female,2022-04-28_09h40.41.006,Main,2022.1.1,59.857121050283745,
neutral,neutral,1,k,k,,,,,0,13,13,1,,,,,,,,,,,,,,,,,,,,,,,,,,,,prac,2,2,1,neutral,neutral,k,k,1,0.7951538000052096,122.3698086000004,123.3719218000042,123.35334250000597,None,122.3698086000004,None,122.3698086000004,None,122.3698086000004,None,124.15015111000612,None,124.15015111000612,None,124.15015111000612,None,,,,,,,,,,,102,23,Female,2022-04-28_09h40.41.006,Main,2022.1.1,59.857121050283745,
neutral,positive,1,k,k,,,,,0,14,14,4,,,,,,,,,,,,,,,,,,,,,,,,,,,,prac,1,1,1,positive,neutral,k,j,0,0.7304603000011411,124.16770130000077,125.17192040000373,125.13852900000347,None,124.16770130000077,None,124.16770130000077,None,124.16770130000077,None,125.8911453000037,None,125.8911453000037,None,125.8911453000037,None,,,,,,,,,,,102,23,Female,2022-04-28_09h40.41.006,Main,2022.1.1,59.857121050283745,
neutral,positive,2,k,k,,,,,0,15,15,13,,,,,,,,,,,,,,,,,,,,,,,,,,,,prac,2,2,2,positive,neutral,k,k,1,0.7651535999975749,126.90786920000392,127.92453340000066,127.88709329999983,None,126.90786920000392,None,126.90786920000392,None,126.90786920000392,None,128.6573878100018,None,128.6573878100018,None,128.6573878100018,None,,,,,,,,,,,102,23,Female,2022-04-28_09h40.41.006,Main,2022.1.1,59.857121050283745,
positive,neutral,1,l,j,,,,,0,16,16,8,,,,,,,,,,,,,,,,,,,,,,,,,,,,prac,1,1,1,neutral,positive,l,l,1,0.7323747999980696,128.67719140000554,129.68903250000585,129.65527380000276,None,128.67719140000554,None,128.67719140000554,None,128.67719140000554,None,130.39361281000237,None,130.39361281000237,None,130.39361281000237,None,,,,,,,,,,,102,23,Female,2022-04-28_09h40.41.006,Main,2022.1.1,59.857121050283745,
positive,negative,2,l,j,,,,,0,17,17,14,,,,,,,,,,,,,,,,,,,,,,,,,,,,prac,1,1,2,negative,positive,l,l,1,0.5845027000032132,130.41004000000248,131.4171323000046,131.3968090000053,None,130.41004000000248,None,130.41004000000248,None,130.41004000000248,None,131.98115461000197,None,131.98115461000197,None,131.98115461000197,None,,,,,,,,,,,102,23,Female,2022-04-28_09h40.41.006,Main,2022.1.1,59.857121050283745,
positive,neutral,1,l,j,,,,,1,0,18,8,,,,,,,,,,,,,,,,,,,,,,,,,,,,prac,1,1,1,neutral,positive,l,l,1,0.655926699997508,131.99914340000396,133.00646120000602,132.9721051000015,None,131.99914340000396,None,131.99914340000396,None,131.99914340000396,None,133.63888350999986,None,133.63888350999986,None,133.63888350999986,None,,,,,,,,,,,102,23,Female,2022-04-28_09h40.41.006,Main,2022.1.1,59.857121050283745,
neutral,neutral,1,k,k,,,,,1,1,19,1,,,,,,,,,,,,,,,,,,,,,,,,,,,,prac,1,1,1,neutral,neutral,k,k,1,0.6897868000014569,133.6579234000019,134.67202280000492,134.6372374000057,None,133.6579234000019,None,133.6579234000019,None,133.6579234000019,None,135.3334125100002,None,135.3334125100002,None,135.3334125100002,None,,,,,,,,,,,102,23,Female,2022-04-28_09h40.41.006,Main,2022.1.1,59.857121050283745,
neutral,negative,2,k,k,,,,,1,2,20,16,,,,,,,,,,,,,,,,,,,,,,,,,,,,prac,1,1,2,negative,neutral,k,k,1,0.5977144999997108,135.35440850000305,136.3837510000012,136.33666130000347,None,135.35440850000305,None,135.35440850000305,None,135.35440850000305,None,136.93375180999936,None,136.93375180999936,None,136.93375180999936,None,,,,,,,,,,,102,23,Female,2022-04-28_09h40.41.006,Main,2022.1.1,59.857121050283745,
neutral,negative,1,k,k,,,,,1,3,21,7,,,,,,,,,,,,,,,,,,,,,,,,,,,,prac,2,2,1,negative,neutral,k,k,1,0.6432105999992928,136.9501373000021,137.95995440000115,137.92297880000115,None,136.9501373000021,None,136.9501373000021,None,136.9501373000021,None,138.57887260999922,None,138.57887260999922,None,138.57887260999922,None,,,,,,,,,,,102,23,Female,2022-04-28_09h40.41.006,Main,2022.1.1,59.857121050283745,
neutral,neutral,2,k,k,,,,,1,4,22,10,,,,,,,,,,,,,,,,,,,,,,,,,,,,prac,1,1,2,neutral,neutral,k,k,1,0.5846519999977318,138.6003583000056,139.61707380000007,139.57008670000505,None,138.6003583000056,None,138.6003583000056,None,138.6003583000056,None,140.16636231000228,None,140.16636231000228,None,140.16636231000228,None,,,,,,,,,,,102,23,Female,2022-04-28_09h40.41.006,Main,2022.1.1,59.857121050283745,
neutral,positive,1,k,k,,,,,1,5,23,4,,,,,,,,,,,,,,,,,,,,,,,,,,,,prac,2,2,1,positive,neutral,k,k,1,0.5973554000011063,140.18465690000448,141.19532210000034,141.15871340000012,None,140.18465690000448,None,140.18465690000448,None,140.18465690000448,None,141.76581311000263,None,141.76581311000263,None,141.76581311000263,None,,,,,,,,,,,102,23,Female,2022-04-28_09h40.41.006,Main,2022.1.1,59.857121050283745,
positive,negative,2,l,j,,,,,1,6,24,14,,,,,,,,,,,,,,,,,,,,,,,,,,,,prac,1,1,2,negative,positive,l,l,1,0.7723870000045281,141.78664720000234,142.78910140000517,142.7719098000016,None,141.78664720000234,None,141.78664720000234,None,141.78664720000234,None,143.53964441000352,None,143.53964441000352,None,143.53964441000352,None,,,,,,,,,,,102,23,Female,2022-04-28_09h40.41.006,Main,2022.1.1,59.857121050283745,
positive,neutral,2,l,j,,,,,1,7,25,17,,,,,,,,,,,,,,,,,,,,,,,,,,,,prac,2,2,2,neutral,positive,l,l,1,0.5544358000042848,143.55897040000127,144.57234840000456,144.53672260000167,None,143.55897040000127,None,143.55897040000127,None,143.55897040000127,None,145.09790171000276,None,145.09790171000276,None,145.09790171000276,None,,,,,,,,,,,102,23,Female,2022-04-28_09h40.41.006,Main,2022.1.1,59.857121050283745,
negative,neutral,2,j,l,,,,,1,8,26,12,,,,,,,,,,,,,,,,,,,,,,,,,,,,prac,2,2,2,neutral,negative,j,j,1,0.915953100004117,145.1199947999994,146.12293990000035,146.08898780000163,None,145.1199947999994,None,145.1199947999994,None,145.1199947999994,None,147.01651621000127,None,147.01651621000127,None,147.01651621000127,None,,,,,,,,,,,102,23,Female,2022-04-28_09h40.41.006,Main,2022.1.1,59.857121050283745,
negative,negative,2,j,l,,,,,1,9,27,9,,,,,,,,,,,,,,,,,,,,,,,,,,,,prac,2,2,2,negative,negative,j,j,1,0.6875788000033936,147.03560100000323,148.03897050000523,148.02244380000047,None,147.03560100000323,None,147.03560100000323,None,147.03560100000323,None,148.7050618100031,None,148.7050618100031,None,148.7050618100031,None,,,,,,,,,,,102,23,Female,2022-04-28_09h40.41.006,Main,2022.1.1,59.857121050283745,
negative,negative,1,j,l,,,,,1,10,28,0,,,,,,,,,,,,,,,,,,,,,,,,,,,,prac,1,1,1,negative,negative,j,k,0,0.7210302999956184,148.724767300002,149.74173590000282,149.7059309000033,None,148.724767300002,None,148.724767300002,None,148.724767300002,None,150.4375136000017,None,150.4375136000017,None,150.4375136000017,None,,,,,,,,,,,102,23,Female,2022-04-28_09h40.41.006,Main,2022.1.1,59.857121050283745,
neutral,positive,2,k,k,,,,,1,11,29,13,,,,,,,,,,,,,,,,,,,,,,,,,,,,prac,1,1,2,positive,neutral,k,k,1,0.7351387000016985,151.45976570000494,152.47735850000026,152.44142560000182,None,151.45976570000494,None,151.45976570000494,None,151.45976570000494,None,153.17847801000534,None,153.17847801000534,None,153.17847801000534,None,,,,,,,,,,,102,23,Female,2022-04-28_09h40.41.006,Main,2022.1.1,59.857121050283745,
negative,positive,1,j,l,,,,,1,12,30,6,,,,,,,,,,,,,,,,,,,,,,,,,,,,prac,2,2,1,positive,negative,j,j,1,0.7847166999999899,153.19775530000334,154.20661830000608,154.17255200000363,None,153.19775530000334,None,153.19775530000334,None,153.19775530000334,None,154.9672110099993,None,154.9672110099993,None,154.9672110099993,None,,,,,,,,,,,102,23,Female,2022-04-28_09h40.41.006,Main,2022.1.1,59.857121050283745,
negative,neutral,1,j,l,,,,,1,13,31,3,,,,,,,,,,,,,,,,,,,,,,,,,,,,prac,1,1,1,neutral,negative,j,j,1,0.9251856000046246,154.98836139999912,155.9892747000049,155.9727015000026,None,154.98836139999912,None,154.98836139999912,None,154.98836139999912,None,156.89335511000462,None,156.89335511000462,None,156.89335511000462,None,,,,,,,,,,,102,23,Female,2022-04-28_09h40.41.006,Main,2022.1.1,59.857121050283745,
positive,negative,1,l,j,,,,,1,14,32,5,,,,,,,,,,,,,,,,,,,,,,,,,,,,prac,2,2,1,negative,positive,l,l,1,1.2251229000030435,156.91451200000301,157.92539899999974,157.88982319999923,None,156.91451200000301,None,156.91451200000301,None,156.91451200000301,None,159.1226850100058,None,159.1226850100058,None,159.1226850100058,None,,,,,,,,,,,102,23,Female,2022-04-28_09h40.41.006,Main,2022.1.1,59.857121050283745,
negative,positive,2,j,l,,,,,1,15,33,15,,,,,,,,,,,,,,,,,,,,,,,,,,,,prac,1,1,2,positive,negative,j,j,1,0.8885319000037271,159.1407548999996,160.1429461000007,160.12335080000048,None,159.1407548999996,None,159.1407548999996,None,159.1407548999996,None,161.01198141000276,None,161.01198141000276,None,161.01198141000276,None,,,,,,,,,,,102,23,Female,2022-04-28_09h40.41.006,Main,2022.1.1,59.857121050283745,
positive,positive,2,l,j,,,,,1,16,34,11,,,,,,,,,,,,,,,,,,,,,,,,,,,,prac,2,2,2,positive,positive,l,l,1,0.7523863000023994,161.03124920000118,162.03986690000602,162.0060764000009,None,161.03124920000118,None,161.03124920000118,None,161.03124920000118,None,162.7692074100043,None,162.7692074100043,None,162.7692074100043,None,,,,,,,,,,,102,23,Female,2022-04-28_09h40.41.006,Main,2022.1.1,59.857121050283745,
positive,positive,1,l,j,,,,,1,17,35,2,,,,,,,,,,,,,,,,,,,,,,,,,,,,prac,1,1,1,positive,positive,l,l,1,1.1660001999989618,162.78775060000044,163.7893308999992,163.77278130000195,None,162.78775060000044,None,162.78775060000044,None,162.78775060000044,None,164.9381380100014,None,164.9381380100014,None,164.9381380100014,None,,,,,,,,,,,102,23,Female,2022-04-28_09h40.41.006,Main,2022.1.1,59.857121050283745,
,,,,,,,,,,,,,,,,,,,,,,,,,,,,,,,,,,,,,,,,,,,,,,,,,,,,,,,,,,,,,,,,,,164.94641790000605,None,None,,,,,,,,102,23,Female,2022-04-28_09h40.41.006,Main,2022.1.1,59.857121050283745,
,,,,,,,,,,,,,,,,,,,,,,,,,,,,,,,,,,,,,,,,,,,,,,,,,,,,,,,,,,,,,,,,,,,,,0.09907407,-0.06388889,1,0,0,0.006730909997713752,None,102,23,Female,2022-04-28_09h40.41.006,Main,2022.1.1,59.857121050283745,
negative,positive,1,j,l,,,,,,,,,0,0,0,6,,,,,,,,,,,,,,,,,,,,,,178.93480070000078,None,main,1,1,1,positive,negative,j,,0,0.975377100003243,180.95868510000582,181.95954860000347,181.94128090000595,None,180.95868510000582,None,180.95868510000582,None,180.95868510000582,None,182.9209919000059,None,182.9209919000059,None,182.9209919000059,None,,,,,,,,,,,102,23,Female,2022-04-28_09h40.41.006,Main,2022.1.1,59.857121050283745,
negative,negative,2,j,l,,,,,,,,,0,1,1,9,,,,,,,,,,,,,,,,,,,,,,,,main,1,1,2,negative,negative,j,j,1,0.7096750999990036,183.94386560000567,184.9650391000032,184.93797600000107,None,183.94386560000567,None,183.94386560000567,None,183.94386560000567,None,185.63748061000587,None,185.63748061000587,None,185.63748061000587,None,,,,,,,,,,,102,23,Female,2022-04-28_09h40.41.006,Main,2022.1.1,59.857121050283745,
neutral,positive,1,k,k,,,,,,,,,0,2,2,4,,,,,,,,,,,,,,,,,,,,,,,,main,2,2,1,positive,neutral,k,k,1,0.6885367000068072,185.6614566000062,186.67532240000583,186.64028120000148,None,185.6614566000062,None,185.6614566000062,None,185.6614566000062,None,187.33169371000184,None,187.33169371000184,None,187.33169371000184,None,,,,,,,,,,,102,23,Female,2022-04-28_09h40.41.006,Main,2022.1.1,59.857121050283745,
neutral,neutral,1,k,k,,,,,,,,,0,3,3,1,,,,,,,,,,,,,,,,,,,,,,,,main,1,1,1,neutral,neutral,k,k,1,0.5523725999955786,187.349801700002,188.35731850000593,188.32320320000144,None,187.349801700002,None,187.349801700002,None,187.349801700002,None,188.88676341000172,None,188.88676341000172,None,188.88676341000172,None,,,,,,,,,,,102,23,Female,2022-04-28_09h40.41.006,Main,2022.1.1,59.857121050283745,
negative,negative,1,j,l,,,,,,,,,0,4,4,0,,,,,,,,,,,,,,,,,,,,,,,,main,1,1,1,negative,negative,j,j,1,0.7456425999989733,188.9064856000041,189.92307460000302,189.88765750000312,None,188.9064856000041,None,188.9064856000041,None,188.9064856000041,None,190.63649501000253,None,190.63649501000253,None,190.63649501000253,None,,,,,,,,,,,102,23,Female,2022-04-28_09h40.41.006,Main,2022.1.1,59.857121050283745,
positive,positive,1,l,j,,,,,,,,,0,5,5,2,,,,,,,,,,,,,,,,,,,,,,,,main,1,1,1,positive,positive,l,l,1,0.8106846999944537,190.65469460000168,191.65665620000073,191.63847180000448,None,190.65469460000168,None,190.65469460000168,None,190.65469460000168,None,192.44986571000408,None,192.44986571000408,None,192.44986571000408,None,,,,,,,,,,,102,23,Female,2022-04-28_09h40.41.006,Main,2022.1.1,59.857121050283745,
positive,neutral,1,l,j,,,,,,,,,0,6,6,8,,,,,,,,,,,,,,,,,,,,,,,,main,1,1,1,neutral,positive,l,l,1,0.5944992000004277,192.46938680000312,193.47450400000525,193.45679650000238,None,192.46938680000312,None,192.46938680000312,None,192.46938680000312,None,194.04580541000104,None,194.04580541000104,None,194.04580541000104,None,,,,,,,,,,,102,23,Female,2022-04-28_09h40.41.006,Main,2022.1.1,59.857121050283745,
negative,positive,2,j,l,,,,,,,,,0,7,7,15,,,,,,,,,,,,,,,,,,,,,,,,main,1,1,2,positive,negative,j,j,1,0.7021053000062238,194.0644245000003,195.08141400000022,195.03839240000525,None,194.0644245000003,None,194.0644245000003,None,194.0644245000003,None,195.7523275100022,None,195.7523275100022,None,195.7523275100022,None,,,,,,,,,,,102,23,Female,2022-04-28_09h40.41.006,Main,2022.1.1,59.857121050283745,
positive,positive,2,l,j,,,,,,,,,0,8,8,11,,,,,,,,,,,,,,,,,,,,,,,,main,1,1,2,positive,positive,l,l,1,0.6795486999981222,195.77008240000578,196.77339800000482,196.75671500000317,None,195.77008240000578,None,195.77008240000578,None,195.77008240000578,None,197.43449631000038,None,197.43449631000038,None,197.43449631000038,None,,,,,,,,,,,102,23,Female,2022-04-28_09h40.41.006,Main,2022.1.1,59.857121050283745,
positive,neutral,2,l,j,,,,,,,,,0,9,9,17,,,,,,,,,,,,,,,,,,,,,,,,main,1,1,2,neutral,positive,l,l,1,0.624219199999061,197.45221510000556,198.45759120000002,198.43972180000128,None,197.45221510000556,None,197.45221510000556,None,197.45221510000556,None,199.05971821000202,None,199.05971821000202,None,199.05971821000202,None,,,,,,,,,,,102,23,Female,2022-04-28_09h40.41.006,Main,2022.1.1,59.857121050283745,
neutral,neutral,2,k,k,,,,,,,,,0,10,10,10,,,,,,,,,,,,,,,,,,,,,,,,main,2,2,2,neutral,neutral,k,k,1,0.6770783000029041,199.07903600000282,200.09031180000602,200.05164250000234,None,199.07903600000282,None,199.07903600000282,None,199.07903600000282,None,200.74015211000295,None,200.74015211000295,None,200.74015211000295,None,,,,,,,,,,,102,23,Female,2022-04-28_09h40.41.006,Main,2022.1.1,59.857121050283745,
neutral,negative,1,k,k,,,,,,,,,0,11,11,7,,,,,,,,,,,,,,,,,,,,,,,,main,2,2,1,negative,neutral,k,k,1,0.6110602999979164,200.75859350000246,201.7735107000044,201.75623910000286,None,200.75859350000246,None,200.75859350000246,None,200.75859350000246,None,202.3548241100063,None,202.3548241100063,None,202.3548241100063,None,,,,,,,,,,,102,23,Female,2022-04-28_09h40.41.006,Main,2022.1.1,59.857121050283745,
neutral,positive,2,k,k,,,,,,,,,0,12,12,13,,,,,,,,,,,,,,,,,,,,,,,,main,2,2,2,positive,neutral,k,k,1,0.6029094999976223,202.3743734000018,203.3739260000002,203.35696160000225,None,202.3743734000018,None,202.3743734000018,None,202.3743734000018,None,203.96036080999983,None,203.96036080999983,None,203.96036080999983,None,,,,,,,,,,,102,23,Female,2022-04-28_09h40.41.006,Main,2022.1.1,59.857121050283745,
positive,negative,2,l,j,,,,,,,,,0,13,13,14,,,,,,,,,,,,,,,,,,,,,,,,main,2,2,2,negative,positive,l,l,1,0.5391451999967103,203.98022650000348,204.9903040000063,204.95162850000634,None,203.98022650000348,None,203.98022650000348,None,203.98022650000348,None,205.50388760999994,None,205.50388760999994,None,205.50388760999994,None,,,,,,,,,,,102,23,Female,2022-04-28_09h40.41.006,Main,2022.1.1,59.857121050283745,
negative,neutral,2,j,l,,,,,,,,,0,14,14,12,,,,,,,,,,,,,,,,,,,,,,,,main,2,2,2,neutral,negative,j,j,1,0.723514500001329,205.5222259000002,206.53827500000625,206.5187036999996,None,205.5222259000002,None,205.5222259000002,None,205.5222259000002,None,207.228973510005,None,207.228973510005,None,207.228973510005,None,,,,,,,,,,,102,23,Female,2022-04-28_09h40.41.006,Main,2022.1.1,59.857121050283745,
negative,neutral,1,j,l,,,,,,,,,0,15,15,3,,,,,,,,,,,,,,,,,,,,,,,,main,2,2,1,neutral,negative,j,j,1,0.8739234999957262,207.25063220000447,208.25688490000175,208.2219172000041,None,207.25063220000447,None,207.25063220000447,None,207.25063220000447,None,209.10721371000471,None,209.10721371000471,None,209.10721371000471,None,,,,,,,,,,,102,23,Female,2022-04-28_09h40.41.006,Main,2022.1.1,59.857121050283745,
positive,negative,1,l,j,,,,,,,,,0,16,16,5,,,,,,,,,,,,,,,,,,,,,,,,main,1,1,1,negative,positive,l,l,1,0.6403573999996297,209.12636750000092,210.14052520000405,210.10186539999995,None,209.12636750000092,None,209.12636750000092,None,209.12636750000092,None,210.75075620999922,None,210.75075620999922,None,210.75075620999922,None,,,,,,,,,,,102,23,Female,2022-04-28_09h40.41.006,Main,2022.1.1,59.857121050283745,
neutral,negative,2,k,k,,,,,,,,,0,17,17,16,,,,,,,,,,,,,,,,,,,,,,,,main,2,2,2,negative,neutral,k,k,1,0.5850714000043808,210.77155080000375,211.77684430000227,211.7416674000051,None,210.77155080000375,None,210.77155080000375,None,210.77155080000375,None,212.33901341000382,None,212.33901341000382,None,212.33901341000382,None,,,,,,,,,,,102,23,Female,2022-04-28_09h40.41.006,Main,2022.1.1,59.857121050283745,
neutral,positive,1,k,k,,,,,,,,,1,0,18,4,,,,,,,,,,,,,,,,,,,,,,,,main,2,2,1,positive,neutral,k,k,1,0.5565566000004765,212.3572125999999,213.35708100000193,213.3403244000001,None,212.3572125999999,None,212.3572125999999,None,212.3572125999999,None,213.89935591000466,None,213.89935591000466,None,213.89935591000466,None,,,,,,,,,,,102,23,Female,2022-04-28_09h40.41.006,Main,2022.1.1,59.857121050283745,
negative,negative,1,j,l,,,,,,,,,1,1,19,0,,,,,,,,,,,,,,,,,,,,,,,,main,2,2,1,negative,negative,j,j,1,1.4057092999937595,213.91711880000366,214.92174850000447,214.9019855000006,None,213.91711880000366,None,213.91711880000366,None,213.91711880000366,None,216.30658311000224,None,216.30658311000224,None,216.30658311000224,None,,,,,,,,,,,102,23,Female,2022-04-28_09h40.41.006,Main,2022.1.1,59.857121050283745,
positive,negative,1,l,j,,,,,,,,,1,2,20,5,,,,,,,,,,,,,,,,,,,,,,,,main,2,2,1,negative,positive,l,j,0,0.674827800001367,216.32569190000504,217.3411694000024,217.3071917000052,None,216.32569190000504,None,216.32569190000504,None,216.32569190000504,None,217.99012680000305,None,217.99012680000305,None,217.99012680000305,None,,,,,,,,,,,102,23,Female,2022-04-28_09h40.41.006,Main,2022.1.1,59.857121050283745,
neutral,negative,1,k,k,,,,,,,,,1,3,21,7,,,,,,,,,,,,,,,,,,,,,,,,main,2,2,1,negative,neutral,k,k,1,0.7083807000017259,219.01084710000578,220.03256600000168,219.99048279999988,None,219.01084710000578,None,219.01084710000578,None,219.01084710000578,None,220.7047706100049,None,220.7047706100049,None,220.7047706100049,None,,,,,,,,,,,102,23,Female,2022-04-28_09h40.41.006,Main,2022.1.1,59.857121050283745,
neutral,neutral,1,k,k,,,,,,,,,1,4,22,1,,,,,,,,,,,,,,,,,,,,,,,,main,1,1,1,neutral,neutral,k,k,1,0.558318400006101,220.7221204000016,221.72357900000497,221.70731770000566,None,220.7221204000016,None,220.7221204000016,None,220.7221204000016,None,222.26673131000206,None,222.26673131000206,None,222.26673131000206,None,,,,,,,,,,,102,23,Female,2022-04-28_09h40.41.006,Main,2022.1.1,59.857121050283745,
neutral,neutral,2,k,k,,,,,,,,,1,5,23,10,,,,,,,,,,,,,,,,,,,,,,,,main,2,2,2,neutral,neutral,k,k,1,0.634370100000524,222.2871535000013,223.29353500000434,223.25841070000024,None,222.2871535000013,None,222.2871535000013,None,222.2871535000013,None,223.90366991000263,None,223.90366991000263,None,223.90366991000263,None,,,,,,,,,,,102,23,Female,2022-04-28_09h40.41.006,Main,2022.1.1,59.857121050283745,
negative,positive,1,j,l,,,,,,,,,1,6,24,6,,,,,,,,,,,,,,,,,,,,,,,,main,2,2,1,positive,negative,j,j,1,0.7746460999987903,223.92188960000203,224.9246751000028,224.90736430000106,None,223.92188960000203,None,223.92188960000203,None,223.92188960000203,None,225.6805739100011,None,225.6805739100011,None,225.6805739100011,None,,,,,,,,,,,102,23,Female,2022-04-28_09h40.41.006,Main,2022.1.1,59.857121050283745,
positive,positive,1,l,j,,,,,,,,,1,7,25,2,,,,,,,,,,,,,,,,,,,,,,,,main,1,1,1,positive,positive,l,l,1,0.6897471999982372,225.70126880000316,226.7121488000048,226.67595950000396,None,225.70126880000316,None,225.70126880000316,None,225.70126880000316,None,227.37269351000504,None,227.37269351000504,None,227.37269351000504,None,,,,,,,,,,,102,23,Female,2022-04-28_09h40.41.006,Main,2022.1.1,59.857121050283745,
positive,negative,2,l,j,,,,,,,,,1,8,26,14,,,,,,,,,,,,,,,,,,,,,,,,main,2,2,2,negative,positive,l,l,1,0.790096499993524,227.39251250000234,228.4020238000012,228.38267020000058,None,227.39251250000234,None,227.39251250000234,None,227.39251250000234,None,229.16682451000014,None,229.16682451000014,None,229.16682451000014,None,,,,,,,,,,,102,23,Female,2022-04-28_09h40.41.006,Main,2022.1.1,59.857121050283745,
positive,positive,2,l,j,,,,,,,,,1,9,27,11,,,,,,,,,,,,,,,,,,,,,,,,main,1,1,2,positive,positive,l,l,1,0.6087196999942535,229.18766660000256,230.2053567000039,230.1657078999997,None,229.18766660000256,None,229.18766660000256,None,229.18766660000256,None,230.77636651000574,None,230.77636651000574,None,230.77636651000574,None,,,,,,,,,,,102,23,Female,2022-04-28_09h40.41.006,Main,2022.1.1,59.857121050283745,
negative,positive,2,j,l,,,,,,,,,1,10,28,15,,,,,,,,,,,,,,,,,,,,,,,,main,1,1,2,positive,negative,j,j,1,0.7806290999942576,230.7953234000015,231.80788730000495,231.7724043000053,None,230.7953234000015,None,230.7953234000015,None,230.7953234000015,None,232.56039361000074,None,232.56039361000074,None,232.56039361000074,None,,,,,,,,,,,102,23,Female,2022-04-28_09h40.41.006,Main,2022.1.1,59.857121050283745,
negative,neutral,2,j,l,,,,,,,,,1,11,29,12,,,,,,,,,,,,,,,,,,,,,,,,main,1,1,2,neutral,negative,j,j,1,0.7672888000015519,232.57859000000462,233.59114060000138,233.55230770000344,None,232.57859000000462,None,232.57859000000462,None,232.57859000000462,None,234.33224211000123,None,234.33224211000123,None,234.33224211000123,None,,,,,,,,,,,102,23,Female,2022-04-28_09h40.41.006,Main,2022.1.1,59.857121050283745,
negative,negative,2,j,l,,,,,,,,,1,12,30,9,,,,,,,,,,,,,,,,,,,,,,,,main,2,2,2,negative,negative,j,j,1,0.7342186000023503,234.34829490000266,235.3658285000056,235.32420339999953,None,234.34829490000266,None,234.34829490000266,None,234.34829490000266,None,236.0687207100047,None,236.0687207100047,None,236.0687207100047,None,,,,,,,,,,,102,23,Female,2022-04-28_09h40.41.006,Main,2022.1.1,59.857121050283745,
neutral,negative,2,k,k,,,,,,,,,1,13,31,16,,,,,,,,,,,,,,,,,,,,,,,,main,2,2,2,negative,neutral,k,k,1,0.691689100000076,236.08978360000037,237.10652310000296,237.06410780000442,None,236.08978360000037,None,236.08978360000037,None,236.08978360000037,None,237.76164831000568,None,237.76164831000568,None,237.76164831000568,None,,,,,,,,,,,102,23,Female,2022-04-28_09h40.41.006,Main,2022.1.1,59.857121050283745,
positive,neutral,2,l,j,,,,,,,,,1,14,32,17,,,,,,,,,,,,,,,,,,,,,,,,main,2,2,2,neutral,positive,l,l,1,0.656231699998898,237.78071180000552,238.79932950000511,238.7576807000005,None,237.78071180000552,None,237.78071180000552,None,237.78071180000552,None,239.42183851000226,None,239.42183851000226,None,239.42183851000226,None,,,,,,,,,,,102,23,Female,2022-04-28_09h40.41.006,Main,2022.1.1,59.857121050283745,
positive,neutral,1,l,j,,,,,,,,,1,15,33,8,,,,,,,,,,,,,,,,,,,,,,,,main,2,2,1,neutral,positive,l,l,1,0.8597608999989461,239.4404338000022,240.45227480000176,240.4328628000003,None,239.4404338000022,None,239.4404338000022,None,239.4404338000022,None,241.2851674100013,None,241.2851674100013,None,241.2851674100013,None,,,,,,,,,,,102,23,Female,2022-04-28_09h40.41.006,Main,2022.1.1,59.857121050283745,
neutral,positive,2,k,k,,,,,,,,,1,16,34,13,,,,,,,,,,,,,,,,,,,,,,,,main,1,1,2,positive,neutral,k,k,1,0.590261899997131,241.30282140000054,242.30759380000381,242.28930300000502,None,241.30282140000054,None,241.30282140000054,None,241.30282140000054,None,242.87669721000492,None,242.87669721000492,None,242.87669721000492,None,,,,,,,,,,,102,23,Female,2022-04-28_09h40.41.006,Main,2022.1.1,59.857121050283745,
negative,neutral,1,j,l,,,,,,,,,1,17,35,3,,,,,,,,,,,,,,,,,,,,,,,,main,1,1,1,neutral,negative,j,j,1,0.7612379000056535,242.8944893000007,243.90753190000396,243.8693912000017,None,242.8944893000007,None,242.8944893000007,None,242.8944893000007,None,244.64111891000283,None,244.64111891000283,None,244.64111891000283,None,,,,,,,,,,,102,23,Female,2022-04-28_09h40.41.006,Main,2022.1.1,59.857121050283745,
positive,neutral,1,l,j,,,,,,,,,2,0,36,8,,,,,,,,,,,,,,,,,,,,,,,,main,2,2,1,neutral,positive,l,l,1,0.8357117000050494,244.65958530000353,245.6742981999996,245.63793980000628,None,244.65958530000353,None,244.65958530000353,None,244.65958530000353,None,246.4793934100009,None,246.4793934100009,None,246.4793934100009,None,,,,,,,,,,,102,23,Female,2022-04-28_09h40.41.006,Main,2022.1.1,59.857121050283745,
neutral,positive,1,k,k,,,,,,,,,2,1,37,4,,,,,,,,,,,,,,,,,,,,,,,,main,1,1,1,positive,neutral,k,k,1,0.5635343000030844,246.49789990000136,247.50535769999988,247.48584140000457,None,246.49789990000136,None,246.49789990000136,None,246.49789990000136,None,248.04629271000084,None,248.04629271000084,None,248.04629271000084,None,,,,,,,,,,,102,23,Female,2022-04-28_09h40.41.006,Main,2022.1.1,59.857121050283745,
positive,positive,2,l,j,,,,,,,,,2,2,38,11,,,,,,,,,,,,,,,,,,,,,,,,main,2,2,2,positive,positive,l,l,1,0.979002699998091,248.0647850000023,249.07476200000383,249.03952720000234,None,248.0647850000023,None,248.0647850000023,None,248.0647850000023,None,250.02661351000205,None,250.02661351000205,None,250.02661351000205,None,,,,,,,,,,,102,23,Female,2022-04-28_09h40.41.006,Main,2022.1.1,59.857121050283745,
negative,neutral,2,j,l,,,,,,,,,2,3,39,12,,,,,,,,,,,,,,,,,,,,,,,,main,1,1,2,neutral,negative,j,j,1,0.7163862000015797,250.04738250000082,251.07383790000313,251.02924540000095,None,250.04738250000082,None,250.04738250000082,None,250.04738250000082,None,251.74917841000496,None,251.74917841000496,None,251.74917841000496,None,,,,,,,,,,,102,23,Female,2022-04-28_09h40.41.006,Main,2022.1.1,59.857121050283745,
neutral,negative,2,k,k,,,,,,,,,2,4,40,16,,,,,,,,,,,,,,,,,,,,,,,,main,1,1,2,negative,neutral,k,k,1,0.73787280000397,251.76994990000094,252.7719778000028,252.7527470000059,None,251.76994990000094,None,251.76994990000094,None,251.76994990000094,None,253.48993901000284,None,253.48993901000284,None,253.48993901000284,None,,,,,,,,,,,102,23,Female,2022-04-28_09h40.41.006,Main,2022.1.1,59.857121050283745,
positive,negative,1,l,j,,,,,,,,,2,5,41,5,,,,,,,,,,,,,,,,,,,,,,,,main,2,2,1,negative,positive,l,l,1,0.6151745000024675,253.50783070000034,254.52347920000466,254.5031683000052,None,253.50783070000034,None,253.50783070000034,None,253.50783070000034,None,255.10768951000426,None,255.10768951000426,None,255.10768951000426,None,,,,,,,,,,,102,23,Female,2022-04-28_09h40.41.006,Main,2022.1.1,59.857121050283745,
positive,neutral,2,l,j,,,,,,,,,2,6,42,17,,,,,,,,,,,,,,,,,,,,,,,,main,2,2,2,neutral,positive,l,l,1,0.7573650999984238,255.12595090000104,256.14147370000137,256.10461190000206,None,255.12595090000104,None,255.12595090000104,None,255.12595090000104,None,256.86926011000395,None,256.86926011000395,None,256.86926011000395,None,,,,,,,,,,,102,23,Female,2022-04-28_09h40.41.006,Main,2022.1.1,59.857121050283745,
neutral,negative,1,k,k,,,,,,,,,2,7,43,7,,,,,,,,,,,,,,,,,,,,,,,,main,2,2,1,negative,neutral,k,j,0,0.6296210000000428,256.8904810000022,257.9079140000031,257.86948380000103,None,256.8904810000022,None,256.8904810000022,None,256.8904810000022,None,258.5077715000007,None,258.5077715000007,None,258.5077715000007,None,,,,,,,,,,,102,23,Female,2022-04-28_09h40.41.006,Main,2022.1.1,59.857121050283745,
neutral,neutral,1,k,k,,,,,,,,,2,8,44,1,,,,,,,,,,,,,,,,,,,,,,,,main,1,1,1,neutral,neutral,k,k,1,0.6061035000020638,259.5266163000051,260.549851900003,260.5228184000007,None,259.5266163000051,None,259.5266163000051,None,259.5266163000051,None,261.11969111000434,None,261.11969111000434,None,261.11969111000434,None,,,,,,,,,,,102,23,Female,2022-04-28_09h40.41.006,Main,2022.1.1,59.857121050283745,
neutral,positive,2,k,k,,,,,,,,,2,9,45,13,,,,,,,,,,,,,,,,,,,,,,,,main,1,1,2,positive,neutral,k,k,1,0.6006639000042924,261.14012800000637,262.157294800003,262.13675890000013,None,261.14012800000637,None,261.14012800000637,None,261.14012800000637,None,262.7229451100058,None,262.7229451100058,None,262.7229451100058,None,,,,,,,,,,,102,23,Female,2022-04-28_09h40.41.006,Main,2022.1.1,59.857121050283745,
negative,negative,1,j,l,,,,,,,,,2,10,46,0,,,,,,,,,,,,,,,,,,,,,,,,main,1,1,1,negative,negative,j,j,1,0.6739812000014354,262.74155370000517,263.7437852000003,263.72653180000634,None,262.74155370000517,None,262.74155370000517,None,262.74155370000517,None,264.4007420100017,None,264.4007420100017,None,264.4007420100017,None,,,,,,,,,,,102,23,Female,2022-04-28_09h40.41.006,Main,2022.1.1,59.857121050283745,
neutral,neutral,2,k,k,,,,,,,,,2,11,47,10,,,,,,,,,,,,,,,,,,,,,,,,main,1,1,2,neutral,neutral,k,k,1,0.6618212000030326,264.4217124000061,265.4246056000047,265.40734460000385,None,264.4217124000061,None,264.4217124000061,None,264.4217124000061,None,266.06521781000555,None,266.06521781000555,None,266.06521781000555,None,,,,,,,,,,,102,23,Female,2022-04-28_09h40.41.006,Main,2022.1.1,59.857121050283745,
negative,neutral,1,j,l,,,,,,,,,2,12,48,3,,,,,,,,,,,,,,,,,,,,,,,,main,2,2,1,neutral,negative,j,j,1,0.7028317000003881,266.0834041000053,267.0998213000057,267.0578058000028,None,266.0834041000053,None,266.0834041000053,None,266.0834041000053,None,267.7703630099997,None,267.7703630099997,None,267.7703630099997,None,,,,,,,,,,,102,23,Female,2022-04-28_09h40.41.006,Main,2022.1.1,59.857121050283745,
negative,positive,1,j,l,,,,,,,,,2,13,49,6,,,,,,,,,,,,,,,,,,,,,,,,main,2,2,1,positive,negative,j,j,1,0.7082735000003595,267.7902860000031,268.79152470000554,268.7730861000018,None,267.7902860000031,None,267.7902860000031,None,267.7902860000031,None,269.4795909100059,None,269.4795909100059,None,269.4795909100059,None,,,,,,,,,,,102,23,Female,2022-04-28_09h40.41.006,Main,2022.1.1,59.857121050283745,
negative,negative,2,j,l,,,,,,,,,2,14,50,9,,,,,,,,,,,,,,,,,,,,,,,,main,2,2,2,negative,negative,j,j,1,0.6357618000038201,269.49776000000566,270.5163728000043,270.47490950000065,None,269.49776000000566,None,269.49776000000566,None,269.49776000000566,None,271.1194184100015,None,271.1194184100015,None,271.1194184100015,None,,,,,,,,,,,102,23,Female,2022-04-28_09h40.41.006,Main,2022.1.1,59.857121050283745,
positive,positive,1,l,j,,,,,,,,,2,15,51,2,,,,,,,,,,,,,,,,,,,,,,,,main,1,1,1,positive,positive,l,l,1,0.7070344000021578,271.1381443999999,272.15030970000225,272.1246936000025,None,271.1381443999999,None,271.1381443999999,None,271.1381443999999,None,272.82793841000165,None,272.82793841000165,None,272.82793841000165,None,,,,,,,,,,,102,23,Female,2022-04-28_09h40.41.006,Main,2022.1.1,59.857121050283745,
positive,negative,2,l,j,,,,,,,,,2,16,52,14,,,,,,,,,,,,,,,,,,,,,,,,main,2,2,2,negative,positive,l,l,1,0.545780399996147,272.8488792999997,273.8586240000004,273.8248373000024,None,272.8488792999997,None,272.8488792999997,None,272.8488792999997,None,274.3776821100029,None,274.3776821100029,None,274.3776821100029,None,,,,,,,,,,,102,23,Female,2022-04-28_09h40.41.006,Main,2022.1.1,59.857121050283745,
negative,positive,2,j,l,,,,,,,,,2,17,53,15,,,,,,,,,,,,,,,,,,,,,,,,main,1,1,2,positive,negative,j,j,1,0.7164174000063213,274.3967543000035,275.4101054999992,275.3732885999998,None,274.3967543000035,None,274.3967543000035,None,274.3967543000035,None,276.09741110999965,None,276.09741110999965,None,276.09741110999965,None,,,,,,,,,,,102,23,Female,2022-04-28_09h40.41.006,Main,2022.1.1,59.857121050283745,
neutral,neutral,1,k,k,,,,,,,,,3,0,54,1,,,,,,,,,,,,,,,,,,,,,,,,main,2,2,1,neutral,neutral,k,k,1,0.5846106999961194,276.11575290000474,277.12487550000515,277.09057450000546,None,276.11575290000474,None,276.11575290000474,None,276.11575290000474,None,277.68554701000465,None,277.68554701000465,None,277.68554701000465,None,,,,,,,,,,,102,23,Female,2022-04-28_09h40.41.006,Main,2022.1.1,59.857121050283745,
positive,neutral,2,l,j,,,,,,,,,3,1,55,17,,,,,,,,,,,,,,,,,,,,,,,,main,1,1,2,neutral,positive,l,l,1,0.6236246999978903,277.7077477999992,278.7083641000063,278.6916315000053,None,277.7077477999992,None,277.7077477999992,None,277.7077477999992,None,279.3124299100011,None,279.3124299100011,None,279.3124299100011,None,,,,,,,,,,,102,23,Female,2022-04-28_09h40.41.006,Main,2022.1.1,59.857121050283745,
negative,positive,2,j,l,,,,,,,,,3,2,56,15,,,,,,,,,,,,,,,,,,,,,,,,main,2,2,2,positive,negative,j,j,1,0.6499373999977252,279.3311223000055,280.34928670000227,280.31136620000325,None,279.3311223000055,None,279.3311223000055,None,279.3311223000055,None,280.9662577100018,None,280.9662577100018,None,280.9662577100018,None,,,,,,,,,,,102,23,Female,2022-04-28_09h40.41.006,Main,2022.1.1,59.857121050283745,
neutral,neutral,2,k,k,,,,,,,,,3,3,57,10,,,,,,,,,,,,,,,,,,,,,,,,main,1,1,2,neutral,neutral,k,k,1,0.7007188999996288,280.9864793000015,281.99172470000485,281.95852050000394,None,280.9864793000015,None,280.9864793000015,None,280.9864793000015,None,282.670676110006,None,282.670676110006,None,282.670676110006,None,,,,,,,,,,,102,23,Female,2022-04-28_09h40.41.006,Main,2022.1.1,59.857121050283745,
positive,negative,2,l,j,,,,,,,,,3,4,58,14,,,,,,,,,,,,,,,,,,,,,,,,main,2,2,2,negative,positive,l,l,1,0.6093541000009282,282.688353000005,283.70021210000414,283.6583954000016,None,282.688353000005,None,282.688353000005,None,282.688353000005,None,284.28111481000013,None,284.28111481000013,None,284.28111481000013,None,,,,,,,,,,,102,23,Female,2022-04-28_09h40.41.006,Main,2022.1.1,59.857121050283745,
neutral,positive,1,k,k,,,,,,,,,3,5,59,4,,,,,,,,,,,,,,,,,,,,,,,,main,2,2,1,positive,neutral,k,k,1,0.5833098000002792,284.3004512000043,285.3070504000061,285.2866947000002,None,284.3004512000043,None,284.3004512000043,None,284.3004512000043,None,285.86830521000155,None,285.86830521000155,None,285.86830521000155,None,,,,,,,,,,,102,23,Female,2022-04-28_09h40.41.006,Main,2022.1.1,59.857121050283745,
neutral,negative,1,k,k,,,,,,,,,3,6,60,7,,,,,,,,,,,,,,,,,,,,,,,,main,1,1,1,negative,neutral,k,k,1,0.6075353000051109,285.8866183000064,286.8917827000041,286.8748326999994,None,285.8866183000064,None,285.8866183000064,None,285.8866183000064,None,287.4773237100009,None,287.4773237100009,None,287.4773237100009,None,,,,,,,,,,,102,23,Female,2022-04-28_09h40.41.006,Main,2022.1.1,59.857121050283745,
neutral,negative,2,k,k,,,,,,,,,3,7,61,16,,,,,,,,,,,,,,,,,,,,,,,,main,1,1,2,negative,neutral,k,k,1,0.6956905999977607,287.4962599999999,288.51728189999994,288.4696655000007,None,287.4962599999999,None,287.4962599999999,None,287.4962599999999,None,289.17470881000116,None,289.17470881000116,None,289.17470881000116,None,,,,,,,,,,,102,23,Female,2022-04-28_09h40.41.006,Main,2022.1.1,59.857121050283745,
neutral,positive,2,k,k,,,,,,,,,3,8,62,13,,,,,,,,,,,,,,,,,,,,,,,,main,1,1,2,positive,neutral,k,k,1,0.6023963000043295,289.1942756000062,290.20670860000246,290.18690070000594,None,289.1942756000062,None,289.1942756000062,None,289.1942756000062,None,290.782578510006,None,290.782578510006,None,290.782578510006,None,,,,,,,,,,,102,23,Female,2022-04-28_09h40.41.006,Main,2022.1.1,59.857121050283745,
negative,positive,1,j,l,,,,,,,,,3,9,63,6,,,,,,,,,,,,,,,,,,,,,,,,main,1,1,1,positive,negative,j,j,1,0.7966615999976057,290.802906500001,291.8086981000015,291.77496560000145,None,290.802906500001,None,290.802906500001,None,290.802906500001,None,292.5792794100045,None,292.5792794100045,None,292.5792794100045,None,,,,,,,,,,,102,23,Female,2022-04-28_09h40.41.006,Main,2022.1.1,59.857121050283745,
negative,negative,1,j,l,,,,,,,,,3,10,64,0,,,,,,,,,,,,,,,,,,,,,,,,main,1,1,1,negative,negative,j,j,1,0.7979387999948813,292.59852850000607,293.6065491000045,293.5868976000056,None,292.59852850000607,None,292.59852850000607,None,292.59852850000607,None,294.3804475100034,None,294.3804475100034,None,294.3804475100034,None,,,,,,,,,,,102,23,Female,2022-04-28_09h40.41.006,Main,2022.1.1,59.857121050283745,
negative,neutral,1,j,l,,,,,,,,,3,11,65,3,,,,,,,,,,,,,,,,,,,,,,,,main,1,1,1,neutral,negative,j,j,1,1.384814400000323,294.39931980000256,295.40348140000424,295.3836833000023,None,294.39931980000256,None,294.39931980000256,None,294.39931980000256,None,296.7701216100024,None,296.7701216100024,None,296.7701216100024,None,,,,,,,,,,,102,23,Female,2022-04-28_09h40.41.006,Main,2022.1.1,59.857121050283745,
negative,neutral,2,j,l,,,,,,,,,3,12,66,12,,,,,,,,,,,,,,,,,,,,,,,,main,2,2,2,neutral,negative,j,j,1,0.6163281999979517,296.7896003999995,297.7924789000026,297.7753109000041,None,296.7896003999995,None,296.7896003999995,None,296.7896003999995,None,298.3906076100022,None,298.3906076100022,None,298.3906076100022,None,,,,,,,,,,,102,23,Female,2022-04-28_09h40.41.006,Main,2022.1.1,59.857121050283745,
positive,positive,2,l,j,,,,,,,,,3,13,67,11,,,,,,,,,,,,,,,,,,,,,,,,main,1,1,2,positive,positive,l,l,1,0.6754631000003428,298.4078279000023,299.4235689000052,299.40358879999985,None,298.4078279000023,None,298.4078279000023,None,298.4078279000023,None,300.06922481000146,None,300.06922481000146,None,300.06922481000146,None,,,,,,,,,,,102,23,Female,2022-04-28_09h40.41.006,Main,2022.1.1,59.857121050283745,
positive,negative,1,l,j,,,,,,,,,3,14,68,5,,,,,,,,,,,,,,,,,,,,,,,,main,2,2,1,negative,positive,l,l,1,0.5820586000045296,300.0870200000063,301.1002068000016,301.0726400000058,None,300.0870200000063,None,300.0870200000063,None,300.0870200000063,None,301.6539139100052,None,301.6539139100052,None,301.6539139100052,None,,,,,,,,,,,102,23,Female,2022-04-28_09h40.41.006,Main,2022.1.1,59.857121050283745,
negative,negative,2,j,l,,,,,,,,,3,15,69,9,,,,,,,,,,,,,,,,,,,,,,,,main,1,1,2,negative,negative,j,j,1,0.7798565999983111,301.67260250000254,302.68692870000086,302.6670806000038,None,301.67260250000254,None,301.67260250000254,None,301.67260250000254,None,303.4376601100004,None,303.4376601100004,None,303.4376601100004,None,,,,,,,,,,,102,23,Female,2022-04-28_09h40.41.006,Main,2022.1.1,59.857121050283745,
positive,neutral,1,l,j,,,,,,,,,3,16,70,8,,,,,,,,,,,,,,,,,,,,,,,,main,1,1,1,neutral,positive,l,l,1,1.0752628999980516,303.4549024000007,304.4757577000055,304.4371944000013,None,303.4549024000007,None,303.4549024000007,None,303.4549024000007,None,305.5138515100036,None,305.5138515100036,None,305.5138515100036,None,,,,,,,,,,,102,23,Female,2022-04-28_09h40.41.006,Main,2022.1.1,59.857121050283745,
positive,positive,1,l,j,,,,,,,,,3,17,71,2,,,,,,,,,,,,,,,,,,,,,,,,main,2,2,1,positive,positive,l,l,1,1.1982062999959453,305.531848300001,306.5507141000053,306.50918210000236,None,305.531848300001,None,305.531848300001,None,305.531848300001,None,307.7142871099997,None,307.7142871099997,None,307.7142871099997,None,,,,,,,,,,,102,23,Female,2022-04-28_09h40.41.006,Main,2022.1.1,59.857121050283745,
positive,positive,1,l,j,,,,,,,,,4,0,72,2,,,,,,,,,,,,,,,,,,,,,,,,main,2,2,1,positive,positive,l,l,1,0.7853743000014219,307.7341735000009,308.7485186000049,308.7120075999992,None,307.7341735000009,None,307.7341735000009,None,307.7341735000009,None,309.50340381000495,None,309.50340381000495,None,309.50340381000495,None,,,,,,,,,,,102,23,Female,2022-04-28_09h40.41.006,Main,2022.1.1,59.857121050283745,
neutral,neutral,2,k,k,,,,,,,,,4,1,73,10,,,,,,,,,,,,,,,,,,,,,,,,main,1,1,2,neutral,neutral,k,k,1,0.7550788000007742,309.5243704000022,310.54228839999996,310.503738600004,None,309.5243704000022,None,309.5243704000022,None,309.5243704000022,None,311.2612925100031,None,311.2612925100031,None,311.2612925100031,None,,,,,,,,,,,102,23,Female,2022-04-28_09h40.41.006,Main,2022.1.1,59.857121050283745,
positive,negative,2,l,j,,,,,,,,,4,2,74,14,,,,,,,,,,,,,,,,,,,,,,,,main,2,2,2,negative,positive,l,l,1,0.5982140000051004,311.2801086000036,312.2931668000019,312.2589014000041,None,311.2801086000036,None,311.2801086000036,None,311.2801086000036,None,312.86196241000215,None,312.86196241000215,None,312.86196241000215,None,,,,,,,,,,,102,23,Female,2022-04-28_09h40.41.006,Main,2022.1.1,59.857121050283745,
negative,negative,2,j,l,,,,,,,,,4,3,75,9,,,,,,,,,,,,,,,,,,,,,,,,main,1,1,2,negative,negative,j,j,1,0.6878983999995398,312.8794979000013,313.8931795000026,313.85733480000636,None,312.8794979000013,None,312.8794979000013,None,312.8794979000013,None,314.55422531000585,None,314.55422531000585,None,314.55422531000585,None,,,,,,,,,,,102,23,Female,2022-04-28_09h40.41.006,Main,2022.1.1,59.857121050283745,
negative,neutral,1,j,l,,,,,,,,,4,4,76,3,,,,,,,,,,,,,,,,,,,,,,,,main,2,2,1,neutral,negative,j,j,1,0.7567427000030875,314.57254850000027,315.58146240000497,315.5449815000029,None,314.57254850000027,None,314.57254850000027,None,314.57254850000027,None,316.3120188099994,None,316.3120188099994,None,316.3120188099994,None,,,,,,,,,,,102,23,Female,2022-04-28_09h40.41.006,Main,2022.1.1,59.857121050283745,
negative,positive,2,j,l,,,,,,,,,4,5,77,15,,,,,,,,,,,,,,,,,,,,,,,,main,2,2,2,positive,negative,j,j,1,0.8306134000013117,316.3307888000054,317.3423408000017,317.32150430000183,None,316.3307888000054,None,316.3307888000054,None,316.3307888000054,None,318.14563701000515,None,318.14563701000515,None,318.14563701000515,None,,,,,,,,,,,102,23,Female,2022-04-28_09h40.41.006,Main,2022.1.1,59.857121050283745,
negative,negative,1,j,l,,,,,,,,,4,6,78,0,,,,,,,,,,,,,,,,,,,,,,,,main,1,1,1,negative,negative,j,j,1,0.6793438000022434,318.1640272000004,319.18197370000416,319.14560090000305,None,318.1640272000004,None,318.1640272000004,None,318.1640272000004,None,319.8262882100018,None,319.8262882100018,None,319.8262882100018,None,,,,,,,,,,,102,23,Female,2022-04-28_09h40.41.006,Main,2022.1.1,59.857121050283745,
positive,neutral,2,l,j,,,,,,,,,4,7,79,17,,,,,,,,,,,,,,,,,,,,,,,,main,2,2,2,neutral,positive,l,l,1,0.705678699996497,319.8511370000051,320.85704100000294,320.837454600005,None,319.8511370000051,None,319.8511370000051,None,319.8511370000051,None,321.53964301000013,None,321.53964301000013,None,321.53964301000013,None,,,,,,,,,,,102,23,Female,2022-04-28_09h40.41.006,Main,2022.1.1,59.857121050283745,
negative,positive,1,j,l,,,,,,,,,4,8,80,6,,,,,,,,,,,,,,,,,,,,,,,,main,2,2,1,positive,negative,j,j,1,0.8043672000057995,321.5610467000006,322.5706969000021,322.55111490000127,None,321.5610467000006,None,321.5610467000006,None,321.5610467000006,None,323.3452603100006,None,323.3452603100006,None,323.3452603100006,None,,,,,,,,,,,102,23,Female,2022-04-28_09h40.41.006,Main,2022.1.1,59.857121050283745,
negative,neutral,2,j,l,,,,,,,,,4,9,81,12,,,,,,,,,,,,,,,,,,,,,,,,main,2,2,2,neutral,negative,j,j,1,0.6164778000020306,323.3638280000014,324.37376910000603,324.35415400000056,None,323.3638280000014,None,323.3638280000014,None,323.3638280000014,None,324.9662388100034,None,324.9662388100034,None,324.9662388100034,None,,,,,,,,,,,102,23,Female,2022-04-28_09h40.41.006,Main,2022.1.1,59.857121050283745,
positive,positive,2,l,j,,,,,,,,,4,10,82,11,,,,,,,,,,,,,,,,,,,,,,,,main,1,1,2,positive,positive,l,l,1,0.7355186999993748,324.98551240000234,326.00691380000353,325.9675639000052,None,324.98551240000234,None,324.98551240000234,None,324.98551240000234,None,326.7041993100058,None,326.7041993100058,None,326.7041993100058,None,,,,,,,,,,,102,23,Female,2022-04-28_09h40.41.006,Main,2022.1.1,59.857121050283745,
neutral,neutral,1,k,k,,,,,,,,,4,11,83,1,,,,,,,,,,,,,,,,,,,,,,,,main,2,2,1,neutral,neutral,k,k,1,1.2074214999956894,326.7205471000052,327.72398729999986,327.7042664000037,None,326.7205471000052,None,326.7205471000052,None,326.7205471000052,None,328.9123586100024,None,328.9123586100024,None,328.9123586100024,None,,,,,,,,,,,102,23,Female,2022-04-28_09h40.41.006,Main,2022.1.1,59.857121050283745,
neutral,negative,2,k,k,,,,,,,,,4,12,84,16,,,,,,,,,,,,,,,,,,,,,,,,main,2,2,2,negative,neutral,k,k,1,0.6038570999953663,328.93055200000526,329.9324571000034,329.91550790000474,None,328.93055200000526,None,328.93055200000526,None,328.93055200000526,None,330.5209604100011,None,330.5209604100011,None,330.5209604100011,None,,,,,,,,,,,102,23,Female,2022-04-28_09h40.41.006,Main,2022.1.1,59.857121050283745,
positive,neutral,1,l,j,,,,,,,,,4,13,85,8,,,,,,,,,,,,,,,,,,,,,,,,main,2,2,1,neutral,positive,l,l,1,0.7306345000033616,330.5383862000017,331.54278380000324,331.5254963000043,None,330.5383862000017,None,330.5383862000017,None,330.5383862000017,None,332.25396780999944,None,332.25396780999944,None,332.25396780999944,None,,,,,,,,,,,102,23,Female,2022-04-28_09h40.41.006,Main,2022.1.1,59.857121050283745,
neutral,positive,1,k,k,,,,,,,,,4,14,86,4,,,,,,,,,,,,,,,,,,,,,,,,main,2,2,1,positive,neutral,k,k,1,0.7755738999985624,332.2723244000008,333.27633540000534,333.2596138000008,None,332.2723244000008,None,332.2723244000008,None,332.2723244000008,None,334.0302900100061,None,334.0302900100061,None,334.0302900100061,None,,,,,,,,,,,102,23,Female,2022-04-28_09h40.41.006,Main,2022.1.1,59.857121050283745,
positive,negative,1,l,j,,,,,,,,,4,15,87,5,,,,,,,,,,,,,,,,,,,,,,,,main,1,1,1,negative,positive,l,l,1,0.7369442000053823,334.0490856000033,335.05935010000394,335.0249475000019,None,334.0490856000033,None,334.0490856000033,None,334.0490856000033,None,335.77142791000296,None,335.77142791000296,None,335.77142791000296,None,,,,,,,,,,,102,23,Female,2022-04-28_09h40.41.006,Main,2022.1.1,59.857121050283745,
neutral,positive,2,k,k,,,,,,,,,4,16,88,13,,,,,,,,,,,,,,,,,,,,,,,,main,2,2,2,positive,neutral,k,k,1,0.6559496000045328,335.7915728000007,336.79897150000033,336.76237350000156,None,335.7915728000007,None,335.7915728000007,None,335.7915728000007,None,337.42855071000594,None,337.42855071000594,None,337.42855071000594,None,,,,,,,,,,,102,23,Female,2022-04-28_09h40.41.006,Main,2022.1.1,59.857121050283745,
neutral,negative,1,k,k,,,,,,,,,4,17,89,7,,,,,,,,,,,,,,,,,,,,,,,,main,1,1,1,negative,neutral,k,k,1,0.6069829999978538,337.448701500005,338.4714887000009,338.42604720000236,None,337.448701500005,None,337.448701500005,None,337.448701500005,None,339.04049041000616,None,339.04049041000616,None,339.04049041000616,None,,,,,,,,,,,102,23,Female,2022-04-28_09h40.41.006,Main,2022.1.1,59.857121050283745,
neutral,negative,1,k,k,,,,,,,,,5,0,90,7,,,,,,,,,,,,,,,,,,,,,,,,main,2,2,1,negative,neutral,k,k,1,0.6745150999995531,339.0607758000042,340.0662207999994,340.0479548000003,None,339.0607758000042,None,339.0607758000042,None,339.0607758000042,None,340.71880591000007,None,340.71880591000007,None,340.71880591000007,None,,,,,,,,,,,102,23,Female,2022-04-28_09h40.41.006,Main,2022.1.1,59.857121050283745,
positive,negative,2,l,j,,,,,,,,,5,1,91,14,,,,,,,,,,,,,,,,,,,,,,,,main,1,1,2,negative,positive,l,l,1,0.7407115000023623,340.7375816000058,341.7444145000045,341.70976200000587,None,340.7375816000058,None,340.7375816000058,None,340.7375816000058,None,342.4604200099995,None,342.4604200099995,None,342.4604200099995,None,,,,,,,,,,,102,23,Female,2022-04-28_09h40.41.006,Main,2022.1.1,59.857121050283745,
negative,positive,1,j,l,,,,,,,,,5,2,92,6,,,,,,,,,,,,,,,,,,,,,,,,main,2,2,1,positive,negative,j,j,1,0.8842160999993212,342.48097340000095,343.5015329000016,343.4595995000054,None,342.48097340000095,None,342.48097340000095,None,342.48097340000095,None,344.345440010001,None,344.345440010001,None,344.345440010001,None,,,,,,,,,,,102,23,Female,2022-04-28_09h40.41.006,Main,2022.1.1,59.857121050283745,
neutral,positive,1,k,k,,,,,,,,,5,3,93,4,,,,,,,,,,,,,,,,,,,,,,,,main,1,1,1,positive,neutral,k,k,1,0.6202819000027375,344.366207900006,345.3768474000026,345.35713090000354,None,344.366207900006,None,344.366207900006,None,344.366207900006,None,345.9714399100041,None,345.9714399100041,None,345.9714399100041,None,,,,,,,,,,,102,23,Female,2022-04-28_09h40.41.006,Main,2022.1.1,59.857121050283745,
positive,positive,1,l,j,,,,,,,,,5,4,94,2,,,,,,,,,,,,,,,,,,,,,,,,main,1,1,1,positive,positive,l,l,1,0.6716971999994712,345.9935556000055,346.995396600003,346.9767697999996,None,345.9935556000055,None,345.9935556000055,None,345.9935556000055,None,347.6452395100052,None,347.6452395100052,None,347.6452395100052,None,,,,,,,,,,,102,23,Female,2022-04-28_09h40.41.006,Main,2022.1.1,59.857121050283745,
neutral,neutral,2,k,k,,,,,,,,,5,5,95,10,,,,,,,,,,,,,,,,,,,,,,,,main,1,1,2,neutral,neutral,k,k,1,0.674149500002386,347.6633671000018,348.68508320000547,348.64305389999936,None,347.6633671000018,None,347.6633671000018,None,347.6633671000018,None,349.3227161099996,None,349.3227161099996,None,349.3227161099996,None,,,,,,,,,,,102,23,Female,2022-04-28_09h40.41.006,Main,2022.1.1,59.857121050283745,
positive,negative,1,l,j,,,,,,,,,5,6,96,5,,,,,,,,,,,,,,,,,,,,,,,,main,1,1,1,negative,positive,l,l,1,0.7556808999943314,349.34144150000066,350.36824740000156,350.32127120000223,None,349.34144150000066,None,349.34144150000066,None,349.34144150000066,None,351.07940671000614,None,351.07940671000614,None,351.07940671000614,None,,,,,,,,,,,102,23,Female,2022-04-28_09h40.41.006,Main,2022.1.1,59.857121050283745,
positive,neutral,1,l,j,,,,,,,,,5,7,97,8,,,,,,,,,,,,,,,,,,,,,,,,main,2,2,1,neutral,positive,l,l,1,0.6106857000049786,351.09986510000454,352.10996230000455,352.0913686000058,None,351.09986510000454,None,351.09986510000454,None,351.09986510000454,None,352.6943068100001,None,352.6943068100001,None,352.6943068100001,None,,,,,,,,,,,102,23,Female,2022-04-28_09h40.41.006,Main,2022.1.1,59.857121050283745,
neutral,negative,2,k,k,,,,,,,,,5,8,98,16,,,,,,,,,,,,,,,,,,,,,,,,main,2,2,2,negative,neutral,k,k,1,0.7122065000003204,352.71098450000136,353.72665530000086,353.68828490000305,None,352.71098450000136,None,352.71098450000136,None,352.71098450000136,None,354.4100836100035,None,354.4100836100035,None,354.4100836100035,None,,,,,,,,,,,102,23,Female,2022-04-28_09h40.41.006,Main,2022.1.1,59.857121050283745,
positive,neutral,2,l,j,,,,,,,,,5,9,99,17,,,,,,,,,,,,,,,,,,,,,,,,main,1,1,2,neutral,positive,l,l,1,0.6688954999990528,354.4273369000002,355.44337280000036,355.40458140000555,None,354.4273369000002,None,354.4273369000002,None,354.4273369000002,None,356.0806503100022,None,356.0806503100022,None,356.0806503100022,None,,,,,,,,,,,102,23,Female,2022-04-28_09h40.41.006,Main,2022.1.1,59.857121050283745,
negative,negative,1,j,l,,,,,,,,,5,10,100,0,,,,,,,,,,,,,,,,,,,,,,,,main,2,2,1,negative,negative,j,j,1,0.6855175000018789,356.1002817000044,357.11064250000345,357.0765568000061,None,356.1002817000044,None,356.1002817000044,None,356.1002817000044,None,357.7708070100045,None,357.7708070100045,None,357.7708070100045,None,,,,,,,,,,,102,23,Female,2022-04-28_09h40.41.006,Main,2022.1.1,59.857121050283745,
negative,negative,2,j,l,,,,,,,,,5,11,101,9,,,,,,,,,,,,,,,,,,,,,,,,main,2,2,2,negative,negative,j,j,1,0.6475465999974404,357.7889716999998,358.8016129000025,358.7600387000057,None,357.7889716999998,None,357.7889716999998,None,357.7889716999998,None,359.4210899100064,None,359.4210899100064,None,359.4210899100064,None,,,,,,,,,,,102,23,Female,2022-04-28_09h40.41.006,Main,2022.1.1,59.857121050283745,
negative,neutral,1,j,l,,,,,,,,,5,12,102,3,,,,,,,,,,,,,,,,,,,,,,,,main,2,2,1,neutral,negative,j,j,1,0.8790189999999711,359.44054940000206,360.468443400001,360.42151659999945,None,359.44054940000206,None,359.44054940000206,None,359.44054940000206,None,361.30357041000315,None,361.30357041000315,None,361.30357041000315,None,,,,,,,,,,,102,23,Female,2022-04-28_09h40.41.006,Main,2022.1.1,59.857121050283745,
negative,positive,2,j,l,,,,,,,,,5,13,103,15,,,,,,,,,,,,,,,,,,,,,,,,main,2,2,2,positive,negative,j,j,1,0.6404823999982909,361.3227040000056,362.3276613000053,362.31027220000396,None,361.3227040000056,None,361.3227040000056,None,361.3227040000056,None,362.94562291000256,None,362.94562291000256,None,362.94562291000256,None,,,,,,,,,,,102,23,Female,2022-04-28_09h40.41.006,Main,2022.1.1,59.857121050283745,
positive,positive,2,l,j,,,,,,,,,5,14,104,11,,,,,,,,,,,,,,,,,,,,,,,,main,1,1,2,positive,positive,l,l,1,0.6023860999994213,362.9640307000009,363.98849610000616,363.9432209000006,None,362.9640307000009,None,362.9640307000009,None,362.9640307000009,None,364.5524804100052,None,364.5524804100052,None,364.5524804100052,None,,,,,,,,,,,102,23,Female,2022-04-28_09h40.41.006,Main,2022.1.1,59.857121050283745,
negative,neutral,2,j,l,,,,,,,,,5,15,105,12,,,,,,,,,,,,,,,,,,,,,,,,main,1,1,2,neutral,negative,j,j,1,0.6781329000004916,364.57102330000635,365.58520890000364,365.5579902000027,None,364.57102330000635,None,364.57102330000635,None,364.57102330000635,None,366.23128431000004,None,366.23128431000004,None,366.23128431000004,None,,,,,,,,,,,102,23,Female,2022-04-28_09h40.41.006,Main,2022.1.1,59.857121050283745,
neutral,positive,2,k,k,,,,,,,,,5,16,106,13,,,,,,,,,,,,,,,,,,,,,,,,main,1,1,2,positive,neutral,k,k,1,0.55311050000455,366.2501077000052,367.2634579000005,367.22769100000005,None,366.2501077000052,None,366.2501077000052,None,366.2501077000052,None,367.78894861000225,None,367.78894861000225,None,367.78894861000225,None,,,,,,,,,,,102,23,Female,2022-04-28_09h40.41.006,Main,2022.1.1,59.857121050283745,
neutral,neutral,1,k,k,,,,,,,,,5,17,107,1,,,,,,,,,,,,,,,,,,,,,,,,main,2,2,1,neutral,neutral,k,k,1,0.6256834999949206,367.80890220000583,368.82676920000085,368.79110650000075,None,367.80890220000583,None,367.80890220000583,None,367.80890220000583,None,369.4171066100018,None,369.4171066100018,None,369.4171066100018,None,,,,,,,,,,,102,23,Female,2022-04-28_09h40.41.006,Main,2022.1.1,59.857121050283745,
positive,neutral,2,l,j,,,,,,,,,6,0,108,17,,,,,,,,,,,,,,,,,,,,,,,,main,2,2,2,neutral,positive,l,l,1,0.6882633999994141,369.4364904000031,370.4442603999996,370.4102469000063,None,369.4364904000031,None,369.4364904000031,None,369.4364904000031,None,371.106636210002,None,371.106636210002,None,371.106636210002,None,,,,,,,,,,,102,23,Female,2022-04-28_09h40.41.006,Main,2022.1.1,59.857121050283745,
positive,positive,2,l,j,,,,,,,,,6,1,109,11,,,,,,,,,,,,,,,,,,,,,,,,main,1,1,2,positive,positive,l,l,1,0.6596454000027734,371.1280282000007,372.13405530000455,372.1154336000036,None,371.1280282000007,None,371.1280282000007,None,371.1280282000007,None,372.7714722100056,None,372.7714722100056,None,372.7714722100056,None,,,,,,,,,,,102,23,Female,2022-04-28_09h40.41.006,Main,2022.1.1,59.857121050283745,
positive,negative,2,l,j,,,,,,,,,6,2,110,14,,,,,,,,,,,,,,,,,,,,,,,,main,1,1,2,negative,positive,l,l,1,0.8470462000041152,372.7915759000025,373.7939004,373.7771655000033,None,372.7915759000025,None,372.7915759000025,None,372.7915759000025,None,374.62119051000553,None,374.62119051000553,None,374.62119051000553,None,,,,,,,,,,,102,23,Female,2022-04-28_09h40.41.006,Main,2022.1.1,59.857121050283745,
positive,positive,1,l,j,,,,,,,,,6,3,111,2,,,,,,,,,,,,,,,,,,,,,,,,main,1,1,1,positive,positive,l,l,1,0.79961049999838,374.63887010000326,375.6447055000026,375.62756430000445,None,374.63887010000326,None,374.63887010000326,None,374.63887010000326,None,376.4232088100027,None,376.4232088100027,None,376.4232088100027,None,,,,,,,,,,,102,23,Female,2022-04-28_09h40.41.006,Main,2022.1.1,59.857121050283745,
negative,negative,2,j,l,,,,,,,,,6,4,112,9,,,,,,,,,,,,,,,,,,,,,,,,main,2,2,2,negative,negative,j,j,1,0.6634491000004346,376.4414775000041,377.4522266000058,377.425063900002,None,376.4414775000041,None,376.4414775000041,None,376.4414775000041,None,378.08970711000364,None,378.08970711000364,None,378.08970711000364,None,,,,,,,,,,,102,23,Female,2022-04-28_09h40.41.006,Main,2022.1.1,59.857121050283745,
negative,negative,1,j,l,,,,,,,,,6,5,113,0,,,,,,,,,,,,,,,,,,,,,,,,main,2,2,1,negative,negative,j,j,1,0.8212926999985939,378.1077835000033,379.1111472000048,379.0940808000014,None,378.1077835000033,None,378.1077835000033,None,378.1077835000033,None,379.91221221000086,None,379.91221221000086,None,379.91221221000086,None,,,,,,,,,,,102,23,Female,2022-04-28_09h40.41.006,Main,2022.1.1,59.857121050283745,
neutral,negative,1,k,k,,,,,,,,,6,6,114,7,,,,,,,,,,,,,,,,,,,,,,,,main,1,1,1,negative,neutral,k,k,1,0.580958800004737,379.930852700003,380.9437816999998,380.9051710999993,None,379.930852700003,None,379.930852700003,None,379.930852700003,None,381.4958892100032,None,381.4958892100032,None,381.4958892100032,None,,,,,,,,,,,102,23,Female,2022-04-28_09h40.41.006,Main,2022.1.1,59.857121050283745,
neutral,positive,1,k,k,,,,,,,,,6,7,115,4,,,,,,,,,,,,,,,,,,,,,,,,main,2,2,1,positive,neutral,k,k,1,0.5997332000042661,381.5155164000025,382.52566850000585,382.5053595000063,None,381.5155164000025,None,381.5155164000025,None,381.5155164000025,None,383.0973397100017,None,383.0973397100017,None,383.0973397100017,None,,,,,,,,,,,102,23,Female,2022-04-28_09h40.41.006,Main,2022.1.1,59.857121050283745,
neutral,positive,2,k,k,,,,,,,,,6,8,116,13,,,,,,,,,,,,,,,,,,,,,,,,main,2,2,2,positive,neutral,k,k,1,0.5208932000023196,383.11921180000354,384.1429750000025,384.1014948000011,None,383.11921180000354,None,383.11921180000354,None,383.11921180000354,None,384.62300931000135,None,384.62300931000135,None,384.62300931000135,None,,,,,,,,,,,102,23,Female,2022-04-28_09h40.41.006,Main,2022.1.1,59.857121050283745,
neutral,neutral,1,k,k,,,,,,,,,6,9,117,1,,,,,,,,,,,,,,,,,,,,,,,,main,1,1,1,neutral,neutral,k,k,1,0.5860707000028924,384.6418124000047,385.64377710000554,385.62705090000236,None,384.6418124000047,None,384.6418124000047,None,384.6418124000047,None,386.2103608099998,None,386.2103608099998,None,386.2103608099998,None,,,,,,,,,,,102,23,Female,2022-04-28_09h40.41.006,Main,2022.1.1,59.857121050283745,
positive,negative,1,l,j,,,,,,,,,6,10,118,5,,,,,,,,,,,,,,,,,,,,,,,,main,1,1,1,negative,positive,l,l,1,0.7457563999996637,386.23137639999914,387.2438506000035,387.20876050000516,None,386.23137639999914,None,386.23137639999914,None,386.23137639999914,None,387.96060830999994,None,387.96060830999994,None,387.96060830999994,None,,,,,,,,,,,102,23,Female,2022-04-28_09h40.41.006,Main,2022.1.1,59.857121050283745,
negative,positive,1,j,l,,,,,,,,,6,11,119,6,,,,,,,,,,,,,,,,,,,,,,,,main,1,1,1,positive,negative,j,j,1,1.343908900002134,387.98088870000356,388.98273450000124,388.96345210000436,None,387.98088870000356,None,387.98088870000356,None,387.98088870000356,None,390.30819760999947,None,390.30819760999947,None,390.30819760999947,None,,,,,,,,,,,102,23,Female,2022-04-28_09h40.41.006,Main,2022.1.1,59.857121050283745,
negative,neutral,1,j,l,,,,,,,,,6,12,120,3,,,,,,,,,,,,,,,,,,,,,,,,main,2,2,1,neutral,negative,j,j,1,0.7410461000035866,390.3267487000048,391.3272558000026,391.31060060000164,None,390.3267487000048,None,390.3267487000048,None,390.3267487000048,None,392.04960501000386,None,392.04960501000386,None,392.04960501000386,None,,,,,,,,,,,102,23,Female,2022-04-28_09h40.41.006,Main,2022.1.1,59.857121050283745,
neutral,neutral,2,k,k,,,,,,,,,6,13,121,10,,,,,,,,,,,,,,,,,,,,,,,,main,1,1,2,neutral,neutral,k,k,1,0.772403300004953,392.07326309999917,393.0775097000005,393.05875180000294,None,392.07326309999917,None,392.07326309999917,None,392.07326309999917,None,393.8272886100014,None,393.8272886100014,None,393.8272886100014,None,,,,,,,,,,,102,23,Female,2022-04-28_09h40.41.006,Main,2022.1.1,59.857121050283745,
negative,positive,2,j,l,,,,,,,,,6,14,122,15,,,,,,,,,,,,,,,,,,,,,,,,main,2,2,2,positive,negative,j,j,1,1.2122452999974485,393.84536940000544,394.86368460000085,394.8274084000004,None,393.84536940000544,None,393.84536940000544,None,393.84536940000544,None,396.0431062100026,None,396.0431062100026,None,396.0431062100026,None,,,,,,,,,,,102,23,Female,2022-04-28_09h40.41.006,Main,2022.1.1,59.857121050283745,
positive,neutral,1,l,j,,,,,,,,,6,15,123,8,,,,,,,,,,,,,,,,,,,,,,,,main,1,1,1,neutral,positive,l,l,1,0.7649011999965296,396.06113530000584,397.065365800001,397.04537070000515,None,396.06113530000584,None,396.06113530000584,None,396.06113530000584,None,397.8109398100052,None,397.8109398100052,None,397.8109398100052,None,,,,,,,,,,,102,23,Female,2022-04-28_09h40.41.006,Main,2022.1.1,59.857121050283745,
negative,neutral,2,j,l,,,,,,,,,6,16,124,12,,,,,,,,,,,,,,,,,,,,,,,,main,1,1,2,neutral,negative,j,j,1,0.6874428000010084,397.8287504000036,398.8441227000003,398.81027530000574,None,397.8287504000036,None,397.8287504000036,None,397.8287504000036,None,399.50138471000463,None,399.50138471000463,None,399.50138471000463,None,,,,,,,,,,,102,23,Female,2022-04-28_09h40.41.006,Main,2022.1.1,59.857121050283745,
neutral,negative,2,k,k,,,,,,,,,6,17,125,16,,,,,,,,,,,,,,,,,,,,,,,,main,2,2,2,negative,neutral,k,k,1,0.6629535000029136,399.52243080000335,400.527499900003,400.51066650000575,None,399.52243080000335,None,399.52243080000335,None,399.52243080000335,None,401.1678467100057,None,401.1678467100057,None,401.1678467100057,None,,,,,,,,,,,102,23,Female,2022-04-28_09h40.41.006,Main,2022.1.1,59.857121050283745,
positive,negative,2,l,j,,,,,,,,,7,0,126,14,,,,,,,,,,,,,,,,,,,,,,,,main,1,1,2,negative,positive,l,l,1,0.8635697999998229,401.1875216000044,402.2085892000032,402.1694717999999,None,401.1875216000044,None,401.1875216000044,None,401.1875216000044,None,403.0310333100053,None,403.0310333100053,None,403.0310333100053,None,,,,,,,,,,,102,23,Female,2022-04-28_09h40.41.006,Main,2022.1.1,59.857121050283745,
neutral,negative,2,k,k,,,,,,,,,7,1,127,16,,,,,,,,,,,,,,,,,,,,,,,,main,2,2,2,negative,neutral,k,k,1,0.6627087000015308,403.0507405000026,404.065408500006,404.02765080000245,None,403.0507405000026,None,403.0507405000026,None,403.0507405000026,None,404.6978315100052,None,404.6978315100052,None,404.6978315100052,None,,,,,,,,,,,102,23,Female,2022-04-28_09h40.41.006,Main,2022.1.1,59.857121050283745,
negative,negative,2,j,l,,,,,,,,,7,2,128,9,,,,,,,,,,,,,,,,,,,,,,,,main,2,2,2,negative,negative,j,j,1,0.6378074000022025,404.7147732000012,405.7276051000008,405.69155429999955,None,404.7147732000012,None,404.7147732000012,None,404.7147732000012,None,406.33989691000096,None,406.33989691000096,None,406.33989691000096,None,,,,,,,,,,,102,23,Female,2022-04-28_09h40.41.006,Main,2022.1.1,59.857121050283745,
positive,positive,2,l,j,,,,,,,,,7,3,129,11,,,,,,,,,,,,,,,,,,,,,,,,main,1,1,2,positive,positive,l,l,1,0.7576215000008233,406.35748389999935,407.3674975000031,407.33047310000256,None,406.35748389999935,None,406.35748389999935,None,406.35748389999935,None,408.0983708100022,None,408.0983708100022,None,408.0983708100022,None,,,,,,,,,,,102,23,Female,2022-04-28_09h40.41.006,Main,2022.1.1,59.857121050283745,
negative,positive,2,j,l,,,,,,,,,7,4,130,15,,,,,,,,,,,,,,,,,,,,,,,,main,2,2,2,positive,negative,j,j,1,0.6805846000061138,408.1165406,409.1257848000023,409.10570110000117,None,408.1165406,None,408.1165406,None,408.1165406,None,409.78156091000636,None,409.78156091000636,None,409.78156091000636,None,,,,,,,,,,,102,23,Female,2022-04-28_09h40.41.006,Main,2022.1.1,59.857121050283745,
positive,positive,1,l,j,,,,,,,,,7,5,131,2,,,,,,,,,,,,,,,,,,,,,,,,main,2,2,1,positive,positive,l,j,0,0.9883928999988711,409.80010150000453,410.81276570000045,410.77794189999986,None,409.80010150000453,None,409.80010150000453,None,409.80010150000453,None,411.7790010000026,None,411.7790010000026,None,411.7790010000026,None,,,,,,,,,,,102,23,Female,2022-04-28_09h40.41.006,Main,2022.1.1,59.857121050283745,
positive,negative,1,l,j,,,,,,,,,7,6,132,5,,,,,,,,,,,,,,,,,,,,,,,,main,2,2,1,negative,positive,l,l,1,0.8394420999975409,412.7977105000027,413.8111308000007,413.7922886000015,None,412.7977105000027,None,412.7977105000027,None,412.7977105000027,None,414.6224804100049,None,414.6224804100049,None,414.6224804100049,None,,,,,,,,,,,102,23,Female,2022-04-28_09h40.41.006,Main,2022.1.1,59.857121050283745,
neutral,positive,2,k,k,,,,,,,,,7,7,133,13,,,,,,,,,,,,,,,,,,,,,,,,main,1,1,2,positive,neutral,k,k,1,0.6856909999987693,414.6411325000008,415.6597278000045,415.6396378000063,None,414.6411325000008,None,414.6411325000008,None,414.6411325000008,None,416.3107745100053,None,416.3107745100053,None,416.3107745100053,None,,,,,,,,,,,102,23,Female,2022-04-28_09h40.41.006,Main,2022.1.1,59.857121050283745,
neutral,neutral,1,k,k,,,,,,,,,7,8,134,1,,,,,,,,,,,,,,,,,,,,,,,,main,1,1,1,neutral,neutral,k,k,1,0.5719953000007081,416.33070070000394,417.3442570000043,417.31110289999924,None,416.33070070000394,None,416.33070070000394,None,416.33070070000394,None,417.8854116100039,None,417.8854116100039,None,417.8854116100039,None,,,,,,,,,,,102,23,Female,2022-04-28_09h40.41.006,Main,2022.1.1,59.857121050283745,
neutral,positive,1,k,k,,,,,,,,,7,9,135,4,,,,,,,,,,,,,,,,,,,,,,,,main,2,2,1,positive,neutral,k,k,1,0.6009258999984013,417.90575810000155,418.9130051000029,418.89455420000013,None,417.90575810000155,None,417.90575810000155,None,417.90575810000155,None,419.4883715099997,None,419.4883715099997,None,419.4883715099997,None,,,,,,,,,,,102,23,Female,2022-04-28_09h40.41.006,Main,2022.1.1,59.857121050283745,
positive,neutral,1,l,j,,,,,,,,,7,10,136,8,,,,,,,,,,,,,,,,,,,,,,,,main,1,1,1,neutral,positive,l,l,1,0.6675805999984732,419.50998300000356,420.52774850000424,420.4893828999993,None,419.50998300000356,None,419.50998300000356,None,419.50998300000356,None,421.16019141000214,None,421.16019141000214,None,421.16019141000214,None,,,,,,,,,,,102,23,Female,2022-04-28_09h40.41.006,Main,2022.1.1,59.857121050283745,
negative,neutral,1,j,l,,,,,,,,,7,11,137,3,,,,,,,,,,,,,,,,,,,,,,,,main,2,2,1,neutral,negative,j,j,1,0.6951312999954098,421.1781453000003,422.1779306000026,422.16121670000575,None,421.1781453000003,None,421.1781453000003,None,421.1781453000003,None,422.85897911000137,None,422.85897911000137,None,422.85897911000137,None,,,,,,,,,,,102,23,Female,2022-04-28_09h40.41.006,Main,2022.1.1,59.857121050283745,
neutral,negative,1,k,k,,,,,,,,,7,12,138,7,,,,,,,,,,,,,,,,,,,,,,,,main,1,1,1,negative,neutral,k,k,1,0.6658052999991924,422.87704230000236,423.8779840999996,423.86136010000337,None,422.87704230000236,None,422.87704230000236,None,422.87704230000236,None,424.5277897100015,None,424.5277897100015,None,424.5277897100015,None,,,,,,,,,,,102,23,Female,2022-04-28_09h40.41.006,Main,2022.1.1,59.857121050283745,
negative,positive,1,j,l,,,,,,,,,7,13,139,6,,,,,,,,,,,,,,,,,,,,,,,,main,1,1,1,positive,negative,j,j,1,0.7771165000012843,424.54594160000124,425.5454782000015,425.5284713000001,None,424.54594160000124,None,424.54594160000124,None,424.54594160000124,None,426.3067397100014,None,426.3067397100014,None,426.3067397100014,None,,,,,,,,,,,102,23,Female,2022-04-28_09h40.41.006,Main,2022.1.1,59.857121050283745,
positive,neutral,2,l,j,,,,,,,,,7,14,140,17,,,,,,,,,,,,,,,,,,,,,,,,main,1,1,2,neutral,positive,l,l,1,0.7155106999998679,426.3282767000055,427.34459020000213,427.3066337000055,None,426.3282767000055,None,426.3282767000055,None,426.3282767000055,None,428.02802241000535,None,428.02802241000535,None,428.02802241000535,None,,,,,,,,,,,102,23,Female,2022-04-28_09h40.41.006,Main,2022.1.1,59.857121050283745,
neutral,neutral,2,k,k,,,,,,,,,7,15,141,10,,,,,,,,,,,,,,,,,,,,,,,,main,1,1,2,neutral,neutral,k,k,1,0.7038759999995818,428.04672440000286,429.06129209999926,429.02768410000135,None,428.04672440000286,None,428.04672440000286,None,428.04672440000286,None,429.7338997100007,None,429.7338997100007,None,429.7338997100007,None,,,,,,,,,,,102,23,Female,2022-04-28_09h40.41.006,Main,2022.1.1,59.857121050283745,
negative,negative,1,j,l,,,,,,,,,7,16,142,0,,,,,,,,,,,,,,,,,,,,,,,,main,1,1,1,negative,negative,j,j,1,0.8398895999998786,429.7519428000014,430.7697816,430.72820720000163,None,429.7519428000014,None,429.7519428000014,None,429.7519428000014,None,431.5780337099997,None,431.5780337099997,None,431.5780337099997,None,,,,,,,,,,,102,23,Female,2022-04-28_09h40.41.006,Main,2022.1.1,59.857121050283745,
negative,neutral,2,j,l,,,,,,,,,7,17,143,12,,,,,,,,,,,,,,,,,,,,,,,,main,1,1,2,neutral,negative,j,j,1,0.8861780000006547,431.5950660000017,432.59480350000376,432.5780692000044,None,431.5950660000017,None,431.5950660000017,None,431.5950660000017,None,433.46640241000495,None,433.46640241000495,None,433.46640241000495,None,,,,,,,,,,,102,23,Female,2022-04-28_09h40.41.006,Main,2022.1.1,59.857121050283745,
neutral,positive,2,k,k,,,,,,,,,8,0,144,13,,,,,,,,,,,,,,,,,,,,,,,,main,1,1,2,positive,neutral,k,k,1,0.6365108000027249,433.48458720000053,434.49532320000435,434.46140050000395,None,433.48458720000053,None,433.48458720000053,None,433.48458720000053,None,435.1058764100009,None,435.1058764100009,None,435.1058764100009,None,,,,,,,,,,,102,23,Female,2022-04-28_09h40.41.006,Main,2022.1.1,59.857121050283745,
positive,negative,1,l,j,,,,,,,,,8,1,145,5,,,,,,,,,,,,,,,,,,,,,,,,main,1,1,1,negative,positive,l,l,1,0.9284064999956172,435.12521270000434,436.14087120000477,436.12003160000313,None,435.12521270000434,None,435.12521270000434,None,435.12521270000434,None,437.03738151000215,None,437.03738151000215,None,437.03738151000215,None,,,,,,,,,,,102,23,Female,2022-04-28_09h40.41.006,Main,2022.1.1,59.857121050283745,
negative,negative,1,j,l,,,,,,,,,8,2,146,0,,,,,,,,,,,,,,,,,,,,,,,,main,1,1,1,negative,negative,j,j,1,0.8778061999983038,437.05604990000575,438.06138640000427,438.04493560000265,None,437.05604990000575,None,437.05604990000575,None,437.05604990000575,None,438.9169283100047,None,438.9169283100047,None,438.9169283100047,None,,,,,,,,,,,102,23,Female,2022-04-28_09h40.41.006,Main,2022.1.1,59.857121050283745,
positive,neutral,2,l,j,,,,,,,,,8,3,147,17,,,,,,,,,,,,,,,,,,,,,,,,main,1,1,2,neutral,positive,l,l,1,0.6420589999979711,438.9374361000009,439.94755960000475,439.9112449000022,None,438.9374361000009,None,438.9374361000009,None,438.9374361000009,None,440.56151131000587,None,440.56151131000587,None,440.56151131000587,None,,,,,,,,,,,102,23,Female,2022-04-28_09h40.41.006,Main,2022.1.1,59.857121050283745,
positive,positive,1,l,j,,,,,,,,,8,4,148,2,,,,,,,,,,,,,,,,,,,,,,,,main,2,2,1,positive,positive,l,l,1,0.7687507000009646,440.58198690000427,441.6010932999998,441.56315480000194,None,440.58198690000427,None,440.58198690000427,None,440.58198690000427,None,442.33540841000575,None,442.33540841000575,None,442.33540841000575,None,,,,,,,,,,,102,23,Female,2022-04-28_09h40.41.006,Main,2022.1.1,59.857121050283745,
neutral,negative,1,k,k,,,,,,,,,8,5,149,7,,,,,,,,,,,,,,,,,,,,,,,,main,2,2,1,negative,neutral,k,k,1,0.7481220999979996,442.3523454000024,443.3655790000048,443.3301993000059,None,442.3523454000024,None,442.3523454000024,None,442.3523454000024,None,444.0862131099995,None,444.0862131099995,None,444.0862131099995,None,,,,,,,,,,,102,23,Female,2022-04-28_09h40.41.006,Main,2022.1.1,59.857121050283745,
positive,negative,2,l,j,,,,,,,,,8,6,150,14,,,,,,,,,,,,,,,,,,,,,,,,main,2,2,2,negative,positive,l,l,1,0.6825727999967057,444.10270040000614,445.12001820000296,445.09252630000265,None,444.10270040000614,None,444.10270040000614,None,444.10270040000614,None,445.77110211000326,None,445.77110211000326,None,445.77110211000326,None,,,,,,,,,,,102,23,Female,2022-04-28_09h40.41.006,Main,2022.1.1,59.857121050283745,
negative,positive,1,j,l,,,,,,,,,8,7,151,6,,,,,,,,,,,,,,,,,,,,,,,,main,1,1,1,positive,negative,j,j,1,0.7224409999980708,445.792199800002,446.79511850000563,446.77648240000417,None,445.792199800002,None,445.792199800002,None,445.792199800002,None,447.4951322100016,None,447.4951322100016,None,447.4951322100016,None,,,,,,,,,,,102,23,Female,2022-04-28_09h40.41.006,Main,2022.1.1,59.857121050283745,
positive,neutral,1,l,j,,,,,,,,,8,8,152,8,,,,,,,,,,,,,,,,,,,,,,,,main,2,2,1,neutral,positive,l,l,1,0.907688600003894,447.51345530000253,448.5312180000037,448.49452540000493,None,447.51345530000253,None,447.51345530000253,None,447.51345530000253,None,449.4065159100057,None,449.4065159100057,None,449.4065159100057,None,,,,,,,,,,,102,23,Female,2022-04-28_09h40.41.006,Main,2022.1.1,59.857121050283745,
neutral,positive,1,k,k,,,,,,,,,8,9,153,4,,,,,,,,,,,,,,,,,,,,,,,,main,2,2,1,positive,neutral,k,k,1,0.5621275000012247,449.42723110000225,450.4322844000053,450.4137611000042,None,449.42723110000225,None,449.42723110000225,None,449.42723110000225,None,450.97139540999996,None,450.97139540999996,None,450.97139540999996,None,,,,,,,,,,,102,23,Female,2022-04-28_09h40.41.006,Main,2022.1.1,59.857121050283745,
positive,positive,2,l,j,,,,,,,,,8,10,154,11,,,,,,,,,,,,,,,,,,,,,,,,main,2,2,2,positive,positive,l,l,1,0.605248699997901,450.9901006,451.9985500000039,451.96169490000466,None,450.9901006,None,450.9901006,None,450.9901006,None,452.57855920999936,None,452.57855920999936,None,452.57855920999936,None,,,,,,,,,,,102,23,Female,2022-04-28_09h40.41.006,Main,2022.1.1,59.857121050283745,
negative,neutral,2,j,l,,,,,,,,,8,11,155,12,,,,,,,,,,,,,,,,,,,,,,,,main,2,2,2,neutral,negative,j,j,1,0.6106898999933037,452.597783600002,453.6133864000003,453.5775800000047,None,452.597783600002,None,452.597783600002,None,452.597783600002,None,454.1930438100018,None,454.1930438100018,None,454.1930438100018,None,,,,,,,,,,,102,23,Female,2022-04-28_09h40.41.006,Main,2022.1.1,59.857121050283745,
neutral,neutral,1,k,k,,,,,,,,,8,12,156,1,,,,,,,,,,,,,,,,,,,,,,,,main,2,2,1,neutral,neutral,k,k,1,0.5384464000017033,454.2106705000042,455.2286507000026,455.189919000004,None,454.2106705000042,None,454.2106705000042,None,454.2106705000042,None,455.7335672100009,None,455.7335672100009,None,455.7335672100009,None,,,,,,,,,,,102,23,Female,2022-04-28_09h40.41.006,Main,2022.1.1,59.857121050283745,
neutral,neutral,2,k,k,,,,,,,,,8,13,157,10,,,,,,,,,,,,,,,,,,,,,,,,main,1,1,2,neutral,neutral,k,k,1,1.268114999998943,455.75105299999996,456.7566810999997,456.7368676000042,None,455.75105299999996,None,455.75105299999996,None,455.75105299999996,None,458.00460330999994,None,458.00460330999994,None,458.00460330999994,None,,,,,,,,,,,102,23,Female,2022-04-28_09h40.41.006,Main,2022.1.1,59.857121050283745,
neutral,negative,2,k,k,,,,,,,,,8,14,158,16,,,,,,,,,,,,,,,,,,,,,,,,main,2,2,2,negative,neutral,k,k,1,0.5956971999985399,458.0264327000041,459.0286502000017,459.01000170000043,None,458.0264327000041,None,458.0264327000041,None,458.0264327000041,None,459.60460111000356,None,459.60460111000356,None,459.60460111000356,None,,,,,,,,,,,102,23,Female,2022-04-28_09h40.41.006,Main,2022.1.1,59.857121050283745,
negative,positive,2,j,l,,,,,,,,,8,15,159,15,,,,,,,,,,,,,,,,,,,,,,,,main,2,2,2,positive,negative,j,l,0,0.5439890999987256,459.62306030000036,460.63074790000246,460.5956460000016,None,459.62306030000036,None,459.62306030000036,None,459.62306030000036,None,461.15411880000465,None,461.15411880000465,None,461.15411880000465,None,,,,,,,,,,,102,23,Female,2022-04-28_09h40.41.006,Main,2022.1.1,59.857121050283745,
negative,negative,2,j,l,,,,,,,,,8,16,160,9,,,,,,,,,,,,,,,,,,,,,,,,main,1,1,2,negative,negative,j,j,1,0.9183105000047362,462.16462230000616,463.1736919000032,463.15373530000215,None,462.16462230000616,None,462.16462230000616,None,462.16462230000616,None,464.0697215100001,None,464.0697215100001,None,464.0697215100001,None,,,,,,,,,,,102,23,Female,2022-04-28_09h40.41.006,Main,2022.1.1,59.857121050283745,
negative,neutral,1,j,l,,,,,,,,,8,17,161,3,,,,,,,,,,,,,,,,,,,,,,,,main,2,2,1,neutral,negative,j,j,1,0.6686409000030835,464.09216559999913,465.1036763000011,465.0620118000006,None,464.09216559999913,None,464.09216559999913,None,464.09216559999913,None,465.74234560999975,None,465.74234560999975,None,465.74234560999975,None,,,,,,,,,,,102,23,Female,2022-04-28_09h40.41.006,Main,2022.1.1,59.857121050283745,
positive,positive,2,l,j,,,,,,,,,9,0,162,11,,,,,,,,,,,,,,,,,,,,,,,,main,1,1,2,positive,positive,l,l,1,1.2483585000009043,465.76162970000587,466.76201190000575,466.74530349999986,None,465.76162970000587,None,465.76162970000587,None,465.76162970000587,None,467.9936356099999,None,467.9936356099999,None,467.9936356099999,None,,,,,,,,,,,102,23,Female,2022-04-28_09h40.41.006,Main,2022.1.1,59.857121050283745,
negative,negative,2,j,l,,,,,,,,,9,1,163,9,,,,,,,,,,,,,,,,,,,,,,,,main,2,2,2,negative,negative,j,j,1,0.6977400000032503,468.0119782000038,469.01209440000093,468.9954499000014,None,468.0119782000038,None,468.0119782000038,None,468.0119782000038,None,469.69430751000544,None,469.69430751000544,None,469.69430751000544,None,,,,,,,,,,,102,23,Female,2022-04-28_09h40.41.006,Main,2022.1.1,59.857121050283745,
neutral,positive,1,k,k,,,,,,,,,9,2,164,4,,,,,,,,,,,,,,,,,,,,,,,,main,2,2,1,positive,neutral,k,k,1,0.5605026000048383,469.71196360000613,470.7186234000037,470.683477700004,None,469.71196360000613,None,469.71196360000613,None,469.71196360000613,None,471.25847011000513,None,471.25847011000513,None,471.25847011000513,None,,,,,,,,,,,102,23,Female,2022-04-28_09h40.41.006,Main,2022.1.1,59.857121050283745,
positive,negative,2,l,j,,,,,,,,,9,3,165,14,,,,,,,,,,,,,,,,,,,,,,,,main,1,1,2,negative,positive,l,l,1,0.7100216000035289,471.2757708000063,472.27865450000536,472.26223920000484,None,471.2757708000063,None,471.2757708000063,None,471.2757708000063,None,472.97129611000054,None,472.97129611000054,None,472.97129611000054,None,,,,,,,,,,,102,23,Female,2022-04-28_09h40.41.006,Main,2022.1.1,59.857121050283745,
negative,neutral,1,j,l,,,,,,,,,9,4,166,3,,,,,,,,,,,,,,,,,,,,,,,,main,2,2,1,neutral,negative,j,j,1,0.7292575000028592,472.98894909999945,474.0042268000034,473.9768678000037,None,472.98894909999945,None,472.98894909999945,None,472.98894909999945,None,474.70319201000456,None,474.70319201000456,None,474.70319201000456,None,,,,,,,,,,,102,23,Female,2022-04-28_09h40.41.006,Main,2022.1.1,59.857121050283745,
positive,neutral,1,l,j,,,,,,,,,9,5,167,8,,,,,,,,,,,,,,,,,,,,,,,,main,1,1,1,neutral,positive,l,l,1,1.146227999997791,474.720685100001,475.7304651000013,475.69587540000066,None,474.720685100001,None,474.720685100001,None,474.720685100001,None,476.8503853100039,None,476.8503853100039,None,476.8503853100039,None,,,,,,,,,,,102,23,Female,2022-04-28_09h40.41.006,Main,2022.1.1,59.857121050283745,
negative,negative,1,j,l,,,,,,,,,9,6,168,0,,,,,,,,,,,,,,,,,,,,,,,,main,2,2,1,negative,negative,j,j,1,0.8607196000011754,476.8686392000018,477.87967290000233,477.84569130000455,None,476.8686392000018,None,476.8686392000018,None,476.8686392000018,None,478.7129569100063,None,478.7129569100063,None,478.7129569100063,None,,,,,,,,,,,102,23,Female,2022-04-28_09h40.41.006,Main,2022.1.1,59.857121050283745,
negative,positive,2,j,l,,,,,,,,,9,7,169,15,,,,,,,,,,,,,,,,,,,,,,,,main,1,1,2,positive,negative,j,j,1,1.323145000002114,478.733790600003,479.7539221000043,479.7069647000026,None,478.733790600003,None,478.733790600003,None,478.733790600003,None,481.04032621000005,None,481.04032621000005,None,481.04032621000005,None,,,,,,,,,,,102,23,Female,2022-04-28_09h40.41.006,Main,2022.1.1,59.857121050283745,
neutral,neutral,1,k,k,,,,,,,,,9,8,170,1,,,,,,,,,,,,,,,,,,,,,,,,main,2,2,1,neutral,neutral,k,k,1,0.643181999999797,481.06096249999973,482.06218820000504,482.0457800000004,None,481.06096249999973,None,481.06096249999973,None,481.06096249999973,None,482.68760231000414,None,482.68760231000414,None,482.68760231000414,None,,,,,,,,,,,102,23,Female,2022-04-28_09h40.41.006,Main,2022.1.1,59.857121050283745,
positive,neutral,2,l,j,,,,,,,,,9,9,171,17,,,,,,,,,,,,,,,,,,,,,,,,main,2,2,2,neutral,positive,l,l,1,0.5927427999995416,482.70777100000123,483.7129176000017,483.6956855000026,None,482.70777100000123,None,482.70777100000123,None,482.70777100000123,None,484.2811907100033,None,484.2811907100033,None,484.2811907100033,None,,,,,,,,,,,102,23,Female,2022-04-28_09h40.41.006,Main,2022.1.1,59.857121050283745,
neutral,positive,2,k,k,,,,,,,,,9,10,172,13,,,,,,,,,,,,,,,,,,,,,,,,main,1,1,2,positive,neutral,k,k,1,0.6836487999971723,484.29973900000186,485.30001570000604,485.28204430000187,None,484.29973900000186,None,484.29973900000186,None,484.29973900000186,None,485.9685971100036,None,485.9685971100036,None,485.9685971100036,None,,,,,,,,,,,102,23,Female,2022-04-28_09h40.41.006,Main,2022.1.1,59.857121050283745,
neutral,negative,1,k,k,,,,,,,,,9,11,173,7,,,,,,,,,,,,,,,,,,,,,,,,main,1,1,1,negative,neutral,k,k,1,0.5797793999954592,485.99083030000475,487.00983819999965,486.9709834000023,None,485.99083030000475,None,485.99083030000475,None,485.99083030000475,None,487.55064241000144,None,487.55064241000144,None,487.55064241000144,None,,,,,,,,,,,102,23,Female,2022-04-28_09h40.41.006,Main,2022.1.1,59.857121050283745,
negative,neutral,2,j,l,,,,,,,,,9,12,174,12,,,,,,,,,,,,,,,,,,,,,,,,main,1,1,2,neutral,negative,j,j,1,0.7161370000030729,487.5669530000014,488.5792364000008,488.5408097000036,None,487.5669530000014,None,487.5669530000014,None,487.5669530000014,None,489.27083181000415,None,489.27083181000415,None,489.27083181000415,None,,,,,,,,,,,102,23,Female,2022-04-28_09h40.41.006,Main,2022.1.1,59.857121050283745,
neutral,negative,2,k,k,,,,,,,,,9,13,175,16,,,,,,,,,,,,,,,,,,,,,,,,main,1,1,2,negative,neutral,k,k,1,0.7404973999946378,489.2916464000009,490.30428850000317,490.2580006000062,None,489.2916464000009,None,489.2916464000009,None,489.2916464000009,None,491.01309391000467,None,491.01309391000467,None,491.01309391000467,None,,,,,,,,,,,102,23,Female,2022-04-28_09h40.41.006,Main,2022.1.1,59.857121050283745,
neutral,neutral,2,k,k,,,,,,,,,9,14,176,10,,,,,,,,,,,,,,,,,,,,,,,,main,1,1,2,neutral,neutral,k,k,1,0.6456780000007711,491.03041840000515,492.0357972000056,492.01749420000124,None,491.03041840000515,None,491.03041840000515,None,491.03041840000515,None,492.6616556100045,None,492.6616556100045,None,492.6616556100045,None,,,,,,,,,,,102,23,Female,2022-04-28_09h40.41.006,Main,2022.1.1,59.857121050283745,
positive,negative,1,l,j,,,,,,,,,9,15,177,5,,,,,,,,,,,,,,,,,,,,,,,,main,2,2,1,negative,positive,l,l,1,0.7897422999958508,492.67966570000135,493.7045126000012,493.6576666000037,None,492.67966570000135,None,492.67966570000135,None,492.67966570000135,None,494.455346810005,None,494.455346810005,None,494.455346810005,None,,,,,,,,,,,102,23,Female,2022-04-28_09h40.41.006,Main,2022.1.1,59.857121050283745,
negative,positive,1,j,l,,,,,,,,,9,16,178,6,,,,,,,,,,,,,,,,,,,,,,,,main,1,1,1,positive,negative,j,j,1,0.7451607000039076,494.476353500002,495.4960920000012,495.45772040000156,None,494.476353500002,None,494.476353500002,None,494.476353500002,None,496.2014355100029,None,496.2014355100029,None,496.2014355100029,None,,,,,,,,,,,102,23,Female,2022-04-28_09h40.41.006,Main,2022.1.1,59.857121050283745,
positive,positive,1,l,j,,,,,,,,,9,17,179,2,,,,,,,,,,,,,,,,,,,,,,,,main,1,1,1,positive,positive,l,l,1,0.6587932999973418,496.21894020000036,497.24161370000365,497.1958766000025,None,496.21894020000036,None,496.21894020000036,None,496.21894020000036,None,497.862945510001,None,497.862945510001,None,497.862945510001,None,,,,,,,,,,,102,23,Female,2022-04-28_09h40.41.006,Main,2022.1.1,59.857121050283745,
negative,negative,2,j,l,,,,,,,,,10,0,180,9,,,,,,,,,,,,,,,,,,,,,,,,main,1,1,2,negative,negative,j,j,1,0.6061890999990283,497.881006100004,498.88374590000603,498.8656858000031,None,497.881006100004,None,497.881006100004,None,497.881006100004,None,499.47387471000474,None,499.47387471000474,None,499.47387471000474,None,,,,,,,,,,,102,23,Female,2022-04-28_09h40.41.006,Main,2022.1.1,59.857121050283745,
positive,neutral,1,l,j,,,,,,,,,10,1,181,8,,,,,,,,,,,,,,,,,,,,,,,,main,2,2,1,neutral,positive,l,,0,0.8473238000005949,499.4922857000056,500.4979439000017,500.4627097000048,None,499.4922857000056,None,499.4922857000056,None,499.4922857000056,None,501.328594000006,None,501.328594000006,None,501.328594000006,None,,,,,,,,,,,102,23,Female,2022-04-28_09h40.41.006,Main,2022.1.1,59.857121050283745,
neutral,positive,1,k,k,,,,,,,,,10,2,182,4,,,,,,,,,,,,,,,,,,,,,,,,main,2,2,1,positive,neutral,k,k,1,0.7354952999958186,502.3509647000028,503.36300830000255,503.34487540000555,None,502.3509647000028,None,502.3509647000028,None,502.3509647000028,None,504.0711079099994,None,504.0711079099994,None,504.0711079099994,None,,,,,,,,,,,102,23,Female,2022-04-28_09h40.41.006,Main,2022.1.1,59.857121050283745,
negative,positive,2,j,l,,,,,,,,,10,3,183,15,,,,,,,,,,,,,,,,,,,,,,,,main,2,2,2,positive,negative,j,j,1,0.7491202999954112,504.0879131000038,505.09624769999937,505.07814730000246,None,504.0879131000038,None,504.0879131000038,None,504.0879131000038,None,505.8227016100056,None,505.8227016100056,None,505.8227016100056,None,,,,,,,,,,,102,23,Female,2022-04-28_09h40.41.006,Main,2022.1.1,59.857121050283745,
positive,positive,1,l,j,,,,,,,,,10,4,184,2,,,,,,,,,,,,,,,,,,,,,,,,main,1,1,1,positive,positive,l,l,1,0.7397786000001361,505.84522120000474,506.86073440000473,506.84092670000246,None,505.84522120000474,None,505.84522120000474,None,505.84522120000474,None,507.56298421000173,None,507.56298421000173,None,507.56298421000173,None,,,,,,,,,,,102,23,Female,2022-04-28_09h40.41.006,Main,2022.1.1,59.857121050283745,
neutral,neutral,1,k,k,,,,,,,,,10,5,185,1,,,,,,,,,,,,,,,,,,,,,,,,main,1,1,1,neutral,neutral,k,k,1,0.7711074000035296,507.58257589999994,508.5938752000002,508.57449080000515,None,507.58257589999994,None,507.58257589999994,None,507.58257589999994,None,509.3392602100059,None,509.3392602100059,None,509.3392602100059,None,,,,,,,,,,,102,23,Female,2022-04-28_09h40.41.006,Main,2022.1.1,59.857121050283745,
neutral,negative,1,k,k,,,,,,,,,10,6,186,7,,,,,,,,,,,,,,,,,,,,,,,,main,2,2,1,negative,neutral,k,k,1,0.5797803000023123,509.3578570000027,510.3609177000035,510.34097699999984,None,509.3578570000027,None,509.3578570000027,None,509.3578570000027,None,510.92134130999983,None,510.92134130999983,None,510.92134130999983,None,,,,,,,,,,,102,23,Female,2022-04-28_09h40.41.006,Main,2022.1.1,59.857121050283745,
positive,negative,2,l,j,,,,,,,,,10,7,187,14,,,,,,,,,,,,,,,,,,,,,,,,main,2,2,2,negative,positive,l,l,1,0.7778259999977308,510.9430197000038,511.9630099999995,511.9245283000055,None,510.9430197000038,None,510.9430197000038,None,510.9430197000038,None,512.7011997100046,None,512.7011997100046,None,512.7011997100046,None,,,,,,,,,,,102,23,Female,2022-04-28_09h40.41.006,Main,2022.1.1,59.857121050283745,
positive,negative,1,l,j,,,,,,,,,10,8,188,5,,,,,,,,,,,,,,,,,,,,,,,,main,2,2,1,negative,positive,l,l,1,0.8467848000000231,512.7205274000007,513.738170800003,513.6965149000025,None,512.7205274000007,None,512.7205274000007,None,512.7205274000007,None,514.5517829100056,None,514.5517829100056,None,514.5517829100056,None,,,,,,,,,,,102,23,Female,2022-04-28_09h40.41.006,Main,2022.1.1,59.857121050283745,
neutral,negative,2,k,k,,,,,,,,,10,9,189,16,,,,,,,,,,,,,,,,,,,,,,,,main,2,2,2,negative,neutral,k,k,1,0.7643782000013744,514.5682849000004,515.5812176000036,515.5463187999994,None,514.5682849000004,None,514.5682849000004,None,514.5682849000004,None,516.3192568100051,None,516.3192568100051,None,516.3192568100051,None,,,,,,,,,,,102,23,Female,2022-04-28_09h40.41.006,Main,2022.1.1,59.857121050283745,
positive,positive,2,l,j,,,,,,,,,10,10,190,11,,,,,,,,,,,,,,,,,,,,,,,,main,2,2,2,positive,positive,l,l,1,0.6585936999981641,516.3388240999993,517.3455377999999,517.3252005000031,None,516.3388240999993,None,516.3388240999993,None,516.3388240999993,None,517.980040010006,None,517.980040010006,None,517.980040010006,None,,,,,,,,,,,102,23,Female,2022-04-28_09h40.41.006,Main,2022.1.1,59.857121050283745,
positive,neutral,2,l,j,,,,,,,,,10,11,191,17,,,,,,,,,,,,,,,,,,,,,,,,main,1,1,2,neutral,positive,l,l,1,0.7383001999987755,517.9984146000061,519.0174069999994,518.9797985000041,None,517.9984146000061,None,517.9984146000061,None,517.9984146000061,None,519.7225063100043,None,519.7225063100043,None,519.7225063100043,None,,,,,,,,,,,102,23,Female,2022-04-28_09h40.41.006,Main,2022.1.1,59.857121050283745,
negative,neutral,2,j,l,,,,,,,,,10,12,192,12,,,,,,,,,,,,,,,,,,,,,,,,main,2,2,2,neutral,negative,j,j,1,0.865297999996983,519.7438743000021,520.7631446000014,520.7243799000062,None,519.7438743000021,None,519.7438743000021,None,519.7438743000021,None,521.5907336100056,None,521.5907336100056,None,521.5907336100056,None,,,,,,,,,,,102,23,Female,2022-04-28_09h40.41.006,Main,2022.1.1,59.857121050283745,
neutral,positive,2,k,k,,,,,,,,,10,13,193,13,,,,,,,,,,,,,,,,,,,,,,,,main,2,2,2,positive,neutral,k,k,1,0.6678395999988425,521.6099066000024,522.6142803000039,522.5967709000033,None,521.6099066000024,None,521.6099066000024,None,521.6099066000024,None,523.2607525100022,None,523.2607525100022,None,523.2607525100022,None,,,,,,,,,,,102,23,Female,2022-04-28_09h40.41.006,Main,2022.1.1,59.857121050283745,
negative,positive,1,j,l,,,,,,,,,10,14,194,6,,,,,,,,,,,,,,,,,,,,,,,,main,2,2,1,positive,negative,j,l,0,0.8061612000019522,523.2800347000011,524.2845368000053,524.2666805000044,None,523.2800347000011,None,523.2800347000011,None,523.2800347000011,None,525.079973800006,None,525.079973800006,None,525.079973800006,None,,,,,,,,,,,102,23,Female,2022-04-28_09h40.41.006,Main,2022.1.1,59.857121050283745,
negative,negative,1,j,l,,,,,,,,,10,15,195,0,,,,,,,,,,,,,,,,,,,,,,,,main,1,1,1,negative,negative,j,j,1,0.8891055999993114,526.1008168000044,527.1127483000018,527.0921611000012,None,526.1008168000044,None,526.1008168000044,None,526.1008168000044,None,527.9749849100037,None,527.9749849100037,None,527.9749849100037,None,,,,,,,,,,,102,23,Female,2022-04-28_09h40.41.006,Main,2022.1.1,59.857121050283745,
neutral,neutral,2,k,k,,,,,,,,,10,16,196,10,,,,,,,,,,,,,,,,,,,,,,,,main,2,2,2,neutral,neutral,k,k,1,0.5840151000011247,527.9955638000029,528.9964015000005,528.9790453000023,None,527.9955638000029,None,527.9955638000029,None,527.9955638000029,None,529.5614341100002,None,529.5614341100002,None,529.5614341100002,None,,,,,,,,,,,102,23,Female,2022-04-28_09h40.41.006,Main,2022.1.1,59.857121050283745,
negative,neutral,1,j,l,,,,,,,,,10,17,197,3,,,,,,,,,,,,,,,,,,,,,,,,main,1,1,1,neutral,negative,j,j,1,0.8811012000005576,529.5798271000021,530.5802686000025,530.5633706000008,None,529.5798271000021,None,529.5798271000021,None,529.5798271000021,None,531.4467470100055,None,531.4467470100055,None,531.4467470100055,None,,,,,,,,,,,102,23,Female,2022-04-28_09h40.41.006,Main,2022.1.1,59.857121050283745,
positive,neutral,2,l,j,,,,,,,,,11,0,198,17,,,,,,,,,,,,,,,,,,,,,,,,main,1,1,2,neutral,positive,l,l,1,0.7173129999937373,531.4658018000046,532.4798994000012,532.4467109000034,None,531.4658018000046,None,531.4658018000046,None,531.4658018000046,None,533.1694854100053,None,533.1694854100053,None,533.1694854100053,None,,,,,,,,,,,102,23,Female,2022-04-28_09h40.41.006,Main,2022.1.1,59.857121050283745,
neutral,negative,2,k,k,,,,,,,,,11,1,199,16,,,,,,,,,,,,,,,,,,,,,,,,main,1,1,2,negative,neutral,k,k,1,0.648660300001211,533.1863481000037,534.194854100002,534.1750494000007,None,533.1863481000037,None,533.1863481000037,None,533.1863481000037,None,534.8193194100015,None,534.8193194100015,None,534.8193194100015,None,,,,,,,,,,,102,23,Female,2022-04-28_09h40.41.006,Main,2022.1.1,59.857121050283745,
neutral,negative,1,k,k,,,,,,,,,11,2,200,7,,,,,,,,,,,,,,,,,,,,,,,,main,2,2,1,negative,neutral,k,k,1,0.6018915000022389,534.8379745000057,535.8472897000029,535.8120275000038,None,534.8379745000057,None,534.8379745000057,None,534.8379745000057,None,536.4255889100016,None,536.4255889100016,None,536.4255889100016,None,,,,,,,,,,,102,23,Female,2022-04-28_09h40.41.006,Main,2022.1.1,59.857121050283745,
negative,positive,1,j,l,,,,,,,,,11,3,201,6,,,,,,,,,,,,,,,,,,,,,,,,main,1,1,1,positive,negative,j,j,1,0.8752353000018047,536.4438551000057,537.4575894000009,537.4188119000028,None,536.4438551000057,None,536.4438551000057,None,536.4438551000057,None,538.3020308100015,None,538.3020308100015,None,538.3020308100015,None,,,,,,,,,,,102,23,Female,2022-04-28_09h40.41.006,Main,2022.1.1,59.857121050283745,
positive,negative,2,l,j,,,,,,,,,11,4,202,14,,,,,,,,,,,,,,,,,,,,,,,,main,2,2,2,negative,positive,l,l,1,0.7990152999991551,538.3195873000004,539.3306599999996,539.2957444999993,None,538.3195873000004,None,538.3195873000004,None,538.3195873000004,None,540.1022629100037,None,540.1022629100037,None,540.1022629100037,None,,,,,,,,,,,102,23,Female,2022-04-28_09h40.41.006,Main,2022.1.1,59.857121050283745,
negative,neutral,1,j,l,,,,,,,,,11,5,203,3,,,,,,,,,,,,,,,,,,,,,,,,main,1,1,1,neutral,negative,j,j,1,0.9051686000020709,540.1217895000009,541.1384609000015,541.0969580000019,None,540.1217895000009,None,540.1217895000009,None,540.1217895000009,None,542.0125324100002,None,542.0125324100002,None,542.0125324100002,None,,,,,,,,,,,102,23,Female,2022-04-28_09h40.41.006,Main,2022.1.1,59.857121050283745,
negative,negative,2,j,l,,,,,,,,,11,6,204,9,,,,,,,,,,,,,,,,,,,,,,,,main,1,1,2,negative,negative,j,j,1,0.954415300002438,542.0308644000033,543.0584978000043,543.0114383000036,None,542.0308644000033,None,542.0308644000033,None,542.0308644000033,None,543.9694039100061,None,543.9694039100061,None,543.9694039100061,None,,,,,,,,,,,102,23,Female,2022-04-28_09h40.41.006,Main,2022.1.1,59.857121050283745,
neutral,neutral,2,k,k,,,,,,,,,11,7,205,10,,,,,,,,,,,,,,,,,,,,,,,,main,2,2,2,neutral,neutral,k,k,1,0.7192178999976022,543.9878506000023,544.9997590000057,544.9617484000046,None,543.9878506000023,None,543.9878506000023,None,543.9878506000023,None,545.6922557100036,None,545.6922557100036,None,545.6922557100036,None,,,,,,,,,,,102,23,Female,2022-04-28_09h40.41.006,Main,2022.1.1,59.857121050283745,
neutral,positive,1,k,k,,,,,,,,,11,8,206,4,,,,,,,,,,,,,,,,,,,,,,,,main,2,2,1,positive,neutral,k,k,1,0.6407833999983268,545.7113255000004,546.7301049000016,546.6917897000021,None,545.7113255000004,None,545.7113255000004,None,545.7113255000004,None,547.333318410004,None,547.333318410004,None,547.333318410004,None,,,,,,,,,,,102,23,Female,2022-04-28_09h40.41.006,Main,2022.1.1,59.857121050283745,
negative,neutral,2,j,l,,,,,,,,,11,9,207,12,,,,,,,,,,,,,,,,,,,,,,,,main,2,2,2,neutral,negative,j,j,1,0.8590736999976798,547.3526796000006,548.363591500005,548.3303646000059,None,547.3526796000006,None,547.3526796000006,None,547.3526796000006,None,549.1970345100046,None,549.1970345100046,None,549.1970345100046,None,,,,,,,,,,,102,23,Female,2022-04-28_09h40.41.006,Main,2022.1.1,59.857121050283745,
