target,distractor,set,ans1,ans2,rep_loop2.thisRepN,rep_loop2.thisTrialN,rep_loop2.thisN,rep_loop2.thisIndex,flanker_prac_loop.thisRepN,flanker_prac_loop.thisTrialN,flanker_prac_loop.thisN,flanker_prac_loop.thisIndex,flanker_main_loop.thisRepN,flanker_main_loop.thisTrialN,flanker_main_loop.thisN,flanker_main_loop.thisIndex,fl_inst_resp.keys,mouse.x,mouse.y,mouse.leftButton,mouse.midButton,mouse.rightButton,mouse.started,mouse.stopped,sound_1.started,sound_1.stopped,no_text.started,no_text.stopped,yes_text.started,yes_text.stopped,mouse_2.x,mouse_2.y,mouse_2.leftButton,mouse_2.midButton,mouse_2.rightButton,mouse_2.started,mouse_2.stopped,back_2.started,back_2.stopped,main_prac,fl_cold,fl_colt,fl_set,fl_dcond,fl_tcond,fl_ans,fl_res,fl_corr,fl_rt,fix_fl.started,fix_fl.stopped,targ.started,targ.stopped,j_button.started,j_button.stopped,k_button.started,k_button.stopped,l_button.started,l_button.stopped,j_button2.started,j_button2.stopped,k_button2.started,k_button2.stopped,l_button2.started,l_button2.stopped,mainback.started,mainback.stopped,key_resp.keys,mouse_6.x,mouse_6.y,mouse_6.leftButton,mouse_6.midButton,mouse_6.rightButton,mouse_6.started,mouse_6.stopped,id*,age*,gender*,date,expName,psychopyVersion,frameRate,
,,,,,0,0,0,0,,,,,,,,,None,0.48240742,-0.3287037,0,0,0,1.030639219956356,None,30.627341280010295,None,80.76318000000902,None,80.76318000000902,None,-0.06666667,-0.09166667,0,0,0,0.013489580000168644,None,,,,,,,,,,,,,,,,,,,,,,,,,,,,,,,,,,,,,,,103,22,Female,2022-04-28_15h35.25.787,Boat,2022.1.1,60.08362438691684,
neutral,positive,2,k,k,,,,,0,0,0,13,,,,,,,,,,,,,,,,,,,,,,,,,,85.91447450000851,None,prac,1,1,2,positive,neutral,k,k,1,1.2639252999942983,87.95511970001098,88.96739060000982,88.93163089999871,None,87.95511970001098,None,87.95511970001098,None,87.95511970001098,None,90.19117988000217,None,90.19117988000217,None,90.19117988000217,None,,,,,,,,,,,103,22,Female,2022-04-28_15h35.25.787,Boat,2022.1.1,60.08362438691684,
negative,neutral,2,j,l,,,,,0,1,1,12,,,,,,,,,,,,,,,,,,,,,,,,,,,,prac,1,1,2,neutral,negative,l,l,1,1.3293004999868572,90.2167855000007,91.23384000000078,91.19782480000868,None,90.2167855000007,None,90.2167855000007,None,90.2167855000007,None,92.52186388000264,None,92.52186388000264,None,92.52186388000264,None,,,,,,,,,,,103,22,Female,2022-04-28_15h35.25.787,Boat,2022.1.1,60.08362438691684,
neutral,positive,1,k,k,,,,,0,2,2,4,,,,,,,,,,,,,,,,,,,,,,,,,,,,prac,1,1,1,positive,neutral,k,k,1,1.1684569000062766,92.54979660001118,93.55044330000237,93.53411530000449,None,92.54979660001118,None,92.54979660001118,None,92.54979660001118,None,94.6941296800098,None,94.6941296800098,None,94.6941296800098,None,,,,,,,,,,,103,22,Female,2022-04-28_15h35.25.787,Boat,2022.1.1,60.08362438691684,
positive,neutral,2,l,j,,,,,0,3,3,17,,,,,,,,,,,,,,,,,,,,,,,,,,,,prac,1,1,2,neutral,positive,j,j,1,1.011199900007341,94.70956840000872,95.71494520000124,95.69544219999807,None,94.70956840000872,None,94.70956840000872,None,94.70956840000872,None,96.70712308000948,None,96.70712308000948,None,96.70712308000948,None,,,,,,,,,,,103,22,Female,2022-04-28_15h35.25.787,Boat,2022.1.1,60.08362438691684,
negative,positive,2,j,l,,,,,0,4,4,15,,,,,,,,,,,,,,,,,,,,,,,,,,,,prac,1,1,2,positive,negative,l,l,1,1.0219867999985581,96.72655600000871,97.7340336000052,97.7175847000035,None,96.72655600000871,None,96.72655600000871,None,96.72655600000871,None,98.73128897999705,None,98.73128897999705,None,98.73128897999705,None,,,,,,,,,,,103,22,Female,2022-04-28_15h35.25.787,Boat,2022.1.1,60.08362438691684,
neutral,neutral,2,k,k,,,,,0,5,5,10,,,,,,,,,,,,,,,,,,,,,,,,,,,,prac,2,2,2,neutral,neutral,k,k,1,0.895046599995112,98.75712020001083,99.77555050000956,99.73395280000113,None,98.75712020001083,None,98.75712020001083,None,98.75712020001083,None,100.62853728000773,None,100.62853728000773,None,100.62853728000773,None,,,,,,,,,,,103,22,Female,2022-04-28_15h35.25.787,Boat,2022.1.1,60.08362438691684,
negative,negative,1,j,l,,,,,0,6,6,0,,,,,,,,,,,,,,,,,,,,,,,,,,,,prac,2,2,1,negative,negative,l,l,1,1.2262934000027599,100.65233520000766,101.66241840001021,101.6421282000083,None,100.65233520000766,None,100.65233520000766,None,100.65233520000766,None,102.85372358000605,None,102.85372358000605,None,102.85372358000605,None,,,,,,,,,,,103,22,Female,2022-04-28_15h35.25.787,Boat,2022.1.1,60.08362438691684,
positive,negative,2,l,j,,,,,0,7,7,14,,,,,,,,,,,,,,,,,,,,,,,,,,,,prac,2,2,2,negative,positive,j,j,1,1.098417299988796,102.88078710000264,103.90059900000051,103.88225010001042,None,102.88078710000264,None,102.88078710000264,None,102.88078710000264,None,104.95610968000547,None,104.95610968000547,None,104.95610968000547,None,,,,,,,,,,,103,22,Female,2022-04-28_15h35.25.787,Boat,2022.1.1,60.08362438691684,
neutral,neutral,1,k,k,,,,,0,8,8,1,,,,,,,,,,,,,,,,,,,,,,,,,,,,prac,1,1,1,neutral,neutral,k,k,1,0.9958711999934167,104.97985810000682,105.99825319999945,105.97905609999725,None,104.97985810000682,None,104.97985810000682,None,104.97985810000682,None,106.95415828000405,None,106.95415828000405,None,106.95415828000405,None,,,,,,,,,,,103,22,Female,2022-04-28_15h35.25.787,Boat,2022.1.1,60.08362438691684,
negative,positive,1,j,l,,,,,0,9,9,6,,,,,,,,,,,,,,,,,,,,,,,,,,,,prac,1,1,1,positive,negative,l,l,1,0.9521710999979405,106.97947269999713,107.98422080000455,107.96689969999716,None,106.97947269999713,None,106.97947269999713,None,106.97947269999713,None,108.90955388000584,None,108.90955388000584,None,108.90955388000584,None,,,,,,,,,,,103,22,Female,2022-04-28_15h35.25.787,Boat,2022.1.1,60.08362438691684,
positive,negative,1,l,j,,,,,0,10,10,5,,,,,,,,,,,,,,,,,,,,,,,,,,,,prac,2,2,1,negative,positive,j,j,1,1.0099469999986468,108.9366383000015,109.9457495000097,109.9256180000084,None,108.9366383000015,None,108.9366383000015,None,108.9366383000015,None,110.9219509800052,None,110.9219509800052,None,110.9219509800052,None,,,,,,,,,,,103,22,Female,2022-04-28_15h35.25.787,Boat,2022.1.1,60.08362438691684,
positive,neutral,1,l,j,,,,,0,11,11,8,,,,,,,,,,,,,,,,,,,,,,,,,,,,prac,2,2,1,neutral,positive,j,j,1,0.9556448000075761,110.9476735000062,111.95077120000497,111.93412220000755,None,110.9476735000062,None,110.9476735000062,None,110.9476735000062,None,112.88120338000881,None,112.88120338000881,None,112.88120338000881,None,,,,,,,,,,,103,22,Female,2022-04-28_15h35.25.787,Boat,2022.1.1,60.08362438691684,
positive,positive,2,l,j,,,,,0,12,12,11,,,,,,,,,,,,,,,,,,,,,,,,,,,,prac,2,2,2,positive,positive,j,j,1,1.150717700002133,112.90498479999951,113.91802070000267,113.90056770000956,None,112.90498479999951,None,112.90498479999951,None,112.90498479999951,None,115.0341618800041,None,115.0341618800041,None,115.0341618800041,None,,,,,,,,,,,103,22,Female,2022-04-28_15h35.25.787,Boat,2022.1.1,60.08362438691684,
negative,neutral,1,j,l,,,,,0,13,13,3,,,,,,,,,,,,,,,,,,,,,,,,,,,,prac,2,2,1,neutral,negative,l,l,1,0.9912864999932935,115.05045500000415,116.05114470000262,116.03450500000326,None,115.05045500000415,None,115.05045500000415,None,115.05045500000415,None,117.02799688000523,None,117.02799688000523,None,117.02799688000523,None,,,,,,,,,,,103,22,Female,2022-04-28_15h35.25.787,Boat,2022.1.1,60.08362438691684,
neutral,negative,2,k,k,,,,,0,14,14,16,,,,,,,,,,,,,,,,,,,,,,,,,,,,prac,2,2,2,negative,neutral,k,k,1,0.9876296000002185,117.04428030000417,118.05082720000064,118.03382039999997,None,117.04428030000417,None,117.04428030000417,None,117.04428030000417,None,119.01790058000479,None,119.01790058000479,None,119.01790058000479,None,,,,,,,,,,,103,22,Female,2022-04-28_15h35.25.787,Boat,2022.1.1,60.08362438691684,
positive,positive,1,l,j,,,,,0,15,15,2,,,,,,,,,,,,,,,,,,,,,,,,,,,,prac,2,2,1,positive,positive,j,j,1,1.986718900006963,119.04692800001067,120.05099020000489,120.03400280000642,None,119.04692800001067,None,119.04692800001067,None,119.04692800001067,None,122.03484870000102,None,122.03484870000102,None,122.03484870000102,None,,,,,,,,,,,103,22,Female,2022-04-28_15h35.25.787,Boat,2022.1.1,60.08362438691684,
negative,negative,2,j,l,,,,,0,16,16,9,,,,,,,,,,,,,,,,,,,,,,,,,,,,prac,2,2,2,negative,negative,l,l,1,1.1382013999973424,123.05295730000944,124.06784170000174,124.04947120000725,None,123.05295730000944,None,123.05295730000944,None,123.05295730000944,None,125.17822438000003,None,125.17822438000003,None,125.17822438000003,None,,,,,,,,,,,103,22,Female,2022-04-28_15h35.25.787,Boat,2022.1.1,60.08362438691684,
neutral,negative,1,k,k,,,,,0,17,17,7,,,,,,,,,,,,,,,,,,,,,,,,,,,,prac,2,2,1,negative,neutral,k,k,1,1.1132858999917516,125.19383109999762,126.20947980000346,126.16782290000992,None,125.19383109999762,None,125.19383109999762,None,125.19383109999762,None,127.29350988001097,None,127.29350988001097,None,127.29350988001097,None,,,,,,,,,,,103,22,Female,2022-04-28_15h35.25.787,Boat,2022.1.1,60.08362438691684,
negative,positive,2,j,l,,,,,1,0,18,15,,,,,,,,,,,,,,,,,,,,,,,,,,,,prac,1,1,2,positive,negative,l,l,1,1.2182971000001999,127.31097720000253,128.32641510000394,128.28513650000968,None,127.31097720000253,None,127.31097720000253,None,127.31097720000253,None,129.51370138000055,None,129.51370138000055,None,129.51370138000055,None,,,,,,,,,,,103,22,Female,2022-04-28_15h35.25.787,Boat,2022.1.1,60.08362438691684,
positive,positive,2,l,j,,,,,1,1,19,11,,,,,,,,,,,,,,,,,,,,,,,,,,,,prac,1,1,2,positive,positive,j,j,1,0.9076285000046482,129.5337303999986,130.53563430000213,130.5184808000049,None,129.5337303999986,None,129.5337303999986,None,129.5337303999986,None,131.42421878000022,None,131.42421878000022,None,131.42421878000022,None,,,,,,,,,,,103,22,Female,2022-04-28_15h35.25.787,Boat,2022.1.1,60.08362438691684,
negative,negative,1,j,l,,,,,1,2,20,0,,,,,,,,,,,,,,,,,,,,,,,,,,,,prac,2,2,1,negative,negative,l,l,1,1.0237321000022348,131.4403416999994,132.45066430000588,132.43193240000983,None,131.4403416999994,None,131.4403416999994,None,131.4403416999994,None,133.45035277999995,None,133.45035277999995,None,133.45035277999995,None,,,,,,,,,,,103,22,Female,2022-04-28_15h35.25.787,Boat,2022.1.1,60.08362438691684,
neutral,negative,1,k,k,,,,,1,3,21,7,,,,,,,,,,,,,,,,,,,,,,,,,,,,prac,2,2,1,negative,neutral,k,k,1,0.869228600000497,133.46669990000373,134.46791750000557,134.4503723000089,None,133.46669990000373,None,133.46669990000373,None,133.46669990000373,None,135.32137747999803,None,135.32137747999803,None,135.32137747999803,None,,,,,,,,,,,103,22,Female,2022-04-28_15h35.25.787,Boat,2022.1.1,60.08362438691684,
neutral,neutral,2,k,k,,,,,1,4,22,10,,,,,,,,,,,,,,,,,,,,,,,,,,,,prac,1,1,2,neutral,neutral,k,k,1,0.8261931000015466,135.33725440000126,136.35961710000993,136.3181501000072,None,135.33725440000126,None,135.33725440000126,None,135.33725440000126,None,137.15120628000585,None,137.15120628000585,None,137.15120628000585,None,,,,,,,,,,,103,22,Female,2022-04-28_15h35.25.787,Boat,2022.1.1,60.08362438691684,
negative,positive,1,j,l,,,,,1,5,23,6,,,,,,,,,,,,,,,,,,,,,,,,,,,,prac,2,2,1,positive,negative,l,l,1,0.8094082000025082,137.16914369999722,138.18551819999993,138.15122900001006,None,137.16914369999722,None,137.16914369999722,None,137.16914369999722,None,138.96419578000786,None,138.96419578000786,None,138.96419578000786,None,,,,,,,,,,,103,22,Female,2022-04-28_15h35.25.787,Boat,2022.1.1,60.08362438691684,
neutral,neutral,1,k,k,,,,,1,6,24,1,,,,,,,,,,,,,,,,,,,,,,,,,,,,prac,1,1,1,neutral,neutral,k,k,1,0.8181231000053231,138.98359770000388,140.0016187000001,139.96581819999847,None,138.98359770000388,None,138.98359770000388,None,138.98359770000388,None,140.78460827999805,None,140.78460827999805,None,140.78460827999805,None,,,,,,,,,,,103,22,Female,2022-04-28_15h35.25.787,Boat,2022.1.1,60.08362438691684,
positive,neutral,1,l,j,,,,,1,7,25,8,,,,,,,,,,,,,,,,,,,,,,,,,,,,prac,1,1,1,neutral,positive,j,j,1,0.9463632999977563,140.80063019999943,141.81814689999737,141.78232130000833,None,140.80063019999943,None,140.80063019999943,None,140.80063019999943,None,142.73479997999965,None,142.73479997999965,None,142.73479997999965,None,,,,,,,,,,,103,22,Female,2022-04-28_15h35.25.787,Boat,2022.1.1,60.08362438691684,
negative,neutral,1,j,l,,,,,1,8,26,3,,,,,,,,,,,,,,,,,,,,,,,,,,,,prac,1,1,1,neutral,negative,l,l,1,0.8341672999958973,142.74974300000758,143.75206610000168,143.73280800000066,None,142.74974300000758,None,142.74974300000758,None,142.74974300000758,None,144.57000638000608,None,144.57000638000608,None,144.57000638000608,None,,,,,,,,,,,103,22,Female,2022-04-28_15h35.25.787,Boat,2022.1.1,60.08362438691684,
positive,negative,1,l,j,,,,,1,9,27,5,,,,,,,,,,,,,,,,,,,,,,,,,,,,prac,2,2,1,negative,positive,j,j,1,1.3239334999962011,144.58691850000469,145.60186989999784,145.56604890000017,None,144.58691850000469,None,144.58691850000469,None,144.58691850000469,None,146.89794978000572,None,146.89794978000572,None,146.89794978000572,None,,,,,,,,,,,103,22,Female,2022-04-28_15h35.25.787,Boat,2022.1.1,60.08362438691684,
positive,negative,2,l,j,,,,,1,10,28,14,,,,,,,,,,,,,,,,,,,,,,,,,,,,prac,2,2,2,negative,positive,j,j,1,0.9456053999892902,146.91357970000536,147.91979349999747,147.90148990000307,None,146.91357970000536,None,146.91357970000536,None,146.91357970000536,None,148.845355679997,None,148.845355679997,None,148.845355679997,None,,,,,,,,,,,103,22,Female,2022-04-28_15h35.25.787,Boat,2022.1.1,60.08362438691684,
positive,positive,1,l,j,,,,,1,11,29,2,,,,,,,,,,,,,,,,,,,,,,,,,,,,prac,1,1,1,positive,positive,j,j,1,1.3542708000022685,148.8624797000084,149.87662180000916,149.83489610000106,None,148.8624797000084,None,148.8624797000084,None,148.8624797000084,None,151.2015123799967,None,151.2015123799967,None,151.2015123799967,None,,,,,,,,,,,103,22,Female,2022-04-28_15h35.25.787,Boat,2022.1.1,60.08362438691684,
negative,negative,2,j,l,,,,,1,12,30,9,,,,,,,,,,,,,,,,,,,,,,,,,,,,prac,2,2,2,negative,negative,l,l,1,0.9192253999935929,151.21695880001062,152.21881180000491,152.19952150000609,None,151.21695880001062,None,151.21695880001062,None,151.21695880001062,None,153.12253697999694,None,153.12253697999694,None,153.12253697999694,None,,,,,,,,,,,103,22,Female,2022-04-28_15h35.25.787,Boat,2022.1.1,60.08362438691684,
negative,neutral,2,j,l,,,,,1,13,31,12,,,,,,,,,,,,,,,,,,,,,,,,,,,,prac,1,1,2,neutral,negative,l,l,1,0.7459830000007059,153.1390420000098,154.16315100000065,154.11604180000722,None,153.1390420000098,None,153.1390420000098,None,153.1390420000098,None,154.87091898000216,None,154.87091898000216,None,154.87091898000216,None,,,,,,,,,,,103,22,Female,2022-04-28_15h35.25.787,Boat,2022.1.1,60.08362438691684,
positive,neutral,2,l,j,,,,,1,14,32,17,,,,,,,,,,,,,,,,,,,,,,,,,,,,prac,1,1,2,neutral,positive,j,j,1,0.9930524000083096,154.88823850000335,155.8965412999969,155.8768115999992,None,154.88823850000335,None,154.88823850000335,None,154.88823850000335,None,156.8684680800099,None,156.8684680800099,None,156.8684680800099,None,,,,,,,,,,,103,22,Female,2022-04-28_15h35.25.787,Boat,2022.1.1,60.08362438691684,
neutral,positive,2,k,k,,,,,1,15,33,13,,,,,,,,,,,,,,,,,,,,,,,,,,,,prac,1,1,2,positive,neutral,k,k,1,0.8563638999912655,156.88331460001064,157.89331700000912,157.85159980000753,None,156.88331460001064,None,156.88331460001064,None,156.88331460001064,None,158.72817607999895,None,158.72817607999895,None,158.72817607999895,None,,,,,,,,,,,103,22,Female,2022-04-28_15h35.25.787,Boat,2022.1.1,60.08362438691684,
neutral,positive,1,k,k,,,,,1,16,34,4,,,,,,,,,,,,,,,,,,,,,,,,,,,,prac,1,1,1,positive,neutral,k,k,1,0.9492980000068201,158.7463762999978,159.75373050000053,159.71974749999936,None,158.7463762999978,None,158.7463762999978,None,158.7463762999978,None,160.6800578800059,None,160.6800578800059,None,160.6800578800059,None,,,,,,,,,,,103,22,Female,2022-04-28_15h35.25.787,Boat,2022.1.1,60.08362438691684,
neutral,negative,2,k,k,,,,,1,17,35,16,,,,,,,,,,,,,,,,,,,,,,,,,,,,prac,2,2,2,negative,neutral,k,k,1,0.8157509000011487,160.6963187000074,161.70213580000564,161.66860790000646,None,160.6963187000074,None,160.6963187000074,None,160.6963187000074,None,162.49780378000577,None,162.49780378000577,None,162.49780378000577,None,,,,,,,,,,,103,22,Female,2022-04-28_15h35.25.787,Boat,2022.1.1,60.08362438691684,
,,,,,,,,,,,,,,,,,,,,,,,,,,,,,,,,,,,,,,,,,,,,,,,,,,,,,,,,,,,,,,,,,,162.5092488000082,None,None,,,,,,,,103,22,Female,2022-04-28_15h35.25.787,Boat,2022.1.1,60.08362438691684,
,,,,,,,,,,,,,,,,,,,,,,,,,,,,,,,,,,,,,,,,,,,,,,,,,,,,,,,,,,,,,,,,,,,,,0.21018519,-0.09351852,1,0,0,0.007839679994503967,None,103,22,Female,2022-04-28_15h35.25.787,Boat,2022.1.1,60.08362438691684,
positive,positive,2,l,j,,,,,,,,,0,0,0,11,,,,,,,,,,,,,,,,,,,,,,177.99715720000677,None,main,2,2,2,positive,positive,j,j,1,0.8902105000015581,180.01796370001102,181.01876780000748,181.00205720000667,None,180.01796370001102,None,180.01796370001102,None,180.01796370001102,None,181.88722738001087,None,181.88722738001087,None,181.88722738001087,None,,,,,,,,,,,103,22,Female,2022-04-28_15h35.25.787,Boat,2022.1.1,60.08362438691684,
negative,negative,1,j,l,,,,,,,,,0,1,1,0,,,,,,,,,,,,,,,,,,,,,,,,main,2,2,1,negative,negative,l,l,1,0.7542687000095611,181.90927509999892,182.92701240000315,182.88565620000008,None,181.90927509999892,None,181.90927509999892,None,181.90927509999892,None,183.64791508000343,None,183.64791508000343,None,183.64791508000343,None,,,,,,,,,,,103,22,Female,2022-04-28_15h35.25.787,Boat,2022.1.1,60.08362438691684,
positive,neutral,1,l,j,,,,,,,,,0,2,2,8,,,,,,,,,,,,,,,,,,,,,,,,main,2,2,1,neutral,positive,j,j,1,0.829271599999629,183.66446890000952,184.66902690001007,184.63578310000594,None,183.66446890000952,None,183.66446890000952,None,183.66446890000952,None,185.48028508000715,None,185.48028508000715,None,185.48028508000715,None,,,,,,,,,,,103,22,Female,2022-04-28_15h35.25.787,Boat,2022.1.1,60.08362438691684,
negative,neutral,2,j,l,,,,,,,,,0,3,3,12,,,,,,,,,,,,,,,,,,,,,,,,main,1,1,2,neutral,negative,l,l,1,0.8170651000109501,185.49646999999823,186.50227360001008,186.48556310001004,None,185.49646999999823,None,185.49646999999823,None,185.49646999999823,None,187.30026518000813,None,187.30026518000813,None,187.30026518000813,None,,,,,,,,,,,103,22,Female,2022-04-28_15h35.25.787,Boat,2022.1.1,60.08362438691684,
neutral,neutral,2,k,k,,,,,,,,,0,4,4,10,,,,,,,,,,,,,,,,,,,,,,,,main,2,2,2,neutral,neutral,k,k,1,0.7934171999950195,187.31572430000233,188.31946670000616,188.2996536999999,None,187.31572430000233,None,187.31572430000233,None,187.31572430000233,None,189.0952948799997,None,189.0952948799997,None,189.0952948799997,None,,,,,,,,,,,103,22,Female,2022-04-28_15h35.25.787,Boat,2022.1.1,60.08362438691684,
negative,positive,2,j,l,,,,,,,,,0,5,5,15,,,,,,,,,,,,,,,,,,,,,,,,main,1,1,2,positive,negative,l,l,1,0.9452712999918731,189.11446550000983,190.1191536999977,190.10240909999993,None,189.11446550000983,None,189.11446550000983,None,189.11446550000983,None,191.0446412799967,None,191.0446412799967,None,191.0446412799967,None,,,,,,,,,,,103,22,Female,2022-04-28_15h35.25.787,Boat,2022.1.1,60.08362438691684,
neutral,positive,1,k,k,,,,,,,,,0,6,6,4,,,,,,,,,,,,,,,,,,,,,,,,main,1,1,1,positive,neutral,k,k,1,0.7692321999929845,191.05972220000695,192.08036730000458,192.06084190000547,None,191.05972220000695,None,191.05972220000695,None,191.05972220000695,None,192.81617798000224,None,192.81617798000224,None,192.81617798000224,None,,,,,,,,,,,103,22,Female,2022-04-28_15h35.25.787,Boat,2022.1.1,60.08362438691684,
negative,negative,2,j,l,,,,,,,,,0,7,7,9,,,,,,,,,,,,,,,,,,,,,,,,main,2,2,2,negative,negative,l,l,1,0.7563897999934852,192.83422180000343,193.8497858000046,193.83049240001128,None,192.83422180000343,None,192.83422180000343,None,192.83422180000343,None,194.5769895800069,None,194.5769895800069,None,194.5769895800069,None,,,,,,,,,,,103,22,Female,2022-04-28_15h35.25.787,Boat,2022.1.1,60.08362438691684,
positive,positive,1,l,j,,,,,,,,,0,8,8,2,,,,,,,,,,,,,,,,,,,,,,,,main,1,1,1,positive,positive,j,j,1,0.8398043000051985,194.59378399999696,195.61116090000723,195.56929060000402,None,194.59378399999696,None,194.59378399999696,None,194.59378399999696,None,196.41962168000754,None,196.41962168000754,None,196.41962168000754,None,,,,,,,,,,,103,22,Female,2022-04-28_15h35.25.787,Boat,2022.1.1,60.08362438691684,
neutral,negative,2,k,k,,,,,,,,,0,9,9,16,,,,,,,,,,,,,,,,,,,,,,,,main,1,1,2,negative,neutral,k,k,1,0.7012590999947861,196.44866380000894,197.46107299999858,197.43562350000138,None,196.44866380000894,None,196.44866380000894,None,196.44866380000894,None,198.12307328000605,None,198.12307328000605,None,198.12307328000605,None,,,,,,,,,,,103,22,Female,2022-04-28_15h35.25.787,Boat,2022.1.1,60.08362438691684,
positive,negative,1,l,j,,,,,,,,,0,10,10,5,,,,,,,,,,,,,,,,,,,,,,,,main,1,1,1,negative,positive,j,j,1,0.9562817999976687,198.1417005000112,199.1497001000098,199.13057690000278,None,198.1417005000112,None,198.1417005000112,None,198.1417005000112,None,200.08419548000091,None,200.08419548000091,None,200.08419548000091,None,,,,,,,,,,,103,22,Female,2022-04-28_15h35.25.787,Boat,2022.1.1,60.08362438691684,
positive,neutral,2,l,j,,,,,,,,,0,11,11,17,,,,,,,,,,,,,,,,,,,,,,,,main,1,1,2,neutral,positive,j,j,1,1.0040552999998908,200.1015238000109,201.12761809999938,201.08116139999765,None,200.1015238000109,None,200.1015238000109,None,200.1015238000109,None,202.09348418000735,None,202.09348418000735,None,202.09348418000735,None,,,,,,,,,,,103,22,Female,2022-04-28_15h35.25.787,Boat,2022.1.1,60.08362438691684,
negative,neutral,1,j,l,,,,,,,,,0,12,12,3,,,,,,,,,,,,,,,,,,,,,,,,main,2,2,1,neutral,negative,l,l,1,0.8669041999964975,202.1116178000084,203.11944150000636,203.10244930000044,None,202.1116178000084,None,202.1116178000084,None,202.1116178000084,None,203.96305198000044,None,203.96305198000044,None,203.96305198000044,None,,,,,,,,,,,103,22,Female,2022-04-28_15h35.25.787,Boat,2022.1.1,60.08362438691684,
neutral,neutral,1,k,k,,,,,,,,,0,13,13,1,,,,,,,,,,,,,,,,,,,,,,,,main,1,1,1,neutral,neutral,k,k,1,0.7938695000048028,203.98225600000296,204.9945260000095,204.9675608999969,None,203.98225600000296,None,203.98225600000296,None,203.98225600000296,None,205.75979448001016,None,205.75979448001016,None,205.75979448001016,None,,,,,,,,,,,103,22,Female,2022-04-28_15h35.25.787,Boat,2022.1.1,60.08362438691684,
negative,positive,1,j,l,,,,,,,,,0,14,14,6,,,,,,,,,,,,,,,,,,,,,,,,main,1,1,1,positive,negative,l,l,1,1.2772241000056965,205.77564040001016,206.78053889999865,206.78053889999865,None,205.77564040001016,None,205.77564040001016,None,205.77564040001016,None,208.03586068000294,None,208.03586068000294,None,208.03586068000294,None,,,,,,,,,,,103,22,Female,2022-04-28_15h35.25.787,Boat,2022.1.1,60.08362438691684,
neutral,negative,1,k,k,,,,,,,,,0,15,15,7,,,,,,,,,,,,,,,,,,,,,,,,main,2,2,1,negative,neutral,k,k,1,0.7390575000026729,208.05482119999942,209.06944590000785,209.03646610000578,None,208.05482119999942,None,208.05482119999942,None,208.05482119999942,None,209.78075328000995,None,209.78075328000995,None,209.78075328000995,None,,,,,,,,,,,103,22,Female,2022-04-28_15h35.25.787,Boat,2022.1.1,60.08362438691684,
neutral,positive,2,k,k,,,,,,,,,0,16,16,13,,,,,,,,,,,,,,,,,,,,,,,,main,1,1,2,positive,neutral,k,k,1,0.6982447000045795,209.7976009999984,210.80326760000025,210.78635580000991,None,209.7976009999984,None,209.7976009999984,None,209.7976009999984,None,211.48114558001106,None,211.48114558001106,None,211.48114558001106,None,,,,,,,,,,,103,22,Female,2022-04-28_15h35.25.787,Boat,2022.1.1,60.08362438691684,
positive,negative,2,l,j,,,,,,,,,0,17,17,14,,,,,,,,,,,,,,,,,,,,,,,,main,2,2,2,negative,positive,j,j,1,0.7077754000056302,211.49831110000378,212.51705920000677,212.49772890000895,None,211.49831110000378,None,211.49831110000378,None,211.49831110000378,None,213.19101948000315,None,213.19101948000315,None,213.19101948000315,None,,,,,,,,,,,103,22,Female,2022-04-28_15h35.25.787,Boat,2022.1.1,60.08362438691684,
neutral,negative,2,k,k,,,,,,,,,1,0,18,16,,,,,,,,,,,,,,,,,,,,,,,,main,2,2,2,negative,neutral,k,k,1,0.6977312000090024,213.20735660000355,214.21952379999857,214.18589249999786,None,213.20735660000355,None,213.20735660000355,None,213.20735660000355,None,214.89238898000912,None,214.89238898000912,None,214.89238898000912,None,,,,,,,,,,,103,22,Female,2022-04-28_15h35.25.787,Boat,2022.1.1,60.08362438691684,
positive,negative,2,l,j,,,,,,,,,1,1,19,14,,,,,,,,,,,,,,,,,,,,,,,,main,2,2,2,negative,positive,j,j,1,0.6915901000029407,214.90750200000184,215.91954990000522,215.9010905000032,None,214.90750200000184,None,214.90750200000184,None,214.90750200000184,None,216.58590408000163,None,216.58590408000163,None,216.58590408000163,None,,,,,,,,,,,103,22,Female,2022-04-28_15h35.25.787,Boat,2022.1.1,60.08362438691684,
neutral,negative,1,k,k,,,,,,,,,1,2,20,7,,,,,,,,,,,,,,,,,,,,,,,,main,2,2,1,negative,neutral,k,k,1,0.6593980999896303,216.60245750000468,217.60269480000716,217.5864173000009,None,216.60245750000468,None,216.60245750000468,None,216.60245750000468,None,218.24870038000807,None,218.24870038000807,None,218.24870038000807,None,,,,,,,,,,,103,22,Female,2022-04-28_15h35.25.787,Boat,2022.1.1,60.08362438691684,
positive,positive,2,l,j,,,,,,,,,1,3,21,11,,,,,,,,,,,,,,,,,,,,,,,,main,1,1,2,positive,positive,j,j,1,0.8746076999959769,218.2683881999983,219.26944410000579,219.25304969999706,None,218.2683881999983,None,218.2683881999983,None,218.2683881999983,None,220.12442478000884,None,220.12442478000884,None,220.12442478000884,None,,,,,,,,,,,103,22,Female,2022-04-28_15h35.25.787,Boat,2022.1.1,60.08362438691684,
negative,neutral,2,j,l,,,,,,,,,1,4,22,12,,,,,,,,,,,,,,,,,,,,,,,,main,1,1,2,neutral,negative,l,l,1,0.7930685000028461,220.1406832000066,221.16153090000444,221.11983650000184,None,220.1406832000066,None,220.1406832000066,None,220.1406832000066,None,221.91955248000448,None,221.91955248000448,None,221.91955248000448,None,,,,,,,,,,,103,22,Female,2022-04-28_15h35.25.787,Boat,2022.1.1,60.08362438691684,
positive,neutral,1,l,j,,,,,,,,,1,5,23,8,,,,,,,,,,,,,,,,,,,,,,,,main,1,1,1,neutral,positive,j,j,1,0.812383199998294,221.9366507000086,222.93699950000155,222.91990200000873,None,221.9366507000086,None,221.9366507000086,None,221.9366507000086,None,223.73671257999666,None,223.73671257999666,None,223.73671257999666,None,,,,,,,,,,,103,22,Female,2022-04-28_15h35.25.787,Boat,2022.1.1,60.08362438691684,
negative,negative,2,j,l,,,,,,,,,1,6,24,9,,,,,,,,,,,,,,,,,,,,,,,,main,1,1,2,negative,negative,l,l,1,0.7901024000020698,223.7520477000071,224.76440140001068,224.7448599000054,None,223.7520477000071,None,223.7520477000071,None,223.7520477000071,None,225.53032347999687,None,225.53032347999687,None,225.53032347999687,None,,,,,,,,,,,103,22,Female,2022-04-28_15h35.25.787,Boat,2022.1.1,60.08362438691684,
negative,positive,1,j,l,,,,,,,,,1,7,25,6,,,,,,,,,,,,,,,,,,,,,,,,main,1,1,1,positive,negative,l,l,1,0.914153499994427,225.54864360000647,226.55519680000725,226.53675240000302,None,225.54864360000647,None,225.54864360000647,None,225.54864360000647,None,227.44594398000044,None,227.44594398000044,None,227.44594398000044,None,,,,,,,,,,,103,22,Female,2022-04-28_15h35.25.787,Boat,2022.1.1,60.08362438691684,
neutral,positive,1,k,k,,,,,,,,,1,8,26,4,,,,,,,,,,,,,,,,,,,,,,,,main,1,1,1,positive,neutral,k,k,1,0.7604129999963334,227.46311450000212,228.4813365000009,228.46144700000877,None,227.46311450000212,None,227.46311450000212,None,227.46311450000212,None,229.20772338001115,None,229.20772338001115,None,229.20772338001115,None,,,,,,,,,,,103,22,Female,2022-04-28_15h35.25.787,Boat,2022.1.1,60.08362438691684,
positive,negative,1,l,j,,,,,,,,,1,9,27,5,,,,,,,,,,,,,,,,,,,,,,,,main,2,2,1,negative,positive,j,j,1,0.7698474999924656,229.22493050000048,230.24441920001118,230.20315899999696,None,229.22493050000048,None,229.22493050000048,None,229.22493050000048,None,230.98241418000833,None,230.98241418000833,None,230.98241418000833,None,,,,,,,,,,,103,22,Female,2022-04-28_15h35.25.787,Boat,2022.1.1,60.08362438691684,
positive,neutral,2,l,j,,,,,,,,,1,10,28,17,,,,,,,,,,,,,,,,,,,,,,,,main,2,2,2,neutral,positive,j,j,1,1.0752787000092212,231.0006704999978,232.01464619999751,231.9696491000068,None,231.0006704999978,None,231.0006704999978,None,231.0006704999978,None,233.05991697999997,None,233.05991697999997,None,233.05991697999997,None,,,,,,,,,,,103,22,Female,2022-04-28_15h35.25.787,Boat,2022.1.1,60.08362438691684,
negative,positive,2,j,l,,,,,,,,,1,11,29,15,,,,,,,,,,,,,,,,,,,,,,,,main,2,2,2,positive,negative,l,l,1,0.7870586999924853,233.08084219999728,234.0894574999984,234.05350880000333,None,233.08084219999728,None,233.08084219999728,None,233.08084219999728,None,234.84937828000983,None,234.84937828000983,None,234.84937828000983,None,,,,,,,,,,,103,22,Female,2022-04-28_15h35.25.787,Boat,2022.1.1,60.08362438691684,
neutral,neutral,2,k,k,,,,,,,,,1,12,30,10,,,,,,,,,,,,,,,,,,,,,,,,main,2,2,2,neutral,neutral,k,k,1,0.6419363000022713,234.86583070000052,235.8783115999977,235.83712340000784,None,234.86583070000052,None,234.86583070000052,None,234.86583070000052,None,236.4939848800015,None,236.4939848800015,None,236.4939848800015,None,,,,,,,,,,,103,22,Female,2022-04-28_15h35.25.787,Boat,2022.1.1,60.08362438691684,
positive,positive,1,l,j,,,,,,,,,1,13,31,2,,,,,,,,,,,,,,,,,,,,,,,,main,2,2,1,positive,positive,j,j,1,1.3461344999959692,236.50994030000584,237.5285261000099,237.50395680000656,None,236.50994030000584,None,236.50994030000584,None,236.50994030000584,None,238.84079698000568,None,238.84079698000568,None,238.84079698000568,None,,,,,,,,,,,103,22,Female,2022-04-28_15h35.25.787,Boat,2022.1.1,60.08362438691684,
neutral,neutral,1,k,k,,,,,,,,,1,14,32,1,,,,,,,,,,,,,,,,,,,,,,,,main,1,1,1,neutral,neutral,k,k,1,0.7985627000016393,238.8571229000081,239.86686150000605,239.84791779999796,None,238.8571229000081,None,238.8571229000081,None,238.8571229000081,None,240.64119448000855,None,240.64119448000855,None,240.64119448000855,None,,,,,,,,,,,103,22,Female,2022-04-28_15h35.25.787,Boat,2022.1.1,60.08362438691684,
neutral,positive,2,k,k,,,,,,,,,1,15,33,13,,,,,,,,,,,,,,,,,,,,,,,,main,2,2,2,positive,neutral,k,k,1,0.7071818999975221,240.65866149999783,241.6721344000107,241.63662119999935,None,240.65866149999783,None,240.65866149999783,None,240.65866149999783,None,242.35320058001088,None,242.35320058001088,None,242.35320058001088,None,,,,,,,,,,,103,22,Female,2022-04-28_15h35.25.787,Boat,2022.1.1,60.08362438691684,
negative,neutral,1,j,l,,,,,,,,,1,16,34,3,,,,,,,,,,,,,,,,,,,,,,,,main,2,2,1,neutral,negative,l,l,1,1.03173990000505,242.36836560000665,243.38688560000446,243.34801650000736,None,242.36836560000665,None,242.36836560000665,None,242.36836560000665,None,244.38668958000488,None,244.38668958000488,None,244.38668958000488,None,,,,,,,,,,,103,22,Female,2022-04-28_15h35.25.787,Boat,2022.1.1,60.08362438691684,
negative,negative,1,j,l,,,,,,,,,1,17,35,0,,,,,,,,,,,,,,,,,,,,,,,,main,2,2,1,negative,negative,l,l,1,0.6542353000113508,244.40466610000294,245.4201652000047,245.38405360000615,None,244.40466610000294,None,244.40466610000294,None,244.40466610000294,None,246.0452297800104,None,246.0452297800104,None,246.0452297800104,None,,,,,,,,,,,103,22,Female,2022-04-28_15h35.25.787,Boat,2022.1.1,60.08362438691684,
positive,positive,2,l,j,,,,,,,,,2,0,36,11,,,,,,,,,,,,,,,,,,,,,,,,main,1,1,2,positive,positive,j,j,1,0.7829178999963915,246.06046920000517,247.07841600000393,247.03721520000545,None,246.06046920000517,None,246.06046920000517,None,246.06046920000517,None,247.83058168000133,None,247.83058168000133,None,247.83058168000133,None,,,,,,,,,,,103,22,Female,2022-04-28_15h35.25.787,Boat,2022.1.1,60.08362438691684,
positive,neutral,1,l,j,,,,,,,,,2,1,37,8,,,,,,,,,,,,,,,,,,,,,,,,main,1,1,1,neutral,positive,j,j,1,0.8699687999906018,247.84960390000197,248.87048470000445,248.83187000000908,None,247.84960390000197,None,247.84960390000197,None,247.84960390000197,None,249.7034579799976,None,249.7034579799976,None,249.7034579799976,None,,,,,,,,,,,103,22,Female,2022-04-28_15h35.25.787,Boat,2022.1.1,60.08362438691684,
positive,positive,1,l,j,,,,,,,,,2,2,38,2,,,,,,,,,,,,,,,,,,,,,,,,main,1,1,1,positive,positive,j,j,1,0.6507911999942735,249.7196515000105,250.72049220000918,250.7036991000059,None,249.7196515000105,None,249.7196515000105,None,249.7196515000105,None,251.3556246800028,None,251.3556246800028,None,251.3556246800028,None,,,,,,,,,,,103,22,Female,2022-04-28_15h35.25.787,Boat,2022.1.1,60.08362438691684,
neutral,neutral,2,k,k,,,,,,,,,2,3,39,10,,,,,,,,,,,,,,,,,,,,,,,,main,2,2,2,neutral,neutral,k,k,1,0.8014633999991929,251.37198160000844,252.3819031000021,252.3615936999995,None,251.37198160000844,None,251.37198160000844,None,251.37198160000844,None,253.16104898001066,None,253.16104898001066,None,253.16104898001066,None,,,,,,,,,,,103,22,Female,2022-04-28_15h35.25.787,Boat,2022.1.1,60.08362438691684,
neutral,negative,2,k,k,,,,,,,,,2,4,40,16,,,,,,,,,,,,,,,,,,,,,,,,main,1,1,2,negative,neutral,k,k,1,0.7014362999907462,253.17697749999934,254.18681020000076,254.1692011999985,None,253.17697749999934,None,253.17697749999934,None,253.17697749999934,None,254.8648205800011,None,254.8648205800011,None,254.8648205800011,None,,,,,,,,,,,103,22,Female,2022-04-28_15h35.25.787,Boat,2022.1.1,60.08362438691684,
positive,neutral,2,l,j,,,,,,,,,2,5,41,17,,,,,,,,,,,,,,,,,,,,,,,,main,1,1,2,neutral,positive,j,j,1,0.8790828999917721,254.88096570000926,255.88646470000094,255.86524720001034,None,254.88096570000926,None,254.88096570000926,None,254.88096570000926,None,256.7466711800109,None,256.7466711800109,None,256.7466711800109,None,,,,,,,,,,,103,22,Female,2022-04-28_15h35.25.787,Boat,2022.1.1,60.08362438691684,
negative,positive,2,j,l,,,,,,,,,2,6,42,15,,,,,,,,,,,,,,,,,,,,,,,,main,2,2,2,positive,negative,l,l,1,0.7612266999931308,256.7662896999973,257.78479200000584,257.7454519000021,None,256.7662896999973,None,256.7662896999973,None,256.7662896999973,None,258.50872118000115,None,258.50872118000115,None,258.50872118000115,None,,,,,,,,,,,103,22,Female,2022-04-28_15h35.25.787,Boat,2022.1.1,60.08362438691684,
positive,negative,1,l,j,,,,,,,,,2,7,43,5,,,,,,,,,,,,,,,,,,,,,,,,main,1,1,1,negative,positive,j,j,1,0.836258800001815,258.5261604999978,259.5369100000098,259.50199840001005,None,258.5261604999978,None,258.5261604999978,None,258.5261604999978,None,260.3491738800105,None,260.3491738800105,None,260.3491738800105,None,,,,,,,,,,,103,22,Female,2022-04-28_15h35.25.787,Boat,2022.1.1,60.08362438691684,
negative,neutral,1,j,l,,,,,,,,,2,8,44,3,,,,,,,,,,,,,,,,,,,,,,,,main,1,1,1,neutral,negative,l,l,1,0.7758252999919932,260.364879700006,261.3679692000005,261.3486089000071,None,260.364879700006,None,260.364879700006,None,260.364879700006,None,262.1277090800024,None,262.1277090800024,None,262.1277090800024,None,,,,,,,,,,,103,22,Female,2022-04-28_15h35.25.787,Boat,2022.1.1,60.08362438691684,
neutral,neutral,1,k,k,,,,,,,,,2,9,45,1,,,,,,,,,,,,,,,,,,,,,,,,main,2,2,1,neutral,neutral,k,k,1,0.7321548000036273,262.1431961000053,263.1658180000086,263.1454817000049,None,262.1431961000053,None,262.1431961000053,None,262.1431961000053,None,263.86234978000283,None,263.86234978000283,None,263.86234978000283,None,,,,,,,,,,,103,22,Female,2022-04-28_15h35.25.787,Boat,2022.1.1,60.08362438691684,
neutral,negative,1,k,k,,,,,,,,,2,10,46,7,,,,,,,,,,,,,,,,,,,,,,,,main,1,1,1,negative,neutral,k,k,1,0.6341544000024442,263.8777998000005,264.8819858000061,264.8819858000061,None,263.8777998000005,None,263.8777998000005,None,263.8777998000005,None,265.4984017800045,None,265.4984017800045,None,265.4984017800045,None,,,,,,,,,,,103,22,Female,2022-04-28_15h35.25.787,Boat,2022.1.1,60.08362438691684,
negative,neutral,2,j,l,,,,,,,,,2,11,47,12,,,,,,,,,,,,,,,,,,,,,,,,main,2,2,2,neutral,negative,l,l,1,0.7030302999919513,265.51669129999937,266.5207023000112,266.50136350000685,None,265.51669129999937,None,265.51669129999937,None,265.51669129999937,None,267.2038469800056,None,267.2038469800056,None,267.2038469800056,None,,,,,,,,,,,103,22,Female,2022-04-28_15h35.25.787,Boat,2022.1.1,60.08362438691684,
neutral,positive,1,k,k,,,,,,,,,2,12,48,4,,,,,,,,,,,,,,,,,,,,,,,,main,2,2,1,positive,neutral,k,k,1,0.7469363999989582,267.21958430000814,268.2352067000029,268.2158374999999,None,267.21958430000814,None,267.21958430000814,None,267.21958430000814,None,268.95364737999915,None,268.95364737999915,None,268.95364737999915,None,,,,,,,,,,,103,22,Female,2022-04-28_15h35.25.787,Boat,2022.1.1,60.08362438691684,
negative,positive,1,j,l,,,,,,,,,2,13,49,6,,,,,,,,,,,,,,,,,,,,,,,,main,1,1,1,positive,negative,l,l,1,0.7374517999996897,268.970321300003,269.9706281000108,269.9535637000081,None,268.970321300003,None,268.970321300003,None,268.970321300003,None,270.69344908000784,None,270.69344908000784,None,270.69344908000784,None,,,,,,,,,,,103,22,Female,2022-04-28_15h35.25.787,Boat,2022.1.1,60.08362438691684,
negative,negative,2,j,l,,,,,,,,,2,14,50,9,,,,,,,,,,,,,,,,,,,,,,,,main,1,1,2,negative,negative,l,l,1,0.9107719000021461,270.70992890000343,271.72069490001013,271.70197920000646,None,270.70992890000343,None,270.70992890000343,None,270.70992890000343,None,272.60646948000357,None,272.60646948000357,None,272.60646948000357,None,,,,,,,,,,,103,22,Female,2022-04-28_15h35.25.787,Boat,2022.1.1,60.08362438691684,
negative,negative,1,j,l,,,,,,,,,2,15,51,0,,,,,,,,,,,,,,,,,,,,,,,,main,1,1,1,negative,negative,l,l,1,0.6941769999975804,272.62341169999854,273.63499299999967,273.615318199998,None,272.62341169999854,None,272.62341169999854,None,272.62341169999854,None,274.3039808799978,None,274.3039808799978,None,274.3039808799978,None,,,,,,,,,,,103,22,Female,2022-04-28_15h35.25.787,Boat,2022.1.1,60.08362438691684,
neutral,positive,2,k,k,,,,,,,,,2,16,52,13,,,,,,,,,,,,,,,,,,,,,,,,main,2,2,2,positive,neutral,k,k,1,0.774336399990716,274.320441200005,275.3373101000034,275.29885540000396,None,274.320441200005,None,274.320441200005,None,274.320441200005,None,276.08148288000956,None,276.08148288000956,None,276.08148288000956,None,,,,,,,,,,,103,22,Female,2022-04-28_15h35.25.787,Boat,2022.1.1,60.08362438691684,
positive,negative,2,l,j,,,,,,,,,2,17,53,14,,,,,,,,,,,,,,,,,,,,,,,,main,2,2,2,negative,positive,j,j,1,0.8751901999930851,276.1005109000107,277.10410050000064,277.0867295000062,None,276.1005109000107,None,276.1005109000107,None,276.1005109000107,None,277.9588393800106,None,277.9588393800106,None,277.9588393800106,None,,,,,,,,,,,103,22,Female,2022-04-28_15h35.25.787,Boat,2022.1.1,60.08362438691684,
positive,negative,1,l,j,,,,,,,,,3,0,54,5,,,,,,,,,,,,,,,,,,,,,,,,main,2,2,1,negative,positive,j,j,1,0.7503985999937868,277.97543479999877,278.98563160000776,278.9656962000008,None,277.97543479999877,None,277.97543479999877,None,277.97543479999877,None,279.71252188000943,None,279.71252188000943,None,279.71252188000943,None,,,,,,,,,,,103,22,Female,2022-04-28_15h35.25.787,Boat,2022.1.1,60.08362438691684,
negative,neutral,2,j,l,,,,,,,,,3,1,55,12,,,,,,,,,,,,,,,,,,,,,,,,main,1,1,2,neutral,negative,l,l,1,0.8063598000007914,279.7311533000029,280.7376307000086,280.7184539000009,None,279.7311533000029,None,279.7311533000029,None,279.7311533000029,None,281.5215991800098,None,281.5215991800098,None,281.5215991800098,None,,,,,,,,,,,103,22,Female,2022-04-28_15h35.25.787,Boat,2022.1.1,60.08362438691684,
negative,negative,2,j,l,,,,,,,,,3,2,56,9,,,,,,,,,,,,,,,,,,,,,,,,main,2,2,2,negative,negative,l,l,1,0.7550708000053419,281.5384410999977,282.54933720000554,282.52895819999685,None,281.5384410999977,None,281.5384410999977,None,281.5384410999977,None,283.280633880003,None,283.280633880003,None,283.280633880003,None,,,,,,,,,,,103,22,Female,2022-04-28_15h35.25.787,Boat,2022.1.1,60.08362438691684,
positive,negative,2,l,j,,,,,,,,,3,3,57,14,,,,,,,,,,,,,,,,,,,,,,,,main,2,2,2,negative,positive,j,j,1,0.8930244000075618,283.29882900000666,284.30434870001045,284.287622200005,None,283.29882900000666,None,283.29882900000666,None,283.29882900000666,None,285.1776219799969,None,285.1776219799969,None,285.1776219799969,None,,,,,,,,,,,103,22,Female,2022-04-28_15h35.25.787,Boat,2022.1.1,60.08362438691684,
negative,negative,1,j,l,,,,,,,,,3,4,58,0,,,,,,,,,,,,,,,,,,,,,,,,main,2,2,1,negative,negative,l,l,1,1.3592254999966826,285.19360260000394,286.2017925000109,286.18235610000556,None,285.19360260000394,None,285.19360260000394,None,285.19360260000394,None,287.5383155800111,None,287.5383155800111,None,287.5383155800111,None,,,,,,,,,,,103,22,Female,2022-04-28_15h35.25.787,Boat,2022.1.1,60.08362438691684,
neutral,positive,1,k,k,,,,,,,,,3,5,59,4,,,,,,,,,,,,,,,,,,,,,,,,main,1,1,1,positive,neutral,k,k,1,0.7243702000123449,287.555031099997,288.55501060000097,288.5382455000072,None,287.555031099997,None,287.555031099997,None,287.555031099997,None,289.266551780008,None,289.266551780008,None,289.266551780008,None,,,,,,,,,,,103,22,Female,2022-04-28_15h35.25.787,Boat,2022.1.1,60.08362438691684,
negative,positive,1,j,l,,,,,,,,,3,6,60,6,,,,,,,,,,,,,,,,,,,,,,,,main,1,1,1,positive,negative,l,l,1,0.8250339999940479,289.2866039000073,290.28896659999737,290.2702644000092,None,289.2866039000073,None,289.2866039000073,None,289.2866039000073,None,291.09466638000157,None,291.09466638000157,None,291.09466638000157,None,,,,,,,,,,,103,22,Female,2022-04-28_15h35.25.787,Boat,2022.1.1,60.08362438691684,
negative,positive,2,j,l,,,,,,,,,3,7,61,15,,,,,,,,,,,,,,,,,,,,,,,,main,2,2,2,positive,negative,l,l,1,0.9799997999944026,291.11385470000096,292.1188147000066,292.09932030001073,None,291.11385470000096,None,291.11385470000096,None,291.11385470000096,None,293.0752911800111,None,293.0752911800111,None,293.0752911800111,None,,,,,,,,,,,103,22,Female,2022-04-28_15h35.25.787,Boat,2022.1.1,60.08362438691684,
neutral,negative,1,k,k,,,,,,,,,3,8,62,7,,,,,,,,,,,,,,,,,,,,,,,,main,2,2,1,negative,neutral,k,k,1,0.765200099995127,293.09139519999735,294.1125450999971,294.07116400000814,None,293.09139519999735,None,293.09139519999735,None,293.09139519999735,None,294.8440262800024,None,294.8440262800024,None,294.8440262800024,None,,,,,,,,,,,103,22,Female,2022-04-28_15h35.25.787,Boat,2022.1.1,60.08362438691684,
neutral,neutral,2,k,k,,,,,,,,,3,9,63,10,,,,,,,,,,,,,,,,,,,,,,,,main,2,2,2,neutral,neutral,k,k,1,0.6367521999927703,294.8605013000051,295.86887350000325,295.8494370999979,None,294.8605013000051,None,294.8605013000051,None,294.8605013000051,None,296.4832454800082,None,296.4832454800082,None,296.4832454800082,None,,,,,,,,,,,103,22,Female,2022-04-28_15h35.25.787,Boat,2022.1.1,60.08362438691684,
positive,neutral,1,l,j,,,,,,,,,3,10,64,8,,,,,,,,,,,,,,,,,,,,,,,,main,1,1,1,neutral,positive,j,j,1,0.7921419000049355,296.50042520000716,297.50452290000976,297.4878980000067,None,296.50042520000716,None,296.50042520000716,None,296.50042520000716,None,298.2782171800092,None,298.2782171800092,None,298.2782171800092,None,,,,,,,,,,,103,22,Female,2022-04-28_15h35.25.787,Boat,2022.1.1,60.08362438691684,
positive,positive,1,l,j,,,,,,,,,3,11,65,2,,,,,,,,,,,,,,,,,,,,,,,,main,2,2,1,positive,positive,j,j,1,0.8851701999956276,298.29741189999913,299.30201340001076,299.2825417999993,None,298.29741189999913,None,298.29741189999913,None,298.29741189999913,None,300.16659208000345,None,300.16659208000345,None,300.16659208000345,None,,,,,,,,,,,103,22,Female,2022-04-28_15h35.25.787,Boat,2022.1.1,60.08362438691684,
neutral,negative,2,k,k,,,,,,,,,3,12,66,16,,,,,,,,,,,,,,,,,,,,,,,,main,2,2,2,negative,neutral,k,k,1,0.7893267000035848,300.18295660000877,301.1877936000092,301.17114279999805,None,300.18295660000877,None,300.18295660000877,None,300.18295660000877,None,301.9557799799979,None,301.9557799799979,None,301.9557799799979,None,,,,,,,,,,,103,22,Female,2022-04-28_15h35.25.787,Boat,2022.1.1,60.08362438691684,
neutral,positive,2,k,k,,,,,,,,,3,13,67,13,,,,,,,,,,,,,,,,,,,,,,,,main,2,2,2,positive,neutral,k,k,1,0.7725269999937154,301.9736506000045,302.98636010001064,302.9664046000107,None,301.9736506000045,None,301.9736506000045,None,301.9736506000045,None,303.7329824799992,None,303.7329824799992,None,303.7329824799992,None,,,,,,,,,,,103,22,Female,2022-04-28_15h35.25.787,Boat,2022.1.1,60.08362438691684,
negative,neutral,1,j,l,,,,,,,,,3,14,68,3,,,,,,,,,,,,,,,,,,,,,,,,main,1,1,1,neutral,negative,l,l,1,0.8136927000014111,303.75223630000255,304.77968720000354,304.73275619999913,None,303.75223630000255,None,303.75223630000255,None,303.75223630000255,None,305.54924727999895,None,305.54924727999895,None,305.54924727999895,None,,,,,,,,,,,103,22,Female,2022-04-28_15h35.25.787,Boat,2022.1.1,60.08362438691684,
positive,positive,2,l,j,,,,,,,,,3,15,69,11,,,,,,,,,,,,,,,,,,,,,,,,main,2,2,2,positive,positive,j,j,1,0.9392836000042735,305.565402200009,306.5692975999991,306.54926949999935,None,305.565402200009,None,305.565402200009,None,305.565402200009,None,307.48814898000563,None,307.48814898000563,None,307.48814898000563,None,,,,,,,,,,,103,22,Female,2022-04-28_15h35.25.787,Boat,2022.1.1,60.08362438691684,
neutral,neutral,1,k,k,,,,,,,,,3,16,70,1,,,,,,,,,,,,,,,,,,,,,,,,main,1,1,1,neutral,neutral,k,k,1,0.9529144999978598,307.5066597999976,308.52989250000974,308.48798380000517,None,307.5066597999976,None,307.5066597999976,None,307.5066597999976,None,309.44685727999894,None,309.44685727999894,None,309.44685727999894,None,,,,,,,,,,,103,22,Female,2022-04-28_15h35.25.787,Boat,2022.1.1,60.08362438691684,
positive,neutral,2,l,j,,,,,,,,,3,17,71,17,,,,,,,,,,,,,,,,,,,,,,,,main,1,1,2,neutral,positive,j,j,1,0.9469511000061175,309.46290650000446,310.47994210000616,310.45456179999746,None,309.46290650000446,None,309.46290650000446,None,309.46290650000446,None,311.3961298800015,None,311.3961298800015,None,311.3961298800015,None,,,,,,,,,,,103,22,Female,2022-04-28_15h35.25.787,Boat,2022.1.1,60.08362438691684,
positive,negative,2,l,j,,,,,,,,,4,0,72,14,,,,,,,,,,,,,,,,,,,,,,,,main,1,1,2,negative,positive,j,j,1,0.8669719999888912,311.41143730000476,312.41870320000453,312.3994156999979,None,311.41143730000476,None,311.41143730000476,None,311.41143730000476,None,313.26526987999677,None,313.26526987999677,None,313.26526987999677,None,,,,,,,,,,,103,22,Female,2022-04-28_15h35.25.787,Boat,2022.1.1,60.08362438691684,
negative,negative,2,j,l,,,,,,,,,4,1,73,9,,,,,,,,,,,,,,,,,,,,,,,,main,1,1,2,negative,negative,l,l,1,0.7600597999989986,313.2814509000018,314.2884083000099,314.2687003000028,None,313.2814509000018,None,313.2814509000018,None,313.2814509000018,None,315.02797568000386,None,315.02797568000386,None,315.02797568000386,None,,,,,,,,,,,103,22,Female,2022-04-28_15h35.25.787,Boat,2022.1.1,60.08362438691684,
neutral,neutral,1,k,k,,,,,,,,,4,2,74,1,,,,,,,,,,,,,,,,,,,,,,,,main,2,2,1,neutral,neutral,k,k,1,0.7362679000070784,315.0443864999979,316.0548865000019,316.03859250000096,None,315.0443864999979,None,315.0443864999979,None,315.0443864999979,None,316.76696738000027,None,316.76696738000027,None,316.76696738000027,None,,,,,,,,,,,103,22,Female,2022-04-28_15h35.25.787,Boat,2022.1.1,60.08362438691684,
neutral,negative,1,k,k,,,,,,,,,4,3,75,7,,,,,,,,,,,,,,,,,,,,,,,,main,2,2,1,negative,neutral,k,k,1,0.6752782000112347,316.78307250000944,317.7881095000048,317.77066229999764,None,316.78307250000944,None,316.78307250000944,None,316.78307250000944,None,318.4431166800088,None,318.4431166800088,None,318.4431166800088,None,,,,,,,,,,,103,22,Female,2022-04-28_15h35.25.787,Boat,2022.1.1,60.08362438691684,
positive,neutral,2,l,j,,,,,,,,,4,4,76,17,,,,,,,,,,,,,,,,,,,,,,,,main,2,2,2,neutral,positive,j,j,1,0.7881749000080163,318.4609028999985,319.4719377000001,319.43556779999926,None,318.4609028999985,None,318.4609028999985,None,318.4609028999985,None,320.23550297999753,None,320.23550297999753,None,320.23550297999753,None,,,,,,,,,,,103,22,Female,2022-04-28_15h35.25.787,Boat,2022.1.1,60.08362438691684,
positive,positive,2,l,j,,,,,,,,,4,5,77,11,,,,,,,,,,,,,,,,,,,,,,,,main,2,2,2,positive,positive,j,j,1,0.6259664999961387,320.2512541000033,321.27968430001056,321.23287439999694,None,320.2512541000033,None,320.2512541000033,None,320.2512541000033,None,321.8637281800067,None,321.8637281800067,None,321.8637281800067,None,,,,,,,,,,,103,22,Female,2022-04-28_15h35.25.787,Boat,2022.1.1,60.08362438691684,
neutral,positive,2,k,k,,,,,,,,,4,6,78,13,,,,,,,,,,,,,,,,,,,,,,,,main,1,1,2,positive,neutral,k,k,1,0.9287971000012476,321.88059200000134,322.88600730001053,322.8663947000023,None,321.88059200000134,None,321.88059200000134,None,321.88059200000134,None,323.7948039799987,None,323.7948039799987,None,323.7948039799987,None,,,,,,,,,,,103,22,Female,2022-04-28_15h35.25.787,Boat,2022.1.1,60.08362438691684,
positive,negative,1,l,j,,,,,,,,,4,7,79,5,,,,,,,,,,,,,,,,,,,,,,,,main,1,1,1,negative,positive,j,j,1,0.7408454000105849,323.81169030000456,324.8301322000043,324.7887119000079,None,323.81169030000456,None,323.81169030000456,None,323.81169030000456,None,325.5382428800105,None,325.5382428800105,None,325.5382428800105,None,,,,,,,,,,,103,22,Female,2022-04-28_15h35.25.787,Boat,2022.1.1,60.08362438691684,
positive,positive,1,l,j,,,,,,,,,4,8,80,2,,,,,,,,,,,,,,,,,,,,,,,,main,2,2,1,positive,positive,j,j,1,0.7503114999999525,325.55444610000995,326.55734500000835,326.53989320000983,None,325.55444610000995,None,325.55444610000995,None,325.55444610000995,None,327.290736380007,None,327.290736380007,None,327.290736380007,None,,,,,,,,,,,103,22,Female,2022-04-28_15h35.25.787,Boat,2022.1.1,60.08362438691684,
neutral,neutral,2,k,k,,,,,,,,,4,9,81,10,,,,,,,,,,,,,,,,,,,,,,,,main,1,1,2,neutral,neutral,k,k,1,0.7154202999954578,327.30723230000876,328.32195189999766,328.28719000000274,None,327.30723230000876,None,327.30723230000876,None,327.30723230000876,None,329.00881798001063,None,329.00881798001063,None,329.00881798001063,None,,,,,,,,,,,103,22,Female,2022-04-28_15h35.25.787,Boat,2022.1.1,60.08362438691684,
neutral,negative,2,k,k,,,,,,,,,4,10,82,16,,,,,,,,,,,,,,,,,,,,,,,,main,1,1,2,negative,neutral,k,k,1,0.6012068999989424,329.024485300004,330.03323600000294,330.01350310001,None,329.024485300004,None,329.024485300004,None,329.024485300004,None,330.61416408000804,None,330.61416408000804,None,330.61416408000804,None,,,,,,,,,,,103,22,Female,2022-04-28_15h35.25.787,Boat,2022.1.1,60.08362438691684,
neutral,positive,1,k,k,,,,,,,,,4,11,83,4,,,,,,,,,,,,,,,,,,,,,,,,main,1,1,1,positive,neutral,k,k,1,0.8220588000112912,330.6302138000028,331.63899500000116,331.60297100000025,None,330.6302138000028,None,330.6302138000028,None,330.6302138000028,None,332.4383424800064,None,332.4383424800064,None,332.4383424800064,None,,,,,,,,,,,103,22,Female,2022-04-28_15h35.25.787,Boat,2022.1.1,60.08362438691684,
negative,positive,1,j,l,,,,,,,,,4,12,84,6,,,,,,,,,,,,,,,,,,,,,,,,main,1,1,1,positive,negative,l,l,1,0.8193411999964155,332.4553009000083,333.4635275000037,333.43850830000883,None,332.4553009000083,None,332.4553009000083,None,332.4553009000083,None,334.26165108000276,None,334.26165108000276,None,334.26165108000276,None,,,,,,,,,,,103,22,Female,2022-04-28_15h35.25.787,Boat,2022.1.1,60.08362438691684,
negative,positive,2,j,l,,,,,,,,,4,13,85,15,,,,,,,,,,,,,,,,,,,,,,,,main,1,1,2,positive,negative,l,l,1,0.7042969000031007,334.277032900005,335.28865600000427,335.27078690000053,None,334.277032900005,None,334.277032900005,None,334.277032900005,None,335.96860578000195,None,335.96860578000195,None,335.96860578000195,None,,,,,,,,,,,103,22,Female,2022-04-28_15h35.25.787,Boat,2022.1.1,60.08362438691684,
negative,negative,1,j,l,,,,,,,,,4,14,86,0,,,,,,,,,,,,,,,,,,,,,,,,main,2,2,1,negative,negative,l,l,1,0.6835567999951309,335.98735589999706,336.988471100005,336.97205360000953,None,335.98735589999706,None,335.98735589999706,None,335.98735589999706,None,337.65373438000387,None,337.65373438000387,None,337.65373438000387,None,,,,,,,,,,,103,22,Female,2022-04-28_15h35.25.787,Boat,2022.1.1,60.08362438691684,
positive,neutral,1,l,j,,,,,,,,,4,15,87,8,,,,,,,,,,,,,,,,,,,,,,,,main,2,2,1,neutral,positive,j,j,1,0.968443700010539,337.6714681000012,338.68022819999896,338.65551160000905,None,337.6714681000012,None,337.6714681000012,None,337.6714681000012,None,339.62532367999955,None,339.62532367999955,None,339.62532367999955,None,,,,,,,,,,,103,22,Female,2022-04-28_15h35.25.787,Boat,2022.1.1,60.08362438691684,
negative,neutral,1,j,l,,,,,,,,,4,16,88,3,,,,,,,,,,,,,,,,,,,,,,,,main,2,2,1,neutral,negative,l,l,1,0.8490700999973342,339.6424812000041,340.6556942000025,340.61940999999933,None,339.6424812000041,None,339.6424812000041,None,339.6424812000041,None,341.47840658000786,None,341.47840658000786,None,341.47840658000786,None,,,,,,,,,,,103,22,Female,2022-04-28_15h35.25.787,Boat,2022.1.1,60.08362438691684,
negative,neutral,2,j,l,,,,,,,,,4,17,89,12,,,,,,,,,,,,,,,,,,,,,,,,main,2,2,2,neutral,negative,l,l,1,0.6587685999984387,341.4942110999982,342.50587970000925,342.48923520000244,None,341.4942110999982,None,341.4942110999982,None,341.4942110999982,None,343.1388924800005,None,343.1388924800005,None,343.1388924800005,None,,,,,,,,,,,103,22,Female,2022-04-28_15h35.25.787,Boat,2022.1.1,60.08362438691684,
positive,positive,2,l,j,,,,,,,,,5,0,90,11,,,,,,,,,,,,,,,,,,,,,,,,main,1,1,2,positive,positive,j,j,1,0.9064686000056099,343.1551601000101,344.1550004000019,344.13877550000325,None,343.1551601000101,None,343.1551601000101,None,343.1551601000101,None,345.0495876800007,None,345.0495876800007,None,345.0495876800007,None,,,,,,,,,,,103,22,Female,2022-04-28_15h35.25.787,Boat,2022.1.1,60.08362438691684,
neutral,neutral,1,k,k,,,,,,,,,5,1,91,1,,,,,,,,,,,,,,,,,,,,,,,,main,2,2,1,neutral,neutral,k,k,1,0.7215679999935674,345.0684220999974,346.0864877999993,346.04702130000805,None,345.0684220999974,None,345.0684220999974,None,345.0684220999974,None,346.77289778000267,None,346.77289778000267,None,346.77289778000267,None,,,,,,,,,,,103,22,Female,2022-04-28_15h35.25.787,Boat,2022.1.1,60.08362438691684,
negative,positive,2,j,l,,,,,,,,,5,2,92,15,,,,,,,,,,,,,,,,,,,,,,,,main,2,2,2,positive,negative,l,l,1,0.7129343999986304,346.78849320000154,347.79098190000514,347.77242280000064,None,346.78849320000154,None,346.78849320000154,None,346.78849320000154,None,348.4886937800067,None,348.4886937800067,None,348.4886937800067,None,,,,,,,,,,,103,22,Female,2022-04-28_15h35.25.787,Boat,2022.1.1,60.08362438691684,
positive,positive,1,l,j,,,,,,,,,5,3,93,2,,,,,,,,,,,,,,,,,,,,,,,,main,2,2,1,positive,positive,j,j,1,0.9222738000098616,348.5051353000017,349.52105490000395,349.5013070999994,None,348.5051353000017,None,348.5051353000017,None,348.5051353000017,None,350.4148256799992,None,350.4148256799992,None,350.4148256799992,None,,,,,,,,,,,103,22,Female,2022-04-28_15h35.25.787,Boat,2022.1.1,60.08362438691684,
negative,neutral,2,j,l,,,,,,,,,5,4,94,12,,,,,,,,,,,,,,,,,,,,,,,,main,2,2,2,neutral,negative,l,l,1,0.7509166000090772,350.4339251000056,351.43920290000096,351.4030739000009,None,350.4339251000056,None,350.4339251000056,None,350.4339251000056,None,352.16763338000163,None,352.16763338000163,None,352.16763338000163,None,,,,,,,,,,,103,22,Female,2022-04-28_15h35.25.787,Boat,2022.1.1,60.08362438691684,
positive,neutral,2,l,j,,,,,,,,,5,5,95,17,,,,,,,,,,,,,,,,,,,,,,,,main,1,1,2,neutral,positive,j,j,1,0.8596148999931756,352.18649360000563,353.2033553000074,353.1843341000058,None,352.18649360000563,None,352.18649360000563,None,352.18649360000563,None,354.03209648000774,None,354.03209648000774,None,354.03209648000774,None,,,,,,,,,,,103,22,Female,2022-04-28_15h35.25.787,Boat,2022.1.1,60.08362438691684,
positive,negative,1,l,j,,,,,,,,,5,6,96,5,,,,,,,,,,,,,,,,,,,,,,,,main,1,1,1,negative,positive,j,j,1,0.8224210000043968,354.0482626000012,355.0640652000002,355.02235010000004,None,354.0482626000012,None,354.0482626000012,None,354.0482626000012,None,355.8559398800018,None,355.8559398800018,None,355.8559398800018,None,,,,,,,,,,,103,22,Female,2022-04-28_15h35.25.787,Boat,2022.1.1,60.08362438691684,
negative,neutral,1,j,l,,,,,,,,,5,7,97,3,,,,,,,,,,,,,,,,,,,,,,,,main,2,2,1,neutral,negative,l,l,1,0.747182300008717,355.87206100000185,356.8724559999973,356.8556503,None,355.87206100000185,None,355.87206100000185,None,355.87206100000185,None,357.60609398001105,None,357.60609398001105,None,357.60609398001105,None,,,,,,,,,,,103,22,Female,2022-04-28_15h35.25.787,Boat,2022.1.1,60.08362438691684,
negative,positive,1,j,l,,,,,,,,,5,8,98,6,,,,,,,,,,,,,,,,,,,,,,,,main,2,2,1,positive,negative,l,l,1,0.6377062999963528,357.6214936000033,358.63892759999726,358.60095040001033,None,357.6214936000033,None,357.6214936000033,None,357.6214936000033,None,359.24709118000754,None,359.24709118000754,None,359.24709118000754,None,,,,,,,,,,,103,22,Female,2022-04-28_15h35.25.787,Boat,2022.1.1,60.08362438691684,
neutral,negative,2,k,k,,,,,,,,,5,9,99,16,,,,,,,,,,,,,,,,,,,,,,,,main,2,2,2,negative,neutral,k,k,1,0.750411000000895,359.2638505000068,360.2805020000087,360.23913390000234,None,359.2638505000068,None,359.2638505000068,None,359.2638505000068,None,361.00037268000887,None,361.00037268000887,None,361.00037268000887,None,,,,,,,,,,,103,22,Female,2022-04-28_15h35.25.787,Boat,2022.1.1,60.08362438691684,
negative,negative,2,j,l,,,,,,,,,5,10,100,9,,,,,,,,,,,,,,,,,,,,,,,,main,1,1,2,negative,negative,l,l,1,0.6630846999905771,361.0200929999992,362.03062810000847,361.98926120001124,None,361.0200929999992,None,361.0200929999992,None,361.0200929999992,None,362.6646260800073,None,362.6646260800073,None,362.6646260800073,None,,,,,,,,,,,103,22,Female,2022-04-28_15h35.25.787,Boat,2022.1.1,60.08362438691684,
positive,negative,2,l,j,,,,,,,,,5,11,101,14,,,,,,,,,,,,,,,,,,,,,,,,main,2,2,2,negative,positive,j,j,1,0.7990507000067737,362.6818707000057,363.6902345999988,363.6560974000022,None,362.6818707000057,None,362.6818707000057,None,362.6818707000057,None,364.4675222800026,None,364.4675222800026,None,364.4675222800026,None,,,,,,,,,,,103,22,Female,2022-04-28_15h35.25.787,Boat,2022.1.1,60.08362438691684,
negative,negative,1,j,l,,,,,,,,,5,12,102,0,,,,,,,,,,,,,,,,,,,,,,,,main,2,2,1,negative,negative,l,l,1,0.726479200005997,364.4870660000015,365.4976284000004,365.4560315999988,None,364.4870660000015,None,364.4870660000015,None,364.4870660000015,None,366.19457308001,None,366.19457308001,None,366.19457308001,None,,,,,,,,,,,103,22,Female,2022-04-28_15h35.25.787,Boat,2022.1.1,60.08362438691684,
neutral,negative,1,k,k,,,,,,,,,5,13,103,7,,,,,,,,,,,,,,,,,,,,,,,,main,1,1,1,negative,neutral,k,k,1,0.7150131000089459,366.2107557999989,367.21986100000504,367.2005999000103,None,366.2107557999989,None,366.2107557999989,None,366.2107557999989,None,367.91355837999726,None,367.91355837999726,None,367.91355837999726,None,,,,,,,,,,,103,22,Female,2022-04-28_15h35.25.787,Boat,2022.1.1,60.08362438691684,
positive,neutral,1,l,j,,,,,,,,,5,14,104,8,,,,,,,,,,,,,,,,,,,,,,,,main,1,1,1,neutral,positive,j,j,1,0.930838499989477,367.9319838000083,368.93931509999675,368.91991280000366,None,367.9319838000083,None,367.9319838000083,None,367.9319838000083,None,369.8452536800061,None,369.8452536800061,None,369.8452536800061,None,,,,,,,,,,,103,22,Female,2022-04-28_15h35.25.787,Boat,2022.1.1,60.08362438691684,
neutral,positive,1,k,k,,,,,,,,,5,15,105,4,,,,,,,,,,,,,,,,,,,,,,,,main,2,2,1,positive,neutral,k,k,1,0.8989451000088593,369.86237490001076,370.86744400000316,370.84739110000373,None,369.86237490001076,None,369.86237490001076,None,369.86237490001076,None,371.7485594799975,None,371.7485594799975,None,371.7485594799975,None,,,,,,,,,,,103,22,Female,2022-04-28_15h35.25.787,Boat,2022.1.1,60.08362438691684,
neutral,neutral,2,k,k,,,,,,,,,5,16,106,10,,,,,,,,,,,,,,,,,,,,,,,,main,1,1,2,neutral,neutral,k,k,1,0.9960446000040974,371.7645454000012,372.77305329999945,372.73894680000376,None,371.7645454000012,None,371.7645454000012,None,371.7645454000012,None,373.74710507999697,None,373.74710507999697,None,373.74710507999697,None,,,,,,,,,,,103,22,Female,2022-04-28_15h35.25.787,Boat,2022.1.1,60.08362438691684,
neutral,positive,2,k,k,,,,,,,,,5,17,107,13,,,,,,,,,,,,,,,,,,,,,,,,main,2,2,2,positive,neutral,k,k,1,0.7344924999924842,373.76324210000166,374.7699433000089,374.7506690000009,None,373.76324210000166,None,373.76324210000166,None,373.76324210000166,None,375.48290088000357,None,375.48290088000357,None,375.48290088000357,None,,,,,,,,,,,103,22,Female,2022-04-28_15h35.25.787,Boat,2022.1.1,60.08362438691684,
neutral,neutral,2,k,k,,,,,,,,,6,0,108,10,,,,,,,,,,,,,,,,,,,,,,,,main,2,2,2,neutral,neutral,k,k,1,0.6203378999925917,375.50441340000543,376.5142208000034,376.4730189000111,None,375.50441340000543,None,375.50441340000543,None,375.50441340000543,None,377.1005802800093,None,377.1005802800093,None,377.1005802800093,None,,,,,,,,,,,103,22,Female,2022-04-28_15h35.25.787,Boat,2022.1.1,60.08362438691684,
negative,negative,2,j,l,,,,,,,,,6,1,109,9,,,,,,,,,,,,,,,,,,,,,,,,main,2,2,2,negative,negative,l,l,1,0.7877072999981465,377.1358101000078,378.1479543000023,378.1286783000105,None,377.1358101000078,None,377.1358101000078,None,377.1358101000078,None,378.89799308000073,None,378.89799308000073,None,378.89799308000073,None,,,,,,,,,,,103,22,Female,2022-04-28_15h35.25.787,Boat,2022.1.1,60.08362438691684,
neutral,neutral,1,k,k,,,,,,,,,6,2,110,1,,,,,,,,,,,,,,,,,,,,,,,,main,2,2,1,neutral,neutral,k,k,1,0.7043653000000631,378.9207865000062,379.9229180000111,379.9060470999975,None,378.9207865000062,None,378.9207865000062,None,378.9207865000062,None,380.6058194800018,None,380.6058194800018,None,380.6058194800018,None,,,,,,,,,,,103,22,Female,2022-04-28_15h35.25.787,Boat,2022.1.1,60.08362438691684,
negative,positive,2,j,l,,,,,,,,,6,3,111,15,,,,,,,,,,,,,,,,,,,,,,,,main,2,2,2,positive,negative,l,l,1,0.655514400001266,380.62311410000257,381.6313012000028,381.60592200000247,None,380.62311410000257,None,380.62311410000257,None,380.62311410000257,None,382.26539968001015,None,382.26539968001015,None,382.26539968001015,None,,,,,,,,,,,103,22,Female,2022-04-28_15h35.25.787,Boat,2022.1.1,60.08362438691684,
positive,positive,1,l,j,,,,,,,,,6,4,112,2,,,,,,,,,,,,,,,,,,,,,,,,main,2,2,1,positive,positive,j,j,1,0.9324476999900071,382.28553930000635,383.28957459999947,383.2558924000041,None,382.28553930000635,None,382.28553930000635,None,382.28553930000635,None,384.1997356800013,None,384.1997356800013,None,384.1997356800013,None,,,,,,,,,,,103,22,Female,2022-04-28_15h35.25.787,Boat,2022.1.1,60.08362438691684,
neutral,negative,2,k,k,,,,,,,,,6,5,113,16,,,,,,,,,,,,,,,,,,,,,,,,main,2,2,2,negative,neutral,k,k,1,0.7031572999985656,384.2200709000026,385.22307710000314,385.20612270000856,None,384.2200709000026,None,384.2200709000026,None,384.2200709000026,None,385.905854180007,None,385.905854180007,None,385.905854180007,None,,,,,,,,,,,103,22,Female,2022-04-28_15h35.25.787,Boat,2022.1.1,60.08362438691684,
negative,neutral,2,j,l,,,,,,,,,6,6,114,12,,,,,,,,,,,,,,,,,,,,,,,,main,2,2,2,neutral,negative,l,l,1,0.8456715000065742,385.9218483000004,386.92324620000727,386.9064281000028,None,385.9218483000004,None,385.9218483000004,None,385.9218483000004,None,387.7541544800071,None,387.7541544800071,None,387.7541544800071,None,,,,,,,,,,,103,22,Female,2022-04-28_15h35.25.787,Boat,2022.1.1,60.08362438691684,
negative,positive,1,j,l,,,,,,,,,6,7,115,6,,,,,,,,,,,,,,,,,,,,,,,,main,2,2,1,positive,negative,l,l,1,0.7925308999983827,387.7717160000029,388.77334880000853,388.75631409999914,None,387.7717160000029,None,387.7717160000029,None,387.7717160000029,None,389.5513020800019,None,389.5513020800019,None,389.5513020800019,None,,,,,,,,,,,103,22,Female,2022-04-28_15h35.25.787,Boat,2022.1.1,60.08362438691684,
negative,negative,1,j,l,,,,,,,,,6,8,116,0,,,,,,,,,,,,,,,,,,,,,,,,main,2,2,1,negative,negative,l,l,1,0.6934218000096735,389.567941900008,390.58149019999837,390.53952130000107,None,389.567941900008,None,389.567941900008,None,389.567941900008,None,391.247586679997,None,391.247586679997,None,391.247586679997,None,,,,,,,,,,,103,22,Female,2022-04-28_15h35.25.787,Boat,2022.1.1,60.08362438691684,
positive,positive,2,l,j,,,,,,,,,6,9,117,11,,,,,,,,,,,,,,,,,,,,,,,,main,1,1,2,positive,positive,j,j,1,0.9240870000066934,391.2660151000018,392.28147960000206,392.2563835000037,None,391.2660151000018,None,391.2660151000018,None,391.2660151000018,None,393.17300178000295,None,393.17300178000295,None,393.17300178000295,None,,,,,,,,,,,103,22,Female,2022-04-28_15h35.25.787,Boat,2022.1.1,60.08362438691684,
positive,negative,1,l,j,,,,,,,,,6,10,118,5,,,,,,,,,,,,,,,,,,,,,,,,main,1,1,1,negative,positive,j,j,1,0.7327892999892356,393.190039100009,394.18958140000177,394.17302740000014,None,393.190039100009,None,393.190039100009,None,393.190039100009,None,394.9084336800035,None,394.9084336800035,None,394.9084336800035,None,,,,,,,,,,,103,22,Female,2022-04-28_15h35.25.787,Boat,2022.1.1,60.08362438691684,
neutral,positive,1,k,k,,,,,,,,,6,11,119,4,,,,,,,,,,,,,,,,,,,,,,,,main,2,2,1,positive,neutral,k,k,1,0.7525225999997929,394.92659889999777,395.9400774000096,395.9063904000068,None,394.92659889999777,None,394.92659889999777,None,394.92659889999777,None,396.6647775799967,None,396.6647775799967,None,396.6647775799967,None,,,,,,,,,,,103,22,Female,2022-04-28_15h35.25.787,Boat,2022.1.1,60.08362438691684,
positive,neutral,2,l,j,,,,,,,,,6,12,120,17,,,,,,,,,,,,,,,,,,,,,,,,main,1,1,2,neutral,positive,j,j,1,0.870657299994491,396.68201980000595,397.69002930000715,397.6565688999981,None,396.68201980000595,None,396.68201980000595,None,396.68201980000595,None,398.5384405800025,None,398.5384405800025,None,398.5384405800025,None,,,,,,,,,,,103,22,Female,2022-04-28_15h35.25.787,Boat,2022.1.1,60.08362438691684,
neutral,positive,2,k,k,,,,,,,,,6,13,121,13,,,,,,,,,,,,,,,,,,,,,,,,main,1,1,2,positive,neutral,k,k,1,0.8824904000066454,398.5553071000031,399.56808090000413,399.5483752,None,398.5553071000031,None,398.5553071000031,None,398.5553071000031,None,400.42337028000037,None,400.42337028000037,None,400.42337028000037,None,,,,,,,,,,,103,22,Female,2022-04-28_15h35.25.787,Boat,2022.1.1,60.08362438691684,
neutral,negative,1,k,k,,,,,,,,,6,14,122,7,,,,,,,,,,,,,,,,,,,,,,,,main,2,2,1,negative,neutral,k,k,1,0.8009861999889836,400.4392838000058,401.46492800000124,401.41802300000563,None,400.4392838000058,None,400.4392838000058,None,400.4392838000058,None,402.22670788000977,None,402.22670788000977,None,402.22670788000977,None,,,,,,,,,,,103,22,Female,2022-04-28_15h35.25.787,Boat,2022.1.1,60.08362438691684,
negative,neutral,1,j,l,,,,,,,,,6,15,123,3,,,,,,,,,,,,,,,,,,,,,,,,main,1,1,1,neutral,negative,l,l,1,0.897401299997,402.24396340000385,403.24700689999736,403.2283857000002,None,402.24396340000385,None,402.24396340000385,None,402.24396340000385,None,404.1275202800054,None,404.1275202800054,None,404.1275202800054,None,,,,,,,,,,,103,22,Female,2022-04-28_15h35.25.787,Boat,2022.1.1,60.08362438691684,
positive,neutral,1,l,j,,,,,,,,,6,16,124,8,,,,,,,,,,,,,,,,,,,,,,,,main,1,1,1,neutral,positive,j,j,1,0.9368781999946805,404.14304140000604,405.15695940000296,405.1182231999992,None,404.14304140000604,None,404.14304140000604,None,404.14304140000604,None,406.0683373800013,None,406.0683373800013,None,406.0683373800013,None,,,,,,,,,,,103,22,Female,2022-04-28_15h35.25.787,Boat,2022.1.1,60.08362438691684,
positive,negative,2,l,j,,,,,,,,,6,17,125,14,,,,,,,,,,,,,,,,,,,,,,,,main,1,1,2,negative,positive,j,j,1,0.8868198999989545,406.0844592000067,407.0903526000038,407.0708338999975,None,406.0844592000067,None,406.0844592000067,None,406.0844592000067,None,407.95680588000977,None,407.95680588000977,None,407.95680588000977,None,,,,,,,,,,,103,22,Female,2022-04-28_15h35.25.787,Boat,2022.1.1,60.08362438691684,
neutral,negative,1,k,k,,,,,,,,,7,0,126,7,,,,,,,,,,,,,,,,,,,,,,,,main,2,2,1,negative,neutral,k,k,1,0.9198464000073727,407.9740856999997,408.99007460000576,408.95123380000587,None,407.9740856999997,None,407.9740856999997,None,407.9740856999997,None,409.88090658000436,None,409.88090658000436,None,409.88090658000436,None,,,,,,,,,,,103,22,Female,2022-04-28_15h35.25.787,Boat,2022.1.1,60.08362438691684,
negative,neutral,1,j,l,,,,,,,,,7,1,127,3,,,,,,,,,,,,,,,,,,,,,,,,main,1,1,1,neutral,negative,l,l,1,0.9076455000031274,409.8962687000021,410.9014768000052,410.9014768000052,None,409.8962687000021,None,409.8962687000021,None,409.8962687000021,None,411.79022558000287,None,411.79022558000287,None,411.79022558000287,None,,,,,,,,,,,103,22,Female,2022-04-28_15h35.25.787,Boat,2022.1.1,60.08362438691684,
positive,neutral,1,l,j,,,,,,,,,7,2,128,8,,,,,,,,,,,,,,,,,,,,,,,,main,2,2,1,neutral,positive,j,j,1,0.8420474999875296,411.8078250000108,412.82012889999896,412.801043200001,None,411.8078250000108,None,411.8078250000108,None,411.8078250000108,None,413.63570817999715,None,413.63570817999715,None,413.63570817999715,None,,,,,,,,,,,103,22,Female,2022-04-28_15h35.25.787,Boat,2022.1.1,60.08362438691684,
neutral,neutral,2,k,k,,,,,,,,,7,3,129,10,,,,,,,,,,,,,,,,,,,,,,,,main,2,2,2,neutral,neutral,k,k,1,0.7492997999943327,413.65562710000086,414.6684582000016,414.6292795000045,None,413.65562710000086,None,413.65562710000086,None,413.65562710000086,None,415.3875730800093,None,415.3875730800093,None,415.3875730800093,None,,,,,,,,,,,103,22,Female,2022-04-28_15h35.25.787,Boat,2022.1.1,60.08362438691684,
neutral,positive,1,k,k,,,,,,,,,7,4,130,4,,,,,,,,,,,,,,,,,,,,,,,,main,1,1,1,positive,neutral,k,k,1,0.59979839999869,415.40428030000476,416.40722839999944,416.3877496000059,None,415.40428030000476,None,415.40428030000476,None,415.40428030000476,None,416.99057678001117,None,416.99057678001117,None,416.99057678001117,None,,,,,,,,,,,103,22,Female,2022-04-28_15h35.25.787,Boat,2022.1.1,60.08362438691684,
neutral,positive,2,k,k,,,,,,,,,7,5,131,13,,,,,,,,,,,,,,,,,,,,,,,,main,2,2,2,positive,neutral,k,k,1,0.6218995999952313,417.0061893000093,418.007351799999,417.9906447000103,None,417.0061893000093,None,417.0061893000093,None,417.0061893000093,None,418.6159296800062,None,418.6159296800062,None,418.6159296800062,None,,,,,,,,,,,103,22,Female,2022-04-28_15h35.25.787,Boat,2022.1.1,60.08362438691684,
negative,negative,2,j,l,,,,,,,,,7,6,132,9,,,,,,,,,,,,,,,,,,,,,,,,main,1,1,2,negative,negative,l,l,1,0.7249781999998959,418.6318853999983,419.6485876000079,419.6068052000046,None,418.6318853999983,None,418.6318853999983,None,418.6318853999983,None,420.3416365800105,None,420.3416365800105,None,420.3416365800105,None,,,,,,,,,,,103,22,Female,2022-04-28_15h35.25.787,Boat,2022.1.1,60.08362438691684,
positive,negative,1,l,j,,,,,,,,,7,7,133,5,,,,,,,,,,,,,,,,,,,,,,,,main,2,2,1,negative,positive,j,j,1,0.8124353000021074,420.35906909999903,421.3718845000112,421.35238599999866,None,420.35906909999903,None,420.35906909999903,None,420.35906909999903,None,422.1574956800061,None,422.1574956800061,None,422.1574956800061,None,,,,,,,,,,,103,22,Female,2022-04-28_15h35.25.787,Boat,2022.1.1,60.08362438691684,
negative,negative,1,j,l,,,,,,,,,7,8,134,0,,,,,,,,,,,,,,,,,,,,,,,,main,1,1,1,negative,negative,l,l,1,0.7215716999926371,422.1740406000026,423.1749115999992,423.1568905000022,None,422.1740406000026,None,422.1740406000026,None,422.1740406000026,None,423.8826245800039,None,423.8826245800039,None,423.8826245800039,None,,,,,,,,,,,103,22,Female,2022-04-28_15h35.25.787,Boat,2022.1.1,60.08362438691684,
negative,positive,1,j,l,,,,,,,,,7,9,135,6,,,,,,,,,,,,,,,,,,,,,,,,main,2,2,1,positive,negative,l,l,1,0.7307023000030313,423.9025926000031,424.9047672000015,424.8852337999997,None,423.9025926000031,None,423.9025926000031,None,423.9025926000031,None,425.6158059800102,None,425.6158059800102,None,425.6158059800102,None,,,,,,,,,,,103,22,Female,2022-04-28_15h35.25.787,Boat,2022.1.1,60.08362438691684,
negative,positive,2,j,l,,,,,,,,,7,10,136,15,,,,,,,,,,,,,,,,,,,,,,,,main,1,1,2,positive,negative,l,l,1,0.681663799987291,425.63319990001037,426.64039980000234,426.60690749999776,None,425.63319990001037,None,425.63319990001037,None,425.63319990001037,None,427.29567648000665,None,427.29567648000665,None,427.29567648000665,None,,,,,,,,,,,103,22,Female,2022-04-28_15h35.25.787,Boat,2022.1.1,60.08362438691684,
positive,positive,2,l,j,,,,,,,,,7,11,137,11,,,,,,,,,,,,,,,,,,,,,,,,main,1,1,2,positive,positive,j,j,1,0.9711485000007087,427.3152049000055,428.3235980000027,428.3060475000093,None,427.3152049000055,None,427.3152049000055,None,427.3152049000055,None,429.2738056800037,None,429.2738056800037,None,429.2738056800037,None,,,,,,,,,,,103,22,Female,2022-04-28_15h35.25.787,Boat,2022.1.1,60.08362438691684,
neutral,negative,2,k,k,,,,,,,,,7,12,138,16,,,,,,,,,,,,,,,,,,,,,,,,main,1,1,2,negative,neutral,k,k,1,0.8085824999870965,429.28965920000337,430.29080370000156,430.27370060000976,None,429.28965920000337,None,429.28965920000337,None,429.28965920000337,None,431.0856088800094,None,431.0856088800094,None,431.0856088800094,None,,,,,,,,,,,103,22,Female,2022-04-28_15h35.25.787,Boat,2022.1.1,60.08362438691684,
positive,negative,2,l,j,,,,,,,,,7,13,139,14,,,,,,,,,,,,,,,,,,,,,,,,main,2,2,2,negative,positive,j,j,1,0.6817688000010094,431.1027949999989,432.1152323999995,432.0738210999989,None,431.1027949999989,None,431.1027949999989,None,431.1027949999989,None,432.7693265800073,None,432.7693265800073,None,432.7693265800073,None,,,,,,,,,,,103,22,Female,2022-04-28_15h35.25.787,Boat,2022.1.1,60.08362438691684,
negative,neutral,2,j,l,,,,,,,,,7,14,140,12,,,,,,,,,,,,,,,,,,,,,,,,main,1,1,2,neutral,negative,l,l,1,0.7425680000014836,432.78883610000776,433.79246490000514,433.7755146999989,None,432.78883610000776,None,432.78883610000776,None,432.78883610000776,None,434.5169384799985,None,434.5169384799985,None,434.5169384799985,None,,,,,,,,,,,103,22,Female,2022-04-28_15h35.25.787,Boat,2022.1.1,60.08362438691684,
positive,positive,1,l,j,,,,,,,,,7,15,141,2,,,,,,,,,,,,,,,,,,,,,,,,main,1,1,1,positive,positive,j,j,1,0.7877891999960411,434.5357522999984,435.5521188999992,435.5048569000064,None,434.5357522999984,None,434.5357522999984,None,434.5357522999984,None,436.30719747999973,None,436.30719747999973,None,436.30719747999973,None,,,,,,,,,,,103,22,Female,2022-04-28_15h35.25.787,Boat,2022.1.1,60.08362438691684,
positive,neutral,2,l,j,,,,,,,,,7,16,142,17,,,,,,,,,,,,,,,,,,,,,,,,main,1,1,2,neutral,positive,j,j,1,0.778896599993459,436.3240291999973,437.3238604000071,437.3072641000035,None,436.3240291999973,None,436.3240291999973,None,436.3240291999973,None,438.09055368000116,None,438.09055368000116,None,438.09055368000116,None,,,,,,,,,,,103,22,Female,2022-04-28_15h35.25.787,Boat,2022.1.1,60.08362438691684,
neutral,neutral,1,k,k,,,,,,,,,7,17,143,1,,,,,,,,,,,,,,,,,,,,,,,,main,1,1,1,neutral,neutral,k,k,1,0.7226954999932786,438.1059748999978,439.1072761000105,439.09098380000796,None,438.1059748999978,None,438.1059748999978,None,438.1059748999978,None,439.8166491800104,None,439.8166491800104,None,439.8166491800104,None,,,,,,,,,,,103,22,Female,2022-04-28_15h35.25.787,Boat,2022.1.1,60.08362438691684,
positive,neutral,2,l,j,,,,,,,,,8,0,144,17,,,,,,,,,,,,,,,,,,,,,,,,main,1,1,2,neutral,positive,j,j,1,0.75887469999725,439.83234550000634,440.84050820000994,440.80734910001047,None,439.83234550000634,None,439.83234550000634,None,439.83234550000634,None,441.5765658800112,None,441.5765658800112,None,441.5765658800112,None,,,,,,,,,,,103,22,Female,2022-04-28_15h35.25.787,Boat,2022.1.1,60.08362438691684,
neutral,neutral,1,k,k,,,,,,,,,8,1,145,1,,,,,,,,,,,,,,,,,,,,,,,,main,1,1,1,neutral,neutral,k,k,1,0.8277472999907332,441.5926427000086,442.60786350000126,442.5687503000081,None,441.5926427000086,None,441.5926427000086,None,441.5926427000086,None,443.40741008000913,None,443.40741008000913,None,443.40741008000913,None,,,,,,,,,,,103,22,Female,2022-04-28_15h35.25.787,Boat,2022.1.1,60.08362438691684,
neutral,positive,1,k,k,,,,,,,,,8,2,146,4,,,,,,,,,,,,,,,,,,,,,,,,main,1,1,1,positive,neutral,k,k,1,0.6175099999964004,443.42402380000567,444.449111000009,444.40620769999805,None,443.42402380000567,None,443.42402380000567,None,443.42402380000567,None,445.0254001800087,None,445.0254001800087,None,445.0254001800087,None,,,,,,,,,,,103,22,Female,2022-04-28_15h35.25.787,Boat,2022.1.1,60.08362438691684,
positive,positive,2,l,j,,,,,,,,,8,3,147,11,,,,,,,,,,,,,,,,,,,,,,,,main,2,2,2,positive,positive,j,j,1,0.8214290999894729,445.0454227000009,446.05730369999947,446.0382869000023,None,445.0454227000009,None,445.0454227000009,None,445.0454227000009,None,446.8526655799971,None,446.8526655799971,None,446.8526655799971,None,,,,,,,,,,,103,22,Female,2022-04-28_15h35.25.787,Boat,2022.1.1,60.08362438691684,
positive,neutral,1,l,j,,,,,,,,,8,4,148,8,,,,,,,,,,,,,,,,,,,,,,,,main,2,2,1,neutral,positive,j,j,1,0.73547710001003,446.8724269000086,447.87452670000494,447.8550033000065,None,446.8724269000086,None,446.8724269000086,None,446.8724269000086,None,448.59077707999967,None,448.59077707999967,None,448.59077707999967,None,,,,,,,,,,,103,22,Female,2022-04-28_15h35.25.787,Boat,2022.1.1,60.08362438691684,
negative,neutral,2,j,l,,,,,,,,,8,5,149,12,,,,,,,,,,,,,,,,,,,,,,,,main,2,2,2,neutral,negative,l,l,1,0.788067499990575,448.60613800000283,449.607971800011,449.58850120000716,None,448.60613800000283,None,448.60613800000283,None,448.60613800000283,None,450.38215678000705,None,450.38215678000705,None,450.38215678000705,None,,,,,,,,,,,103,22,Female,2022-04-28_15h35.25.787,Boat,2022.1.1,60.08362438691684,
neutral,negative,1,k,k,,,,,,,,,8,6,150,7,,,,,,,,,,,,,,,,,,,,,,,,main,1,1,1,negative,neutral,k,k,1,0.7501936000044225,450.39789370000653,451.4076691000082,451.39102300000377,None,450.39789370000653,None,450.39789370000653,None,450.39789370000653,None,452.1350441800052,None,452.1350441800052,None,452.1350441800052,None,,,,,,,,,,,103,22,Female,2022-04-28_15h35.25.787,Boat,2022.1.1,60.08362438691684,
neutral,positive,2,k,k,,,,,,,,,8,7,151,13,,,,,,,,,,,,,,,,,,,,,,,,main,1,1,2,positive,neutral,k,k,1,0.6880480999971041,452.15045890001056,453.158022100004,453.1386426000099,None,452.15045890001056,None,452.15045890001056,None,452.15045890001056,None,453.82407528000766,None,453.82407528000766,None,453.82407528000766,None,,,,,,,,,,,103,22,Female,2022-04-28_15h35.25.787,Boat,2022.1.1,60.08362438691684,
negative,positive,1,j,l,,,,,,,,,8,8,152,6,,,,,,,,,,,,,,,,,,,,,,,,main,1,1,1,positive,negative,l,l,1,0.8727178999979515,453.84049240000604,454.842043800003,454.8247018999973,None,453.84049240000604,None,453.84049240000604,None,453.84049240000604,None,455.7005542800063,None,455.7005542800063,None,455.7005542800063,None,,,,,,,,,,,103,22,Female,2022-04-28_15h35.25.787,Boat,2022.1.1,60.08362438691684,
negative,neutral,1,j,l,,,,,,,,,8,9,153,3,,,,,,,,,,,,,,,,,,,,,,,,main,2,2,1,neutral,negative,l,l,1,0.6453946999972686,455.7192820000055,456.72185300001,456.70247400000517,None,455.7192820000055,None,455.7192820000055,None,455.7192820000055,None,457.3475886800035,None,457.3475886800035,None,457.3475886800035,None,,,,,,,,,,,103,22,Female,2022-04-28_15h35.25.787,Boat,2022.1.1,60.08362438691684,
positive,positive,1,l,j,,,,,,,,,8,10,154,2,,,,,,,,,,,,,,,,,,,,,,,,main,2,2,1,positive,positive,j,j,1,0.7791705999989063,457.3662563999969,458.37558400000853,458.3410664000112,None,457.3662563999969,None,457.3662563999969,None,457.3662563999969,None,459.1288454799971,None,459.1288454799971,None,459.1288454799971,None,,,,,,,,,,,103,22,Female,2022-04-28_15h35.25.787,Boat,2022.1.1,60.08362438691684,
negative,negative,1,j,l,,,,,,,,,8,11,155,0,,,,,,,,,,,,,,,,,,,,,,,,main,2,2,1,negative,negative,l,l,1,0.825775799996336,459.14458020000893,460.1577934000088,460.1192213000031,None,459.14458020000893,None,459.14458020000893,None,459.14458020000893,None,460.9578145800071,None,460.9578145800071,None,460.9578145800071,None,,,,,,,,,,,103,22,Female,2022-04-28_15h35.25.787,Boat,2022.1.1,60.08362438691684,
negative,positive,2,j,l,,,,,,,,,8,12,156,15,,,,,,,,,,,,,,,,,,,,,,,,main,2,2,2,positive,negative,l,l,1,0.7560561999998754,460.9752587000112,461.9902323999995,461.9704359000025,None,460.9752587000112,None,460.9752587000112,None,460.9752587000112,None,462.7176826800016,None,462.7176826800016,None,462.7176826800016,None,,,,,,,,,,,103,22,Female,2022-04-28_15h35.25.787,Boat,2022.1.1,60.08362438691684,
negative,negative,2,j,l,,,,,,,,,8,13,157,9,,,,,,,,,,,,,,,,,,,,,,,,main,1,1,2,negative,negative,l,l,1,0.7422223000030499,462.73482749999675,463.74150770000415,463.70831090000866,None,462.73482749999675,None,462.73482749999675,None,462.73482749999675,None,464.461260380008,None,464.461260380008,None,464.461260380008,None,,,,,,,,,,,103,22,Female,2022-04-28_15h35.25.787,Boat,2022.1.1,60.08362438691684,
positive,negative,2,l,j,,,,,,,,,8,14,158,14,,,,,,,,,,,,,,,,,,,,,,,,main,2,2,2,negative,positive,j,j,1,0.8919903000060003,464.47729809999873,465.49939370001084,465.4575282000005,None,464.47729809999873,None,464.47729809999873,None,464.47729809999873,None,466.3571316800109,None,466.3571316800109,None,466.3571316800109,None,,,,,,,,,,,103,22,Female,2022-04-28_15h35.25.787,Boat,2022.1.1,60.08362438691684,
neutral,negative,2,k,k,,,,,,,,,8,15,159,16,,,,,,,,,,,,,,,,,,,,,,,,main,1,1,2,negative,neutral,k,k,1,0.8263525000074878,466.37302260000433,467.3747594000015,467.3557288000011,None,466.37302260000433,None,466.37302260000433,None,466.37302260000433,None,468.1863698800036,None,468.1863698800036,None,468.1863698800036,None,,,,,,,,,,,103,22,Female,2022-04-28_15h35.25.787,Boat,2022.1.1,60.08362438691684,
positive,negative,1,l,j,,,,,,,,,8,16,160,5,,,,,,,,,,,,,,,,,,,,,,,,main,1,1,1,negative,positive,j,j,1,0.9021751999971457,468.20639720000327,469.22343920001003,469.2027487000014,None,468.20639720000327,None,468.20639720000327,None,468.20639720000327,None,470.0917518800008,None,470.0917518800008,None,470.0917518800008,None,,,,,,,,,,,103,22,Female,2022-04-28_15h35.25.787,Boat,2022.1.1,60.08362438691684,
neutral,neutral,2,k,k,,,,,,,,,8,17,161,10,,,,,,,,,,,,,,,,,,,,,,,,main,2,2,2,neutral,neutral,k,k,1,0.7835504999966361,470.10897440000554,471.1249936000095,471.08602899999823,None,470.10897440000554,None,470.10897440000554,None,470.10897440000554,None,471.8756190800079,None,471.8756190800079,None,471.8756190800079,None,,,,,,,,,,,103,22,Female,2022-04-28_15h35.25.787,Boat,2022.1.1,60.08362438691684,
positive,neutral,1,l,j,,,,,,,,,9,0,162,8,,,,,,,,,,,,,,,,,,,,,,,,main,2,2,1,neutral,positive,j,j,1,0.8654780999931972,471.8936953000084,472.9164146999974,472.869594600008,None,471.8936953000084,None,471.8936953000084,None,471.8936953000084,None,473.74512028000316,None,473.74512028000316,None,473.74512028000316,None,,,,,,,,,,,103,22,Female,2022-04-28_15h35.25.787,Boat,2022.1.1,60.08362438691684,
negative,negative,2,j,l,,,,,,,,,9,1,163,9,,,,,,,,,,,,,,,,,,,,,,,,main,2,2,2,negative,negative,l,l,1,0.8276775999984238,473.761367900006,474.78689850000956,474.7403003000072,None,473.761367900006,None,473.761367900006,None,473.761367900006,None,475.57606737999885,None,475.57606737999885,None,475.57606737999885,None,,,,,,,,,,,103,22,Female,2022-04-28_15h35.25.787,Boat,2022.1.1,60.08362438691684,
neutral,negative,1,k,k,,,,,,,,,9,2,164,7,,,,,,,,,,,,,,,,,,,,,,,,main,1,1,1,negative,neutral,k,k,1,0.7332529999985127,475.5926526000112,476.61959690001095,476.5732919000002,None,475.5926526000112,None,475.5926526000112,None,475.5926526000112,None,477.3113660800038,None,477.3113660800038,None,477.3113660800038,None,,,,,,,,,,,103,22,Female,2022-04-28_15h35.25.787,Boat,2022.1.1,60.08362438691684,
positive,positive,1,l,j,,,,,,,,,9,3,165,2,,,,,,,,,,,,,,,,,,,,,,,,main,1,1,1,positive,positive,j,j,1,0.8166083000105573,477.3268570000073,478.3414424000075,478.3059205000027,None,477.3268570000073,None,477.3268570000073,None,477.3268570000073,None,479.13036138000024,None,479.13036138000024,None,479.13036138000024,None,,,,,,,,,,,103,22,Female,2022-04-28_15h35.25.787,Boat,2022.1.1,60.08362438691684,
positive,positive,2,l,j,,,,,,,,,9,4,166,11,,,,,,,,,,,,,,,,,,,,,,,,main,2,2,2,positive,positive,j,j,1,0.8470244000054663,479.1465595000045,480.1662451000011,480.11966130000656,None,479.1465595000045,None,479.1465595000045,None,479.1465595000045,None,480.97934917999663,None,480.97934917999663,None,480.97934917999663,None,,,,,,,,,,,103,22,Female,2022-04-28_15h35.25.787,Boat,2022.1.1,60.08362438691684,
positive,negative,2,l,j,,,,,,,,,9,5,167,14,,,,,,,,,,,,,,,,,,,,,,,,main,2,2,2,negative,positive,j,j,1,0.7522351000079652,480.9962366000109,482.00851080000575,481.9696525000036,None,480.9962366000109,None,480.9962366000109,None,480.9962366000109,None,482.735828580003,None,482.735828580003,None,482.735828580003,None,,,,,,,,,,,103,22,Female,2022-04-28_15h35.25.787,Boat,2022.1.1,60.08362438691684,
neutral,negative,2,k,k,,,,,,,,,9,6,168,16,,,,,,,,,,,,,,,,,,,,,,,,main,1,1,2,negative,neutral,k,k,1,0.7232444999972358,482.755012900001,483.7600516000093,483.7247197000106,None,482.755012900001,None,482.755012900001,None,482.755012900001,None,484.4598395800014,None,484.4598395800014,None,484.4598395800014,None,,,,,,,,,,,103,22,Female,2022-04-28_15h35.25.787,Boat,2022.1.1,60.08362438691684,
negative,positive,2,j,l,,,,,,,,,9,7,169,15,,,,,,,,,,,,,,,,,,,,,,,,main,2,2,2,positive,negative,l,l,1,1.0155000999948243,484.477948300002,485.4932201000047,485.4587578000064,None,484.477948300002,None,484.477948300002,None,484.477948300002,None,486.47795067999976,None,486.47795067999976,None,486.47795067999976,None,,,,,,,,,,,103,22,Female,2022-04-28_15h35.25.787,Boat,2022.1.1,60.08362438691684,
neutral,neutral,1,k,k,,,,,,,,,9,8,170,1,,,,,,,,,,,,,,,,,,,,,,,,main,2,2,1,neutral,neutral,k,k,1,0.7371349999884842,486.494617999997,487.49517039999773,487.4779758000077,None,486.494617999997,None,486.494617999997,None,486.494617999997,None,488.219044080007,None,488.219044080007,None,488.219044080007,None,,,,,,,,,,,103,22,Female,2022-04-28_15h35.25.787,Boat,2022.1.1,60.08362438691684,
neutral,positive,2,k,k,,,,,,,,,9,9,171,13,,,,,,,,,,,,,,,,,,,,,,,,main,2,2,2,positive,neutral,k,k,1,1.0098351999913575,488.2374731000018,489.24569650000194,489.2104842999979,None,488.2374731000018,None,488.2374731000018,None,488.2374731000018,None,490.22989428,None,490.22989428,None,490.22989428,None,,,,,,,,,,,103,22,Female,2022-04-28_15h35.25.787,Boat,2022.1.1,60.08362438691684,
negative,positive,1,j,l,,,,,,,,,9,10,172,6,,,,,,,,,,,,,,,,,,,,,,,,main,1,1,1,positive,negative,l,l,1,1.1276544000138529,490.24678210000275,491.25329249999777,491.233713300011,None,490.24678210000275,None,490.24678210000275,None,490.24678210000275,None,492.36034698000293,None,492.36034698000293,None,492.36034698000293,None,,,,,,,,,,,103,22,Female,2022-04-28_15h35.25.787,Boat,2022.1.1,60.08362438691684,
negative,neutral,2,j,l,,,,,,,,,9,11,173,12,,,,,,,,,,,,,,,,,,,,,,,,main,1,1,2,neutral,negative,l,l,1,0.8877084999985527,492.37655800000357,493.40030500000285,493.3588879000017,None,492.37655800000357,None,492.37655800000357,None,492.37655800000357,None,494.2519435800088,None,494.2519435800088,None,494.2519435800088,None,,,,,,,,,,,103,22,Female,2022-04-28_15h35.25.787,Boat,2022.1.1,60.08362438691684,
positive,neutral,2,l,j,,,,,,,,,9,12,174,17,,,,,,,,,,,,,,,,,,,,,,,,main,1,1,2,neutral,positive,j,j,1,0.9846067000034964,494.26814320000994,495.2912406000105,495.247431900003,None,494.26814320000994,None,494.26814320000994,None,494.26814320000994,None,496.2386138800095,None,496.2386138800095,None,496.2386138800095,None,,,,,,,,,,,103,22,Female,2022-04-28_15h35.25.787,Boat,2022.1.1,60.08362438691684,
negative,negative,1,j,l,,,,,,,,,9,13,175,0,,,,,,,,,,,,,,,,,,,,,,,,main,2,2,1,negative,negative,l,l,1,0.8395008000079542,496.2560705000069,497.2587957000069,497.24181540000427,None,496.2560705000069,None,496.2560705000069,None,496.2560705000069,None,498.0802523799968,None,498.0802523799968,None,498.0802523799968,None,,,,,,,,,,,103,22,Female,2022-04-28_15h35.25.787,Boat,2022.1.1,60.08362438691684,
neutral,positive,1,k,k,,,,,,,,,9,14,176,4,,,,,,,,,,,,,,,,,,,,,,,,main,2,2,1,positive,neutral,k,k,1,0.7979526000126498,498.0970526000019,499.1030888000096,499.08371560000523,None,498.0970526000019,None,498.0970526000019,None,498.0970526000019,None,499.8802784800093,None,499.8802784800093,None,499.8802784800093,None,,,,,,,,,,,103,22,Female,2022-04-28_15h35.25.787,Boat,2022.1.1,60.08362438691684,
negative,neutral,1,j,l,,,,,,,,,9,15,177,3,,,,,,,,,,,,,,,,,,,,,,,,main,2,2,1,neutral,negative,l,l,1,0.7553130000014789,499.89619720001065,500.90830000001006,500.8749400000088,None,499.89619720001065,None,499.89619720001065,None,499.89619720001065,None,501.6392927800072,None,501.6392927800072,None,501.6392927800072,None,,,,,,,,,,,103,22,Female,2022-04-28_15h35.25.787,Boat,2022.1.1,60.08362438691684,
positive,negative,1,l,j,,,,,,,,,9,16,178,5,,,,,,,,,,,,,,,,,,,,,,,,main,2,2,1,negative,positive,j,j,1,0.8412835000053747,501.6573828999972,502.6602019999991,502.6419762000005,None,501.6573828999972,None,501.6573828999972,None,501.6573828999972,None,503.4835867800022,None,503.4835867800022,None,503.4835867800022,None,,,,,,,,,,,103,22,Female,2022-04-28_15h35.25.787,Boat,2022.1.1,60.08362438691684,
neutral,neutral,2,k,k,,,,,,,,,9,17,179,10,,,,,,,,,,,,,,,,,,,,,,,,main,2,2,2,neutral,neutral,k,k,1,0.740832199997385,503.50481549999677,504.5250878000079,504.4868865000026,None,503.50481549999677,None,503.50481549999677,None,503.50481549999677,None,505.2267911800038,None,505.2267911800038,None,505.2267911800038,None,,,,,,,,,,,103,22,Female,2022-04-28_15h35.25.787,Boat,2022.1.1,60.08362438691684,
positive,neutral,2,l,j,,,,,,,,,10,0,180,17,,,,,,,,,,,,,,,,,,,,,,,,main,1,1,2,neutral,positive,j,j,1,0.8406571000086842,505.24377410000307,506.2584646000032,506.22439139999915,None,505.24377410000307,None,505.24377410000307,None,505.24377410000307,None,507.0725225800008,None,507.0725225800008,None,507.0725225800008,None,,,,,,,,,,,103,22,Female,2022-04-28_15h35.25.787,Boat,2022.1.1,60.08362438691684,
positive,positive,2,l,j,,,,,,,,,10,1,181,11,,,,,,,,,,,,,,,,,,,,,,,,main,2,2,2,positive,positive,j,j,1,0.7012136000121245,507.0883509999985,508.091929000002,508.07523480000964,None,507.0883509999985,None,507.0883509999985,None,507.0883509999985,None,508.7755159800028,None,508.7755159800028,None,508.7755159800028,None,,,,,,,,,,,103,22,Female,2022-04-28_15h35.25.787,Boat,2022.1.1,60.08362438691684,
negative,negative,2,j,l,,,,,,,,,10,2,182,9,,,,,,,,,,,,,,,,,,,,,,,,main,1,1,2,negative,negative,l,l,1,0.8509921999939252,508.7915445000108,509.79338430000644,509.77562830000534,None,508.7915445000108,None,508.7915445000108,None,508.7915445000108,None,510.6283996800077,None,510.6283996800077,None,510.6283996800077,None,,,,,,,,,,,103,22,Female,2022-04-28_15h35.25.787,Boat,2022.1.1,60.08362438691684,
negative,positive,1,j,l,,,,,,,,,10,3,183,6,,,,,,,,,,,,,,,,,,,,,,,,main,1,1,1,positive,negative,l,l,1,0.7914903999917442,510.64483270001074,511.6588117000065,511.6229275000078,None,510.64483270001074,None,510.64483270001074,None,510.64483270001074,None,512.4238234800025,None,512.4238234800025,None,512.4238234800025,None,,,,,,,,,,,103,22,Female,2022-04-28_15h35.25.787,Boat,2022.1.1,60.08362438691684,
negative,neutral,1,j,l,,,,,,,,,10,4,184,3,,,,,,,,,,,,,,,,,,,,,,,,main,2,2,1,neutral,negative,l,l,1,0.7186144000006607,512.4409792000079,513.4593323000008,513.4201788000064,None,512.4409792000079,None,512.4409792000079,None,512.4409792000079,None,514.1443493800064,None,514.1443493800064,None,514.1443493800064,None,,,,,,,,,,,103,22,Female,2022-04-28_15h35.25.787,Boat,2022.1.1,60.08362438691684,
negative,neutral,2,j,l,,,,,,,,,10,5,185,12,,,,,,,,,,,,,,,,,,,,,,,,main,2,2,2,neutral,negative,l,l,1,0.5864029999938793,514.1609929999977,515.1701028000098,515.1501917999994,None,514.1609929999977,None,514.1609929999977,None,514.1609929999977,None,515.7347357800056,None,515.7347357800056,None,515.7347357800056,None,,,,,,,,,,,103,22,Female,2022-04-28_15h35.25.787,Boat,2022.1.1,60.08362438691684,
neutral,negative,1,k,k,,,,,,,,,10,6,186,7,,,,,,,,,,,,,,,,,,,,,,,,main,2,2,1,negative,neutral,k,k,1,0.7554617999994662,515.7531480000034,516.7669016,516.7256326000061,None,515.7531480000034,None,515.7531480000034,None,515.7531480000034,None,517.4924667800108,None,517.4924667800108,None,517.4924667800108,None,,,,,,,,,,,103,22,Female,2022-04-28_15h35.25.787,Boat,2022.1.1,60.08362438691684,
negative,positive,2,j,l,,,,,,,,,10,7,187,15,,,,,,,,,,,,,,,,,,,,,,,,main,1,1,2,positive,negative,l,l,1,0.9545569000038086,517.5081100000098,518.5089823000017,518.4926559000014,None,517.5081100000098,None,517.5081100000098,None,517.5081100000098,None,519.4504696800025,None,519.4504696800025,None,519.4504696800025,None,,,,,,,,,,,103,22,Female,2022-04-28_15h35.25.787,Boat,2022.1.1,60.08362438691684,
negative,negative,1,j,l,,,,,,,,,10,8,188,0,,,,,,,,,,,,,,,,,,,,,,,,main,2,2,1,negative,negative,l,l,1,0.7478671999997459,519.4698493000033,520.4767086000065,520.4595040999993,None,519.4698493000033,None,519.4698493000033,None,519.4698493000033,None,521.2005919800024,None,521.2005919800024,None,521.2005919800024,None,,,,,,,,,,,103,22,Female,2022-04-28_15h35.25.787,Boat,2022.1.1,60.08362438691684,
neutral,neutral,1,k,k,,,,,,,,,10,9,189,1,,,,,,,,,,,,,,,,,,,,,,,,main,1,1,1,neutral,neutral,k,k,1,0.6713713000062853,521.2189196999971,522.2228516000032,522.2034157000016,None,521.2189196999971,None,521.2189196999971,None,521.2189196999971,None,522.8758764800034,None,522.8758764800034,None,522.8758764800034,None,,,,,,,,,,,103,22,Female,2022-04-28_15h35.25.787,Boat,2022.1.1,60.08362438691684,
neutral,positive,2,k,k,,,,,,,,,10,10,190,13,,,,,,,,,,,,,,,,,,,,,,,,main,2,2,2,positive,neutral,k,k,1,0.6117463000118732,522.8930312000011,523.9091954000032,523.8705785000056,None,522.8930312000011,None,522.8930312000011,None,522.8930312000011,None,524.4904258799972,None,524.4904258799972,None,524.4904258799972,None,,,,,,,,,,,103,22,Female,2022-04-28_15h35.25.787,Boat,2022.1.1,60.08362438691684,
neutral,negative,2,k,k,,,,,,,,,10,11,191,16,,,,,,,,,,,,,,,,,,,,,,,,main,1,1,2,negative,neutral,k,k,1,0.702749500007485,524.5069215000112,525.511318600009,525.493961900007,None,524.5069215000112,None,524.5069215000112,None,524.5069215000112,None,526.195187780005,None,526.195187780005,None,526.195187780005,None,,,,,,,,,,,103,22,Female,2022-04-28_15h35.25.787,Boat,2022.1.1,60.08362438691684,
neutral,neutral,2,k,k,,,,,,,,,10,12,192,10,,,,,,,,,,,,,,,,,,,,,,,,main,2,2,2,neutral,neutral,k,k,1,0.6147984999988694,526.2114182000078,527.2272176999977,527.192454700009,None,526.2114182000078,None,526.2114182000078,None,526.2114182000078,None,527.8120294800058,None,527.8120294800058,None,527.8120294800058,None,,,,,,,,,,,103,22,Female,2022-04-28_15h35.25.787,Boat,2022.1.1,60.08362438691684,
positive,positive,1,l,j,,,,,,,,,10,13,193,2,,,,,,,,,,,,,,,,,,,,,,,,main,1,1,1,positive,positive,j,j,1,0.8818294999946374,527.828714800009,528.8505683999974,528.8093673999974,None,527.828714800009,None,527.828714800009,None,527.828714800009,None,529.697424280009,None,529.697424280009,None,529.697424280009,None,,,,,,,,,,,103,22,Female,2022-04-28_15h35.25.787,Boat,2022.1.1,60.08362438691684,
positive,negative,2,l,j,,,,,,,,,10,14,194,14,,,,,,,,,,,,,,,,,,,,,,,,main,2,2,2,negative,positive,j,j,1,0.8607956000050763,529.713115400009,530.7255361999996,530.6906397999992,None,529.713115400009,None,529.713115400009,None,529.713115400009,None,531.5597900800087,None,531.5597900800087,None,531.5597900800087,None,,,,,,,,,,,103,22,Female,2022-04-28_15h35.25.787,Boat,2022.1.1,60.08362438691684,
positive,negative,1,l,j,,,,,,,,,10,15,195,5,,,,,,,,,,,,,,,,,,,,,,,,main,1,1,1,negative,positive,j,j,1,0.7692155000113416,531.5786805000098,532.5872729999974,532.5674926000065,None,531.5786805000098,None,531.5786805000098,None,531.5786805000098,None,533.3342591800058,None,533.3342591800058,None,533.3342591800058,None,,,,,,,,,,,103,22,Female,2022-04-28_15h35.25.787,Boat,2022.1.1,60.08362438691684,
neutral,positive,1,k,k,,,,,,,,,10,16,196,4,,,,,,,,,,,,,,,,,,,,,,,,main,2,2,1,positive,neutral,k,k,1,0.6590249000000767,533.3526053000096,534.3575708999997,534.3375873000041,None,533.3526053000096,None,533.3526053000096,None,533.3526053000096,None,534.9942251799978,None,534.9942251799978,None,534.9942251799978,None,,,,,,,,,,,103,22,Female,2022-04-28_15h35.25.787,Boat,2022.1.1,60.08362438691684,
positive,neutral,1,l,j,,,,,,,,,10,17,197,8,,,,,,,,,,,,,,,,,,,,,,,,main,1,1,1,neutral,positive,j,j,1,0.9154894000093918,535.011591100003,536.0206965999969,536.0012647000112,None,535.011591100003,None,535.011591100003,None,535.011591100003,None,536.9130088800041,None,536.9130088800041,None,536.9130088800041,None,,,,,,,,,,,103,22,Female,2022-04-28_15h35.25.787,Boat,2022.1.1,60.08362438691684,
negative,negative,2,j,l,,,,,,,,,11,0,198,9,,,,,,,,,,,,,,,,,,,,,,,,main,2,2,2,negative,negative,l,l,1,0.9760507000028156,536.9293762000016,537.9445095999981,537.9107172000076,None,536.9293762000016,None,536.9293762000016,None,536.9293762000016,None,538.8926856799983,None,538.8926856799983,None,538.8926856799983,None,,,,,,,,,,,103,22,Female,2022-04-28_15h35.25.787,Boat,2022.1.1,60.08362438691684,
positive,negative,2,l,j,,,,,,,,,11,1,199,14,,,,,,,,,,,,,,,,,,,,,,,,main,2,2,2,negative,positive,j,j,1,1.1458364999998594,538.9092895000067,539.9257973000058,539.8873236000072,None,538.9092895000067,None,538.9092895000067,None,538.9092895000067,None,541.0429077800102,None,541.0429077800102,None,541.0429077800102,None,,,,,,,,,,,103,22,Female,2022-04-28_15h35.25.787,Boat,2022.1.1,60.08362438691684,
positive,positive,2,l,j,,,,,,,,,11,2,200,11,,,,,,,,,,,,,,,,,,,,,,,,main,1,1,2,positive,positive,j,j,1,0.8877837999898475,541.0583591000031,542.059616700004,542.0429917000001,None,541.0583591000031,None,541.0583591000031,None,541.0583591000031,None,542.9333866800037,None,542.9333866800037,None,542.9333866800037,None,,,,,,,,,,,103,22,Female,2022-04-28_15h35.25.787,Boat,2022.1.1,60.08362438691684,
positive,neutral,2,l,j,,,,,,,,,11,3,201,17,,,,,,,,,,,,,,,,,,,,,,,,main,1,1,2,neutral,positive,j,j,1,0.7835772999969777,542.9484164000023,543.9564351000008,543.9372522000049,None,542.9484164000023,None,542.9484164000023,None,542.9484164000023,None,544.7197620800027,None,544.7197620800027,None,544.7197620800027,None,,,,,,,,,,,103,22,Female,2022-04-28_15h35.25.787,Boat,2022.1.1,60.08362438691684,
negative,neutral,2,j,l,,,,,,,,,11,4,202,12,,,,,,,,,,,,,,,,,,,,,,,,main,2,2,2,neutral,negative,l,l,1,0.8716554999991786,544.7379017000058,545.7587903000094,545.7177607000049,None,544.7379017000058,None,544.7379017000058,None,544.7379017000058,None,546.5931713799976,None,546.5931713799976,None,546.5931713799976,None,,,,,,,,,,,103,22,Female,2022-04-28_15h35.25.787,Boat,2022.1.1,60.08362438691684,
negative,positive,2,j,l,,,,,,,,,11,5,203,15,,,,,,,,,,,,,,,,,,,,,,,,main,1,1,2,positive,negative,l,l,1,1.064256400000886,546.6077942999982,547.6097888000077,547.5927128000039,None,546.6077942999982,None,546.6077942999982,None,546.6077942999982,None,548.6593031800032,None,548.6593031800032,None,548.6593031800032,None,,,,,,,,,,,103,22,Female,2022-04-28_15h35.25.787,Boat,2022.1.1,60.08362438691684,
neutral,positive,1,k,k,,,,,,,,,11,6,204,4,,,,,,,,,,,,,,,,,,,,,,,,main,1,1,1,positive,neutral,k,k,1,0.8357045000011567,548.677451800002,549.6943176000059,549.6587161000061,None,548.677451800002,None,548.677451800002,None,548.677451800002,None,550.4975782800059,None,550.4975782800059,None,550.4975782800059,None,,,,,,,,,,,103,22,Female,2022-04-28_15h35.25.787,Boat,2022.1.1,60.08362438691684,
neutral,neutral,1,k,k,,,,,,,,,11,7,205,1,,,,,,,,,,,,,,,,,,,,,,,,main,2,2,1,neutral,neutral,k,k,1,0.7290051000018138,550.5143669000099,551.5344469999982,551.4927504000079,None,550.5143669000099,None,550.5143669000099,None,550.5143669000099,None,552.2295280800056,None,552.2295280800056,None,552.2295280800056,None,,,,,,,,,,,103,22,Female,2022-04-28_15h35.25.787,Boat,2022.1.1,60.08362438691684,
neutral,neutral,2,k,k,,,,,,,,,11,8,206,10,,,,,,,,,,,,,,,,,,,,,,,,main,1,1,2,neutral,neutral,k,k,1,0.6886667999933707,552.2447121000005,553.2588376000058,553.2390219000081,None,552.2447121000005,None,552.2447121000005,None,552.2447121000005,None,553.9217341799988,None,553.9217341799988,None,553.9217341799988,None,,,,,,,,,,,103,22,Female,2022-04-28_15h35.25.787,Boat,2022.1.1,60.08362438691684,
negative,negative,1,j,l,,,,,,,,,11,9,207,0,,,,,,,,,,,,,,,,,,,,,,,,main,1,1,1,negative,negative,l,l,1,0.7888195000123233,553.9415643000102,554.9444632000086,554.9094832999981,None,553.9415643000102,None,553.9415643000102,None,553.9415643000102,None,555.7122248800035,None,555.7122248800035,None,555.7122248800035,None,,,,,,,,,,,103,22,Female,2022-04-28_15h35.25.787,Boat,2022.1.1,60.08362438691684,
neutral,positive,2,k,k,,,,,,,,,11,10,208,13,,,,,,,,,,,,,,,,,,,,,,,,main,1,1,2,positive,neutral,k,k,1,0.7684902000037255,555.7282757000066,556.7430834999977,556.7059346000024,None,555.7282757000066,None,555.7282757000066,None,555.7282757000066,None,557.4833992800006,None,557.4833992800006,None,557.4833992800006,None,,,,,,,,,,,103,22,Female,2022-04-28_15h35.25.787,Boat,2022.1.1,60.08362438691684,
