target,distractor,set,ans1,ans2,rep_loop2.thisRepN,rep_loop2.thisTrialN,rep_loop2.thisN,rep_loop2.thisIndex,flanker_prac_loop.thisRepN,flanker_prac_loop.thisTrialN,flanker_prac_loop.thisN,flanker_prac_loop.thisIndex,flanker_main_loop.thisRepN,flanker_main_loop.thisTrialN,flanker_main_loop.thisN,flanker_main_loop.thisIndex,fl_inst_resp.keys,mouse.x,mouse.y,mouse.leftButton,mouse.midButton,mouse.rightButton,mouse.started,mouse.stopped,sound_1.started,sound_1.stopped,no_text.started,no_text.stopped,yes_text.started,yes_text.stopped,mouse_2.x,mouse_2.y,mouse_2.leftButton,mouse_2.midButton,mouse_2.rightButton,mouse_2.started,mouse_2.stopped,mouse_2.clicked_name,back_2.started,back_2.stopped,main_prac,fl_cold,fl_colt,fl_set,fl_dcond,fl_tcond,fl_ans,fl_res,fl_corr,fl_rt,fix_fl.started,fix_fl.stopped,targ.started,targ.stopped,j_button.started,j_button.stopped,k_button.started,k_button.stopped,l_button.started,l_button.stopped,j_button2.started,j_button2.stopped,k_button2.started,k_button2.stopped,l_button2.started,l_button2.stopped,mainback.started,mainback.stopped,key_resp.keys,mouse_6.x,mouse_6.y,mouse_6.leftButton,mouse_6.midButton,mouse_6.rightButton,mouse_6.started,mouse_6.stopped,id*,age*,gender*,date,expName,psychopyVersion,frameRate,
,,,,,0,0,0,0,,,,,,,,,None,-0.094444446,0.05648148,0,0,0,1.0313958994229324,None,33.64710619999678,None,34.632268199988175,None,34.632268199988175,None,0.031481482,-0.04074074,0,0,0,0.012164999992819503,None,,,,,,,,,,,,,,,,,,,,,,,,,,,,,,,,,,,,,,,,104,22,Male,2022-04-29_14h04.38.596,Boat,2022.1.1,60.11157911953208,
,,,,,1,0,1,0,,,,,,,,,None,0.08240741,-0.05740741,0,0,0,None,None,None,None,36.03053839999484,None,36.03053839999484,None,0.08425926,-0.058333334,0,0,0,0.013617599994176999,None,,,,,,,,,,,,,,,,,,,,,,,,,,,,,,,,,,,,,,,,104,22,Male,2022-04-29_14h04.38.596,Boat,2022.1.1,60.11157911953208,
,,,,,2,0,2,0,,,,,,,,,None,0.08425926,-0.06666667,0,0,0,None,None,None,None,37.14691159999347,None,37.14691159999347,None,0.08425926,-0.06759259,1,0,0,0.013440899987472221,None,no_area,,,,,,,,,,,,,,,,,,,,,,,,,,,,,,,,,,,,,,,104,22,Male,2022-04-29_14h04.38.596,Boat,2022.1.1,60.11157911953208,
,,,,,3,0,3,0,,,,,,,,,None,0.41203704,-0.29444444,0,0,0,1.0088403999980073,None,38.730697500001405,None,90.13176709998515,None,90.13176709998515,None,-0.07962963,-0.09351852,0,0,0,0.01383959996746853,None,,,,,,,,,,,,,,,,,,,,,,,,,,,,,,,,,,,,,,,,104,22,Male,2022-04-29_14h04.38.596,Boat,2022.1.1,60.11157911953208,
neutral,negative,2,k,k,,,,,0,0,0,16,,,,,,,,,,,,,,,,,,,,,,,,,,,93.93209069999284,None,prac,2,2,2,negative,neutral,k,k,1,1.5340846999897622,95.96882680000272,96.98746380000375,96.94841280000401,None,95.96882680000272,None,95.96882680000272,None,95.96882680000272,None,98.49725059999037,None,98.49725059999037,None,98.49725059999037,None,,,,,,,,,,,104,22,Male,2022-04-29_14h04.38.596,Boat,2022.1.1,60.11157911953208,
negative,positive,1,j,l,,,,,0,1,1,6,,,,,,,,,,,,,,,,,,,,,,,,,,,,,prac,1,1,1,positive,negative,j,j,1,1.2788899000152014,99.50885189999826,100.52082649999647,100.50084299998707,None,99.50885189999826,None,99.50885189999826,None,99.50885189999826,None,101.77148119998165,None,101.77148119998165,None,101.77148119998165,None,,,,,,,,,,,104,22,Male,2022-04-29_14h04.38.596,Boat,2022.1.1,60.11157911953208,
positive,negative,1,l,j,,,,,0,2,2,5,,,,,,,,,,,,,,,,,,,,,,,,,,,,,prac,2,2,1,negative,positive,l,l,1,0.9983693999820389,101.79944040000555,102.80103020000388,102.78180179998162,None,101.79944040000555,None,101.79944040000555,None,101.79944040000555,None,103.77266459999956,None,103.77266459999956,None,103.77266459999956,None,,,,,,,,,,,104,22,Male,2022-04-29_14h04.38.596,Boat,2022.1.1,60.11157911953208,
positive,neutral,1,l,j,,,,,0,3,3,8,,,,,,,,,,,,,,,,,,,,,,,,,,,,,prac,2,2,1,neutral,positive,l,l,1,0.9183186000154819,103.79113239998696,104.81215630000224,104.77020820000325,None,103.79113239998696,None,103.79113239998696,None,103.79113239998696,None,105.69457999998704,None,105.69457999998704,None,105.69457999998704,None,,,,,,,,,,,104,22,Male,2022-04-29_14h04.38.596,Boat,2022.1.1,60.11157911953208,
positive,positive,2,l,j,,,,,0,4,4,11,,,,,,,,,,,,,,,,,,,,,,,,,,,,,prac,1,1,2,positive,positive,l,l,1,0.78565659999731,105.71878219998325,106.73575799999526,106.71521850000136,None,105.71878219998325,None,105.71878219998325,None,105.71878219998325,None,107.48258230000502,None,107.48258230000502,None,107.48258230000502,None,,,,,,,,,,,104,22,Male,2022-04-29_14h04.38.596,Boat,2022.1.1,60.11157911953208,
negative,positive,2,j,l,,,,,0,5,5,15,,,,,,,,,,,,,,,,,,,,,,,,,,,,,prac,1,1,2,positive,negative,j,j,1,0.9005250000045635,107.50689269998111,108.52264300000388,108.48829949999345,None,107.50689269998111,None,107.50689269998111,None,107.50689269998111,None,109.38509869998089,None,109.38509869998089,None,109.38509869998089,None,,,,,,,,,,,104,22,Male,2022-04-29_14h04.38.596,Boat,2022.1.1,60.11157911953208,
neutral,negative,1,k,k,,,,,0,6,6,7,,,,,,,,,,,,,,,,,,,,,,,,,,,,,prac,2,2,1,negative,neutral,k,k,1,0.8092705000017304,109.403141399991,110.41205290000653,110.37094849999994,None,109.403141399991,None,109.403141399991,None,109.403141399991,None,111.19640479999944,None,111.19640479999944,None,111.19640479999944,None,,,,,,,,,,,104,22,Male,2022-04-29_14h04.38.596,Boat,2022.1.1,60.11157911953208,
negative,negative,2,j,l,,,,,0,7,7,9,,,,,,,,,,,,,,,,,,,,,,,,,,,,,prac,1,1,2,negative,negative,j,j,1,0.8941259999992326,111.2189804999798,112.22881609998876,112.20386049998342,None,111.2189804999798,None,111.2189804999798,None,111.2189804999798,None,113.09155429999228,None,113.09155429999228,None,113.09155429999228,None,,,,,,,,,,,104,22,Male,2022-04-29_14h04.38.596,Boat,2022.1.1,60.11157911953208,
positive,positive,1,l,j,,,,,0,8,8,2,,,,,,,,,,,,,,,,,,,,,,,,,,,,,prac,1,1,1,positive,positive,l,l,1,0.8011423000134528,113.10814149997896,114.115121299983,114.09552339999937,None,113.10814149997896,None,113.10814149997896,None,113.10814149997896,None,114.89724629998673,None,114.89724629998673,None,114.89724629998673,None,,,,,,,,,,,104,22,Male,2022-04-29_14h04.38.596,Boat,2022.1.1,60.11157911953208,
neutral,positive,1,k,k,,,,,0,9,9,4,,,,,,,,,,,,,,,,,,,,,,,,,,,,,prac,2,2,1,positive,neutral,k,k,1,0.711830899992492,114.91935119999107,115.92083200000343,115.90363289997913,None,114.91935119999107,None,114.91935119999107,None,114.91935119999107,None,116.61148939998239,None,116.61148939998239,None,116.61148939998239,None,,,,,,,,,,,104,22,Male,2022-04-29_14h04.38.596,Boat,2022.1.1,60.11157911953208,
neutral,neutral,1,k,k,,,,,0,10,10,1,,,,,,,,,,,,,,,,,,,,,,,,,,,,,prac,2,2,1,neutral,neutral,k,k,1,0.7396444999903906,116.63010799998301,117.63456289999885,117.61533639999107,None,116.63010799998301,None,116.63010799998301,None,116.63010799998301,None,118.35395419999841,None,118.35395419999841,None,118.35395419999841,None,,,,,,,,,,,104,22,Male,2022-04-29_14h04.38.596,Boat,2022.1.1,60.11157911953208,
negative,neutral,2,j,l,,,,,0,11,11,12,,,,,,,,,,,,,,,,,,,,,,,,,,,,,prac,2,2,2,neutral,negative,j,j,1,0.8539910999825224,118.3712556999817,119.37135079997825,119.35403069999302,None,118.3712556999817,None,118.3712556999817,None,118.3712556999817,None,120.2121928999899,None,120.2121928999899,None,120.2121928999899,None,,,,,,,,,,,104,22,Male,2022-04-29_14h04.38.596,Boat,2022.1.1,60.11157911953208,
positive,neutral,2,l,j,,,,,0,12,12,17,,,,,,,,,,,,,,,,,,,,,,,,,,,,,prac,2,2,2,neutral,positive,l,l,1,0.7228299000125844,120.23459249999723,121.23764519998804,121.22071709999,None,120.23459249999723,None,120.23459249999723,None,120.23459249999723,None,121.93638039997896,None,121.93638039997896,None,121.93638039997896,None,,,,,,,,,,,104,22,Male,2022-04-29_14h04.38.596,Boat,2022.1.1,60.11157911953208,
negative,negative,1,j,l,,,,,0,13,13,0,,,,,,,,,,,,,,,,,,,,,,,,,,,,,prac,2,2,1,negative,negative,j,j,1,0.8910115000035148,121.95255069999257,122.95394779997878,122.93704829999479,None,121.95255069999257,None,121.95255069999257,None,121.95255069999257,None,123.83150619999506,None,123.83150619999506,None,123.83150619999506,None,,,,,,,,,,,104,22,Male,2022-04-29_14h04.38.596,Boat,2022.1.1,60.11157911953208,
neutral,neutral,2,k,k,,,,,0,14,14,10,,,,,,,,,,,,,,,,,,,,,,,,,,,,,prac,2,2,2,neutral,neutral,k,k,1,1.2710155999811832,123.84904760000063,124.86818879999919,124.82871289999457,None,123.84904760000063,None,123.84904760000063,None,123.84904760000063,None,126.10391029998428,None,126.10391029998428,None,126.10391029998428,None,,,,,,,,,,,104,22,Male,2022-04-29_14h04.38.596,Boat,2022.1.1,60.11157911953208,
neutral,positive,2,k,k,,,,,0,15,15,13,,,,,,,,,,,,,,,,,,,,,,,,,,,,,prac,2,2,2,positive,neutral,k,k,1,0.6130385000142269,126.12115979997907,127.12197149998974,127.10450620000483,None,126.12115979997907,None,126.12115979997907,None,126.12115979997907,None,127.72062179999776,None,127.72062179999776,None,127.72062179999776,None,,,,,,,,,,,104,22,Male,2022-04-29_14h04.38.596,Boat,2022.1.1,60.11157911953208,
negative,neutral,1,j,l,,,,,0,16,16,3,,,,,,,,,,,,,,,,,,,,,,,,,,,,,prac,1,1,1,neutral,negative,j,j,1,1.1358450000116136,127.74745019999682,128.7625643000065,128.72084910000558,None,127.74745019999682,None,127.74745019999682,None,127.74745019999682,None,129.85840760000283,None,129.85840760000283,None,129.85840760000283,None,,,,,,,,,,,104,22,Male,2022-04-29_14h04.38.596,Boat,2022.1.1,60.11157911953208,
positive,negative,2,l,j,,,,,0,17,17,14,,,,,,,,,,,,,,,,,,,,,,,,,,,,,prac,2,2,2,negative,positive,l,l,1,0.7091664000181481,129.87344379999558,130.89585169998463,130.85431929997867,None,129.87344379999558,None,129.87344379999558,None,129.87344379999558,None,131.57039439998917,None,131.57039439998917,None,131.57039439998917,None,,,,,,,,,,,104,22,Male,2022-04-29_14h04.38.596,Boat,2022.1.1,60.11157911953208,
positive,negative,2,l,j,,,,,1,0,18,14,,,,,,,,,,,,,,,,,,,,,,,,,,,,,prac,2,2,2,negative,positive,l,l,1,0.6863725000002887,131.5862036999897,132.60462110000663,132.56584319999092,None,131.5862036999897,None,131.5862036999897,None,131.5862036999897,None,133.26078729998554,None,133.26078729998554,None,133.26078729998554,None,,,,,,,,,,,104,22,Male,2022-04-29_14h04.38.596,Boat,2022.1.1,60.11157911953208,
negative,positive,2,j,l,,,,,1,1,19,15,,,,,,,,,,,,,,,,,,,,,,,,,,,,,prac,1,1,2,positive,negative,j,j,1,0.782259100000374,133.27647559999605,134.28813239999,134.2710457999783,None,133.27647559999605,None,133.27647559999605,None,133.27647559999605,None,135.0452222999942,None,135.0452222999942,None,135.0452222999942,None,,,,,,,,,,,104,22,Male,2022-04-29_14h04.38.596,Boat,2022.1.1,60.11157911953208,
positive,neutral,2,l,j,,,,,1,2,20,17,,,,,,,,,,,,,,,,,,,,,,,,,,,,,prac,2,2,2,neutral,positive,l,l,1,0.8069757000193931,135.05984400000307,136.0791753999947,136.05236989998957,None,135.05984400000307,None,135.05984400000307,None,135.05984400000307,None,136.8541854999843,None,136.8541854999843,None,136.8541854999843,None,,,,,,,,,,,104,22,Male,2022-04-29_14h04.38.596,Boat,2022.1.1,60.11157911953208,
negative,positive,1,j,l,,,,,1,3,21,6,,,,,,,,,,,,,,,,,,,,,,,,,,,,,prac,2,2,1,positive,negative,j,j,1,0.7305363000195939,136.87020569999004,137.87407130000065,137.85498299999745,None,136.87020569999004,None,136.87020569999004,None,136.87020569999004,None,138.58769419999444,None,138.58769419999444,None,138.58769419999444,None,,,,,,,,,,,104,22,Male,2022-04-29_14h04.38.596,Boat,2022.1.1,60.11157911953208,
positive,neutral,1,l,j,,,,,1,4,22,8,,,,,,,,,,,,,,,,,,,,,,,,,,,,,prac,2,2,1,neutral,positive,l,l,1,0.935749800002668,138.60451410000678,139.62142369998037,139.58610469999257,None,138.60451410000678,None,138.60451410000678,None,138.60451410000678,None,140.5273885999981,None,140.5273885999981,None,140.5273885999981,None,,,,,,,,,,,104,22,Male,2022-04-29_14h04.38.596,Boat,2022.1.1,60.11157911953208,
negative,negative,2,j,l,,,,,1,5,23,9,,,,,,,,,,,,,,,,,,,,,,,,,,,,,prac,1,1,2,negative,negative,j,j,1,0.8416086999932304,140.54197530000238,141.55096100000083,141.53241409998736,None,140.54197530000238,None,140.54197530000238,None,140.54197530000238,None,142.3709804999875,None,142.3709804999875,None,142.3709804999875,None,,,,,,,,,,,104,22,Male,2022-04-29_14h04.38.596,Boat,2022.1.1,60.11157911953208,
neutral,negative,2,k,k,,,,,1,6,24,16,,,,,,,,,,,,,,,,,,,,,,,,,,,,,prac,2,2,2,negative,neutral,k,k,1,0.7784734999877401,142.38655399999698,143.40153999999166,143.3822194999957,None,142.38655399999698,None,142.38655399999698,None,142.38655399999698,None,144.15319960000343,None,144.15319960000343,None,144.15319960000343,None,,,,,,,,,,,104,22,Male,2022-04-29_14h04.38.596,Boat,2022.1.1,60.11157911953208,
neutral,negative,1,k,k,,,,,1,7,25,7,,,,,,,,,,,,,,,,,,,,,,,,,,,,,prac,2,2,1,negative,neutral,k,k,1,1.2219403999915812,144.17051959998207,145.17910310000298,145.13793999998597,None,144.17051959998207,None,144.17051959998207,None,144.17051959998207,None,146.37503879998113,None,146.37503879998113,None,146.37503879998113,None,,,,,,,,,,,104,22,Male,2022-04-29_14h04.38.596,Boat,2022.1.1,60.11157911953208,
neutral,neutral,2,k,k,,,,,1,8,26,10,,,,,,,,,,,,,,,,,,,,,,,,,,,,,prac,2,2,2,neutral,neutral,k,k,1,0.7081082999939099,146.39200459999847,147.40165819998947,147.3825835000025,None,146.39200459999847,None,146.39200459999847,None,146.39200459999847,None,148.08787549997797,None,148.08787549997797,None,148.08787549997797,None,,,,,,,,,,,104,22,Male,2022-04-29_14h04.38.596,Boat,2022.1.1,60.11157911953208,
negative,negative,1,j,l,,,,,1,9,27,0,,,,,,,,,,,,,,,,,,,,,,,,,,,,,prac,1,1,1,negative,negative,j,j,1,0.8214252000034321,148.1148291999998,149.12147399998503,149.1045639999793,None,148.1148291999998,None,148.1148291999998,None,148.1148291999998,None,149.91020239997889,None,149.91020239997889,None,149.91020239997889,None,,,,,,,,,,,104,22,Male,2022-04-29_14h04.38.596,Boat,2022.1.1,60.11157911953208,
positive,positive,2,l,j,,,,,1,10,28,11,,,,,,,,,,,,,,,,,,,,,,,,,,,,,prac,2,2,2,positive,positive,l,l,1,0.7689301000209525,149.92662139999447,150.93794720000005,150.90454719998525,None,149.92662139999447,None,149.92662139999447,None,149.92662139999447,None,151.68291219999665,None,151.68291219999665,None,151.68291219999665,None,,,,,,,,,,,104,22,Male,2022-04-29_14h04.38.596,Boat,2022.1.1,60.11157911953208,
neutral,positive,1,k,k,,,,,1,11,29,4,,,,,,,,,,,,,,,,,,,,,,,,,,,,,prac,2,2,1,positive,neutral,k,k,1,0.7773905000067316,151.70221319998382,152.71953199998825,152.6793725999887,None,151.70221319998382,None,151.70221319998382,None,151.70221319998382,None,153.4623431999993,None,153.4623431999993,None,153.4623431999993,None,,,,,,,,,,,104,22,Male,2022-04-29_14h04.38.596,Boat,2022.1.1,60.11157911953208,
neutral,positive,2,k,k,,,,,1,12,30,13,,,,,,,,,,,,,,,,,,,,,,,,,,,,,prac,1,1,2,positive,neutral,k,k,1,0.7691144999989774,153.48544729998684,154.48852329998044,154.47126930000377,None,153.48544729998684,None,153.48544729998684,None,153.48544729998684,None,155.233710899984,None,155.233710899984,None,155.233710899984,None,,,,,,,,,,,104,22,Male,2022-04-29_14h04.38.596,Boat,2022.1.1,60.11157911953208,
negative,neutral,1,j,l,,,,,1,13,31,3,,,,,,,,,,,,,,,,,,,,,,,,,,,,,prac,1,1,1,neutral,negative,j,j,1,0.8926655000250321,155.24881719998666,156.25438119997852,156.23498889998882,None,155.24881719998666,None,155.24881719998666,None,155.24881719998666,None,157.12727909998503,None,157.12727909998503,None,157.12727909998503,None,,,,,,,,,,,104,22,Male,2022-04-29_14h04.38.596,Boat,2022.1.1,60.11157911953208,
positive,positive,1,l,j,,,,,1,14,32,2,,,,,,,,,,,,,,,,,,,,,,,,,,,,,prac,2,2,1,positive,positive,l,l,1,0.8151631999935489,157.14407889998984,158.1558626999904,158.1217079999915,None,157.14407889998984,None,157.14407889998984,None,157.14407889998984,None,158.94542179999408,None,158.94542179999408,None,158.94542179999408,None,,,,,,,,,,,104,22,Male,2022-04-29_14h04.38.596,Boat,2022.1.1,60.11157911953208,
positive,negative,1,l,j,,,,,1,15,33,5,,,,,,,,,,,,,,,,,,,,,,,,,,,,,prac,2,2,1,negative,positive,l,l,1,0.7811389999988023,158.9608714999922,159.97945819998858,159.9520388999954,None,158.9608714999922,None,158.9608714999922,None,158.9608714999922,None,160.72682379998733,None,160.72682379998733,None,160.72682379998733,None,,,,,,,,,,,104,22,Male,2022-04-29_14h04.38.596,Boat,2022.1.1,60.11157911953208,
neutral,neutral,1,k,k,,,,,1,16,34,1,,,,,,,,,,,,,,,,,,,,,,,,,,,,,prac,2,2,1,neutral,neutral,k,k,1,0.7367689000093378,160.74222349998308,161.75605189998168,161.72125410000444,None,160.74222349998308,None,160.74222349998308,None,160.74222349998308,None,162.46775210000342,None,162.46775210000342,None,162.46775210000342,None,,,,,,,,,,,104,22,Male,2022-04-29_14h04.38.596,Boat,2022.1.1,60.11157911953208,
negative,neutral,2,j,l,,,,,1,17,35,12,,,,,,,,,,,,,,,,,,,,,,,,,,,,,prac,2,2,2,neutral,negative,j,j,1,0.767980999982683,162.48579449998215,163.4965495999786,163.46949029999087,None,162.48579449998215,None,162.48579449998215,None,162.48579449998215,None,164.23766869999818,None,164.23766869999818,None,164.23766869999818,None,,,,,,,,,,,104,22,Male,2022-04-29_14h04.38.596,Boat,2022.1.1,60.11157911953208,
,,,,,,,,,,,,,,,,,,,,,,,,,,,,,,,,,,,,,,,,,,,,,,,,,,,,,,,,,,,,,,,,,,,164.24552719999338,None,None,,,,,,,,104,22,Male,2022-04-29_14h04.38.596,Boat,2022.1.1,60.11157911953208,
,,,,,,,,,,,,,,,,,,,,,,,,,,,,,,,,,,,,,,,,,,,,,,,,,,,,,,,,,,,,,,,,,,,,,,0.52962965,-0.072222225,1,0,0,0.0072355000011157244,None,104,22,Male,2022-04-29_14h04.38.596,Boat,2022.1.1,60.11157911953208,
neutral,positive,1,k,k,,,,,,,,,0,0,0,4,,,,,,,,,,,,,,,,,,,,,,,199.1846258000005,None,main,2,2,1,positive,neutral,k,k,1,0.8105935000057798,201.20537959999638,202.22202489999472,202.18354919998092,None,201.20537959999638,None,201.20537959999638,None,201.20537959999638,None,202.9942327999801,None,202.9942327999801,None,202.9942327999801,None,,,,,,,,,,,104,22,Male,2022-04-29_14h04.38.596,Boat,2022.1.1,60.11157911953208,
positive,negative,1,l,j,,,,,,,,,0,1,1,5,,,,,,,,,,,,,,,,,,,,,,,,,main,2,2,1,negative,positive,l,l,1,0.811598900007084,203.01605559999007,204.0305099999823,203.98900269999285,None,203.01605559999007,None,203.01605559999007,None,203.01605559999007,None,204.81025439999067,None,204.81025439999067,None,204.81025439999067,None,,,,,,,,,,,104,22,Male,2022-04-29_14h04.38.596,Boat,2022.1.1,60.11157911953208,
neutral,negative,2,k,k,,,,,,,,,0,2,2,16,,,,,,,,,,,,,,,,,,,,,,,,,main,1,1,2,negative,neutral,k,k,1,1.630123500013724,204.82741229998646,205.84737099998165,205.80581749998964,None,204.82741229998646,None,204.82741229998646,None,204.82741229998646,None,207.4473677999922,None,207.4473677999922,None,207.4473677999922,None,,,,,,,,,,,104,22,Male,2022-04-29_14h04.38.596,Boat,2022.1.1,60.11157911953208,
neutral,positive,2,k,k,,,,,,,,,0,3,3,13,,,,,,,,,,,,,,,,,,,,,,,,,main,1,1,2,positive,neutral,k,k,1,0.6898859999782871,208.45825470000273,209.47329150000587,209.45329049997963,None,208.45825470000273,None,208.45825470000273,None,208.45825470000273,None,210.1348784999922,None,210.1348784999922,None,210.1348784999922,None,,,,,,,,,,,104,22,Male,2022-04-29_14h04.38.596,Boat,2022.1.1,60.11157911953208,
neutral,neutral,1,k,k,,,,,,,,,0,4,4,1,,,,,,,,,,,,,,,,,,,,,,,,,main,1,1,1,neutral,neutral,k,k,1,0.7350949000101537,210.15404259998468,211.17303219999303,211.13394479997805,None,210.15404259998468,None,210.15404259998468,None,210.15404259998468,None,211.87253379999893,None,211.87253379999893,None,211.87253379999893,None,,,,,,,,,,,104,22,Male,2022-04-29_14h04.38.596,Boat,2022.1.1,60.11157911953208,
negative,negative,1,j,l,,,,,,,,,0,5,5,0,,,,,,,,,,,,,,,,,,,,,,,,,main,2,2,1,negative,negative,j,j,1,0.9193666999926791,211.8881349999865,212.8910096999898,212.8737803999975,None,211.8881349999865,None,211.8881349999865,None,211.8881349999865,None,213.79354079999612,None,213.79354079999612,None,213.79354079999612,None,,,,,,,,,,,104,22,Male,2022-04-29_14h04.38.596,Boat,2022.1.1,60.11157911953208,
neutral,negative,1,k,k,,,,,,,,,0,6,6,7,,,,,,,,,,,,,,,,,,,,,,,,,main,1,1,1,negative,neutral,k,k,1,0.6658587999991141,213.8099750999827,214.83067969998228,214.78917109998292,None,213.8099750999827,None,213.8099750999827,None,213.8099750999827,None,215.46204629997956,None,215.46204629997956,None,215.46204629997956,None,,,,,,,,,,,104,22,Male,2022-04-29_14h04.38.596,Boat,2022.1.1,60.11157911953208,
negative,positive,2,j,l,,,,,,,,,0,7,7,15,,,,,,,,,,,,,,,,,,,,,,,,,main,2,2,2,positive,negative,j,j,1,1.313447400025325,215.48050229999353,216.4899957999878,216.4558384999982,None,215.48050229999353,None,215.48050229999353,None,215.48050229999353,None,217.7780992999964,None,217.7780992999964,None,217.7780992999964,None,,,,,,,,,,,104,22,Male,2022-04-29_14h04.38.596,Boat,2022.1.1,60.11157911953208,
positive,negative,2,l,j,,,,,,,,,0,8,8,14,,,,,,,,,,,,,,,,,,,,,,,,,main,1,1,2,negative,positive,l,l,1,0.7670582999999169,217.7951686999877,218.80611969999154,218.77283859997988,None,217.7951686999877,None,217.7951686999877,None,217.7951686999877,None,219.5503445999988,None,219.5503445999988,None,219.5503445999988,None,,,,,,,,,,,104,22,Male,2022-04-29_14h04.38.596,Boat,2022.1.1,60.11157911953208,
positive,neutral,1,l,j,,,,,,,,,0,9,9,8,,,,,,,,,,,,,,,,,,,,,,,,,main,2,2,1,neutral,positive,l,l,1,0.9606057000055443,219.5692238000047,220.58103189998656,220.55427989998134,None,219.5692238000047,None,219.5692238000047,None,219.5692238000047,None,221.51170129998937,None,221.51170129998937,None,221.51170129998937,None,,,,,,,,,,,104,22,Male,2022-04-29_14h04.38.596,Boat,2022.1.1,60.11157911953208,
negative,neutral,2,j,l,,,,,,,,,0,10,10,12,,,,,,,,,,,,,,,,,,,,,,,,,main,1,1,2,neutral,negative,j,j,1,0.8126892000145745,221.53755039998214,222.53916379998554,222.52015389999724,None,221.53755039998214,None,221.53755039998214,None,221.53755039998214,None,223.32885979998392,None,223.32885979998392,None,223.32885979998392,None,,,,,,,,,,,104,22,Male,2022-04-29_14h04.38.596,Boat,2022.1.1,60.11157911953208,
positive,positive,1,l,j,,,,,,,,,0,11,11,2,,,,,,,,,,,,,,,,,,,,,,,,,main,2,2,1,positive,positive,l,l,1,0.7794643999950495,223.3458607000066,224.3570200999966,224.32298939998145,None,223.3458607000066,None,223.3458607000066,None,223.3458607000066,None,225.1088032999891,None,225.1088032999891,None,225.1088032999891,None,,,,,,,,,,,104,22,Male,2022-04-29_14h04.38.596,Boat,2022.1.1,60.11157911953208,
positive,positive,2,l,j,,,,,,,,,0,12,12,11,,,,,,,,,,,,,,,,,,,,,,,,,main,1,1,2,positive,positive,l,l,1,0.7495140999963041,225.1259810999909,226.14777690000483,226.10568019998027,None,225.1259810999909,None,225.1259810999909,None,225.1259810999909,None,226.86123279997847,None,226.86123279997847,None,226.86123279997847,None,,,,,,,,,,,104,22,Male,2022-04-29_14h04.38.596,Boat,2022.1.1,60.11157911953208,
negative,neutral,1,j,l,,,,,,,,,0,13,13,3,,,,,,,,,,,,,,,,,,,,,,,,,main,2,2,1,neutral,negative,j,j,1,0.7687095000001136,226.8780265999958,227.88986309999018,227.8556327999977,None,226.8780265999958,None,226.8780265999958,None,226.8780265999958,None,228.63448019998614,None,228.63448019998614,None,228.63448019998614,None,,,,,,,,,,,104,22,Male,2022-04-29_14h04.38.596,Boat,2022.1.1,60.11157911953208,
positive,neutral,2,l,j,,,,,,,,,0,14,14,17,,,,,,,,,,,,,,,,,,,,,,,,,main,1,1,2,neutral,positive,l,l,1,0.7091849000134971,228.65343289999873,229.65593529999023,229.6369466999895,None,228.65343289999873,None,228.65343289999873,None,228.65343289999873,None,230.34428029999836,None,230.34428029999836,None,230.34428029999836,None,,,,,,,,,,,104,22,Male,2022-04-29_14h04.38.596,Boat,2022.1.1,60.11157911953208,
neutral,neutral,2,k,k,,,,,,,,,0,15,15,10,,,,,,,,,,,,,,,,,,,,,,,,,main,1,1,2,neutral,neutral,k,k,1,0.7006527000048663,230.36047049998888,231.36753049999243,231.34792509998078,None,230.36047049998888,None,230.36047049998888,None,230.36047049998888,None,232.04958870000556,None,232.04958870000556,None,232.04958870000556,None,,,,,,,,,,,104,22,Male,2022-04-29_14h04.38.596,Boat,2022.1.1,60.11157911953208,
negative,positive,1,j,l,,,,,,,,,0,16,16,6,,,,,,,,,,,,,,,,,,,,,,,,,main,1,1,1,positive,negative,j,j,1,0.8147712999780197,232.06831709999824,233.0710529999924,233.0510629999917,None,232.06831709999824,None,232.06831709999824,None,232.06831709999824,None,233.86497689999524,None,233.86497689999524,None,233.86497689999524,None,,,,,,,,,,,104,22,Male,2022-04-29_14h04.38.596,Boat,2022.1.1,60.11157911953208,
negative,negative,2,j,l,,,,,,,,,0,17,17,9,,,,,,,,,,,,,,,,,,,,,,,,,main,1,1,2,negative,negative,j,j,1,0.7526561999984551,233.88773909999873,234.89799549998133,234.85612650000257,None,233.88773909999873,None,233.88773909999873,None,233.88773909999873,None,235.62192670000368,None,235.62192670000368,None,235.62192670000368,None,,,,,,,,,,,104,22,Male,2022-04-29_14h04.38.596,Boat,2022.1.1,60.11157911953208,
negative,negative,1,j,l,,,,,,,,,1,0,18,0,,,,,,,,,,,,,,,,,,,,,,,,,main,1,1,1,negative,negative,j,j,1,0.7880309999745805,235.63851940000313,236.65523919998668,236.6176495999971,None,235.63851940000313,None,235.63851940000313,None,235.63851940000313,None,237.41113179998356,None,237.41113179998356,None,237.41113179998356,None,,,,,,,,,,,104,22,Male,2022-04-29_14h04.38.596,Boat,2022.1.1,60.11157911953208,
neutral,negative,2,k,k,,,,,,,,,1,1,19,16,,,,,,,,,,,,,,,,,,,,,,,,,main,2,2,2,negative,neutral,k,k,1,0.6498690000153147,237.42698709998513,238.44765349998488,238.40084499999648,None,237.42698709998513,None,237.42698709998513,None,237.42698709998513,None,239.06496229998302,None,239.06496229998302,None,239.06496229998302,None,,,,,,,,,,,104,22,Male,2022-04-29_14h04.38.596,Boat,2022.1.1,60.11157911953208,
negative,positive,1,j,l,,,,,,,,,1,2,20,6,,,,,,,,,,,,,,,,,,,,,,,,,main,2,2,1,positive,negative,j,j,1,0.8152383999840822,239.08030420000432,240.10095649998402,240.08115220000036,None,239.08030420000432,None,239.08030420000432,None,239.08030420000432,None,240.8824189999781,None,240.8824189999781,None,240.8824189999781,None,,,,,,,,,,,104,22,Male,2022-04-29_14h04.38.596,Boat,2022.1.1,60.11157911953208,
neutral,positive,2,k,k,,,,,,,,,1,3,21,13,,,,,,,,,,,,,,,,,,,,,,,,,main,1,1,2,positive,neutral,k,k,1,0.7958199999993667,240.9012270999956,241.90465449998737,241.8851704999979,None,240.9012270999956,None,240.9012270999956,None,240.9012270999956,None,242.67983230000246,None,242.67983230000246,None,242.67983230000246,None,,,,,,,,,,,104,22,Male,2022-04-29_14h04.38.596,Boat,2022.1.1,60.11157911953208,
negative,neutral,1,j,l,,,,,,,,,1,4,22,3,,,,,,,,,,,,,,,,,,,,,,,,,main,1,1,1,neutral,negative,j,j,1,0.7673808999825269,242.69587279998814,243.70666789999814,243.68940329999896,None,242.69587279998814,None,242.69587279998814,None,242.69587279998814,None,244.45069489998278,None,244.45069489998278,None,244.45069489998278,None,,,,,,,,,,,104,22,Male,2022-04-29_14h04.38.596,Boat,2022.1.1,60.11157911953208,
positive,positive,1,l,j,,,,,,,,,1,5,23,2,,,,,,,,,,,,,,,,,,,,,,,,,main,1,1,1,positive,positive,l,l,1,0.7935746999864932,244.47064159999718,245.4739500999858,245.44001339998795,None,244.47064159999718,None,244.47064159999718,None,244.47064159999718,None,246.2442068999866,None,246.2442068999866,None,246.2442068999866,None,,,,,,,,,,,104,22,Male,2022-04-29_14h04.38.596,Boat,2022.1.1,60.11157911953208,
positive,negative,2,l,j,,,,,,,,,1,6,24,14,,,,,,,,,,,,,,,,,,,,,,,,,main,1,1,2,negative,positive,l,l,1,0.6948240000056103,246.26229809998767,247.28164499998093,247.24012360000052,None,246.26229809998767,None,246.26229809998767,None,246.26229809998767,None,247.94329000000144,None,247.94329000000144,None,247.94329000000144,None,,,,,,,,,,,104,22,Male,2022-04-29_14h04.38.596,Boat,2022.1.1,60.11157911953208,
neutral,neutral,2,k,k,,,,,,,,,1,7,25,10,,,,,,,,,,,,,,,,,,,,,,,,,main,1,1,2,neutral,neutral,k,k,1,0.7152780999895185,247.95872090000194,248.97359290000168,248.93991009998717,None,247.95872090000194,None,247.95872090000194,None,247.95872090000194,None,249.66086189999479,None,249.66086189999479,None,249.66086189999479,None,,,,,,,,,,,104,22,Male,2022-04-29_14h04.38.596,Boat,2022.1.1,60.11157911953208,
negative,negative,2,j,l,,,,,,,,,1,8,26,9,,,,,,,,,,,,,,,,,,,,,,,,,main,1,1,2,negative,negative,j,j,1,0.732603200012818,249.67633069999283,250.68471939998562,250.6649108999991,None,249.67633069999283,None,249.67633069999283,None,249.67633069999283,None,251.39409289998585,None,251.39409289998585,None,251.39409289998585,None,,,,,,,,,,,104,22,Male,2022-04-29_14h04.38.596,Boat,2022.1.1,60.11157911953208,
positive,neutral,1,l,j,,,,,,,,,1,9,27,8,,,,,,,,,,,,,,,,,,,,,,,,,main,2,2,1,neutral,positive,l,l,1,0.7968590999953449,251.41227589998743,252.42359249998117,252.40452439998626,None,251.41227589998743,None,251.41227589998743,None,251.41227589998743,None,253.19590649998864,None,253.19590649998864,None,253.19590649998864,None,,,,,,,,,,,104,22,Male,2022-04-29_14h04.38.596,Boat,2022.1.1,60.11157911953208,
positive,positive,2,l,j,,,,,,,,,1,10,28,11,,,,,,,,,,,,,,,,,,,,,,,,,main,2,2,2,positive,positive,l,l,1,0.7534576999896672,253.21273879997898,254.22058369999286,254.20135249997838,None,253.21273879997898,None,253.21273879997898,None,253.21273879997898,None,254.95207779997727,None,254.95207779997727,None,254.95207779997727,None,,,,,,,,,,,104,22,Male,2022-04-29_14h04.38.596,Boat,2022.1.1,60.11157911953208,
positive,negative,1,l,j,,,,,,,,,1,11,29,5,,,,,,,,,,,,,,,,,,,,,,,,,main,1,1,1,negative,positive,l,l,1,0.8237056999932975,254.96798739998485,255.9708916999807,255.95153009999194,None,254.96798739998485,None,254.96798739998485,None,254.96798739998485,None,256.7762872999941,None,256.7762872999941,None,256.7762872999941,None,,,,,,,,,,,104,22,Male,2022-04-29_14h04.38.596,Boat,2022.1.1,60.11157911953208,
neutral,neutral,1,k,k,,,,,,,,,1,12,30,1,,,,,,,,,,,,,,,,,,,,,,,,,main,2,2,1,neutral,neutral,k,k,1,0.7165375000040513,256.7932096000004,257.80884119999246,257.77436929999385,None,256.7932096000004,None,256.7932096000004,None,256.7932096000004,None,258.49628840000366,None,258.49628840000366,None,258.49628840000366,None,,,,,,,,,,,104,22,Male,2022-04-29_14h04.38.596,Boat,2022.1.1,60.11157911953208,
neutral,positive,1,k,k,,,,,,,,,1,13,31,4,,,,,,,,,,,,,,,,,,,,,,,,,main,2,2,1,positive,neutral,k,k,1,0.6372785000130534,258.5129520999908,259.5346320999961,259.48851729999296,None,258.5129520999908,None,258.5129520999908,None,258.5129520999908,None,260.1368798999814,None,260.1368798999814,None,260.1368798999814,None,,,,,,,,,,,104,22,Male,2022-04-29_14h04.38.596,Boat,2022.1.1,60.11157911953208,
negative,neutral,2,j,l,,,,,,,,,1,14,32,12,,,,,,,,,,,,,,,,,,,,,,,,,main,2,2,2,neutral,negative,j,j,1,0.7401185000198893,260.1526534000004,261.15658959999564,261.140043899999,None,260.1526534000004,None,260.1526534000004,None,260.1526534000004,None,261.8799592999916,None,261.8799592999916,None,261.8799592999916,None,,,,,,,,,,,104,22,Male,2022-04-29_14h04.38.596,Boat,2022.1.1,60.11157911953208,
positive,neutral,2,l,j,,,,,,,,,1,15,33,17,,,,,,,,,,,,,,,,,,,,,,,,,main,1,1,2,neutral,positive,l,l,1,0.7002667999768164,261.89500429999316,262.9014654000057,262.9014654000057,None,261.89500429999316,None,261.89500429999316,None,261.89500429999316,None,263.5810091999941,None,263.5810091999941,None,263.5810091999941,None,,,,,,,,,,,104,22,Male,2022-04-29_14h04.38.596,Boat,2022.1.1,60.11157911953208,
negative,positive,2,j,l,,,,,,,,,1,16,34,15,,,,,,,,,,,,,,,,,,,,,,,,,main,1,1,2,positive,negative,j,j,1,0.6675244999933057,263.59843699997873,264.608860599983,264.5734354000015,None,263.59843699997873,None,263.59843699997873,None,263.59843699997873,None,265.25213559999827,None,265.25213559999827,None,265.25213559999827,None,,,,,,,,,,,104,22,Male,2022-04-29_14h04.38.596,Boat,2022.1.1,60.11157911953208,
neutral,negative,1,k,k,,,,,,,,,1,17,35,7,,,,,,,,,,,,,,,,,,,,,,,,,main,1,1,1,negative,neutral,k,k,1,0.6984329999831971,265.2675470999966,266.2738240000035,266.2560331999848,None,265.2675470999966,None,265.2675470999966,None,265.2675470999966,None,266.95275599999,None,266.95275599999,None,266.95275599999,None,,,,,,,,,,,104,22,Male,2022-04-29_14h04.38.596,Boat,2022.1.1,60.11157911953208,
negative,positive,2,j,l,,,,,,,,,2,0,36,15,,,,,,,,,,,,,,,,,,,,,,,,,main,2,2,2,positive,negative,j,j,1,0.7163889000075869,266.9717592999805,267.97386080000433,267.9545072999899,None,266.9717592999805,None,266.9717592999805,None,266.9717592999805,None,268.67180159999987,None,268.67180159999987,None,268.67180159999987,None,,,,,,,,,,,104,22,Male,2022-04-29_14h04.38.596,Boat,2022.1.1,60.11157911953208,
neutral,positive,1,k,k,,,,,,,,,2,1,37,4,,,,,,,,,,,,,,,,,,,,,,,,,main,1,1,1,positive,neutral,k,k,1,1.6456407999794465,268.68905950000044,269.69088379997993,269.67368789998,None,268.68905950000044,None,268.68905950000044,None,268.68905950000044,None,271.32391149998875,None,271.32391149998875,None,271.32391149998875,None,,,,,,,,,,,104,22,Male,2022-04-29_14h04.38.596,Boat,2022.1.1,60.11157911953208,
positive,negative,1,l,j,,,,,,,,,2,2,38,5,,,,,,,,,,,,,,,,,,,,,,,,,main,1,1,1,negative,positive,l,l,1,1.2140271000098437,272.3434976999997,273.35692160000326,273.32359479999286,None,272.3434976999997,None,272.3434976999997,None,272.3434976999997,None,274.54266049998694,None,274.54266049998694,None,274.54266049998694,None,,,,,,,,,,,104,22,Male,2022-04-29_14h04.38.596,Boat,2022.1.1,60.11157911953208,
positive,neutral,2,l,j,,,,,,,,,2,3,39,17,,,,,,,,,,,,,,,,,,,,,,,,,main,1,1,2,neutral,positive,l,l,1,1.1954403000127058,274.5596402999945,275.56818329999805,275.54840679999324,None,274.5596402999945,None,274.5596402999945,None,274.5596402999945,None,276.74101199998984,None,276.74101199998984,None,276.74101199998984,None,,,,,,,,,,,104,22,Male,2022-04-29_14h04.38.596,Boat,2022.1.1,60.11157911953208,
neutral,negative,2,k,k,,,,,,,,,2,4,40,16,,,,,,,,,,,,,,,,,,,,,,,,,main,1,1,2,negative,neutral,k,k,1,0.7190015000232961,276.75718829999096,277.7578794999863,277.74023609998403,None,276.75718829999096,None,276.75718829999096,None,276.75718829999096,None,278.46439889999453,None,278.46439889999453,None,278.46439889999453,None,,,,,,,,,,,104,22,Male,2022-04-29_14h04.38.596,Boat,2022.1.1,60.11157911953208,
positive,negative,2,l,j,,,,,,,,,2,5,41,14,,,,,,,,,,,,,,,,,,,,,,,,,main,1,1,2,negative,positive,l,l,1,0.7635279000096489,278.479743999982,279.49837580000167,279.4715517000004,None,278.479743999982,None,278.479743999982,None,278.479743999982,None,280.2306676999782,None,280.2306676999782,None,280.2306676999782,None,,,,,,,,,,,104,22,Male,2022-04-29_14h04.38.596,Boat,2022.1.1,60.11157911953208,
negative,neutral,2,j,l,,,,,,,,,2,6,42,12,,,,,,,,,,,,,,,,,,,,,,,,,main,2,2,2,neutral,negative,j,j,1,0.9071269000123721,280.2468491999898,281.2516143999819,281.2516143999819,None,280.2468491999898,None,280.2468491999898,None,280.2468491999898,None,282.13999459997865,None,282.13999459997865,None,282.13999459997865,None,,,,,,,,,,,104,22,Male,2022-04-29_14h04.38.596,Boat,2022.1.1,60.11157911953208,
negative,positive,1,j,l,,,,,,,,,2,7,43,6,,,,,,,,,,,,,,,,,,,,,,,,,main,2,2,1,positive,negative,j,j,1,0.746063900005538,282.15632439998444,283.15840739998384,283.12375559998327,None,282.15632439998444,None,282.15632439998444,None,282.15632439998444,None,283.888958300004,None,283.888958300004,None,283.888958300004,None,,,,,,,,,,,104,22,Male,2022-04-29_14h04.38.596,Boat,2022.1.1,60.11157911953208,
neutral,neutral,2,k,k,,,,,,,,,2,8,44,10,,,,,,,,,,,,,,,,,,,,,,,,,main,1,1,2,neutral,neutral,k,k,1,0.7713285999780055,283.90584699998726,284.9153865999833,284.8909512999817,None,283.90584699998726,None,283.90584699998726,None,283.90584699998726,None,285.6636472999875,None,285.6636472999875,None,285.6636472999875,None,,,,,,,,,,,104,22,Male,2022-04-29_14h04.38.596,Boat,2022.1.1,60.11157911953208,
negative,negative,1,j,l,,,,,,,,,2,9,45,0,,,,,,,,,,,,,,,,,,,,,,,,,main,2,2,1,negative,negative,j,j,1,0.8805791999911889,285.68000429999665,286.6925094999897,286.65847959998064,None,285.68000429999665,None,285.68000429999665,None,285.68000429999665,None,287.5452589999826,None,287.5452589999826,None,287.5452589999826,None,,,,,,,,,,,104,22,Male,2022-04-29_14h04.38.596,Boat,2022.1.1,60.11157911953208,
neutral,neutral,1,k,k,,,,,,,,,2,10,46,1,,,,,,,,,,,,,,,,,,,,,,,,,main,2,2,1,neutral,neutral,k,k,1,0.7492884999956004,287.5612723999948,288.5855215000047,288.540643299988,None,287.5612723999948,None,287.5612723999948,None,287.5612723999948,None,289.29842049998695,None,289.29842049998695,None,289.29842049998695,None,,,,,,,,,,,104,22,Male,2022-04-29_14h04.38.596,Boat,2022.1.1,60.11157911953208,
positive,positive,2,l,j,,,,,,,,,2,11,47,11,,,,,,,,,,,,,,,,,,,,,,,,,main,1,1,2,positive,positive,l,l,1,0.7507514999888372,289.3146761999815,290.33551509998506,290.2908559999778,None,289.3146761999815,None,289.3146761999815,None,289.3146761999815,None,291.0518267999927,None,291.0518267999927,None,291.0518267999927,None,,,,,,,,,,,104,22,Male,2022-04-29_14h04.38.596,Boat,2022.1.1,60.11157911953208,
neutral,positive,2,k,k,,,,,,,,,2,12,48,13,,,,,,,,,,,,,,,,,,,,,,,,,main,2,2,2,positive,neutral,k,k,1,0.7854099000105634,291.06978769999114,292.0906541000004,292.0517809999874,None,291.06978769999114,None,291.06978769999114,None,291.06978769999114,None,292.83951889997695,None,292.83951889997695,None,292.83951889997695,None,,,,,,,,,,,104,22,Male,2022-04-29_14h04.38.596,Boat,2022.1.1,60.11157911953208,
neutral,negative,1,k,k,,,,,,,,,2,13,49,7,,,,,,,,,,,,,,,,,,,,,,,,,main,1,1,1,negative,neutral,k,k,1,0.7528442000038922,292.85622769998736,293.8819956999796,293.83542399998987,None,292.85622769998736,None,292.85622769998736,None,292.85622769998736,None,294.5940968999988,None,294.5940968999988,None,294.5940968999988,None,,,,,,,,,,,104,22,Male,2022-04-29_14h04.38.596,Boat,2022.1.1,60.11157911953208,
negative,neutral,1,j,l,,,,,,,,,2,14,50,3,,,,,,,,,,,,,,,,,,,,,,,,,main,2,2,1,neutral,negative,j,j,1,0.8384096999943722,294.60991820000345,295.6243003999989,295.59048399998574,None,294.60991820000345,None,294.60991820000345,None,294.60991820000345,None,296.4363362999924,None,296.4363362999924,None,296.4363362999924,None,,,,,,,,,,,104,22,Male,2022-04-29_14h04.38.596,Boat,2022.1.1,60.11157911953208,
negative,negative,2,j,l,,,,,,,,,2,15,51,9,,,,,,,,,,,,,,,,,,,,,,,,,main,2,2,2,negative,negative,j,j,1,0.7817702000029385,296.4554571000044,297.45830040000146,297.4244309999922,None,296.4554571000044,None,296.4554571000044,None,296.4554571000044,None,298.22110189998637,None,298.22110189998637,None,298.22110189998637,None,,,,,,,,,,,104,22,Male,2022-04-29_14h04.38.596,Boat,2022.1.1,60.11157911953208,
positive,positive,1,l,j,,,,,,,,,2,16,52,2,,,,,,,,,,,,,,,,,,,,,,,,,main,1,1,1,positive,positive,l,l,1,0.758637799997814,298.2397132999904,299.25767259998247,299.21846579998964,None,298.2397132999904,None,298.2397132999904,None,298.2397132999904,None,299.98353579998945,None,299.98353579998945,None,299.98353579998945,None,,,,,,,,,,,104,22,Male,2022-04-29_14h04.38.596,Boat,2022.1.1,60.11157911953208,
positive,neutral,1,l,j,,,,,,,,,2,17,53,8,,,,,,,,,,,,,,,,,,,,,,,,,main,2,2,1,neutral,positive,l,l,1,0.6994357999938074,299.9994926999789,301.0077342999866,300.9738197999832,None,299.9994926999789,None,299.9994926999789,None,299.9994926999789,None,301.6836335999891,None,301.6836335999891,None,301.6836335999891,None,,,,,,,,,,,104,22,Male,2022-04-29_14h04.38.596,Boat,2022.1.1,60.11157911953208,
negative,positive,2,j,l,,,,,,,,,3,0,54,15,,,,,,,,,,,,,,,,,,,,,,,,,main,1,1,2,positive,negative,j,j,1,0.7763846000016201,301.7015740000061,302.715503799991,302.6744722999865,None,301.7015740000061,None,301.7015740000061,None,301.7015740000061,None,303.4622667999996,None,303.4622667999996,None,303.4622667999996,None,,,,,,,,,,,104,22,Male,2022-04-29_14h04.38.596,Boat,2022.1.1,60.11157911953208,
positive,positive,2,l,j,,,,,,,,,3,1,55,11,,,,,,,,,,,,,,,,,,,,,,,,,main,1,1,2,positive,positive,l,l,1,0.6712648999819066,303.47789759997977,304.488552099996,304.4690816999937,None,303.47789759997977,None,303.47789759997977,None,303.47789759997977,None,305.1373784999945,None,305.1373784999945,None,305.1373784999945,None,,,,,,,,,,,104,22,Male,2022-04-29_14h04.38.596,Boat,2022.1.1,60.11157911953208,
negative,neutral,1,j,l,,,,,,,,,3,2,56,3,,,,,,,,,,,,,,,,,,,,,,,,,main,1,1,1,neutral,negative,j,j,1,0.7548449999885634,305.15727389999665,306.1742474999919,306.136128299986,None,305.15727389999665,None,305.15727389999665,None,305.15727389999665,None,306.89332779998074,None,306.89332779998074,None,306.89332779998074,None,,,,,,,,,,,104,22,Male,2022-04-29_14h04.38.596,Boat,2022.1.1,60.11157911953208,
neutral,positive,1,k,k,,,,,,,,,3,3,57,4,,,,,,,,,,,,,,,,,,,,,,,,,main,2,2,1,positive,neutral,k,k,1,0.7863360000192188,306.9096767999872,307.932281699992,307.8908797999902,None,306.9096767999872,None,306.9096767999872,None,306.9096767999872,None,308.68221899998605,None,308.68221899998605,None,308.68221899998605,None,,,,,,,,,,,104,22,Male,2022-04-29_14h04.38.596,Boat,2022.1.1,60.11157911953208,
positive,neutral,2,l,j,,,,,,,,,3,4,58,17,,,,,,,,,,,,,,,,,,,,,,,,,main,2,2,2,neutral,positive,l,l,1,0.7286360000143759,308.6991649999982,309.7161918999918,309.67428519998793,None,308.6991649999982,None,308.6991649999982,None,308.6991649999982,None,310.4125271999859,None,310.4125271999859,None,310.4125271999859,None,,,,,,,,,,,104,22,Male,2022-04-29_14h04.38.596,Boat,2022.1.1,60.11157911953208,
positive,negative,2,l,j,,,,,,,,,3,5,59,14,,,,,,,,,,,,,,,,,,,,,,,,,main,2,2,2,negative,positive,l,l,1,0.6519384999992326,310.42698259997997,311.4416752999823,311.40786539998953,None,310.42698259997997,None,310.42698259997997,None,310.42698259997997,None,312.06838799999093,None,312.06838799999093,None,312.06838799999093,None,,,,,,,,,,,104,22,Male,2022-04-29_14h04.38.596,Boat,2022.1.1,60.11157911953208,
negative,negative,2,j,l,,,,,,,,,3,6,60,9,,,,,,,,,,,,,,,,,,,,,,,,,main,2,2,2,negative,negative,j,j,1,1.2893864999932703,312.0869438999798,313.0922283999971,313.0579390999919,None,312.0869438999798,None,312.0869438999798,None,312.0869438999798,None,314.35904759998664,None,314.35904759998664,None,314.35904759998664,None,,,,,,,,,,,104,22,Male,2022-04-29_14h04.38.596,Boat,2022.1.1,60.11157911953208,
positive,neutral,1,l,j,,,,,,,,,3,7,61,8,,,,,,,,,,,,,,,,,,,,,,,,,main,2,2,1,neutral,positive,l,l,1,0.7071239999786485,314.37473159999354,315.3862966999877,315.36597240000265,None,314.37473159999354,None,314.37473159999354,None,314.37473159999354,None,316.0700891999935,None,316.0700891999935,None,316.0700891999935,None,,,,,,,,,,,104,22,Male,2022-04-29_14h04.38.596,Boat,2022.1.1,60.11157911953208,
neutral,neutral,1,k,k,,,,,,,,,3,8,62,1,,,,,,,,,,,,,,,,,,,,,,,,,main,2,2,1,neutral,neutral,k,k,1,0.6560901000048034,316.0858795999957,317.1023205999809,317.05770020000637,None,316.0858795999957,None,316.0858795999957,None,316.0858795999957,None,317.72606089999897,None,317.72606089999897,None,317.72606089999897,None,,,,,,,,,,,104,22,Male,2022-04-29_14h04.38.596,Boat,2022.1.1,60.11157911953208,
negative,negative,1,j,l,,,,,,,,,3,9,63,0,,,,,,,,,,,,,,,,,,,,,,,,,main,2,2,1,negative,negative,j,k,0,0.5720168999978341,317.7436226999853,318.7691560999956,318.72455959999934,None,317.7436226999853,None,317.7436226999853,None,317.7436226999853,None,319.3116306999873,None,319.3116306999873,None,319.3116306999873,None,,,,,,,,,,,104,22,Male,2022-04-29_14h04.38.596,Boat,2022.1.1,60.11157911953208,
negative,positive,1,j,l,,,,,,,,,3,10,64,6,,,,,,,,,,,,,,,,,,,,,,,,,main,2,2,1,positive,negative,j,j,1,0.7730475999996997,320.32669069999247,321.34147959999973,321.3223555999866,None,320.32669069999247,None,320.32669069999247,None,320.32669069999247,None,322.0870224000013,None,322.0870224000013,None,322.0870224000013,None,,,,,,,,,,,104,22,Male,2022-04-29_14h04.38.596,Boat,2022.1.1,60.11157911953208,
neutral,negative,2,k,k,,,,,,,,,3,11,65,16,,,,,,,,,,,,,,,,,,,,,,,,,main,1,1,2,negative,neutral,k,k,1,0.8408088999858592,322.1064523999812,323.12472540000454,323.0862316999992,None,322.1064523999812,None,322.1064523999812,None,322.1064523999812,None,323.92875569998284,None,323.92875569998284,None,323.92875569998284,None,,,,,,,,,,,104,22,Male,2022-04-29_14h04.38.596,Boat,2022.1.1,60.11157911953208,
positive,positive,1,l,j,,,,,,,,,3,12,66,2,,,,,,,,,,,,,,,,,,,,,,,,,main,1,1,1,positive,positive,l,l,1,0.7035960000066552,323.945272699988,324.95759390000603,324.9191394999798,None,323.945272699988,None,323.945272699988,None,323.945272699988,None,325.63620939999817,None,325.63620939999817,None,325.63620939999817,None,,,,,,,,,,,104,22,Male,2022-04-29_14h04.38.596,Boat,2022.1.1,60.11157911953208,
positive,negative,1,l,j,,,,,,,,,3,13,67,5,,,,,,,,,,,,,,,,,,,,,,,,,main,2,2,1,negative,positive,l,l,1,0.6587208999844734,325.65653079998447,326.67507120000664,326.6362760000047,None,325.65653079998447,None,325.65653079998447,None,325.65653079998447,None,327.2966884999827,None,327.2966884999827,None,327.2966884999827,None,,,,,,,,,,,104,22,Male,2022-04-29_14h04.38.596,Boat,2022.1.1,60.11157911953208,
neutral,negative,1,k,k,,,,,,,,,3,14,68,7,,,,,,,,,,,,,,,,,,,,,,,,,main,1,1,1,negative,neutral,k,k,1,0.8474937999853864,327.3137609999976,328.3270814999996,328.2915785999794,None,327.3137609999976,None,327.3137609999976,None,327.3137609999976,None,329.1472265999822,None,329.1472265999822,None,329.1472265999822,None,,,,,,,,,,,104,22,Male,2022-04-29_14h04.38.596,Boat,2022.1.1,60.11157911953208,
neutral,positive,2,k,k,,,,,,,,,3,15,69,13,,,,,,,,,,,,,,,,,,,,,,,,,main,2,2,2,positive,neutral,k,k,1,0.7189432999875862,329.1638490000041,330.1693028000009,330.14943219997804,None,329.1638490000041,None,329.1638490000041,None,329.1638490000041,None,330.8707619999826,None,330.8707619999826,None,330.8707619999826,None,,,,,,,,,,,104,22,Male,2022-04-29_14h04.38.596,Boat,2022.1.1,60.11157911953208,
negative,neutral,2,j,l,,,,,,,,,3,16,70,12,,,,,,,,,,,,,,,,,,,,,,,,,main,1,1,2,neutral,negative,j,j,1,0.8086534999893047,330.89067579997936,331.8917931999895,331.87479289999465,None,330.89067579997936,None,330.89067579997936,None,330.89067579997936,None,332.6800855999812,None,332.6800855999812,None,332.6800855999812,None,,,,,,,,,,,104,22,Male,2022-04-29_14h04.38.596,Boat,2022.1.1,60.11157911953208,
neutral,neutral,2,k,k,,,,,,,,,3,17,71,10,,,,,,,,,,,,,,,,,,,,,,,,,main,2,2,2,neutral,neutral,k,k,1,0.6456273999938276,332.69580009998754,333.7085100999975,333.6694418999832,None,332.69580009998754,None,332.69580009998754,None,332.69580009998754,None,334.32818540000005,None,334.32818540000005,None,334.32818540000005,None,,,,,,,,,,,104,22,Male,2022-04-29_14h04.38.596,Boat,2022.1.1,60.11157911953208,
negative,neutral,1,j,l,,,,,,,,,4,0,72,3,,,,,,,,,,,,,,,,,,,,,,,,,main,2,2,1,neutral,negative,j,j,1,0.7811404000094626,334.34600359998876,335.3666102999996,335.3253698000044,None,334.34600359998876,None,334.34600359998876,None,334.34600359998876,None,336.11163969999177,None,336.11163969999177,None,336.11163969999177,None,,,,,,,,,,,104,22,Male,2022-04-29_14h04.38.596,Boat,2022.1.1,60.11157911953208,
neutral,neutral,2,k,k,,,,,,,,,4,1,73,10,,,,,,,,,,,,,,,,,,,,,,,,,main,2,2,2,neutral,neutral,k,k,1,0.665881699998863,336.1280501000001,337.1495900999871,337.1080823999946,None,336.1280501000001,None,336.1280501000001,None,336.1280501000001,None,337.78123050000283,None,337.78123050000283,None,337.78123050000283,None,,,,,,,,,,,104,22,Male,2022-04-29_14h04.38.596,Boat,2022.1.1,60.11157911953208,
positive,neutral,1,l,j,,,,,,,,,4,2,74,8,,,,,,,,,,,,,,,,,,,,,,,,,main,2,2,1,neutral,positive,l,l,1,0.7785208999994211,337.7961910000013,338.8031977999781,338.8031977999781,None,337.7961910000013,None,337.7961910000013,None,337.7961910000013,None,339.5602004999877,None,339.5602004999877,None,339.5602004999877,None,,,,,,,,,,,104,22,Male,2022-04-29_14h04.38.596,Boat,2022.1.1,60.11157911953208,
neutral,negative,2,k,k,,,,,,,,,4,3,75,16,,,,,,,,,,,,,,,,,,,,,,,,,main,1,1,2,negative,neutral,k,k,1,0.7652610000222921,339.5769435999973,340.5863765999966,340.56670749999466,None,339.5769435999973,None,339.5769435999973,None,339.5769435999973,None,341.3281001999916,None,341.3281001999916,None,341.3281001999916,None,,,,,,,,,,,104,22,Male,2022-04-29_14h04.38.596,Boat,2022.1.1,60.11157911953208,
neutral,negative,1,k,k,,,,,,,,,4,4,76,7,,,,,,,,,,,,,,,,,,,,,,,,,main,1,1,1,negative,neutral,k,k,1,0.7156772000016645,341.3460926999978,342.36655710000196,342.32526650000364,None,341.3460926999978,None,341.3460926999978,None,341.3460926999978,None,343.04792369998756,None,343.04792369998756,None,343.04792369998756,None,,,,,,,,,,,104,22,Male,2022-04-29_14h04.38.596,Boat,2022.1.1,60.11157911953208,
negative,negative,2,j,l,,,,,,,,,4,5,77,9,,,,,,,,,,,,,,,,,,,,,,,,,main,2,2,2,negative,negative,j,j,1,0.7659999000024982,343.06333549998817,344.07501549998415,344.05665959999897,None,343.06333549998817,None,343.06333549998817,None,343.06333549998817,None,344.8164587999985,None,344.8164587999985,None,344.8164587999985,None,,,,,,,,,,,104,22,Male,2022-04-29_14h04.38.596,Boat,2022.1.1,60.11157911953208,
positive,positive,2,l,j,,,,,,,,,4,6,78,11,,,,,,,,,,,,,,,,,,,,,,,,,main,1,1,2,positive,positive,l,l,1,0.7596043999947142,344.83372159997816,345.8507619999873,345.8081888000015,None,344.83372159997816,None,344.83372159997816,None,344.83372159997816,None,346.5778797000006,None,346.5778797000006,None,346.5778797000006,None,,,,,,,,,,,104,22,Male,2022-04-29_14h04.38.596,Boat,2022.1.1,60.11157911953208,
positive,neutral,2,l,j,,,,,,,,,4,7,79,17,,,,,,,,,,,,,,,,,,,,,,,,,main,2,2,2,neutral,positive,l,l,1,0.7337050999922212,346.5955436999793,347.60852189999423,347.57263179999427,None,346.5955436999793,None,346.5955436999793,None,346.5955436999793,None,348.31517100000053,None,348.31517100000053,None,348.31517100000053,None,,,,,,,,,,,104,22,Male,2022-04-29_14h04.38.596,Boat,2022.1.1,60.11157911953208,
negative,negative,1,j,l,,,,,,,,,4,8,80,0,,,,,,,,,,,,,,,,,,,,,,,,,main,1,1,1,negative,negative,j,j,1,1.1898452000168618,348.3350833999866,349.3530247999879,349.3063841999974,None,348.3350833999866,None,348.3350833999866,None,348.3350833999866,None,350.5087076999829,None,350.5087076999829,None,350.5087076999829,None,,,,,,,,,,,104,22,Male,2022-04-29_14h04.38.596,Boat,2022.1.1,60.11157911953208,
positive,positive,1,l,j,,,,,,,,,4,9,81,2,,,,,,,,,,,,,,,,,,,,,,,,,main,2,2,1,positive,positive,l,l,1,0.7095525999902748,350.52391649998026,351.52558449999196,351.5085969000065,None,350.52391649998026,None,350.52391649998026,None,350.52391649998026,None,352.22196040000415,None,352.22196040000415,None,352.22196040000415,None,,,,,,,,,,,104,22,Male,2022-04-29_14h04.38.596,Boat,2022.1.1,60.11157911953208,
negative,positive,2,j,l,,,,,,,,,4,10,82,15,,,,,,,,,,,,,,,,,,,,,,,,,main,2,2,2,positive,negative,j,j,1,0.78909800000838,352.237692900002,353.2418177999789,353.22545739999623,None,352.237692900002,None,352.237692900002,None,352.237692900002,None,354.01156079999635,None,354.01156079999635,None,354.01156079999635,None,,,,,,,,,,,104,22,Male,2022-04-29_14h04.38.596,Boat,2022.1.1,60.11157911953208,
neutral,neutral,1,k,k,,,,,,,,,4,11,83,1,,,,,,,,,,,,,,,,,,,,,,,,,main,2,2,1,neutral,neutral,k,k,1,0.8004207999911159,354.02715710000484,355.0398551999824,355.0203327999916,None,354.02715710000484,None,354.02715710000484,None,354.02715710000484,None,355.8161821999878,None,355.8161821999878,None,355.8161821999878,None,,,,,,,,,,,104,22,Male,2022-04-29_14h04.38.596,Boat,2022.1.1,60.11157911953208,
positive,negative,1,l,j,,,,,,,,,4,12,84,5,,,,,,,,,,,,,,,,,,,,,,,,,main,2,2,1,negative,positive,l,l,1,0.7885554999811575,355.8315466000058,356.83726959998603,356.83726959998603,None,355.8315466000058,None,355.8315466000058,None,355.8315466000058,None,357.60694309999815,None,357.60694309999815,None,357.60694309999815,None,,,,,,,,,,,104,22,Male,2022-04-29_14h04.38.596,Boat,2022.1.1,60.11157911953208,
negative,positive,1,j,l,,,,,,,,,4,13,85,6,,,,,,,,,,,,,,,,,,,,,,,,,main,2,2,1,positive,negative,j,j,1,1.7538543999835383,357.6241036999854,358.62535610000486,358.60861910000676,None,357.6241036999854,None,357.6241036999854,None,357.6241036999854,None,360.3683639999945,None,360.3683639999945,None,360.3683639999945,None,,,,,,,,,,,104,22,Male,2022-04-29_14h04.38.596,Boat,2022.1.1,60.11157911953208,
positive,negative,2,l,j,,,,,,,,,4,14,86,14,,,,,,,,,,,,,,,,,,,,,,,,,main,1,1,2,negative,positive,l,l,1,0.7492872000148054,361.3773550000042,362.3893214999989,362.3699270999932,None,361.3773550000042,None,361.3773550000042,None,361.3773550000042,None,363.11267599999553,None,363.11267599999553,None,363.11267599999553,None,,,,,,,,,,,104,22,Male,2022-04-29_14h04.38.596,Boat,2022.1.1,60.11157911953208,
negative,neutral,2,j,l,,,,,,,,,4,15,87,12,,,,,,,,,,,,,,,,,,,,,,,,,main,1,1,2,neutral,negative,j,j,1,0.7602244000008795,363.1288913000026,364.150688099995,364.10872190000373,None,363.1288913000026,None,363.1288913000026,None,363.1288913000026,None,364.87541610000187,None,364.87541610000187,None,364.87541610000187,None,,,,,,,,,,,104,22,Male,2022-04-29_14h04.38.596,Boat,2022.1.1,60.11157911953208,
neutral,positive,2,k,k,,,,,,,,,4,16,88,13,,,,,,,,,,,,,,,,,,,,,,,,,main,1,1,2,positive,neutral,k,k,1,0.7213275000103749,364.8919980000064,365.8918311999878,365.8753831999784,None,364.8919980000064,None,364.8919980000064,None,364.8919980000064,None,366.60158459999946,None,366.60158459999946,None,366.60158459999946,None,,,,,,,,,,,104,22,Male,2022-04-29_14h04.38.596,Boat,2022.1.1,60.11157911953208,
neutral,positive,1,k,k,,,,,,,,,4,17,89,4,,,,,,,,,,,,,,,,,,,,,,,,,main,2,2,1,positive,neutral,k,k,1,0.7662684000097215,366.61760779999895,367.637043499999,367.59197499998845,None,366.61760779999895,None,366.61760779999895,None,366.61760779999895,None,368.3699092999799,None,368.3699092999799,None,368.3699092999799,None,,,,,,,,,,,104,22,Male,2022-04-29_14h04.38.596,Boat,2022.1.1,60.11157911953208,
positive,positive,2,l,j,,,,,,,,,5,0,90,11,,,,,,,,,,,,,,,,,,,,,,,,,main,1,1,2,positive,positive,l,l,1,0.6947730999963824,368.3861600999953,369.3947614999779,369.35876269999426,None,368.3861600999953,None,368.3861600999953,None,368.3861600999953,None,370.06723949997684,None,370.06723949997684,None,370.06723949997684,None,,,,,,,,,,,104,22,Male,2022-04-29_14h04.38.596,Boat,2022.1.1,60.11157911953208,
negative,negative,2,j,l,,,,,,,,,5,1,91,9,,,,,,,,,,,,,,,,,,,,,,,,,main,1,1,2,negative,negative,j,j,1,0.7625696999893989,370.0828438999888,371.0923155999917,371.05862699999125,None,370.0828438999888,None,370.0828438999888,None,370.0828438999888,None,371.8309068000002,None,371.8309068000002,None,371.8309068000002,None,,,,,,,,,,,104,22,Male,2022-04-29_14h04.38.596,Boat,2022.1.1,60.11157911953208,
positive,positive,1,l,j,,,,,,,,,5,2,92,2,,,,,,,,,,,,,,,,,,,,,,,,,main,2,2,1,positive,positive,l,l,1,0.7154229000152554,371.84617539998726,372.8670076999988,372.82564729999285,None,371.84617539998726,None,371.84617539998726,None,371.84617539998726,None,373.54833169998017,None,373.54833169998017,None,373.54833169998017,None,,,,,,,,,,,104,22,Male,2022-04-29_14h04.38.596,Boat,2022.1.1,60.11157911953208,
negative,negative,1,j,l,,,,,,,,,5,3,93,0,,,,,,,,,,,,,,,,,,,,,,,,,main,1,1,1,negative,negative,j,j,1,0.785343900002772,373.56473369998275,374.57028129999526,374.55032730000676,None,373.56473369998275,None,373.56473369998275,None,373.56473369998275,None,375.33817149999084,None,375.33817149999084,None,375.33817149999084,None,,,,,,,,,,,104,22,Male,2022-04-29_14h04.38.596,Boat,2022.1.1,60.11157911953208,
neutral,neutral,2,k,k,,,,,,,,,5,4,94,10,,,,,,,,,,,,,,,,,,,,,,,,,main,2,2,2,neutral,neutral,k,k,1,0.7426864000153728,375.35393199999817,376.3676335999917,376.3406180999882,None,375.35393199999817,None,375.35393199999817,None,375.35393199999817,None,377.08291489998226,None,377.08291489998226,None,377.08291489998226,None,,,,,,,,,,,104,22,Male,2022-04-29_14h04.38.596,Boat,2022.1.1,60.11157911953208,
negative,positive,2,j,l,,,,,,,,,5,5,95,15,,,,,,,,,,,,,,,,,,,,,,,,,main,2,2,2,positive,negative,j,j,1,0.8034783000184689,377.0989045999886,378.1069448000053,378.08723979999195,None,377.0989045999886,None,377.0989045999886,None,377.0989045999886,None,378.88911389999555,None,378.88911389999555,None,378.88911389999555,None,,,,,,,,,,,104,22,Male,2022-04-29_14h04.38.596,Boat,2022.1.1,60.11157911953208,
positive,neutral,2,l,j,,,,,,,,,5,6,96,17,,,,,,,,,,,,,,,,,,,,,,,,,main,2,2,2,neutral,positive,l,l,1,0.7193929999775719,378.9077723999799,379.9171607999888,379.8908494999923,None,378.9077723999799,None,378.9077723999799,None,378.9077723999799,None,380.6096246999863,None,380.6096246999863,None,380.6096246999863,None,,,,,,,,,,,104,22,Male,2022-04-29_14h04.38.596,Boat,2022.1.1,60.11157911953208,
negative,neutral,2,j,l,,,,,,,,,5,7,97,12,,,,,,,,,,,,,,,,,,,,,,,,,main,1,1,2,neutral,negative,j,j,1,0.7175197000033222,380.62525549999555,381.6336528999964,381.610248699988,None,380.62525549999555,None,380.62525549999555,None,380.62525549999555,None,382.32955790000267,None,382.32955790000267,None,382.32955790000267,None,,,,,,,,,,,104,22,Male,2022-04-29_14h04.38.596,Boat,2022.1.1,60.11157911953208,
neutral,negative,1,k,k,,,,,,,,,5,8,98,7,,,,,,,,,,,,,,,,,,,,,,,,,main,1,1,1,negative,neutral,k,k,1,0.9996814000187442,382.3451172999921,383.35941549998824,383.3254500000039,None,382.3451172999921,None,382.3451172999921,None,382.3451172999921,None,384.3334132999938,None,384.3334132999938,None,384.3334132999938,None,,,,,,,,,,,104,22,Male,2022-04-29_14h04.38.596,Boat,2022.1.1,60.11157911953208,
positive,negative,2,l,j,,,,,,,,,5,9,99,14,,,,,,,,,,,,,,,,,,,,,,,,,main,1,1,2,negative,positive,l,l,1,0.6528964999888558,384.3484096000029,385.35929699998815,385.3412979999848,None,384.3484096000029,None,384.3484096000029,None,384.3484096000029,None,385.9883997999772,None,385.9883997999772,None,385.9883997999772,None,,,,,,,,,,,104,22,Male,2022-04-29_14h04.38.596,Boat,2022.1.1,60.11157911953208,
neutral,positive,1,k,k,,,,,,,,,5,10,100,4,,,,,,,,,,,,,,,,,,,,,,,,,main,1,1,1,positive,neutral,k,k,1,0.6686461000062991,386.00858799999696,387.0175257999799,386.9760944999871,None,386.00858799999696,None,386.00858799999696,None,386.00858799999696,None,387.65931709998983,None,387.65931709998983,None,387.65931709998983,None,,,,,,,,,,,104,22,Male,2022-04-29_14h04.38.596,Boat,2022.1.1,60.11157911953208,
negative,positive,1,j,l,,,,,,,,,5,11,101,6,,,,,,,,,,,,,,,,,,,,,,,,,main,1,1,1,positive,negative,j,j,1,0.8089201000111643,387.674614699994,388.690717999998,388.67120739998063,None,387.674614699994,None,387.674614699994,None,387.674614699994,None,389.4721429999976,None,389.4721429999976,None,389.4721429999976,None,,,,,,,,,,,104,22,Male,2022-04-29_14h04.38.596,Boat,2022.1.1,60.11157911953208,
neutral,positive,2,k,k,,,,,,,,,5,12,102,13,,,,,,,,,,,,,,,,,,,,,,,,,main,2,2,2,positive,neutral,k,k,1,1.2104878000100143,389.48896799999056,390.49273019999964,390.4758676000056,None,389.48896799999056,None,389.48896799999056,None,389.48896799999056,None,391.6858417999814,None,391.6858417999814,None,391.6858417999814,None,,,,,,,,,,,104,22,Male,2022-04-29_14h04.38.596,Boat,2022.1.1,60.11157911953208,
neutral,neutral,1,k,k,,,,,,,,,5,13,103,1,,,,,,,,,,,,,,,,,,,,,,,,,main,2,2,1,neutral,neutral,k,k,1,0.8367518000013661,391.70173969998723,392.7065856999834,392.6875201999792,None,391.70173969998723,None,391.70173969998723,None,391.70173969998723,None,393.52473700000553,None,393.52473700000553,None,393.52473700000553,None,,,,,,,,,,,104,22,Male,2022-04-29_14h04.38.596,Boat,2022.1.1,60.11157911953208,
positive,negative,1,l,j,,,,,,,,,5,14,104,5,,,,,,,,,,,,,,,,,,,,,,,,,main,2,2,1,negative,positive,l,l,1,0.7288167000224348,393.541530699993,394.5455443999963,394.52772600000026,None,393.541530699993,None,393.541530699993,None,393.541530699993,None,395.25826720000475,None,395.25826720000475,None,395.25826720000475,None,,,,,,,,,,,104,22,Male,2022-04-29_14h04.38.596,Boat,2022.1.1,60.11157911953208,
positive,neutral,1,l,j,,,,,,,,,5,15,105,8,,,,,,,,,,,,,,,,,,,,,,,,,main,2,2,1,neutral,positive,l,l,1,0.736345799989067,395.27583139998023,396.27626630000304,396.2594908000028,None,395.27583139998023,None,395.27583139998023,None,395.27583139998023,None,396.99785619998,None,396.99785619998,None,396.99785619998,None,,,,,,,,,,,104,22,Male,2022-04-29_14h04.38.596,Boat,2022.1.1,60.11157911953208,
negative,neutral,1,j,l,,,,,,,,,5,16,106,3,,,,,,,,,,,,,,,,,,,,,,,,,main,1,1,1,neutral,negative,j,j,1,0.863456999999471,397.0148767000064,398.0264956000028,397.98988649999956,None,397.0148767000064,None,397.0148767000064,None,397.0148767000064,None,398.864441899996,None,398.864441899996,None,398.864441899996,None,,,,,,,,,,,104,22,Male,2022-04-29_14h04.38.596,Boat,2022.1.1,60.11157911953208,
neutral,negative,2,k,k,,,,,,,,,5,17,107,16,,,,,,,,,,,,,,,,,,,,,,,,,main,2,2,2,negative,neutral,k,k,1,0.6980305000033695,398.8814466999902,399.887358899985,399.86794830000144,None,398.8814466999902,None,398.8814466999902,None,398.8814466999902,None,400.56483309998873,None,400.56483309998873,None,400.56483309998873,None,,,,,,,,,,,104,22,Male,2022-04-29_14h04.38.596,Boat,2022.1.1,60.11157911953208,
negative,negative,2,j,l,,,,,,,,,6,0,108,9,,,,,,,,,,,,,,,,,,,,,,,,,main,2,2,2,negative,negative,j,j,1,0.7636670999927446,400.5814575999975,401.590770299983,401.57135579999886,None,400.5814575999975,None,400.5814575999975,None,400.5814575999975,None,402.3330781000026,None,402.3330781000026,None,402.3330781000026,None,,,,,,,,,,,104,22,Male,2022-04-29_14h04.38.596,Boat,2022.1.1,60.11157911953208,
negative,positive,2,j,l,,,,,,,,,6,1,109,15,,,,,,,,,,,,,,,,,,,,,,,,,main,1,1,2,positive,negative,j,j,1,0.7037297000060789,402.34854330000235,403.3709913000057,403.35143609999795,None,402.34854330000235,None,402.34854330000235,None,402.34854330000235,None,404.0392536999774,None,404.0392536999774,None,404.0392536999774,None,,,,,,,,,,,104,22,Male,2022-04-29_14h04.38.596,Boat,2022.1.1,60.11157911953208,
negative,positive,1,j,l,,,,,,,,,6,2,110,6,,,,,,,,,,,,,,,,,,,,,,,,,main,2,2,1,positive,negative,j,k,0,0.8738729000033345,404.0588477999845,405.05966909998097,405.04290599998785,None,404.0588477999845,None,404.0588477999845,None,404.0588477999845,None,405.92139000000316,None,405.92139000000316,None,405.92139000000316,None,,,,,,,,,,,104,22,Male,2022-04-29_14h04.38.596,Boat,2022.1.1,60.11157911953208,
negative,negative,1,j,l,,,,,,,,,6,3,111,0,,,,,,,,,,,,,,,,,,,,,,,,,main,1,1,1,negative,negative,j,j,1,0.8994632999820169,406.92838830000255,407.9375222999952,407.9177787999797,None,406.92838830000255,None,406.92838830000255,None,406.92838830000255,None,408.81348560000185,None,408.81348560000185,None,408.81348560000185,None,,,,,,,,,,,104,22,Male,2022-04-29_14h04.38.596,Boat,2022.1.1,60.11157911953208,
neutral,positive,2,k,k,,,,,,,,,6,4,112,13,,,,,,,,,,,,,,,,,,,,,,,,,main,2,2,2,positive,neutral,k,k,1,0.6656946999719366,408.82942140000523,409.8430163000012,409.8081421999959,None,408.82942140000523,None,408.82942140000523,None,408.82942140000523,None,410.4818300999817,None,410.4818300999817,None,410.4818300999817,None,,,,,,,,,,,104,22,Male,2022-04-29_14h04.38.596,Boat,2022.1.1,60.11157911953208,
negative,neutral,1,j,l,,,,,,,,,6,5,113,3,,,,,,,,,,,,,,,,,,,,,,,,,main,1,1,1,neutral,negative,j,j,1,0.7486730999953579,410.4981942999875,411.5100842999818,411.4761881000013,None,410.4981942999875,None,410.4981942999875,None,410.4981942999875,None,412.2344053000037,None,412.2344053000037,None,412.2344053000037,None,,,,,,,,,,,104,22,Male,2022-04-29_14h04.38.596,Boat,2022.1.1,60.11157911953208,
positive,positive,2,l,j,,,,,,,,,6,6,114,11,,,,,,,,,,,,,,,,,,,,,,,,,main,2,2,2,positive,positive,l,l,1,0.7011919999786187,412.25342699998873,413.2577342999866,413.23779909999575,None,412.25342699998873,None,412.25342699998873,None,412.25342699998873,None,413.93750350000334,None,413.93750350000334,None,413.93750350000334,None,,,,,,,,,,,104,22,Male,2022-04-29_14h04.38.596,Boat,2022.1.1,60.11157911953208,
neutral,negative,2,k,k,,,,,,,,,6,7,115,16,,,,,,,,,,,,,,,,,,,,,,,,,main,1,1,2,negative,neutral,k,k,1,1.1986162000102922,413.95430569999735,414.9711546000035,414.92632629998843,None,413.95430569999735,None,413.95430569999735,None,413.95430569999735,None,416.1395797999925,None,416.1395797999925,None,416.1395797999925,None,,,,,,,,,,,104,22,Male,2022-04-29_14h04.38.596,Boat,2022.1.1,60.11157911953208,
positive,neutral,1,l,j,,,,,,,,,6,8,116,8,,,,,,,,,,,,,,,,,,,,,,,,,main,1,1,1,neutral,positive,l,l,1,0.8040884000074584,416.1548436000012,417.15712899999926,417.1380489000003,None,416.1548436000012,None,416.1548436000012,None,416.1548436000012,None,417.94446989999267,None,417.94446989999267,None,417.94446989999267,None,,,,,,,,,,,104,22,Male,2022-04-29_14h04.38.596,Boat,2022.1.1,60.11157911953208,
neutral,neutral,1,k,k,,,,,,,,,6,9,117,1,,,,,,,,,,,,,,,,,,,,,,,,,main,1,1,1,neutral,neutral,k,k,1,0.6308068000071216,417.9599340999848,418.9595402999839,418.94288059999235,None,417.9599340999848,None,417.9599340999848,None,417.9599340999848,None,419.5775606999872,None,419.5775606999872,None,419.5775606999872,None,,,,,,,,,,,104,22,Male,2022-04-29_14h04.38.596,Boat,2022.1.1,60.11157911953208,
positive,negative,1,l,j,,,,,,,,,6,10,118,5,,,,,,,,,,,,,,,,,,,,,,,,,main,2,2,1,negative,positive,l,l,1,0.7119170000078157,419.5933151000063,420.60125629999675,420.5765611999959,None,419.5933151000063,None,419.5933151000063,None,419.5933151000063,None,421.2931467999937,None,421.2931467999937,None,421.2931467999937,None,,,,,,,,,,,104,22,Male,2022-04-29_14h04.38.596,Boat,2022.1.1,60.11157911953208,
positive,negative,2,l,j,,,,,,,,,6,11,119,14,,,,,,,,,,,,,,,,,,,,,,,,,main,2,2,2,negative,positive,l,l,1,0.6558286999934353,421.3083942999947,422.3264515000046,422.28792989999056,None,421.3083942999947,None,421.3083942999947,None,421.3083942999947,None,422.9527503000048,None,422.9527503000048,None,422.9527503000048,None,,,,,,,,,,,104,22,Male,2022-04-29_14h04.38.596,Boat,2022.1.1,60.11157911953208,
neutral,negative,1,k,k,,,,,,,,,6,12,120,7,,,,,,,,,,,,,,,,,,,,,,,,,main,2,2,1,negative,neutral,k,k,1,0.6896806999866385,422.9690641000052,423.9783632000035,423.960889399983,None,422.9690641000052,None,422.9690641000052,None,422.9690641000052,None,424.64359379999803,None,424.64359379999803,None,424.64359379999803,None,,,,,,,,,,,104,22,Male,2022-04-29_14h04.38.596,Boat,2022.1.1,60.11157911953208,
positive,neutral,2,l,j,,,,,,,,,6,13,121,17,,,,,,,,,,,,,,,,,,,,,,,,,main,2,2,2,neutral,positive,l,l,1,0.7471203999884892,424.65858930000104,425.6747946999967,425.65504109999165,None,424.65858930000104,None,424.65858930000104,None,424.65858930000104,None,426.3934008999844,None,426.3934008999844,None,426.3934008999844,None,,,,,,,,,,,104,22,Male,2022-04-29_14h04.38.596,Boat,2022.1.1,60.11157911953208,
positive,positive,1,l,j,,,,,,,,,6,14,122,2,,,,,,,,,,,,,,,,,,,,,,,,,main,2,2,1,positive,positive,l,l,1,0.6668682999734301,426.4088768999791,427.43519570000353,427.38847409997834,None,426.4088768999791,None,426.4088768999791,None,426.4088768999791,None,428.0617441999842,None,428.0617441999842,None,428.0617441999842,None,,,,,,,,,,,104,22,Male,2022-04-29_14h04.38.596,Boat,2022.1.1,60.11157911953208,
neutral,neutral,2,k,k,,,,,,,,,6,15,123,10,,,,,,,,,,,,,,,,,,,,,,,,,main,2,2,2,neutral,neutral,k,k,1,0.726963799999794,428.0781855999958,429.0944380000001,429.0601059999899,None,428.0781855999958,None,428.0781855999958,None,428.0781855999958,None,429.7927133999823,None,429.7927133999823,None,429.7927133999823,None,,,,,,,,,,,104,22,Male,2022-04-29_14h04.38.596,Boat,2022.1.1,60.11157911953208,
neutral,positive,1,k,k,,,,,,,,,6,16,124,4,,,,,,,,,,,,,,,,,,,,,,,,,main,2,2,1,positive,neutral,k,k,1,1.580658000020776,429.8085316999932,430.8241203999787,430.8052494000003,None,429.8085316999932,None,429.8085316999932,None,429.8085316999932,None,432.38034979999065,None,432.38034979999065,None,432.38034979999065,None,,,,,,,,,,,104,22,Male,2022-04-29_14h04.38.596,Boat,2022.1.1,60.11157911953208,
negative,neutral,2,j,l,,,,,,,,,6,17,125,12,,,,,,,,,,,,,,,,,,,,,,,,,main,1,1,2,neutral,negative,j,j,1,0.8301691000233404,433.39514579999377,434.4120977999992,434.3764528000029,None,433.39514579999377,None,433.39514579999377,None,433.39514579999377,None,435.2115940999996,None,435.2115940999996,None,435.2115940999996,None,,,,,,,,,,,104,22,Male,2022-04-29_14h04.38.596,Boat,2022.1.1,60.11157911953208,
negative,positive,2,j,l,,,,,,,,,7,0,126,15,,,,,,,,,,,,,,,,,,,,,,,,,main,2,2,2,positive,negative,j,j,1,0.7341643999970984,435.2291308999993,436.2520419000066,436.2055727999832,None,435.2291308999993,None,435.2291308999993,None,435.2291308999993,None,436.94975829998145,None,436.94975829998145,None,436.94975829998145,None,,,,,,,,,,,104,22,Male,2022-04-29_14h04.38.596,Boat,2022.1.1,60.11157911953208,
neutral,positive,1,k,k,,,,,,,,,7,1,127,4,,,,,,,,,,,,,,,,,,,,,,,,,main,1,1,1,positive,neutral,k,k,1,0.830598899978213,436.9664716999978,437.9712179999915,437.9712179999915,None,436.9664716999978,None,436.9664716999978,None,436.9664716999978,None,438.7813063999987,None,438.7813063999987,None,438.7813063999987,None,,,,,,,,,,,104,22,Male,2022-04-29_14h04.38.596,Boat,2022.1.1,60.11157911953208,
positive,negative,1,l,j,,,,,,,,,7,2,128,5,,,,,,,,,,,,,,,,,,,,,,,,,main,2,2,1,negative,positive,l,l,1,0.7532585000153631,438.79766919999383,439.8181901999924,439.7771587999887,None,438.79766919999383,None,438.79766919999383,None,438.79766919999383,None,440.53845329999456,None,440.53845329999456,None,440.53845329999456,None,,,,,,,,,,,104,22,Male,2022-04-29_14h04.38.596,Boat,2022.1.1,60.11157911953208,
negative,positive,1,j,l,,,,,,,,,7,3,129,6,,,,,,,,,,,,,,,,,,,,,,,,,main,1,1,1,positive,negative,j,j,1,0.734056099987356,440.55742860000464,441.56029789999593,441.5409651999944,None,440.55742860000464,None,440.55742860000464,None,440.55742860000464,None,442.2749564999889,None,442.2749564999889,None,442.2749564999889,None,,,,,,,,,,,104,22,Male,2022-04-29_14h04.38.596,Boat,2022.1.1,60.11157911953208,
neutral,neutral,2,k,k,,,,,,,,,7,4,130,10,,,,,,,,,,,,,,,,,,,,,,,,,main,2,2,2,neutral,neutral,k,k,1,0.6958178999775555,442.29276449998724,443.3124298999901,443.27444429998286,None,442.29276449998724,None,442.29276449998724,None,442.29276449998724,None,443.9741792999906,None,443.9741792999906,None,443.9741792999906,None,,,,,,,,,,,104,22,Male,2022-04-29_14h04.38.596,Boat,2022.1.1,60.11157911953208,
positive,neutral,1,l,j,,,,,,,,,7,5,131,8,,,,,,,,,,,,,,,,,,,,,,,,,main,1,1,1,neutral,positive,l,l,1,0.7096376999979839,443.9924335999822,445.00793809999595,444.968315599981,None,443.9924335999822,None,443.9924335999822,None,443.9924335999822,None,445.6863731999823,None,445.6863731999823,None,445.6863731999823,None,,,,,,,,,,,104,22,Male,2022-04-29_14h04.38.596,Boat,2022.1.1,60.11157911953208,
neutral,positive,2,k,k,,,,,,,,,7,6,132,13,,,,,,,,,,,,,,,,,,,,,,,,,main,2,2,2,positive,neutral,k,k,1,0.7374263000092469,445.7026618999953,446.7108407999913,446.69105189997936,None,445.7026618999953,None,445.7026618999953,None,445.7026618999953,None,447.4257201999775,None,447.4257201999775,None,447.4257201999775,None,,,,,,,,,,,104,22,Male,2022-04-29_14h04.38.596,Boat,2022.1.1,60.11157911953208,
positive,negative,2,l,j,,,,,,,,,7,7,133,14,,,,,,,,,,,,,,,,,,,,,,,,,main,1,1,2,negative,positive,l,l,1,0.7580599999928381,447.44232919998467,448.4441406999831,448.42760199998156,None,447.44232919998467,None,447.44232919998467,None,447.44232919998467,None,449.18703209999364,None,449.18703209999364,None,449.18703209999364,None,,,,,,,,,,,104,22,Male,2022-04-29_14h04.38.596,Boat,2022.1.1,60.11157911953208,
positive,positive,2,l,j,,,,,,,,,7,8,134,11,,,,,,,,,,,,,,,,,,,,,,,,,main,2,2,2,positive,positive,l,l,1,0.6778900999925099,449.2030097999959,450.21073689998593,450.19098650000524,None,449.2030097999959,None,449.2030097999959,None,449.2030097999959,None,450.865475999983,None,450.865475999983,None,450.865475999983,None,,,,,,,,,,,104,22,Male,2022-04-29_14h04.38.596,Boat,2022.1.1,60.11157911953208,
positive,positive,1,l,j,,,,,,,,,7,9,135,2,,,,,,,,,,,,,,,,,,,,,,,,,main,1,1,1,positive,positive,l,l,1,0.6338156000128947,450.88178599998355,451.89386879999074,451.85513949999586,None,450.88178599998355,None,450.88178599998355,None,450.88178599998355,None,452.5038802999828,None,452.5038802999828,None,452.5038802999828,None,,,,,,,,,,,104,22,Male,2022-04-29_14h04.38.596,Boat,2022.1.1,60.11157911953208,
negative,neutral,2,j,l,,,,,,,,,7,10,136,12,,,,,,,,,,,,,,,,,,,,,,,,,main,2,2,2,neutral,negative,j,j,1,0.8196537000185344,452.5233331999916,453.52711409999756,453.4911709000007,None,452.5233331999916,None,452.5233331999916,None,452.5233331999916,None,454.3250890999974,None,454.3250890999974,None,454.3250890999974,None,,,,,,,,,,,104,22,Male,2022-04-29_14h04.38.596,Boat,2022.1.1,60.11157911953208,
positive,neutral,2,l,j,,,,,,,,,7,11,137,17,,,,,,,,,,,,,,,,,,,,,,,,,main,1,1,2,neutral,positive,l,l,1,0.8154093000048306,454.3425432999793,455.3594902000041,455.3388970999804,None,454.3425432999793,None,454.3425432999793,None,454.3425432999793,None,456.14360149999845,None,456.14360149999845,None,456.14360149999845,None,,,,,,,,,,,104,22,Male,2022-04-29_14h04.38.596,Boat,2022.1.1,60.11157911953208,
negative,negative,1,j,l,,,,,,,,,7,12,138,0,,,,,,,,,,,,,,,,,,,,,,,,,main,2,2,1,negative,negative,j,j,1,0.7094790000119247,456.15959830000065,457.16044310000143,457.14363509998657,None,456.15959830000065,None,456.15959830000065,None,456.15959830000065,None,457.8559923999768,None,457.8559923999768,None,457.8559923999768,None,,,,,,,,,,,104,22,Male,2022-04-29_14h04.38.596,Boat,2022.1.1,60.11157911953208,
neutral,neutral,1,k,k,,,,,,,,,7,13,139,1,,,,,,,,,,,,,,,,,,,,,,,,,main,2,2,1,neutral,neutral,k,k,1,0.8195643999788444,457.8739081999811,458.8769973999879,458.8606473999971,None,457.8739081999811,None,457.8739081999811,None,457.8739081999811,None,459.67797329999155,None,459.67797329999155,None,459.67797329999155,None,,,,,,,,,,,104,22,Male,2022-04-29_14h04.38.596,Boat,2022.1.1,60.11157911953208,
negative,neutral,1,j,l,,,,,,,,,7,14,140,3,,,,,,,,,,,,,,,,,,,,,,,,,main,2,2,1,neutral,negative,j,j,1,0.7792924999957904,459.6935589000059,460.7692341999791,460.7430981999787,None,459.6935589000059,None,459.6935589000059,None,459.6935589000059,None,461.45862379999596,None,461.45862379999596,None,461.45862379999596,None,,,,,,,,,,,104,22,Male,2022-04-29_14h04.38.596,Boat,2022.1.1,60.11157911953208,
neutral,negative,1,k,k,,,,,,,,,7,15,141,7,,,,,,,,,,,,,,,,,,,,,,,,,main,1,1,1,negative,neutral,k,k,1,0.7104545999900438,461.4761140999908,462.47739419998834,462.4607819999801,None,461.4761140999908,None,461.4761140999908,None,461.4761140999908,None,463.17408639999337,None,463.17408639999337,None,463.17408639999337,None,,,,,,,,,,,104,22,Male,2022-04-29_14h04.38.596,Boat,2022.1.1,60.11157911953208,
neutral,negative,2,k,k,,,,,,,,,7,16,142,16,,,,,,,,,,,,,,,,,,,,,,,,,main,2,2,2,negative,neutral,k,k,1,0.8113675000204239,463.1901728999801,464.1942778999801,464.1780417999835,None,463.1901728999801,None,463.1901728999801,None,463.1901728999801,None,464.9880685999873,None,464.9880685999873,None,464.9880685999873,None,,,,,,,,,,,104,22,Male,2022-04-29_14h04.38.596,Boat,2022.1.1,60.11157911953208,
negative,negative,2,j,l,,,,,,,,,7,17,143,9,,,,,,,,,,,,,,,,,,,,,,,,,main,2,2,2,negative,negative,j,j,1,0.7970684000174515,465.0042521999858,466.0111917000031,465.994718300004,None,465.0042521999858,None,465.0042521999858,None,465.0042521999858,None,466.7878992999962,None,466.7878992999962,None,466.7878992999962,None,,,,,,,,,,,104,22,Male,2022-04-29_14h04.38.596,Boat,2022.1.1,60.11157911953208,
positive,neutral,1,l,j,,,,,,,,,8,0,144,8,,,,,,,,,,,,,,,,,,,,,,,,,main,1,1,1,neutral,positive,l,l,1,0.7685071999731008,466.8063357999781,467.81252320000203,467.7773757999821,None,466.8063357999781,None,466.8063357999781,None,466.8063357999781,None,468.5591188999882,None,468.5591188999882,None,468.5591188999882,None,,,,,,,,,,,104,22,Male,2022-04-29_14h04.38.596,Boat,2022.1.1,60.11157911953208,
positive,positive,2,l,j,,,,,,,,,8,1,145,11,,,,,,,,,,,,,,,,,,,,,,,,,main,1,1,2,positive,positive,l,l,1,0.6708827999827918,468.57655209998484,469.59408079998684,469.5583246999886,None,468.57655209998484,None,468.57655209998484,None,468.57655209998484,None,470.2309502000047,None,470.2309502000047,None,470.2309502000047,None,,,,,,,,,,,104,22,Male,2022-04-29_14h04.38.596,Boat,2022.1.1,60.11157911953208,
negative,positive,2,j,l,,,,,,,,,8,2,146,15,,,,,,,,,,,,,,,,,,,,,,,,,main,2,2,2,positive,negative,j,j,1,0.7871908000088297,470.24665479999385,471.2627416999894,471.22873569998774,None,470.24665479999385,None,470.24665479999385,None,470.24665479999385,None,472.02252659999647,None,472.02252659999647,None,472.02252659999647,None,,,,,,,,,,,104,22,Male,2022-04-29_14h04.38.596,Boat,2022.1.1,60.11157911953208,
negative,positive,1,j,l,,,,,,,,,8,3,147,6,,,,,,,,,,,,,,,,,,,,,,,,,main,2,2,1,positive,negative,j,j,1,0.7086766000138596,472.04128169998876,473.0444923999894,473.0264872999978,None,472.04128169998876,None,472.04128169998876,None,472.04128169998876,None,473.7316803999769,None,473.7316803999769,None,473.7316803999769,None,,,,,,,,,,,104,22,Male,2022-04-29_14h04.38.596,Boat,2022.1.1,60.11157911953208,
neutral,positive,1,k,k,,,,,,,,,8,4,148,4,,,,,,,,,,,,,,,,,,,,,,,,,main,1,1,1,positive,neutral,k,k,1,0.6635485000151675,473.7471966999874,474.7689532999939,474.7276718999783,None,473.7471966999874,None,473.7471966999874,None,473.7471966999874,None,475.39738459999205,None,475.39738459999205,None,475.39738459999205,None,,,,,,,,,,,104,22,Male,2022-04-29_14h04.38.596,Boat,2022.1.1,60.11157911953208,
neutral,negative,1,k,k,,,,,,,,,8,5,149,7,,,,,,,,,,,,,,,,,,,,,,,,,main,2,2,1,negative,neutral,k,k,1,1.5036303999950178,475.4139472999959,476.43586339999456,476.3945695000002,None,475.4139472999959,None,475.4139472999959,None,475.4139472999959,None,477.91135270000086,None,477.91135270000086,None,477.91135270000086,None,,,,,,,,,,,104,22,Male,2022-04-29_14h04.38.596,Boat,2022.1.1,60.11157911953208,
neutral,neutral,2,k,k,,,,,,,,,8,6,150,10,,,,,,,,,,,,,,,,,,,,,,,,,main,2,2,2,neutral,neutral,k,k,1,0.6497610999795143,478.9301021999854,479.95301080000354,479.91135969999596,None,478.9301021999854,None,478.9301021999854,None,478.9301021999854,None,480.5651312999893,None,480.5651312999893,None,480.5651312999893,None,,,,,,,,,,,104,22,Male,2022-04-29_14h04.38.596,Boat,2022.1.1,60.11157911953208,
positive,negative,2,l,j,,,,,,,,,8,7,151,14,,,,,,,,,,,,,,,,,,,,,,,,,main,2,2,2,negative,positive,l,l,1,0.8706862000108231,480.58264589999453,481.6026831000054,481.5610194999899,None,480.58264589999453,None,480.58264589999453,None,480.58264589999453,None,482.4399213999917,None,482.4399213999917,None,482.4399213999917,None,,,,,,,,,,,104,22,Male,2022-04-29_14h04.38.596,Boat,2022.1.1,60.11157911953208,
neutral,negative,2,k,k,,,,,,,,,8,8,152,16,,,,,,,,,,,,,,,,,,,,,,,,,main,2,2,2,negative,neutral,k,k,1,0.6893017000111286,482.45670539999264,483.4613206999784,483.44338049998623,None,482.45670539999264,None,482.45670539999264,None,482.45670539999264,None,484.13076559999024,None,484.13076559999024,None,484.13076559999024,None,,,,,,,,,,,104,22,Male,2022-04-29_14h04.38.596,Boat,2022.1.1,60.11157911953208,
positive,negative,1,l,j,,,,,,,,,8,9,153,5,,,,,,,,,,,,,,,,,,,,,,,,,main,1,1,1,negative,positive,l,l,1,0.7007124999945518,484.146285099996,485.15819259997807,485.13918379999814,None,484.146285099996,None,484.146285099996,None,484.146285099996,None,485.8336441999767,None,485.8336441999767,None,485.8336441999767,None,,,,,,,,,,,104,22,Male,2022-04-29_14h04.38.596,Boat,2022.1.1,60.11157911953208,
negative,neutral,1,j,l,,,,,,,,,8,10,154,3,,,,,,,,,,,,,,,,,,,,,,,,,main,1,1,1,neutral,negative,j,j,1,0.8571368999837432,485.8490329000051,486.86116840000614,486.82315529999323,None,485.8490329000051,None,485.8490329000051,None,485.8490329000051,None,487.694639300002,None,487.694639300002,None,487.694639300002,None,,,,,,,,,,,104,22,Male,2022-04-29_14h04.38.596,Boat,2022.1.1,60.11157911953208,
neutral,neutral,1,k,k,,,,,,,,,8,11,155,1,,,,,,,,,,,,,,,,,,,,,,,,,main,2,2,1,neutral,neutral,k,k,1,0.617712399980519,487.70969749998767,488.7282159999886,488.68929359997855,None,487.70969749998767,None,487.70969749998767,None,487.70969749998767,None,489.3142854999809,None,489.3142854999809,None,489.3142854999809,None,,,,,,,,,,,104,22,Male,2022-04-29_14h04.38.596,Boat,2022.1.1,60.11157911953208,
negative,neutral,2,j,l,,,,,,,,,8,12,156,12,,,,,,,,,,,,,,,,,,,,,,,,,main,2,2,2,neutral,negative,j,j,1,0.7844408999953885,489.330129799986,490.34553120000055,490.30892009998206,None,489.330129799986,None,489.330129799986,None,489.330129799986,None,491.0991873999941,None,491.0991873999941,None,491.0991873999941,None,,,,,,,,,,,104,22,Male,2022-04-29_14h04.38.596,Boat,2022.1.1,60.11157911953208,
negative,negative,1,j,l,,,,,,,,,8,13,157,0,,,,,,,,,,,,,,,,,,,,,,,,,main,2,2,1,negative,negative,j,j,1,0.6479645000072196,491.1177172999887,492.1364638999803,492.09484020000673,None,491.1177172999887,None,491.1177172999887,None,491.1177172999887,None,492.7535621000046,None,492.7535621000046,None,492.7535621000046,None,,,,,,,,,,,104,22,Male,2022-04-29_14h04.38.596,Boat,2022.1.1,60.11157911953208,
neutral,positive,2,k,k,,,,,,,,,8,14,158,13,,,,,,,,,,,,,,,,,,,,,,,,,main,1,1,2,positive,neutral,k,k,1,0.6618081000051461,492.76984880000236,493.7786705000035,493.7451980999904,None,492.76984880000236,None,492.76984880000236,None,492.76984880000236,None,494.41657330000305,None,494.41657330000305,None,494.41657330000305,None,,,,,,,,,,,104,22,Male,2022-04-29_14h04.38.596,Boat,2022.1.1,60.11157911953208,
positive,neutral,2,l,j,,,,,,,,,8,15,159,17,,,,,,,,,,,,,,,,,,,,,,,,,main,2,2,2,neutral,positive,l,l,1,0.6860276999941561,494.4330156999931,495.4449755999958,495.41143340000417,None,494.4330156999931,None,494.4330156999931,None,494.4330156999931,None,496.107173200004,None,496.107173200004,None,496.107173200004,None,,,,,,,,,,,104,22,Male,2022-04-29_14h04.38.596,Boat,2022.1.1,60.11157911953208,
negative,negative,2,j,l,,,,,,,,,8,16,160,9,,,,,,,,,,,,,,,,,,,,,,,,,main,2,2,2,negative,negative,j,j,1,0.7174460000242107,496.1260144999833,497.12903700000606,497.108882200002,None,496.1260144999833,None,496.1260144999833,None,496.1260144999833,None,497.8263532999903,None,497.8263532999903,None,497.8263532999903,None,,,,,,,,,,,104,22,Male,2022-04-29_14h04.38.596,Boat,2022.1.1,60.11157911953208,
positive,positive,1,l,j,,,,,,,,,8,17,161,2,,,,,,,,,,,,,,,,,,,,,,,,,main,2,2,1,positive,positive,l,l,1,0.7550939999928232,497.84329419999267,498.8446022999997,498.8279324999894,None,497.84329419999267,None,497.84329419999267,None,497.84329419999267,None,499.58308879999674,None,499.58308879999674,None,499.58308879999674,None,,,,,,,,,,,104,22,Male,2022-04-29_14h04.38.596,Boat,2022.1.1,60.11157911953208,
negative,neutral,1,j,l,,,,,,,,,9,0,162,3,,,,,,,,,,,,,,,,,,,,,,,,,main,2,2,1,neutral,negative,j,j,1,0.7972280000103638,499.59956579998834,500.61206799998763,500.5778583000065,None,499.59956579998834,None,499.59956579998834,None,499.59956579998834,None,501.3829867999942,None,501.3829867999942,None,501.3829867999942,None,,,,,,,,,,,104,22,Male,2022-04-29_14h04.38.596,Boat,2022.1.1,60.11157911953208,
neutral,negative,1,k,k,,,,,,,,,9,1,163,7,,,,,,,,,,,,,,,,,,,,,,,,,main,1,1,1,negative,neutral,k,k,1,0.6150781000033021,501.39830489997985,502.4120461999846,502.37350369998603,None,501.39830489997985,None,501.39830489997985,None,501.39830489997985,None,503.0018922999792,None,503.0018922999792,None,503.0018922999792,None,,,,,,,,,,,104,22,Male,2022-04-29_14h04.38.596,Boat,2022.1.1,60.11157911953208,
neutral,neutral,1,k,k,,,,,,,,,9,2,164,1,,,,,,,,,,,,,,,,,,,,,,,,,main,1,1,1,neutral,neutral,k,k,1,0.6126141000131611,503.0172414999979,504.02843750000466,504.009216299979,None,503.0172414999979,None,503.0172414999979,None,503.0172414999979,None,504.6149807999958,None,504.6149807999958,None,504.6149807999958,None,,,,,,,,,,,104,22,Male,2022-04-29_14h04.38.596,Boat,2022.1.1,60.11157911953208,
positive,positive,1,l,j,,,,,,,,,9,3,165,2,,,,,,,,,,,,,,,,,,,,,,,,,main,2,2,1,positive,positive,l,l,1,0.7001241999969352,504.6312619999808,505.64239140000427,505.62316550000105,None,504.6312619999808,None,504.6312619999808,None,504.6312619999808,None,506.31946189998996,None,506.31946189998996,None,506.31946189998996,None,,,,,,,,,,,104,22,Male,2022-04-29_14h04.38.596,Boat,2022.1.1,60.11157911953208,
positive,neutral,2,l,j,,,,,,,,,9,4,166,17,,,,,,,,,,,,,,,,,,,,,,,,,main,1,1,2,neutral,positive,l,l,1,0.7512093000113964,506.33767859998625,507.3449207999802,507.32846019999124,None,506.33767859998625,None,506.33767859998625,None,506.33767859998625,None,508.07304399999555,None,508.07304399999555,None,508.07304399999555,None,,,,,,,,,,,104,22,Male,2022-04-29_14h04.38.596,Boat,2022.1.1,60.11157911953208,
neutral,neutral,2,k,k,,,,,,,,,9,5,167,10,,,,,,,,,,,,,,,,,,,,,,,,,main,2,2,2,neutral,neutral,k,k,1,0.7260131000075489,508.0890749999962,509.09483469999395,509.0780423999822,None,508.0890749999962,None,508.0890749999962,None,508.0890749999962,None,509.8011898000026,None,509.8011898000026,None,509.8011898000026,None,,,,,,,,,,,104,22,Male,2022-04-29_14h04.38.596,Boat,2022.1.1,60.11157911953208,
positive,negative,2,l,j,,,,,,,,,9,6,168,14,,,,,,,,,,,,,,,,,,,,,,,,,main,2,2,2,negative,positive,l,l,1,0.6415625000081491,509.81660920000286,510.82791920000454,510.8114535000059,None,509.81660920000286,None,509.81660920000286,None,509.81660920000286,None,511.44492369998477,None,511.44492369998477,None,511.44492369998477,None,,,,,,,,,,,104,22,Male,2022-04-29_14h04.38.596,Boat,2022.1.1,60.11157911953208,
neutral,positive,1,k,k,,,,,,,,,9,7,169,4,,,,,,,,,,,,,,,,,,,,,,,,,main,2,2,1,positive,neutral,k,k,1,0.7033326999808196,511.46015629998874,512.4614440999867,512.4429445999849,None,511.46015629998874,None,511.46015629998874,None,511.46015629998874,None,513.1497573999862,None,513.1497573999862,None,513.1497573999862,None,,,,,,,,,,,104,22,Male,2022-04-29_14h04.38.596,Boat,2022.1.1,60.11157911953208,
positive,neutral,1,l,j,,,,,,,,,9,8,170,8,,,,,,,,,,,,,,,,,,,,,,,,,main,2,2,1,neutral,positive,l,l,1,0.728277899994282,513.1662495000055,514.1869696999784,514.1398166999861,None,513.1662495000055,None,513.1662495000055,None,513.1662495000055,None,514.8808065999823,None,514.8808065999823,None,514.8808065999823,None,,,,,,,,,,,104,22,Male,2022-04-29_14h04.38.596,Boat,2022.1.1,60.11157911953208,
negative,positive,2,j,l,,,,,,,,,9,9,171,15,,,,,,,,,,,,,,,,,,,,,,,,,main,1,1,2,positive,negative,j,j,1,0.7884125999989919,514.8971582999802,515.9092452999903,515.8899107000034,None,514.8971582999802,None,514.8971582999802,None,514.8971582999802,None,516.6733627999841,None,516.6733627999841,None,516.6733627999841,None,,,,,,,,,,,104,22,Male,2022-04-29_14h04.38.596,Boat,2022.1.1,60.11157911953208,
negative,positive,1,j,l,,,,,,,,,9,10,172,6,,,,,,,,,,,,,,,,,,,,,,,,,main,2,2,1,positive,negative,j,j,1,0.759283300023526,516.6892937999801,517.6950768999814,517.6756683999847,None,516.6892937999801,None,516.6892937999801,None,516.6892937999801,None,518.4349776999792,None,518.4349776999792,None,518.4349776999792,None,,,,,,,,,,,104,22,Male,2022-04-29_14h04.38.596,Boat,2022.1.1,60.11157911953208,
positive,negative,1,l,j,,,,,,,,,9,11,173,5,,,,,,,,,,,,,,,,,,,,,,,,,main,2,2,1,negative,positive,l,l,1,0.7659204000083264,518.4498889999813,519.4699783999822,519.4449803000025,None,518.4498889999813,None,518.4498889999813,None,518.4498889999813,None,520.2029695999867,None,520.2029695999867,None,520.2029695999867,None,,,,,,,,,,,104,22,Male,2022-04-29_14h04.38.596,Boat,2022.1.1,60.11157911953208,
neutral,positive,2,k,k,,,,,,,,,9,12,174,13,,,,,,,,,,,,,,,,,,,,,,,,,main,2,2,2,positive,neutral,k,k,1,0.6687733999860939,520.2187542000029,521.2276573999843,521.2071455999976,None,520.2187542000029,None,520.2187542000029,None,520.2187542000029,None,521.8730374999926,None,521.8730374999926,None,521.8730374999926,None,,,,,,,,,,,104,22,Male,2022-04-29_14h04.38.596,Boat,2022.1.1,60.11157911953208,
negative,neutral,2,j,l,,,,,,,,,9,13,175,12,,,,,,,,,,,,,,,,,,,,,,,,,main,2,2,2,neutral,negative,j,j,1,0.7697755000262987,521.8893858999945,522.8958735000051,522.8621858999832,None,521.8893858999945,None,521.8893858999945,None,521.8893858999945,None,523.6451652000018,None,523.6451652000018,None,523.6451652000018,None,,,,,,,,,,,104,22,Male,2022-04-29_14h04.38.596,Boat,2022.1.1,60.11157911953208,
negative,negative,2,j,l,,,,,,,,,9,14,176,9,,,,,,,,,,,,,,,,,,,,,,,,,main,1,1,2,negative,negative,j,j,1,0.7091473999898881,523.661001600005,524.6780791000056,524.6394340999832,None,523.661001600005,None,523.661001600005,None,523.661001600005,None,525.3572845999792,None,525.3572845999792,None,525.3572845999792,None,,,,,,,,,,,104,22,Male,2022-04-29_14h04.38.596,Boat,2022.1.1,60.11157911953208,
neutral,negative,2,k,k,,,,,,,,,9,15,177,16,,,,,,,,,,,,,,,,,,,,,,,,,main,2,2,2,negative,neutral,k,k,1,0.6889235000126064,525.3754173000052,526.3790139000048,526.3621743999829,None,525.3754173000052,None,525.3754173000052,None,525.3754173000052,None,527.0483732999768,None,527.0483732999768,None,527.0483732999768,None,,,,,,,,,,,104,22,Male,2022-04-29_14h04.38.596,Boat,2022.1.1,60.11157911953208,
negative,negative,1,j,l,,,,,,,,,9,16,178,0,,,,,,,,,,,,,,,,,,,,,,,,,main,1,1,1,negative,negative,j,j,1,0.8085544000205118,527.0663892999873,528.089877099992,528.0451080999919,None,527.0663892999873,None,527.0663892999873,None,527.0663892999873,None,528.8621995999769,None,528.8621995999769,None,528.8621995999769,None,,,,,,,,,,,104,22,Male,2022-04-29_14h04.38.596,Boat,2022.1.1,60.11157911953208,
positive,positive,2,l,j,,,,,,,,,9,17,179,11,,,,,,,,,,,,,,,,,,,,,,,,,main,2,2,2,positive,positive,l,l,1,0.6717533999762964,528.8771441999997,529.895597499999,529.8568878999795,None,528.8771441999997,None,528.8771441999997,None,528.8771441999997,None,530.5360945999913,None,530.5360945999913,None,530.5360945999913,None,,,,,,,,,,,104,22,Male,2022-04-29_14h04.38.596,Boat,2022.1.1,60.11157911953208,
negative,neutral,2,j,l,,,,,,,,,10,0,180,12,,,,,,,,,,,,,,,,,,,,,,,,,main,2,2,2,neutral,negative,j,j,1,0.6488975999818649,530.5545639999909,531.5623198999965,531.5280826999806,None,530.5545639999909,None,530.5545639999909,None,530.5545639999909,None,532.188721799996,None,532.188721799996,None,532.188721799996,None,,,,,,,,,,,104,22,Male,2022-04-29_14h04.38.596,Boat,2022.1.1,60.11157911953208,
neutral,neutral,2,k,k,,,,,,,,,10,1,181,10,,,,,,,,,,,,,,,,,,,,,,,,,main,2,2,2,neutral,neutral,k,k,1,0.6330561999930069,532.2038146999839,533.2234983999806,533.1794067999872,None,532.2038146999839,None,532.2038146999839,None,532.2038146999839,None,533.8238288999768,None,533.8238288999768,None,533.8238288999768,None,,,,,,,,,,,104,22,Male,2022-04-29_14h04.38.596,Boat,2022.1.1,60.11157911953208,
negative,positive,2,j,l,,,,,,,,,10,2,182,15,,,,,,,,,,,,,,,,,,,,,,,,,main,2,2,2,positive,negative,j,j,1,0.6843735000002198,533.8425863999873,534.8454690999934,534.8123554000049,None,533.8425863999873,None,533.8425863999873,None,533.8425863999873,None,535.5106742999982,None,535.5106742999982,None,535.5106742999982,None,,,,,,,,,,,104,22,Male,2022-04-29_14h04.38.596,Boat,2022.1.1,60.11157911953208,
negative,negative,2,j,l,,,,,,,,,10,3,183,9,,,,,,,,,,,,,,,,,,,,,,,,,main,2,2,2,negative,negative,j,j,1,0.6983440000039991,535.5277448999987,536.5289346000063,536.5122549999796,None,535.5277448999987,None,535.5277448999987,None,535.5277448999987,None,537.2127345999819,None,537.2127345999819,None,537.2127345999819,None,,,,,,,,,,,104,22,Male,2022-04-29_14h04.38.596,Boat,2022.1.1,60.11157911953208,
neutral,negative,2,k,k,,,,,,,,,10,4,184,16,,,,,,,,,,,,,,,,,,,,,,,,,main,2,2,2,negative,neutral,k,k,1,0.6363322999968659,537.2279304999975,538.243095199985,538.2236231999996,None,537.2279304999975,None,537.2279304999975,None,537.2279304999975,None,538.8528440999856,None,538.8528440999856,None,538.8528440999856,None,,,,,,,,,,,104,22,Male,2022-04-29_14h04.38.596,Boat,2022.1.1,60.11157911953208,
negative,neutral,1,j,l,,,,,,,,,10,5,185,3,,,,,,,,,,,,,,,,,,,,,,,,,main,2,2,1,neutral,negative,j,j,1,0.7275658000144176,538.8683422000031,539.8737454999937,539.8737454999937,None,538.8683422000031,None,538.8683422000031,None,538.8683422000031,None,540.5815595999942,None,540.5815595999942,None,540.5815595999942,None,,,,,,,,,,,104,22,Male,2022-04-29_14h04.38.596,Boat,2022.1.1,60.11157911953208,
positive,negative,2,l,j,,,,,,,,,10,6,186,14,,,,,,,,,,,,,,,,,,,,,,,,,main,2,2,2,negative,positive,l,l,1,0.7203251000028104,540.5972585999989,541.6133222999924,541.5789839999925,None,540.5972585999989,None,540.5972585999989,None,540.5972585999989,None,542.3049675999849,None,542.3049675999849,None,542.3049675999849,None,,,,,,,,,,,104,22,Male,2022-04-29_14h04.38.596,Boat,2022.1.1,60.11157911953208,
positive,negative,1,l,j,,,,,,,,,10,7,187,5,,,,,,,,,,,,,,,,,,,,,,,,,main,1,1,1,negative,positive,l,l,1,0.6745449999871198,542.320902699983,543.3293890999921,543.2947584999783,None,542.320902699983,None,542.320902699983,None,542.320902699983,None,543.9807756999857,None,543.9807756999857,None,543.9807756999857,None,,,,,,,,,,,104,22,Male,2022-04-29_14h04.38.596,Boat,2022.1.1,60.11157911953208,
positive,neutral,1,l,j,,,,,,,,,10,8,188,8,,,,,,,,,,,,,,,,,,,,,,,,,main,1,1,1,neutral,positive,l,l,1,0.6506709000095725,543.9964172999898,545.0123582999804,544.976287700003,None,543.9964172999898,None,543.9964172999898,None,543.9964172999898,None,545.6352143999887,None,545.6352143999887,None,545.6352143999887,None,,,,,,,,,,,104,22,Male,2022-04-29_14h04.38.596,Boat,2022.1.1,60.11157911953208,
neutral,neutral,1,k,k,,,,,,,,,10,9,189,1,,,,,,,,,,,,,,,,,,,,,,,,,main,2,2,1,neutral,neutral,k,k,1,0.6807787000143435,545.6520850999805,546.6590305999853,546.640201799979,None,545.6520850999805,None,545.6520850999805,None,545.6520850999805,None,547.3170555000019,None,547.3170555000019,None,547.3170555000019,None,,,,,,,,,,,104,22,Male,2022-04-29_14h04.38.596,Boat,2022.1.1,60.11157911953208,
neutral,negative,1,k,k,,,,,,,,,10,10,190,7,,,,,,,,,,,,,,,,,,,,,,,,,main,1,1,1,negative,neutral,k,k,1,0.5975374999979977,547.3321230000001,548.3483286999981,548.3131416999968,None,547.3321230000001,None,547.3321230000001,None,547.3321230000001,None,548.9189299999911,None,548.9189299999911,None,548.9189299999911,None,,,,,,,,,,,104,22,Male,2022-04-29_14h04.38.596,Boat,2022.1.1,60.11157911953208,
negative,negative,1,j,l,,,,,,,,,10,11,191,0,,,,,,,,,,,,,,,,,,,,,,,,,main,1,1,1,negative,negative,j,j,1,0.7645199999969918,548.9343434000039,549.9404683999892,549.9404683999892,None,548.9343434000039,None,548.9343434000039,None,548.9343434000039,None,550.6860471000022,None,550.6860471000022,None,550.6860471000022,None,,,,,,,,,,,104,22,Male,2022-04-29_14h04.38.596,Boat,2022.1.1,60.11157911953208,
neutral,positive,2,k,k,,,,,,,,,10,12,192,13,,,,,,,,,,,,,,,,,,,,,,,,,main,2,2,2,positive,neutral,k,k,1,1.1672638999880292,550.7012907000026,551.7098949000065,551.6909064000065,None,550.7012907000026,None,550.7012907000026,None,550.7012907000026,None,552.8549659999902,None,552.8549659999902,None,552.8549659999902,None,,,,,,,,,,,104,22,Male,2022-04-29_14h04.38.596,Boat,2022.1.1,60.11157911953208,
positive,neutral,2,l,j,,,,,,,,,10,13,193,17,,,,,,,,,,,,,,,,,,,,,,,,,main,1,1,2,neutral,positive,l,l,1,0.6929606999910902,552.8738250999886,553.8768143999914,553.8570734999957,None,552.8738250999886,None,552.8738250999886,None,552.8738250999886,None,554.548907499999,None,554.548907499999,None,554.548907499999,None,,,,,,,,,,,104,22,Male,2022-04-29_14h04.38.596,Boat,2022.1.1,60.11157911953208,
negative,positive,1,j,l,,,,,,,,,10,14,194,6,,,,,,,,,,,,,,,,,,,,,,,,,main,2,2,1,positive,negative,j,j,1,0.6674319000157993,554.5645220000006,555.5788855999999,555.5433323000034,None,554.5645220000006,None,554.5645220000006,None,554.5645220000006,None,556.2203197999974,None,556.2203197999974,None,556.2203197999974,None,,,,,,,,,,,104,22,Male,2022-04-29_14h04.38.596,Boat,2022.1.1,60.11157911953208,
positive,positive,2,l,j,,,,,,,,,10,15,195,11,,,,,,,,,,,,,,,,,,,,,,,,,main,2,2,2,positive,positive,l,l,1,0.6638567000045441,556.2369653999922,557.246094400005,557.2128242999897,None,556.2369653999922,None,556.2369653999922,None,556.2369653999922,None,557.8869008999958,None,557.8869008999958,None,557.8869008999958,None,,,,,,,,,,,104,22,Male,2022-04-29_14h04.38.596,Boat,2022.1.1,60.11157911953208,
neutral,positive,1,k,k,,,,,,,,,10,16,196,4,,,,,,,,,,,,,,,,,,,,,,,,,main,2,2,1,positive,neutral,k,k,1,0.7465625999902841,557.9020173999888,558.9207864000055,558.8958745999844,None,557.9020173999888,None,557.9020173999888,None,557.9020173999888,None,559.6338435999991,None,559.6338435999991,None,559.6338435999991,None,,,,,,,,,,,104,22,Male,2022-04-29_14h04.38.596,Boat,2022.1.1,60.11157911953208,
positive,positive,1,l,j,,,,,,,,,10,17,197,2,,,,,,,,,,,,,,,,,,,,,,,,,main,1,1,1,positive,positive,l,l,1,0.6870264000026509,559.6493952999881,560.6603907999815,560.6409828999895,None,559.6493952999881,None,559.6493952999881,None,559.6493952999881,None,561.3238612999907,None,561.3238612999907,None,561.3238612999907,None,,,,,,,,,,,104,22,Male,2022-04-29_14h04.38.596,Boat,2022.1.1,60.11157911953208,
positive,positive,1,l,j,,,,,,,,,11,0,198,2,,,,,,,,,,,,,,,,,,,,,,,,,main,2,2,1,positive,positive,l,l,1,0.7308400000038091,561.3413879,562.3467875999922,562.312506599992,None,561.3413879,None,561.3413879,None,561.3413879,None,563.0566215999773,None,563.0566215999773,None,563.0566215999773,None,,,,,,,,,,,104,22,Male,2022-04-29_14h04.38.596,Boat,2022.1.1,60.11157911953208,
negative,negative,2,j,l,,,,,,,,,11,1,199,9,,,,,,,,,,,,,,,,,,,,,,,,,main,2,2,2,negative,negative,j,j,1,0.7259470999997575,563.0768188999791,564.0959106999799,564.0574783000047,None,563.0768188999791,None,563.0768188999791,None,563.0768188999791,None,564.7830267000012,None,564.7830267000012,None,564.7830267000012,None,,,,,,,,,,,104,22,Male,2022-04-29_14h04.38.596,Boat,2022.1.1,60.11157911953208,
neutral,positive,1,k,k,,,,,,,,,11,2,200,4,,,,,,,,,,,,,,,,,,,,,,,,,main,1,1,1,positive,neutral,k,j,0,-0.6564551000192296,564.8063893999788,None,None,None,564.8063893999788,None,564.8063893999788,None,564.8063893999788,None,565.1452029999928,None,565.1452029999928,None,565.1452029999928,None,,,,,,,,,,,104,22,Male,2022-04-29_14h04.38.596,Boat,2022.1.1,60.11157911953208,
neutral,neutral,2,k,k,,,,,,,,,11,3,201,10,,,,,,,,,,,,,,,,,,,,,,,,,main,2,2,2,neutral,neutral,k,k,1,0.7085303000058047,568.1647797999904,569.1794400999788,569.1609909999825,None,568.1647797999904,None,568.1647797999904,None,568.1647797999904,None,569.8584794999973,None,569.8584794999973,None,569.8584794999973,None,,,,,,,,,,,104,22,Male,2022-04-29_14h04.38.596,Boat,2022.1.1,60.11157911953208,
negative,neutral,2,j,l,,,,,,,,,11,4,202,12,,,,,,,,,,,,,,,,,,,,,,,,,main,2,2,2,neutral,negative,j,j,1,0.8065556000219658,569.8802147999813,570.8792088000046,570.8627137999865,None,569.8802147999813,None,569.8802147999813,None,569.8802147999813,None,571.6707016999775,None,571.6707016999775,None,571.6707016999775,None,,,,,,,,,,,104,22,Male,2022-04-29_14h04.38.596,Boat,2022.1.1,60.11157911953208,
positive,neutral,1,l,j,,,,,,,,,11,5,203,8,,,,,,,,,,,,,,,,,,,,,,,,,main,1,1,1,neutral,positive,l,l,1,0.7408193000010215,571.6896355999925,572.6962631999922,572.6770219999889,None,571.6896355999925,None,571.6896355999925,None,571.6896355999925,None,573.4124700999877,None,573.4124700999877,None,573.4124700999877,None,,,,,,,,,,,104,22,Male,2022-04-29_14h04.38.596,Boat,2022.1.1,60.11157911953208,
positive,negative,2,l,j,,,,,,,,,11,6,204,14,,,,,,,,,,,,,,,,,,,,,,,,,main,1,1,2,negative,positive,l,l,1,0.6035864000150468,573.4320219999936,574.4461076000007,574.407739199989,None,573.4320219999936,None,573.4320219999936,None,573.4320219999936,None,575.0211389999953,None,575.0211389999953,None,575.0211389999953,None,,,,,,,,,,,104,22,Male,2022-04-29_14h04.38.596,Boat,2022.1.1,60.11157911953208,
neutral,neutral,1,k,k,,,,,,,,,11,7,205,1,,,,,,,,,,,,,,,,,,,,,,,,,main,1,1,1,neutral,neutral,k,k,1,0.6491636999999173,575.0376021999982,576.0461829999986,576.0121592000069,None,575.0376021999982,None,575.0376021999982,None,575.0376021999982,None,576.6727159999776,None,576.6727159999776,None,576.6727159999776,None,,,,,,,,,,,104,22,Male,2022-04-29_14h04.38.596,Boat,2022.1.1,60.11157911953208,
negative,negative,1,j,l,,,,,,,,,11,8,206,0,,,,,,,,,,,,,,,,,,,,,,,,,main,2,2,1,negative,negative,j,j,1,0.7378953000006732,576.6920871000038,577.6962747999933,577.6789837999968,None,576.6920871000038,None,576.6920871000038,None,576.6920871000038,None,578.413233399979,None,578.413233399979,None,578.413233399979,None,,,,,,,,,,,104,22,Male,2022-04-29_14h04.38.596,Boat,2022.1.1,60.11157911953208,
