target,distractor,set,ans1,ans2,rep_loop2.thisRepN,rep_loop2.thisTrialN,rep_loop2.thisN,rep_loop2.thisIndex,flanker_prac_loop.thisRepN,flanker_prac_loop.thisTrialN,flanker_prac_loop.thisN,flanker_prac_loop.thisIndex,flanker_main_loop.thisRepN,flanker_main_loop.thisTrialN,flanker_main_loop.thisN,flanker_main_loop.thisIndex,fl_inst_resp.keys,mouse.x,mouse.y,mouse.leftButton,mouse.midButton,mouse.rightButton,mouse.started,mouse.stopped,sound_1.started,sound_1.stopped,no_text.started,no_text.stopped,yes_text.started,yes_text.stopped,mouse_2.x,mouse_2.y,mouse_2.leftButton,mouse_2.midButton,mouse_2.rightButton,mouse_2.started,mouse_2.stopped,back_2.started,back_2.stopped,main_prac,fl_cold,fl_colt,fl_set,fl_dcond,fl_tcond,fl_ans,fl_res,fl_corr,fl_rt,fix_fl.started,fix_fl.stopped,targ.started,targ.stopped,j_button.started,j_button.stopped,k_button.started,k_button.stopped,l_button.started,l_button.stopped,j_button2.started,j_button2.stopped,k_button2.started,k_button2.stopped,l_button2.started,l_button2.stopped,mainback.started,mainback.stopped,key_resp.keys,mouse_6.x,mouse_6.y,mouse_6.leftButton,mouse_6.midButton,mouse_6.rightButton,mouse_6.started,mouse_6.stopped,id*,age*,gender*,date,expName,psychopyVersion,frameRate,
,,,,,0,0,0,0,,,,,,,,,None,0.072222225,-0.2898148,0,0,0,1.033088779571699,None,29.303742659997077,None,85.87189049998415,None,85.87189049998415,None,-0.09351852,-0.0712963,0,0,0,0.013049260014668107,None,,,,,,,,,,,,,,,,,,,,,,,,,,,,,,,,,,,,,,,105,19,Female,2022-04-29_17h05.15.359,Boat,2022.1.1,60.402339977325944,
neutral,neutral,1,k,k,,,,,0,0,0,1,,,,,,,,,,,,,,,,,,,,,,,,,,89.9754517999827,None,prac,2,2,1,neutral,neutral,k,k,1,1.3267131999891717,92.00099599998794,93.00970639998559,92.97543739998946,None,92.00099599998794,None,92.00099599998794,None,92.00099599998794,None,94.29928435998445,None,94.29928435998445,None,94.29928435998445,None,,,,,,,,,,,105,19,Female,2022-04-29_17h05.15.359,Boat,2022.1.1,60.402339977325944,
negative,negative,1,j,l,,,,,0,1,1,0,,,,,,,,,,,,,,,,,,,,,,,,,,,,prac,2,2,1,negative,negative,l,l,1,0.9741520999814384,94.31618069999968,95.3274412000028,95.2934103999869,None,94.31618069999968,None,94.31618069999968,None,94.31618069999968,None,96.27649566000619,None,96.27649566000619,None,96.27649566000619,None,,,,,,,,,,,105,19,Female,2022-04-29_17h05.15.359,Boat,2022.1.1,60.402339977325944,
neutral,neutral,2,k,k,,,,,0,2,2,10,,,,,,,,,,,,,,,,,,,,,,,,,,,,prac,2,2,2,neutral,neutral,k,k,1,0.8957253000116907,96.29343659998267,97.31133749999572,97.27483919999213,None,96.29343659998267,None,96.29343659998267,None,96.29343659998267,None,98.17522925999074,None,98.17522925999074,None,98.17522925999074,None,,,,,,,,,,,105,19,Female,2022-04-29_17h05.15.359,Boat,2022.1.1,60.402339977325944,
positive,positive,1,l,j,,,,,0,3,3,2,,,,,,,,,,,,,,,,,,,,,,,,,,,,prac,2,2,1,positive,positive,j,j,1,0.8488271999813151,98.19377429998713,99.19372499999008,99.17698059999384,None,98.19377429998713,None,98.19377429998713,None,98.19377429998713,None,100.02687555998855,None,100.02687555998855,None,100.02687555998855,None,,,,,,,,,,,105,19,Female,2022-04-29_17h05.15.359,Boat,2022.1.1,60.402339977325944,
positive,neutral,1,l,j,,,,,0,4,4,8,,,,,,,,,,,,,,,,,,,,,,,,,,,,prac,1,1,1,neutral,positive,j,j,1,0.9164282999990974,100.04512830000021,101.06002689999877,101.02164689998608,None,100.04512830000021,None,100.04512830000021,None,100.04512830000021,None,101.94594565999287,None,101.94594565999287,None,101.94594565999287,None,,,,,,,,,,,105,19,Female,2022-04-29_17h05.15.359,Boat,2022.1.1,60.402339977325944,
positive,negative,2,l,j,,,,,0,5,5,14,,,,,,,,,,,,,,,,,,,,,,,,,,,,prac,2,2,2,negative,positive,j,j,1,0.9273322999943048,101.96316789998673,102.97436009999365,102.95466039999155,None,101.96316789998673,None,101.96316789998673,None,101.96316789998673,None,103.87683785999835,None,103.87683785999835,None,103.87683785999835,None,,,,,,,,,,,105,19,Female,2022-04-29_17h05.15.359,Boat,2022.1.1,60.402339977325944,
neutral,positive,1,k,k,,,,,0,6,6,4,,,,,,,,,,,,,,,,,,,,,,,,,,,,prac,2,2,1,positive,neutral,k,k,1,0.9078789999766741,103.89246619999176,104.91848709998885,104.87124099998618,None,103.89246619999176,None,103.89246619999176,None,103.89246619999176,None,105.78569055999688,None,105.78569055999688,None,105.78569055999688,None,,,,,,,,,,,105,19,Female,2022-04-29_17h05.15.359,Boat,2022.1.1,60.402339977325944,
neutral,positive,2,k,k,,,,,0,7,7,13,,,,,,,,,,,,,,,,,,,,,,,,,,,,prac,1,1,2,positive,neutral,k,k,1,0.7235598000115715,105.80788700000267,106.81814729998587,106.77677259998745,None,105.80788700000267,None,105.80788700000267,None,105.80788700000267,None,107.50993055997824,None,107.50993055997824,None,107.50993055997824,None,,,,,,,,,,,105,19,Female,2022-04-29_17h05.15.359,Boat,2022.1.1,60.402339977325944,
negative,negative,2,j,l,,,,,0,8,8,9,,,,,,,,,,,,,,,,,,,,,,,,,,,,prac,1,1,2,negative,negative,l,l,1,0.8314881999976933,107.529807599989,108.5518295999791,108.51008879998699,None,107.529807599989,None,107.529807599989,None,107.529807599989,None,109.34580085999042,None,109.34580085999042,None,109.34580085999042,None,,,,,,,,,,,105,19,Female,2022-04-29_17h05.15.359,Boat,2022.1.1,60.402339977325944,
neutral,negative,1,k,k,,,,,0,9,9,7,,,,,,,,,,,,,,,,,,,,,,,,,,,,prac,2,2,1,negative,neutral,k,k,1,0.8312527000089176,109.3635849999846,110.37578229999053,110.35602390000713,None,109.3635849999846,None,109.3635849999846,None,109.3635849999846,None,111.17932195998438,None,111.17932195998438,None,111.17932195998438,None,,,,,,,,,,,105,19,Female,2022-04-29_17h05.15.359,Boat,2022.1.1,60.402339977325944,
negative,neutral,1,j,l,,,,,0,10,10,3,,,,,,,,,,,,,,,,,,,,,,,,,,,,prac,2,2,1,neutral,negative,l,l,1,1.4214347999950405,111.19775120000122,112.20833969998057,112.18872439998086,None,111.19775120000122,None,111.19775120000122,None,111.19775120000122,None,113.60416055999522,None,113.60416055999522,None,113.60416055999522,None,,,,,,,,,,,105,19,Female,2022-04-29_17h05.15.359,Boat,2022.1.1,60.402339977325944,
negative,neutral,2,j,l,,,,,0,11,11,12,,,,,,,,,,,,,,,,,,,,,,,,,,,,prac,2,2,2,neutral,negative,l,l,1,1.2693205999967176,113.62127909998526,114.64124149997951,114.60177280000062,None,113.62127909998526,None,113.62127909998526,None,113.62127909998526,None,115.875992459993,None,115.875992459993,None,115.875992459993,None,,,,,,,,,,,105,19,Female,2022-04-29_17h05.15.359,Boat,2022.1.1,60.402339977325944,
positive,negative,1,l,j,,,,,0,12,12,5,,,,,,,,,,,,,,,,,,,,,,,,,,,,prac,2,2,1,negative,positive,j,j,1,0.8709145000029821,115.8936194999842,116.91042209998704,116.87147039998672,None,115.8936194999842,None,115.8936194999842,None,115.8936194999842,None,117.7500941599923,None,117.7500941599923,None,117.7500941599923,None,,,,,,,,,,,105,19,Female,2022-04-29_17h05.15.359,Boat,2022.1.1,60.402339977325944,
neutral,negative,2,k,k,,,,,0,13,13,16,,,,,,,,,,,,,,,,,,,,,,,,,,,,prac,2,2,2,negative,neutral,k,k,1,0.8567419000028167,117.76675680000335,118.77517039998202,118.75514409999596,None,117.76675680000335,None,117.76675680000335,None,117.76675680000335,None,119.60925065998745,None,119.60925065998745,None,119.60925065998745,None,,,,,,,,,,,105,19,Female,2022-04-29_17h05.15.359,Boat,2022.1.1,60.402339977325944,
negative,positive,1,j,l,,,,,0,14,14,6,,,,,,,,,,,,,,,,,,,,,,,,,,,,prac,2,2,1,positive,negative,l,l,1,1.2450420999957714,119.62737489998108,120.62711159998435,120.61031669998192,None,119.62737489998108,None,119.62737489998108,None,119.62737489998108,None,121.85790975999262,None,121.85790975999262,None,121.85790975999262,None,,,,,,,,,,,105,19,Female,2022-04-29_17h05.15.359,Boat,2022.1.1,60.402339977325944,
negative,positive,2,j,l,,,,,0,15,15,15,,,,,,,,,,,,,,,,,,,,,,,,,,,,prac,2,2,2,positive,negative,l,l,1,0.9208870999864303,121.87681009998778,122.87710429998697,122.86029109999072,None,121.87681009998778,None,121.87681009998778,None,121.87681009998778,None,123.78147206000577,None,123.78147206000577,None,123.78147206000577,None,,,,,,,,,,,105,19,Female,2022-04-29_17h05.15.359,Boat,2022.1.1,60.402339977325944,
positive,positive,2,l,j,,,,,0,16,16,11,,,,,,,,,,,,,,,,,,,,,,,,,,,,prac,1,1,2,positive,positive,j,j,1,0.9205459000077099,123.79935069999192,124.80537369998638,124.78546419998747,None,123.79935069999192,None,123.79935069999192,None,123.79935069999192,None,125.70606856000668,None,125.70606856000668,None,125.70606856000668,None,,,,,,,,,,,105,19,Female,2022-04-29_17h05.15.359,Boat,2022.1.1,60.402339977325944,
positive,neutral,2,l,j,,,,,0,17,17,17,,,,,,,,,,,,,,,,,,,,,,,,,,,,prac,1,1,2,neutral,positive,j,j,1,0.948979100008728,125.72387909999816,126.72727430000668,126.70856179998373,None,125.72387909999816,None,125.72387909999816,None,125.72387909999816,None,127.65779076000618,None,127.65779076000618,None,127.65779076000618,None,,,,,,,,,,,105,19,Female,2022-04-29_17h05.15.359,Boat,2022.1.1,60.402339977325944,
positive,positive,2,l,j,,,,,1,0,18,11,,,,,,,,,,,,,,,,,,,,,,,,,,,,prac,2,2,2,positive,positive,j,j,1,0.7697017999889795,127.67572080000537,128.69422469998244,128.6554208000016,None,127.67572080000537,None,127.67572080000537,None,127.67572080000537,None,129.42998596000544,None,129.42998596000544,None,129.42998596000544,None,,,,,,,,,,,105,19,Female,2022-04-29_17h05.15.359,Boat,2022.1.1,60.402339977325944,
negative,neutral,1,j,l,,,,,1,1,19,3,,,,,,,,,,,,,,,,,,,,,,,,,,,,prac,1,1,1,neutral,negative,l,,0,1.1761618999880739,129.44774599999073,130.4691817999992,130.42726110000513,None,129.44774599999073,None,129.44774599999073,None,129.44774599999073,None,131.62960729998304,None,131.62960729998304,None,131.62960729998304,None,,,,,,,,,,,105,19,Female,2022-04-29_17h05.15.359,Boat,2022.1.1,60.402339977325944,
negative,neutral,2,j,l,,,,,1,2,20,12,,,,,,,,,,,,,,,,,,,,,,,,,,,,prac,1,1,2,neutral,negative,l,l,1,0.7581482999958098,132.64702219999162,133.66069039999275,133.62487390000024,None,132.64702219999162,None,132.64702219999162,None,132.64702219999162,None,134.3917804599827,None,134.3917804599827,None,134.3917804599827,None,,,,,,,,,,,105,19,Female,2022-04-29_17h05.15.359,Boat,2022.1.1,60.402339977325944,
positive,negative,1,l,j,,,,,1,3,21,5,,,,,,,,,,,,,,,,,,,,,,,,,,,,prac,1,1,1,negative,positive,j,j,1,0.9601196000003256,134.41138370000408,135.4273133999959,135.39140900000348,None,134.41138370000408,None,134.41138370000408,None,134.41138370000408,None,136.3554653600062,None,136.3554653600062,None,136.3554653600062,None,,,,,,,,,,,105,19,Female,2022-04-29_17h05.15.359,Boat,2022.1.1,60.402339977325944,
positive,neutral,2,l,j,,,,,1,4,22,17,,,,,,,,,,,,,,,,,,,,,,,,,,,,prac,2,2,2,neutral,positive,j,j,1,1.1757166000024881,136.3723977000045,137.37799409998115,137.36074869998265,None,136.3723977000045,None,136.3723977000045,None,136.3723977000045,None,138.531907160001,None,138.531907160001,None,138.531907160001,None,,,,,,,,,,,105,19,Female,2022-04-29_17h05.15.359,Boat,2022.1.1,60.402339977325944,
neutral,positive,2,k,k,,,,,1,5,23,13,,,,,,,,,,,,,,,,,,,,,,,,,,,,prac,1,1,2,positive,neutral,k,k,1,0.777680600003805,138.54878320000716,139.55903420000686,139.53938820000621,None,138.54878320000716,None,138.54878320000716,None,138.54878320000716,None,140.3114624599897,None,140.3114624599897,None,140.3114624599897,None,,,,,,,,,,,105,19,Female,2022-04-29_17h05.15.359,Boat,2022.1.1,60.402339977325944,
neutral,neutral,1,k,k,,,,,1,6,24,1,,,,,,,,,,,,,,,,,,,,,,,,,,,,prac,2,2,1,neutral,neutral,k,k,1,0.9070185000018682,140.33054289998836,141.34853449999355,141.3110594000027,None,140.33054289998836,None,140.33054289998836,None,140.33054289998836,None,142.2227224599832,None,142.2227224599832,None,142.2227224599832,None,,,,,,,,,,,105,19,Female,2022-04-29_17h05.15.359,Boat,2022.1.1,60.402339977325944,
neutral,negative,1,k,k,,,,,1,7,25,7,,,,,,,,,,,,,,,,,,,,,,,,,,,,prac,1,1,1,negative,neutral,k,k,1,0.6776103999873158,142.2418594000046,143.24415449998924,143.22756189998472,None,142.2418594000046,None,142.2418594000046,None,142.2418594000046,None,143.90445835998108,None,143.90445835998108,None,143.90445835998108,None,,,,,,,,,,,105,19,Female,2022-04-29_17h05.15.359,Boat,2022.1.1,60.402339977325944,
neutral,negative,2,k,k,,,,,1,8,26,16,,,,,,,,,,,,,,,,,,,,,,,,,,,,prac,1,1,2,negative,neutral,k,k,1,0.7137071999895852,143.9210472999839,144.93570659999386,144.89397410000674,None,143.9210472999839,None,143.9210472999839,None,143.9210472999839,None,145.6198086599965,None,145.6198086599965,None,145.6198086599965,None,,,,,,,,,,,105,19,Female,2022-04-29_17h05.15.359,Boat,2022.1.1,60.402339977325944,
negative,positive,1,j,l,,,,,1,9,27,6,,,,,,,,,,,,,,,,,,,,,,,,,,,,prac,2,2,1,positive,negative,l,l,1,0.7615099999820814,145.63786039999104,146.64402279999922,146.6105097999971,None,145.63786039999104,None,145.63786039999104,None,145.63786039999104,None,147.3818303600041,None,147.3818303600041,None,147.3818303600041,None,,,,,,,,,,,105,19,Female,2022-04-29_17h05.15.359,Boat,2022.1.1,60.402339977325944,
positive,positive,1,l,j,,,,,1,10,28,2,,,,,,,,,,,,,,,,,,,,,,,,,,,,prac,2,2,1,positive,positive,j,j,1,0.839126100006979,147.40574270000798,148.41121970000677,148.37756329998956,None,147.40574270000798,None,147.40574270000798,None,147.40574270000798,None,149.22687545999943,None,149.22687545999943,None,149.22687545999943,None,,,,,,,,,,,105,19,Female,2022-04-29_17h05.15.359,Boat,2022.1.1,60.402339977325944,
negative,positive,2,j,l,,,,,1,11,29,15,,,,,,,,,,,,,,,,,,,,,,,,,,,,prac,1,1,2,positive,negative,l,l,1,0.95649539999431,149.24388689998887,150.24594839999918,150.22720069999923,None,149.24388689998887,None,149.24388689998887,None,149.24388689998887,None,151.18655216000334,None,151.18655216000334,None,151.18655216000334,None,,,,,,,,,,,105,19,Female,2022-04-29_17h05.15.359,Boat,2022.1.1,60.402339977325944,
positive,negative,2,l,j,,,,,1,12,30,14,,,,,,,,,,,,,,,,,,,,,,,,,,,,prac,2,2,2,negative,positive,j,j,1,0.8191740000038408,151.2038665,152.21926779998466,152.17770109997946,None,151.2038665,None,151.2038665,None,151.2038665,None,153.0079850600072,None,153.0079850600072,None,153.0079850600072,None,,,,,,,,,,,105,19,Female,2022-04-29_17h05.15.359,Boat,2022.1.1,60.402339977325944,
negative,negative,2,j,l,,,,,1,13,31,9,,,,,,,,,,,,,,,,,,,,,,,,,,,,prac,2,2,2,negative,negative,l,l,1,0.9572517999913543,153.02674020000268,154.02920210000593,154.01201350000338,None,153.02674020000268,None,153.02674020000268,None,153.02674020000268,None,154.96830765998166,None,154.96830765998166,None,154.96830765998166,None,,,,,,,,,,,105,19,Female,2022-04-29_17h05.15.359,Boat,2022.1.1,60.402339977325944,
positive,neutral,1,l,j,,,,,1,14,32,8,,,,,,,,,,,,,,,,,,,,,,,,,,,,prac,1,1,1,neutral,positive,j,j,1,0.7910189999965951,154.98374150000745,155.99608719997923,155.97771529998863,None,154.98374150000745,None,154.98374150000745,None,154.98374150000745,None,156.76125755998365,None,156.76125755998365,None,156.76125755998365,None,,,,,,,,,,,105,19,Female,2022-04-29_17h05.15.359,Boat,2022.1.1,60.402339977325944,
negative,negative,1,j,l,,,,,1,15,33,0,,,,,,,,,,,,,,,,,,,,,,,,,,,,prac,2,2,1,negative,negative,l,l,1,0.8549493000027724,156.77694829998654,157.77802830000292,157.7613934999972,None,156.77694829998654,None,156.77694829998654,None,156.77694829998654,None,158.61871565999755,None,158.61871565999755,None,158.61871565999755,None,,,,,,,,,,,105,19,Female,2022-04-29_17h05.15.359,Boat,2022.1.1,60.402339977325944,
neutral,neutral,2,k,k,,,,,1,16,34,10,,,,,,,,,,,,,,,,,,,,,,,,,,,,prac,1,1,2,neutral,neutral,k,k,1,1.0110516999848187,158.6388825000031,159.64442480000434,159.61008109999239,None,158.6388825000031,None,158.6388825000031,None,158.6388825000031,None,160.63142305998772,None,160.63142305998772,None,160.63142305998772,None,,,,,,,,,,,105,19,Female,2022-04-29_17h05.15.359,Boat,2022.1.1,60.402339977325944,
neutral,positive,1,k,k,,,,,1,17,35,4,,,,,,,,,,,,,,,,,,,,,,,,,,,,prac,2,2,1,positive,neutral,k,k,1,0.6481159999966621,160.64776769999298,161.67260779999197,161.6276922999823,None,160.64776769999298,None,160.64776769999298,None,160.64776769999298,None,162.28142505999713,None,162.28142505999713,None,162.28142505999713,None,,,,,,,,,,,105,19,Female,2022-04-29_17h05.15.359,Boat,2022.1.1,60.402339977325944,
,,,,,,,,,,,,,,,,,,,,,,,,,,,,,,,,,,,,,,,,,,,,,,,,,,,,,,,,,,,,,,,,,,162.2932455999835,None,None,,,,,,,,105,19,Female,2022-04-29_17h05.15.359,Boat,2022.1.1,60.402339977325944,
,,,,,,,,,,,,,,,,,,,,,,,,,,,,,,,,,,,,,,,,,,,,,,,,,,,,,,,,,,,,,,,,,,,,,0.05740741,-0.10925926,1,0,0,0.005879460019059479,None,105,19,Female,2022-04-29_17h05.15.359,Boat,2022.1.1,60.402339977325944,
negative,positive,2,j,l,,,,,,,,,0,0,0,15,,,,,,,,,,,,,,,,,,,,,,177.1396221999894,None,main,2,2,2,positive,negative,l,l,1,0.7539754999743309,179.16084199998295,180.16172079998069,180.14372759999242,None,179.16084199998295,None,179.16084199998295,None,179.16084199998295,None,180.89400595999032,None,180.89400595999032,None,180.89400595999032,None,,,,,,,,,,,105,19,Female,2022-04-29_17h05.15.359,Boat,2022.1.1,60.402339977325944,
positive,negative,1,l,j,,,,,,,,,0,1,1,5,,,,,,,,,,,,,,,,,,,,,,,,main,2,2,1,negative,positive,j,j,1,1.0187703000265174,180.91634799999883,181.92923280000105,181.89266979999957,None,180.91634799999883,None,180.91634799999883,None,180.91634799999883,None,182.916741059997,None,182.916741059997,None,182.916741059997,None,,,,,,,,,,,105,19,Female,2022-04-29_17h05.15.359,Boat,2022.1.1,60.402339977325944,
positive,neutral,1,l,j,,,,,,,,,0,2,2,8,,,,,,,,,,,,,,,,,,,,,,,,main,1,1,1,neutral,positive,j,j,1,0.6295702000206802,182.9357988999982,183.94256490000407,183.92323749998468,None,182.9357988999982,None,182.9357988999982,None,182.9357988999982,None,184.550100259998,None,184.550100259998,None,184.550100259998,None,,,,,,,,,,,105,19,Female,2022-04-29_17h05.15.359,Boat,2022.1.1,60.402339977325944,
neutral,negative,1,k,k,,,,,,,,,0,3,3,7,,,,,,,,,,,,,,,,,,,,,,,,main,1,1,1,negative,neutral,k,k,1,0.6085569999995641,184.5671950999822,185.57328439998673,185.55321359998197,None,184.5671950999822,None,184.5671950999822,None,184.5671950999822,None,186.16150645998133,None,186.16150645998133,None,186.16150645998133,None,,,,,,,,,,,105,19,Female,2022-04-29_17h05.15.359,Boat,2022.1.1,60.402339977325944,
negative,positive,1,j,l,,,,,,,,,0,4,4,6,,,,,,,,,,,,,,,,,,,,,,,,main,2,2,1,positive,negative,l,,0,0.7745717999932822,186.18059679999715,187.19648519999464,187.1613851999864,None,186.18059679999715,None,186.18059679999715,None,186.18059679999715,None,187.94381959998282,None,187.94381959998282,None,187.94381959998282,None,,,,,,,,,,,105,19,Female,2022-04-29_17h05.15.359,Boat,2022.1.1,60.402339977325944,
neutral,positive,1,k,k,,,,,,,,,0,5,5,4,,,,,,,,,,,,,,,,,,,,,,,,main,1,1,1,positive,neutral,k,k,1,0.765862800006289,188.964347000001,189.97632509999676,189.95709499999066,None,188.964347000001,None,188.964347000001,None,188.964347000001,None,190.71502195999201,None,190.71502195999201,None,190.71502195999201,None,,,,,,,,,,,105,19,Female,2022-04-29_17h05.15.359,Boat,2022.1.1,60.402339977325944,
positive,positive,2,l,j,,,,,,,,,0,6,6,11,,,,,,,,,,,,,,,,,,,,,,,,main,2,2,2,positive,positive,j,j,1,0.7419018000073265,190.7323497000034,191.7566802999936,191.70969759998843,None,190.7323497000034,None,190.7323497000034,None,190.7323497000034,None,192.46108525999298,None,192.46108525999298,None,192.46108525999298,None,,,,,,,,,,,105,19,Female,2022-04-29_17h05.15.359,Boat,2022.1.1,60.402339977325944,
neutral,neutral,1,k,k,,,,,,,,,0,7,7,1,,,,,,,,,,,,,,,,,,,,,,,,main,2,2,1,neutral,neutral,k,k,1,0.7048097999941092,192.4789794999815,193.4786832999962,193.4617819999985,None,192.4789794999815,None,192.4789794999815,None,192.4789794999815,None,194.16994526000636,None,194.16994526000636,None,194.16994526000636,None,,,,,,,,,,,105,19,Female,2022-04-29_17h05.15.359,Boat,2022.1.1,60.402339977325944,
positive,negative,2,l,j,,,,,,,,,0,8,8,14,,,,,,,,,,,,,,,,,,,,,,,,main,2,2,2,negative,positive,j,j,1,1.111525000014808,194.186496099981,195.19648589999997,195.16274860000703,None,194.186496099981,None,194.186496099981,None,194.186496099981,None,196.28132205999864,None,196.28132205999864,None,196.28132205999864,None,,,,,,,,,,,105,19,Female,2022-04-29_17h05.15.359,Boat,2022.1.1,60.402339977325944,
negative,negative,2,j,l,,,,,,,,,0,9,9,9,,,,,,,,,,,,,,,,,,,,,,,,main,1,1,2,negative,negative,l,l,1,0.8075761999934912,196.2995804999955,197.3120042999799,197.2785423999885,None,196.2995804999955,None,196.2995804999955,None,196.2995804999955,None,198.09406025997887,None,198.09406025997887,None,198.09406025997887,None,,,,,,,,,,,105,19,Female,2022-04-29_17h05.15.359,Boat,2022.1.1,60.402339977325944,
positive,neutral,2,l,j,,,,,,,,,0,10,10,17,,,,,,,,,,,,,,,,,,,,,,,,main,1,1,2,neutral,positive,j,j,1,0.7860721999895759,198.11158060000162,199.1123202999879,199.09524219998275,None,198.11158060000162,None,198.11158060000162,None,198.11158060000162,None,199.88244255997998,None,199.88244255997998,None,199.88244255997998,None,,,,,,,,,,,105,19,Female,2022-04-29_17h05.15.359,Boat,2022.1.1,60.402339977325944,
negative,neutral,1,j,l,,,,,,,,,0,11,11,3,,,,,,,,,,,,,,,,,,,,,,,,main,2,2,1,neutral,negative,l,l,1,0.7663993999885861,199.90010440000333,200.92036570000346,200.87864999999874,None,199.90010440000333,None,199.90010440000333,None,199.90010440000333,None,201.6511119599949,None,201.6511119599949,None,201.6511119599949,None,,,,,,,,,,,105,19,Female,2022-04-29_17h05.15.359,Boat,2022.1.1,60.402339977325944,
neutral,negative,2,k,k,,,,,,,,,0,12,12,16,,,,,,,,,,,,,,,,,,,,,,,,main,2,2,2,negative,neutral,k,k,1,0.6075399999972433,201.66856940000434,202.68413539999165,202.64812199998414,None,201.66856940000434,None,201.66856940000434,None,201.66856940000434,None,203.26200405999262,None,203.26200405999262,None,203.26200405999262,None,,,,,,,,,,,105,19,Female,2022-04-29_17h05.15.359,Boat,2022.1.1,60.402339977325944,
negative,negative,1,j,l,,,,,,,,,0,13,13,0,,,,,,,,,,,,,,,,,,,,,,,,main,2,2,1,negative,negative,l,l,1,0.9353778000222519,203.28101439998136,204.30391049999162,204.262565299985,None,203.28101439998136,None,203.28101439998136,None,203.28101439998136,None,205.20178706000152,None,205.20178706000152,None,205.20178706000152,None,,,,,,,,,,,105,19,Female,2022-04-29_17h05.15.359,Boat,2022.1.1,60.402339977325944,
negative,neutral,2,j,l,,,,,,,,,0,14,14,12,,,,,,,,,,,,,,,,,,,,,,,,main,2,2,2,neutral,negative,l,l,1,0.8746065000013914,205.22209319999092,206.2289443000045,206.1953230999934,None,205.22209319999092,None,205.22209319999092,None,205.22209319999092,None,207.07899105999095,None,207.07899105999095,None,207.07899105999095,None,,,,,,,,,,,105,19,Female,2022-04-29_17h05.15.359,Boat,2022.1.1,60.402339977325944,
positive,positive,1,l,j,,,,,,,,,0,15,15,2,,,,,,,,,,,,,,,,,,,,,,,,main,1,1,1,positive,positive,j,j,1,0.8357537999982014,207.09611290000612,208.11213940000744,208.07364729998517,None,207.09611290000612,None,207.09611290000612,None,207.09611290000612,None,208.91752315998602,None,208.91752315998602,None,208.91752315998602,None,,,,,,,,,,,105,19,Female,2022-04-29_17h05.15.359,Boat,2022.1.1,60.402339977325944,
neutral,positive,2,k,k,,,,,,,,,0,16,16,13,,,,,,,,,,,,,,,,,,,,,,,,main,2,2,2,positive,neutral,k,k,1,0.749910100013949,208.93529860000126,209.94581849998212,209.91218280000612,None,208.93529860000126,None,208.93529860000126,None,208.93529860000126,None,210.6717549599911,None,210.6717549599911,None,210.6717549599911,None,,,,,,,,,,,105,19,Female,2022-04-29_17h05.15.359,Boat,2022.1.1,60.402339977325944,
neutral,neutral,2,k,k,,,,,,,,,0,17,17,10,,,,,,,,,,,,,,,,,,,,,,,,main,1,1,2,neutral,neutral,k,k,1,0.6582152000046335,210.69487300000037,211.69560750000528,211.67879370000446,None,210.69487300000037,None,210.69487300000037,None,210.69487300000037,None,212.331474159981,None,212.331474159981,None,212.331474159981,None,,,,,,,,,,,105,19,Female,2022-04-29_17h05.15.359,Boat,2022.1.1,60.402339977325944,
neutral,neutral,1,k,k,,,,,,,,,1,0,18,1,,,,,,,,,,,,,,,,,,,,,,,,main,1,1,1,neutral,neutral,k,k,1,0.8698297000082675,212.34900089999428,213.36241679999512,213.32891789998394,None,212.34900089999428,None,212.34900089999428,None,212.34900089999428,None,214.20546456000594,None,214.20546456000594,None,214.20546456000594,None,,,,,,,,,,,105,19,Female,2022-04-29_17h05.15.359,Boat,2022.1.1,60.402339977325944,
negative,negative,1,j,l,,,,,,,,,1,1,19,0,,,,,,,,,,,,,,,,,,,,,,,,main,1,1,1,negative,negative,l,,0,0.783182899991516,214.2219234999793,215.23764019997907,215.21123489999445,None,214.2219234999793,None,214.2219234999793,None,214.2219234999793,None,215.99406420000014,None,215.99406420000014,None,215.99406420000014,None,,,,,,,,,,,105,19,Female,2022-04-29_17h05.15.359,Boat,2022.1.1,60.402339977325944,
negative,negative,2,j,l,,,,,,,,,1,2,20,9,,,,,,,,,,,,,,,,,,,,,,,,main,1,1,2,negative,negative,l,l,1,0.7954084999801125,217.01475420000497,218.04020240000682,217.99397489998955,None,217.01475420000497,None,217.01475420000497,None,217.01475420000497,None,218.79567415999773,None,218.79567415999773,None,218.79567415999773,None,,,,,,,,,,,105,19,Female,2022-04-29_17h05.15.359,Boat,2022.1.1,60.402339977325944,
positive,positive,1,l,j,,,,,,,,,1,3,21,2,,,,,,,,,,,,,,,,,,,,,,,,main,1,1,1,positive,positive,j,j,1,0.9053829000040423,218.81333069998072,219.82957030000398,219.7951696999953,None,218.81333069998072,None,218.81333069998072,None,218.81333069998072,None,220.70564225999115,None,220.70564225999115,None,220.70564225999115,None,,,,,,,,,,,105,19,Female,2022-04-29_17h05.15.359,Boat,2022.1.1,60.402339977325944,
neutral,positive,2,k,k,,,,,,,,,1,4,22,13,,,,,,,,,,,,,,,,,,,,,,,,main,2,2,2,positive,neutral,k,k,1,0.7774248000059742,220.72427730000345,221.7291667999816,221.71022969999467,None,220.72427730000345,None,220.72427730000345,None,220.72427730000345,None,222.48591566000542,None,222.48591566000542,None,222.48591566000542,None,,,,,,,,,,,105,19,Female,2022-04-29_17h05.15.359,Boat,2022.1.1,60.402339977325944,
positive,negative,2,l,j,,,,,,,,,1,5,23,14,,,,,,,,,,,,,,,,,,,,,,,,main,1,1,2,negative,positive,j,j,1,0.8317328999983147,222.5028376999835,223.52366020000773,223.4765417999879,None,222.5028376999835,None,222.5028376999835,None,222.5028376999835,None,224.3215494599921,None,224.3215494599921,None,224.3215494599921,None,,,,,,,,,,,105,19,Female,2022-04-29_17h05.15.359,Boat,2022.1.1,60.402339977325944,
neutral,negative,2,k,k,,,,,,,,,1,6,24,16,,,,,,,,,,,,,,,,,,,,,,,,main,2,2,2,negative,neutral,k,k,1,0.8096050000167452,224.33692649999284,225.34606759998132,225.3265798999928,None,224.33692649999284,None,224.33692649999284,None,224.33692649999284,None,226.1311242599826,None,226.1311242599826,None,226.1311242599826,None,,,,,,,,,,,105,19,Female,2022-04-29_17h05.15.359,Boat,2022.1.1,60.402339977325944,
negative,positive,2,j,l,,,,,,,,,1,7,25,15,,,,,,,,,,,,,,,,,,,,,,,,main,2,2,2,positive,negative,l,l,1,0.7453884000133257,226.14817579998635,227.1625864999951,227.12397839999176,None,226.14817579998635,None,226.14817579998635,None,226.14817579998635,None,227.87898885999167,None,227.87898885999167,None,227.87898885999167,None,,,,,,,,,,,105,19,Female,2022-04-29_17h05.15.359,Boat,2022.1.1,60.402339977325944,
negative,neutral,2,j,l,,,,,,,,,1,8,26,12,,,,,,,,,,,,,,,,,,,,,,,,main,2,2,2,neutral,negative,l,l,1,0.6515341000049375,227.8978690999793,228.91367559999344,228.8775820999872,None,227.8978690999793,None,227.8978690999793,None,227.8978690999793,None,229.53407975998417,None,229.53407975998417,None,229.53407975998417,None,,,,,,,,,,,105,19,Female,2022-04-29_17h05.15.359,Boat,2022.1.1,60.402339977325944,
positive,neutral,2,l,j,,,,,,,,,1,9,27,17,,,,,,,,,,,,,,,,,,,,,,,,main,2,2,2,neutral,positive,j,j,1,0.7756511000043247,229.55077589998837,230.5621528000047,230.52921919999062,None,229.55077589998837,None,229.55077589998837,None,229.55077589998837,None,231.31076355999394,None,231.31076355999394,None,231.31076355999394,None,,,,,,,,,,,105,19,Female,2022-04-29_17h05.15.359,Boat,2022.1.1,60.402339977325944,
negative,neutral,1,j,l,,,,,,,,,1,10,28,3,,,,,,,,,,,,,,,,,,,,,,,,main,2,2,1,neutral,negative,l,l,1,0.6794814000022598,231.33094489999348,232.34577210000134,232.31000669999048,None,231.33094489999348,None,231.33094489999348,None,231.33094489999348,None,232.9956810600037,None,232.9956810600037,None,232.9956810600037,None,,,,,,,,,,,105,19,Female,2022-04-29_17h05.15.359,Boat,2022.1.1,60.402339977325944,
negative,positive,1,j,l,,,,,,,,,1,11,29,6,,,,,,,,,,,,,,,,,,,,,,,,main,2,2,1,positive,negative,l,l,1,0.8203949999879114,233.01588389999233,234.02914070000406,233.9957488999935,None,233.01588389999233,None,233.01588389999233,None,233.01588389999233,None,234.81835245997937,None,234.81835245997937,None,234.81835245997937,None,,,,,,,,,,,105,19,Female,2022-04-29_17h05.15.359,Boat,2022.1.1,60.402339977325944,
positive,negative,1,l,j,,,,,,,,,1,12,30,5,,,,,,,,,,,,,,,,,,,,,,,,main,1,1,1,negative,positive,j,j,1,0.8184192000189796,234.83567070000572,235.84588730000542,235.8277506000013,None,234.83567070000572,None,234.83567070000572,None,234.83567070000572,None,236.64124245998974,None,236.64124245998974,None,236.64124245998974,None,,,,,,,,,,,105,19,Female,2022-04-29_17h05.15.359,Boat,2022.1.1,60.402339977325944,
neutral,positive,1,k,k,,,,,,,,,1,13,31,4,,,,,,,,,,,,,,,,,,,,,,,,main,2,2,1,positive,neutral,k,k,1,1.5442463999788743,236.66183120000642,237.6792077999853,237.64211429998977,None,236.66183120000642,None,236.66183120000642,None,236.66183120000642,None,239.20121239998844,None,239.20121239998844,None,239.20121239998844,None,,,,,,,,,,,105,19,Female,2022-04-29_17h05.15.359,Boat,2022.1.1,60.402339977325944,
neutral,neutral,2,k,k,,,,,,,,,1,14,32,10,,,,,,,,,,,,,,,,,,,,,,,,main,2,2,2,neutral,neutral,k,k,1,0.9201923999935389,240.2158250999928,241.22475470000063,241.20483579998836,None,240.2158250999928,None,240.2158250999928,None,240.2158250999928,None,242.12313496000425,None,242.12313496000425,None,242.12313496000425,None,,,,,,,,,,,105,19,Female,2022-04-29_17h05.15.359,Boat,2022.1.1,60.402339977325944,
neutral,negative,1,k,k,,,,,,,,,1,15,33,7,,,,,,,,,,,,,,,,,,,,,,,,main,1,1,1,negative,neutral,k,k,1,0.7360360000166111,242.143530500005,243.16315809998196,243.12453450000612,None,242.143530500005,None,242.143530500005,None,242.143530500005,None,243.86161795999797,None,243.86161795999797,None,243.86161795999797,None,,,,,,,,,,,105,19,Female,2022-04-29_17h05.15.359,Boat,2022.1.1,60.402339977325944,
positive,positive,2,l,j,,,,,,,,,1,16,34,11,,,,,,,,,,,,,,,,,,,,,,,,main,1,1,2,positive,positive,j,j,1,1.5201423999969848,243.880482699984,244.89639169999282,244.8575809999893,None,243.880482699984,None,243.880482699984,None,243.880482699984,None,246.38972889998695,None,246.38972889998695,None,246.38972889998695,None,,,,,,,,,,,105,19,Female,2022-04-29_17h05.15.359,Boat,2022.1.1,60.402339977325944,
positive,neutral,1,l,j,,,,,,,,,1,17,35,8,,,,,,,,,,,,,,,,,,,,,,,,main,1,1,1,neutral,positive,j,j,1,0.5842046000179835,247.3992287000001,248.41252919999533,248.37872189999325,None,247.3992287000001,None,247.3992287000001,None,247.3992287000001,None,248.96981895999343,None,248.96981895999343,None,248.96981895999343,None,,,,,,,,,,,105,19,Female,2022-04-29_17h05.15.359,Boat,2022.1.1,60.402339977325944,
positive,negative,1,l,j,,,,,,,,,2,0,36,5,,,,,,,,,,,,,,,,,,,,,,,,main,2,2,1,negative,positive,j,j,1,0.5935590000008233,248.9869361000019,249.99580469998182,249.9629941000021,None,248.9869361000019,None,248.9869361000019,None,248.9869361000019,None,250.56479225999502,None,250.56479225999502,None,250.56479225999502,None,,,,,,,,,,,105,19,Female,2022-04-29_17h05.15.359,Boat,2022.1.1,60.402339977325944,
positive,negative,2,l,j,,,,,,,,,2,1,37,14,,,,,,,,,,,,,,,,,,,,,,,,main,1,1,2,negative,positive,j,j,1,0.6674705000186805,250.5804004999809,251.5806018000003,251.56343330000527,None,250.5804004999809,None,250.5804004999809,None,250.5804004999809,None,252.2347330599936,None,252.2347330599936,None,252.2347330599936,None,,,,,,,,,,,105,19,Female,2022-04-29_17h05.15.359,Boat,2022.1.1,60.402339977325944,
positive,neutral,2,l,j,,,,,,,,,2,2,38,17,,,,,,,,,,,,,,,,,,,,,,,,main,2,2,2,neutral,positive,j,j,1,0.8308938999834936,252.25279410000076,253.25733059999766,253.23686509998515,None,252.25279410000076,None,252.25279410000076,None,252.25279410000076,None,254.06868525998144,None,254.06868525998144,None,254.06868525998144,None,,,,,,,,,,,105,19,Female,2022-04-29_17h05.15.359,Boat,2022.1.1,60.402339977325944,
negative,negative,1,j,l,,,,,,,,,2,3,39,0,,,,,,,,,,,,,,,,,,,,,,,,main,1,1,1,negative,negative,l,l,1,0.6840703000198118,254.08901589998277,255.0991332999838,255.06303719998687,None,254.08901589998277,None,254.08901589998277,None,254.08901589998277,None,255.7567615600041,None,255.7567615600041,None,255.7567615600041,None,,,,,,,,,,,105,19,Female,2022-04-29_17h05.15.359,Boat,2022.1.1,60.402339977325944,
negative,positive,2,j,l,,,,,,,,,2,4,40,15,,,,,,,,,,,,,,,,,,,,,,,,main,1,1,2,positive,negative,l,l,1,-0.7391369999968447,255.77716939998209,None,None,None,255.77716939998209,None,255.77716939998209,None,255.77716939998209,None,256.03085759998066,None,256.03085759998066,None,256.03085759998066,None,,,,,,,,,,,105,19,Female,2022-04-29_17h05.15.359,Boat,2022.1.1,60.402339977325944,
negative,neutral,1,j,l,,,,,,,,,2,5,41,3,,,,,,,,,,,,,,,,,,,,,,,,main,2,2,1,neutral,negative,l,l,1,1.20357499999227,259.0494997999922,260.0627605000045,260.0457499999902,None,259.0494997999922,None,259.0494997999922,None,259.0494997999922,None,261.23879975999296,None,261.23879975999296,None,261.23879975999296,None,,,,,,,,,,,105,19,Female,2022-04-29_17h05.15.359,Boat,2022.1.1,60.402339977325944,
neutral,negative,1,k,k,,,,,,,,,2,6,42,7,,,,,,,,,,,,,,,,,,,,,,,,main,2,2,1,negative,neutral,k,k,1,0.8108505999844056,261.26032440000563,262.27159960000427,262.2299576999794,None,261.26032440000563,None,261.26032440000563,None,261.26032440000563,None,263.05144545999644,None,263.05144545999644,None,263.05144545999644,None,,,,,,,,,,,105,19,Female,2022-04-29_17h05.15.359,Boat,2022.1.1,60.402339977325944,
negative,positive,1,j,l,,,,,,,,,2,7,43,6,,,,,,,,,,,,,,,,,,,,,,,,main,2,2,1,positive,negative,l,k,0,0.5916236000193749,263.07321269999375,264.08192759999656,264.0468992999813,None,263.07321269999375,None,263.07321269999375,None,263.07321269999375,None,264.6517595000041,None,264.6517595000041,None,264.6517595000041,None,,,,,,,,,,,105,19,Female,2022-04-29_17h05.15.359,Boat,2022.1.1,60.402339977325944,
negative,neutral,2,j,l,,,,,,,,,2,8,44,12,,,,,,,,,,,,,,,,,,,,,,,,main,2,2,2,neutral,negative,l,l,1,0.7024362999945879,265.6658056000015,266.6778023999941,266.6582768999797,None,265.6658056000015,None,265.6658056000015,None,265.6658056000015,None,267.35498165999013,None,267.35498165999013,None,267.35498165999013,None,,,,,,,,,,,105,19,Female,2022-04-29_17h05.15.359,Boat,2022.1.1,60.402339977325944,
neutral,negative,2,k,k,,,,,,,,,2,9,45,16,,,,,,,,,,,,,,,,,,,,,,,,main,2,2,2,negative,neutral,k,k,1,0.7451386000029743,267.3718544000003,268.37996839999687,268.3461696000013,None,267.3718544000003,None,267.3718544000003,None,267.3718544000003,None,269.10179775998984,None,269.10179775998984,None,269.10179775998984,None,,,,,,,,,,,105,19,Female,2022-04-29_17h05.15.359,Boat,2022.1.1,60.402339977325944,
negative,negative,2,j,l,,,,,,,,,2,10,46,9,,,,,,,,,,,,,,,,,,,,,,,,main,2,2,2,negative,negative,l,l,1,0.7603039999958128,269.1230346999946,270.1413287000032,270.12126799998805,None,269.1230346999946,None,269.1230346999946,None,269.1230346999946,None,270.863436659993,None,270.863436659993,None,270.863436659993,None,,,,,,,,,,,105,19,Female,2022-04-29_17h05.15.359,Boat,2022.1.1,60.402339977325944,
neutral,neutral,1,k,k,,,,,,,,,2,11,47,1,,,,,,,,,,,,,,,,,,,,,,,,main,2,2,1,neutral,neutral,k,k,1,0.7107254999864381,270.88319809999666,271.90832329998375,271.86324069998227,None,270.88319809999666,None,270.88319809999666,None,270.88319809999666,None,272.5779495600058,None,272.5779495600058,None,272.5779495600058,None,,,,,,,,,,,105,19,Female,2022-04-29_17h05.15.359,Boat,2022.1.1,60.402339977325944,
positive,neutral,1,l,j,,,,,,,,,2,12,48,8,,,,,,,,,,,,,,,,,,,,,,,,main,2,2,1,neutral,positive,j,j,1,0.6862821999820881,272.5982468999864,273.6133613999991,273.5753602999903,None,272.5982468999864,None,272.5982468999864,None,272.5982468999864,None,274.2688251599815,None,274.2688251599815,None,274.2688251599815,None,,,,,,,,,,,105,19,Female,2022-04-29_17h05.15.359,Boat,2022.1.1,60.402339977325944,
neutral,positive,2,k,k,,,,,,,,,2,13,49,13,,,,,,,,,,,,,,,,,,,,,,,,main,1,1,2,positive,neutral,k,k,1,0.6890130999963731,274.2855743999826,275.2984155000013,275.263292299991,None,274.2855743999826,None,274.2855743999826,None,274.2855743999826,None,275.9599040599918,None,275.9599040599918,None,275.9599040599918,None,,,,,,,,,,,105,19,Female,2022-04-29_17h05.15.359,Boat,2022.1.1,60.402339977325944,
neutral,neutral,2,k,k,,,,,,,,,2,14,50,10,,,,,,,,,,,,,,,,,,,,,,,,main,1,1,2,neutral,neutral,k,k,1,0.8662003000208642,275.97888059998513,276.99495960000786,276.97518489998765,None,275.97888059998513,None,275.97888059998513,None,275.97888059998513,None,277.8301978599833,None,277.8301978599833,None,277.8301978599833,None,,,,,,,,,,,105,19,Female,2022-04-29_17h05.15.359,Boat,2022.1.1,60.402339977325944,
neutral,positive,1,k,k,,,,,,,,,2,15,51,4,,,,,,,,,,,,,,,,,,,,,,,,main,2,2,1,positive,neutral,k,k,1,0.7640191999962553,277.8476994999801,278.8472988999856,278.83026009998866,None,277.8476994999801,None,277.8476994999801,None,277.8476994999801,None,279.5973301599937,None,279.5973301599937,None,279.5973301599937,None,,,,,,,,,,,105,19,Female,2022-04-29_17h05.15.359,Boat,2022.1.1,60.402339977325944,
positive,positive,2,l,j,,,,,,,,,2,16,52,11,,,,,,,,,,,,,,,,,,,,,,,,main,2,2,2,positive,positive,j,j,1,0.6567856000037864,279.61433519999264,280.6312976999907,280.59492370000225,None,279.61433519999264,None,279.61433519999264,None,279.61433519999264,None,281.2574413599999,None,281.2574413599999,None,281.2574413599999,None,,,,,,,,,,,105,19,Female,2022-04-29_17h05.15.359,Boat,2022.1.1,60.402339977325944,
positive,positive,1,l,j,,,,,,,,,2,17,53,2,,,,,,,,,,,,,,,,,,,,,,,,main,1,1,1,positive,positive,j,j,1,0.7144477999827359,281.27853869998944,282.28026080000564,282.2634048000036,None,281.27853869998944,None,281.27853869998944,None,281.27853869998944,None,282.9745146599802,None,282.9745146599802,None,282.9745146599802,None,,,,,,,,,,,105,19,Female,2022-04-29_17h05.15.359,Boat,2022.1.1,60.402339977325944,
positive,positive,2,l,j,,,,,,,,,3,0,54,11,,,,,,,,,,,,,,,,,,,,,,,,main,1,1,2,positive,positive,j,j,1,0.5935753000085242,282.9963354000065,284.0055343999993,283.96536729999934,None,282.9963354000065,None,282.9963354000065,None,282.9963354000065,None,284.56926156000407,None,284.56926156000407,None,284.56926156000407,None,,,,,,,,,,,105,19,Female,2022-04-29_17h05.15.359,Boat,2022.1.1,60.402339977325944,
negative,positive,2,j,l,,,,,,,,,3,1,55,15,,,,,,,,,,,,,,,,,,,,,,,,main,2,2,2,positive,negative,l,l,1,0.708448799996404,284.5904620999936,285.61182600000757,285.5721016000025,None,284.5904620999936,None,284.5904620999936,None,284.5904620999936,None,286.2807953600044,None,286.2807953600044,None,286.2807953600044,None,,,,,,,,,,,105,19,Female,2022-04-29_17h05.15.359,Boat,2022.1.1,60.402339977325944,
negative,negative,2,j,l,,,,,,,,,3,2,56,9,,,,,,,,,,,,,,,,,,,,,,,,main,2,2,2,negative,negative,l,l,1,0.5749397000181489,286.29925409998395,287.3218565999996,287.2796817999915,None,286.29925409998395,None,286.29925409998395,None,286.29925409998395,None,287.8607091600046,None,287.8607091600046,None,287.8607091600046,None,,,,,,,,,,,105,19,Female,2022-04-29_17h05.15.359,Boat,2022.1.1,60.402339977325944,
neutral,neutral,1,k,k,,,,,,,,,3,3,57,1,,,,,,,,,,,,,,,,,,,,,,,,main,1,1,1,neutral,neutral,k,k,1,0.699923200008925,287.87913719998323,288.8804459999956,288.86356549998163,None,287.87913719998323,None,287.87913719998323,None,287.87913719998323,None,289.5641115599923,None,289.5641115599923,None,289.5641115599923,None,,,,,,,,,,,105,19,Female,2022-04-29_17h05.15.359,Boat,2022.1.1,60.402339977325944,
positive,negative,1,l,j,,,,,,,,,3,4,58,5,,,,,,,,,,,,,,,,,,,,,,,,main,1,1,1,negative,positive,j,j,1,0.7513634999922942,289.5805474999943,290.6085561999935,290.5615856999939,None,289.5805474999943,None,289.5805474999943,None,289.5805474999943,None,291.31664765997846,None,291.31664765997846,None,291.31664765997846,None,,,,,,,,,,,105,19,Female,2022-04-29_17h05.15.359,Boat,2022.1.1,60.402339977325944,
neutral,positive,2,k,k,,,,,,,,,3,5,59,13,,,,,,,,,,,,,,,,,,,,,,,,main,1,1,2,positive,neutral,k,k,1,0.7218763999990188,291.3351715999888,292.3554613000015,292.31375619999017,None,291.3351715999888,None,291.3351715999888,None,291.3351715999888,None,293.0434548599791,None,293.0434548599791,None,293.0434548599791,None,,,,,,,,,,,105,19,Female,2022-04-29_17h05.15.359,Boat,2022.1.1,60.402339977325944,
positive,neutral,2,l,j,,,,,,,,,3,6,60,17,,,,,,,,,,,,,,,,,,,,,,,,main,1,1,2,neutral,positive,j,j,1,0.8161925000022165,293.0624380999943,294.0638657999807,294.04743269999744,None,293.0624380999943,None,293.0624380999943,None,293.0624380999943,None,294.86057605998064,None,294.86057605998064,None,294.86057605998064,None,,,,,,,,,,,105,19,Female,2022-04-29_17h05.15.359,Boat,2022.1.1,60.402339977325944,
positive,neutral,1,l,j,,,,,,,,,3,7,61,8,,,,,,,,,,,,,,,,,,,,,,,,main,2,2,1,neutral,positive,j,j,1,0.6051217000058386,294.8802425999893,295.8971435999847,295.85854359998484,None,294.8802425999893,None,294.8802425999893,None,294.8802425999893,None,296.469633460007,None,296.469633460007,None,296.469633460007,None,,,,,,,,,,,105,19,Female,2022-04-29_17h05.15.359,Boat,2022.1.1,60.402339977325944,
positive,positive,1,l,j,,,,,,,,,3,8,62,2,,,,,,,,,,,,,,,,,,,,,,,,main,2,2,1,positive,positive,j,j,1,0.618363399989903,296.48574299999746,297.49557329999516,297.47545870000613,None,296.48574299999746,None,296.48574299999746,None,296.48574299999746,None,298.0913417600008,None,298.0913417600008,None,298.0913417600008,None,,,,,,,,,,,105,19,Female,2022-04-29_17h05.15.359,Boat,2022.1.1,60.402339977325944,
neutral,neutral,2,k,k,,,,,,,,,3,9,63,10,,,,,,,,,,,,,,,,,,,,,,,,main,1,1,2,neutral,neutral,k,k,1,0.7233696000184864,298.11198309998144,299.12231249999604,299.08077450000565,None,298.11198309998144,None,298.11198309998144,None,298.11198309998144,None,299.8162351599807,None,299.8162351599807,None,299.8162351599807,None,,,,,,,,,,,105,19,Female,2022-04-29_17h05.15.359,Boat,2022.1.1,60.402339977325944,
neutral,negative,2,k,k,,,,,,,,,3,10,64,16,,,,,,,,,,,,,,,,,,,,,,,,main,1,1,2,negative,neutral,k,k,1,0.6193274999968708,299.8340609000006,300.8492497999978,300.8144567999989,None,299.8340609000006,None,299.8340609000006,None,299.8340609000006,None,301.4400300600013,None,301.4400300600013,None,301.4400300600013,None,,,,,,,,,,,105,19,Female,2022-04-29_17h05.15.359,Boat,2022.1.1,60.402339977325944,
negative,positive,1,j,l,,,,,,,,,3,11,65,6,,,,,,,,,,,,,,,,,,,,,,,,main,2,2,1,positive,negative,l,l,1,0.7818945999897551,301.4597222000011,302.4644735000038,302.43071270000655,None,301.4597222000011,None,301.4597222000011,None,301.4597222000011,None,303.22326426000507,None,303.22326426000507,None,303.22326426000507,None,,,,,,,,,,,105,19,Female,2022-04-29_17h05.15.359,Boat,2022.1.1,60.402339977325944,
negative,neutral,1,j,l,,,,,,,,,3,12,66,3,,,,,,,,,,,,,,,,,,,,,,,,main,1,1,1,neutral,negative,l,l,1,0.5764284000033513,303.24516479999875,304.25559089999297,304.21407620000537,None,303.24516479999875,None,303.24516479999875,None,303.24516479999875,None,304.8018201599974,None,304.8018201599974,None,304.8018201599974,None,,,,,,,,,,,105,19,Female,2022-04-29_17h05.15.359,Boat,2022.1.1,60.402339977325944,
negative,negative,1,j,l,,,,,,,,,3,13,67,0,,,,,,,,,,,,,,,,,,,,,,,,main,1,1,1,negative,negative,l,l,1,0.5722552000079304,304.81805629999144,305.8307131000038,305.795326499996,None,304.81805629999144,None,304.81805629999144,None,304.81805629999144,None,306.3777974600001,None,306.3777974600001,None,306.3777974600001,None,,,,,,,,,,,105,19,Female,2022-04-29_17h05.15.359,Boat,2022.1.1,60.402339977325944,
negative,neutral,2,j,l,,,,,,,,,3,14,68,12,,,,,,,,,,,,,,,,,,,,,,,,main,1,1,2,neutral,negative,l,l,1,0.8289093999774195,306.396459599986,307.3973725999822,307.3792484999867,None,306.396459599986,None,306.396459599986,None,306.396459599986,None,308.2093938600068,None,308.2093938600068,None,308.2093938600068,None,,,,,,,,,,,105,19,Female,2022-04-29_17h05.15.359,Boat,2022.1.1,60.402339977325944,
positive,negative,2,l,j,,,,,,,,,3,15,69,14,,,,,,,,,,,,,,,,,,,,,,,,main,1,1,2,negative,positive,j,l,0,0.6271710000000894,308.2297277000034,309.2390713999921,309.21475019998616,None,308.2297277000034,None,308.2297277000034,None,308.2297277000034,None,309.8466531999875,None,309.8466531999875,None,309.8466531999875,None,,,,,,,,,,,105,19,Female,2022-04-29_17h05.15.359,Boat,2022.1.1,60.402339977325944,
neutral,negative,1,k,k,,,,,,,,,3,16,70,7,,,,,,,,,,,,,,,,,,,,,,,,main,1,1,1,negative,neutral,k,k,1,0.7902971000003163,310.866503199999,311.88085069999215,311.84724790000473,None,310.866503199999,None,310.866503199999,None,310.866503199999,None,312.6437446599797,None,312.6437446599797,None,312.6437446599797,None,,,,,,,,,,,105,19,Female,2022-04-29_17h05.15.359,Boat,2022.1.1,60.402339977325944,
neutral,positive,1,k,k,,,,,,,,,3,17,71,4,,,,,,,,,,,,,,,,,,,,,,,,main,1,1,1,positive,neutral,k,k,1,0.6561486999853514,312.6628153999918,313.66396819998045,313.6468511999992,None,312.6628153999918,None,312.6628153999918,None,312.6628153999918,None,314.299638960007,None,314.299638960007,None,314.299638960007,None,,,,,,,,,,,105,19,Female,2022-04-29_17h05.15.359,Boat,2022.1.1,60.402339977325944,
neutral,positive,1,k,k,,,,,,,,,4,0,72,4,,,,,,,,,,,,,,,,,,,,,,,,main,2,2,1,positive,neutral,k,k,1,0.6143835000111721,314.3199792999949,315.3311180000019,315.2949710999965,None,314.3199792999949,None,314.3199792999949,None,314.3199792999949,None,315.9178807600023,None,315.9178807600023,None,315.9178807600023,None,,,,,,,,,,,105,19,Female,2022-04-29_17h05.15.359,Boat,2022.1.1,60.402339977325944,
negative,negative,1,j,l,,,,,,,,,4,1,73,0,,,,,,,,,,,,,,,,,,,,,,,,main,2,2,1,negative,negative,l,k,0,0.5099023999937344,315.93540570000187,316.9500158999872,316.9142024999892,None,315.93540570000187,None,315.93540570000187,None,315.93540570000187,None,317.4355318000016,None,317.4355318000016,None,317.4355318000016,None,,,,,,,,,,,105,19,Female,2022-04-29_17h05.15.359,Boat,2022.1.1,60.402339977325944,
neutral,neutral,2,k,k,,,,,,,,,4,2,74,10,,,,,,,,,,,,,,,,,,,,,,,,main,1,1,2,neutral,neutral,k,k,1,0.7185269999899901,318.4508602999849,319.4725061999925,319.4310230999836,None,318.4508602999849,None,318.4508602999849,None,318.4508602999849,None,320.15524565998055,None,320.15524565998055,None,320.15524565998055,None,,,,,,,,,,,105,19,Female,2022-04-29_17h05.15.359,Boat,2022.1.1,60.402339977325944,
positive,neutral,2,l,j,,,,,,,,,4,3,75,17,,,,,,,,,,,,,,,,,,,,,,,,main,2,2,2,neutral,positive,j,j,1,0.7590269999927841,320.1753411999962,321.1794884999981,321.15908650000347,None,320.1753411999962,None,320.1753411999962,None,320.1753411999962,None,321.9145342599862,None,321.9145342599862,None,321.9145342599862,None,,,,,,,,,,,105,19,Female,2022-04-29_17h05.15.359,Boat,2022.1.1,60.402339977325944,
negative,neutral,2,j,l,,,,,,,,,4,4,76,12,,,,,,,,,,,,,,,,,,,,,,,,main,1,1,2,neutral,negative,l,l,1,0.6522500999853946,321.93318399999407,322.9475631999958,322.9127080999897,None,321.93318399999407,None,321.93318399999407,None,321.93318399999407,None,323.57160695999335,None,323.57160695999335,None,323.57160695999335,None,,,,,,,,,,,105,19,Female,2022-04-29_17h05.15.359,Boat,2022.1.1,60.402339977325944,
neutral,neutral,1,k,k,,,,,,,,,4,5,77,1,,,,,,,,,,,,,,,,,,,,,,,,main,1,1,1,neutral,neutral,k,k,1,0.6296537999878637,323.5882683999953,324.59763879998354,324.5620252999943,None,323.5882683999953,None,323.5882683999953,None,323.5882683999953,None,325.20305805998794,None,325.20305805998794,None,325.20305805998794,None,,,,,,,,,,,105,19,Female,2022-04-29_17h05.15.359,Boat,2022.1.1,60.402339977325944,
positive,positive,2,l,j,,,,,,,,,4,6,78,11,,,,,,,,,,,,,,,,,,,,,,,,main,1,1,2,positive,positive,j,j,1,0.7252872999815736,325.2186740000034,326.22828909999225,326.2094414999883,None,325.2186740000034,None,325.2186740000034,None,325.2186740000034,None,326.93136976000676,None,326.93136976000676,None,326.93136976000676,None,,,,,,,,,,,105,19,Female,2022-04-29_17h05.15.359,Boat,2022.1.1,60.402339977325944,
positive,positive,1,l,j,,,,,,,,,4,7,79,2,,,,,,,,,,,,,,,,,,,,,,,,main,1,1,1,positive,positive,j,j,1,1.0785750000213739,326.9482522000035,327.9479644999956,327.93129609999596,None,326.9482522000035,None,326.9482522000035,None,326.9482522000035,None,329.01324736000095,None,329.01324736000095,None,329.01324736000095,None,,,,,,,,,,,105,19,Female,2022-04-29_17h05.15.359,Boat,2022.1.1,60.402339977325944,
neutral,positive,2,k,k,,,,,,,,,4,8,80,13,,,,,,,,,,,,,,,,,,,,,,,,main,2,2,2,positive,neutral,k,k,1,0.6818319000012707,329.03164109998033,330.0426457999856,330.02276799999527,None,329.03164109998033,None,329.03164109998033,None,329.03164109998033,None,330.6981283599947,None,330.6981283599947,None,330.6981283599947,None,,,,,,,,,,,105,19,Female,2022-04-29_17h05.15.359,Boat,2022.1.1,60.402339977325944,
neutral,negative,1,k,k,,,,,,,,,4,9,81,7,,,,,,,,,,,,,,,,,,,,,,,,main,2,2,1,negative,neutral,k,,0,0.9421574999869335,330.71649900000193,331.7319367000018,331.6967236000055,None,330.71649900000193,None,330.71649900000193,None,330.71649900000193,None,332.64750599997933,None,332.64750599997933,None,332.64750599997933,None,,,,,,,,,,,105,19,Female,2022-04-29_17h05.15.359,Boat,2022.1.1,60.402339977325944,
positive,neutral,1,l,j,,,,,,,,,4,10,82,8,,,,,,,,,,,,,,,,,,,,,,,,main,1,1,1,neutral,positive,j,j,1,0.8538016000238713,333.6676093999995,334.6779678000021,334.6594311000081,None,333.6676093999995,None,333.6676093999995,None,333.6676093999995,None,335.5082286599994,None,335.5082286599994,None,335.5082286599994,None,,,,,,,,,,,105,19,Female,2022-04-29_17h05.15.359,Boat,2022.1.1,60.402339977325944,
positive,negative,2,l,j,,,,,,,,,4,11,83,14,,,,,,,,,,,,,,,,,,,,,,,,main,2,2,2,negative,positive,j,j,1,0.9052016999921761,335.5276544999797,336.54557289998047,336.50661389998277,None,335.5276544999797,None,335.5276544999797,None,335.5276544999797,None,337.41494035999347,None,337.41494035999347,None,337.41494035999347,None,,,,,,,,,,,105,19,Female,2022-04-29_17h05.15.359,Boat,2022.1.1,60.402339977325944,
positive,negative,1,l,j,,,,,,,,,4,12,84,5,,,,,,,,,,,,,,,,,,,,,,,,main,2,2,1,negative,positive,j,j,1,0.6335572999960277,337.4330030999845,338.43777230000705,338.4202596999821,None,337.4330030999845,None,337.4330030999845,None,337.4330030999845,None,339.0482668599783,None,339.0482668599783,None,339.0482668599783,None,,,,,,,,,,,105,19,Female,2022-04-29_17h05.15.359,Boat,2022.1.1,60.402339977325944,
neutral,negative,2,k,k,,,,,,,,,4,13,85,16,,,,,,,,,,,,,,,,,,,,,,,,main,2,2,2,negative,neutral,k,k,1,0.8241993000265211,339.069791899994,340.0787519000005,340.05935920000775,None,339.069791899994,None,339.069791899994,None,339.069791899994,None,340.8799822599889,None,340.8799822599889,None,340.8799822599889,None,,,,,,,,,,,105,19,Female,2022-04-29_17h05.15.359,Boat,2022.1.1,60.402339977325944,
negative,positive,1,j,l,,,,,,,,,4,14,86,6,,,,,,,,,,,,,,,,,,,,,,,,main,1,1,1,positive,negative,l,l,1,0.7439739999826998,340.89689099998213,341.90622859998257,341.8813138999976,None,340.89689099998213,None,340.89689099998213,None,340.89689099998213,None,342.627758959998,None,342.627758959998,None,342.627758959998,None,,,,,,,,,,,105,19,Female,2022-04-29_17h05.15.359,Boat,2022.1.1,60.402339977325944,
negative,negative,2,j,l,,,,,,,,,4,15,87,9,,,,,,,,,,,,,,,,,,,,,,,,main,2,2,2,negative,negative,l,l,1,0.7122588000202086,342.6461146000074,343.6594661999843,343.6149870000081,None,342.6461146000074,None,342.6461146000074,None,342.6461146000074,None,344.34191985997893,None,344.34191985997893,None,344.34191985997893,None,,,,,,,,,,,105,19,Female,2022-04-29_17h05.15.359,Boat,2022.1.1,60.402339977325944,
negative,neutral,1,j,l,,,,,,,,,4,16,88,3,,,,,,,,,,,,,,,,,,,,,,,,main,2,2,1,neutral,negative,l,l,1,0.6191033000068273,344.3611213999975,345.36511839999,345.34595079999417,None,344.3611213999975,None,344.3611213999975,None,344.3611213999975,None,345.9634168599936,None,345.9634168599936,None,345.9634168599936,None,,,,,,,,,,,105,19,Female,2022-04-29_17h05.15.359,Boat,2022.1.1,60.402339977325944,
negative,positive,2,j,l,,,,,,,,,4,17,89,15,,,,,,,,,,,,,,,,,,,,,,,,main,1,1,2,positive,negative,l,l,1,0.7335559999919496,345.9821261999896,346.98979490000056,346.9645567999978,None,345.9821261999896,None,345.9821261999896,None,345.9821261999896,None,347.7004494600027,None,347.7004494600027,None,347.7004494600027,None,,,,,,,,,,,105,19,Female,2022-04-29_17h05.15.359,Boat,2022.1.1,60.402339977325944,
neutral,negative,1,k,k,,,,,,,,,5,0,90,7,,,,,,,,,,,,,,,,,,,,,,,,main,2,2,1,negative,neutral,k,k,1,0.8700723999936599,347.7189235999831,348.73203799998737,348.69853839999996,None,347.7189235999831,None,347.7189235999831,None,347.7189235999831,None,349.57447466000156,None,349.57447466000156,None,349.57447466000156,None,,,,,,,,,,,105,19,Female,2022-04-29_17h05.15.359,Boat,2022.1.1,60.402339977325944,
positive,neutral,2,l,j,,,,,,,,,5,1,91,17,,,,,,,,,,,,,,,,,,,,,,,,main,2,2,2,neutral,positive,j,j,1,0.7966829999932088,349.5956417999987,350.5981051999843,350.5794600000081,None,349.5956417999987,None,349.5956417999987,None,349.5956417999987,None,351.3734444600035,None,351.3734444600035,None,351.3734444600035,None,,,,,,,,,,,105,19,Female,2022-04-29_17h05.15.359,Boat,2022.1.1,60.402339977325944,
positive,neutral,1,l,j,,,,,,,,,5,2,92,8,,,,,,,,,,,,,,,,,,,,,,,,main,1,1,1,neutral,positive,j,j,1,0.6703798999951687,351.39360899999156,352.4039030999993,352.36758809999446,None,351.39360899999156,None,351.39360899999156,None,351.39360899999156,None,353.04670346000637,None,353.04670346000637,None,353.04670346000637,None,,,,,,,,,,,105,19,Female,2022-04-29_17h05.15.359,Boat,2022.1.1,60.402339977325944,
neutral,neutral,1,k,k,,,,,,,,,5,3,93,1,,,,,,,,,,,,,,,,,,,,,,,,main,1,1,1,neutral,neutral,k,k,1,0.8193984999961685,353.06458129998646,354.0901031999965,354.0435816999816,None,353.06458129998646,None,353.06458129998646,None,353.06458129998646,None,354.8688657600054,None,354.8688657600054,None,354.8688657600054,None,,,,,,,,,,,105,19,Female,2022-04-29_17h05.15.359,Boat,2022.1.1,60.402339977325944,
negative,neutral,1,j,l,,,,,,,,,5,4,94,3,,,,,,,,,,,,,,,,,,,,,,,,main,2,2,1,neutral,negative,l,l,1,0.8306701999972574,354.8866077999992,355.8988928000035,355.8650510000007,None,354.8866077999992,None,354.8866077999992,None,354.8866077999992,None,356.70101665998516,None,356.70101665998516,None,356.70101665998516,None,,,,,,,,,,,105,19,Female,2022-04-29_17h05.15.359,Boat,2022.1.1,60.402339977325944,
positive,positive,2,l,j,,,,,,,,,5,5,95,11,,,,,,,,,,,,,,,,,,,,,,,,main,2,2,2,positive,positive,j,j,1,0.9076018999912776,356.7192790999834,357.7316540000029,357.69852549998905,None,356.7192790999834,None,356.7192790999834,None,356.7192790999834,None,358.6134117600071,None,358.6134117600071,None,358.6134117600071,None,,,,,,,,,,,105,19,Female,2022-04-29_17h05.15.359,Boat,2022.1.1,60.402339977325944,
negative,negative,2,j,l,,,,,,,,,5,6,96,9,,,,,,,,,,,,,,,,,,,,,,,,main,2,2,2,negative,negative,l,l,1,1.0688043000118341,358.6321923999931,359.64623819998815,359.62653209999553,None,358.6321923999931,None,358.6321923999931,None,358.6321923999931,None,360.6839299600018,None,360.6839299600018,None,360.6839299600018,None,,,,,,,,,,,105,19,Female,2022-04-29_17h05.15.359,Boat,2022.1.1,60.402339977325944,
negative,neutral,2,j,l,,,,,,,,,5,7,97,12,,,,,,,,,,,,,,,,,,,,,,,,main,2,2,2,neutral,negative,l,l,1,0.9184433000045829,360.7028111999971,361.72373529998004,361.68183839999256,None,360.7028111999971,None,360.7028111999971,None,360.7028111999971,None,362.60769015997937,None,362.60769015997937,None,362.60769015997937,None,,,,,,,,,,,105,19,Female,2022-04-29_17h05.15.359,Boat,2022.1.1,60.402339977325944,
neutral,negative,2,k,k,,,,,,,,,5,8,98,16,,,,,,,,,,,,,,,,,,,,,,,,main,2,2,2,negative,neutral,k,k,1,0.728709599992726,362.62371970000095,363.63160849999986,363.5962001000007,None,362.62371970000095,None,362.62371970000095,None,362.62371970000095,None,364.3372216600022,None,364.3372216600022,None,364.3372216600022,None,,,,,,,,,,,105,19,Female,2022-04-29_17h05.15.359,Boat,2022.1.1,60.402339977325944,
positive,negative,2,l,j,,,,,,,,,5,9,99,14,,,,,,,,,,,,,,,,,,,,,,,,main,2,2,2,negative,positive,j,j,1,0.8284104999911506,364.354184900003,365.3767691999965,365.3319942999806,None,364.354184900003,None,364.354184900003,None,364.354184900003,None,366.16828935999945,None,366.16828935999945,None,366.16828935999945,None,,,,,,,,,,,105,19,Female,2022-04-29_17h05.15.359,Boat,2022.1.1,60.402339977325944,
neutral,positive,2,k,k,,,,,,,,,5,10,100,13,,,,,,,,,,,,,,,,,,,,,,,,main,1,1,2,positive,neutral,k,k,1,0.8813214999972843,366.1856761999952,367.1968317999854,367.1768332000065,None,366.1856761999952,None,366.1856761999952,None,366.1856761999952,None,368.05245035999394,None,368.05245035999394,None,368.05245035999394,None,,,,,,,,,,,105,19,Female,2022-04-29_17h05.15.359,Boat,2022.1.1,60.402339977325944,
positive,positive,1,l,j,,,,,,,,,5,11,101,2,,,,,,,,,,,,,,,,,,,,,,,,main,2,2,1,positive,positive,j,j,1,0.8239256000088062,368.06931009999244,369.08083859999897,369.0606063999876,None,368.06931009999244,None,368.06931009999244,None,368.06931009999244,None,369.8801886599889,None,369.8801886599889,None,369.8801886599889,None,,,,,,,,,,,105,19,Female,2022-04-29_17h05.15.359,Boat,2022.1.1,60.402339977325944,
negative,positive,1,j,l,,,,,,,,,5,12,102,6,,,,,,,,,,,,,,,,,,,,,,,,main,1,1,1,positive,negative,l,l,1,0.9483126999984961,369.8984221999999,370.91543130000355,370.88031750000664,None,369.8984221999999,None,369.8984221999999,None,369.8984221999999,None,371.83116685999846,None,371.83116685999846,None,371.83116685999846,None,,,,,,,,,,,105,19,Female,2022-04-29_17h05.15.359,Boat,2022.1.1,60.402339977325944,
negative,positive,2,j,l,,,,,,,,,5,13,103,15,,,,,,,,,,,,,,,,,,,,,,,,main,1,1,2,positive,negative,l,,0,1.4732095999934245,371.8496635000047,372.8485933000047,372.83213639998576,None,371.8496635000047,None,371.8496635000047,None,371.8496635000047,None,374.31456739999703,None,374.31456739999703,None,374.31456739999703,None,,,,,,,,,,,105,19,Female,2022-04-29_17h05.15.359,Boat,2022.1.1,60.402339977325944,
neutral,positive,1,k,k,,,,,,,,,5,14,104,4,,,,,,,,,,,,,,,,,,,,,,,,main,1,1,1,positive,neutral,k,k,1,1.0612077999976464,375.3350448999845,376.3471242999949,376.3266594999877,None,375.3350448999845,None,375.3350448999845,None,375.3350448999845,None,377.38237245999915,None,377.38237245999915,None,377.38237245999915,None,,,,,,,,,,,105,19,Female,2022-04-29_17h05.15.359,Boat,2022.1.1,60.402339977325944,
neutral,neutral,2,k,k,,,,,,,,,5,15,105,10,,,,,,,,,,,,,,,,,,,,,,,,main,1,1,2,neutral,neutral,k,k,1,0.7243281000119168,377.3990909999993,378.4127305999864,378.3932593000063,None,377.3990909999993,None,377.3990909999993,None,377.3990909999993,None,379.1103127599839,None,379.1103127599839,None,379.1103127599839,None,,,,,,,,,,,105,19,Female,2022-04-29_17h05.15.359,Boat,2022.1.1,60.402339977325944,
negative,negative,1,j,l,,,,,,,,,5,16,106,0,,,,,,,,,,,,,,,,,,,,,,,,main,1,1,1,negative,negative,l,l,1,0.7312384000106249,379.12750119998236,380.1336137999897,380.09887549999985,None,379.12750119998236,None,379.12750119998236,None,379.12750119998236,None,380.8407564599969,None,380.8407564599969,None,380.8407564599969,None,,,,,,,,,,,105,19,Female,2022-04-29_17h05.15.359,Boat,2022.1.1,60.402339977325944,
positive,negative,1,l,j,,,,,,,,,5,17,107,5,,,,,,,,,,,,,,,,,,,,,,,,main,2,2,1,negative,positive,j,,0,1.5399614999769256,380.86843370000133,381.8806887999817,381.8806887999817,None,380.86843370000133,None,380.86843370000133,None,380.86843370000133,None,383.4067570999905,None,383.4067570999905,None,383.4067570999905,None,,,,,,,,,,,105,19,Female,2022-04-29_17h05.15.359,Boat,2022.1.1,60.402339977325944,
positive,neutral,1,l,j,,,,,,,,,6,0,108,8,,,,,,,,,,,,,,,,,,,,,,,,main,2,2,1,neutral,positive,j,j,1,0.9250572000164539,384.44212739999057,385.45234580000397,385.4113210999931,None,384.44212739999057,None,384.44212739999057,None,384.44212739999057,None,386.3313794599875,None,386.3313794599875,None,386.3313794599875,None,,,,,,,,,,,105,19,Female,2022-04-29_17h05.15.359,Boat,2022.1.1,60.402339977325944,
positive,neutral,2,l,j,,,,,,,,,6,1,109,17,,,,,,,,,,,,,,,,,,,,,,,,main,2,2,2,neutral,positive,j,j,1,1.4438437999924645,386.3521334999823,387.36571680000634,387.3273617999803,None,386.3521334999823,None,386.3521334999823,None,386.3521334999823,None,388.77744955999367,None,388.77744955999367,None,388.77744955999367,None,,,,,,,,,,,105,19,Female,2022-04-29_17h05.15.359,Boat,2022.1.1,60.402339977325944,
positive,negative,2,l,j,,,,,,,,,6,2,110,14,,,,,,,,,,,,,,,,,,,,,,,,main,1,1,2,negative,positive,j,j,1,0.6498061000020243,388.80456940000295,389.81697529999656,389.79551599998376,None,388.80456940000295,None,388.80456940000295,None,388.80456940000295,None,390.4324917599937,None,390.4324917599937,None,390.4324917599937,None,,,,,,,,,,,105,19,Female,2022-04-29_17h05.15.359,Boat,2022.1.1,60.402339977325944,
negative,neutral,1,j,l,,,,,,,,,6,3,111,3,,,,,,,,,,,,,,,,,,,,,,,,main,1,1,1,neutral,negative,l,l,1,0.8500742000178434,390.4537255000032,391.4714914000069,391.4490293999843,None,390.4537255000032,None,390.4537255000032,None,390.4537255000032,None,392.29644101998997,None,392.29644101998997,None,392.29644101998997,None,,,,,,,,,,,105,19,Female,2022-04-29_17h05.15.359,Boat,2022.1.1,60.402339977325944,
negative,negative,1,j,l,,,,,,,,,6,4,112,0,,,,,,,,,,,,,,,,,,,,,,,,main,1,1,1,negative,negative,l,l,1,-0.6945598000020254,392.3214606999827,None,None,None,392.3214606999827,None,392.3214606999827,None,392.3214606999827,None,392.6083897000062,None,392.6083897000062,None,392.6083897000062,None,,,,,,,,,,,105,19,Female,2022-04-29_17h05.15.359,Boat,2022.1.1,60.402339977325944,
neutral,neutral,2,k,k,,,,,,,,,6,5,113,10,,,,,,,,,,,,,,,,,,,,,,,,main,2,2,2,neutral,neutral,k,k,1,0.8588305000157561,395.62363429999095,396.64935739999055,396.6014499999874,None,395.62363429999095,None,395.62363429999095,None,395.62363429999095,None,397.46020945998896,None,397.46020945998896,None,397.46020945998896,None,,,,,,,,,,,105,19,Female,2022-04-29_17h05.15.359,Boat,2022.1.1,60.402339977325944,
negative,positive,2,j,l,,,,,,,,,6,6,114,15,,,,,,,,,,,,,,,,,,,,,,,,main,2,2,2,positive,negative,l,l,1,0.7994068000116386,397.4960186999815,398.50044969999,398.4800413000048,None,397.4960186999815,None,397.4960186999815,None,397.4960186999815,None,399.2669123599975,None,399.2669123599975,None,399.2669123599975,None,,,,,,,,,,,105,19,Female,2022-04-29_17h05.15.359,Boat,2022.1.1,60.402339977325944,
neutral,positive,2,k,k,,,,,,,,,6,7,115,13,,,,,,,,,,,,,,,,,,,,,,,,main,2,2,2,positive,neutral,k,k,1,0.8440686000103597,399.2855234000017,400.30300459999125,400.26590769999893,None,399.2855234000017,None,399.2855234000017,None,399.2855234000017,None,401.1115624599828,None,401.1115624599828,None,401.1115624599828,None,,,,,,,,,,,105,19,Female,2022-04-29_17h05.15.359,Boat,2022.1.1,60.402339977325944,
negative,positive,1,j,l,,,,,,,,,6,8,116,6,,,,,,,,,,,,,,,,,,,,,,,,main,1,1,1,positive,negative,l,l,1,0.7723281999933533,401.1370759999845,402.15571039999486,402.1177219999954,None,401.1370759999845,None,401.1370759999845,None,401.1370759999845,None,402.8903323599865,None,402.8903323599865,None,402.8903323599865,None,,,,,,,,,,,105,19,Female,2022-04-29_17h05.15.359,Boat,2022.1.1,60.402339977325944,
positive,negative,1,l,j,,,,,,,,,6,9,117,5,,,,,,,,,,,,,,,,,,,,,,,,main,1,1,1,negative,positive,j,j,1,0.7726433000061661,402.91322119999677,403.91580699998303,403.8991510999913,None,402.91322119999677,None,402.91322119999677,None,402.91322119999677,None,404.6661919600068,None,404.6661919600068,None,404.6661919600068,None,,,,,,,,,,,105,19,Female,2022-04-29_17h05.15.359,Boat,2022.1.1,60.402339977325944,
neutral,negative,1,k,k,,,,,,,,,6,10,118,7,,,,,,,,,,,,,,,,,,,,,,,,main,1,1,1,negative,neutral,k,k,1,0.7929848000057973,404.68487529997947,405.6993861999945,405.66361089999555,None,404.68487529997947,None,404.68487529997947,None,404.68487529997947,None,406.46291055998006,None,406.46291055998006,None,406.46291055998006,None,,,,,,,,,,,105,19,Female,2022-04-29_17h05.15.359,Boat,2022.1.1,60.402339977325944,
negative,neutral,2,j,l,,,,,,,,,6,11,119,12,,,,,,,,,,,,,,,,,,,,,,,,main,2,2,2,neutral,negative,l,l,1,0.8079913999827113,406.48265739998897,407.4979097000032,407.4776944000041,None,406.48265739998897,None,406.48265739998897,None,406.48265739998897,None,408.2746358599892,None,408.2746358599892,None,408.2746358599892,None,,,,,,,,,,,105,19,Female,2022-04-29_17h05.15.359,Boat,2022.1.1,60.402339977325944,
neutral,positive,1,k,k,,,,,,,,,6,12,120,4,,,,,,,,,,,,,,,,,,,,,,,,main,2,2,1,positive,neutral,k,k,1,0.7267954999988433,408.2937992000079,409.30209779998404,409.26685230000294,None,408.2937992000079,None,408.2937992000079,None,408.2937992000079,None,410.0026492600067,None,410.0026492600067,None,410.0026492600067,None,,,,,,,,,,,105,19,Female,2022-04-29_17h05.15.359,Boat,2022.1.1,60.402339977325944,
positive,positive,1,l,j,,,,,,,,,6,13,121,2,,,,,,,,,,,,,,,,,,,,,,,,main,1,1,1,positive,positive,j,j,1,0.7070925000007264,410.02228579999064,411.0408543999947,410.9995168999885,None,410.02228579999064,None,410.02228579999064,None,410.02228579999064,None,411.7151365599915,None,411.7151365599915,None,411.7151365599915,None,,,,,,,,,,,105,19,Female,2022-04-29_17h05.15.359,Boat,2022.1.1,60.402339977325944,
positive,positive,2,l,j,,,,,,,,,6,14,122,11,,,,,,,,,,,,,,,,,,,,,,,,main,1,1,2,positive,positive,j,j,1,0.9635745999985375,411.73529409998446,412.74861149999197,412.72809769999003,None,411.73529409998446,None,411.73529409998446,None,411.73529409998446,None,413.6816806599876,None,413.6816806599876,None,413.6816806599876,None,,,,,,,,,,,105,19,Female,2022-04-29_17h05.15.359,Boat,2022.1.1,60.402339977325944,
negative,negative,2,j,l,,,,,,,,,6,15,123,9,,,,,,,,,,,,,,,,,,,,,,,,main,2,2,2,negative,negative,l,l,1,1.0246418000024278,413.70251350000035,414.7279678999912,414.6796326999902,None,413.70251350000035,None,413.70251350000035,None,413.70251350000035,None,415.71055285998443,None,415.71055285998443,None,415.71055285998443,None,,,,,,,,,,,105,19,Female,2022-04-29_17h05.15.359,Boat,2022.1.1,60.402339977325944,
neutral,neutral,1,k,k,,,,,,,,,6,16,124,1,,,,,,,,,,,,,,,,,,,,,,,,main,2,2,1,neutral,neutral,k,k,1,0.7964960999961477,415.7295805999893,416.74111109998194,416.71627099998295,None,415.7295805999893,None,415.7295805999893,None,415.7295805999893,None,417.5104053599847,None,417.5104053599847,None,417.5104053599847,None,,,,,,,,,,,105,19,Female,2022-04-29_17h05.15.359,Boat,2022.1.1,60.402339977325944,
neutral,negative,2,k,k,,,,,,,,,6,17,125,16,,,,,,,,,,,,,,,,,,,,,,,,main,2,2,2,negative,neutral,k,k,1,0.7590760000166483,417.5319048999809,418.53351660000044,418.51634020000347,None,417.5319048999809,None,417.5319048999809,None,417.5319048999809,None,419.27005965998103,None,419.27005965998103,None,419.27005965998103,None,,,,,,,,,,,105,19,Female,2022-04-29_17h05.15.359,Boat,2022.1.1,60.402339977325944,
neutral,negative,2,k,k,,,,,,,,,7,0,126,16,,,,,,,,,,,,,,,,,,,,,,,,main,2,2,2,negative,neutral,k,k,1,0.8492039999982808,419.2876252999995,420.307873999991,420.26645299998927,None,419.2876252999995,None,419.2876252999995,None,419.2876252999995,None,421.123640259981,None,421.123640259981,None,421.123640259981,None,,,,,,,,,,,105,19,Female,2022-04-29_17h05.15.359,Boat,2022.1.1,60.402339977325944,
positive,neutral,1,l,j,,,,,,,,,7,1,127,8,,,,,,,,,,,,,,,,,,,,,,,,main,2,2,1,neutral,positive,j,j,1,0.746940299984999,421.14352439998765,422.15833619999466,422.1163730999979,None,421.14352439998765,None,421.14352439998765,None,421.14352439998765,None,422.8723055600043,None,422.8723055600043,None,422.8723055600043,None,,,,,,,,,,,105,19,Female,2022-04-29_17h05.15.359,Boat,2022.1.1,60.402339977325944,
neutral,positive,1,k,k,,,,,,,,,7,2,128,4,,,,,,,,,,,,,,,,,,,,,,,,main,2,2,1,positive,neutral,k,k,1,0.9637922000256367,422.88891370000783,423.9017251000041,423.86667980000493,None,422.88891370000783,None,422.88891370000783,None,422.88891370000783,None,424.838261260002,None,424.838261260002,None,424.838261260002,None,,,,,,,,,,,105,19,Female,2022-04-29_17h05.15.359,Boat,2022.1.1,60.402339977325944,
positive,neutral,2,l,j,,,,,,,,,7,3,129,17,,,,,,,,,,,,,,,,,,,,,,,,main,1,1,2,neutral,positive,j,,0,1.051682899997104,424.8556064000004,425.863546699984,425.84471489998396,None,424.8556064000004,None,424.8556064000004,None,424.8556064000004,None,426.8987624000001,None,426.8987624000001,None,426.8987624000001,None,,,,,,,,,,,105,19,Female,2022-04-29_17h05.15.359,Boat,2022.1.1,60.402339977325944,
negative,positive,2,j,l,,,,,,,,,7,4,130,15,,,,,,,,,,,,,,,,,,,,,,,,main,1,1,2,positive,negative,l,l,1,0.7659746000135783,427.9186728000059,428.92792990000453,428.9080224999925,None,427.9186728000059,None,427.9186728000059,None,427.9186728000059,None,429.6694544599944,None,429.6694544599944,None,429.6694544599944,None,,,,,,,,,,,105,19,Female,2022-04-29_17h05.15.359,Boat,2022.1.1,60.402339977325944,
positive,negative,2,l,j,,,,,,,,,7,5,131,14,,,,,,,,,,,,,,,,,,,,,,,,main,2,2,2,negative,positive,j,l,0,2.0426067000080366,429.68756580000627,430.6946317999973,430.6748802999791,None,429.68756580000627,None,429.68756580000627,None,429.68756580000627,None,432.7231291999924,None,432.7231291999924,None,432.7231291999924,None,,,,,,,,,,,105,19,Female,2022-04-29_17h05.15.359,Boat,2022.1.1,60.402339977325944,
negative,neutral,2,j,l,,,,,,,,,7,6,132,12,,,,,,,,,,,,,,,,,,,,,,,,main,1,1,2,neutral,negative,l,l,1,0.8747098000021651,433.7355953999795,434.74985289998585,434.71650749997934,None,433.7355953999795,None,433.7355953999795,None,433.7355953999795,None,435.59774766000044,None,435.59774766000044,None,435.59774766000044,None,,,,,,,,,,,105,19,Female,2022-04-29_17h05.15.359,Boat,2022.1.1,60.402339977325944,
negative,negative,2,j,l,,,,,,,,,7,7,133,9,,,,,,,,,,,,,,,,,,,,,,,,main,2,2,2,negative,negative,l,l,1,0.7779248000006191,435.6154375000042,436.6324409999943,436.61158259998774,None,435.6154375000042,None,435.6154375000042,None,435.6154375000042,None,437.3793154600047,None,437.3793154600047,None,437.3793154600047,None,,,,,,,,,,,105,19,Female,2022-04-29_17h05.15.359,Boat,2022.1.1,60.402339977325944,
neutral,neutral,1,k,k,,,,,,,,,7,8,134,1,,,,,,,,,,,,,,,,,,,,,,,,main,2,2,1,neutral,neutral,k,k,1,0.6667348000046331,437.3955229999847,438.4012892000028,438.3679661999922,None,437.3955229999847,None,437.3955229999847,None,437.3955229999847,None,439.0486088599922,None,439.0486088599922,None,439.0486088599922,None,,,,,,,,,,,105,19,Female,2022-04-29_17h05.15.359,Boat,2022.1.1,60.402339977325944,
negative,neutral,1,j,l,,,,,,,,,7,9,135,3,,,,,,,,,,,,,,,,,,,,,,,,main,2,2,1,neutral,negative,l,l,1,0.7928841999964789,439.0670509999909,440.0781707999995,440.0582972999837,None,439.0670509999909,None,439.0670509999909,None,439.0670509999909,None,440.84500645999503,None,440.84500645999503,None,440.84500645999503,None,,,,,,,,,,,105,19,Female,2022-04-29_17h05.15.359,Boat,2022.1.1,60.402339977325944,
neutral,negative,1,k,k,,,,,,,,,7,10,136,7,,,,,,,,,,,,,,,,,,,,,,,,main,2,2,1,negative,neutral,k,k,1,0.8101049000106286,440.8630190999829,441.8667259000067,441.8492338999931,None,440.8630190999829,None,440.8630190999829,None,440.8630190999829,None,442.6584935600025,None,442.6584935600025,None,442.6584935600025,None,,,,,,,,,,,105,19,Female,2022-04-29_17h05.15.359,Boat,2022.1.1,60.402339977325944,
positive,positive,1,l,j,,,,,,,,,7,11,137,2,,,,,,,,,,,,,,,,,,,,,,,,main,1,1,1,positive,positive,j,j,1,1.0594200000050478,442.67603849997977,443.681404700008,443.66181580000557,None,442.67603849997977,None,442.67603849997977,None,442.67603849997977,None,444.71946615998456,None,444.71946615998456,None,444.71946615998456,None,,,,,,,,,,,105,19,Female,2022-04-29_17h05.15.359,Boat,2022.1.1,60.402339977325944,
positive,positive,2,l,j,,,,,,,,,7,12,138,11,,,,,,,,,,,,,,,,,,,,,,,,main,2,2,2,positive,positive,j,j,1,0.6269179999944754,444.7364615999977,445.752582599991,445.71672719999333,None,444.7364615999977,None,444.7364615999977,None,444.7364615999977,None,446.3491073599929,None,446.3491073599929,None,446.3491073599929,None,,,,,,,,,,,105,19,Female,2022-04-29_17h05.15.359,Boat,2022.1.1,60.402339977325944,
neutral,neutral,2,k,k,,,,,,,,,7,13,139,10,,,,,,,,,,,,,,,,,,,,,,,,main,1,1,2,neutral,neutral,k,k,1,0.7175676000188105,446.36699119998957,447.38342679999187,447.3473566999892,None,446.36699119998957,None,446.36699119998957,None,446.36699119998957,None,448.06924145999653,None,448.06924145999653,None,448.06924145999653,None,,,,,,,,,,,105,19,Female,2022-04-29_17h05.15.359,Boat,2022.1.1,60.402339977325944,
positive,negative,1,l,j,,,,,,,,,7,14,140,5,,,,,,,,,,,,,,,,,,,,,,,,main,1,1,1,negative,positive,j,j,1,0.744210100005148,448.08668999999645,449.1003328000079,449.0664756000042,None,448.08668999999645,None,448.08668999999645,None,448.08668999999645,None,449.8157357599906,None,449.8157357599906,None,449.8157357599906,None,,,,,,,,,,,105,19,Female,2022-04-29_17h05.15.359,Boat,2022.1.1,60.402339977325944,
negative,positive,1,j,l,,,,,,,,,7,15,141,6,,,,,,,,,,,,,,,,,,,,,,,,main,1,1,1,positive,negative,l,l,1,0.7274491999996826,449.83558109999285,450.8507648999803,450.81177149998257,None,449.83558109999285,None,449.83558109999285,None,449.83558109999285,None,451.54776136,None,451.54776136,None,451.54776136,None,,,,,,,,,,,105,19,Female,2022-04-29_17h05.15.359,Boat,2022.1.1,60.402339977325944,
negative,negative,1,j,l,,,,,,,,,7,16,142,0,,,,,,,,,,,,,,,,,,,,,,,,main,2,2,1,negative,negative,l,l,1,0.6707579999929294,451.5663710999943,452.5751853999973,452.550880099996,None,451.5663710999943,None,451.5663710999943,None,451.5663710999943,None,453.22133756000255,None,453.22133756000255,None,453.22133756000255,None,,,,,,,,,,,105,19,Female,2022-04-29_17h05.15.359,Boat,2022.1.1,60.402339977325944,
neutral,positive,2,k,k,,,,,,,,,7,17,143,13,,,,,,,,,,,,,,,,,,,,,,,,main,2,2,2,positive,neutral,k,k,1,0.7535075999912806,453.23754089997965,454.2479262999841,454.2283821000019,None,453.23754089997965,None,453.23754089997965,None,453.23754089997965,None,454.97881325999913,None,454.97881325999913,None,454.97881325999913,None,,,,,,,,,,,105,19,Female,2022-04-29_17h05.15.359,Boat,2022.1.1,60.402339977325944,
positive,neutral,1,l,j,,,,,,,,,8,0,144,8,,,,,,,,,,,,,,,,,,,,,,,,main,1,1,1,neutral,positive,j,j,1,0.7880234999756794,454.9977867999987,456.0018330999883,455.96693669998785,None,454.9977867999987,None,454.9977867999987,None,454.9977867999987,None,456.7683480599866,None,456.7683480599866,None,456.7683480599866,None,,,,,,,,,,,105,19,Female,2022-04-29_17h05.15.359,Boat,2022.1.1,60.402339977325944,
negative,neutral,2,j,l,,,,,,,,,8,1,145,12,,,,,,,,,,,,,,,,,,,,,,,,main,2,2,2,neutral,negative,l,l,1,0.8572998000017833,456.78483269998105,457.80010920000495,457.76554960000794,None,456.78483269998105,None,456.78483269998105,None,456.78483269998105,None,458.6292789599887,None,458.6292789599887,None,458.6292789599887,None,,,,,,,,,,,105,19,Female,2022-04-29_17h05.15.359,Boat,2022.1.1,60.402339977325944,
negative,positive,1,j,l,,,,,,,,,8,2,146,6,,,,,,,,,,,,,,,,,,,,,,,,main,1,1,1,positive,negative,l,l,1,0.7800436999823432,458.6455527000071,459.650442299986,459.6316360000055,None,458.6455527000071,None,458.6455527000071,None,458.6455527000071,None,460.4118854599859,None,460.4118854599859,None,460.4118854599859,None,,,,,,,,,,,105,19,Female,2022-04-29_17h05.15.359,Boat,2022.1.1,60.402339977325944,
positive,neutral,2,l,j,,,,,,,,,8,3,147,17,,,,,,,,,,,,,,,,,,,,,,,,main,1,1,2,neutral,positive,j,j,1,0.8578679999918677,460.43143759999657,461.43378120000125,461.4171534999914,None,460.43143759999657,None,460.43143759999657,None,460.43143759999657,None,462.27073735999,None,462.27073735999,None,462.27073735999,None,,,,,,,,,,,105,19,Female,2022-04-29_17h05.15.359,Boat,2022.1.1,60.402339977325944,
negative,negative,1,j,l,,,,,,,,,8,4,148,0,,,,,,,,,,,,,,,,,,,,,,,,main,1,1,1,negative,negative,l,l,1,0.7636036000039894,462.28664429998025,463.3084453000047,463.266862199991,None,462.28664429998025,None,462.28664429998025,None,462.28664429998025,None,464.03685995999547,None,464.03685995999547,None,464.03685995999547,None,,,,,,,,,,,105,19,Female,2022-04-29_17h05.15.359,Boat,2022.1.1,60.402339977325944,
neutral,positive,2,k,k,,,,,,,,,8,5,149,13,,,,,,,,,,,,,,,,,,,,,,,,main,1,1,2,positive,neutral,k,k,1,0.7560661000024993,464.0552464000066,465.07887909997953,465.03243329998804,None,464.0552464000066,None,464.0552464000066,None,464.0552464000066,None,465.79665746000535,None,465.79665746000535,None,465.79665746000535,None,,,,,,,,,,,105,19,Female,2022-04-29_17h05.15.359,Boat,2022.1.1,60.402339977325944,
neutral,neutral,1,k,k,,,,,,,,,8,6,150,1,,,,,,,,,,,,,,,,,,,,,,,,main,2,2,1,neutral,neutral,k,k,1,1.4976711999916006,465.81615100000636,466.81718620000174,466.80053999999654,None,465.81615100000636,None,465.81615100000636,None,465.81615100000636,None,468.2990357599832,None,468.2990357599832,None,468.2990357599832,None,,,,,,,,,,,105,19,Female,2022-04-29_17h05.15.359,Boat,2022.1.1,60.402339977325944,
positive,negative,1,l,j,,,,,,,,,8,7,151,5,,,,,,,,,,,,,,,,,,,,,,,,main,1,1,1,negative,positive,j,j,1,0.747620200010715,468.3149342999968,469.3175309000071,469.3006295999803,None,468.3149342999968,None,468.3149342999968,None,468.3149342999968,None,470.0492637600022,None,470.0492637600022,None,470.0492637600022,None,,,,,,,,,,,105,19,Female,2022-04-29_17h05.15.359,Boat,2022.1.1,60.402339977325944,
negative,negative,2,j,l,,,,,,,,,8,8,152,9,,,,,,,,,,,,,,,,,,,,,,,,main,2,2,2,negative,negative,l,j,0,0.6229688000166789,470.0661940999853,471.08266220000223,471.06319149999763,None,470.0661940999853,None,470.0661940999853,None,470.0661940999853,None,471.6827256999968,None,471.6827256999968,None,471.6827256999968,None,,,,,,,,,,,105,19,Female,2022-04-29_17h05.15.359,Boat,2022.1.1,60.402339977325944,
neutral,negative,2,k,k,,,,,,,,,8,9,153,16,,,,,,,,,,,,,,,,,,,,,,,,main,2,2,2,negative,neutral,k,k,1,0.708832899981644,472.70272820000537,473.7120533999987,473.6925454000011,None,472.70272820000537,None,472.70272820000537,None,472.70272820000537,None,474.3991727599845,None,474.3991727599845,None,474.3991727599845,None,,,,,,,,,,,105,19,Female,2022-04-29_17h05.15.359,Boat,2022.1.1,60.402339977325944,
negative,neutral,1,j,l,,,,,,,,,8,10,154,3,,,,,,,,,,,,,,,,,,,,,,,,main,2,2,1,neutral,negative,l,l,1,0.7944461000151932,474.4150377000042,475.42612910000025,475.39976749999914,None,474.4150377000042,None,474.4150377000042,None,474.4150377000042,None,476.19687216000455,None,476.19687216000455,None,476.19687216000455,None,,,,,,,,,,,105,19,Female,2022-04-29_17h05.15.359,Boat,2022.1.1,60.402339977325944,
neutral,positive,1,k,k,,,,,,,,,8,11,155,4,,,,,,,,,,,,,,,,,,,,,,,,main,2,2,1,positive,neutral,k,k,1,0.7908081999921706,476.21646999998484,477.2342434999882,477.19570539999404,None,476.21646999998484,None,476.21646999998484,None,476.21646999998484,None,477.988405159986,None,477.988405159986,None,477.988405159986,None,,,,,,,,,,,105,19,Female,2022-04-29_17h05.15.359,Boat,2022.1.1,60.402339977325944,
positive,positive,1,l,j,,,,,,,,,8,12,156,2,,,,,,,,,,,,,,,,,,,,,,,,main,2,2,1,positive,positive,j,j,1,0.9968661000020802,478.0054684999923,479.0177912999934,478.9800572999811,None,478.0054684999923,None,478.0054684999923,None,478.0054684999923,None,479.9882415599917,None,479.9882415599917,None,479.9882415599917,None,,,,,,,,,,,105,19,Female,2022-04-29_17h05.15.359,Boat,2022.1.1,60.402339977325944,
negative,positive,2,j,l,,,,,,,,,8,13,157,15,,,,,,,,,,,,,,,,,,,,,,,,main,2,2,2,positive,negative,l,l,1,0.8298673999961466,480.00474390000454,481.0173698999861,480.99576249998063,None,480.00474390000454,None,480.00474390000454,None,480.00474390000454,None,481.81997355998317,None,481.81997355998317,None,481.81997355998317,None,,,,,,,,,,,105,19,Female,2022-04-29_17h05.15.359,Boat,2022.1.1,60.402339977325944,
neutral,neutral,2,k,k,,,,,,,,,8,14,158,10,,,,,,,,,,,,,,,,,,,,,,,,main,1,1,2,neutral,neutral,k,k,1,0.775815800006967,481.8372611999803,482.8512201999838,482.8160965999996,None,481.8372611999803,None,481.8372611999803,None,481.8372611999803,None,483.60105826000506,None,483.60105826000506,None,483.60105826000506,None,,,,,,,,,,,105,19,Female,2022-04-29_17h05.15.359,Boat,2022.1.1,60.402339977325944,
positive,negative,2,l,j,,,,,,,,,8,15,159,14,,,,,,,,,,,,,,,,,,,,,,,,main,2,2,2,negative,positive,j,j,1,0.8539156000188086,483.6180345999892,484.6319943999988,484.61240839998936,None,483.6180345999892,None,483.6180345999892,None,483.6180345999892,None,485.4564003600011,None,485.4564003600011,None,485.4564003600011,None,,,,,,,,,,,105,19,Female,2022-04-29_17h05.15.359,Boat,2022.1.1,60.402339977325944,
positive,positive,2,l,j,,,,,,,,,8,16,160,11,,,,,,,,,,,,,,,,,,,,,,,,main,1,1,2,positive,positive,j,j,1,0.7838362000184134,485.4729084999999,486.47911339998245,486.4596221999964,None,485.4729084999999,None,485.4729084999999,None,485.4729084999999,None,487.2440831600019,None,487.2440831600019,None,487.2440831600019,None,,,,,,,,,,,105,19,Female,2022-04-29_17h05.15.359,Boat,2022.1.1,60.402339977325944,
neutral,negative,1,k,k,,,,,,,,,8,17,161,7,,,,,,,,,,,,,,,,,,,,,,,,main,2,2,1,negative,neutral,k,k,1,0.8365199000108987,487.2635057999869,488.27933999997913,488.2594858999946,None,487.2635057999869,None,487.2635057999869,None,487.2635057999869,None,489.08292526,None,489.08292526,None,489.08292526,None,,,,,,,,,,,105,19,Female,2022-04-29_17h05.15.359,Boat,2022.1.1,60.402339977325944,
negative,positive,1,j,l,,,,,,,,,9,0,162,6,,,,,,,,,,,,,,,,,,,,,,,,main,2,2,1,positive,negative,l,l,1,0.8193026999942958,489.10210279998137,490.1013985000027,490.0846125999815,None,489.10210279998137,None,489.10210279998137,None,489.10210279998137,None,490.90394605998006,None,490.90394605998006,None,490.90394605998006,None,,,,,,,,,,,105,19,Female,2022-04-29_17h05.15.359,Boat,2022.1.1,60.402339977325944,
neutral,positive,1,k,k,,,,,,,,,9,1,163,4,,,,,,,,,,,,,,,,,,,,,,,,main,2,2,1,positive,neutral,k,k,1,0.7817272999964189,490.92238969999016,491.9355833999871,491.90152029998717,None,490.92238969999016,None,490.92238969999016,None,490.92238969999016,None,492.68916835998823,None,492.68916835998823,None,492.68916835998823,None,,,,,,,,,,,105,19,Female,2022-04-29_17h05.15.359,Boat,2022.1.1,60.402339977325944,
negative,positive,2,j,l,,,,,,,,,9,2,164,15,,,,,,,,,,,,,,,,,,,,,,,,main,2,2,2,positive,negative,l,l,1,1.0552332999941427,492.70502339999075,493.72047629998997,493.684659999999,None,492.70502339999075,None,492.70502339999075,None,492.70502339999075,None,494.74777395999115,None,494.74777395999115,None,494.74777395999115,None,,,,,,,,,,,105,19,Female,2022-04-29_17h05.15.359,Boat,2022.1.1,60.402339977325944,
positive,neutral,1,l,j,,,,,,,,,9,3,165,8,,,,,,,,,,,,,,,,,,,,,,,,main,2,2,1,neutral,positive,j,j,1,0.8397420000110287,494.7667519999959,495.77648569998564,495.7514384999813,None,494.7667519999959,None,494.7667519999959,None,494.7667519999959,None,496.5909580599895,None,496.5909580599895,None,496.5909580599895,None,,,,,,,,,,,105,19,Female,2022-04-29_17h05.15.359,Boat,2022.1.1,60.402339977325944,
neutral,neutral,1,k,k,,,,,,,,,9,4,166,1,,,,,,,,,,,,,,,,,,,,,,,,main,1,1,1,neutral,neutral,k,k,1,1.7409935000177938,496.60862479999196,497.6181612999935,497.59942839998985,None,496.60862479999196,None,496.60862479999196,None,496.60862479999196,None,499.3383269000042,None,499.3383269000042,None,499.3383269000042,None,,,,,,,,,,,105,19,Female,2022-04-29_17h05.15.359,Boat,2022.1.1,60.402339977325944,
neutral,positive,2,k,k,,,,,,,,,9,5,167,13,,,,,,,,,,,,,,,,,,,,,,,,main,1,1,2,positive,neutral,k,k,1,0.8137631000136025,500.35401039998396,501.3763168999867,501.33466339998995,None,500.35401039998396,None,500.35401039998396,None,500.35401039998396,None,502.15323745999774,None,502.15323745999774,None,502.15323745999774,None,,,,,,,,,,,105,19,Female,2022-04-29_17h05.15.359,Boat,2022.1.1,60.402339977325944,
positive,negative,2,l,j,,,,,,,,,9,6,168,14,,,,,,,,,,,,,,,,,,,,,,,,main,2,2,2,negative,positive,j,j,1,0.7965479000122286,502.16939029999776,503.19314970000414,503.1513457999972,None,502.16939029999776,None,502.16939029999776,None,502.16939029999776,None,503.9532231599936,None,503.9532231599936,None,503.9532231599936,None,,,,,,,,,,,105,19,Female,2022-04-29_17h05.15.359,Boat,2022.1.1,60.402339977325944,
negative,negative,1,j,l,,,,,,,,,9,7,169,0,,,,,,,,,,,,,,,,,,,,,,,,main,1,1,1,negative,negative,l,l,1,0.6926999999850523,503.97058140000445,504.9963343999989,504.9493964999856,None,503.97058140000445,None,503.97058140000445,None,503.97058140000445,None,505.64806495998926,None,505.64806495998926,None,505.64806495998926,None,,,,,,,,,,,105,19,Female,2022-04-29_17h05.15.359,Boat,2022.1.1,60.402339977325944,
neutral,negative,1,k,k,,,,,,,,,9,8,170,7,,,,,,,,,,,,,,,,,,,,,,,,main,1,1,1,negative,neutral,k,k,1,0.7924401999916881,505.6670388999919,506.6680040000065,506.6509693999833,None,505.6670388999919,None,505.6670388999919,None,505.6670388999919,None,507.4455193600064,None,507.4455193600064,None,507.4455193600064,None,,,,,,,,,,,105,19,Female,2022-04-29_17h05.15.359,Boat,2022.1.1,60.402339977325944,
negative,neutral,2,j,l,,,,,,,,,9,9,171,12,,,,,,,,,,,,,,,,,,,,,,,,main,2,2,2,neutral,negative,l,l,1,0.727504799986491,507.46584019999136,508.46803009998985,508.4513894999982,None,507.46584019999136,None,507.46584019999136,None,507.46584019999136,None,509.17518055999824,None,509.17518055999824,None,509.17518055999824,None,,,,,,,,,,,105,19,Female,2022-04-29_17h05.15.359,Boat,2022.1.1,60.402339977325944,
negative,neutral,1,j,l,,,,,,,,,9,10,172,3,,,,,,,,,,,,,,,,,,,,,,,,main,2,2,1,neutral,negative,l,l,1,0.7801877000019886,509.1909480000031,510.20213699998567,510.18257449998055,None,509.1909480000031,None,509.1909480000031,None,509.1909480000031,None,510.95569346000264,None,510.95569346000264,None,510.95569346000264,None,,,,,,,,,,,105,19,Female,2022-04-29_17h05.15.359,Boat,2022.1.1,60.402339977325944,
negative,negative,2,j,l,,,,,,,,,9,11,173,9,,,,,,,,,,,,,,,,,,,,,,,,main,2,2,2,negative,negative,l,l,1,1.0310917999886442,510.9751542999875,511.98477409998304,511.95078990000184,None,510.9751542999875,None,510.9751542999875,None,510.9751542999875,None,512.9918184599868,None,512.9918184599868,None,512.9918184599868,None,,,,,,,,,,,105,19,Female,2022-04-29_17h05.15.359,Boat,2022.1.1,60.402339977325944,
positive,positive,2,l,j,,,,,,,,,9,12,174,11,,,,,,,,,,,,,,,,,,,,,,,,main,2,2,2,positive,positive,j,j,1,0.9350997000001371,513.0088703999936,514.0186322999944,514.0015125999926,None,513.0088703999936,None,513.0088703999936,None,513.0088703999936,None,514.9294266599958,None,514.9294266599958,None,514.9294266599958,None,,,,,,,,,,,105,19,Female,2022-04-29_17h05.15.359,Boat,2022.1.1,60.402339977325944,
positive,neutral,2,l,j,,,,,,,,,9,13,175,17,,,,,,,,,,,,,,,,,,,,,,,,main,1,1,2,neutral,positive,j,j,1,0.7243249999883119,514.9457070000062,515.9571165999805,515.9213182999811,None,514.9457070000062,None,514.9457070000062,None,514.9457070000062,None,516.6544450599962,None,516.6544450599962,None,516.6544450599962,None,,,,,,,,,,,105,19,Female,2022-04-29_17h05.15.359,Boat,2022.1.1,60.402339977325944,
positive,negative,1,l,j,,,,,,,,,9,14,176,5,,,,,,,,,,,,,,,,,,,,,,,,main,2,2,1,negative,positive,j,j,1,0.8749759000202175,516.6711689000076,517.6835051999951,517.6629469000036,None,516.6711689000076,None,516.6711689000076,None,516.6711689000076,None,518.533720459984,None,518.533720459984,None,518.533720459984,None,,,,,,,,,,,105,19,Female,2022-04-29_17h05.15.359,Boat,2022.1.1,60.402339977325944,
neutral,neutral,2,k,k,,,,,,,,,9,15,177,10,,,,,,,,,,,,,,,,,,,,,,,,main,1,1,2,neutral,neutral,k,k,1,0.8379063000029419,518.5505865000014,519.551523800008,519.5350211999903,None,518.5505865000014,None,518.5505865000014,None,518.5505865000014,None,520.3733777599904,None,520.3733777599904,None,520.3733777599904,None,,,,,,,,,,,105,19,Female,2022-04-29_17h05.15.359,Boat,2022.1.1,60.402339977325944,
positive,positive,1,l,j,,,,,,,,,9,16,178,2,,,,,,,,,,,,,,,,,,,,,,,,main,2,2,1,positive,positive,j,j,1,0.8262224000063725,520.3890717999893,521.4021485999983,521.3631255000073,None,520.3890717999893,None,520.3890717999893,None,520.3890717999893,None,522.2019870599819,None,522.2019870599819,None,522.2019870599819,None,,,,,,,,,,,105,19,Female,2022-04-29_17h05.15.359,Boat,2022.1.1,60.402339977325944,
neutral,negative,2,k,k,,,,,,,,,9,17,179,16,,,,,,,,,,,,,,,,,,,,,,,,main,1,1,2,negative,neutral,k,k,1,0.8490814999968279,522.2202545999899,523.2351598999812,523.1994257000042,None,522.2202545999899,None,522.2202545999899,None,522.2202545999899,None,524.0539235600066,None,524.0539235600066,None,524.0539235600066,None,,,,,,,,,,,105,19,Female,2022-04-29_17h05.15.359,Boat,2022.1.1,60.402339977325944,
positive,negative,2,l,j,,,,,,,,,10,0,180,14,,,,,,,,,,,,,,,,,,,,,,,,main,2,2,2,negative,positive,j,j,1,0.9290929999842774,524.0713574999827,525.0851674999867,525.0465935999819,None,524.0713574999827,None,524.0713574999827,None,524.0713574999827,None,525.9857443599816,None,525.9857443599816,None,525.9857443599816,None,,,,,,,,,,,105,19,Female,2022-04-29_17h05.15.359,Boat,2022.1.1,60.402339977325944,
positive,neutral,2,l,j,,,,,,,,,10,1,181,17,,,,,,,,,,,,,,,,,,,,,,,,main,1,1,2,neutral,positive,j,j,1,0.8188265000062529,526.0027726999833,527.0176008999988,526.9969107999932,None,526.0027726999833,None,526.0027726999833,None,526.0027726999833,None,527.8072343599837,None,527.8072343599837,None,527.8072343599837,None,,,,,,,,,,,105,19,Female,2022-04-29_17h05.15.359,Boat,2022.1.1,60.402339977325944,
neutral,positive,1,k,k,,,,,,,,,10,2,182,4,,,,,,,,,,,,,,,,,,,,,,,,main,2,2,1,positive,neutral,k,k,1,0.8536432000109926,527.8278081000026,528.8302974999824,528.8105227999913,None,527.8278081000026,None,527.8278081000026,None,527.8278081000026,None,529.6648035599995,None,529.6648035599995,None,529.6648035599995,None,,,,,,,,,,,105,19,Female,2022-04-29_17h05.15.359,Boat,2022.1.1,60.402339977325944,
neutral,neutral,2,k,k,,,,,,,,,10,3,183,10,,,,,,,,,,,,,,,,,,,,,,,,main,1,1,2,neutral,neutral,k,k,1,1.2748469000216573,529.6839404999919,530.7018876000075,530.665823599993,None,529.6839404999919,None,529.6839404999919,None,529.6839404999919,None,531.9405380599986,None,531.9405380599986,None,531.9405380599986,None,,,,,,,,,,,105,19,Female,2022-04-29_17h05.15.359,Boat,2022.1.1,60.402339977325944,
neutral,neutral,1,k,k,,,,,,,,,10,4,184,1,,,,,,,,,,,,,,,,,,,,,,,,main,2,2,1,neutral,neutral,k,k,1,0.761367800005246,531.9589312000026,532.9657859999861,532.946677400003,None,531.9589312000026,None,531.9589312000026,None,531.9589312000026,None,533.7059405599924,None,533.7059405599924,None,533.7059405599924,None,,,,,,,,,,,105,19,Female,2022-04-29_17h05.15.359,Boat,2022.1.1,60.402339977325944,
negative,negative,1,j,l,,,,,,,,,10,5,185,0,,,,,,,,,,,,,,,,,,,,,,,,main,2,2,1,negative,negative,l,l,1,0.8071109000011347,533.7235119999968,534.7470412999974,534.6998548999836,None,533.7235119999968,None,533.7235119999968,None,533.7235119999968,None,535.516851660001,None,535.516851660001,None,535.516851660001,None,,,,,,,,,,,105,19,Female,2022-04-29_17h05.15.359,Boat,2022.1.1,60.402339977325944,
negative,neutral,2,j,l,,,,,,,,,10,6,186,12,,,,,,,,,,,,,,,,,,,,,,,,main,1,1,2,neutral,negative,l,l,1,1.0508595000137575,535.5340935999993,536.5521308000025,536.5131931999931,None,535.5340935999993,None,535.5340935999993,None,535.5340935999993,None,537.5687635599955,None,537.5687635599955,None,537.5687635599955,None,,,,,,,,,,,105,19,Female,2022-04-29_17h05.15.359,Boat,2022.1.1,60.402339977325944,
negative,positive,2,j,l,,,,,,,,,10,7,187,15,,,,,,,,,,,,,,,,,,,,,,,,main,2,2,2,positive,negative,l,l,1,0.7286805000039749,537.5867337999807,538.6023297999927,538.5665244999982,None,537.5867337999807,None,537.5867337999807,None,537.5867337999807,None,539.3019988599902,None,539.3019988599902,None,539.3019988599902,None,,,,,,,,,,,105,19,Female,2022-04-29_17h05.15.359,Boat,2022.1.1,60.402339977325944,
positive,negative,1,l,j,,,,,,,,,10,8,188,5,,,,,,,,,,,,,,,,,,,,,,,,main,2,2,1,negative,positive,j,j,1,0.7861397000087891,539.3192177999881,540.3187762000016,540.3020780999796,None,539.3192177999881,None,539.3192177999881,None,539.3192177999881,None,541.0910749600065,None,541.0910749600065,None,541.0910749600065,None,,,,,,,,,,,105,19,Female,2022-04-29_17h05.15.359,Boat,2022.1.1,60.402339977325944,
neutral,positive,2,k,k,,,,,,,,,10,9,189,13,,,,,,,,,,,,,,,,,,,,,,,,main,1,1,2,positive,neutral,k,k,1,0.7584568000165746,541.1076729999913,542.1176799999957,542.0971816999954,None,541.1076729999913,None,541.1076729999913,None,541.1076729999913,None,542.852377160007,None,542.852377160007,None,542.852377160007,None,,,,,,,,,,,105,19,Female,2022-04-29_17h05.15.359,Boat,2022.1.1,60.402339977325944,
positive,positive,2,l,j,,,,,,,,,10,10,190,11,,,,,,,,,,,,,,,,,,,,,,,,main,2,2,2,positive,positive,j,j,1,0.943767700024182,542.8703821999952,543.8826450000051,543.8636138000002,None,542.8703821999952,None,542.8703821999952,None,542.8703821999952,None,544.7993373599805,None,544.7993373599805,None,544.7993373599805,None,,,,,,,,,,,105,19,Female,2022-04-29_17h05.15.359,Boat,2022.1.1,60.402339977325944,
neutral,negative,2,k,k,,,,,,,,,10,11,191,16,,,,,,,,,,,,,,,,,,,,,,,,main,2,2,2,negative,neutral,k,l,0,1.1722064000205137,544.8175826999941,545.8326372999873,545.8136244000052,None,544.8175826999941,None,544.8175826999941,None,544.8175826999941,None,546.9784377999895,None,546.9784377999895,None,546.9784377999895,None,,,,,,,,,,,105,19,Female,2022-04-29_17h05.15.359,Boat,2022.1.1,60.402339977325944,
neutral,negative,1,k,k,,,,,,,,,10,12,192,7,,,,,,,,,,,,,,,,,,,,,,,,main,1,1,1,negative,neutral,k,k,1,0.7975369000050705,547.9885467999848,549.0052471999952,548.9689952000044,None,547.9885467999848,None,547.9885467999848,None,547.9885467999848,None,549.771418359995,None,549.771418359995,None,549.771418359995,None,,,,,,,,,,,105,19,Female,2022-04-29_17h05.15.359,Boat,2022.1.1,60.402339977325944,
negative,positive,1,j,l,,,,,,,,,10,13,193,6,,,,,,,,,,,,,,,,,,,,,,,,main,2,2,1,positive,negative,l,l,1,0.917245799995726,549.7886173999868,550.8135675999802,550.7666710999911,None,549.7886173999868,None,549.7886173999868,None,549.7886173999868,None,551.6915941599785,None,551.6915941599785,None,551.6915941599785,None,,,,,,,,,,,105,19,Female,2022-04-29_17h05.15.359,Boat,2022.1.1,60.402339977325944,
positive,positive,1,l,j,,,,,,,,,10,14,194,2,,,,,,,,,,,,,,,,,,,,,,,,main,1,1,1,positive,positive,j,j,1,0.8327886000042781,551.707640699984,552.7271075999888,552.6856549000076,None,551.707640699984,None,551.707640699984,None,551.707640699984,None,553.5286840599932,None,553.5286840599932,None,553.5286840599932,None,,,,,,,,,,,105,19,Female,2022-04-29_17h05.15.359,Boat,2022.1.1,60.402339977325944,
negative,neutral,1,j,l,,,,,,,,,10,15,195,3,,,,,,,,,,,,,,,,,,,,,,,,main,1,1,1,neutral,negative,l,l,1,0.7116155000112485,553.5439017000026,554.5524878999859,554.5190011999803,None,553.5439017000026,None,553.5439017000026,None,553.5439017000026,None,555.240502460007,None,555.240502460007,None,555.240502460007,None,,,,,,,,,,,105,19,Female,2022-04-29_17h05.15.359,Boat,2022.1.1,60.402339977325944,
negative,negative,2,j,l,,,,,,,,,10,16,196,9,,,,,,,,,,,,,,,,,,,,,,,,main,2,2,2,negative,negative,l,l,1,0.7448098000022583,555.2579981999879,556.2805699000019,556.2353612000006,None,555.2579981999879,None,555.2579981999879,None,555.2579981999879,None,556.987760659997,None,556.987760659997,None,556.987760659997,None,,,,,,,,,,,105,19,Female,2022-04-29_17h05.15.359,Boat,2022.1.1,60.402339977325944,
positive,neutral,1,l,j,,,,,,,,,10,17,197,8,,,,,,,,,,,,,,,,,,,,,,,,main,2,2,1,neutral,positive,j,j,1,1.3000816999992821,557.005448299984,558.0193755000073,557.9856718999799,None,557.005448299984,None,557.005448299984,None,557.005448299984,None,559.2903386599995,None,559.2903386599995,None,559.2903386599995,None,,,,,,,,,,,105,19,Female,2022-04-29_17h05.15.359,Boat,2022.1.1,60.402339977325944,
neutral,neutral,2,k,k,,,,,,,,,11,0,198,10,,,,,,,,,,,,,,,,,,,,,,,,main,1,1,2,neutral,neutral,k,k,1,0.7127843999769539,559.308509399998,560.330940099986,560.2857695999846,None,559.308509399998,None,559.308509399998,None,559.308509399998,None,561.0062848599831,None,561.0062848599831,None,561.0062848599831,None,,,,,,,,,,,105,19,Female,2022-04-29_17h05.15.359,Boat,2022.1.1,60.402339977325944,
positive,negative,2,l,j,,,,,,,,,11,1,199,14,,,,,,,,,,,,,,,,,,,,,,,,main,1,1,2,negative,positive,j,j,1,1.1781522999808658,561.0232830999885,562.0387532000022,562.0038751999964,None,561.0232830999885,None,561.0232830999885,None,561.0232830999885,None,563.1858265599789,None,563.1858265599789,None,563.1858265599789,None,,,,,,,,,,,105,19,Female,2022-04-29_17h05.15.359,Boat,2022.1.1,60.402339977325944,
negative,negative,2,j,l,,,,,,,,,11,2,200,9,,,,,,,,,,,,,,,,,,,,,,,,main,1,1,2,negative,negative,l,l,1,0.8071999000094365,563.2046317000058,564.2277520000061,564.1858075000055,None,563.2046317000058,None,563.2046317000058,None,563.2046317000058,None,564.998790759992,None,564.998790759992,None,564.998790759992,None,,,,,,,,,,,105,19,Female,2022-04-29_17h05.15.359,Boat,2022.1.1,60.402339977325944,
neutral,neutral,1,k,k,,,,,,,,,11,3,201,1,,,,,,,,,,,,,,,,,,,,,,,,main,2,2,1,neutral,neutral,k,k,1,0.6881652000010945,565.018038899987,566.0273780999996,565.9859433999809,None,565.018038899987,None,565.018038899987,None,565.018038899987,None,566.6871256600047,None,566.6871256600047,None,566.6871256600047,None,,,,,,,,,,,105,19,Female,2022-04-29_17h05.15.359,Boat,2022.1.1,60.402339977325944,
positive,positive,1,l,j,,,,,,,,,11,4,202,2,,,,,,,,,,,,,,,,,,,,,,,,main,2,2,1,positive,positive,j,j,1,1.0208411999919917,566.7051509000012,567.7191430999956,567.6806719999877,None,566.7051509000012,None,566.7051509000012,None,566.7051509000012,None,568.7125473599793,None,568.7125473599793,None,568.7125473599793,None,,,,,,,,,,,105,19,Female,2022-04-29_17h05.15.359,Boat,2022.1.1,60.402339977325944,
neutral,positive,1,k,k,,,,,,,,,11,5,203,4,,,,,,,,,,,,,,,,,,,,,,,,main,1,1,1,positive,neutral,k,k,1,0.7396773000073154,568.7332209000015,569.7359815999807,569.7190889999911,None,568.7332209000015,None,568.7332209000015,None,568.7332209000015,None,570.4532853600016,None,570.4532853600016,None,570.4532853600016,None,,,,,,,,,,,105,19,Female,2022-04-29_17h05.15.359,Boat,2022.1.1,60.402339977325944,
positive,negative,1,l,j,,,,,,,,,11,6,204,5,,,,,,,,,,,,,,,,,,,,,,,,main,2,2,1,negative,positive,j,j,1,0.7675150999857578,570.4705878999957,571.4860168999876,571.4505909,None,570.4705878999957,None,570.4705878999957,None,570.4705878999957,None,572.2236196600046,None,572.2236196600046,None,572.2236196600046,None,,,,,,,,,,,105,19,Female,2022-04-29_17h05.15.359,Boat,2022.1.1,60.402339977325944,
neutral,positive,2,k,k,,,,,,,,,11,7,205,13,,,,,,,,,,,,,,,,,,,,,,,,main,1,1,2,positive,neutral,k,k,1,0.800970900018001,572.240563600004,573.2502300000051,573.2305540999805,None,572.240563600004,None,572.240563600004,None,572.240563600004,None,574.0288127599837,None,574.0288127599837,None,574.0288127599837,None,,,,,,,,,,,105,19,Female,2022-04-29_17h05.15.359,Boat,2022.1.1,60.402339977325944,
neutral,negative,1,k,k,,,,,,,,,11,8,206,7,,,,,,,,,,,,,,,,,,,,,,,,main,1,1,1,negative,neutral,k,k,1,1.0173856999899726,574.0450849999906,575.0531508999993,575.0340934999986,None,574.0450849999906,None,574.0450849999906,None,574.0450849999906,None,576.0486685599811,None,576.0486685599811,None,576.0486685599811,None,,,,,,,,,,,105,19,Female,2022-04-29_17h05.15.359,Boat,2022.1.1,60.402339977325944,
negative,neutral,2,j,l,,,,,,,,,11,9,207,12,,,,,,,,,,,,,,,,,,,,,,,,main,2,2,2,neutral,negative,l,l,1,0.6733657000004314,576.0650176999916,577.0700171999924,577.0506367000053,None,576.0650176999916,None,576.0650176999916,None,576.0650176999916,None,577.7222865599819,None,577.7222865599819,None,577.7222865599819,None,,,,,,,,,,,105,19,Female,2022-04-29_17h05.15.359,Boat,2022.1.1,60.402339977325944,
positive,neutral,1,l,j,,,,,,,,,11,10,208,8,,,,,,,,,,,,,,,,,,,,,,,,main,2,2,1,neutral,positive,j,j,1,0.6998666000145022,577.7401093999797,578.7527469999914,578.7168160000001,None,577.7401093999797,None,577.7401093999797,None,577.7401093999797,None,579.425541659983,None,579.425541659983,None,579.425541659983,None,,,,,,,,,,,105,19,Female,2022-04-29_17h05.15.359,Boat,2022.1.1,60.402339977325944,
