target,distractor,set,ans1,ans2,rep_loop2.thisRepN,rep_loop2.thisTrialN,rep_loop2.thisN,rep_loop2.thisIndex,flanker_prac_loop.thisRepN,flanker_prac_loop.thisTrialN,flanker_prac_loop.thisN,flanker_prac_loop.thisIndex,flanker_main_loop.thisRepN,flanker_main_loop.thisTrialN,flanker_main_loop.thisN,flanker_main_loop.thisIndex,fl_inst_resp.keys,mouse.x,mouse.y,mouse.leftButton,mouse.midButton,mouse.rightButton,mouse.started,mouse.stopped,sound_1.started,sound_1.stopped,no_text.started,no_text.stopped,yes_text.started,yes_text.stopped,mouse_2.x,mouse_2.y,mouse_2.leftButton,mouse_2.midButton,mouse_2.rightButton,mouse_2.started,mouse_2.stopped,back_2.started,back_2.stopped,main_prac,fl_cold,fl_colt,fl_set,fl_dcond,fl_tcond,fl_ans,fl_res,fl_corr,fl_rt,fix_fl.started,fix_fl.stopped,targ.started,targ.stopped,j_button.started,j_button.stopped,k_button.started,k_button.stopped,l_button.started,l_button.stopped,j_button2.started,j_button2.stopped,k_button2.started,k_button2.stopped,l_button2.started,l_button2.stopped,mainback.started,mainback.stopped,key_resp.keys,mouse_6.x,mouse_6.y,mouse_6.leftButton,mouse_6.midButton,mouse_6.rightButton,mouse_6.started,mouse_6.stopped,id*,age*,gender*,date,expName,psychopyVersion,frameRate,
,,,,,0,0,0,0,,,,,,,,,None,0.10277778,0.05648148,0,0,0,1.0227335391682573,None,33.02288252999715,None,34.10805640000035,None,34.10805640000035,None,0.14166667,-0.032407407,0,0,0,0.012625629984540865,None,,,,,,,,,,,,,,,,,,,,,,,,,,,,,,,,,,,,,,,106,29,Female,2022-04-29_18h51.02.728,Boat,2022.1.1,60.16738566667994,
,,,,,1,0,1,0,,,,,,,,,None,0.13796297,-0.053703703,0,0,0,None,None,None,None,35.689168299984885,None,35.689168299984885,None,0.13240741,-0.05740741,0,0,0,0.014019830006873235,None,,,,,,,,,,,,,,,,,,,,,,,,,,,,,,,,,,,,,,,106,29,Female,2022-04-29_18h51.02.728,Boat,2022.1.1,60.16738566667994,
,,,,,2,0,2,0,,,,,,,,,None,0.12407407,-0.055555556,1,0,0,1.0115041499957442,None,37.023228629984075,None,90.17451459998847,None,90.17451459998847,None,-0.10092592,-0.09166667,0,0,0,0.01240413001505658,None,,,,,,,,,,,,,,,,,,,,,,,,,,,,,,,,,,,,,,,106,29,Female,2022-04-29_18h51.02.728,Boat,2022.1.1,60.16738566667994,
negative,neutral,2,j,l,,,,,0,0,0,12,,,,,,,,,,,,,,,,,,,,,,,,,,96.02921469998546,None,prac,2,2,2,neutral,negative,j,j,1,1.750942800019402,98.05737299998873,99.06242639999255,99.02913949999493,None,98.05737299998873,None,98.05737299998873,None,98.05737299998873,None,100.80025909998221,None,100.80025909998221,None,100.80025909998221,None,,,,,,,,,,,106,29,Female,2022-04-29_18h51.02.728,Boat,2022.1.1,60.16738566667994,
negative,neutral,1,j,l,,,,,0,1,1,3,,,,,,,,,,,,,,,,,,,,,,,,,,,,prac,1,1,1,neutral,negative,j,k,0,1.2278906000137795,101.81501589997788,102.83108209999045,102.79594209999777,None,101.81501589997788,None,101.81501589997788,None,101.81501589997788,None,104.03612770000473,None,104.03612770000473,None,104.03612770000473,None,,,,,,,,,,,106,29,Female,2022-04-29_18h51.02.728,Boat,2022.1.1,60.16738566667994,
neutral,negative,2,k,k,,,,,0,2,2,16,,,,,,,,,,,,,,,,,,,,,,,,,,,,prac,2,2,2,negative,neutral,k,k,1,0.9502518000081182,105.04981159997988,106.0577357999864,106.03793150000274,None,105.04981159997988,None,105.04981159997988,None,105.04981159997988,None,106.98397572998947,None,106.98397572998947,None,106.98397572998947,None,,,,,,,,,,,106,29,Female,2022-04-29_18h51.02.728,Boat,2022.1.1,60.16738566667994,
negative,negative,2,j,l,,,,,0,3,3,9,,,,,,,,,,,,,,,,,,,,,,,,,,,,prac,2,2,2,negative,negative,j,j,1,1.013656399998581,107.00239209999563,108.01281149999704,107.97889589998522,None,107.00239209999563,None,107.00239209999563,None,107.00239209999563,None,109.00080082998902,None,109.00080082998902,None,109.00080082998902,None,,,,,,,,,,,106,29,Female,2022-04-29_18h51.02.728,Boat,2022.1.1,60.16738566667994,
positive,neutral,1,l,j,,,,,0,4,4,8,,,,,,,,,,,,,,,,,,,,,,,,,,,,prac,2,2,1,neutral,positive,l,l,1,0.955757799994899,109.0178528999968,110.02704630000517,110.00767739998992,None,109.0178528999968,None,109.0178528999968,None,109.0178528999968,None,110.96009112999018,None,110.96009112999018,None,110.96009112999018,None,,,,,,,,,,,106,29,Female,2022-04-29_18h51.02.728,Boat,2022.1.1,60.16738566667994,
negative,positive,1,j,l,,,,,0,5,5,6,,,,,,,,,,,,,,,,,,,,,,,,,,,,prac,1,1,1,positive,negative,j,j,1,0.8817146999936085,110.97711469998467,111.97955160000129,111.96227210000507,None,110.97711469998467,None,110.97711469998467,None,110.97711469998467,None,112.8439656299859,None,112.8439656299859,None,112.8439656299859,None,,,,,,,,,,,106,29,Female,2022-04-29_18h51.02.728,Boat,2022.1.1,60.16738566667994,
negative,positive,2,j,l,,,,,0,6,6,15,,,,,,,,,,,,,,,,,,,,,,,,,,,,prac,2,2,2,positive,negative,j,j,1,1.3999635000072885,112.86232169999857,113.86284590000287,113.84530869999435,None,112.86232169999857,None,112.86232169999857,None,112.86232169999857,None,115.24666762997803,None,115.24666762997803,None,115.24666762997803,None,,,,,,,,,,,106,29,Female,2022-04-29_18h51.02.728,Boat,2022.1.1,60.16738566667994,
positive,positive,2,l,j,,,,,0,7,7,11,,,,,,,,,,,,,,,,,,,,,,,,,,,,prac,2,2,2,positive,positive,l,l,1,0.8517095999850426,115.26462259999244,116.28782529997989,116.24653330000001,None,115.26462259999244,None,115.26462259999244,None,115.26462259999244,None,117.10277362999913,None,117.10277362999913,None,117.10277362999913,None,,,,,,,,,,,106,29,Female,2022-04-29_18h51.02.728,Boat,2022.1.1,60.16738566667994,
positive,neutral,2,l,j,,,,,0,8,8,17,,,,,,,,,,,,,,,,,,,,,,,,,,,,prac,2,2,2,neutral,positive,l,l,1,0.6889158999838401,117.11957059998531,118.12971320000361,118.09119449998252,None,117.11957059998531,None,117.11957059998531,None,117.11957059998531,None,118.79442853000073,None,118.79442853000073,None,118.79442853000073,None,,,,,,,,,,,106,29,Female,2022-04-29_18h51.02.728,Boat,2022.1.1,60.16738566667994,
negative,negative,1,j,l,,,,,0,9,9,0,,,,,,,,,,,,,,,,,,,,,,,,,,,,prac,2,2,1,negative,negative,j,j,1,1.3290560000168625,118.81188639998436,119.84089699998731,119.7941373999929,None,118.81188639998436,None,118.81188639998436,None,118.81188639998436,None,121.12551502999558,None,121.12551502999558,None,121.12551502999558,None,,,,,,,,,,,106,29,Female,2022-04-29_18h51.02.728,Boat,2022.1.1,60.16738566667994,
neutral,neutral,2,k,k,,,,,0,10,10,10,,,,,,,,,,,,,,,,,,,,,,,,,,,,prac,2,2,2,neutral,neutral,k,k,1,0.9012658999999985,121.14536949998,122.15496119999443,122.1299747999874,None,121.14536949998,None,121.14536949998,None,121.14536949998,None,123.02916042998258,None,123.02916042998258,None,123.02916042998258,None,,,,,,,,,,,106,29,Female,2022-04-29_18h51.02.728,Boat,2022.1.1,60.16738566667994,
positive,negative,1,l,j,,,,,0,11,11,5,,,,,,,,,,,,,,,,,,,,,,,,,,,,prac,2,2,1,negative,positive,l,l,1,0.9522399000125006,123.04784749998362,124.06356849998701,124.02969819999998,None,123.04784749998362,None,123.04784749998362,None,123.04784749998362,None,124.98466482999793,None,124.98466482999793,None,124.98466482999793,None,,,,,,,,,,,106,29,Female,2022-04-29_18h51.02.728,Boat,2022.1.1,60.16738566667994,
neutral,negative,1,k,k,,,,,0,12,12,7,,,,,,,,,,,,,,,,,,,,,,,,,,,,prac,2,2,1,negative,neutral,k,k,1,0.70017860000371,125.0013163999829,126.02449690000503,125.98021199999494,None,125.0013163999829,None,125.0013163999829,None,125.0013163999829,None,126.68885422998282,None,126.68885422998282,None,126.68885422998282,None,,,,,,,,,,,106,29,Female,2022-04-29_18h51.02.728,Boat,2022.1.1,60.16738566667994,
neutral,neutral,1,k,k,,,,,0,13,13,1,,,,,,,,,,,,,,,,,,,,,,,,,,,,prac,2,2,1,neutral,neutral,k,k,1,0.6490533000032883,126.70781619998161,127.71591239998816,127.68168939999305,None,126.70781619998161,None,126.70781619998161,None,126.70781619998161,None,128.34015112998605,None,128.34015112998605,None,128.34015112998605,None,,,,,,,,,,,106,29,Female,2022-04-29_18h51.02.728,Boat,2022.1.1,60.16738566667994,
positive,positive,1,l,j,,,,,0,14,14,2,,,,,,,,,,,,,,,,,,,,,,,,,,,,prac,1,1,1,positive,positive,l,l,1,0.899730000004638,128.3588596000045,129.37464799999725,129.32974499999546,None,128.3588596000045,None,128.3588596000045,None,128.3588596000045,None,130.24176612999582,None,130.24176612999582,None,130.24176612999582,None,,,,,,,,,,,106,29,Female,2022-04-29_18h51.02.728,Boat,2022.1.1,60.16738566667994,
neutral,positive,1,k,k,,,,,0,15,15,4,,,,,,,,,,,,,,,,,,,,,,,,,,,,prac,1,1,1,positive,neutral,k,k,1,0.8811580000037793,130.25940149999224,131.26479600000312,131.22996299999068,None,130.25940149999224,None,130.25940149999224,None,130.25940149999224,None,132.12516803000182,None,132.12516803000182,None,132.12516803000182,None,,,,,,,,,,,106,29,Female,2022-04-29_18h51.02.728,Boat,2022.1.1,60.16738566667994,
neutral,positive,2,k,k,,,,,0,16,16,13,,,,,,,,,,,,,,,,,,,,,,,,,,,,prac,1,1,2,positive,neutral,k,l,0,0.6343874000012875,132.1418929999927,133.14713569998275,133.13032579998253,None,132.1418929999927,None,132.1418929999927,None,132.1418929999927,None,133.76574129998335,None,133.76574129998335,None,133.76574129998335,None,,,,,,,,,,,106,29,Female,2022-04-29_18h51.02.728,Boat,2022.1.1,60.16738566667994,
positive,negative,2,l,j,,,,,0,17,17,14,,,,,,,,,,,,,,,,,,,,,,,,,,,,prac,2,2,2,negative,positive,l,l,1,0.7347972000134178,134.7836532999936,135.79662189999362,135.76117280000472,None,134.7836532999936,None,134.7836532999936,None,134.7836532999936,None,136.50429182999943,None,136.50429182999943,None,136.50429182999943,None,,,,,,,,,,,106,29,Female,2022-04-29_18h51.02.728,Boat,2022.1.1,60.16738566667994,
negative,negative,1,j,l,,,,,1,0,18,0,,,,,,,,,,,,,,,,,,,,,,,,,,,,prac,1,1,1,negative,negative,j,j,1,0.9019742000091355,136.52146869999706,137.53003689998877,137.49670349998632,None,136.52146869999706,None,136.52146869999706,None,136.52146869999706,None,138.40912092997752,None,138.40912092997752,None,138.40912092997752,None,,,,,,,,,,,106,29,Female,2022-04-29_18h51.02.728,Boat,2022.1.1,60.16738566667994,
negative,neutral,2,j,l,,,,,1,1,19,12,,,,,,,,,,,,,,,,,,,,,,,,,,,,prac,2,2,2,neutral,negative,j,j,1,-0.6436782999953721,138.42889109998941,None,None,None,138.42889109998941,None,138.42889109998941,None,138.42889109998941,None,138.77649299998302,None,138.77649299998302,None,138.77649299998302,None,,,,,,,,,,,106,29,Female,2022-04-29_18h51.02.728,Boat,2022.1.1,60.16738566667994,
neutral,neutral,2,k,k,,,,,1,2,20,10,,,,,,,,,,,,,,,,,,,,,,,,,,,,prac,1,1,2,neutral,neutral,k,k,1,0.8021804000018165,141.79941269999836,142.82583259997773,142.7778518999985,None,141.79941269999836,None,141.79941269999836,None,141.79941269999836,None,143.58562262999186,None,143.58562262999186,None,143.58562262999186,None,,,,,,,,,,,106,29,Female,2022-04-29_18h51.02.728,Boat,2022.1.1,60.16738566667994,
neutral,positive,2,k,k,,,,,1,3,21,13,,,,,,,,,,,,,,,,,,,,,,,,,,,,prac,2,2,2,positive,neutral,k,k,1,0.6713917999877594,143.60829760000343,144.61549249998643,144.58031960000517,None,143.60829760000343,None,143.60829760000343,None,143.60829760000343,None,145.26184682998866,None,145.26184682998866,None,145.26184682998866,None,,,,,,,,,,,106,29,Female,2022-04-29_18h51.02.728,Boat,2022.1.1,60.16738566667994,
positive,positive,1,l,j,,,,,1,4,22,2,,,,,,,,,,,,,,,,,,,,,,,,,,,,prac,2,2,1,positive,positive,l,l,1,0.7972671000170521,145.27946239997982,146.28006259998074,146.2637975999969,None,145.27946239997982,None,145.27946239997982,None,145.27946239997982,None,147.0621172299987,None,147.0621172299987,None,147.0621172299987,None,,,,,,,,,,,106,29,Female,2022-04-29_18h51.02.728,Boat,2022.1.1,60.16738566667994,
negative,positive,1,j,l,,,,,1,5,23,6,,,,,,,,,,,,,,,,,,,,,,,,,,,,prac,2,2,1,positive,negative,j,j,1,0.8213804999832064,147.0806617999915,148.08303139999043,148.06340929999715,None,147.0806617999915,None,147.0806617999915,None,147.0806617999915,None,148.88715793000011,None,148.88715793000011,None,148.88715793000011,None,,,,,,,,,,,106,29,Female,2022-04-29_18h51.02.728,Boat,2022.1.1,60.16738566667994,
positive,positive,2,l,j,,,,,1,6,24,11,,,,,,,,,,,,,,,,,,,,,,,,,,,,prac,2,2,2,positive,positive,l,l,1,0.716250699973898,148.90903459998663,149.9218951999792,149.88016810000408,None,148.90903459998663,None,148.90903459998663,None,148.90903459998663,None,150.6063356299972,None,150.6063356299972,None,150.6063356299972,None,,,,,,,,,,,106,29,Female,2022-04-29_18h51.02.728,Boat,2022.1.1,60.16738566667994,
positive,neutral,2,l,j,,,,,1,7,25,17,,,,,,,,,,,,,,,,,,,,,,,,,,,,prac,2,2,2,neutral,positive,l,l,1,0.7203535999869928,150.62428530000034,151.62890319997678,151.60858010000084,None,150.62428530000034,None,150.62428530000034,None,150.62428530000034,None,152.3286053299933,None,152.3286053299933,None,152.3286053299933,None,,,,,,,,,,,106,29,Female,2022-04-29_18h51.02.728,Boat,2022.1.1,60.16738566667994,
negative,neutral,1,j,l,,,,,1,8,26,3,,,,,,,,,,,,,,,,,,,,,,,,,,,,prac,2,2,1,neutral,negative,j,j,1,0.8167579000000842,152.34667070000432,153.34707389998948,153.33034879999468,None,152.34667070000432,None,152.34667070000432,None,152.34667070000432,None,154.148977629983,None,154.148977629983,None,154.148977629983,None,,,,,,,,,,,106,29,Female,2022-04-29_18h51.02.728,Boat,2022.1.1,60.16738566667994,
neutral,negative,1,k,k,,,,,1,9,27,7,,,,,,,,,,,,,,,,,,,,,,,,,,,,prac,1,1,1,negative,neutral,k,k,1,1.3082160000049043,154.16522609998356,155.18894259998342,155.1472342000052,None,154.16522609998356,None,154.16522609998356,None,154.16522609998356,None,156.46031142997964,None,156.46031142997964,None,156.46031142997964,None,,,,,,,,,,,106,29,Female,2022-04-29_18h51.02.728,Boat,2022.1.1,60.16738566667994,
neutral,neutral,1,k,k,,,,,1,10,28,1,,,,,,,,,,,,,,,,,,,,,,,,,,,,prac,1,1,1,neutral,neutral,k,k,1,-0.6948295999900438,156.4793590999907,None,None,None,156.4793590999907,None,156.4793590999907,None,156.4793590999907,None,156.77088060000096,None,156.77088060000096,None,156.77088060000096,None,,,,,,,,,,,106,29,Female,2022-04-29_18h51.02.728,Boat,2022.1.1,60.16738566667994,
negative,positive,2,j,l,,,,,1,11,29,15,,,,,,,,,,,,,,,,,,,,,,,,,,,,prac,1,1,2,positive,negative,j,j,1,0.816381700016791,159.7827585999912,160.80079149999074,160.76371539998217,None,159.7827585999912,None,159.7827585999912,None,159.7827585999912,None,161.58379362997658,None,161.58379362997658,None,161.58379362997658,None,,,,,,,,,,,106,29,Female,2022-04-29_18h51.02.728,Boat,2022.1.1,60.16738566667994,
negative,negative,2,j,l,,,,,1,12,30,9,,,,,,,,,,,,,,,,,,,,,,,,,,,,prac,2,2,2,negative,negative,j,j,1,0.7256287999916822,161.6015955999901,162.61629639999592,162.5800820000004,None,161.6015955999901,None,161.6015955999901,None,161.6015955999901,None,163.31422902998457,None,163.31422902998457,None,163.31422902998457,None,,,,,,,,,,,106,29,Female,2022-04-29_18h51.02.728,Boat,2022.1.1,60.16738566667994,
positive,neutral,1,l,j,,,,,1,13,31,8,,,,,,,,,,,,,,,,,,,,,,,,,,,,prac,1,1,1,neutral,positive,l,l,1,0.7811008999997284,163.32994579998194,164.33054470000206,164.31349589998717,None,163.32994579998194,None,163.32994579998194,None,163.32994579998194,None,165.09763303000074,None,165.09763303000074,None,165.09763303000074,None,,,,,,,,,,,106,29,Female,2022-04-29_18h51.02.728,Boat,2022.1.1,60.16738566667994,
neutral,positive,1,k,k,,,,,1,14,32,4,,,,,,,,,,,,,,,,,,,,,,,,,,,,prac,2,2,1,positive,neutral,k,k,1,0.6481728999933694,165.11400659999344,166.12563989998307,166.1057998999895,None,165.11400659999344,None,165.11400659999344,None,165.11400659999344,None,166.74806973000233,None,166.74806973000233,None,166.74806973000233,None,,,,,,,,,,,106,29,Female,2022-04-29_18h51.02.728,Boat,2022.1.1,60.16738566667994,
neutral,negative,2,k,k,,,,,1,15,33,16,,,,,,,,,,,,,,,,,,,,,,,,,,,,prac,1,1,2,negative,neutral,k,k,1,0.5955528999911621,166.76424769998994,167.78083219999098,167.74227200000314,None,166.76424769998994,None,166.76424769998994,None,166.76424769998994,None,168.34728882999917,None,168.34728882999917,None,168.34728882999917,None,,,,,,,,,,,106,29,Female,2022-04-29_18h51.02.728,Boat,2022.1.1,60.16738566667994,
positive,negative,1,l,j,,,,,1,16,34,5,,,,,,,,,,,,,,,,,,,,,,,,,,,,prac,1,1,1,negative,positive,l,l,1,0.9370764000050258,168.365003599989,169.38070059998427,169.34688119997736,None,168.365003599989,None,168.365003599989,None,168.365003599989,None,170.28614402998647,None,170.28614402998647,None,170.28614402998647,None,,,,,,,,,,,106,29,Female,2022-04-29_18h51.02.728,Boat,2022.1.1,60.16738566667994,
positive,negative,2,l,j,,,,,1,17,35,14,,,,,,,,,,,,,,,,,,,,,,,,,,,,prac,1,1,2,negative,positive,l,l,1,0.7477179999987129,170.30231849997654,171.31407169997692,171.28007039998192,None,170.30231849997654,None,170.30231849997654,None,170.30231849997654,None,172.03577442999523,None,172.03577442999523,None,172.03577442999523,None,,,,,,,,,,,106,29,Female,2022-04-29_18h51.02.728,Boat,2022.1.1,60.16738566667994,
,,,,,,,,,,,,,,,,,,,,,,,,,,,,,,,,,,,,,,,,,,,,,,,,,,,,,,,,,,,,,,,,,,172.0497572000022,None,None,,,,,,,,106,29,Female,2022-04-29_18h51.02.728,Boat,2022.1.1,60.16738566667994,
,,,,,,,,,,,,,,,,,,,,,,,,,,,,,,,,,,,,,,,,,,,,,,,,,,,,,,,,,,,,,,,,,,,,,-0.0018518518,-0.12962963,1,0,0,0.005469530005939305,None,106,29,Female,2022-04-29_18h51.02.728,Boat,2022.1.1,60.16738566667994,
positive,positive,2,l,j,,,,,,,,,0,0,0,11,,,,,,,,,,,,,,,,,,,,,,185.04297919999226,None,main,1,1,2,positive,positive,l,l,1,0.7547112999891397,187.0645102999988,188.0810455000028,188.0425428999879,None,187.0645102999988,None,187.0645102999988,None,187.0645102999988,None,188.79802402999195,None,188.79802402999195,None,188.79802402999195,None,,,,,,,,,,,106,29,Female,2022-04-29_18h51.02.728,Boat,2022.1.1,60.16738566667994,
negative,neutral,2,j,l,,,,,,,,,0,1,1,12,,,,,,,,,,,,,,,,,,,,,,,,main,1,1,2,neutral,negative,j,j,1,0.815043099981267,188.82626559998607,189.8310530000017,189.79769109998597,None,188.82626559998607,None,188.82626559998607,None,188.82626559998607,None,190.61878412999505,None,190.61878412999505,None,190.61878412999505,None,,,,,,,,,,,106,29,Female,2022-04-29_18h51.02.728,Boat,2022.1.1,60.16738566667994,
neutral,negative,2,k,k,,,,,,,,,0,2,2,16,,,,,,,,,,,,,,,,,,,,,,,,main,2,2,2,negative,neutral,k,k,1,0.7195075999770779,190.6353065999865,191.65643119998276,191.61445829999866,None,190.6353065999865,None,190.6353065999865,None,190.6353065999865,None,192.3425437299855,None,192.3425437299855,None,192.3425437299855,None,,,,,,,,,,,106,29,Female,2022-04-29_18h51.02.728,Boat,2022.1.1,60.16738566667994,
negative,negative,1,j,l,,,,,,,,,0,3,3,0,,,,,,,,,,,,,,,,,,,,,,,,main,2,2,1,negative,negative,j,j,1,0.8117778000014368,192.36201959999744,193.37272339998162,193.33124489997863,None,192.36201959999744,None,192.36201959999744,None,192.36201959999744,None,194.15477912997886,None,194.15477912997886,None,194.15477912997886,None,,,,,,,,,,,106,29,Female,2022-04-29_18h51.02.728,Boat,2022.1.1,60.16738566667994,
neutral,neutral,2,k,k,,,,,,,,,0,4,4,10,,,,,,,,,,,,,,,,,,,,,,,,main,2,2,2,neutral,neutral,k,k,1,0.6710303999716416,194.1748052999901,195.18337369998335,195.14776100000017,None,194.1748052999901,None,194.1748052999901,None,194.1748052999901,None,195.83027822998412,None,195.83027822998412,None,195.83027822998412,None,,,,,,,,,,,106,29,Female,2022-04-29_18h51.02.728,Boat,2022.1.1,60.16738566667994,
negative,neutral,1,j,l,,,,,,,,,0,5,5,3,,,,,,,,,,,,,,,,,,,,,,,,main,1,1,1,neutral,negative,j,j,1,0.7191958000184968,195.8466053000011,196.84786059998441,196.83142929998576,None,195.8466053000011,None,195.8466053000011,None,195.8466053000011,None,197.55196822998988,None,197.55196822998988,None,197.55196822998988,None,,,,,,,,,,,106,29,Female,2022-04-29_18h51.02.728,Boat,2022.1.1,60.16738566667994,
neutral,neutral,1,k,k,,,,,,,,,0,6,6,1,,,,,,,,,,,,,,,,,,,,,,,,main,1,1,1,neutral,neutral,k,k,1,0.537228100001812,197.5675515999901,198.58082049997756,198.54782559999148,None,197.5675515999901,None,197.5675515999901,None,197.5675515999901,None,199.09339862997587,None,199.09339862997587,None,199.09339862997587,None,,,,,,,,,,,106,29,Female,2022-04-29_18h51.02.728,Boat,2022.1.1,60.16738566667994,
positive,negative,1,l,j,,,,,,,,,0,7,7,5,,,,,,,,,,,,,,,,,,,,,,,,main,2,2,1,negative,positive,l,l,1,0.5917396000004373,199.11197719999473,200.11669739999343,200.08130170000368,None,199.11197719999473,None,199.11197719999473,None,199.11197719999473,None,200.68509692998197,None,200.68509692998197,None,200.68509692998197,None,,,,,,,,,,,106,29,Female,2022-04-29_18h51.02.728,Boat,2022.1.1,60.16738566667994,
negative,positive,1,j,l,,,,,,,,,0,8,8,6,,,,,,,,,,,,,,,,,,,,,,,,main,2,2,1,positive,negative,j,j,1,0.7551685999787878,200.70506769997883,201.72317199999816,201.68128289998276,None,200.70506769997883,None,200.70506769997883,None,200.70506769997883,None,202.44666852999654,None,202.44666852999654,None,202.44666852999654,None,,,,,,,,,,,106,29,Female,2022-04-29_18h51.02.728,Boat,2022.1.1,60.16738566667994,
negative,negative,2,j,l,,,,,,,,,0,9,9,9,,,,,,,,,,,,,,,,,,,,,,,,main,2,2,2,negative,negative,j,j,1,0.8331451000121888,202.4637994999939,203.46449769998435,203.44803780000075,None,202.4637994999939,None,202.4637994999939,None,202.4637994999939,None,204.2820548299904,None,204.2820548299904,None,204.2820548299904,None,,,,,,,,,,,106,29,Female,2022-04-29_18h51.02.728,Boat,2022.1.1,60.16738566667994,
positive,positive,1,l,j,,,,,,,,,0,10,10,2,,,,,,,,,,,,,,,,,,,,,,,,main,2,2,1,positive,positive,l,l,1,0.8852675000089221,204.3003214999917,205.31475109999883,205.277391599986,None,204.3003214999917,None,204.3003214999917,None,204.3003214999917,None,206.16774812998193,None,206.16774812998193,None,206.16774812998193,None,,,,,,,,,,,106,29,Female,2022-04-29_18h51.02.728,Boat,2022.1.1,60.16738566667994,
neutral,negative,1,k,k,,,,,,,,,0,11,11,7,,,,,,,,,,,,,,,,,,,,,,,,main,2,2,1,negative,neutral,k,k,1,0.6809549999888986,206.18787840000005,207.2063008999976,207.1791234999837,None,206.18787840000005,None,206.18787840000005,None,206.18787840000005,None,207.8551346299908,None,207.8551346299908,None,207.8551346299908,None,,,,,,,,,,,106,29,Female,2022-04-29_18h51.02.728,Boat,2022.1.1,60.16738566667994,
neutral,positive,2,k,k,,,,,,,,,0,12,12,13,,,,,,,,,,,,,,,,,,,,,,,,main,2,2,2,positive,neutral,k,k,1,1.339947000000393,207.87403249999625,208.87866779998876,208.85943819998647,None,207.87403249999625,None,207.87403249999625,None,207.87403249999625,None,210.19696162998736,None,210.19696162998736,None,210.19696162998736,None,,,,,,,,,,,106,29,Female,2022-04-29_18h51.02.728,Boat,2022.1.1,60.16738566667994,
negative,positive,2,j,l,,,,,,,,,0,13,13,15,,,,,,,,,,,,,,,,,,,,,,,,main,2,2,2,positive,negative,j,j,1,0.861158699990483,210.21412339998642,211.23158029999468,211.19550279999385,None,210.21412339998642,None,210.21412339998642,None,210.21412339998642,None,212.0620621299866,None,212.0620621299866,None,212.0620621299866,None,,,,,,,,,,,106,29,Female,2022-04-29_18h51.02.728,Boat,2022.1.1,60.16738566667994,
positive,neutral,2,l,j,,,,,,,,,0,14,14,17,,,,,,,,,,,,,,,,,,,,,,,,main,1,1,2,neutral,positive,l,l,1,0.7482049000100233,212.08037889999105,213.0822397999873,213.06275469998945,None,212.08037889999105,None,212.08037889999105,None,212.08037889999105,None,213.8135340299894,None,213.8135340299894,None,213.8135340299894,None,,,,,,,,,,,106,29,Female,2022-04-29_18h51.02.728,Boat,2022.1.1,60.16738566667994,
neutral,positive,1,k,k,,,,,,,,,0,15,15,4,,,,,,,,,,,,,,,,,,,,,,,,main,2,2,1,positive,neutral,k,k,1,0.5135910999961197,213.8304537999793,214.8323834000039,214.8139048999874,None,213.8304537999793,None,213.8304537999793,None,213.8304537999793,None,215.3307535299944,None,215.3307535299944,None,215.3307535299944,None,,,,,,,,,,,106,29,Female,2022-04-29_18h51.02.728,Boat,2022.1.1,60.16738566667994,
positive,neutral,1,l,j,,,,,,,,,0,16,16,8,,,,,,,,,,,,,,,,,,,,,,,,main,2,2,1,neutral,positive,l,l,1,0.8856909000023734,215.3469796999998,216.35338349998347,216.31771469998057,None,215.3469796999998,None,215.3469796999998,None,215.3469796999998,None,217.21812313000265,None,217.21812313000265,None,217.21812313000265,None,,,,,,,,,,,106,29,Female,2022-04-29_18h51.02.728,Boat,2022.1.1,60.16738566667994,
positive,negative,2,l,j,,,,,,,,,0,17,17,14,,,,,,,,,,,,,,,,,,,,,,,,main,1,1,2,negative,positive,l,l,1,0.7321250000095461,217.23600010000519,218.24311559999478,218.22337659998448,None,217.23600010000519,None,217.23600010000519,None,217.23600010000519,None,218.9534589299845,None,218.9534589299845,None,218.9534589299845,None,,,,,,,,,,,106,29,Female,2022-04-29_18h51.02.728,Boat,2022.1.1,60.16738566667994,
negative,negative,2,j,l,,,,,,,,,1,0,18,9,,,,,,,,,,,,,,,,,,,,,,,,main,1,1,2,negative,negative,j,j,1,1.5187429999932647,218.970302599977,219.98254639998777,219.94842639999115,None,218.970302599977,None,218.970302599977,None,218.970302599977,None,221.48154539999086,None,221.48154539999086,None,221.48154539999086,None,,,,,,,,,,,106,29,Female,2022-04-29_18h51.02.728,Boat,2022.1.1,60.16738566667994,
negative,neutral,1,j,l,,,,,,,,,1,1,19,3,,,,,,,,,,,,,,,,,,,,,,,,main,2,2,1,neutral,negative,j,j,1,0.8170390000159387,222.5022631000029,223.5153977999871,223.48058760000276,None,222.5022631000029,None,222.5022631000029,None,222.5022631000029,None,224.30503352998932,None,224.30503352998932,None,224.30503352998932,None,,,,,,,,,,,106,29,Female,2022-04-29_18h51.02.728,Boat,2022.1.1,60.16738566667994,
negative,neutral,2,j,l,,,,,,,,,1,2,20,12,,,,,,,,,,,,,,,,,,,,,,,,main,1,1,2,neutral,negative,j,j,1,0.7034288999857381,224.3214517000015,225.3337501999922,225.29860239999834,None,224.3214517000015,None,224.3214517000015,None,224.3214517000015,None,226.01146212999885,None,226.01146212999885,None,226.01146212999885,None,,,,,,,,,,,106,29,Female,2022-04-29_18h51.02.728,Boat,2022.1.1,60.16738566667994,
negative,positive,2,j,l,,,,,,,,,1,3,21,15,,,,,,,,,,,,,,,,,,,,,,,,main,2,2,2,positive,negative,j,j,1,0.5721419999899808,226.03066210000543,227.04031309997663,227.01304520000122,None,226.03066210000543,None,226.03066210000543,None,226.03066210000543,None,227.58475352998067,None,227.58475352998067,None,227.58475352998067,None,,,,,,,,,,,106,29,Female,2022-04-29_18h51.02.728,Boat,2022.1.1,60.16738566667994,
positive,neutral,1,l,j,,,,,,,,,1,4,22,8,,,,,,,,,,,,,,,,,,,,,,,,main,2,2,1,neutral,positive,l,l,1,0.7360140000237152,227.60221640000236,228.61502899997868,228.57999149998068,None,227.60221640000236,None,227.60221640000236,None,227.60221640000236,None,229.3243731299852,None,229.3243731299852,None,229.3243731299852,None,,,,,,,,,,,106,29,Female,2022-04-29_18h51.02.728,Boat,2022.1.1,60.16738566667994,
negative,negative,1,j,l,,,,,,,,,1,5,23,0,,,,,,,,,,,,,,,,,,,,,,,,main,1,1,1,negative,negative,j,j,1,0.7369120000221301,229.34415560000343,230.35683720000088,230.3154212999798,None,229.34415560000343,None,229.34415560000343,None,229.34415560000343,None,231.06394132997667,None,231.06394132997667,None,231.06394132997667,None,,,,,,,,,,,106,29,Female,2022-04-29_18h51.02.728,Boat,2022.1.1,60.16738566667994,
neutral,neutral,1,k,k,,,,,,,,,1,6,24,1,,,,,,,,,,,,,,,,,,,,,,,,main,1,1,1,neutral,neutral,k,k,1,0.5881998999975622,231.08261769998353,232.0981772999803,232.06005929998355,None,231.08261769998353,None,231.08261769998353,None,231.08261769998353,None,232.65597222998332,None,232.65597222998332,None,232.65597222998332,None,,,,,,,,,,,106,29,Female,2022-04-29_18h51.02.728,Boat,2022.1.1,60.16738566667994,
neutral,positive,1,k,k,,,,,,,,,1,7,25,4,,,,,,,,,,,,,,,,,,,,,,,,main,2,2,1,positive,neutral,k,k,1,1.2370171999791637,232.67617649998283,233.68452219999745,233.6486431999947,None,232.67617649998283,None,232.67617649998283,None,232.67617649998283,None,234.89496262999893,None,234.89496262999893,None,234.89496262999893,None,,,,,,,,,,,106,29,Female,2022-04-29_18h51.02.728,Boat,2022.1.1,60.16738566667994,
positive,positive,2,l,j,,,,,,,,,1,8,26,11,,,,,,,,,,,,,,,,,,,,,,,,main,2,2,2,positive,positive,l,l,1,0.6900910999975167,234.91417439997895,235.91524289999506,235.89874599999166,None,234.91417439997895,None,234.91417439997895,None,234.91417439997895,None,236.58685282998778,None,236.58685282998778,None,236.58685282998778,None,,,,,,,,,,,106,29,Female,2022-04-29_18h51.02.728,Boat,2022.1.1,60.16738566667994,
positive,negative,2,l,j,,,,,,,,,1,9,27,14,,,,,,,,,,,,,,,,,,,,,,,,main,2,2,2,negative,positive,l,l,1,0.6170420999987982,236.60874480000348,237.6234871999768,237.59686180000426,None,236.60874480000348,None,236.60874480000348,None,236.60874480000348,None,238.20917382999033,None,238.20917382999033,None,238.20917382999033,None,,,,,,,,,,,106,29,Female,2022-04-29_18h51.02.728,Boat,2022.1.1,60.16738566667994,
positive,negative,1,l,j,,,,,,,,,1,10,28,5,,,,,,,,,,,,,,,,,,,,,,,,main,2,2,1,negative,positive,l,l,1,0.849045400012983,238.2303869999887,239.24065449999762,239.21537349998835,None,238.2303869999887,None,238.2303869999887,None,238.2303869999887,None,240.0611061299831,None,240.0611061299831,None,240.0611061299831,None,,,,,,,,,,,106,29,Female,2022-04-29_18h51.02.728,Boat,2022.1.1,60.16738566667994,
positive,positive,1,l,j,,,,,,,,,1,11,29,2,,,,,,,,,,,,,,,,,,,,,,,,main,1,1,1,positive,positive,l,l,1,0.6233194000087678,240.08090829997673,241.08228159998544,241.06561930000316,None,240.08090829997673,None,240.08090829997673,None,240.08090829997673,None,241.686514429978,None,241.686514429978,None,241.686514429978,None,,,,,,,,,,,106,29,Female,2022-04-29_18h51.02.728,Boat,2022.1.1,60.16738566667994,
neutral,neutral,2,k,k,,,,,,,,,1,12,30,10,,,,,,,,,,,,,,,,,,,,,,,,main,1,1,2,neutral,neutral,k,k,1,0.7062687000143342,241.7040110999951,242.71551879998879,242.676698700001,None,241.7040110999951,None,241.7040110999951,None,241.7040110999951,None,243.39759312997631,None,243.39759312997631,None,243.39759312997631,None,,,,,,,,,,,106,29,Female,2022-04-29_18h51.02.728,Boat,2022.1.1,60.16738566667994,
neutral,negative,2,k,k,,,,,,,,,1,13,31,16,,,,,,,,,,,,,,,,,,,,,,,,main,1,1,2,negative,neutral,k,k,1,0.587635899981251,243.4143533000024,244.41544089998933,244.3972489000007,None,243.4143533000024,None,243.4143533000024,None,243.4143533000024,None,244.98702922998638,None,244.98702922998638,None,244.98702922998638,None,,,,,,,,,,,106,29,Female,2022-04-29_18h51.02.728,Boat,2022.1.1,60.16738566667994,
neutral,positive,2,k,k,,,,,,,,,1,14,32,13,,,,,,,,,,,,,,,,,,,,,,,,main,1,1,2,positive,neutral,k,k,1,0.5045392999891192,245.00711769997724,246.0167378000042,245.98228519997792,None,245.00711769997724,None,245.00711769997724,None,245.00711769997724,None,246.49576262998454,None,246.49576262998454,None,246.49576262998454,None,,,,,,,,,,,106,29,Female,2022-04-29_18h51.02.728,Boat,2022.1.1,60.16738566667994,
neutral,negative,1,k,k,,,,,,,,,1,15,33,7,,,,,,,,,,,,,,,,,,,,,,,,main,1,1,1,negative,neutral,k,k,1,0.506794799992349,246.51494779999484,247.5325232000032,247.49679939998896,None,246.51494779999484,None,246.51494779999484,None,246.51494779999484,None,248.00540412999982,None,248.00540412999982,None,248.00540412999982,None,,,,,,,,,,,106,29,Female,2022-04-29_18h51.02.728,Boat,2022.1.1,60.16738566667994,
negative,positive,1,j,l,,,,,,,,,1,16,34,6,,,,,,,,,,,,,,,,,,,,,,,,main,2,2,1,positive,negative,j,j,1,0.925362399982987,248.02541589998873,249.03231719997711,248.99889139999868,None,248.02541589998873,None,248.02541589998873,None,248.02541589998873,None,249.9328516299982,None,249.9328516299982,None,249.9328516299982,None,,,,,,,,,,,106,29,Female,2022-04-29_18h51.02.728,Boat,2022.1.1,60.16738566667994,
positive,neutral,2,l,j,,,,,,,,,1,17,35,17,,,,,,,,,,,,,,,,,,,,,,,,main,2,2,2,neutral,positive,l,l,1,1.383485300000757,249.9503995999985,250.97409770000377,250.93218259999412,None,249.9503995999985,None,249.9503995999985,None,249.9503995999985,None,252.3185445299867,None,252.3185445299867,None,252.3185445299867,None,,,,,,,,,,,106,29,Female,2022-04-29_18h51.02.728,Boat,2022.1.1,60.16738566667994,
positive,negative,2,l,j,,,,,,,,,2,0,36,14,,,,,,,,,,,,,,,,,,,,,,,,main,2,2,2,negative,positive,l,l,1,0.4582496000220999,252.33764849998988,253.3574735999864,253.31571009999607,None,252.33764849998988,None,252.33764849998988,None,252.33764849998988,None,253.78071032999725,None,253.78071032999725,None,253.78071032999725,None,,,,,,,,,,,106,29,Female,2022-04-29_18h51.02.728,Boat,2022.1.1,60.16738566667994,
neutral,positive,1,k,k,,,,,,,,,2,1,37,4,,,,,,,,,,,,,,,,,,,,,,,,main,1,1,1,positive,neutral,k,k,1,0.746296600002097,253.79796379999607,254.81558319999021,254.77918579999823,None,253.79796379999607,None,253.79796379999607,None,253.79796379999607,None,255.53115682999197,None,255.53115682999197,None,255.53115682999197,None,,,,,,,,,,,106,29,Female,2022-04-29_18h51.02.728,Boat,2022.1.1,60.16738566667994,
negative,neutral,1,j,l,,,,,,,,,2,2,38,3,,,,,,,,,,,,,,,,,,,,,,,,main,2,2,1,neutral,negative,j,j,1,0.8888636000046972,255.54751259999466,256.5495426999987,256.53009049998946,None,255.54751259999466,None,255.54751259999466,None,255.54751259999466,None,257.42131232999674,None,257.42131232999674,None,257.42131232999674,None,,,,,,,,,,,106,29,Female,2022-04-29_18h51.02.728,Boat,2022.1.1,60.16738566667994,
negative,negative,1,j,l,,,,,,,,,2,3,39,0,,,,,,,,,,,,,,,,,,,,,,,,main,2,2,1,negative,negative,j,j,1,0.6909353999944869,257.4396804999851,258.449512399995,258.4158603999822,None,257.4396804999851,None,257.4396804999851,None,257.4396804999851,None,259.1159235299827,None,259.1159235299827,None,259.1159235299827,None,,,,,,,,,,,106,29,Female,2022-04-29_18h51.02.728,Boat,2022.1.1,60.16738566667994,
neutral,neutral,2,k,k,,,,,,,,,2,4,40,10,,,,,,,,,,,,,,,,,,,,,,,,main,2,2,2,neutral,neutral,k,k,1,1.3424820999789517,259.1344796999765,260.1491722999781,260.11068969999906,None,259.1344796999765,None,259.1344796999765,None,259.1344796999765,None,261.46333492998093,None,261.46333492998093,None,261.46333492998093,None,,,,,,,,,,,106,29,Female,2022-04-29_18h51.02.728,Boat,2022.1.1,60.16738566667994,
neutral,negative,1,k,k,,,,,,,,,2,5,41,7,,,,,,,,,,,,,,,,,,,,,,,,main,2,2,1,negative,neutral,k,k,1,0.570484399999259,261.4811478999909,262.4990715000022,262.4608601999935,None,261.4811478999909,None,261.4811478999909,None,261.4811478999909,None,263.03539352997615,None,263.03539352997615,None,263.03539352997615,None,,,,,,,,,,,106,29,Female,2022-04-29_18h51.02.728,Boat,2022.1.1,60.16738566667994,
negative,negative,2,j,l,,,,,,,,,2,6,42,9,,,,,,,,,,,,,,,,,,,,,,,,main,1,1,2,negative,negative,j,j,1,0.8413308000017423,263.051089399989,264.07426860000123,264.032550599979,None,263.051089399989,None,263.051089399989,None,263.051089399989,None,264.87874692998304,None,264.87874692998304,None,264.87874692998304,None,,,,,,,,,,,106,29,Female,2022-04-29_18h51.02.728,Boat,2022.1.1,60.16738566667994,
positive,positive,1,l,j,,,,,,,,,2,7,43,2,,,,,,,,,,,,,,,,,,,,,,,,main,1,1,1,positive,positive,l,l,1,1.0438032999809366,264.8980625999975,265.91339999999036,265.8941697999835,None,264.8980625999975,None,264.8980625999975,None,264.8980625999975,None,266.9270435299812,None,266.9270435299812,None,266.9270435299812,None,,,,,,,,,,,106,29,Female,2022-04-29_18h51.02.728,Boat,2022.1.1,60.16738566667994,
neutral,negative,2,k,k,,,,,,,,,2,8,44,16,,,,,,,,,,,,,,,,,,,,,,,,main,2,2,2,negative,neutral,k,k,1,0.6886178999848198,266.94366269998136,267.9467897999857,267.9276073999936,None,266.94366269998136,None,266.94366269998136,None,266.94366269998136,None,268.6176184299955,None,268.6176184299955,None,268.6176184299955,None,,,,,,,,,,,106,29,Female,2022-04-29_18h51.02.728,Boat,2022.1.1,60.16738566667994,
positive,negative,1,l,j,,,,,,,,,2,9,45,5,,,,,,,,,,,,,,,,,,,,,,,,main,2,2,1,negative,positive,l,l,1,0.8857608999824151,268.63502529999823,269.65746069999295,269.6161957999866,None,268.63502529999823,None,268.63502529999823,None,268.63502529999823,None,270.5052460299892,None,270.5052460299892,None,270.5052460299892,None,,,,,,,,,,,106,29,Female,2022-04-29_18h51.02.728,Boat,2022.1.1,60.16738566667994,
positive,positive,2,l,j,,,,,,,,,2,10,46,11,,,,,,,,,,,,,,,,,,,,,,,,main,1,1,2,positive,positive,l,l,1,0.6467826000007335,270.5219973999774,271.5439689999912,271.4974828999839,None,270.5219973999774,None,270.5219973999774,None,270.5219973999774,None,272.1561037299951,None,272.1561037299951,None,272.1561037299951,None,,,,,,,,,,,106,29,Female,2022-04-29_18h51.02.728,Boat,2022.1.1,60.16738566667994,
negative,positive,1,j,l,,,,,,,,,2,11,47,6,,,,,,,,,,,,,,,,,,,,,,,,main,1,1,1,positive,negative,j,j,1,0.9497660000051837,272.1746767000004,273.18325289999484,273.1494812000019,None,272.1746767000004,None,272.1746767000004,None,272.1746767000004,None,274.1093744299986,None,274.1093744299986,None,274.1093744299986,None,,,,,,,,,,,106,29,Female,2022-04-29_18h51.02.728,Boat,2022.1.1,60.16738566667994,
negative,positive,2,j,l,,,,,,,,,2,12,48,15,,,,,,,,,,,,,,,,,,,,,,,,main,2,2,2,positive,negative,j,j,1,0.8113120000052731,274.12922459997935,275.13290840000263,275.1142959999852,None,274.12922459997935,None,274.12922459997935,None,274.12922459997935,None,275.9220542299998,None,275.9220542299998,None,275.9220542299998,None,,,,,,,,,,,106,29,Female,2022-04-29_18h51.02.728,Boat,2022.1.1,60.16738566667994,
positive,neutral,1,l,j,,,,,,,,,2,13,49,8,,,,,,,,,,,,,,,,,,,,,,,,main,1,1,1,neutral,positive,l,l,1,0.9308823000174016,275.93841939998674,276.95629249999183,276.9205838999769,None,275.93841939998674,None,275.93841939998674,None,275.93841939998674,None,277.85742242997804,None,277.85742242997804,None,277.85742242997804,None,,,,,,,,,,,106,29,Female,2022-04-29_18h51.02.728,Boat,2022.1.1,60.16738566667994,
neutral,neutral,1,k,k,,,,,,,,,2,14,50,1,,,,,,,,,,,,,,,,,,,,,,,,main,2,2,1,neutral,neutral,k,k,1,0.7892309000017121,277.87586119998014,278.88261629999033,278.86501509998925,None,277.87586119998014,None,277.87586119998014,None,277.87586119998014,None,279.6490250299947,None,279.6490250299947,None,279.6490250299947,None,,,,,,,,,,,106,29,Female,2022-04-29_18h51.02.728,Boat,2022.1.1,60.16738566667994,
positive,neutral,2,l,j,,,,,,,,,2,15,51,17,,,,,,,,,,,,,,,,,,,,,,,,main,2,2,2,neutral,positive,l,l,1,0.669430799986003,279.6667976999888,280.69428779999726,280.64730260000215,None,279.6667976999888,None,279.6667976999888,None,279.6667976999888,None,281.32007032999246,None,281.32007032999246,None,281.32007032999246,None,,,,,,,,,,,106,29,Female,2022-04-29_18h51.02.728,Boat,2022.1.1,60.16738566667994,
negative,neutral,2,j,l,,,,,,,,,2,16,52,12,,,,,,,,,,,,,,,,,,,,,,,,main,1,1,2,neutral,negative,j,j,1,0.8087004999979399,281.3364617000043,282.3494708999933,282.33005009999033,None,281.3364617000043,None,281.3364617000043,None,281.3364617000043,None,283.1332959299878,None,283.1332959299878,None,283.1332959299878,None,,,,,,,,,,,106,29,Female,2022-04-29_18h51.02.728,Boat,2022.1.1,60.16738566667994,
neutral,positive,2,k,k,,,,,,,,,2,17,53,13,,,,,,,,,,,,,,,,,,,,,,,,main,1,1,2,positive,neutral,k,k,1,0.7735466999874916,283.14970229999744,284.1662107000011,284.13134150000405,None,283.14970229999744,None,283.14970229999744,None,283.14970229999744,None,284.904502229995,None,284.904502229995,None,284.904502229995,None,,,,,,,,,,,106,29,Female,2022-04-29_18h51.02.728,Boat,2022.1.1,60.16738566667994,
negative,positive,2,j,l,,,,,,,,,3,0,54,15,,,,,,,,,,,,,,,,,,,,,,,,main,2,2,2,positive,negative,j,j,1,0.761214199999813,284.9292416999815,285.94120020000264,285.89991799998097,None,284.9292416999815,None,284.9292416999815,None,284.9292416999815,None,286.6728107299976,None,286.6728107299976,None,286.6728107299976,None,,,,,,,,,,,106,29,Female,2022-04-29_18h51.02.728,Boat,2022.1.1,60.16738566667994,
neutral,negative,1,k,k,,,,,,,,,3,1,55,7,,,,,,,,,,,,,,,,,,,,,,,,main,1,1,1,negative,neutral,k,k,1,0.7570985999773256,286.69605669999146,287.69991899997694,287.6639146999805,None,286.69605669999146,None,286.69605669999146,None,286.69605669999146,None,288.43333892998345,None,288.43333892998345,None,288.43333892998345,None,,,,,,,,,,,106,29,Female,2022-04-29_18h51.02.728,Boat,2022.1.1,60.16738566667994,
positive,positive,1,l,j,,,,,,,,,3,2,56,2,,,,,,,,,,,,,,,,,,,,,,,,main,2,2,1,positive,positive,l,l,1,0.8869305000116583,288.45027499998105,289.4496683999896,289.43306809998467,None,288.45027499998105,None,288.45027499998105,None,288.45027499998105,None,290.3231107299769,None,290.3231107299769,None,290.3231107299769,None,,,,,,,,,,,106,29,Female,2022-04-29_18h51.02.728,Boat,2022.1.1,60.16738566667994,
negative,negative,2,j,l,,,,,,,,,3,3,57,9,,,,,,,,,,,,,,,,,,,,,,,,main,1,1,2,negative,negative,j,j,1,0.7968342000094708,290.34270899998955,291.3506444999948,291.3164036999806,None,290.34270899998955,None,290.34270899998955,None,290.34270899998955,None,292.12156412997575,None,292.12156412997575,None,292.12156412997575,None,,,,,,,,,,,106,29,Female,2022-04-29_18h51.02.728,Boat,2022.1.1,60.16738566667994,
neutral,negative,2,k,k,,,,,,,,,3,4,58,16,,,,,,,,,,,,,,,,,,,,,,,,main,1,1,2,negative,neutral,k,k,1,0.711375599988969,292.1384160000016,293.1498917999852,293.11349639997934,None,292.1384160000016,None,292.1384160000016,None,292.1384160000016,None,293.83553052998906,None,293.83553052998906,None,293.83553052998906,None,,,,,,,,,,,106,29,Female,2022-04-29_18h51.02.728,Boat,2022.1.1,60.16738566667994,
positive,neutral,1,l,j,,,,,,,,,3,5,59,8,,,,,,,,,,,,,,,,,,,,,,,,main,2,2,1,neutral,positive,l,l,1,0.7604807000025176,293.8516336999892,294.86974539997755,294.8330533999833,None,293.8516336999892,None,293.8516336999892,None,293.8516336999892,None,295.6000235299842,None,295.6000235299842,None,295.6000235299842,None,,,,,,,,,,,106,29,Female,2022-04-29_18h51.02.728,Boat,2022.1.1,60.16738566667994,
positive,negative,2,l,j,,,,,,,,,3,6,60,14,,,,,,,,,,,,,,,,,,,,,,,,main,2,2,2,negative,positive,l,l,1,0.75365050000255,295.61509069998283,296.6165359999868,296.60004439999466,None,295.61509069998283,None,295.61509069998283,None,295.61509069998283,None,297.3549788299977,None,297.3549788299977,None,297.3549788299977,None,,,,,,,,,,,106,29,Female,2022-04-29_18h51.02.728,Boat,2022.1.1,60.16738566667994,
negative,neutral,1,j,l,,,,,,,,,3,7,61,3,,,,,,,,,,,,,,,,,,,,,,,,main,2,2,1,neutral,negative,j,j,1,0.7838885000091977,297.3761287999805,298.3915829999896,298.34470769998734,None,297.3761287999805,None,297.3761287999805,None,297.3761287999805,None,299.14268292998605,None,299.14268292998605,None,299.14268292998605,None,,,,,,,,,,,106,29,Female,2022-04-29_18h51.02.728,Boat,2022.1.1,60.16738566667994,
positive,neutral,2,l,j,,,,,,,,,3,8,62,17,,,,,,,,,,,,,,,,,,,,,,,,main,1,1,2,neutral,positive,l,l,1,0.7100103000120725,299.16188909998164,300.16755489999196,300.1333783000009,None,299.16188909998164,None,299.16188909998164,None,299.16188909998164,None,300.85675952999446,None,300.85675952999446,None,300.85675952999446,None,,,,,,,,,,,106,29,Female,2022-04-29_18h51.02.728,Boat,2022.1.1,60.16738566667994,
negative,negative,1,j,l,,,,,,,,,3,9,63,0,,,,,,,,,,,,,,,,,,,,,,,,main,1,1,1,negative,negative,j,j,1,0.8380636999791022,300.8753658999922,301.8837932999886,301.8643747000024,None,300.8753658999922,None,300.8753658999922,None,300.8753658999922,None,302.69890282998387,None,302.69890282998387,None,302.69890282998387,None,,,,,,,,,,,106,29,Female,2022-04-29_18h51.02.728,Boat,2022.1.1,60.16738566667994,
neutral,positive,2,k,k,,,,,,,,,3,10,64,13,,,,,,,,,,,,,,,,,,,,,,,,main,2,2,2,positive,neutral,k,k,1,0.7398711999994703,302.71558150000055,303.7332319999987,303.69747869999264,None,302.71558150000055,None,302.71558150000055,None,302.71558150000055,None,304.44236852999603,None,304.44236852999603,None,304.44236852999603,None,,,,,,,,,,,106,29,Female,2022-04-29_18h51.02.728,Boat,2022.1.1,60.16738566667994,
positive,positive,2,l,j,,,,,,,,,3,11,65,11,,,,,,,,,,,,,,,,,,,,,,,,main,2,2,2,positive,positive,l,l,1,0.7277053000289015,304.45862329998636,305.4748558999854,305.433615499991,None,304.45862329998636,None,304.45862329998636,None,304.45862329998636,None,306.1708226299932,None,306.1708226299932,None,306.1708226299932,None,,,,,,,,,,,106,29,Female,2022-04-29_18h51.02.728,Boat,2022.1.1,60.16738566667994,
negative,positive,1,j,l,,,,,,,,,3,12,66,6,,,,,,,,,,,,,,,,,,,,,,,,main,2,2,1,positive,negative,j,j,1,0.8074268000200391,306.1882134999905,307.20044190000044,307.1615369999781,None,306.1882134999905,None,306.1882134999905,None,306.1882134999905,None,307.9826068299852,None,307.9826068299852,None,307.9826068299852,None,,,,,,,,,,,106,29,Female,2022-04-29_18h51.02.728,Boat,2022.1.1,60.16738566667994,
negative,neutral,2,j,l,,,,,,,,,3,13,67,12,,,,,,,,,,,,,,,,,,,,,,,,main,2,2,2,neutral,negative,j,j,1,0.8020095999818295,307.9987766999984,309.0001662999857,308.98239639998064,None,307.9987766999984,None,307.9987766999984,None,307.9987766999984,None,309.78658312998306,None,309.78658312998306,None,309.78658312998306,None,,,,,,,,,,,106,29,Female,2022-04-29_18h51.02.728,Boat,2022.1.1,60.16738566667994,
neutral,neutral,2,k,k,,,,,,,,,3,14,68,10,,,,,,,,,,,,,,,,,,,,,,,,main,1,1,2,neutral,neutral,k,k,1,0.6782804999966174,309.8027959000028,310.8144882999768,310.7950948999787,None,309.8027959000028,None,309.8027959000028,None,309.8027959000028,None,311.4666244299995,None,311.4666244299995,None,311.4666244299995,None,,,,,,,,,,,106,29,Female,2022-04-29_18h51.02.728,Boat,2022.1.1,60.16738566667994,
positive,negative,1,l,j,,,,,,,,,3,15,69,5,,,,,,,,,,,,,,,,,,,,,,,,main,1,1,1,negative,positive,l,l,1,1.017272500001127,311.48797089999425,312.4989410999988,312.4788411000045,None,311.48797089999425,None,311.48797089999425,None,311.48797089999425,None,313.48737163000334,None,313.48737163000334,None,313.48737163000334,None,,,,,,,,,,,106,29,Female,2022-04-29_18h51.02.728,Boat,2022.1.1,60.16738566667994,
neutral,neutral,1,k,k,,,,,,,,,3,16,70,1,,,,,,,,,,,,,,,,,,,,,,,,main,2,2,1,neutral,neutral,k,k,1,1.1632466999872122,313.5046175000025,314.5292761999881,314.4812205999915,None,313.5046175000025,None,313.5046175000025,None,313.5046175000025,None,315.6531653300015,None,315.6531653300015,None,315.6531653300015,None,,,,,,,,,,,106,29,Female,2022-04-29_18h51.02.728,Boat,2022.1.1,60.16738566667994,
neutral,positive,1,k,k,,,,,,,,,3,17,71,4,,,,,,,,,,,,,,,,,,,,,,,,main,2,2,1,positive,neutral,k,k,1,0.6661281000124291,315.67303599999286,316.6783860999858,316.65857989998767,None,315.67303599999286,None,315.67303599999286,None,315.67303599999286,None,317.3232751299773,None,317.3232751299773,None,317.3232751299773,None,,,,,,,,,,,106,29,Female,2022-04-29_18h51.02.728,Boat,2022.1.1,60.16738566667994,
positive,positive,2,l,j,,,,,,,,,4,0,72,11,,,,,,,,,,,,,,,,,,,,,,,,main,1,1,2,positive,positive,l,l,1,0.7071998000028543,317.33992689999286,318.34552780000377,318.3248825999908,None,317.33992689999286,None,317.33992689999286,None,317.33992689999286,None,319.0342428300035,None,319.0342428300035,None,319.0342428300035,None,,,,,,,,,,,106,29,Female,2022-04-29_18h51.02.728,Boat,2022.1.1,60.16738566667994,
negative,positive,1,j,l,,,,,,,,,4,1,73,6,,,,,,,,,,,,,,,,,,,,,,,,main,1,1,1,positive,negative,j,j,1,0.8194163000152912,319.0502415999945,320.05297619997873,320.03519979998237,None,319.0502415999945,None,319.0502415999945,None,319.0502415999945,None,320.85507812999714,None,320.85507812999714,None,320.85507812999714,None,,,,,,,,,,,106,29,Female,2022-04-29_18h51.02.728,Boat,2022.1.1,60.16738566667994,
negative,negative,2,j,l,,,,,,,,,4,2,74,9,,,,,,,,,,,,,,,,,,,,,,,,main,2,2,2,negative,negative,j,j,1,0.6977081000222825,320.87720449999324,321.8842808000045,321.85032100000535,None,320.87720449999324,None,320.87720449999324,None,320.87720449999324,None,322.5556519299833,None,322.5556519299833,None,322.5556519299833,None,,,,,,,,,,,106,29,Female,2022-04-29_18h51.02.728,Boat,2022.1.1,60.16738566667994,
neutral,positive,2,k,k,,,,,,,,,4,3,75,13,,,,,,,,,,,,,,,,,,,,,,,,main,2,2,2,positive,neutral,k,k,1,0.8905615000112448,322.57693139999174,323.5838904999837,323.55001809998066,None,322.57693139999174,None,322.57693139999174,None,322.57693139999174,None,324.45034652997566,None,324.45034652997566,None,324.45034652997566,None,,,,,,,,,,,106,29,Female,2022-04-29_18h51.02.728,Boat,2022.1.1,60.16738566667994,
neutral,neutral,1,k,k,,,,,,,,,4,4,76,1,,,,,,,,,,,,,,,,,,,,,,,,main,2,2,1,neutral,neutral,k,k,1,0.552913300023647,324.4676985999977,325.4843488000042,325.445198100002,None,324.4676985999977,None,324.4676985999977,None,324.4676985999977,None,326.00718712998497,None,326.00718712998497,None,326.00718712998497,None,,,,,,,,,,,106,29,Female,2022-04-29_18h51.02.728,Boat,2022.1.1,60.16738566667994,
neutral,negative,1,k,k,,,,,,,,,4,5,77,7,,,,,,,,,,,,,,,,,,,,,,,,main,1,1,1,negative,neutral,k,k,1,0.580990299989935,326.0233435999835,327.03393829998095,327.01731719999225,None,326.0233435999835,None,326.0233435999835,None,326.0233435999835,None,327.58800452999714,None,327.58800452999714,None,327.58800452999714,None,,,,,,,,,,,106,29,Female,2022-04-29_18h51.02.728,Boat,2022.1.1,60.16738566667994,
positive,positive,1,l,j,,,,,,,,,4,6,78,2,,,,,,,,,,,,,,,,,,,,,,,,main,2,2,1,positive,positive,l,l,1,0.8403480999986641,327.6112150999834,328.61887969999225,328.58384059998207,None,327.6112150999834,None,327.6112150999834,None,327.6112150999834,None,329.43331692999055,None,329.43331692999055,None,329.43331692999055,None,,,,,,,,,,,106,29,Female,2022-04-29_18h51.02.728,Boat,2022.1.1,60.16738566667994,
negative,neutral,1,j,l,,,,,,,,,4,7,79,3,,,,,,,,,,,,,,,,,,,,,,,,main,2,2,1,neutral,negative,j,j,1,0.8201360999955796,329.4517156999791,330.46717550000176,330.4313013999781,None,329.4517156999791,None,329.4517156999791,None,329.4517156999791,None,331.2573987299955,None,331.2573987299955,None,331.2573987299955,None,,,,,,,,,,,106,29,Female,2022-04-29_18h51.02.728,Boat,2022.1.1,60.16738566667994,
neutral,negative,2,k,k,,,,,,,,,4,8,80,16,,,,,,,,,,,,,,,,,,,,,,,,main,2,2,2,negative,neutral,k,k,1,0.5973715000145603,331.27670220000437,332.29209979998996,332.25059359997977,None,331.27670220000437,None,331.27670220000437,None,331.27670220000437,None,332.85711872999383,None,332.85711872999383,None,332.85711872999383,None,,,,,,,,,,,106,29,Female,2022-04-29_18h51.02.728,Boat,2022.1.1,60.16738566667994,
positive,negative,1,l,j,,,,,,,,,4,9,81,5,,,,,,,,,,,,,,,,,,,,,,,,main,2,2,1,negative,positive,l,l,1,0.771255800005747,332.87687539999024,333.88388300000224,333.8495228999818,None,332.87687539999024,None,332.87687539999024,None,332.87687539999024,None,334.6312510299875,None,334.6312510299875,None,334.6312510299875,None,,,,,,,,,,,106,29,Female,2022-04-29_18h51.02.728,Boat,2022.1.1,60.16738566667994,
negative,negative,1,j,l,,,,,,,,,4,10,82,0,,,,,,,,,,,,,,,,,,,,,,,,main,2,2,1,negative,negative,j,j,1,0.8836359000124503,334.64882439997746,335.6531747999834,335.61743779998505,None,334.64882439997746,None,334.64882439997746,None,334.64882439997746,None,336.5173641300033,None,336.5173641300033,None,336.5173641300033,None,,,,,,,,,,,106,29,Female,2022-04-29_18h51.02.728,Boat,2022.1.1,60.16738566667994,
neutral,positive,1,k,k,,,,,,,,,4,11,83,4,,,,,,,,,,,,,,,,,,,,,,,,main,1,1,1,positive,neutral,k,k,1,0.6311428000044543,336.53406399997766,337.54809579998255,337.5055134999857,None,336.53406399997766,None,336.53406399997766,None,336.53406399997766,None,338.15131352998725,None,338.15131352998725,None,338.15131352998725,None,,,,,,,,,,,106,29,Female,2022-04-29_18h51.02.728,Boat,2022.1.1,60.16738566667994,
neutral,neutral,2,k,k,,,,,,,,,4,12,84,10,,,,,,,,,,,,,,,,,,,,,,,,main,1,1,2,neutral,neutral,k,k,1,0.6054351000057068,338.1680076000048,339.18395189999137,339.14541830000235,None,338.1680076000048,None,338.1680076000048,None,338.1680076000048,None,339.7607544299943,None,339.7607544299943,None,339.7607544299943,None,,,,,,,,,,,106,29,Female,2022-04-29_18h51.02.728,Boat,2022.1.1,60.16738566667994,
negative,neutral,2,j,l,,,,,,,,,4,13,85,12,,,,,,,,,,,,,,,,,,,,,,,,main,1,1,2,neutral,negative,j,j,1,0.747156500001438,339.7803495999833,340.78419049998047,340.7650578999892,None,339.7803495999833,None,339.7803495999833,None,339.7803495999833,None,341.5102951299894,None,341.5102951299894,None,341.5102951299894,None,,,,,,,,,,,106,29,Female,2022-04-29_18h51.02.728,Boat,2022.1.1,60.16738566667994,
positive,neutral,1,l,j,,,,,,,,,4,14,86,8,,,,,,,,,,,,,,,,,,,,,,,,main,1,1,1,neutral,positive,l,l,1,0.8558132000034675,341.5303946999775,342.53806759999134,342.5012130999821,None,341.5303946999775,None,341.5303946999775,None,341.5303946999775,None,343.3679878299852,None,343.3679878299852,None,343.3679878299852,None,,,,,,,,,,,106,29,Female,2022-04-29_18h51.02.728,Boat,2022.1.1,60.16738566667994,
positive,negative,2,l,j,,,,,,,,,4,15,87,14,,,,,,,,,,,,,,,,,,,,,,,,main,1,1,2,negative,positive,l,l,1,0.7263954999798443,343.384067099978,344.39940419999766,344.37934650000534,None,343.384067099978,None,343.384067099978,None,343.384067099978,None,345.0982168299932,None,345.0982168299932,None,345.0982168299932,None,,,,,,,,,,,106,29,Female,2022-04-29_18h51.02.728,Boat,2022.1.1,60.16738566667994,
negative,positive,2,j,l,,,,,,,,,4,16,88,15,,,,,,,,,,,,,,,,,,,,,,,,main,2,2,2,positive,negative,j,j,1,0.8045352000044659,345.1163147999905,346.1176534999977,346.1007233999844,None,345.1163147999905,None,345.1163147999905,None,345.1163147999905,None,346.9035355299973,None,346.9035355299973,None,346.9035355299973,None,,,,,,,,,,,106,29,Female,2022-04-29_18h51.02.728,Boat,2022.1.1,60.16738566667994,
positive,neutral,2,l,j,,,,,,,,,4,17,89,17,,,,,,,,,,,,,,,,,,,,,,,,main,2,2,2,neutral,positive,l,l,1,1.3752711999986786,346.92180969999754,347.93133930000477,347.912012899993,None,346.92180969999754,None,346.92180969999754,None,346.92180969999754,None,349.28314573000245,None,349.28314573000245,None,349.28314573000245,None,,,,,,,,,,,106,29,Female,2022-04-29_18h51.02.728,Boat,2022.1.1,60.16738566667994,
neutral,positive,2,k,k,,,,,,,,,5,0,90,13,,,,,,,,,,,,,,,,,,,,,,,,main,2,2,2,positive,neutral,k,k,1,0.6893954000261147,349.30001300000004,350.31675879997783,350.2959939999855,None,349.30001300000004,None,349.30001300000004,None,349.30001300000004,None,350.9743358299864,None,350.9743358299864,None,350.9743358299864,None,,,,,,,,,,,106,29,Female,2022-04-29_18h51.02.728,Boat,2022.1.1,60.16738566667994,
negative,neutral,1,j,l,,,,,,,,,5,1,91,3,,,,,,,,,,,,,,,,,,,,,,,,main,2,2,1,neutral,negative,j,j,1,0.7244761000038125,350.9942890999955,352.01622119999956,351.9761901999882,None,350.9942890999955,None,350.9942890999955,None,350.9942890999955,None,352.70045862998523,None,352.70045862998523,None,352.70045862998523,None,,,,,,,,,,,106,29,Female,2022-04-29_18h51.02.728,Boat,2022.1.1,60.16738566667994,
positive,neutral,1,l,j,,,,,,,,,5,2,92,8,,,,,,,,,,,,,,,,,,,,,,,,main,2,2,1,neutral,positive,l,l,1,0.883064599998761,352.7200399999856,353.74287249997724,353.70115290000103,None,352.7200399999856,None,352.7200399999856,None,352.7200399999856,None,354.5872797299788,None,354.5872797299788,None,354.5872797299788,None,,,,,,,,,,,106,29,Female,2022-04-29_18h51.02.728,Boat,2022.1.1,60.16738566667994,
negative,neutral,2,j,l,,,,,,,,,5,3,93,12,,,,,,,,,,,,,,,,,,,,,,,,main,2,2,2,neutral,negative,j,j,1,0.7564026000036392,354.60564219998196,355.6195123999787,355.58568279998144,None,354.60564219998196,None,354.60564219998196,None,354.60564219998196,None,356.34824382999506,None,356.34824382999506,None,356.34824382999506,None,,,,,,,,,,,106,29,Female,2022-04-29_18h51.02.728,Boat,2022.1.1,60.16738566667994,
positive,neutral,2,l,j,,,,,,,,,5,4,94,17,,,,,,,,,,,,,,,,,,,,,,,,main,2,2,2,neutral,positive,l,l,1,0.7380839000106789,356.3665572000027,357.36749239999335,357.35100329999113,None,356.3665572000027,None,356.3665572000027,None,356.3665572000027,None,358.0871668299922,None,358.0871668299922,None,358.0871668299922,None,,,,,,,,,,,106,29,Female,2022-04-29_18h51.02.728,Boat,2022.1.1,60.16738566667994,
neutral,neutral,2,k,k,,,,,,,,,5,5,95,10,,,,,,,,,,,,,,,,,,,,,,,,main,1,1,2,neutral,neutral,k,k,1,0.593451599997934,358.1074626999907,359.12596309999935,359.084714800003,None,358.1074626999907,None,358.1074626999907,None,358.1074626999907,None,359.6844989299978,None,359.6844989299978,None,359.6844989299978,None,,,,,,,,,,,106,29,Female,2022-04-29_18h51.02.728,Boat,2022.1.1,60.16738566667994,
positive,positive,2,l,j,,,,,,,,,5,6,96,11,,,,,,,,,,,,,,,,,,,,,,,,main,2,2,2,positive,positive,l,l,1,0.6929105999879539,359.7031078999862,360.7198769999959,360.6843775000016,None,359.7031078999862,None,359.7031078999862,None,359.7031078999862,None,361.3812323299906,None,361.3812323299906,None,361.3812323299906,None,,,,,,,,,,,106,29,Female,2022-04-29_18h51.02.728,Boat,2022.1.1,60.16738566667994,
negative,positive,2,j,l,,,,,,,,,5,7,97,15,,,,,,,,,,,,,,,,,,,,,,,,main,2,2,2,positive,negative,j,j,1,0.7487876999948639,361.39992189998156,362.40104609998525,362.3846198999963,None,361.39992189998156,None,361.39992189998156,None,361.39992189998156,None,363.13310673000234,None,363.13310673000234,None,363.13310673000234,None,,,,,,,,,,,106,29,Female,2022-04-29_18h51.02.728,Boat,2022.1.1,60.16738566667994,
negative,negative,2,j,l,,,,,,,,,5,8,98,9,,,,,,,,,,,,,,,,,,,,,,,,main,1,1,2,negative,negative,j,j,1,0.690831599989906,363.1497114999802,364.15954920000513,364.1344184000045,None,363.1497114999802,None,363.1497114999802,None,363.1497114999802,None,364.8275365299749,None,364.8275365299749,None,364.8275365299749,None,,,,,,,,,,,106,29,Female,2022-04-29_18h51.02.728,Boat,2022.1.1,60.16738566667994,
neutral,negative,1,k,k,,,,,,,,,5,9,99,7,,,,,,,,,,,,,,,,,,,,,,,,main,1,1,1,negative,neutral,k,k,1,0.5924577999976464,364.84716629999457,365.8625808999932,365.81779109998024,None,364.84716629999457,None,364.84716629999457,None,364.84716629999457,None,366.4210100299941,None,366.4210100299941,None,366.4210100299941,None,,,,,,,,,,,106,29,Female,2022-04-29_18h51.02.728,Boat,2022.1.1,60.16738566667994,
negative,positive,1,j,l,,,,,,,,,5,10,100,6,,,,,,,,,,,,,,,,,,,,,,,,main,1,1,1,positive,negative,j,j,1,0.7831732000049669,366.4380359999777,367.45142319999286,367.4128500999941,None,366.4380359999777,None,366.4380359999777,None,366.4380359999777,None,368.20868243000297,None,368.20868243000297,None,368.20868243000297,None,,,,,,,,,,,106,29,Female,2022-04-29_18h51.02.728,Boat,2022.1.1,60.16738566667994,
positive,negative,1,l,j,,,,,,,,,5,11,101,5,,,,,,,,,,,,,,,,,,,,,,,,main,2,2,1,negative,positive,l,l,1,1.124276499991538,368.22574379999423,369.2427335999964,369.2162165000045,None,368.22574379999423,None,368.22574379999423,None,368.22574379999423,None,370.3343146299856,None,370.3343146299856,None,370.3343146299856,None,,,,,,,,,,,106,29,Female,2022-04-29_18h51.02.728,Boat,2022.1.1,60.16738566667994,
positive,negative,2,l,j,,,,,,,,,5,12,102,14,,,,,,,,,,,,,,,,,,,,,,,,main,1,1,2,negative,positive,l,l,1,0.6684799999929965,370.3554546999803,371.3680450999818,371.3323526000022,None,370.3554546999803,None,370.3554546999803,None,370.3554546999803,None,372.0072116299969,None,372.0072116299969,None,372.0072116299969,None,,,,,,,,,,,106,29,Female,2022-04-29_18h51.02.728,Boat,2022.1.1,60.16738566667994,
negative,negative,1,j,l,,,,,,,,,5,13,103,0,,,,,,,,,,,,,,,,,,,,,,,,main,1,1,1,negative,negative,j,j,1,0.7975043000187725,372.0309262999799,373.04576959999395,373.0070303999819,None,372.0309262999799,None,372.0309262999799,None,372.0309262999799,None,373.8084953299811,None,373.8084953299811,None,373.8084953299811,None,,,,,,,,,,,106,29,Female,2022-04-29_18h51.02.728,Boat,2022.1.1,60.16738566667994,
neutral,positive,1,k,k,,,,,,,,,5,14,104,4,,,,,,,,,,,,,,,,,,,,,,,,main,2,2,1,positive,neutral,k,k,1,0.5620843000069726,373.8301614999946,374.8431533999974,374.80152519998956,None,373.8301614999946,None,373.8301614999946,None,373.8301614999946,None,375.37091832997686,None,375.37091832997686,None,375.37091832997686,None,,,,,,,,,,,106,29,Female,2022-04-29_18h51.02.728,Boat,2022.1.1,60.16738566667994,
positive,positive,1,l,j,,,,,,,,,5,15,105,2,,,,,,,,,,,,,,,,,,,,,,,,main,1,1,1,positive,positive,l,l,1,0.729891700000735,375.3932111999893,376.4096436999971,376.3682461999997,None,375.3932111999893,None,375.3932111999893,None,375.3932111999893,None,377.1059902299865,None,377.1059902299865,None,377.1059902299865,None,,,,,,,,,,,106,29,Female,2022-04-29_18h51.02.728,Boat,2022.1.1,60.16738566667994,
neutral,negative,2,k,k,,,,,,,,,5,16,106,16,,,,,,,,,,,,,,,,,,,,,,,,main,2,2,2,negative,neutral,k,k,1,0.6944959000102244,377.12567229999695,378.1434186999977,378.1020503999898,None,377.12567229999695,None,377.12567229999695,None,377.12567229999695,None,378.8052250299923,None,378.8052250299923,None,378.8052250299923,None,,,,,,,,,,,106,29,Female,2022-04-29_18h51.02.728,Boat,2022.1.1,60.16738566667994,
neutral,neutral,1,k,k,,,,,,,,,5,17,107,1,,,,,,,,,,,,,,,,,,,,,,,,main,2,2,1,neutral,neutral,k,k,1,0.576870000018971,378.82127640000544,379.82408869999927,379.8051974999835,None,378.82127640000544,None,378.82127640000544,None,378.82127640000544,None,380.38461582999736,None,380.38461582999736,None,380.38461582999736,None,,,,,,,,,,,106,29,Female,2022-04-29_18h51.02.728,Boat,2022.1.1,60.16738566667994,
negative,negative,2,j,l,,,,,,,,,6,0,108,9,,,,,,,,,,,,,,,,,,,,,,,,main,2,2,2,negative,negative,j,j,1,0.7488555000163615,380.40308049999294,381.41932869999437,381.3849304000032,None,380.40308049999294,None,380.40308049999294,None,380.40308049999294,None,382.1364224299876,None,382.1364224299876,None,382.1364224299876,None,,,,,,,,,,,106,29,Female,2022-04-29_18h51.02.728,Boat,2022.1.1,60.16738566667994,
negative,positive,2,j,l,,,,,,,,,6,1,109,15,,,,,,,,,,,,,,,,,,,,,,,,main,2,2,2,positive,negative,j,j,1,0.7511058000090998,382.1545322999882,383.17319329999737,383.13539630000014,None,382.1545322999882,None,382.1545322999882,None,382.1545322999882,None,383.8904295299988,None,383.8904295299988,None,383.8904295299988,None,,,,,,,,,,,106,29,Female,2022-04-29_18h51.02.728,Boat,2022.1.1,60.16738566667994,
neutral,negative,1,k,k,,,,,,,,,6,2,110,7,,,,,,,,,,,,,,,,,,,,,,,,main,2,2,1,negative,neutral,k,k,1,0.6751483000116423,383.9064121999836,384.9129786999838,384.8929189000046,None,383.9064121999836,None,383.9064121999836,None,383.9064121999836,None,385.5682876299805,None,385.5682876299805,None,385.5682876299805,None,,,,,,,,,,,106,29,Female,2022-04-29_18h51.02.728,Boat,2022.1.1,60.16738566667994,
neutral,neutral,1,k,k,,,,,,,,,6,3,111,1,,,,,,,,,,,,,,,,,,,,,,,,main,2,2,1,neutral,neutral,k,k,1,0.5017130000051111,385.58572370000184,386.59340079998947,386.5682100999984,None,385.58572370000184,None,385.58572370000184,None,385.58572370000184,None,387.072232429983,None,387.072232429983,None,387.072232429983,None,,,,,,,,,,,106,29,Female,2022-04-29_18h51.02.728,Boat,2022.1.1,60.16738566667994,
neutral,neutral,2,k,k,,,,,,,,,6,4,112,10,,,,,,,,,,,,,,,,,,,,,,,,main,1,1,2,neutral,neutral,k,k,1,0.5761045000108425,387.0899666000041,388.1018793999974,388.0631780999829,None,387.0899666000041,None,387.0899666000041,None,387.0899666000041,None,388.6520060299925,None,388.6520060299925,None,388.6520060299925,None,,,,,,,,,,,106,29,Female,2022-04-29_18h51.02.728,Boat,2022.1.1,60.16738566667994,
negative,neutral,2,j,l,,,,,,,,,6,5,113,12,,,,,,,,,,,,,,,,,,,,,,,,main,1,1,2,neutral,negative,j,j,1,0.7653700000082608,388.67048469997826,389.69339959998615,389.6517251000041,None,388.67048469997826,None,388.67048469997826,None,388.67048469997826,None,390.41863892998373,None,390.41863892998373,None,390.41863892998373,None,,,,,,,,,,,106,29,Female,2022-04-29_18h51.02.728,Boat,2022.1.1,60.16738566667994,
positive,negative,2,l,j,,,,,,,,,6,6,114,14,,,,,,,,,,,,,,,,,,,,,,,,main,2,2,2,negative,positive,l,l,1,0.8253506000037305,390.43767429998843,391.45991199999116,391.41323259999626,None,390.43767429998843,None,390.43767429998843,None,390.43767429998843,None,392.248997029991,None,392.248997029991,None,392.248997029991,None,,,,,,,,,,,106,29,Female,2022-04-29_18h51.02.728,Boat,2022.1.1,60.16738566667994,
neutral,positive,2,k,k,,,,,,,,,6,7,115,13,,,,,,,,,,,,,,,,,,,,,,,,main,2,2,2,positive,neutral,k,k,1,0.5818005000182893,392.266048999998,393.26874539998244,393.25189119999413,None,392.266048999998,None,392.266048999998,None,392.266048999998,None,393.83331272998186,None,393.83331272998186,None,393.83331272998186,None,,,,,,,,,,,106,29,Female,2022-04-29_18h51.02.728,Boat,2022.1.1,60.16738566667994,
positive,positive,1,l,j,,,,,,,,,6,8,116,2,,,,,,,,,,,,,,,,,,,,,,,,main,1,1,1,positive,positive,l,l,1,0.776998299988918,393.85360400000354,394.8684560999973,394.8300426999922,None,393.85360400000354,None,393.85360400000354,None,393.85360400000354,None,395.6140919299767,None,395.6140919299767,None,395.6140919299767,None,,,,,,,,,,,106,29,Female,2022-04-29_18h51.02.728,Boat,2022.1.1,60.16738566667994,
positive,neutral,2,l,j,,,,,,,,,6,9,117,17,,,,,,,,,,,,,,,,,,,,,,,,main,2,2,2,neutral,positive,l,l,1,0.6684537999972235,395.63079899997683,396.6351968999952,396.60173569998005,None,395.63079899997683,None,395.63079899997683,None,395.63079899997683,None,397.28436462999963,None,397.28436462999963,None,397.28436462999963,None,,,,,,,,,,,106,29,Female,2022-04-29_18h51.02.728,Boat,2022.1.1,60.16738566667994,
positive,neutral,1,l,j,,,,,,,,,6,10,118,8,,,,,,,,,,,,,,,,,,,,,,,,main,1,1,1,neutral,positive,l,l,1,0.6140252999903169,397.30457690000185,398.31345639997744,398.29355129998294,None,397.30457690000185,None,397.30457690000185,None,397.30457690000185,None,398.90249982999813,None,398.90249982999813,None,398.90249982999813,None,,,,,,,,,,,106,29,Female,2022-04-29_18h51.02.728,Boat,2022.1.1,60.16738566667994,
negative,neutral,1,j,l,,,,,,,,,6,11,119,3,,,,,,,,,,,,,,,,,,,,,,,,main,2,2,1,neutral,negative,j,l,0,0.5743268999794964,398.92097479998483,399.9350682999939,399.9145477999991,None,398.92097479998483,None,398.92097479998483,None,398.92097479998483,None,400.4866969999857,None,400.4866969999857,None,400.4866969999857,None,,,,,,,,,,,106,29,Female,2022-04-29_18h51.02.728,Boat,2022.1.1,60.16738566667994,
negative,negative,1,j,l,,,,,,,,,6,12,120,0,,,,,,,,,,,,,,,,,,,,,,,,main,1,1,1,negative,negative,j,j,1,0.7916706000105478,401.5050332999963,402.5272965999902,402.48516319997725,None,401.5050332999963,None,401.5050332999963,None,401.5050332999963,None,403.2832602300012,None,403.2832602300012,None,403.2832602300012,None,,,,,,,,,,,106,29,Female,2022-04-29_18h51.02.728,Boat,2022.1.1,60.16738566667994,
neutral,positive,1,k,k,,,,,,,,,6,13,121,4,,,,,,,,,,,,,,,,,,,,,,,,main,1,1,1,positive,neutral,k,k,1,0.6996567999885883,403.30074750000495,404.31872690000455,404.2801713999943,None,403.30074750000495,None,403.30074750000495,None,403.30074750000495,None,404.9856866299786,None,404.9856866299786,None,404.9856866299786,None,,,,,,,,,,,106,29,Female,2022-04-29_18h51.02.728,Boat,2022.1.1,60.16738566667994,
negative,positive,1,j,l,,,,,,,,,6,14,122,6,,,,,,,,,,,,,,,,,,,,,,,,main,1,1,1,positive,negative,j,j,1,0.7176053000148386,405.0045820999949,406.0271734999842,405.9852738000045,None,405.0045820999949,None,405.0045820999949,None,405.0045820999949,None,406.7084243299876,None,406.7084243299876,None,406.7084243299876,None,,,,,,,,,,,106,29,Female,2022-04-29_18h51.02.728,Boat,2022.1.1,60.16738566667994,
positive,positive,2,l,j,,,,,,,,,6,15,123,11,,,,,,,,,,,,,,,,,,,,,,,,main,2,2,2,positive,positive,l,l,1,0.8256587999931071,406.72722289999365,407.7437825999805,407.7165296000021,None,406.72722289999365,None,406.72722289999365,None,406.72722289999365,None,408.5358898300008,None,408.5358898300008,None,408.5358898300008,None,,,,,,,,,,,106,29,Female,2022-04-29_18h51.02.728,Boat,2022.1.1,60.16738566667994,
positive,negative,1,l,j,,,,,,,,,6,16,124,5,,,,,,,,,,,,,,,,,,,,,,,,main,1,1,1,negative,positive,l,j,0,0.7529425999964587,408.55318059999263,409.56617689999985,409.54694959998596,None,408.55318059999263,None,408.55318059999263,None,408.55318059999263,None,410.2977583000029,None,410.2977583000029,None,410.2977583000029,None,,,,,,,,,,,106,29,Female,2022-04-29_18h51.02.728,Boat,2022.1.1,60.16738566667994,
neutral,negative,2,k,k,,,,,,,,,6,17,125,16,,,,,,,,,,,,,,,,,,,,,,,,main,2,2,2,negative,neutral,k,k,1,0.6817638000065926,411.30506610000157,412.3134805999871,412.2936155999778,None,411.30506610000157,None,411.30506610000157,None,411.30506610000157,None,412.97101202999767,None,412.97101202999767,None,412.97101202999767,None,,,,,,,,,,,106,29,Female,2022-04-29_18h51.02.728,Boat,2022.1.1,60.16738566667994,
positive,neutral,2,l,j,,,,,,,,,7,0,126,17,,,,,,,,,,,,,,,,,,,,,,,,main,1,1,2,neutral,positive,l,l,1,0.7710987000027671,412.99190169997746,414.00290589997894,413.98307919999934,None,412.99190169997746,None,412.99190169997746,None,412.99190169997746,None,414.74719022999926,None,414.74719022999926,None,414.74719022999926,None,,,,,,,,,,,106,29,Female,2022-04-29_18h51.02.728,Boat,2022.1.1,60.16738566667994,
positive,neutral,1,l,j,,,,,,,,,7,1,127,8,,,,,,,,,,,,,,,,,,,,,,,,main,2,2,1,neutral,positive,l,l,1,1.3945530999917537,414.76760309998645,415.7759528000024,415.7400919999927,None,414.76760309998645,None,414.76760309998645,None,414.76760309998645,None,417.1447045299836,None,417.1447045299836,None,417.1447045299836,None,,,,,,,,,,,106,29,Female,2022-04-29_18h51.02.728,Boat,2022.1.1,60.16738566667994,
negative,negative,2,j,l,,,,,,,,,7,2,128,9,,,,,,,,,,,,,,,,,,,,,,,,main,1,1,2,negative,negative,j,j,1,1.0449555999948643,417.1651809999894,418.1693099999975,418.1353541999997,None,417.1651809999894,None,417.1651809999894,None,417.1651809999894,None,419.1911787299876,None,419.1911787299876,None,419.1911787299876,None,,,,,,,,,,,106,29,Female,2022-04-29_18h51.02.728,Boat,2022.1.1,60.16738566667994,
positive,positive,2,l,j,,,,,,,,,7,3,129,11,,,,,,,,,,,,,,,,,,,,,,,,main,2,2,2,positive,positive,l,l,1,0.6586899000103585,419.20997799999896,420.2188164999825,420.1853443,None,419.20997799999896,None,419.20997799999896,None,419.20997799999896,None,420.85245232999733,None,420.85245232999733,None,420.85245232999733,None,,,,,,,,,,,106,29,Female,2022-04-29_18h51.02.728,Boat,2022.1.1,60.16738566667994,
neutral,positive,1,k,k,,,,,,,,,7,4,130,4,,,,,,,,,,,,,,,,,,,,,,,,main,1,1,1,positive,neutral,k,k,1,0.7989747999818064,420.87103829998523,421.8733924999833,421.85542539999005,None,420.87103829998523,None,420.87103829998523,None,420.87103829998523,None,422.6543340299948,None,422.6543340299948,None,422.6543340299948,None,,,,,,,,,,,106,29,Female,2022-04-29_18h51.02.728,Boat,2022.1.1,60.16738566667994,
negative,negative,1,j,l,,,,,,,,,7,5,131,0,,,,,,,,,,,,,,,,,,,,,,,,main,1,1,1,negative,negative,j,l,0,0.7491621999943163,422.6729426999809,423.6857043999771,423.65220159999444,None,422.6729426999809,None,422.6729426999809,None,422.6729426999809,None,424.4151128999947,None,424.4151128999947,None,424.4151128999947,None,,,,,,,,,,,106,29,Female,2022-04-29_18h51.02.728,Boat,2022.1.1,60.16738566667994,
negative,neutral,1,j,l,,,,,,,,,7,6,132,3,,,,,,,,,,,,,,,,,,,,,,,,main,1,1,1,neutral,negative,j,j,1,0.8168592000147328,425.4220658999984,426.43589649998466,426.4168805999798,None,425.4220658999984,None,425.4220658999984,None,425.4220658999984,None,427.2255177299929,None,427.2255177299929,None,427.2255177299929,None,,,,,,,,,,,106,29,Female,2022-04-29_18h51.02.728,Boat,2022.1.1,60.16738566667994,
negative,positive,1,j,l,,,,,,,,,7,7,133,6,,,,,,,,,,,,,,,,,,,,,,,,main,2,2,1,positive,negative,j,j,1,0.7391393999860156,427.2449348999944,428.25264900000184,428.2192865999823,None,427.2449348999944,None,427.2449348999944,None,427.2449348999944,None,428.9670161299844,None,428.9670161299844,None,428.9670161299844,None,,,,,,,,,,,106,29,Female,2022-04-29_18h51.02.728,Boat,2022.1.1,60.16738566667994,
positive,positive,1,l,j,,,,,,,,,7,8,134,2,,,,,,,,,,,,,,,,,,,,,,,,main,1,1,1,positive,positive,l,l,1,1.7353674999903888,428.9856972999987,429.9858396000054,429.9688513999863,None,428.9856972999987,None,428.9856972999987,None,428.9856972999987,None,431.712158099981,None,431.712158099981,None,431.712158099981,None,,,,,,,,,,,106,29,Female,2022-04-29_18h51.02.728,Boat,2022.1.1,60.16738566667994,
positive,negative,1,l,j,,,,,,,,,7,9,135,5,,,,,,,,,,,,,,,,,,,,,,,,main,1,1,1,negative,positive,l,l,1,0.6824472000007518,432.72337069999776,433.7306826999993,433.71075699999346,None,432.72337069999776,None,432.72337069999776,None,432.72337069999776,None,434.38946752997873,None,434.38946752997873,None,434.38946752997873,None,,,,,,,,,,,106,29,Female,2022-04-29_18h51.02.728,Boat,2022.1.1,60.16738566667994,
positive,negative,2,l,j,,,,,,,,,7,10,136,14,,,,,,,,,,,,,,,,,,,,,,,,main,2,2,2,negative,positive,l,l,1,0.7486463999957778,434.406539699994,435.419213199988,435.3807627999922,None,434.406539699994,None,434.406539699994,None,434.406539699994,None,436.142820129983,None,436.142820129983,None,436.142820129983,None,,,,,,,,,,,106,29,Female,2022-04-29_18h51.02.728,Boat,2022.1.1,60.16738566667994,
neutral,positive,2,k,k,,,,,,,,,7,11,137,13,,,,,,,,,,,,,,,,,,,,,,,,main,2,2,2,positive,neutral,k,k,1,0.6979200000059791,436.1601212999958,437.1695528999844,437.1356957999815,None,436.1601212999958,None,436.1601212999958,None,436.1601212999958,None,437.8413644299988,None,437.8413644299988,None,437.8413644299988,None,,,,,,,,,,,106,29,Female,2022-04-29_18h51.02.728,Boat,2022.1.1,60.16738566667994,
neutral,neutral,2,k,k,,,,,,,,,7,12,138,10,,,,,,,,,,,,,,,,,,,,,,,,main,2,2,2,neutral,neutral,k,k,1,0.6564465999836102,437.8584922000009,438.8695948999957,438.8335610999784,None,437.8584922000009,None,437.8584922000009,None,437.8584922000009,None,439.5015880299878,None,439.5015880299878,None,439.5015880299878,None,,,,,,,,,,,106,29,Female,2022-04-29_18h51.02.728,Boat,2022.1.1,60.16738566667994,
neutral,negative,2,k,k,,,,,,,,,7,13,139,16,,,,,,,,,,,,,,,,,,,,,,,,main,1,1,2,negative,neutral,k,k,1,0.7374502999882679,439.51852699997835,440.5350309999776,440.5143943000003,None,439.51852699997835,None,439.51852699997835,None,439.51852699997835,None,441.24293812998513,None,441.24293812998513,None,441.24293812998513,None,,,,,,,,,,,106,29,Female,2022-04-29_18h51.02.728,Boat,2022.1.1,60.16738566667994,
negative,positive,2,j,l,,,,,,,,,7,14,140,15,,,,,,,,,,,,,,,,,,,,,,,,main,2,2,2,positive,negative,j,j,1,0.9415045000205282,441.25945630000206,442.2713236999989,442.23597219999647,None,441.25945630000206,None,441.25945630000206,None,441.25945630000206,None,443.18643092998246,None,443.18643092998246,None,443.18643092998246,None,,,,,,,,,,,106,29,Female,2022-04-29_18h51.02.728,Boat,2022.1.1,60.16738566667994,
negative,neutral,2,j,l,,,,,,,,,7,15,141,12,,,,,,,,,,,,,,,,,,,,,,,,main,1,1,2,neutral,negative,j,j,1,0.7949328999966383,443.2024975999957,444.2115377000009,444.1861934000044,None,443.2024975999957,None,443.2024975999957,None,443.2024975999957,None,444.9848647299776,None,444.9848647299776,None,444.9848647299776,None,,,,,,,,,,,106,29,Female,2022-04-29_18h51.02.728,Boat,2022.1.1,60.16738566667994,
neutral,neutral,1,k,k,,,,,,,,,7,16,142,1,,,,,,,,,,,,,,,,,,,,,,,,main,1,1,1,neutral,neutral,k,k,1,0.67410520001431,445.00313619998633,446.0194483999803,445.9845446999825,None,445.00313619998633,None,445.00313619998633,None,445.00313619998633,None,446.662982429986,None,446.662982429986,None,446.662982429986,None,,,,,,,,,,,106,29,Female,2022-04-29_18h51.02.728,Boat,2022.1.1,60.16738566667994,
neutral,negative,1,k,k,,,,,,,,,7,17,143,7,,,,,,,,,,,,,,,,,,,,,,,,main,1,1,1,negative,neutral,k,k,1,0.6046337000152562,446.6842850999965,447.6863575000025,447.6527829999977,None,446.6842850999965,None,446.6842850999965,None,446.6842850999965,None,448.26991522998725,None,448.26991522998725,None,448.26991522998725,None,,,,,,,,,,,106,29,Female,2022-04-29_18h51.02.728,Boat,2022.1.1,60.16738566667994,
neutral,neutral,2,k,k,,,,,,,,,8,0,144,10,,,,,,,,,,,,,,,,,,,,,,,,main,2,2,2,neutral,neutral,k,k,1,0.6191391000174917,448.28743369999574,449.30371479998576,449.2697219999973,None,448.28743369999574,None,448.28743369999574,None,448.28743369999574,None,449.8930357299949,None,449.8930357299949,None,449.8930357299949,None,,,,,,,,,,,106,29,Female,2022-04-29_18h51.02.728,Boat,2022.1.1,60.16738566667994,
neutral,negative,2,k,k,,,,,,,,,8,1,145,16,,,,,,,,,,,,,,,,,,,,,,,,main,1,1,2,negative,neutral,k,k,1,0.6902609999815468,449.9138410000014,450.9192747999914,450.8856095999945,None,449.9138410000014,None,449.9138410000014,None,449.9138410000014,None,451.58666333,None,451.58666333,None,451.58666333,None,,,,,,,,,,,106,29,Female,2022-04-29_18h51.02.728,Boat,2022.1.1,60.16738566667994,
positive,neutral,2,l,j,,,,,,,,,8,2,146,17,,,,,,,,,,,,,,,,,,,,,,,,main,2,2,2,neutral,positive,l,l,1,0.782217900006799,451.6031227999774,452.6029678999912,452.58651769999415,None,451.6031227999774,None,451.6031227999774,None,451.6031227999774,None,453.37101122998575,None,453.37101122998575,None,453.37101122998575,None,,,,,,,,,,,106,29,Female,2022-04-29_18h51.02.728,Boat,2022.1.1,60.16738566667994,
positive,positive,1,l,j,,,,,,,,,8,3,147,2,,,,,,,,,,,,,,,,,,,,,,,,main,2,2,1,positive,positive,l,l,1,0.9099546000070404,453.38838269998087,454.403539299994,454.36426199998823,None,453.38838269998087,None,453.38838269998087,None,453.38838269998087,None,455.28459352999636,None,455.28459352999636,None,455.28459352999636,None,,,,,,,,,,,106,29,Female,2022-04-29_18h51.02.728,Boat,2022.1.1,60.16738566667994,
neutral,neutral,1,k,k,,,,,,,,,8,4,148,1,,,,,,,,,,,,,,,,,,,,,,,,main,1,1,1,neutral,neutral,k,k,1,0.6844473999808542,455.30249159998493,456.3198793999909,456.28092960000504,None,455.30249159998493,None,455.30249159998493,None,455.30249159998493,None,456.9724696299789,None,456.9724696299789,None,456.9724696299789,None,,,,,,,,,,,106,29,Female,2022-04-29_18h51.02.728,Boat,2022.1.1,60.16738566667994,
neutral,positive,2,k,k,,,,,,,,,8,5,149,13,,,,,,,,,,,,,,,,,,,,,,,,main,1,1,2,positive,neutral,k,k,1,0.6255062000127509,456.9899236999918,458.00301009998657,457.96801069998764,None,456.9899236999918,None,456.9899236999918,None,456.9899236999918,None,458.6020847299922,None,458.6020847299922,None,458.6020847299922,None,,,,,,,,,,,106,29,Female,2022-04-29_18h51.02.728,Boat,2022.1.1,60.16738566667994,
positive,neutral,1,l,j,,,,,,,,,8,6,150,8,,,,,,,,,,,,,,,,,,,,,,,,main,1,1,1,neutral,positive,l,l,1,0.804186800000025,458.61841729999287,459.63113090000115,459.611723399983,None,458.61841729999287,None,458.61841729999287,None,458.61841729999287,None,460.4097406299814,None,460.4097406299814,None,460.4097406299814,None,,,,,,,,,,,106,29,Female,2022-04-29_18h51.02.728,Boat,2022.1.1,60.16738566667994,
positive,positive,2,l,j,,,,,,,,,8,7,151,11,,,,,,,,,,,,,,,,,,,,,,,,main,1,1,2,positive,positive,l,l,1,0.6749622000206728,460.4296517999901,461.44463709997945,461.41998509998666,None,460.4296517999901,None,460.4296517999901,None,460.4296517999901,None,462.0868395300029,None,462.0868395300029,None,462.0868395300029,None,,,,,,,,,,,106,29,Female,2022-04-29_18h51.02.728,Boat,2022.1.1,60.16738566667994,
negative,negative,2,j,l,,,,,,,,,8,8,152,9,,,,,,,,,,,,,,,,,,,,,,,,main,2,2,2,negative,negative,j,j,1,0.9021483000251465,462.1029000999988,463.1050956999825,463.0876926999772,None,462.1029000999988,None,462.1029000999988,None,462.1029000999988,None,463.9910870299762,None,463.9910870299762,None,463.9910870299762,None,,,,,,,,,,,106,29,Female,2022-04-29_18h51.02.728,Boat,2022.1.1,60.16738566667994,
negative,positive,2,j,l,,,,,,,,,8,9,153,15,,,,,,,,,,,,,,,,,,,,,,,,main,2,2,2,positive,negative,j,j,1,0.7093456999864429,464.0075821999926,465.02115149999736,464.9868956999853,None,464.0075821999926,None,464.0075821999926,None,464.0075821999926,None,465.7032612299925,None,465.7032612299925,None,465.7032612299925,None,,,,,,,,,,,106,29,Female,2022-04-29_18h51.02.728,Boat,2022.1.1,60.16738566667994,
neutral,negative,1,k,k,,,,,,,,,8,10,154,7,,,,,,,,,,,,,,,,,,,,,,,,main,2,2,1,negative,neutral,k,k,1,0.6504539000161458,465.72150369998417,466.7367811999866,466.70344290000503,None,465.72150369998417,None,465.72150369998417,None,465.72150369998417,None,467.35605172998913,None,467.35605172998913,None,467.35605172998913,None,,,,,,,,,,,106,29,Female,2022-04-29_18h51.02.728,Boat,2022.1.1,60.16738566667994,
negative,positive,1,j,l,,,,,,,,,8,11,155,6,,,,,,,,,,,,,,,,,,,,,,,,main,1,1,1,positive,negative,j,j,1,0.9409161999938078,467.3755530999915,468.3868288999947,468.35079090000363,None,467.3755530999915,None,467.3755530999915,None,467.3755530999915,None,469.30200892997965,None,469.30200892997965,None,469.30200892997965,None,,,,,,,,,,,106,29,Female,2022-04-29_18h51.02.728,Boat,2022.1.1,60.16738566667994,
negative,neutral,2,j,l,,,,,,,,,8,12,156,12,,,,,,,,,,,,,,,,,,,,,,,,main,2,2,2,neutral,negative,j,j,1,0.8093004999973346,469.3187864999927,470.3385376999795,470.30100459998357,None,469.3187864999927,None,469.3187864999927,None,469.3187864999927,None,471.11360672997836,None,471.11360672997836,None,471.11360672997836,None,,,,,,,,,,,106,29,Female,2022-04-29_18h51.02.728,Boat,2022.1.1,60.16738566667994,
negative,neutral,1,j,l,,,,,,,,,8,13,157,3,,,,,,,,,,,,,,,,,,,,,,,,main,2,2,1,neutral,negative,j,j,1,0.7046528999926522,471.13485989999026,472.1368723999767,472.1032278999919,None,471.13485989999026,None,471.13485989999026,None,471.13485989999026,None,472.8198992299993,None,472.8198992299993,None,472.8198992299993,None,,,,,,,,,,,106,29,Female,2022-04-29_18h51.02.728,Boat,2022.1.1,60.16738566667994,
negative,negative,1,j,l,,,,,,,,,8,14,158,0,,,,,,,,,,,,,,,,,,,,,,,,main,2,2,1,negative,negative,j,j,1,0.6163349999987986,472.83832879998954,473.8534037999925,473.8199315999809,None,472.83832879998954,None,472.83832879998954,None,472.83832879998954,None,474.43934012998653,None,474.43934012998653,None,474.43934012998653,None,,,,,,,,,,,106,29,Female,2022-04-29_18h51.02.728,Boat,2022.1.1,60.16738566667994,
neutral,positive,1,k,k,,,,,,,,,8,15,159,4,,,,,,,,,,,,,,,,,,,,,,,,main,2,2,1,positive,neutral,k,k,1,0.8259273000003304,474.45587979999254,475.47865239999373,475.4366277999943,None,474.45587979999254,None,474.45587979999254,None,474.45587979999254,None,476.26902132999095,None,476.26902132999095,None,476.26902132999095,None,,,,,,,,,,,106,29,Female,2022-04-29_18h51.02.728,Boat,2022.1.1,60.16738566667994,
positive,negative,2,l,j,,,,,,,,,8,16,160,14,,,,,,,,,,,,,,,,,,,,,,,,main,2,2,2,negative,positive,l,l,1,0.7626879999879748,476.28638380000484,477.30002689998946,477.2813424000051,None,476.28638380000484,None,476.28638380000484,None,476.28638380000484,None,478.03526522998874,None,478.03526522998874,None,478.03526522998874,None,,,,,,,,,,,106,29,Female,2022-04-29_18h51.02.728,Boat,2022.1.1,60.16738566667994,
positive,negative,1,l,j,,,,,,,,,8,17,161,5,,,,,,,,,,,,,,,,,,,,,,,,main,2,2,1,negative,positive,l,l,1,0.7203098000027239,478.0532167000056,479.0702134000021,479.0329808999959,None,478.0532167000056,None,478.0532167000056,None,478.0532167000056,None,479.7579270300019,None,479.7579270300019,None,479.7579270300019,None,,,,,,,,,,,106,29,Female,2022-04-29_18h51.02.728,Boat,2022.1.1,60.16738566667994,
negative,positive,1,j,l,,,,,,,,,9,0,162,6,,,,,,,,,,,,,,,,,,,,,,,,main,2,2,1,positive,negative,j,j,1,0.8758434999908786,479.77469749999,480.7893957000051,480.7553861000051,None,479.77469749999,None,479.77469749999,None,479.77469749999,None,481.6365787299845,None,481.6365787299845,None,481.6365787299845,None,,,,,,,,,,,106,29,Female,2022-04-29_18h51.02.728,Boat,2022.1.1,60.16738566667994,
neutral,positive,2,k,k,,,,,,,,,9,1,163,13,,,,,,,,,,,,,,,,,,,,,,,,main,2,2,2,positive,neutral,k,k,1,0.6660993999976199,481.65638489997946,482.6701539999922,482.63684749999084,None,481.65638489997946,None,481.65638489997946,None,481.65638489997946,None,483.30630642999023,None,483.30630642999023,None,483.30630642999023,None,,,,,,,,,,,106,29,Female,2022-04-29_18h51.02.728,Boat,2022.1.1,60.16738566667994,
positive,neutral,1,l,j,,,,,,,,,9,2,164,8,,,,,,,,,,,,,,,,,,,,,,,,main,2,2,1,neutral,positive,l,l,1,0.7918920000083745,483.3262494999799,484.337735899986,484.30412539999816,None,483.3262494999799,None,483.3262494999799,None,483.3262494999799,None,485.1012209299923,None,485.1012209299923,None,485.1012209299923,None,,,,,,,,,,,106,29,Female,2022-04-29_18h51.02.728,Boat,2022.1.1,60.16738566667994,
neutral,positive,1,k,k,,,,,,,,,9,3,165,4,,,,,,,,,,,,,,,,,,,,,,,,main,2,2,1,positive,neutral,k,k,1,0.6680816000152845,485.1204388999904,486.1285203000007,486.10348649998195,None,485.1204388999904,None,485.1204388999904,None,485.1204388999904,None,486.77328512997775,None,486.77328512997775,None,486.77328512997775,None,,,,,,,,,,,106,29,Female,2022-04-29_18h51.02.728,Boat,2022.1.1,60.16738566667994,
negative,neutral,1,j,l,,,,,,,,,9,4,166,3,,,,,,,,,,,,,,,,,,,,,,,,main,2,2,1,neutral,negative,j,j,1,0.8467279000033159,486.7894083999854,487.8034553999896,487.7677935999818,None,486.7894083999854,None,486.7894083999854,None,486.7894083999854,None,488.62272992997606,None,488.62272992997606,None,488.62272992997606,None,,,,,,,,,,,106,29,Female,2022-04-29_18h51.02.728,Boat,2022.1.1,60.16738566667994,
neutral,neutral,1,k,k,,,,,,,,,9,5,167,1,,,,,,,,,,,,,,,,,,,,,,,,main,2,2,1,neutral,neutral,k,k,1,0.5845397000084631,488.63933179999003,489.6537498999969,489.6197958999837,None,488.63933179999003,None,488.63933179999003,None,488.63933179999003,None,490.2105299299845,None,490.2105299299845,None,490.2105299299845,None,,,,,,,,,,,106,29,Female,2022-04-29_18h51.02.728,Boat,2022.1.1,60.16738566667994,
positive,negative,2,l,j,,,,,,,,,9,6,168,14,,,,,,,,,,,,,,,,,,,,,,,,main,1,1,2,negative,positive,l,l,1,0.7556816000142135,490.2316118000017,491.23724029998994,491.20372540000244,None,490.2316118000017,None,490.2316118000017,None,490.2316118000017,None,491.96920952998045,None,491.96920952998045,None,491.96920952998045,None,,,,,,,,,,,106,29,Female,2022-04-29_18h51.02.728,Boat,2022.1.1,60.16738566667994,
positive,positive,1,l,j,,,,,,,,,9,7,169,2,,,,,,,,,,,,,,,,,,,,,,,,main,1,1,1,positive,positive,l,l,1,0.8799411000218242,491.9877865999879,492.98663589998614,492.9701677999983,None,491.9877865999879,None,491.9877865999879,None,491.9877865999879,None,493.85403262998153,None,493.85403262998153,None,493.85403262998153,None,,,,,,,,,,,106,29,Female,2022-04-29_18h51.02.728,Boat,2022.1.1,60.16738566667994,
positive,positive,2,l,j,,,,,,,,,9,8,170,11,,,,,,,,,,,,,,,,,,,,,,,,main,2,2,2,positive,positive,l,l,1,0.7303134999820031,493.87045269997907,494.88615819998085,494.8662742000015,None,493.87045269997907,None,493.87045269997907,None,493.87045269997907,None,495.58724662998867,None,495.58724662998867,None,495.58724662998867,None,,,,,,,,,,,106,29,Female,2022-04-29_18h51.02.728,Boat,2022.1.1,60.16738566667994,
negative,neutral,2,j,l,,,,,,,,,9,9,171,12,,,,,,,,,,,,,,,,,,,,,,,,main,2,2,2,neutral,negative,j,j,1,0.7342209999915212,495.60324249998666,496.6056567999767,496.5886119999923,None,495.60324249998666,None,495.60324249998666,None,495.60324249998666,None,497.32388262997557,None,497.32388262997557,None,497.32388262997557,None,,,,,,,,,,,106,29,Female,2022-04-29_18h51.02.728,Boat,2022.1.1,60.16738566667994,
positive,negative,1,l,j,,,,,,,,,9,10,172,5,,,,,,,,,,,,,,,,,,,,,,,,main,1,1,1,negative,positive,l,l,1,0.8258142000122461,497.3395499000035,498.36199730000226,498.31881169998087,None,497.3395499000035,None,497.3395499000035,None,497.3395499000035,None,499.15375152998314,None,499.15375152998314,None,499.15375152998314,None,,,,,,,,,,,106,29,Female,2022-04-29_18h51.02.728,Boat,2022.1.1,60.16738566667994,
negative,negative,2,j,l,,,,,,,,,9,11,173,9,,,,,,,,,,,,,,,,,,,,,,,,main,1,1,2,negative,negative,j,j,1,0.9964896999881603,499.16931399999885,500.1705676999991,500.1537377999921,None,499.16931399999885,None,499.16931399999885,None,499.16931399999885,None,501.15291912998947,None,501.15291912998947,None,501.15291912998947,None,,,,,,,,,,,106,29,Female,2022-04-29_18h51.02.728,Boat,2022.1.1,60.16738566667994,
negative,negative,1,j,l,,,,,,,,,9,12,174,0,,,,,,,,,,,,,,,,,,,,,,,,main,1,1,1,negative,negative,j,j,1,0.9472035999933723,501.16996679999284,502.1705337000021,502.15343469998334,None,501.16996679999284,None,501.16996679999284,None,501.16996679999284,None,503.1032643299812,None,503.1032643299812,None,503.1032643299812,None,,,,,,,,,,,106,29,Female,2022-04-29_18h51.02.728,Boat,2022.1.1,60.16738566667994,
positive,neutral,2,l,j,,,,,,,,,9,13,175,17,,,,,,,,,,,,,,,,,,,,,,,,main,1,1,2,neutral,positive,l,l,1,1.589222399983555,503.12144319998333,504.13918169998215,504.10152279998874,None,503.12144319998333,None,503.12144319998333,None,503.12144319998333,None,505.7038937000034,None,505.7038937000034,None,505.7038937000034,None,,,,,,,,,,,106,29,Female,2022-04-29_18h51.02.728,Boat,2022.1.1,60.16738566667994,
neutral,neutral,2,k,k,,,,,,,,,9,14,176,10,,,,,,,,,,,,,,,,,,,,,,,,main,1,1,2,neutral,neutral,k,k,1,0.8251361000002362,506.7221850999922,507.73677329998463,507.71577089998755,None,506.7221850999922,None,506.7221850999922,None,506.7221850999922,None,508.5352681299817,None,508.5352681299817,None,508.5352681299817,None,,,,,,,,,,,106,29,Female,2022-04-29_18h51.02.728,Boat,2022.1.1,60.16738566667994,
neutral,negative,1,k,k,,,,,,,,,9,15,177,7,,,,,,,,,,,,,,,,,,,,,,,,main,2,2,1,negative,neutral,k,k,1,0.799112700013211,508.5517270999844,509.5538770999992,509.5356576000049,None,508.5517270999844,None,508.5517270999844,None,508.5517270999844,None,510.33692942998897,None,510.33692942998897,None,510.33692942998897,None,,,,,,,,,,,106,29,Female,2022-04-29_18h51.02.728,Boat,2022.1.1,60.16738566667994,
neutral,negative,2,k,k,,,,,,,,,9,16,178,16,,,,,,,,,,,,,,,,,,,,,,,,main,2,2,2,negative,neutral,k,k,1,0.6116065999958664,510.3545417999849,511.354683499987,511.3376597999886,None,510.3545417999849,None,510.3545417999849,None,510.3545417999849,None,511.95231722999307,None,511.95231722999307,None,511.95231722999307,None,,,,,,,,,,,106,29,Female,2022-04-29_18h51.02.728,Boat,2022.1.1,60.16738566667994,
negative,positive,2,j,l,,,,,,,,,9,17,179,15,,,,,,,,,,,,,,,,,,,,,,,,main,2,2,2,positive,negative,j,j,1,0.8248243999842089,511.9696800999809,512.9715340999828,512.954416099994,None,511.9696800999809,None,511.9696800999809,None,511.9696800999809,None,513.7784674300026,None,513.7784674300026,None,513.7784674300026,None,,,,,,,,,,,106,29,Female,2022-04-29_18h51.02.728,Boat,2022.1.1,60.16738566667994,
negative,negative,1,j,l,,,,,,,,,10,0,180,0,,,,,,,,,,,,,,,,,,,,,,,,main,1,1,1,negative,negative,j,j,1,0.8548554999870248,513.7979592999909,514.804195100005,514.7872182999854,None,513.7979592999909,None,513.7979592999909,None,513.7979592999909,None,515.637581129992,None,515.637581129992,None,515.637581129992,None,,,,,,,,,,,106,29,Female,2022-04-29_18h51.02.728,Boat,2022.1.1,60.16738566667994,
negative,positive,2,j,l,,,,,,,,,10,1,181,15,,,,,,,,,,,,,,,,,,,,,,,,main,2,2,2,positive,negative,j,j,1,0.8195524000038859,515.6552462999825,516.6707164999971,516.6366882000002,None,515.6552462999825,None,515.6552462999825,None,515.6552462999825,None,517.4581736299995,None,517.4581736299995,None,517.4581736299995,None,,,,,,,,,,,106,29,Female,2022-04-29_18h51.02.728,Boat,2022.1.1,60.16738566667994,
negative,neutral,2,j,l,,,,,,,,,10,2,182,12,,,,,,,,,,,,,,,,,,,,,,,,main,2,2,2,neutral,negative,j,j,1,0.6040276999992784,517.48366909998,518.4874399999972,518.4539764999936,None,517.48366909998,None,517.48366909998,None,517.48366909998,None,519.0679010299762,None,519.0679010299762,None,519.0679010299762,None,,,,,,,,,,,106,29,Female,2022-04-29_18h51.02.728,Boat,2022.1.1,60.16738566667994,
negative,neutral,1,j,l,,,,,,,,,10,3,183,3,,,,,,,,,,,,,,,,,,,,,,,,main,2,2,1,neutral,negative,j,j,1,0.8054345000127796,519.0866090999916,520.1041669999831,520.065664099995,None,519.0866090999916,None,519.0866090999916,None,519.0866090999916,None,520.8742905299848,None,520.8742905299848,None,520.8742905299848,None,,,,,,,,,,,106,29,Female,2022-04-29_18h51.02.728,Boat,2022.1.1,60.16738566667994,
positive,positive,2,l,j,,,,,,,,,10,4,184,11,,,,,,,,,,,,,,,,,,,,,,,,main,1,1,2,positive,positive,l,l,1,0.7989008000004105,520.8929830999987,521.9123546000046,521.8709600000002,None,520.8929830999987,None,520.8929830999987,None,520.8929830999987,None,522.6779814299923,None,522.6779814299923,None,522.6779814299923,None,,,,,,,,,,,106,29,Female,2022-04-29_18h51.02.728,Boat,2022.1.1,60.16738566667994,
neutral,negative,1,k,k,,,,,,,,,10,5,185,7,,,,,,,,,,,,,,,,,,,,,,,,main,2,2,1,negative,neutral,k,k,1,0.6708508000010625,522.6955145999964,523.7128912000044,523.6710022999905,None,522.6955145999964,None,522.6955145999964,None,522.6955145999964,None,524.3505366299912,None,524.3505366299912,None,524.3505366299912,None,,,,,,,,,,,106,29,Female,2022-04-29_18h51.02.728,Boat,2022.1.1,60.16738566667994,
positive,negative,2,l,j,,,,,,,,,10,6,186,14,,,,,,,,,,,,,,,,,,,,,,,,main,2,2,2,negative,positive,l,l,1,0.734651999984635,524.3699206000019,525.3711953999882,525.3527594000043,None,524.3699206000019,None,524.3699206000019,None,524.3699206000019,None,526.0878814299911,None,526.0878814299911,None,526.0878814299911,None,,,,,,,,,,,106,29,Female,2022-04-29_18h51.02.728,Boat,2022.1.1,60.16738566667994,
neutral,positive,1,k,k,,,,,,,,,10,7,187,4,,,,,,,,,,,,,,,,,,,,,,,,main,1,1,1,positive,neutral,k,k,1,0.6492933999979869,526.1053048000031,527.1210940000019,527.0867895999982,None,526.1053048000031,None,526.1053048000031,None,526.1053048000031,None,527.7395668299839,None,527.7395668299839,None,527.7395668299839,None,,,,,,,,,,,106,29,Female,2022-04-29_18h51.02.728,Boat,2022.1.1,60.16738566667994,
neutral,positive,2,k,k,,,,,,,,,10,8,188,13,,,,,,,,,,,,,,,,,,,,,,,,main,1,1,2,positive,neutral,k,k,1,0.6275308000040241,527.7567781999824,528.7725680999865,528.7373819999921,None,527.7567781999824,None,527.7567781999824,None,527.7567781999824,None,529.3710073299851,None,529.3710073299851,None,529.3710073299851,None,,,,,,,,,,,106,29,Female,2022-04-29_18h51.02.728,Boat,2022.1.1,60.16738566667994,
negative,negative,2,j,l,,,,,,,,,10,9,189,9,,,,,,,,,,,,,,,,,,,,,,,,main,1,1,2,negative,negative,j,j,1,0.8174230000004172,529.386909199995,530.4126867000014,530.3659969999862,None,529.386909199995,None,529.386909199995,None,529.386909199995,None,531.1904106299887,None,531.1904106299887,None,531.1904106299887,None,,,,,,,,,,,106,29,Female,2022-04-29_18h51.02.728,Boat,2022.1.1,60.16738566667994,
neutral,negative,2,k,k,,,,,,,,,10,10,190,16,,,,,,,,,,,,,,,,,,,,,,,,main,2,2,2,negative,neutral,k,k,1,0.6141770999820437,531.2080602999777,532.221209899988,532.1855487999856,None,531.2080602999777,None,531.2080602999777,None,531.2080602999777,None,532.8051203299808,None,532.8051203299808,None,532.8051203299808,None,,,,,,,,,,,106,29,Female,2022-04-29_18h51.02.728,Boat,2022.1.1,60.16738566667994,
neutral,neutral,1,k,k,,,,,,,,,10,11,191,1,,,,,,,,,,,,,,,,,,,,,,,,main,2,2,1,neutral,neutral,k,k,1,0.602741300011985,532.8251803999883,533.8379576999869,533.8020891999768,None,532.8251803999883,None,532.8251803999883,None,532.8251803999883,None,534.4140500299952,None,534.4140500299952,None,534.4140500299952,None,,,,,,,,,,,106,29,Female,2022-04-29_18h51.02.728,Boat,2022.1.1,60.16738566667994,
positive,neutral,1,l,j,,,,,,,,,10,12,192,8,,,,,,,,,,,,,,,,,,,,,,,,main,2,2,1,neutral,positive,l,l,1,1.0841295999998692,534.4338538000011,535.4377566000039,535.4170548999973,None,534.4338538000011,None,534.4338538000011,None,534.4338538000011,None,536.500540529986,None,536.500540529986,None,536.500540529986,None,,,,,,,,,,,106,29,Female,2022-04-29_18h51.02.728,Boat,2022.1.1,60.16738566667994,
positive,neutral,2,l,j,,,,,,,,,10,13,193,17,,,,,,,,,,,,,,,,,,,,,,,,main,2,2,2,neutral,positive,l,l,1,0.7340758999926038,536.5202062999888,537.5329949999868,537.5125074999814,None,536.5202062999888,None,536.5202062999888,None,536.5202062999888,None,538.236756230003,None,538.236756230003,None,538.236756230003,None,,,,,,,,,,,106,29,Female,2022-04-29_18h51.02.728,Boat,2022.1.1,60.16738566667994,
negative,positive,1,j,l,,,,,,,,,10,14,194,6,,,,,,,,,,,,,,,,,,,,,,,,main,2,2,1,positive,negative,j,j,1,0.8584483000158798,538.2554461999971,539.2549364999868,539.2380114999833,None,538.2554461999971,None,538.2554461999971,None,538.2554461999971,None,540.0975430299848,None,540.0975430299848,None,540.0975430299848,None,,,,,,,,,,,106,29,Female,2022-04-29_18h51.02.728,Boat,2022.1.1,60.16738566667994,
positive,positive,1,l,j,,,,,,,,,10,15,195,2,,,,,,,,,,,,,,,,,,,,,,,,main,1,1,1,positive,positive,l,l,1,1.009721600014018,540.1200872999907,541.1230781999766,541.0883041999768,None,540.1200872999907,None,540.1200872999907,None,540.1200872999907,None,542.1110148300038,None,542.1110148300038,None,542.1110148300038,None,,,,,,,,,,,106,29,Female,2022-04-29_18h51.02.728,Boat,2022.1.1,60.16738566667994,
neutral,neutral,2,k,k,,,,,,,,,10,16,196,10,,,,,,,,,,,,,,,,,,,,,,,,main,2,2,2,neutral,neutral,k,k,1,0.7894865999987815,542.1320093999966,543.1359726999945,543.1161880999862,None,542.1320093999966,None,542.1320093999966,None,542.1320093999966,None,543.9034990299813,None,543.9034990299813,None,543.9034990299813,None,,,,,,,,,,,106,29,Female,2022-04-29_18h51.02.728,Boat,2022.1.1,60.16738566667994,
positive,negative,1,l,j,,,,,,,,,10,17,197,5,,,,,,,,,,,,,,,,,,,,,,,,main,1,1,1,negative,positive,l,l,1,0.9881848999939393,543.9220810999977,544.9328959999839,544.9133661999949,None,543.9220810999977,None,543.9220810999977,None,543.9220810999977,None,545.8942329300014,None,545.8942329300014,None,545.8942329300014,None,,,,,,,,,,,106,29,Female,2022-04-29_18h51.02.728,Boat,2022.1.1,60.16738566667994,
negative,negative,2,j,l,,,,,,,,,11,0,198,9,,,,,,,,,,,,,,,,,,,,,,,,main,1,1,2,negative,negative,j,j,1,0.8555008999828715,545.9107476999925,546.9299773999956,546.8880118999805,None,545.9107476999925,None,545.9107476999925,None,545.9107476999925,None,547.7540346299909,None,547.7540346299909,None,547.7540346299909,None,,,,,,,,,,,106,29,Female,2022-04-29_18h51.02.728,Boat,2022.1.1,60.16738566667994,
positive,neutral,2,l,j,,,,,,,,,11,1,199,17,,,,,,,,,,,,,,,,,,,,,,,,main,2,2,2,neutral,positive,l,l,1,0.7829804999928456,547.7710934999923,548.7831989999977,548.7633032999875,None,547.7710934999923,None,547.7710934999923,None,547.7710934999923,None,549.5392566299968,None,549.5392566299968,None,549.5392566299968,None,,,,,,,,,,,106,29,Female,2022-04-29_18h51.02.728,Boat,2022.1.1,60.16738566667994,
negative,positive,2,j,l,,,,,,,,,11,2,200,15,,,,,,,,,,,,,,,,,,,,,,,,main,1,1,2,positive,negative,j,j,1,0.8855752999952529,549.5571177999955,550.5716402999824,550.5376292000001,None,549.5571177999955,None,549.5571177999955,None,549.5571177999955,None,551.4259364299912,None,551.4259364299912,None,551.4259364299912,None,,,,,,,,,,,106,29,Female,2022-04-29_18h51.02.728,Boat,2022.1.1,60.16738566667994,
positive,negative,1,l,j,,,,,,,,,11,3,201,5,,,,,,,,,,,,,,,,,,,,,,,,main,1,1,1,negative,positive,l,l,1,0.8475936999893747,551.4457817999937,552.4549942000012,552.4356984999904,None,551.4457817999937,None,551.4457817999937,None,551.4457817999937,None,553.2773772299959,None,553.2773772299959,None,553.2773772299959,None,,,,,,,,,,,106,29,Female,2022-04-29_18h51.02.728,Boat,2022.1.1,60.16738566667994,
negative,neutral,1,j,l,,,,,,,,,11,4,202,3,,,,,,,,,,,,,,,,,,,,,,,,main,2,2,1,neutral,negative,j,j,1,0.7728614000079688,553.2968885999871,554.3162767000031,554.2699420999852,None,553.2968885999871,None,553.2968885999871,None,553.2968885999871,None,555.0548953299847,None,555.0548953299847,None,555.0548953299847,None,,,,,,,,,,,106,29,Female,2022-04-29_18h51.02.728,Boat,2022.1.1,60.16738566667994,
positive,neutral,1,l,j,,,,,,,,,11,5,203,8,,,,,,,,,,,,,,,,,,,,,,,,main,2,2,1,neutral,positive,l,l,1,0.8013237999984995,555.0741262999945,556.0967816000048,556.0551938999852,None,555.0741262999945,None,555.0741262999945,None,555.0741262999945,None,556.8617123299889,None,556.8617123299889,None,556.8617123299889,None,,,,,,,,,,,106,29,Female,2022-04-29_18h51.02.728,Boat,2022.1.1,60.16738566667994,
neutral,neutral,2,k,k,,,,,,,,,11,6,204,10,,,,,,,,,,,,,,,,,,,,,,,,main,1,1,2,neutral,neutral,k,k,1,0.6404956000042148,556.8818757999979,557.8967999999877,557.8548852999811,None,556.8818757999979,None,556.8818757999979,None,556.8818757999979,None,558.5050794300012,None,558.5050794300012,None,558.5050794300012,None,,,,,,,,,,,106,29,Female,2022-04-29_18h51.02.728,Boat,2022.1.1,60.16738566667994,
neutral,neutral,1,k,k,,,,,,,,,11,7,205,1,,,,,,,,,,,,,,,,,,,,,,,,main,1,1,1,neutral,neutral,k,k,1,0.647062999982154,558.5248778999958,559.5391435999773,559.5049708999868,None,558.5248778999958,None,558.5248778999958,None,558.5248778999958,None,560.1557338300015,None,560.1557338300015,None,560.1557338300015,None,,,,,,,,,,,106,29,Female,2022-04-29_18h51.02.728,Boat,2022.1.1,60.16738566667994,
neutral,negative,2,k,k,,,,,,,,,11,8,206,16,,,,,,,,,,,,,,,,,,,,,,,,main,2,2,2,negative,neutral,k,k,1,0.7338960999913979,560.1723157999804,561.1831687999947,561.163270399993,None,560.1723157999804,None,560.1723157999804,None,560.1723157999804,None,561.8914566299907,None,561.8914566299907,None,561.8914566299907,None,,,,,,,,,,,106,29,Female,2022-04-29_18h51.02.728,Boat,2022.1.1,60.16738566667994,
positive,negative,2,l,j,,,,,,,,,11,9,207,14,,,,,,,,,,,,,,,,,,,,,,,,main,1,1,2,negative,positive,l,l,1,0.8490070000116248,561.9084364000009,562.9201795999834,562.9004922999884,None,561.9084364000009,None,561.9084364000009,None,561.9084364000009,None,563.742705229987,None,563.742705229987,None,563.742705229987,None,,,,,,,,,,,106,29,Female,2022-04-29_18h51.02.728,Boat,2022.1.1,60.16738566667994,
