target,distractor,set,ans1,ans2,rep_loop2.thisRepN,rep_loop2.thisTrialN,rep_loop2.thisN,rep_loop2.thisIndex,flanker_prac_loop.thisRepN,flanker_prac_loop.thisTrialN,flanker_prac_loop.thisN,flanker_prac_loop.thisIndex,flanker_main_loop.thisRepN,flanker_main_loop.thisTrialN,flanker_main_loop.thisN,flanker_main_loop.thisIndex,fl_inst_resp.keys,mouse.x,mouse.y,mouse.leftButton,mouse.midButton,mouse.rightButton,mouse.started,mouse.stopped,sound_1.started,sound_1.stopped,no_text.started,no_text.stopped,yes_text.started,yes_text.stopped,mouse_2.x,mouse_2.y,mouse_2.leftButton,mouse_2.midButton,mouse_2.rightButton,mouse_2.started,mouse_2.stopped,back_2.started,back_2.stopped,main_prac,fl_cold,fl_colt,fl_set,fl_dcond,fl_tcond,fl_ans,fl_res,fl_corr,fl_rt,fix_fl.started,fix_fl.stopped,targ.started,targ.stopped,j_button.started,j_button.stopped,k_button.started,k_button.stopped,l_button.started,l_button.stopped,j_button2.started,j_button2.stopped,k_button2.started,k_button2.stopped,l_button2.started,l_button2.stopped,mainback.started,mainback.stopped,key_resp.keys,mouse_6.x,mouse_6.y,mouse_6.leftButton,mouse_6.midButton,mouse_6.rightButton,mouse_6.started,mouse_6.stopped,id*,age*,gender*,date,expName,psychopyVersion,frameRate,
,,,,,0,0,0,0,,,,,,,,,None,0.022222223,-0.425,0,0,0,1.0208027000189759,None,26.817467200022655,None,80.90700609999476,None,80.90700609999476,None,-0.08425926,-0.08981481,0,0,0,0.011434400046709925,None,,,,,,,,,,,,,,,,,,,,,,,,,,,,,,,,,,,,,,,107,23,Female,2022-05-02_09h37.55.542,Boat,2022.1.1,60.002184082160895,
neutral,positive,1,k,k,,,,,0,0,0,4,,,,,,,,,,,,,,,,,,,,,,,,,,84.26940470002592,None,prac,1,1,1,positive,neutral,k,k,1,1.2497528999811038,86.30527260003146,87.30629189999308,87.290037400031,None,86.30527260003146,None,86.30527260003146,None,86.30527260003146,None,88.52824310001452,None,88.52824310001452,None,88.52824310001452,None,,,,,,,,,,,107,23,Female,2022-05-02_09h37.55.542,Boat,2022.1.1,60.002184082160895,
negative,neutral,2,j,l,,,,,0,1,1,12,,,,,,,,,,,,,,,,,,,,,,,,,,,,prac,1,1,2,neutral,negative,l,l,1,1.1995371999801137,88.55584030004684,89.55774260003818,89.5397132000071,None,88.55584030004684,None,88.55584030004684,None,88.55584030004684,None,90.73192100003362,None,90.73192100003362,None,90.73192100003362,None,,,,,,,,,,,107,23,Female,2022-05-02_09h37.55.542,Boat,2022.1.1,60.002184082160895,
neutral,positive,2,k,k,,,,,0,2,2,13,,,,,,,,,,,,,,,,,,,,,,,,,,,,prac,2,2,2,positive,neutral,k,k,1,1.1173959000152536,90.74989900004584,91.77071950002573,91.73124779999489,None,90.74989900004584,None,90.74989900004584,None,90.74989900004584,None,92.85140690001427,None,92.85140690001427,None,92.85140690001427,None,,,,,,,,,,,107,23,Female,2022-05-02_09h37.55.542,Boat,2022.1.1,60.002184082160895,
neutral,negative,1,k,k,,,,,0,3,3,7,,,,,,,,,,,,,,,,,,,,,,,,,,,,prac,1,1,1,negative,neutral,k,k,1,0.9098066000151448,92.87385269999504,93.88456249999581,93.86474310001358,None,92.87385269999504,None,92.87385269999504,None,92.87385269999504,None,94.76137800000143,None,94.76137800000143,None,94.76137800000143,None,,,,,,,,,,,107,23,Female,2022-05-02_09h37.55.542,Boat,2022.1.1,60.002184082160895,
positive,positive,2,l,j,,,,,0,4,4,11,,,,,,,,,,,,,,,,,,,,,,,,,,,,prac,1,1,2,positive,positive,j,j,1,0.8314500999986194,94.78415690001566,95.79027340002358,95.77118050004356,None,94.78415690001566,None,94.78415690001566,None,94.78415690001566,None,96.5946070000413,None,96.5946070000413,None,96.5946070000413,None,,,,,,,,,,,107,23,Female,2022-05-02_09h37.55.542,Boat,2022.1.1,60.002184082160895,
positive,negative,2,l,j,,,,,0,5,5,14,,,,,,,,,,,,,,,,,,,,,,,,,,,,prac,2,2,2,negative,positive,j,j,1,0.7653661999502219,96.61175380001077,97.62273790000472,97.58448590000626,None,96.61175380001077,None,96.61175380001077,None,96.61175380001077,None,98.36159760002047,None,98.36159760002047,None,98.36159760002047,None,,,,,,,,,,,107,23,Female,2022-05-02_09h37.55.542,Boat,2022.1.1,60.002184082160895,
neutral,neutral,2,k,k,,,,,0,6,6,10,,,,,,,,,,,,,,,,,,,,,,,,,,,,prac,2,2,2,neutral,neutral,k,k,1,1.6482411000179127,98.38934530003462,99.38998910004739,99.37366939999629,None,98.38934530003462,None,98.38934530003462,None,98.38934530003462,None,101.04295830003684,None,101.04295830003684,None,101.04295830003684,None,,,,,,,,,,,107,23,Female,2022-05-02_09h37.55.542,Boat,2022.1.1,60.002184082160895,
negative,positive,2,j,l,,,,,0,7,7,15,,,,,,,,,,,,,,,,,,,,,,,,,,,,prac,2,2,2,positive,negative,l,l,1,1.0263466000324115,102.05877380003221,103.07134550000774,103.05186190002132,None,102.05877380003221,None,102.05877380003221,None,102.05877380003221,None,104.0726084999973,None,104.0726084999973,None,104.0726084999973,None,,,,,,,,,,,107,23,Female,2022-05-02_09h37.55.542,Boat,2022.1.1,60.002184082160895,
neutral,negative,2,k,k,,,,,0,8,8,16,,,,,,,,,,,,,,,,,,,,,,,,,,,,prac,1,1,2,negative,neutral,k,k,1,1.238075300003402,104.1009941000375,105.12097099999664,105.10166840004968,None,104.1009941000375,None,104.1009941000375,None,104.1009941000375,None,106.31508470004192,None,106.31508470004192,None,106.31508470004192,None,,,,,,,,,,,107,23,Female,2022-05-02_09h37.55.542,Boat,2022.1.1,60.002184082160895,
positive,positive,1,l,j,,,,,0,9,9,2,,,,,,,,,,,,,,,,,,,,,,,,,,,,prac,1,1,1,positive,positive,j,j,1,0.8289550999761559,106.33009480003966,107.34002160001546,107.30167529999744,None,106.33009480003966,None,106.33009480003966,None,106.33009480003966,None,108.14481140001445,None,108.14481140001445,None,108.14481140001445,None,,,,,,,,,,,107,23,Female,2022-05-02_09h37.55.542,Boat,2022.1.1,60.002184082160895,
neutral,neutral,1,k,k,,,,,0,10,10,1,,,,,,,,,,,,,,,,,,,,,,,,,,,,prac,2,2,1,neutral,neutral,k,k,1,0.8133659999584779,108.16859690001002,109.18755210004747,109.16829090000829,None,108.16859690001002,None,108.16859690001002,None,108.16859690001002,None,109.95986550002127,None,109.95986550002127,None,109.95986550002127,None,,,,,,,,,,,107,23,Female,2022-05-02_09h37.55.542,Boat,2022.1.1,60.002184082160895,
positive,negative,1,l,j,,,,,0,11,11,5,,,,,,,,,,,,,,,,,,,,,,,,,,,,prac,2,2,1,negative,positive,j,j,1,0.8161031999625266,109.98771190003026,111.00502700003562,110.98546080000233,None,109.98771190003026,None,109.98771190003026,None,109.98771190003026,None,111.77703340000008,None,111.77703340000008,None,111.77703340000008,None,,,,,,,,,,,107,23,Female,2022-05-02_09h37.55.542,Boat,2022.1.1,60.002184082160895,
negative,negative,2,j,l,,,,,0,12,12,9,,,,,,,,,,,,,,,,,,,,,,,,,,,,prac,1,1,2,negative,negative,l,l,1,0.76395059999777,111.79428190004546,112.81874880002579,112.77380970004015,None,111.79428190004546,None,111.79428190004546,None,111.79428190004546,None,113.54627540000948,None,113.54627540000948,None,113.54627540000948,None,,,,,,,,,,,107,23,Female,2022-05-02_09h37.55.542,Boat,2022.1.1,60.002184082160895,
positive,neutral,1,l,j,,,,,0,13,13,8,,,,,,,,,,,,,,,,,,,,,,,,,,,,prac,1,1,1,neutral,positive,j,j,1,0.9697134000016376,113.57260160002625,114.57396510004764,114.55640800000401,None,113.57260160002625,None,113.57260160002625,None,113.57260160002625,None,115.516846000019,None,115.516846000019,None,115.516846000019,None,,,,,,,,,,,107,23,Female,2022-05-02_09h37.55.542,Boat,2022.1.1,60.002184082160895,
negative,positive,1,j,l,,,,,0,14,14,6,,,,,,,,,,,,,,,,,,,,,,,,,,,,prac,1,1,1,positive,negative,l,l,1,1.1146094999858178,115.53493520000484,116.54021350003313,116.50591480004368,None,115.53493520000484,None,115.53493520000484,None,115.53493520000484,None,117.63475570004667,None,117.63475570004667,None,117.63475570004667,None,,,,,,,,,,,107,23,Female,2022-05-02_09h37.55.542,Boat,2022.1.1,60.002184082160895,
positive,neutral,2,l,j,,,,,0,15,15,17,,,,,,,,,,,,,,,,,,,,,,,,,,,,prac,2,2,2,neutral,positive,j,j,1,0.8437246999819763,117.6521800000337,118.65434330003336,118.65434330003336,None,117.6521800000337,None,117.6521800000337,None,117.6521800000337,None,119.47722610002384,None,119.47722610002384,None,119.47722610002384,None,,,,,,,,,,,107,23,Female,2022-05-02_09h37.55.542,Boat,2022.1.1,60.002184082160895,
negative,negative,1,j,l,,,,,0,16,16,0,,,,,,,,,,,,,,,,,,,,,,,,,,,,prac,2,2,1,negative,negative,l,l,1,1.1094768999610096,119.49356620002072,120.5152998000267,120.47395100002177,None,119.49356620002072,None,119.49356620002072,None,119.49356620002072,None,121.59081759999972,None,121.59081759999972,None,121.59081759999972,None,,,,,,,,,,,107,23,Female,2022-05-02_09h37.55.542,Boat,2022.1.1,60.002184082160895,
negative,neutral,1,j,l,,,,,0,17,17,3,,,,,,,,,,,,,,,,,,,,,,,,,,,,prac,2,2,1,neutral,negative,l,l,1,0.789143799978774,121.60803070000838,122.62366540002404,122.58770080003887,None,121.60803070000838,None,121.60803070000838,None,121.60803070000838,None,123.38515389999375,None,123.38515389999375,None,123.38515389999375,None,,,,,,,,,,,107,23,Female,2022-05-02_09h37.55.542,Boat,2022.1.1,60.002184082160895,
positive,negative,2,l,j,,,,,1,0,18,14,,,,,,,,,,,,,,,,,,,,,,,,,,,,prac,2,2,2,negative,positive,j,j,1,0.865494999976363,123.4021650000359,124.40457620000234,124.40457620000234,None,123.4021650000359,None,123.4021650000359,None,123.4021650000359,None,125.25244490002515,None,125.25244490002515,None,125.25244490002515,None,,,,,,,,,,,107,23,Female,2022-05-02_09h37.55.542,Boat,2022.1.1,60.002184082160895,
negative,neutral,1,j,l,,,,,1,1,19,3,,,,,,,,,,,,,,,,,,,,,,,,,,,,prac,1,1,1,neutral,negative,l,l,1,0.7780946000129916,125.26985710003646,126.27428360003978,126.25785480003105,None,125.26985710003646,None,125.26985710003646,None,125.26985710003646,None,127.02990260001971,None,127.02990260001971,None,127.02990260001971,None,,,,,,,,,,,107,23,Female,2022-05-02_09h37.55.542,Boat,2022.1.1,60.002184082160895,
negative,positive,2,j,l,,,,,1,2,20,15,,,,,,,,,,,,,,,,,,,,,,,,,,,,prac,2,2,2,positive,negative,l,l,1,0.740470299962908,127.0452502000262,128.0594152000267,128.0241674000281,None,127.0452502000262,None,127.0452502000262,None,127.0452502000262,None,128.77421720003477,None,128.77421720003477,None,128.77421720003477,None,,,,,,,,,,,107,23,Female,2022-05-02_09h37.55.542,Boat,2022.1.1,60.002184082160895,
negative,negative,2,j,l,,,,,1,3,21,9,,,,,,,,,,,,,,,,,,,,,,,,,,,,prac,1,1,2,negative,negative,l,l,1,0.6717402000213042,128.7895450000069,129.8186704000109,129.77131470001768,None,128.7895450000069,None,128.7895450000069,None,128.7895450000069,None,130.4500964000239,None,130.4500964000239,None,130.4500964000239,None,,,,,,,,,,,107,23,Female,2022-05-02_09h37.55.542,Boat,2022.1.1,60.002184082160895,
negative,negative,1,j,l,,,,,1,4,22,0,,,,,,,,,,,,,,,,,,,,,,,,,,,,prac,1,1,1,negative,negative,l,l,1,0.6990870999870822,130.46786610002164,131.47391870000865,131.45770080003422,None,130.46786610002164,None,130.46786610002164,None,130.46786610002164,None,132.15049100001343,None,132.15049100001343,None,132.15049100001343,None,,,,,,,,,,,107,23,Female,2022-05-02_09h37.55.542,Boat,2022.1.1,60.002184082160895,
neutral,negative,1,k,k,,,,,1,5,23,7,,,,,,,,,,,,,,,,,,,,,,,,,,,,prac,2,2,1,negative,neutral,k,k,1,0.9643835999886505,132.16661260003457,133.18219580000732,133.1407352000242,None,132.16661260003457,None,132.16661260003457,None,132.16661260003457,None,134.11715460001724,None,134.11715460001724,None,134.11715460001724,None,,,,,,,,,,,107,23,Female,2022-05-02_09h37.55.542,Boat,2022.1.1,60.002184082160895,
positive,negative,1,l,j,,,,,1,6,24,5,,,,,,,,,,,,,,,,,,,,,,,,,,,,prac,1,1,1,negative,positive,j,j,1,0.8781012000399642,134.13741170003777,135.15235760004725,135.10727680003038,None,134.13741170003777,None,134.13741170003777,None,134.13741170003777,None,135.9951756000286,None,135.9951756000286,None,135.9951756000286,None,,,,,,,,,,,107,23,Female,2022-05-02_09h37.55.542,Boat,2022.1.1,60.002184082160895,
positive,neutral,1,l,j,,,,,1,7,25,8,,,,,,,,,,,,,,,,,,,,,,,,,,,,prac,2,2,1,neutral,positive,j,j,1,0.8612095999997109,136.01699660002487,137.02421260002302,137.00667370000156,None,136.01699660002487,None,136.01699660002487,None,136.01699660002487,None,137.8609225000022,None,137.8609225000022,None,137.8609225000022,None,,,,,,,,,,,107,23,Female,2022-05-02_09h37.55.542,Boat,2022.1.1,60.002184082160895,
positive,positive,2,l,j,,,,,1,8,26,11,,,,,,,,,,,,,,,,,,,,,,,,,,,,prac,2,2,2,positive,positive,j,j,1,0.8247890000347979,137.87624470004812,138.89155679999385,138.87466200004565,None,137.87624470004812,None,137.87624470004812,None,137.87624470004812,None,139.68923420002685,None,139.68923420002685,None,139.68923420002685,None,,,,,,,,,,,107,23,Female,2022-05-02_09h37.55.542,Boat,2022.1.1,60.002184082160895,
neutral,neutral,2,k,k,,,,,1,9,27,10,,,,,,,,,,,,,,,,,,,,,,,,,,,,prac,2,2,2,neutral,neutral,k,k,1,0.8676665000384673,139.70669790002285,140.7072302000015,140.674326700042,None,139.70669790002285,None,139.70669790002285,None,139.70669790002285,None,141.55793470002246,None,141.55793470002246,None,141.55793470002246,None,,,,,,,,,,,107,23,Female,2022-05-02_09h37.55.542,Boat,2022.1.1,60.002184082160895,
neutral,neutral,1,k,k,,,,,1,10,28,1,,,,,,,,,,,,,,,,,,,,,,,,,,,,prac,1,1,1,neutral,neutral,k,k,1,0.8965932999853976,141.57279260002542,142.57545980002033,142.5586312999949,None,141.57279260002542,None,141.57279260002542,None,141.57279260002542,None,143.4579074000125,None,143.4579074000125,None,143.4579074000125,None,,,,,,,,,,,107,23,Female,2022-05-02_09h37.55.542,Boat,2022.1.1,60.002184082160895,
neutral,positive,1,k,k,,,,,1,11,29,4,,,,,,,,,,,,,,,,,,,,,,,,,,,,prac,2,2,1,positive,neutral,k,k,1,0.6205705999745987,143.48175610002363,144.4910460000392,144.4743411000236,None,143.48175610002363,None,143.48175610002363,None,143.48175610002363,None,145.07931820004015,None,145.07931820004015,None,145.07931820004015,None,,,,,,,,,,,107,23,Female,2022-05-02_09h37.55.542,Boat,2022.1.1,60.002184082160895,
neutral,positive,2,k,k,,,,,1,12,30,13,,,,,,,,,,,,,,,,,,,,,,,,,,,,prac,1,1,2,positive,neutral,k,k,1,0.6636230000294745,145.0956148999976,146.10789540002588,146.0717989000259,None,145.0956148999976,None,145.0956148999976,None,145.0956148999976,None,146.74591470001033,None,146.74591470001033,None,146.74591470001033,None,,,,,,,,,,,107,23,Female,2022-05-02_09h37.55.542,Boat,2022.1.1,60.002184082160895,
negative,positive,1,j,l,,,,,1,13,31,6,,,,,,,,,,,,,,,,,,,,,,,,,,,,prac,2,2,1,positive,negative,l,l,1,0.9479983000201173,146.7612308000098,147.78289150004275,147.75890760001494,None,146.7612308000098,None,146.7612308000098,None,146.7612308000098,None,148.69537040001015,None,148.69537040001015,None,148.69537040001015,None,,,,,,,,,,,107,23,Female,2022-05-02_09h37.55.542,Boat,2022.1.1,60.002184082160895,
neutral,negative,2,k,k,,,,,1,14,32,16,,,,,,,,,,,,,,,,,,,,,,,,,,,,prac,2,2,2,negative,neutral,k,j,0,0.9586547000217251,148.7106110000168,149.73268529999768,149.69103640003596,None,148.7106110000168,None,148.7106110000168,None,148.7106110000168,None,150.66894500004128,None,150.66894500004128,None,150.66894500004128,None,,,,,,,,,,,107,23,Female,2022-05-02_09h37.55.542,Boat,2022.1.1,60.002184082160895,
negative,neutral,2,j,l,,,,,1,15,33,12,,,,,,,,,,,,,,,,,,,,,,,,,,,,prac,1,1,2,neutral,negative,l,l,1,1.410890900006052,151.6765318000107,152.69119290000526,152.65773440001067,None,151.6765318000107,None,151.6765318000107,None,151.6765318000107,None,154.0746755000204,None,154.0746755000204,None,154.0746755000204,None,,,,,,,,,,,107,23,Female,2022-05-02_09h37.55.542,Boat,2022.1.1,60.002184082160895,
positive,positive,1,l,j,,,,,1,16,34,2,,,,,,,,,,,,,,,,,,,,,,,,,,,,prac,1,1,1,positive,positive,j,j,1,0.8475794999976642,154.0899444000097,155.09104700002354,155.0748231000034,None,154.0899444000097,None,154.0899444000097,None,154.0899444000097,None,155.92561410004274,None,155.92561410004274,None,155.92561410004274,None,,,,,,,,,,,107,23,Female,2022-05-02_09h37.55.542,Boat,2022.1.1,60.002184082160895,
positive,neutral,2,l,j,,,,,1,17,35,17,,,,,,,,,,,,,,,,,,,,,,,,,,,,prac,2,2,2,neutral,positive,j,j,1,0.8022137000225484,155.93979530001525,156.94930690003093,156.9244449000107,None,155.93979530001525,None,155.93979530001525,None,155.93979530001525,None,157.729443500028,None,157.729443500028,None,157.729443500028,None,,,,,,,,,,,107,23,Female,2022-05-02_09h37.55.542,Boat,2022.1.1,60.002184082160895,
,,,,,,,,,,,,,,,,,,,,,,,,,,,,,,,,,,,,,,,,,,,,,,,,,,,,,,,,,,,,,,,,,,157.74026680004317,None,None,,,,,,,,107,23,Female,2022-05-02_09h37.55.542,Boat,2022.1.1,60.002184082160895,
,,,,,,,,,,,,,,,,,,,,,,,,,,,,,,,,,,,,,,,,,,,,,,,,,,,,,,,,,,,,,,,,,,,,,0.0064814813,-0.15462963,1,0,0,0.006670000031590462,None,107,23,Female,2022-05-02_09h37.55.542,Boat,2022.1.1,60.002184082160895,
negative,positive,2,j,l,,,,,,,,,0,0,0,15,,,,,,,,,,,,,,,,,,,,,,170.8528992999927,None,main,1,1,2,positive,negative,l,l,1,0.8930949000059627,172.87448520003818,173.87510639999527,173.85816870001145,None,172.87448520003818,None,172.87448520003818,None,172.87448520003818,None,174.7460304000182,None,174.7460304000182,None,174.7460304000182,None,,,,,,,,,,,107,23,Female,2022-05-02_09h37.55.542,Boat,2022.1.1,60.002184082160895,
positive,negative,1,l,j,,,,,,,,,0,1,1,5,,,,,,,,,,,,,,,,,,,,,,,,main,2,2,1,negative,positive,j,j,1,0.8330349999596365,174.76893730001757,175.7754217000329,175.74198450002586,None,174.76893730001757,None,174.76893730001757,None,174.76893730001757,None,176.58519340001513,None,176.58519340001513,None,176.58519340001513,None,,,,,,,,,,,107,23,Female,2022-05-02_09h37.55.542,Boat,2022.1.1,60.002184082160895,
negative,neutral,1,j,l,,,,,,,,,0,2,2,3,,,,,,,,,,,,,,,,,,,,,,,,main,2,2,1,neutral,negative,l,l,1,0.7979835000005551,176.60416109999642,177.62498439999763,177.58642180002062,None,176.60416109999642,None,176.60416109999642,None,176.60416109999642,None,178.38634639999364,None,178.38634639999364,None,178.38634639999364,None,,,,,,,,,,,107,23,Female,2022-05-02_09h37.55.542,Boat,2022.1.1,60.002184082160895,
neutral,positive,1,k,k,,,,,,,,,0,3,3,4,,,,,,,,,,,,,,,,,,,,,,,,main,1,1,1,positive,neutral,k,k,1,0.8302997999708168,178.4039321000455,179.40569240000332,179.3864828000078,None,178.4039321000455,None,178.4039321000455,None,178.4039321000455,None,180.2180298000225,None,180.2180298000225,None,180.2180298000225,None,,,,,,,,,,,107,23,Female,2022-05-02_09h37.55.542,Boat,2022.1.1,60.002184082160895,
neutral,positive,2,k,k,,,,,,,,,0,4,4,13,,,,,,,,,,,,,,,,,,,,,,,,main,2,2,2,positive,neutral,k,k,1,0.8109747000271454,180.23633560002781,181.2420183000504,181.2236146000214,None,180.23633560002781,None,180.23633560002781,None,180.23633560002781,None,182.02987810000778,None,182.02987810000778,None,182.02987810000778,None,,,,,,,,,,,107,23,Female,2022-05-02_09h37.55.542,Boat,2022.1.1,60.002184082160895,
negative,negative,2,j,l,,,,,,,,,0,5,5,9,,,,,,,,,,,,,,,,,,,,,,,,main,1,1,2,negative,negative,l,l,1,0.8246143999858759,182.04594520002138,183.05834760004655,183.02374239999335,None,182.04594520002138,None,182.04594520002138,None,182.04594520002138,None,183.8585984000005,None,183.8585984000005,None,183.8585984000005,None,,,,,,,,,,,107,23,Female,2022-05-02_09h37.55.542,Boat,2022.1.1,60.002184082160895,
neutral,neutral,1,k,k,,,,,,,,,0,6,6,1,,,,,,,,,,,,,,,,,,,,,,,,main,1,1,1,neutral,neutral,k,k,1,0.8117449000128545,183.8740813000477,184.89190859999508,184.8753430999932,None,183.8740813000477,None,183.8740813000477,None,183.8740813000477,None,185.67404899999966,None,185.67404899999966,None,185.67404899999966,None,,,,,,,,,,,107,23,Female,2022-05-02_09h37.55.542,Boat,2022.1.1,60.002184082160895,
neutral,neutral,2,k,k,,,,,,,,,0,7,7,10,,,,,,,,,,,,,,,,,,,,,,,,main,2,2,2,neutral,neutral,k,k,1,0.7424023000057787,185.69041410001228,186.6934617999941,186.6752322000102,None,185.69041410001228,None,185.69041410001228,None,185.69041410001228,None,187.41931770000375,None,187.41931770000375,None,187.41931770000375,None,,,,,,,,,,,107,23,Female,2022-05-02_09h37.55.542,Boat,2022.1.1,60.002184082160895,
positive,positive,1,l,j,,,,,,,,,0,8,8,2,,,,,,,,,,,,,,,,,,,,,,,,main,1,1,1,positive,positive,j,j,1,0.9478949999902397,187.438095599995,188.44163930002833,188.42548330000136,None,187.438095599995,None,187.438095599995,None,187.438095599995,None,189.37020830004477,None,189.37020830004477,None,189.37020830004477,None,,,,,,,,,,,107,23,Female,2022-05-02_09h37.55.542,Boat,2022.1.1,60.002184082160895,
neutral,negative,1,k,k,,,,,,,,,0,9,9,7,,,,,,,,,,,,,,,,,,,,,,,,main,2,2,1,negative,neutral,k,k,1,0.7631090000504628,189.38767910003662,190.39190220000455,190.35801379999612,None,189.38767910003662,None,189.38767910003662,None,189.38767910003662,None,191.13542110004929,None,191.13542110004929,None,191.13542110004929,None,,,,,,,,,,,107,23,Female,2022-05-02_09h37.55.542,Boat,2022.1.1,60.002184082160895,
neutral,negative,2,k,k,,,,,,,,,0,10,10,16,,,,,,,,,,,,,,,,,,,,,,,,main,2,2,2,negative,neutral,k,k,1,0.7451155000017025,191.15310400002636,192.15494920004858,192.13628030003747,None,191.15310400002636,None,191.15310400002636,None,191.15310400002636,None,192.88051060002763,None,192.88051060002763,None,192.88051060002763,None,,,,,,,,,,,107,23,Female,2022-05-02_09h37.55.542,Boat,2022.1.1,60.002184082160895,
negative,neutral,2,j,l,,,,,,,,,0,11,11,12,,,,,,,,,,,,,,,,,,,,,,,,main,2,2,2,neutral,negative,l,l,1,0.8454131999751553,192.89686000003712,193.90333200001623,193.88358050002716,None,192.89686000003712,None,192.89686000003712,None,192.89686000003712,None,194.72818230002886,None,194.72818230002886,None,194.72818230002886,None,,,,,,,,,,,107,23,Female,2022-05-02_09h37.55.542,Boat,2022.1.1,60.002184082160895,
positive,neutral,2,l,j,,,,,,,,,0,12,12,17,,,,,,,,,,,,,,,,,,,,,,,,main,1,1,2,neutral,positive,j,j,1,0.7990248999558389,194.74508830002742,195.7534985000384,195.7340213000425,None,194.74508830002742,None,194.74508830002742,None,194.74508830002742,None,196.52986879999517,None,196.52986879999517,None,196.52986879999517,None,,,,,,,,,,,107,23,Female,2022-05-02_09h37.55.542,Boat,2022.1.1,60.002184082160895,
negative,negative,1,j,l,,,,,,,,,0,13,13,0,,,,,,,,,,,,,,,,,,,,,,,,main,2,2,1,negative,negative,l,l,1,0.8311657999875024,196.54790100001264,197.55858450004598,197.52260590001242,None,196.54790100001264,None,196.54790100001264,None,196.54790100001264,None,198.3636129999999,None,198.3636129999999,None,198.3636129999999,None,,,,,,,,,,,107,23,Female,2022-05-02_09h37.55.542,Boat,2022.1.1,60.002184082160895,
positive,neutral,1,l,j,,,,,,,,,0,14,14,8,,,,,,,,,,,,,,,,,,,,,,,,main,1,1,1,neutral,positive,j,j,1,0.9100740000139922,198.37912520003738,199.39252580003813,199.35852410004009,None,198.37912520003738,None,198.37912520003738,None,198.37912520003738,None,200.27677240004996,None,200.27677240004996,None,200.27677240004996,None,,,,,,,,,,,107,23,Female,2022-05-02_09h37.55.542,Boat,2022.1.1,60.002184082160895,
negative,positive,1,j,l,,,,,,,,,0,15,15,6,,,,,,,,,,,,,,,,,,,,,,,,main,1,1,1,positive,negative,l,l,1,0.7336530000320636,200.2917071999982,201.2918790000258,201.27526160003617,None,200.2917071999982,None,200.2917071999982,None,200.2917071999982,None,202.0124898000271,None,202.0124898000271,None,202.0124898000271,None,,,,,,,,,,,107,23,Female,2022-05-02_09h37.55.542,Boat,2022.1.1,60.002184082160895,
positive,negative,2,l,j,,,,,,,,,0,16,16,14,,,,,,,,,,,,,,,,,,,,,,,,main,2,2,2,negative,positive,j,j,1,0.7986046000150964,202.0274726000498,203.0537142000394,203.00879059999716,None,202.0274726000498,None,202.0274726000498,None,202.0274726000498,None,203.81360000002897,None,203.81360000002897,None,203.81360000002897,None,,,,,,,,,,,107,23,Female,2022-05-02_09h37.55.542,Boat,2022.1.1,60.002184082160895,
positive,positive,2,l,j,,,,,,,,,0,17,17,11,,,,,,,,,,,,,,,,,,,,,,,,main,1,1,2,positive,positive,j,j,1,0.8052784000174142,203.83101880003233,204.84183380001923,204.8225660000462,None,203.83101880003233,None,203.83101880003233,None,203.83101880003233,None,205.62446910000872,None,205.62446910000872,None,205.62446910000872,None,,,,,,,,,,,107,23,Female,2022-05-02_09h37.55.542,Boat,2022.1.1,60.002184082160895,
negative,negative,2,j,l,,,,,,,,,1,0,18,9,,,,,,,,,,,,,,,,,,,,,,,,main,2,2,2,negative,negative,l,l,1,0.678552099969238,205.64148099999875,206.64209670003038,206.625420700002,None,205.64148099999875,None,205.64148099999875,None,205.64148099999875,None,207.30535880002427,None,207.30535880002427,None,207.30535880002427,None,,,,,,,,,,,107,23,Female,2022-05-02_09h37.55.542,Boat,2022.1.1,60.002184082160895,
negative,neutral,1,j,l,,,,,,,,,1,1,19,3,,,,,,,,,,,,,,,,,,,,,,,,main,2,2,1,neutral,negative,l,l,1,0.8266075000283308,207.32448619999923,208.32568450004328,208.3094023000449,None,207.32448619999923,None,207.32448619999923,None,207.32448619999923,None,209.13556240001927,None,209.13556240001927,None,209.13556240001927,None,,,,,,,,,,,107,23,Female,2022-05-02_09h37.55.542,Boat,2022.1.1,60.002184082160895,
neutral,negative,2,k,k,,,,,,,,,1,2,20,16,,,,,,,,,,,,,,,,,,,,,,,,main,2,2,2,negative,neutral,k,k,1,0.7016556999878958,209.15306470001815,210.15604180004448,210.13678570004413,None,209.15306470001815,None,209.15306470001815,None,209.15306470001815,None,210.83845360004344,None,210.83845360004344,None,210.83845360004344,None,,,,,,,,,,,107,23,Female,2022-05-02_09h37.55.542,Boat,2022.1.1,60.002184082160895,
neutral,neutral,1,k,k,,,,,,,,,1,3,21,1,,,,,,,,,,,,,,,,,,,,,,,,main,2,2,1,neutral,neutral,k,k,1,0.7194115999736823,210.85821010003565,211.8675365000381,211.84243330004392,None,210.85821010003565,None,210.85821010003565,None,210.85821010003565,None,212.5596436999971,None,212.5596436999971,None,212.5596436999971,None,,,,,,,,,,,107,23,Female,2022-05-02_09h37.55.542,Boat,2022.1.1,60.002184082160895,
negative,negative,1,j,l,,,,,,,,,1,4,22,0,,,,,,,,,,,,,,,,,,,,,,,,main,2,2,1,negative,negative,l,l,1,0.8859535999945365,212.57653840002604,213.5920318000135,213.55365940002957,None,212.57653840002604,None,212.57653840002604,None,212.57653840002604,None,214.4479723000317,None,214.4479723000317,None,214.4479723000317,None,,,,,,,,,,,107,23,Female,2022-05-02_09h37.55.542,Boat,2022.1.1,60.002184082160895,
neutral,neutral,2,k,k,,,,,,,,,1,5,23,10,,,,,,,,,,,,,,,,,,,,,,,,main,2,2,2,neutral,neutral,k,k,1,0.798793800000567,214.46517720003612,215.48425219999626,215.44227620004676,None,214.46517720003612,None,214.46517720003612,None,214.46517720003612,None,216.25077330004424,None,216.25077330004424,None,216.25077330004424,None,,,,,,,,,,,107,23,Female,2022-05-02_09h37.55.542,Boat,2022.1.1,60.002184082160895,
positive,neutral,1,l,j,,,,,,,,,1,6,24,8,,,,,,,,,,,,,,,,,,,,,,,,main,2,2,1,neutral,positive,j,j,1,0.778107899997849,216.26572920003673,217.2711315000197,217.25041440001223,None,216.26572920003673,None,216.26572920003673,None,216.26572920003673,None,218.02975429999643,None,218.02975429999643,None,218.02975429999643,None,,,,,,,,,,,107,23,Female,2022-05-02_09h37.55.542,Boat,2022.1.1,60.002184082160895,
positive,negative,1,l,j,,,,,,,,,1,7,25,5,,,,,,,,,,,,,,,,,,,,,,,,main,2,2,1,negative,positive,j,j,1,0.6641666000359692,218.04494740004884,219.0591689000139,219.02598900004523,None,218.04494740004884,None,218.04494740004884,None,218.04494740004884,None,219.69600250005024,None,219.69600250005024,None,219.69600250005024,None,,,,,,,,,,,107,23,Female,2022-05-02_09h37.55.542,Boat,2022.1.1,60.002184082160895,
positive,neutral,2,l,j,,,,,,,,,1,8,26,17,,,,,,,,,,,,,,,,,,,,,,,,main,2,2,2,neutral,positive,j,j,1,0.6839062999933958,219.71224800002528,220.72400790004758,220.70464180002455,None,219.71224800002528,None,219.71224800002528,None,219.71224800002528,None,221.38291489999975,None,221.38291489999975,None,221.38291489999975,None,,,,,,,,,,,107,23,Female,2022-05-02_09h37.55.542,Boat,2022.1.1,60.002184082160895,
negative,positive,2,j,l,,,,,,,,,1,9,27,15,,,,,,,,,,,,,,,,,,,,,,,,main,1,1,2,positive,negative,l,l,1,0.727437799971085,221.39849200000754,222.40911030001007,222.39177940000081,None,221.39849200000754,None,221.39849200000754,None,221.39849200000754,None,223.11195230004378,None,223.11195230004378,None,223.11195230004378,None,,,,,,,,,,,107,23,Female,2022-05-02_09h37.55.542,Boat,2022.1.1,60.002184082160895,
positive,positive,1,l,j,,,,,,,,,1,10,28,2,,,,,,,,,,,,,,,,,,,,,,,,main,1,1,1,positive,positive,j,j,1,0.8560645999968983,223.12677870003972,224.15095340000698,224.10896610002965,None,223.12677870003972,None,223.12677870003972,None,223.12677870003972,None,224.97162910001353,None,224.97162910001353,None,224.97162910001353,None,,,,,,,,,,,107,23,Female,2022-05-02_09h37.55.542,Boat,2022.1.1,60.002184082160895,
neutral,positive,1,k,k,,,,,,,,,1,11,29,4,,,,,,,,,,,,,,,,,,,,,,,,main,2,2,1,positive,neutral,k,k,1,0.6452017999836244,224.99055740004405,226.00105720001739,225.9591950000031,None,224.99055740004405,None,224.99055740004405,None,224.99055740004405,None,226.61785750001437,None,226.61785750001437,None,226.61785750001437,None,,,,,,,,,,,107,23,Female,2022-05-02_09h37.55.542,Boat,2022.1.1,60.002184082160895,
negative,positive,1,j,l,,,,,,,,,1,12,30,6,,,,,,,,,,,,,,,,,,,,,,,,main,1,1,1,positive,negative,l,l,1,1.461501399986446,226.63463770004455,227.64523130003363,227.6108723000507,None,226.63463770004455,None,226.63463770004455,None,226.63463770004455,None,229.08284960003803,None,229.08284960003803,None,229.08284960003803,None,,,,,,,,,,,107,23,Female,2022-05-02_09h37.55.542,Boat,2022.1.1,60.002184082160895,
positive,positive,2,l,j,,,,,,,,,1,13,31,11,,,,,,,,,,,,,,,,,,,,,,,,main,2,2,2,positive,positive,j,j,1,0.7177243000478484,229.0976265000063,230.11735960002989,230.09133230004227,None,229.0976265000063,None,229.0976265000063,None,229.0976265000063,None,230.80307320002467,None,230.80307320002467,None,230.80307320002467,None,,,,,,,,,,,107,23,Female,2022-05-02_09h37.55.542,Boat,2022.1.1,60.002184082160895,
positive,negative,2,l,j,,,,,,,,,1,14,32,14,,,,,,,,,,,,,,,,,,,,,,,,main,2,2,2,negative,positive,j,j,1,0.7714439000119455,230.81884290004382,231.83795509999618,231.79250189999584,None,230.81884290004382,None,230.81884290004382,None,230.81884290004382,None,232.5757986000157,None,232.5757986000157,None,232.5757986000157,None,,,,,,,,,,,107,23,Female,2022-05-02_09h37.55.542,Boat,2022.1.1,60.002184082160895,
neutral,negative,1,k,k,,,,,,,,,1,15,33,7,,,,,,,,,,,,,,,,,,,,,,,,main,2,2,1,negative,neutral,k,k,1,0.7791567000094801,232.59262830001535,233.60932440002216,233.57416640000883,None,232.59262830001535,None,232.59262830001535,None,232.59262830001535,None,234.3594038000214,None,234.3594038000214,None,234.3594038000214,None,,,,,,,,,,,107,23,Female,2022-05-02_09h37.55.542,Boat,2022.1.1,60.002184082160895,
neutral,positive,2,k,k,,,,,,,,,1,16,34,13,,,,,,,,,,,,,,,,,,,,,,,,main,2,2,2,positive,neutral,k,k,1,0.7470122000086121,234.37497120001353,235.3762561000185,235.35935139999492,None,234.37497120001353,None,234.37497120001353,None,234.37497120001353,None,236.10808330003638,None,236.10808330003638,None,236.10808330003638,None,,,,,,,,,,,107,23,Female,2022-05-02_09h37.55.542,Boat,2022.1.1,60.002184082160895,
negative,neutral,2,j,l,,,,,,,,,1,17,35,12,,,,,,,,,,,,,,,,,,,,,,,,main,1,1,2,neutral,negative,l,l,1,1.0161481999675743,236.12576990004163,237.12643790000584,237.10966620000545,None,236.12576990004163,None,236.12576990004163,None,236.12576990004163,None,238.12655650001253,None,238.12655650001253,None,238.12655650001253,None,,,,,,,,,,,107,23,Female,2022-05-02_09h37.55.542,Boat,2022.1.1,60.002184082160895,
neutral,neutral,1,k,k,,,,,,,,,2,0,36,1,,,,,,,,,,,,,,,,,,,,,,,,main,2,2,1,neutral,neutral,k,k,1,0.8291491999989375,238.1428567999974,239.1599569999962,239.1214164000121,None,238.1428567999974,None,238.1428567999974,None,238.1428567999974,None,239.9598772999947,None,239.9598772999947,None,239.9598772999947,None,,,,,,,,,,,107,23,Female,2022-05-02_09h37.55.542,Boat,2022.1.1,60.002184082160895,
neutral,negative,2,k,k,,,,,,,,,2,1,37,16,,,,,,,,,,,,,,,,,,,,,,,,main,1,1,2,negative,neutral,k,k,1,0.8179897000081837,239.97470800002338,240.97681459999876,240.95829400001094,None,239.97470800002338,None,239.97470800002338,None,239.97470800002338,None,241.78019120000536,None,241.78019120000536,None,241.78019120000536,None,,,,,,,,,,,107,23,Female,2022-05-02_09h37.55.542,Boat,2022.1.1,60.002184082160895,
negative,negative,2,j,l,,,,,,,,,2,2,38,9,,,,,,,,,,,,,,,,,,,,,,,,main,2,2,2,negative,negative,l,l,1,0.9599232000182383,241.79468960000668,242.82072449999396,242.8013686000486,None,241.79468960000668,None,241.79468960000668,None,241.79468960000668,None,243.7430644000182,None,243.7430644000182,None,243.7430644000182,None,,,,,,,,,,,107,23,Female,2022-05-02_09h37.55.542,Boat,2022.1.1,60.002184082160895,
negative,neutral,2,j,l,,,,,,,,,2,3,39,12,,,,,,,,,,,,,,,,,,,,,,,,main,1,1,2,neutral,negative,l,l,1,0.8014829999883659,243.75890489999438,244.7752126000123,244.73736680002185,None,243.75890489999438,None,243.75890489999438,None,243.75890489999438,None,245.5466244000476,None,245.5466244000476,None,245.5466244000476,None,,,,,,,,,,,107,23,Female,2022-05-02_09h37.55.542,Boat,2022.1.1,60.002184082160895,
positive,neutral,1,l,j,,,,,,,,,2,4,40,8,,,,,,,,,,,,,,,,,,,,,,,,main,1,1,1,neutral,positive,j,j,1,0.8261477999622002,245.56153720000293,246.57642590004252,246.54304260003846,None,245.56153720000293,None,245.56153720000293,None,245.56153720000293,None,247.37660970001016,None,247.37660970001016,None,247.37660970001016,None,,,,,,,,,,,107,23,Female,2022-05-02_09h37.55.542,Boat,2022.1.1,60.002184082160895,
positive,neutral,2,l,j,,,,,,,,,2,5,41,17,,,,,,,,,,,,,,,,,,,,,,,,main,2,2,2,neutral,positive,j,j,1,0.8020320999785326,247.39327990001766,248.4093255000189,248.3710200000205,None,247.39327990001766,None,247.39327990001766,None,247.39327990001766,None,249.1813843000331,None,249.1813843000331,None,249.1813843000331,None,,,,,,,,,,,107,23,Female,2022-05-02_09h37.55.542,Boat,2022.1.1,60.002184082160895,
neutral,positive,1,k,k,,,,,,,,,2,6,42,4,,,,,,,,,,,,,,,,,,,,,,,,main,2,2,1,positive,neutral,k,k,1,0.7894127999898046,249.1967140000197,250.209998300008,250.17154579999624,None,249.1967140000197,None,249.1967140000197,None,249.1967140000197,None,250.97520130003105,None,250.97520130003105,None,250.97520130003105,None,,,,,,,,,,,107,23,Female,2022-05-02_09h37.55.542,Boat,2022.1.1,60.002184082160895,
negative,neutral,1,j,l,,,,,,,,,2,7,43,3,,,,,,,,,,,,,,,,,,,,,,,,main,2,2,1,neutral,negative,l,l,1,0.8494397000176832,250.99296120001236,252.00124970002798,251.96003150002798,None,250.99296120001236,None,250.99296120001236,None,250.99296120001236,None,252.82669520003256,None,252.82669520003256,None,252.82669520003256,None,,,,,,,,,,,107,23,Female,2022-05-02_09h37.55.542,Boat,2022.1.1,60.002184082160895,
positive,positive,2,l,j,,,,,,,,,2,8,44,11,,,,,,,,,,,,,,,,,,,,,,,,main,1,1,2,positive,positive,j,j,1,0.8706727999961004,252.84198319999268,253.84560320002493,253.82844310003566,None,252.84198319999268,None,252.84198319999268,None,252.84198319999268,None,254.69794040002162,None,254.69794040002162,None,254.69794040002162,None,,,,,,,,,,,107,23,Female,2022-05-02_09h37.55.542,Boat,2022.1.1,60.002184082160895,
negative,positive,2,j,l,,,,,,,,,2,9,45,15,,,,,,,,,,,,,,,,,,,,,,,,main,1,1,2,positive,negative,l,l,1,1.1021960999933071,254.71606280002743,255.72621720004827,255.7072054000455,None,254.71606280002743,None,254.71606280002743,None,254.71606280002743,None,256.80565580001564,None,256.80565580001564,None,256.80565580001564,None,,,,,,,,,,,107,23,Female,2022-05-02_09h37.55.542,Boat,2022.1.1,60.002184082160895,
positive,negative,2,l,j,,,,,,,,,2,10,46,14,,,,,,,,,,,,,,,,,,,,,,,,main,2,2,2,negative,positive,j,j,1,0.9706161000067368,256.82441290002316,257.82673780003097,257.81031620001886,None,256.82441290002316,None,256.82441290002316,None,256.82441290002316,None,258.77774210004134,None,258.77774210004134,None,258.77774210004134,None,,,,,,,,,,,107,23,Female,2022-05-02_09h37.55.542,Boat,2022.1.1,60.002184082160895,
negative,negative,1,j,l,,,,,,,,,2,11,47,0,,,,,,,,,,,,,,,,,,,,,,,,main,1,1,1,negative,negative,l,l,1,1.3307891000295058,258.79453620000277,259.810111000028,259.77641510003014,None,258.79453620000277,None,258.79453620000277,None,258.79453620000277,None,261.11057070000095,None,261.11057070000095,None,261.11057070000095,None,,,,,,,,,,,107,23,Female,2022-05-02_09h37.55.542,Boat,2022.1.1,60.002184082160895,
neutral,negative,1,k,k,,,,,,,,,2,12,48,7,,,,,,,,,,,,,,,,,,,,,,,,main,1,1,1,negative,neutral,k,k,1,0.7744613999966532,261.1285883000237,262.14329209999414,262.10966570000164,None,261.1285883000237,None,261.1285883000237,None,261.1285883000237,None,262.88960700002497,None,262.88960700002497,None,262.88960700002497,None,,,,,,,,,,,107,23,Female,2022-05-02_09h37.55.542,Boat,2022.1.1,60.002184082160895,
neutral,positive,2,k,k,,,,,,,,,2,13,49,13,,,,,,,,,,,,,,,,,,,,,,,,main,2,2,2,positive,neutral,k,k,1,0.7128267000080086,262.90917890000856,263.91049350000685,263.87645010004053,None,262.90917890000856,None,262.90917890000856,None,262.90917890000856,None,264.60441280002703,None,264.60441280002703,None,264.60441280002703,None,,,,,,,,,,,107,23,Female,2022-05-02_09h37.55.542,Boat,2022.1.1,60.002184082160895,
positive,negative,1,l,j,,,,,,,,,2,14,50,5,,,,,,,,,,,,,,,,,,,,,,,,main,2,2,1,negative,positive,j,j,1,1.253621399984695,264.6211147000431,265.6346345000202,265.59329270001035,None,264.6211147000431,None,264.6211147000431,None,264.6211147000431,None,266.8599400000297,None,266.8599400000297,None,266.8599400000297,None,,,,,,,,,,,107,23,Female,2022-05-02_09h37.55.542,Boat,2022.1.1,60.002184082160895,
positive,positive,1,l,j,,,,,,,,,2,15,51,2,,,,,,,,,,,,,,,,,,,,,,,,main,1,1,1,positive,positive,j,j,1,0.8506644000299275,266.8754324000329,267.8769081000355,267.8597968000104,None,266.8754324000329,None,266.8754324000329,None,266.8754324000329,None,268.71298700004115,None,268.71298700004115,None,268.71298700004115,None,,,,,,,,,,,107,23,Female,2022-05-02_09h37.55.542,Boat,2022.1.1,60.002184082160895,
negative,positive,1,j,l,,,,,,,,,2,16,52,6,,,,,,,,,,,,,,,,,,,,,,,,main,2,2,1,positive,negative,l,l,1,1.4921304000308737,268.7303753000451,269.74350969999796,269.7100992000196,None,268.7303753000451,None,268.7303753000451,None,268.7303753000451,None,271.20907170003045,None,271.20907170003045,None,271.20907170003045,None,,,,,,,,,,,107,23,Female,2022-05-02_09h37.55.542,Boat,2022.1.1,60.002184082160895,
neutral,neutral,2,k,k,,,,,,,,,2,17,53,10,,,,,,,,,,,,,,,,,,,,,,,,main,2,2,2,neutral,neutral,k,k,1,0.8960186999756843,271.22559810004896,272.22679520002566,272.20925900002476,None,271.22559810004896,None,271.22559810004896,None,271.22559810004896,None,273.10850300003074,None,273.10850300003074,None,273.10850300003074,None,,,,,,,,,,,107,23,Female,2022-05-02_09h37.55.542,Boat,2022.1.1,60.002184082160895,
positive,positive,2,l,j,,,,,,,,,3,0,54,11,,,,,,,,,,,,,,,,,,,,,,,,main,2,2,2,positive,positive,j,j,1,1.0212013999698684,273.12585730000865,274.1268207000103,274.11022640002193,None,273.12585730000865,None,273.12585730000865,None,273.12585730000865,None,275.13362010001435,None,275.13362010001435,None,275.13362010001435,None,,,,,,,,,,,107,23,Female,2022-05-02_09h37.55.542,Boat,2022.1.1,60.002184082160895,
negative,neutral,2,j,l,,,,,,,,,3,1,55,12,,,,,,,,,,,,,,,,,,,,,,,,main,1,1,2,neutral,negative,l,l,1,1.113312000001315,275.1501061000163,276.15996990003623,276.1436946000322,None,275.1501061000163,None,275.1501061000163,None,275.1501061000163,None,277.2480624000076,None,277.2480624000076,None,277.2480624000076,None,,,,,,,,,,,107,23,Female,2022-05-02_09h37.55.542,Boat,2022.1.1,60.002184082160895,
negative,neutral,1,j,l,,,,,,,,,3,2,56,3,,,,,,,,,,,,,,,,,,,,,,,,main,2,2,1,neutral,negative,l,l,1,0.9184137000120245,277.26423860003706,278.27890950004803,278.2439090000116,None,277.26423860003706,None,277.26423860003706,None,277.26423860003706,None,279.1705203000223,None,279.1705203000223,None,279.1705203000223,None,,,,,,,,,,,107,23,Female,2022-05-02_09h37.55.542,Boat,2022.1.1,60.002184082160895,
neutral,neutral,2,k,k,,,,,,,,,3,3,57,10,,,,,,,,,,,,,,,,,,,,,,,,main,1,1,2,neutral,neutral,k,k,1,0.886154500010889,279.189495300001,280.19129690004047,280.17220339999767,None,279.189495300001,None,279.189495300001,None,279.189495300001,None,281.0590990000404,None,281.0590990000404,None,281.0590990000404,None,,,,,,,,,,,107,23,Female,2022-05-02_09h37.55.542,Boat,2022.1.1,60.002184082160895,
neutral,positive,1,k,k,,,,,,,,,3,4,58,4,,,,,,,,,,,,,,,,,,,,,,,,main,2,2,1,positive,neutral,k,k,1,1.1797386999824084,281.07603410002775,282.0882389000035,282.044248900027,None,281.07603410002775,None,281.07603410002775,None,281.07603410002775,None,283.24256820002336,None,283.24256820002336,None,283.24256820002336,None,,,,,,,,,,,107,23,Female,2022-05-02_09h37.55.542,Boat,2022.1.1,60.002184082160895,
negative,negative,2,j,l,,,,,,,,,3,5,59,9,,,,,,,,,,,,,,,,,,,,,,,,main,2,2,2,negative,negative,l,l,1,0.8039723000256345,283.2593101999955,284.27168010000605,284.2269293999998,None,283.2593101999955,None,283.2593101999955,None,283.2593101999955,None,285.04804070000534,None,285.04804070000534,None,285.04804070000534,None,,,,,,,,,,,107,23,Female,2022-05-02_09h37.55.542,Boat,2022.1.1,60.002184082160895,
negative,positive,2,j,l,,,,,,,,,3,6,60,15,,,,,,,,,,,,,,,,,,,,,,,,main,2,2,2,positive,negative,l,l,1,0.7091318999882787,285.0633114000084,286.08826099999715,286.0435379000264,None,285.0633114000084,None,285.0633114000084,None,285.0633114000084,None,286.7605777000193,None,286.7605777000193,None,286.7605777000193,None,,,,,,,,,,,107,23,Female,2022-05-02_09h37.55.542,Boat,2022.1.1,60.002184082160895,
positive,neutral,2,l,j,,,,,,,,,3,7,61,17,,,,,,,,,,,,,,,,,,,,,,,,main,2,2,2,neutral,positive,j,j,1,0.7528613000176847,286.7769565000199,287.7775909000193,287.76065660000313,None,286.7769565000199,None,286.7769565000199,None,286.7769565000199,None,288.5151815000339,None,288.5151815000339,None,288.5151815000339,None,,,,,,,,,,,107,23,Female,2022-05-02_09h37.55.542,Boat,2022.1.1,60.002184082160895,
negative,positive,1,j,l,,,,,,,,,3,8,62,6,,,,,,,,,,,,,,,,,,,,,,,,main,2,2,1,positive,negative,l,l,1,0.6923998999991454,288.5308394000167,289.54415590001736,289.5051924000145,None,288.5308394000167,None,288.5308394000167,None,288.5308394000167,None,290.2108181999996,None,290.2108181999996,None,290.2108181999996,None,,,,,,,,,,,107,23,Female,2022-05-02_09h37.55.542,Boat,2022.1.1,60.002184082160895,
positive,negative,1,l,j,,,,,,,,,3,9,63,5,,,,,,,,,,,,,,,,,,,,,,,,main,1,1,1,negative,positive,j,j,1,0.9308049000101164,290.2253467999981,291.226643800037,291.2078562999959,None,290.2253467999981,None,290.2253467999981,None,290.2253467999981,None,292.144358099997,None,292.144358099997,None,292.144358099997,None,,,,,,,,,,,107,23,Female,2022-05-02_09h37.55.542,Boat,2022.1.1,60.002184082160895,
neutral,neutral,1,k,k,,,,,,,,,3,10,64,1,,,,,,,,,,,,,,,,,,,,,,,,main,1,1,1,neutral,neutral,k,k,1,0.7954484999645501,292.1609612000175,293.1770866000443,293.14316480001435,None,292.1609612000175,None,292.1609612000175,None,292.1609612000175,None,293.94398870002476,None,293.94398870002476,None,293.94398870002476,None,,,,,,,,,,,107,23,Female,2022-05-02_09h37.55.542,Boat,2022.1.1,60.002184082160895,
neutral,positive,2,k,k,,,,,,,,,3,11,65,13,,,,,,,,,,,,,,,,,,,,,,,,main,2,2,2,positive,neutral,k,k,1,0.8116413000389002,293.9593541000504,294.9605872000102,294.94409480004106,None,293.9593541000504,None,293.9593541000504,None,293.9593541000504,None,295.75938000003805,None,295.75938000003805,None,295.75938000003805,None,,,,,,,,,,,107,23,Female,2022-05-02_09h37.55.542,Boat,2022.1.1,60.002184082160895,
neutral,negative,1,k,k,,,,,,,,,3,12,66,7,,,,,,,,,,,,,,,,,,,,,,,,main,2,2,1,negative,neutral,k,k,1,0.7883758000098169,295.7760358999949,296.7774735999992,296.7599964000401,None,295.7760358999949,None,295.7760358999949,None,295.7760358999949,None,297.5497790000285,None,297.5497790000285,None,297.5497790000285,None,,,,,,,,,,,107,23,Female,2022-05-02_09h37.55.542,Boat,2022.1.1,60.002184082160895,
neutral,negative,2,k,k,,,,,,,,,3,13,67,16,,,,,,,,,,,,,,,,,,,,,,,,main,1,1,2,negative,neutral,k,k,1,0.7904957999708131,297.56730520003475,298.5773245000164,298.54143330000807,None,297.56730520003475,None,297.56730520003475,None,297.56730520003475,None,299.3442947000498,None,299.3442947000498,None,299.3442947000498,None,,,,,,,,,,,107,23,Female,2022-05-02_09h37.55.542,Boat,2022.1.1,60.002184082160895,
positive,negative,2,l,j,,,,,,,,,3,14,68,14,,,,,,,,,,,,,,,,,,,,,,,,main,2,2,2,negative,positive,j,j,1,1.011262399959378,299.35954750003293,300.3725791000179,300.3274774000165,None,299.35954750003293,None,299.35954750003293,None,299.35954750003293,None,301.3588020000374,None,301.3588020000374,None,301.3588020000374,None,,,,,,,,,,,107,23,Female,2022-05-02_09h37.55.542,Boat,2022.1.1,60.002184082160895,
positive,positive,1,l,j,,,,,,,,,3,15,69,2,,,,,,,,,,,,,,,,,,,,,,,,main,2,2,1,positive,positive,j,j,1,1.2310032999957912,301.3761475000065,302.3772572000162,302.3608616000274,None,301.3761475000065,None,301.3761475000065,None,301.3761475000065,None,303.5930701000383,None,303.5930701000383,None,303.5930701000383,None,,,,,,,,,,,107,23,Female,2022-05-02_09h37.55.542,Boat,2022.1.1,60.002184082160895,
positive,neutral,1,l,j,,,,,,,,,3,16,70,8,,,,,,,,,,,,,,,,,,,,,,,,main,2,2,1,neutral,positive,j,j,1,0.7337859999970533,303.6112027000054,304.6105749999988,304.5943177000154,None,303.6112027000054,None,303.6112027000054,None,303.6112027000054,None,305.3300282000331,None,305.3300282000331,None,305.3300282000331,None,,,,,,,,,,,107,23,Female,2022-05-02_09h37.55.542,Boat,2022.1.1,60.002184082160895,
negative,negative,1,j,l,,,,,,,,,3,17,71,0,,,,,,,,,,,,,,,,,,,,,,,,main,1,1,1,negative,negative,l,l,1,0.9712016999837942,305.34716430003755,306.36060870002257,306.3262942000292,None,305.34716430003755,None,305.34716430003755,None,305.34716430003755,None,307.30512380003927,None,307.30512380003927,None,307.30512380003927,None,,,,,,,,,,,107,23,Female,2022-05-02_09h37.55.542,Boat,2022.1.1,60.002184082160895,
neutral,neutral,2,k,k,,,,,,,,,4,0,72,10,,,,,,,,,,,,,,,,,,,,,,,,main,2,2,2,neutral,neutral,k,k,1,0.7822779000271112,307.32116150000365,308.3277291000122,308.30822649999755,None,307.32116150000365,None,307.32116150000365,None,307.32116150000365,None,309.08813470000166,None,309.08813470000166,None,309.08813470000166,None,,,,,,,,,,,107,23,Female,2022-05-02_09h37.55.542,Boat,2022.1.1,60.002184082160895,
negative,negative,2,j,l,,,,,,,,,4,1,73,9,,,,,,,,,,,,,,,,,,,,,,,,main,2,2,2,negative,negative,l,l,1,0.72172239999054,309.10537860001205,310.1104841000051,310.0940827000304,None,309.10537860001205,None,309.10537860001205,None,309.10537860001205,None,310.81084740002404,None,310.81084740002404,None,310.81084740002404,None,,,,,,,,,,,107,23,Female,2022-05-02_09h37.55.542,Boat,2022.1.1,60.002184082160895,
positive,positive,1,l,j,,,,,,,,,4,2,74,2,,,,,,,,,,,,,,,,,,,,,,,,main,2,2,1,positive,positive,j,j,1,0.8519834000035189,310.82839710003464,311.8447880000458,311.8055224000127,None,310.82839710003464,None,310.82839710003464,None,310.82839710003464,None,312.6685385000077,None,312.6685385000077,None,312.6685385000077,None,,,,,,,,,,,107,23,Female,2022-05-02_09h37.55.542,Boat,2022.1.1,60.002184082160895,
neutral,positive,2,k,k,,,,,,,,,4,3,75,13,,,,,,,,,,,,,,,,,,,,,,,,main,2,2,2,positive,neutral,k,k,1,0.8280956000089645,312.68398040003376,313.694496000011,313.677679800021,None,312.68398040003376,None,312.68398040003376,None,312.68398040003376,None,314.49680150001075,None,314.49680150001075,None,314.49680150001075,None,,,,,,,,,,,107,23,Female,2022-05-02_09h37.55.542,Boat,2022.1.1,60.002184082160895,
positive,negative,2,l,j,,,,,,,,,4,4,76,14,,,,,,,,,,,,,,,,,,,,,,,,main,2,2,2,negative,positive,j,j,1,0.7964555000071414,314.5127836000174,315.53909890004434,315.49441630003275,None,314.5127836000174,None,314.5127836000174,None,314.5127836000174,None,316.2942189000081,None,316.2942189000081,None,316.2942189000081,None,,,,,,,,,,,107,23,Female,2022-05-02_09h37.55.542,Boat,2022.1.1,60.002184082160895,
negative,positive,2,j,l,,,,,,,,,4,5,77,15,,,,,,,,,,,,,,,,,,,,,,,,main,2,2,2,positive,negative,l,l,1,0.8506294999970123,316.31189680000534,317.31108210003003,317.29441100003896,None,316.31189680000534,None,316.31189680000534,None,316.31189680000534,None,318.14888389999976,None,318.14888389999976,None,318.14888389999976,None,,,,,,,,,,,107,23,Female,2022-05-02_09h37.55.542,Boat,2022.1.1,60.002184082160895,
neutral,negative,2,k,k,,,,,,,,,4,6,78,16,,,,,,,,,,,,,,,,,,,,,,,,main,2,2,2,negative,neutral,k,k,1,0.7740515999612398,318.16490430000704,319.17624530004105,319.15592960000504,None,318.16490430000704,None,318.16490430000704,None,318.16490430000704,None,319.92700390003154,None,319.92700390003154,None,319.92700390003154,None,,,,,,,,,,,107,23,Female,2022-05-02_09h37.55.542,Boat,2022.1.1,60.002184082160895,
positive,negative,1,l,j,,,,,,,,,4,7,79,5,,,,,,,,,,,,,,,,,,,,,,,,main,2,2,1,negative,positive,j,j,1,0.8048207000247203,319.94324310001684,320.9470504000201,320.9110835000174,None,319.94324310001684,None,319.94324310001684,None,319.94324310001684,None,321.73326420001683,None,321.73326420001683,None,321.73326420001683,None,,,,,,,,,,,107,23,Female,2022-05-02_09h37.55.542,Boat,2022.1.1,60.002184082160895,
positive,neutral,1,l,j,,,,,,,,,4,8,80,8,,,,,,,,,,,,,,,,,,,,,,,,main,2,2,1,neutral,positive,j,j,1,0.7562702000141144,321.7502683000057,322.7555706000421,322.73633660003543,None,321.7502683000057,None,321.7502683000057,None,321.7502683000057,None,323.49491980000164,None,323.49491980000164,None,323.49491980000164,None,,,,,,,,,,,107,23,Female,2022-05-02_09h37.55.542,Boat,2022.1.1,60.002184082160895,
neutral,negative,1,k,k,,,,,,,,,4,9,81,7,,,,,,,,,,,,,,,,,,,,,,,,main,2,2,1,negative,neutral,k,k,1,0.8358066999935545,323.5105007000384,324.51987110002665,324.49316610000096,None,323.5105007000384,None,323.5105007000384,None,323.5105007000384,None,325.33387270002856,None,325.33387270002856,None,325.33387270002856,None,,,,,,,,,,,107,23,Female,2022-05-02_09h37.55.542,Boat,2022.1.1,60.002184082160895,
negative,neutral,1,j,l,,,,,,,,,4,10,82,3,,,,,,,,,,,,,,,,,,,,,,,,main,2,2,1,neutral,negative,l,l,1,0.7278082999982871,325.34818650002126,326.3617207000498,326.34409710002365,None,325.34818650002126,None,325.34818650002126,None,325.34818650002126,None,327.06185460000995,None,327.06185460000995,None,327.06185460000995,None,,,,,,,,,,,107,23,Female,2022-05-02_09h37.55.542,Boat,2022.1.1,60.002184082160895,
negative,positive,1,j,l,,,,,,,,,4,11,83,6,,,,,,,,,,,,,,,,,,,,,,,,main,2,2,1,positive,negative,l,l,1,0.8088645999669097,327.07776270003524,328.07796580001013,328.06114800000796,None,327.07776270003524,None,327.07776270003524,None,327.07776270003524,None,328.8750843000365,None,328.8750843000365,None,328.8750843000365,None,,,,,,,,,,,107,23,Female,2022-05-02_09h37.55.542,Boat,2022.1.1,60.002184082160895,
positive,neutral,2,l,j,,,,,,,,,4,12,84,17,,,,,,,,,,,,,,,,,,,,,,,,main,2,2,2,neutral,positive,j,j,1,0.7743091000011191,328.8931885000202,329.9065429000184,329.8615035000257,None,328.8931885000202,None,328.8931885000202,None,328.8931885000202,None,330.6519574000034,None,330.6519574000034,None,330.6519574000034,None,,,,,,,,,,,107,23,Female,2022-05-02_09h37.55.542,Boat,2022.1.1,60.002184082160895,
neutral,positive,1,k,k,,,,,,,,,4,13,85,4,,,,,,,,,,,,,,,,,,,,,,,,main,1,1,1,positive,neutral,k,k,1,0.8298957999795675,330.6669036000385,331.6799683000427,331.66207200003555,None,330.6669036000385,None,330.6669036000385,None,330.6669036000385,None,332.48255650004137,None,332.48255650004137,None,332.48255650004137,None,,,,,,,,,,,107,23,Female,2022-05-02_09h37.55.542,Boat,2022.1.1,60.002184082160895,
positive,positive,2,l,j,,,,,,,,,4,14,86,11,,,,,,,,,,,,,,,,,,,,,,,,main,1,1,2,positive,positive,j,j,1,0.8212332000257447,332.4998321000021,333.5085211000405,333.489394800039,None,332.4998321000021,None,332.4998321000021,None,332.4998321000021,None,334.30820190001975,None,334.30820190001975,None,334.30820190001975,None,,,,,,,,,,,107,23,Female,2022-05-02_09h37.55.542,Boat,2022.1.1,60.002184082160895,
negative,neutral,2,j,l,,,,,,,,,4,15,87,12,,,,,,,,,,,,,,,,,,,,,,,,main,1,1,2,neutral,negative,l,l,1,0.859652700019069,334.32600800000364,335.3360601000022,335.2949348000111,None,334.32600800000364,None,334.32600800000364,None,334.32600800000364,None,336.16970910001544,None,336.16970910001544,None,336.16970910001544,None,,,,,,,,,,,107,23,Female,2022-05-02_09h37.55.542,Boat,2022.1.1,60.002184082160895,
negative,negative,1,j,l,,,,,,,,,4,16,88,0,,,,,,,,,,,,,,,,,,,,,,,,main,1,1,1,negative,negative,l,l,1,1.0487126999651082,336.18513800000073,337.19255950005027,337.1736279000179,None,336.18513800000073,None,336.18513800000073,None,336.18513800000073,None,338.220417000039,None,338.220417000039,None,338.220417000039,None,,,,,,,,,,,107,23,Female,2022-05-02_09h37.55.542,Boat,2022.1.1,60.002184082160895,
neutral,neutral,1,k,k,,,,,,,,,4,17,89,1,,,,,,,,,,,,,,,,,,,,,,,,main,1,1,1,neutral,neutral,k,k,1,1.2544830999686383,338.23896210000385,339.24357650004094,339.22411220002687,None,338.23896210000385,None,338.23896210000385,None,338.23896210000385,None,340.4772707000142,None,340.4772707000142,None,340.4772707000142,None,,,,,,,,,,,107,23,Female,2022-05-02_09h37.55.542,Boat,2022.1.1,60.002184082160895,
positive,negative,2,l,j,,,,,,,,,5,0,90,14,,,,,,,,,,,,,,,,,,,,,,,,main,1,1,2,negative,positive,j,j,1,0.9720028000301681,340.4938691999996,341.5032897000201,341.4615724000032,None,340.4938691999996,None,340.4938691999996,None,340.4938691999996,None,342.45097510002086,None,342.45097510002086,None,342.45097510002086,None,,,,,,,,,,,107,23,Female,2022-05-02_09h37.55.542,Boat,2022.1.1,60.002184082160895,
neutral,positive,1,k,k,,,,,,,,,5,1,91,4,,,,,,,,,,,,,,,,,,,,,,,,main,1,1,1,positive,neutral,k,k,1,0.8893216000287794,342.4664013000438,343.4781804000377,343.4432062000269,None,342.4664013000438,None,342.4664013000438,None,342.4664013000438,None,344.3447639000136,None,344.3447639000136,None,344.3447639000136,None,,,,,,,,,,,107,23,Female,2022-05-02_09h37.55.542,Boat,2022.1.1,60.002184082160895,
positive,neutral,2,l,j,,,,,,,,,5,2,92,17,,,,,,,,,,,,,,,,,,,,,,,,main,1,1,2,neutral,positive,j,j,1,0.8532231000135653,344.36069100000896,345.3628812000388,345.345014200022,None,344.36069100000896,None,344.36069100000896,None,344.36069100000896,None,346.1999533000402,None,346.1999533000402,None,346.1999533000402,None,,,,,,,,,,,107,23,Female,2022-05-02_09h37.55.542,Boat,2022.1.1,60.002184082160895,
positive,negative,1,l,j,,,,,,,,,5,3,93,5,,,,,,,,,,,,,,,,,,,,,,,,main,1,1,1,negative,positive,j,j,1,1.0686906999908388,346.2162536000251,347.22324290004326,347.22324290004326,None,346.2162536000251,None,346.2162536000251,None,346.2162536000251,None,348.2715772000141,None,348.2715772000141,None,348.2715772000141,None,,,,,,,,,,,107,23,Female,2022-05-02_09h37.55.542,Boat,2022.1.1,60.002184082160895,
positive,positive,2,l,j,,,,,,,,,5,4,94,11,,,,,,,,,,,,,,,,,,,,,,,,main,1,1,2,positive,positive,j,j,1,0.884109599981457,348.2915007999982,349.31121559999883,349.2732031000196,None,348.2915007999982,None,348.2915007999982,None,348.2915007999982,None,350.1582735000178,None,350.1582735000178,None,350.1582735000178,None,,,,,,,,,,,107,23,Female,2022-05-02_09h37.55.542,Boat,2022.1.1,60.002184082160895,
positive,neutral,1,l,j,,,,,,,,,5,5,95,8,,,,,,,,,,,,,,,,,,,,,,,,main,1,1,1,neutral,positive,j,j,1,1.2235321999760345,350.17782020004233,351.1806101000402,351.16168670001207,None,350.17782020004233,None,350.17782020004233,None,350.17782020004233,None,352.3828013000078,None,352.3828013000078,None,352.3828013000078,None,,,,,,,,,,,107,23,Female,2022-05-02_09h37.55.542,Boat,2022.1.1,60.002184082160895,
negative,neutral,2,j,l,,,,,,,,,5,6,96,12,,,,,,,,,,,,,,,,,,,,,,,,main,1,1,2,neutral,negative,l,l,1,0.889880400034599,352.39890540001215,353.41179209999973,353.3758567000041,None,352.39890540001215,None,352.39890540001215,None,352.39890540001215,None,354.2770671000238,None,354.2770671000238,None,354.2770671000238,None,,,,,,,,,,,107,23,Female,2022-05-02_09h37.55.542,Boat,2022.1.1,60.002184082160895,
negative,positive,1,j,l,,,,,,,,,5,7,97,6,,,,,,,,,,,,,,,,,,,,,,,,main,2,2,1,positive,negative,l,l,1,0.8185546999447979,354.2935565999942,355.2955741000478,355.2616694000317,None,354.2935565999942,None,354.2935565999942,None,354.2935565999942,None,356.0971113000181,None,356.0971113000181,None,356.0971113000181,None,,,,,,,,,,,107,23,Female,2022-05-02_09h37.55.542,Boat,2022.1.1,60.002184082160895,
negative,negative,1,j,l,,,,,,,,,5,8,98,0,,,,,,,,,,,,,,,,,,,,,,,,main,1,1,1,negative,negative,l,l,1,0.9608752999920398,356.11216469999636,357.12569410004653,357.10631930001546,None,356.11216469999636,None,356.11216469999636,None,356.11216469999636,None,358.06135890001894,None,358.06135890001894,None,358.06135890001894,None,,,,,,,,,,,107,23,Female,2022-05-02_09h37.55.542,Boat,2022.1.1,60.002184082160895,
negative,positive,2,j,l,,,,,,,,,5,9,99,15,,,,,,,,,,,,,,,,,,,,,,,,main,2,2,2,positive,negative,l,l,1,1.0328015999984927,358.07863410003483,359.095641300024,359.05927349999547,None,358.07863410003483,None,358.07863410003483,None,358.07863410003483,None,360.0961869000224,None,360.0961869000224,None,360.0961869000224,None,,,,,,,,,,,107,23,Female,2022-05-02_09h37.55.542,Boat,2022.1.1,60.002184082160895,
neutral,negative,2,k,k,,,,,,,,,5,10,100,16,,,,,,,,,,,,,,,,,,,,,,,,main,2,2,2,negative,neutral,k,k,1,0.8365338000003248,360.11288480000803,361.1285350000253,361.0903167000506,None,360.11288480000803,None,360.11288480000803,None,360.11288480000803,None,361.9347174000344,None,361.9347174000344,None,361.9347174000344,None,,,,,,,,,,,107,23,Female,2022-05-02_09h37.55.542,Boat,2022.1.1,60.002184082160895,
positive,positive,1,l,j,,,,,,,,,5,11,101,2,,,,,,,,,,,,,,,,,,,,,,,,main,1,1,1,positive,positive,j,j,1,1.0845043999725021,361.9509767999989,362.9616643000045,362.94260400003986,None,361.9509767999989,None,361.9509767999989,None,361.9509767999989,None,364.02417290004666,None,364.02417290004666,None,364.02417290004666,None,,,,,,,,,,,107,23,Female,2022-05-02_09h37.55.542,Boat,2022.1.1,60.002184082160895,
negative,negative,2,j,l,,,,,,,,,5,12,102,9,,,,,,,,,,,,,,,,,,,,,,,,main,2,2,2,negative,negative,l,l,1,1.2407630999805406,364.0397479000385,365.0481035000412,365.01209770003334,None,364.0397479000385,None,364.0397479000385,None,364.0397479000385,None,366.26541060003217,None,366.26541060003217,None,366.26541060003217,None,,,,,,,,,,,107,23,Female,2022-05-02_09h37.55.542,Boat,2022.1.1,60.002184082160895,
neutral,negative,1,k,k,,,,,,,,,5,13,103,7,,,,,,,,,,,,,,,,,,,,,,,,main,1,1,1,negative,neutral,k,k,1,0.9069111000280827,366.2801326000481,367.2900431000162,367.2900431000162,None,366.2801326000481,None,366.2801326000481,None,366.2801326000481,None,368.17594360004875,None,368.17594360004875,None,368.17594360004875,None,,,,,,,,,,,107,23,Female,2022-05-02_09h37.55.542,Boat,2022.1.1,60.002184082160895,
neutral,positive,2,k,k,,,,,,,,,5,14,104,13,,,,,,,,,,,,,,,,,,,,,,,,main,1,1,2,positive,neutral,k,k,1,0.9399408000172116,368.1942468000343,369.20931800000835,369.1705201000441,None,368.1942468000343,None,368.1942468000343,None,368.1942468000343,None,370.11656690002417,None,370.11656690002417,None,370.11656690002417,None,,,,,,,,,,,107,23,Female,2022-05-02_09h37.55.542,Boat,2022.1.1,60.002184082160895,
neutral,neutral,2,k,k,,,,,,,,,5,15,105,10,,,,,,,,,,,,,,,,,,,,,,,,main,1,1,2,neutral,neutral,k,k,1,1.1678017999511212,370.1323062000447,371.1454805000103,371.10779790004017,None,370.1323062000447,None,370.1323062000447,None,370.1323062000447,None,372.2888998000184,None,372.2888998000184,None,372.2888998000184,None,,,,,,,,,,,107,23,Female,2022-05-02_09h37.55.542,Boat,2022.1.1,60.002184082160895,
neutral,neutral,1,k,k,,,,,,,,,5,16,106,1,,,,,,,,,,,,,,,,,,,,,,,,main,1,1,1,neutral,neutral,k,k,1,1.0481423999881372,372.30847410002025,373.32029840000905,373.2790260000038,None,372.30847410002025,None,372.30847410002025,None,372.30847410002025,None,374.3404319000314,None,374.3404319000314,None,374.3404319000314,None,,,,,,,,,,,107,23,Female,2022-05-02_09h37.55.542,Boat,2022.1.1,60.002184082160895,
negative,neutral,1,j,l,,,,,,,,,5,17,107,3,,,,,,,,,,,,,,,,,,,,,,,,main,1,1,1,neutral,negative,l,l,1,1.6973578000324778,374.3608960999991,375.3704796000384,375.32913780002855,None,374.3608960999991,None,374.3608960999991,None,374.3608960999991,None,377.0456802000408,None,377.0456802000408,None,377.0456802000408,None,,,,,,,,,,,107,23,Female,2022-05-02_09h37.55.542,Boat,2022.1.1,60.002184082160895,
neutral,negative,2,k,k,,,,,,,,,6,0,108,16,,,,,,,,,,,,,,,,,,,,,,,,main,2,2,2,negative,neutral,k,k,1,0.8104734999942593,378.0643316000351,379.0790796999936,379.0428396000061,None,378.0643316000351,None,378.0643316000351,None,378.0643316000351,None,379.8620631000143,None,379.8620631000143,None,379.8620631000143,None,,,,,,,,,,,107,23,Female,2022-05-02_09h37.55.542,Boat,2022.1.1,60.002184082160895,
negative,negative,1,j,l,,,,,,,,,6,1,109,0,,,,,,,,,,,,,,,,,,,,,,,,main,2,2,1,negative,negative,l,l,1,0.797135700006038,379.87742520001484,380.87926210003207,380.86112310003955,None,379.87742520001484,None,379.87742520001484,None,379.87742520001484,None,381.6624661000445,None,381.6624661000445,None,381.6624661000445,None,,,,,,,,,,,107,23,Female,2022-05-02_09h37.55.542,Boat,2022.1.1,60.002184082160895,
positive,negative,1,l,j,,,,,,,,,6,2,110,5,,,,,,,,,,,,,,,,,,,,,,,,main,2,2,1,negative,positive,j,j,1,1.13149619998876,381.6779553000233,382.68049020000035,382.645971800026,None,381.6779553000233,None,381.6779553000233,None,381.6779553000233,None,383.7964347000001,None,383.7964347000001,None,383.7964347000001,None,,,,,,,,,,,107,23,Female,2022-05-02_09h37.55.542,Boat,2022.1.1,60.002184082160895,
neutral,neutral,2,k,k,,,,,,,,,6,3,111,10,,,,,,,,,,,,,,,,,,,,,,,,main,1,1,2,neutral,neutral,k,k,1,0.7454556999728084,383.8112115000258,384.8125362000428,384.7946274999995,None,383.8112115000258,None,383.8112115000258,None,383.8112115000258,None,385.54555230003314,None,385.54555230003314,None,385.54555230003314,None,,,,,,,,,,,107,23,Female,2022-05-02_09h37.55.542,Boat,2022.1.1,60.002184082160895,
neutral,positive,2,k,k,,,,,,,,,6,4,112,13,,,,,,,,,,,,,,,,,,,,,,,,main,1,1,2,positive,neutral,k,k,1,0.5889319999841973,385.5609555999981,386.562377299997,386.5291284000268,None,385.5609555999981,None,385.5609555999981,None,385.5609555999981,None,387.13629560001425,None,387.13629560001425,None,387.13629560001425,None,,,,,,,,,,,107,23,Female,2022-05-02_09h37.55.542,Boat,2022.1.1,60.002184082160895,
negative,neutral,1,j,l,,,,,,,,,6,5,113,3,,,,,,,,,,,,,,,,,,,,,,,,main,1,1,1,neutral,negative,l,l,1,0.7960586000117473,387.15276409999933,388.17089660000056,388.12939120002557,None,387.15276409999933,None,387.15276409999933,None,387.15276409999933,None,388.93409680002367,None,388.93409680002367,None,388.93409680002367,None,,,,,,,,,,,107,23,Female,2022-05-02_09h37.55.542,Boat,2022.1.1,60.002184082160895,
neutral,positive,1,k,k,,,,,,,,,6,6,114,4,,,,,,,,,,,,,,,,,,,,,,,,main,1,1,1,positive,neutral,k,k,1,0.7745341000263579,388.9495479000034,389.9737696000375,389.92619850003393,None,388.9495479000034,None,388.9495479000034,None,388.9495479000034,None,390.71239760003516,None,390.71239760003516,None,390.71239760003516,None,,,,,,,,,,,107,23,Female,2022-05-02_09h37.55.542,Boat,2022.1.1,60.002184082160895,
negative,negative,2,j,l,,,,,,,,,6,7,115,9,,,,,,,,,,,,,,,,,,,,,,,,main,2,2,2,negative,negative,l,l,1,0.7904029000201263,390.7278787000105,391.7427468000096,391.7238976000226,None,390.7278787000105,None,390.7278787000105,None,390.7278787000105,None,392.5066800000262,None,392.5066800000262,None,392.5066800000262,None,,,,,,,,,,,107,23,Female,2022-05-02_09h37.55.542,Boat,2022.1.1,60.002184082160895,
negative,neutral,2,j,l,,,,,,,,,6,8,116,12,,,,,,,,,,,,,,,,,,,,,,,,main,2,2,2,neutral,negative,l,l,1,0.6919580000103451,392.5273187000421,393.5405799000291,393.495945200033,None,392.5273187000421,None,392.5273187000421,None,392.5273187000421,None,394.1991026000236,None,394.1991026000236,None,394.1991026000236,None,,,,,,,,,,,107,23,Female,2022-05-02_09h37.55.542,Boat,2022.1.1,60.002184082160895,
positive,neutral,2,l,j,,,,,,,,,6,9,117,17,,,,,,,,,,,,,,,,,,,,,,,,main,1,1,2,neutral,positive,j,j,1,0.7339543999987654,394.2143206000328,395.2291855000076,395.193188300007,None,394.2143206000328,None,394.2143206000328,None,394.2143206000328,None,395.93536930005064,None,395.93536930005064,None,395.93536930005064,None,,,,,,,,,,,107,23,Female,2022-05-02_09h37.55.542,Boat,2022.1.1,60.002184082160895,
positive,negative,2,l,j,,,,,,,,,6,10,118,14,,,,,,,,,,,,,,,,,,,,,,,,main,1,1,2,negative,positive,j,j,1,0.6158955999999307,395.9501036000438,396.9705574000254,396.9293537000194,None,395.9501036000438,None,395.9501036000438,None,395.9501036000438,None,397.5557794000255,None,397.5557794000255,None,397.5557794000255,None,,,,,,,,,,,107,23,Female,2022-05-02_09h37.55.542,Boat,2022.1.1,60.002184082160895,
positive,neutral,1,l,j,,,,,,,,,6,11,119,8,,,,,,,,,,,,,,,,,,,,,,,,main,2,2,1,neutral,positive,j,j,1,1.2102400999865495,397.5714113000431,398.5792587000178,398.5452138000401,None,397.5714113000431,None,397.5714113000431,None,397.5714113000431,None,399.7660028000013,None,399.7660028000013,None,399.7660028000013,None,,,,,,,,,,,107,23,Female,2022-05-02_09h37.55.542,Boat,2022.1.1,60.002184082160895,
positive,positive,1,l,j,,,,,,,,,6,12,120,2,,,,,,,,,,,,,,,,,,,,,,,,main,2,2,1,positive,positive,j,j,1,0.6331518999650143,399.7816243999987,400.7960611000308,400.7606199000147,None,399.7816243999987,None,399.7816243999987,None,399.7816243999987,None,401.4037856000126,None,401.4037856000126,None,401.4037856000126,None,,,,,,,,,,,107,23,Female,2022-05-02_09h37.55.542,Boat,2022.1.1,60.002184082160895,
negative,positive,1,j,l,,,,,,,,,6,13,121,6,,,,,,,,,,,,,,,,,,,,,,,,main,2,2,1,positive,negative,l,j,0,1.0085536999977194,401.4187380000367,402.4305838000146,402.41264870000305,None,401.4187380000367,None,401.4187380000367,None,401.4187380000367,None,403.41685330000473,None,403.41685330000473,None,403.41685330000473,None,,,,,,,,,,,107,23,Female,2022-05-02_09h37.55.542,Boat,2022.1.1,60.002184082160895,
negative,positive,2,j,l,,,,,,,,,6,14,122,15,,,,,,,,,,,,,,,,,,,,,,,,main,1,1,2,positive,negative,l,l,1,0.9376593999913894,404.43098390003433,405.4453366000089,405.4241225000005,None,404.43098390003433,None,404.43098390003433,None,404.43098390003433,None,406.356226600043,None,406.356226600043,None,406.356226600043,None,,,,,,,,,,,107,23,Female,2022-05-02_09h37.55.542,Boat,2022.1.1,60.002184082160895,
positive,positive,2,l,j,,,,,,,,,6,15,123,11,,,,,,,,,,,,,,,,,,,,,,,,main,2,2,2,positive,positive,j,j,1,0.7854054999770597,406.3724145000451,407.3879291000194,407.3462783000432,None,406.3724145000451,None,406.3724145000451,None,406.3724145000451,None,408.145112100034,None,408.145112100034,None,408.145112100034,None,,,,,,,,,,,107,23,Female,2022-05-02_09h37.55.542,Boat,2022.1.1,60.002184082160895,
neutral,negative,1,k,k,,,,,,,,,6,16,124,7,,,,,,,,,,,,,,,,,,,,,,,,main,2,2,1,negative,neutral,k,k,1,0.7567985999630764,408.1619562000269,409.1632288999972,409.14591760002077,None,408.1619562000269,None,408.1619562000269,None,408.1619562000269,None,409.9048959000269,None,409.9048959000269,None,409.9048959000269,None,,,,,,,,,,,107,23,Female,2022-05-02_09h37.55.542,Boat,2022.1.1,60.002184082160895,
neutral,neutral,1,k,k,,,,,,,,,6,17,125,1,,,,,,,,,,,,,,,,,,,,,,,,main,1,1,1,neutral,neutral,k,k,1,0.7786658000550233,409.92263310001,410.9296252000495,410.91312760004075,None,409.92263310001,None,409.92263310001,None,409.92263310001,None,411.68462000004945,None,411.68462000004945,None,411.68462000004945,None,,,,,,,,,,,107,23,Female,2022-05-02_09h37.55.542,Boat,2022.1.1,60.002184082160895,
negative,negative,1,j,l,,,,,,,,,7,0,126,0,,,,,,,,,,,,,,,,,,,,,,,,main,2,2,1,negative,negative,l,l,1,0.8820492000086233,411.6994651000132,412.7214248999953,412.69655970000895,None,411.6994651000132,None,411.6994651000132,None,411.6994651000132,None,413.56790030000263,None,413.56790030000263,None,413.56790030000263,None,,,,,,,,,,,107,23,Female,2022-05-02_09h37.55.542,Boat,2022.1.1,60.002184082160895,
neutral,neutral,2,k,k,,,,,,,,,7,1,127,10,,,,,,,,,,,,,,,,,,,,,,,,main,1,1,2,neutral,neutral,k,k,1,0.7809002999565564,413.5837301000138,414.5907773000072,414.571043700038,None,413.5837301000138,None,413.5837301000138,None,413.5837301000138,None,415.3531090999953,None,415.3531090999953,None,415.3531090999953,None,,,,,,,,,,,107,23,Female,2022-05-02_09h37.55.542,Boat,2022.1.1,60.002184082160895,
negative,negative,2,j,l,,,,,,,,,7,2,128,9,,,,,,,,,,,,,,,,,,,,,,,,main,2,2,2,negative,negative,l,l,1,1.0144220999791287,415.36894310003845,416.3795569000067,416.3629250000231,None,415.36894310003845,None,415.36894310003845,None,415.36894310003845,None,417.3703426000196,None,417.3703426000196,None,417.3703426000196,None,,,,,,,,,,,107,23,Female,2022-05-02_09h37.55.542,Boat,2022.1.1,60.002184082160895,
positive,negative,1,l,j,,,,,,,,,7,3,129,5,,,,,,,,,,,,,,,,,,,,,,,,main,1,1,1,negative,positive,j,j,1,0.7471913999761455,417.3858417000156,418.40455650002696,418.37977160001174,None,417.3858417000156,None,417.3858417000156,None,417.3858417000156,None,419.11786470001095,None,419.11786470001095,None,419.11786470001095,None,,,,,,,,,,,107,23,Female,2022-05-02_09h37.55.542,Boat,2022.1.1,60.002184082160895,
positive,negative,2,l,j,,,,,,,,,7,4,130,14,,,,,,,,,,,,,,,,,,,,,,,,main,1,1,2,negative,positive,j,j,1,0.9143394999555312,419.13305040000705,420.14686380000785,420.11334500001976,None,419.13305040000705,None,419.13305040000705,None,419.13305040000705,None,421.03409430003956,None,421.03409430003956,None,421.03409430003956,None,,,,,,,,,,,107,23,Female,2022-05-02_09h37.55.542,Boat,2022.1.1,60.002184082160895,
negative,neutral,1,j,l,,,,,,,,,7,5,131,3,,,,,,,,,,,,,,,,,,,,,,,,main,2,2,1,neutral,negative,l,l,1,1.840496200020425,421.05203050002456,422.07142410002416,422.02974000002723,None,421.05203050002456,None,421.05203050002456,None,421.05203050002456,None,423.88388350000605,None,423.88388350000605,None,423.88388350000605,None,,,,,,,,,,,107,23,Female,2022-05-02_09h37.55.542,Boat,2022.1.1,60.002184082160895,
negative,neutral,2,j,l,,,,,,,,,7,6,132,12,,,,,,,,,,,,,,,,,,,,,,,,main,2,2,2,neutral,negative,l,l,1,0.9091913000447676,424.89846430002945,425.9243472000235,425.88058910000836,None,424.89846430002945,None,424.89846430002945,None,424.89846430002945,None,426.79534270000875,None,426.79534270000875,None,426.79534270000875,None,,,,,,,,,,,107,23,Female,2022-05-02_09h37.55.542,Boat,2022.1.1,60.002184082160895,
negative,positive,2,j,l,,,,,,,,,7,7,133,15,,,,,,,,,,,,,,,,,,,,,,,,main,2,2,2,positive,negative,l,l,1,0.7444076000247151,426.8118209000095,427.8134948000079,427.7963773999945,None,426.8118209000095,None,426.8118209000095,None,426.8118209000095,None,428.54392870001027,None,428.54392870001027,None,428.54392870001027,None,,,,,,,,,,,107,23,Female,2022-05-02_09h37.55.542,Boat,2022.1.1,60.002184082160895,
positive,positive,1,l,j,,,,,,,,,7,8,134,2,,,,,,,,,,,,,,,,,,,,,,,,main,1,1,1,positive,positive,j,j,1,0.8409800999797881,428.5622030000086,429.57994760002475,429.5440049000317,None,428.5622030000086,None,428.5622030000086,None,428.5622030000086,None,430.3893437999999,None,430.3893437999999,None,430.3893437999999,None,,,,,,,,,,,107,23,Female,2022-05-02_09h37.55.542,Boat,2022.1.1,60.002184082160895,
neutral,negative,1,k,k,,,,,,,,,7,9,135,7,,,,,,,,,,,,,,,,,,,,,,,,main,1,1,1,negative,neutral,k,k,1,0.8043974999454804,430.40737349999836,431.4136827000184,431.39677950000623,None,430.40737349999836,None,430.40737349999836,None,430.40737349999836,None,432.19703630000583,None,432.19703630000583,None,432.19703630000583,None,,,,,,,,,,,107,23,Female,2022-05-02_09h37.55.542,Boat,2022.1.1,60.002184082160895,
neutral,neutral,1,k,k,,,,,,,,,7,10,136,1,,,,,,,,,,,,,,,,,,,,,,,,main,2,2,1,neutral,neutral,k,k,1,0.7619926999905147,432.21246440004325,433.21396550000645,433.21396550000645,None,432.21246440004325,None,432.21246440004325,None,432.21246440004325,None,433.9619012000388,None,433.9619012000388,None,433.9619012000388,None,,,,,,,,,,,107,23,Female,2022-05-02_09h37.55.542,Boat,2022.1.1,60.002184082160895,
neutral,negative,2,k,k,,,,,,,,,7,11,137,16,,,,,,,,,,,,,,,,,,,,,,,,main,1,1,2,negative,neutral,k,k,1,0.8033551999833435,433.97918980004033,434.98040370002855,434.96274720004294,None,433.97918980004033,None,433.97918980004033,None,433.97918980004033,None,435.76679530004037,None,435.76679530004037,None,435.76679530004037,None,,,,,,,,,,,107,23,Female,2022-05-02_09h37.55.542,Boat,2022.1.1,60.002184082160895,
positive,neutral,2,l,j,,,,,,,,,7,12,138,17,,,,,,,,,,,,,,,,,,,,,,,,main,2,2,2,neutral,positive,j,j,1,0.89781579998089,435.7831065999926,436.80821380001726,436.7633397000027,None,435.7831065999926,None,435.7831065999926,None,435.7831065999926,None,437.6671786000137,None,437.6671786000137,None,437.6671786000137,None,,,,,,,,,,,107,23,Female,2022-05-02_09h37.55.542,Boat,2022.1.1,60.002184082160895,
positive,neutral,1,l,j,,,,,,,,,7,13,139,8,,,,,,,,,,,,,,,,,,,,,,,,main,2,2,1,neutral,positive,j,j,1,0.9017504000221379,437.6818388000247,438.69686890003504,438.6619675999973,None,437.6818388000247,None,437.6818388000247,None,437.6818388000247,None,439.5695462000207,None,439.5695462000207,None,439.5695462000207,None,,,,,,,,,,,107,23,Female,2022-05-02_09h37.55.542,Boat,2022.1.1,60.002184082160895,
neutral,positive,2,k,k,,,,,,,,,7,14,140,13,,,,,,,,,,,,,,,,,,,,,,,,main,1,1,2,positive,neutral,k,k,1,0.7665530999656767,439.5865180999972,440.5969693000079,440.5606219000183,None,439.5865180999972,None,439.5865180999972,None,439.5865180999972,None,441.3414686000091,None,441.3414686000091,None,441.3414686000091,None,,,,,,,,,,,107,23,Female,2022-05-02_09h37.55.542,Boat,2022.1.1,60.002184082160895,
positive,positive,2,l,j,,,,,,,,,7,15,141,11,,,,,,,,,,,,,,,,,,,,,,,,main,1,1,2,positive,positive,j,j,1,0.912850700027775,441.36070419999305,442.3637751000351,442.34685740002897,None,441.36070419999305,None,441.36070419999305,None,441.36070419999305,None,443.256842600042,None,443.256842600042,None,443.256842600042,None,,,,,,,,,,,107,23,Female,2022-05-02_09h37.55.542,Boat,2022.1.1,60.002184082160895,
negative,positive,1,j,l,,,,,,,,,7,16,142,6,,,,,,,,,,,,,,,,,,,,,,,,main,2,2,1,positive,negative,l,l,1,0.8994335999595933,443.27571990003344,444.2883451000089,444.2472689000424,None,443.27571990003344,None,443.27571990003344,None,443.27571990003344,None,445.1582660000189,None,445.1582660000189,None,445.1582660000189,None,,,,,,,,,,,107,23,Female,2022-05-02_09h37.55.542,Boat,2022.1.1,60.002184082160895,
neutral,positive,1,k,k,,,,,,,,,7,17,143,4,,,,,,,,,,,,,,,,,,,,,,,,main,1,1,1,positive,neutral,k,k,1,0.9505278000142425,445.17726050002966,446.18058020004537,446.1606636000215,None,445.17726050002966,None,445.17726050002966,None,445.17726050002966,None,447.11155340003313,None,447.11155340003313,None,447.11155340003313,None,,,,,,,,,,,107,23,Female,2022-05-02_09h37.55.542,Boat,2022.1.1,60.002184082160895,
positive,negative,2,l,j,,,,,,,,,8,0,144,14,,,,,,,,,,,,,,,,,,,,,,,,main,1,1,2,negative,positive,j,j,1,0.9305034999852069,447.12980230001267,448.13051250000717,448.11293750000186,None,447.12980230001267,None,447.12980230001267,None,447.12980230001267,None,449.0444587000296,None,449.0444587000296,None,449.0444587000296,None,,,,,,,,,,,107,23,Female,2022-05-02_09h37.55.542,Boat,2022.1.1,60.002184082160895,
positive,neutral,1,l,j,,,,,,,,,8,1,145,8,,,,,,,,,,,,,,,,,,,,,,,,main,2,2,1,neutral,positive,j,j,1,0.9320209000143223,449.0621147000347,450.0719781999942,450.0469138000044,None,449.0621147000347,None,449.0621147000347,None,449.0621147000347,None,450.9805676000309,None,450.9805676000309,None,450.9805676000309,None,,,,,,,,,,,107,23,Female,2022-05-02_09h37.55.542,Boat,2022.1.1,60.002184082160895,
negative,negative,1,j,l,,,,,,,,,8,2,146,0,,,,,,,,,,,,,,,,,,,,,,,,main,2,2,1,negative,negative,l,l,1,0.8194378000334837,450.99582430004375,451.99718100001337,451.9797994000255,None,450.99582430004375,None,450.99582430004375,None,450.99582430004375,None,452.8019465000019,None,452.8019465000019,None,452.8019465000019,None,,,,,,,,,,,107,23,Female,2022-05-02_09h37.55.542,Boat,2022.1.1,60.002184082160895,
negative,neutral,1,j,l,,,,,,,,,8,3,147,3,,,,,,,,,,,,,,,,,,,,,,,,main,2,2,1,neutral,negative,l,l,1,0.697045499982778,452.8176913000061,453.83056540001417,453.7969241000246,None,452.8176913000061,None,452.8176913000061,None,452.8176913000061,None,454.501731200004,None,454.501731200004,None,454.501731200004,None,,,,,,,,,,,107,23,Female,2022-05-02_09h37.55.542,Boat,2022.1.1,60.002184082160895,
neutral,negative,1,k,k,,,,,,,,,8,4,148,7,,,,,,,,,,,,,,,,,,,,,,,,main,1,1,1,negative,neutral,k,k,1,0.8221091000013985,454.518888599996,455.54156710003735,455.4970788000501,None,454.518888599996,None,454.518888599996,None,454.518888599996,None,456.3280955000431,None,456.3280955000431,None,456.3280955000431,None,,,,,,,,,,,107,23,Female,2022-05-02_09h37.55.542,Boat,2022.1.1,60.002184082160895,
negative,positive,1,j,l,,,,,,,,,8,5,149,6,,,,,,,,,,,,,,,,,,,,,,,,main,2,2,1,positive,negative,l,l,1,1.5633889000164345,456.34590250003384,457.34715060004964,457.3283317000023,None,456.34590250003384,None,456.34590250003384,None,456.34590250003384,None,458.89936130004935,None,458.89936130004935,None,458.89936130004935,None,,,,,,,,,,,107,23,Female,2022-05-02_09h37.55.542,Boat,2022.1.1,60.002184082160895,
neutral,neutral,1,k,k,,,,,,,,,8,6,150,1,,,,,,,,,,,,,,,,,,,,,,,,main,1,1,1,neutral,neutral,k,k,1,0.9655635000090115,459.9150767000392,460.9294671000098,460.910603300028,None,459.9150767000392,None,459.9150767000392,None,459.9150767000392,None,461.86691439999265,None,461.86691439999265,None,461.86691439999265,None,,,,,,,,,,,107,23,Female,2022-05-02_09h37.55.542,Boat,2022.1.1,60.002184082160895,
neutral,positive,1,k,k,,,,,,,,,8,7,151,4,,,,,,,,,,,,,,,,,,,,,,,,main,2,2,1,positive,neutral,k,k,1,0.7608748000347987,461.8828657999984,462.9053077000426,462.86438230000203,None,461.8828657999984,None,461.8828657999984,None,461.8828657999984,None,463.6312053000205,None,463.6312053000205,None,463.6312053000205,None,,,,,,,,,,,107,23,Female,2022-05-02_09h37.55.542,Boat,2022.1.1,60.002184082160895,
neutral,negative,2,k,k,,,,,,,,,8,8,152,16,,,,,,,,,,,,,,,,,,,,,,,,main,2,2,2,negative,neutral,k,k,1,0.7842481999541633,463.64784950000467,464.6473759000073,464.63061089999974,None,463.64784950000467,None,463.64784950000467,None,463.64784950000467,None,465.41801980001617,None,465.41801980001617,None,465.41801980001617,None,,,,,,,,,,,107,23,Female,2022-05-02_09h37.55.542,Boat,2022.1.1,60.002184082160895,
negative,neutral,2,j,l,,,,,,,,,8,9,153,12,,,,,,,,,,,,,,,,,,,,,,,,main,1,1,2,neutral,negative,l,l,1,1.0329726000200026,465.43406630004756,466.4555389000452,466.4142110000248,None,465.43406630004756,None,465.43406630004756,None,465.43406630004756,None,467.455577000021,None,467.455577000021,None,467.455577000021,None,,,,,,,,,,,107,23,Female,2022-05-02_09h37.55.542,Boat,2022.1.1,60.002184082160895,
positive,negative,1,l,j,,,,,,,,,8,10,154,5,,,,,,,,,,,,,,,,,,,,,,,,main,1,1,1,negative,positive,j,j,1,0.7461727000190876,467.4700423000031,468.4776789000025,468.45868959999643,None,467.4700423000031,None,467.4700423000031,None,467.4700423000031,None,469.2034965000115,None,469.2034965000115,None,469.2034965000115,None,,,,,,,,,,,107,23,Female,2022-05-02_09h37.55.542,Boat,2022.1.1,60.002184082160895,
positive,positive,1,l,j,,,,,,,,,8,11,155,2,,,,,,,,,,,,,,,,,,,,,,,,main,2,2,1,positive,positive,j,j,1,0.7740768999792635,469.219570700021,470.22538670001086,470.22538670001086,None,469.219570700021,None,469.219570700021,None,469.219570700021,None,470.98016690000657,None,470.98016690000657,None,470.98016690000657,None,,,,,,,,,,,107,23,Female,2022-05-02_09h37.55.542,Boat,2022.1.1,60.002184082160895,
negative,negative,2,j,l,,,,,,,,,8,12,156,9,,,,,,,,,,,,,,,,,,,,,,,,main,2,2,2,negative,negative,l,l,1,0.8400663000065833,470.99623620003695,472.00559590000194,471.96434430003865,None,470.99623620003695,None,470.99623620003695,None,470.99623620003695,None,472.8243761000107,None,472.8243761000107,None,472.8243761000107,None,,,,,,,,,,,107,23,Female,2022-05-02_09h37.55.542,Boat,2022.1.1,60.002184082160895,
positive,neutral,2,l,j,,,,,,,,,8,13,157,17,,,,,,,,,,,,,,,,,,,,,,,,main,2,2,2,neutral,positive,j,j,1,0.8477409000042826,472.8418849000009,473.8480265000253,473.8283450000454,None,472.8418849000009,None,472.8418849000009,None,472.8418849000009,None,474.6739427000051,None,474.6739427000051,None,474.6739427000051,None,,,,,,,,,,,107,23,Female,2022-05-02_09h37.55.542,Boat,2022.1.1,60.002184082160895,
negative,positive,2,j,l,,,,,,,,,8,14,158,15,,,,,,,,,,,,,,,,,,,,,,,,main,2,2,2,positive,negative,l,l,1,1.220576699997764,474.69043200003216,475.6974266000325,475.68031740002334,None,474.69043200003216,None,474.69043200003216,None,474.69043200003216,None,476.89750490003496,None,476.89750490003496,None,476.89750490003496,None,,,,,,,,,,,107,23,Female,2022-05-02_09h37.55.542,Boat,2022.1.1,60.002184082160895,
positive,positive,2,l,j,,,,,,,,,8,15,159,11,,,,,,,,,,,,,,,,,,,,,,,,main,1,1,2,positive,positive,j,j,1,0.7697571000317112,476.9127505000215,477.91444680001587,477.8973561000312,None,476.9127505000215,None,476.9127505000215,None,476.9127505000215,None,478.6692836000351,None,478.6692836000351,None,478.6692836000351,None,,,,,,,,,,,107,23,Female,2022-05-02_09h37.55.542,Boat,2022.1.1,60.002184082160895,
neutral,positive,2,k,k,,,,,,,,,8,16,160,13,,,,,,,,,,,,,,,,,,,,,,,,main,2,2,2,positive,neutral,k,k,1,0.6810826000291854,478.68696720001753,479.70578870002646,479.66434640000807,None,478.68696720001753,None,478.68696720001753,None,478.68696720001753,None,480.3515625000349,None,480.3515625000349,None,480.3515625000349,None,,,,,,,,,,,107,23,Female,2022-05-02_09h37.55.542,Boat,2022.1.1,60.002184082160895,
neutral,neutral,2,k,k,,,,,,,,,8,17,161,10,,,,,,,,,,,,,,,,,,,,,,,,main,1,1,2,neutral,neutral,k,k,1,0.8270444999798201,480.36858010001015,481.3809615999926,481.347690900031,None,480.36858010001015,None,480.36858010001015,None,480.36858010001015,None,482.18268520004347,None,482.18268520004347,None,482.18268520004347,None,,,,,,,,,,,107,23,Female,2022-05-02_09h37.55.542,Boat,2022.1.1,60.002184082160895,
negative,positive,1,j,l,,,,,,,,,9,0,162,6,,,,,,,,,,,,,,,,,,,,,,,,main,2,2,1,positive,negative,l,l,1,1.0538727999664843,482.1975927000167,483.2139123000088,483.19465469999705,None,482.1975927000167,None,482.1975927000167,None,482.1975927000167,None,484.2397200000472,None,484.2397200000472,None,484.2397200000472,None,,,,,,,,,,,107,23,Female,2022-05-02_09h37.55.542,Boat,2022.1.1,60.002184082160895,
negative,positive,2,j,l,,,,,,,,,9,1,163,15,,,,,,,,,,,,,,,,,,,,,,,,main,2,2,2,positive,negative,l,l,1,0.7438414000207558,484.25575060001574,485.2644900000305,485.2454668999999,None,484.25575060001574,None,484.25575060001574,None,484.25575060001574,None,485.9842876000097,None,485.9842876000097,None,485.9842876000097,None,,,,,,,,,,,107,23,Female,2022-05-02_09h37.55.542,Boat,2022.1.1,60.002184082160895,
neutral,negative,1,k,k,,,,,,,,,9,2,164,7,,,,,,,,,,,,,,,,,,,,,,,,main,2,2,1,negative,neutral,k,k,1,0.7463143999921158,485.9994694000343,487.01459249999607,486.9759102000389,None,485.9994694000343,None,485.9994694000343,None,485.9994694000343,None,487.731405600009,None,487.731405600009,None,487.731405600009,None,,,,,,,,,,,107,23,Female,2022-05-02_09h37.55.542,Boat,2022.1.1,60.002184082160895,
negative,neutral,2,j,l,,,,,,,,,9,3,165,12,,,,,,,,,,,,,,,,,,,,,,,,main,2,2,2,neutral,negative,l,l,1,0.6492908999789506,487.7495229000342,488.76123350003036,488.7424186000135,None,487.7495229000342,None,487.7495229000342,None,487.7495229000342,None,489.3852430000319,None,489.3852430000319,None,489.3852430000319,None,,,,,,,,,,,107,23,Female,2022-05-02_09h37.55.542,Boat,2022.1.1,60.002184082160895,
neutral,neutral,2,k,k,,,,,,,,,9,4,166,10,,,,,,,,,,,,,,,,,,,,,,,,main,2,2,2,neutral,neutral,k,k,1,0.6836587000289001,489.3998527000076,490.4145494000404,490.3982251000125,None,489.3998527000076,None,489.3998527000076,None,489.3998527000076,None,491.07239280004285,None,491.07239280004285,None,491.07239280004285,None,,,,,,,,,,,107,23,Female,2022-05-02_09h37.55.542,Boat,2022.1.1,60.002184082160895,
positive,negative,2,l,j,,,,,,,,,9,5,167,14,,,,,,,,,,,,,,,,,,,,,,,,main,2,2,2,negative,positive,j,j,1,0.8918673999723978,491.0880955000175,492.1094932000269,492.08980950003024,None,491.0880955000175,None,491.0880955000175,None,491.0880955000175,None,492.96473830004686,None,492.96473830004686,None,492.96473830004686,None,,,,,,,,,,,107,23,Female,2022-05-02_09h37.55.542,Boat,2022.1.1,60.002184082160895,
negative,negative,2,j,l,,,,,,,,,9,6,168,9,,,,,,,,,,,,,,,,,,,,,,,,main,2,2,2,negative,negative,l,l,1,0.7664583000005223,492.9819290000014,493.98185929999454,493.96495180000784,None,492.9819290000014,None,492.9819290000014,None,492.9819290000014,None,494.7343657000223,None,494.7343657000223,None,494.7343657000223,None,,,,,,,,,,,107,23,Female,2022-05-02_09h37.55.542,Boat,2022.1.1,60.002184082160895,
positive,neutral,2,l,j,,,,,,,,,9,7,169,17,,,,,,,,,,,,,,,,,,,,,,,,main,2,2,2,neutral,positive,j,j,1,0.7835482000373304,494.7495495000039,495.7652017000364,495.72949580004206,None,494.7495495000039,None,494.7495495000039,None,494.7495495000039,None,496.5223418000154,None,496.5223418000154,None,496.5223418000154,None,,,,,,,,,,,107,23,Female,2022-05-02_09h37.55.542,Boat,2022.1.1,60.002184082160895,
negative,negative,1,j,l,,,,,,,,,9,8,170,0,,,,,,,,,,,,,,,,,,,,,,,,main,2,2,1,negative,negative,l,l,1,1.0733004999929108,496.53790870000375,497.54782050003996,497.5296487000305,None,496.53790870000375,None,496.53790870000375,None,496.53790870000375,None,498.59687270000575,None,498.59687270000575,None,498.59687270000575,None,,,,,,,,,,,107,23,Female,2022-05-02_09h37.55.542,Boat,2022.1.1,60.002184082160895,
neutral,positive,1,k,k,,,,,,,,,9,9,171,4,,,,,,,,,,,,,,,,,,,,,,,,main,1,1,1,positive,neutral,k,k,1,0.7206640999647789,498.61375590000534,499.61524690000806,499.59838989999844,None,498.61375590000534,None,498.61375590000534,None,498.61375590000534,None,500.32213820002505,None,500.32213820002505,None,500.32213820002505,None,,,,,,,,,,,107,23,Female,2022-05-02_09h37.55.542,Boat,2022.1.1,60.002184082160895,
positive,negative,1,l,j,,,,,,,,,9,10,172,5,,,,,,,,,,,,,,,,,,,,,,,,main,1,1,1,negative,positive,j,j,1,1.1083272999967448,500.3369837999926,501.3426385000348,501.3426385000348,None,500.3369837999926,None,500.3369837999926,None,500.3369837999926,None,502.43137480001894,None,502.43137480001894,None,502.43137480001894,None,,,,,,,,,,,107,23,Female,2022-05-02_09h37.55.542,Boat,2022.1.1,60.002184082160895,
negative,neutral,1,j,l,,,,,,,,,9,11,173,3,,,,,,,,,,,,,,,,,,,,,,,,main,2,2,1,neutral,negative,l,l,1,0.8544276999891736,502.4473619000055,503.46411220001755,503.4261535000405,None,502.4473619000055,None,502.4473619000055,None,502.4473619000055,None,504.28949910004155,None,504.28949910004155,None,504.28949910004155,None,,,,,,,,,,,107,23,Female,2022-05-02_09h37.55.542,Boat,2022.1.1,60.002184082160895,
neutral,neutral,1,k,k,,,,,,,,,9,12,174,1,,,,,,,,,,,,,,,,,,,,,,,,main,1,1,1,neutral,neutral,k,k,1,0.8406247000093572,504.3076258000219,505.3152458000113,505.2812804999994,None,504.3076258000219,None,504.3076258000219,None,504.3076258000219,None,506.131757200032,None,506.131757200032,None,506.131757200032,None,,,,,,,,,,,107,23,Female,2022-05-02_09h37.55.542,Boat,2022.1.1,60.002184082160895,
positive,positive,2,l,j,,,,,,,,,9,13,175,11,,,,,,,,,,,,,,,,,,,,,,,,main,2,2,2,positive,positive,j,j,1,1.20282770000631,506.147825299995,507.17276099999435,507.12636390002444,None,506.147825299995,None,506.147825299995,None,506.147825299995,None,508.3365766000119,None,508.3365766000119,None,508.3365766000119,None,,,,,,,,,,,107,23,Female,2022-05-02_09h37.55.542,Boat,2022.1.1,60.002184082160895,
positive,neutral,1,l,j,,,,,,,,,9,14,176,8,,,,,,,,,,,,,,,,,,,,,,,,main,2,2,1,neutral,positive,j,j,1,1.0615144000039436,508.3545156000182,509.3651038000244,509.3301782000344,None,508.3545156000182,None,508.3545156000182,None,508.3545156000182,None,510.4020214000251,None,510.4020214000251,None,510.4020214000251,None,,,,,,,,,,,107,23,Female,2022-05-02_09h37.55.542,Boat,2022.1.1,60.002184082160895,
positive,positive,1,l,j,,,,,,,,,9,15,177,2,,,,,,,,,,,,,,,,,,,,,,,,main,2,2,1,positive,positive,j,j,1,0.7548850000021048,510.41955750004854,511.4395735000144,511.39828389999457,None,510.41955750004854,None,510.41955750004854,None,510.41955750004854,None,512.1612119000405,None,512.1612119000405,None,512.1612119000405,None,,,,,,,,,,,107,23,Female,2022-05-02_09h37.55.542,Boat,2022.1.1,60.002184082160895,
neutral,positive,2,k,k,,,,,,,,,9,16,178,13,,,,,,,,,,,,,,,,,,,,,,,,main,1,1,2,positive,neutral,k,k,1,0.8166456000180915,512.1805032000411,513.1983590000309,513.1595138999983,None,512.1805032000411,None,512.1805032000411,None,512.1805032000411,None,513.9816278000129,None,513.9816278000129,None,513.9816278000129,None,,,,,,,,,,,107,23,Female,2022-05-02_09h37.55.542,Boat,2022.1.1,60.002184082160895,
neutral,negative,2,k,k,,,,,,,,,9,17,179,16,,,,,,,,,,,,,,,,,,,,,,,,main,2,2,2,negative,neutral,k,,0,1.0191266000038013,513.9970853000414,514.9984173999983,514.9984173999983,None,513.9970853000414,None,513.9970853000414,None,513.9970853000414,None,516.0087794000283,None,516.0087794000283,None,516.0087794000283,None,,,,,,,,,,,107,23,Female,2022-05-02_09h37.55.542,Boat,2022.1.1,60.002184082160895,
negative,neutral,2,j,l,,,,,,,,,10,0,180,12,,,,,,,,,,,,,,,,,,,,,,,,main,1,1,2,neutral,negative,l,l,1,0.8947459000046365,517.0166910000262,518.0330786000122,517.9982686000294,None,517.0166910000262,None,517.0166910000262,None,517.0166910000262,None,518.8982939000474,None,518.8982939000474,None,518.8982939000474,None,,,,,,,,,,,107,23,Female,2022-05-02_09h37.55.542,Boat,2022.1.1,60.002184082160895,
neutral,positive,1,k,k,,,,,,,,,10,1,181,4,,,,,,,,,,,,,,,,,,,,,,,,main,1,1,1,positive,neutral,k,k,1,0.8197562000132166,518.9163835000363,519.9317161000217,519.8932254000101,None,518.9163835000363,None,518.9163835000363,None,518.9163835000363,None,520.7220453000394,None,520.7220453000394,None,520.7220453000394,None,,,,,,,,,,,107,23,Female,2022-05-02_09h37.55.542,Boat,2022.1.1,60.002184082160895,
neutral,negative,2,k,k,,,,,,,,,10,2,182,16,,,,,,,,,,,,,,,,,,,,,,,,main,1,1,2,negative,neutral,k,k,1,0.8313760999590158,520.7390734000364,521.748436200025,521.7136877000448,None,520.7390734000364,None,520.7390734000364,None,520.7390734000364,None,522.5558145000017,None,522.5558145000017,None,522.5558145000017,None,,,,,,,,,,,107,23,Female,2022-05-02_09h37.55.542,Boat,2022.1.1,60.002184082160895,
neutral,neutral,1,k,k,,,,,,,,,10,3,183,1,,,,,,,,,,,,,,,,,,,,,,,,main,1,1,1,neutral,neutral,k,k,1,2.0143657000153325,522.5715227000182,523.5762558000279,523.5762558000279,None,522.5715227000182,None,522.5715227000182,None,522.5715227000182,None,525.5803106999956,None,525.5803106999956,None,525.5803106999956,None,,,,,,,,,,,107,23,Female,2022-05-02_09h37.55.542,Boat,2022.1.1,60.002184082160895,
positive,neutral,1,l,j,,,,,,,,,10,4,184,8,,,,,,,,,,,,,,,,,,,,,,,,main,2,2,1,neutral,positive,j,j,1,0.9110472000320442,526.6003562000114,527.6263788000215,527.5816588000162,None,526.6003562000114,None,526.6003562000114,None,526.6003562000114,None,528.4989372000331,None,528.4989372000331,None,528.4989372000331,None,,,,,,,,,,,107,23,Female,2022-05-02_09h37.55.542,Boat,2022.1.1,60.002184082160895,
neutral,negative,1,k,k,,,,,,,,,10,5,185,7,,,,,,,,,,,,,,,,,,,,,,,,main,2,2,1,negative,neutral,k,k,1,0.8460003000218421,528.5141868999926,529.5159266000264,529.4979509999976,None,528.5141868999926,None,528.5141868999926,None,528.5141868999926,None,530.3487703000195,None,530.3487703000195,None,530.3487703000195,None,,,,,,,,,,,107,23,Female,2022-05-02_09h37.55.542,Boat,2022.1.1,60.002184082160895,
negative,positive,2,j,l,,,,,,,,,10,6,186,15,,,,,,,,,,,,,,,,,,,,,,,,main,1,1,2,positive,negative,l,l,1,0.8382052999804728,530.3642776000197,531.3737361000385,531.348564999993,None,530.3642776000197,None,530.3642776000197,None,530.3642776000197,None,532.1910797999939,None,532.1910797999939,None,532.1910797999939,None,,,,,,,,,,,107,23,Female,2022-05-02_09h37.55.542,Boat,2022.1.1,60.002184082160895,
positive,neutral,2,l,j,,,,,,,,,10,7,187,17,,,,,,,,,,,,,,,,,,,,,,,,main,2,2,2,neutral,positive,j,j,1,0.7957087000249885,532.2094354000292,533.2270363999996,533.1821306000347,None,532.2094354000292,None,532.2094354000292,None,532.2094354000292,None,533.9893306999933,None,533.9893306999933,None,533.9893306999933,None,,,,,,,,,,,107,23,Female,2022-05-02_09h37.55.542,Boat,2022.1.1,60.002184082160895,
negative,negative,1,j,l,,,,,,,,,10,8,188,0,,,,,,,,,,,,,,,,,,,,,,,,main,2,2,1,negative,negative,l,l,1,0.7995861999806948,534.0048145000474,535.0159385000006,534.9957351000048,None,534.0048145000474,None,534.0048145000474,None,534.0048145000474,None,535.7909362000413,None,535.7909362000413,None,535.7909362000413,None,,,,,,,,,,,107,23,Female,2022-05-02_09h37.55.542,Boat,2022.1.1,60.002184082160895,
positive,positive,2,l,j,,,,,,,,,10,9,189,11,,,,,,,,,,,,,,,,,,,,,,,,main,1,1,2,positive,positive,j,j,1,1.6282933999900706,535.8098036000156,536.8239145000116,536.7826825000229,None,535.8098036000156,None,535.8098036000156,None,535.8098036000156,None,538.4251501000253,None,538.4251501000253,None,538.4251501000253,None,,,,,,,,,,,107,23,Female,2022-05-02_09h37.55.542,Boat,2022.1.1,60.002184082160895,
negative,neutral,1,j,l,,,,,,,,,10,10,190,3,,,,,,,,,,,,,,,,,,,,,,,,main,2,2,1,neutral,negative,l,l,1,0.985784100019373,539.434784000041,540.4489369000075,540.4297625000472,None,539.434784000041,None,539.434784000041,None,539.434784000041,None,541.4078857000335,None,541.4078857000335,None,541.4078857000335,None,,,,,,,,,,,107,23,Female,2022-05-02_09h37.55.542,Boat,2022.1.1,60.002184082160895,
negative,negative,2,j,l,,,,,,,,,10,11,191,9,,,,,,,,,,,,,,,,,,,,,,,,main,1,1,2,negative,negative,l,l,1,0.8158867000020109,541.4278571000323,542.445550400007,542.4070372999995,None,541.4278571000323,None,541.4278571000323,None,541.4278571000323,None,543.2266044000047,None,543.2266044000047,None,543.2266044000047,None,,,,,,,,,,,107,23,Female,2022-05-02_09h37.55.542,Boat,2022.1.1,60.002184082160895,
neutral,neutral,2,k,k,,,,,,,,,10,12,192,10,,,,,,,,,,,,,,,,,,,,,,,,main,1,1,2,neutral,neutral,k,k,1,0.768457300029695,543.242008900037,544.2483940999955,544.2291241000057,None,543.242008900037,None,543.242008900037,None,543.242008900037,None,544.9974848000332,None,544.9974848000332,None,544.9974848000332,None,,,,,,,,,,,107,23,Female,2022-05-02_09h37.55.542,Boat,2022.1.1,60.002184082160895,
neutral,positive,2,k,k,,,,,,,,,10,13,193,13,,,,,,,,,,,,,,,,,,,,,,,,main,2,2,2,positive,neutral,k,k,1,0.8385124999913387,545.0150853000232,546.0157677000389,545.9989554000203,None,545.0150853000232,None,545.0150853000232,None,545.0150853000232,None,546.8380781000363,None,546.8380781000363,None,546.8380781000363,None,,,,,,,,,,,107,23,Female,2022-05-02_09h37.55.542,Boat,2022.1.1,60.002184082160895,
positive,negative,2,l,j,,,,,,,,,10,14,194,14,,,,,,,,,,,,,,,,,,,,,,,,main,1,1,2,negative,positive,j,j,1,0.8151565000298433,546.8548335999949,547.8639259000192,547.8446485000313,None,546.8548335999949,None,546.8548335999949,None,546.8548335999949,None,548.6545210000244,None,548.6545210000244,None,548.6545210000244,None,,,,,,,,,,,107,23,Female,2022-05-02_09h37.55.542,Boat,2022.1.1,60.002184082160895,
positive,negative,1,l,j,,,,,,,,,10,15,195,5,,,,,,,,,,,,,,,,,,,,,,,,main,2,2,1,negative,positive,j,j,1,0.8341742000193335,548.6708363000071,549.6823287000298,549.6484498000355,None,548.6708363000071,None,548.6708363000071,None,548.6708363000071,None,550.4927999000414,None,550.4927999000414,None,550.4927999000414,None,,,,,,,,,,,107,23,Female,2022-05-02_09h37.55.542,Boat,2022.1.1,60.002184082160895,
negative,positive,1,j,l,,,,,,,,,10,16,196,6,,,,,,,,,,,,,,,,,,,,,,,,main,1,1,1,positive,negative,l,l,1,0.8104491999838501,550.5086181000224,551.5155817000195,551.498156799993,None,550.5086181000224,None,550.5086181000224,None,550.5086181000224,None,552.3040059000253,None,552.3040059000253,None,552.3040059000253,None,,,,,,,,,,,107,23,Female,2022-05-02_09h37.55.542,Boat,2022.1.1,60.002184082160895,
positive,positive,1,l,j,,,,,,,,,10,17,197,2,,,,,,,,,,,,,,,,,,,,,,,,main,1,1,1,positive,positive,j,j,1,1.7362641000072472,552.3192684000242,553.3309066999936,553.310186000017,None,552.3192684000242,None,552.3192684000242,None,552.3192684000242,None,555.0490780000109,None,555.0490780000109,None,555.0490780000109,None,,,,,,,,,,,107,23,Female,2022-05-02_09h37.55.542,Boat,2022.1.1,60.002184082160895,
neutral,positive,2,k,k,,,,,,,,,11,0,198,13,,,,,,,,,,,,,,,,,,,,,,,,main,1,1,2,positive,neutral,k,k,1,0.8011885000159964,556.0675810000394,557.0825021000346,557.0486314000445,None,556.0675810000394,None,556.0675810000394,None,556.0675810000394,None,557.8557178000104,None,557.8557178000104,None,557.8557178000104,None,,,,,,,,,,,107,23,Female,2022-05-02_09h37.55.542,Boat,2022.1.1,60.002184082160895,
negative,neutral,1,j,l,,,,,,,,,11,1,199,3,,,,,,,,,,,,,,,,,,,,,,,,main,2,2,1,neutral,negative,l,l,1,1.4119507999857888,557.8730828000116,558.8833178000059,558.8464949000045,None,557.8730828000116,None,557.8730828000116,None,557.8730828000116,None,560.2691567000351,None,560.2691567000351,None,560.2691567000351,None,,,,,,,,,,,107,23,Female,2022-05-02_09h37.55.542,Boat,2022.1.1,60.002184082160895,
positive,positive,2,l,j,,,,,,,,,11,2,200,11,,,,,,,,,,,,,,,,,,,,,,,,main,2,2,2,positive,positive,j,j,1,0.9996219999738969,560.2844116000342,561.2938617000473,561.2738700000336,None,560.2844116000342,None,560.2844116000342,None,560.2844116000342,None,562.2726126000401,None,562.2726126000401,None,562.2726126000401,None,,,,,,,,,,,107,23,Female,2022-05-02_09h37.55.542,Boat,2022.1.1,60.002184082160895,
negative,negative,2,j,l,,,,,,,,,11,3,201,9,,,,,,,,,,,,,,,,,,,,,,,,main,2,2,2,negative,negative,l,l,1,1.029908999975305,562.2917960000341,563.2993902000017,563.2605661000125,None,562.2917960000341,None,562.2917960000341,None,562.2917960000341,None,564.3040219000308,None,564.3040219000308,None,564.3040219000308,None,,,,,,,,,,,107,23,Female,2022-05-02_09h37.55.542,Boat,2022.1.1,60.002184082160895,
neutral,positive,1,k,k,,,,,,,,,11,4,202,4,,,,,,,,,,,,,,,,,,,,,,,,main,1,1,1,positive,neutral,k,k,1,1.0490668999846093,564.3198227999965,565.3275538000162,565.3275538000162,None,564.3198227999965,None,564.3198227999965,None,564.3198227999965,None,566.3550382000161,None,566.3550382000161,None,566.3550382000161,None,,,,,,,,,,,107,23,Female,2022-05-02_09h37.55.542,Boat,2022.1.1,60.002184082160895,
positive,neutral,2,l,j,,,,,,,,,11,5,203,17,,,,,,,,,,,,,,,,,,,,,,,,main,1,1,2,neutral,positive,j,j,1,0.9620211999863386,566.3708430000115,567.3906538000447,567.3441789000062,None,566.3708430000115,None,566.3708430000115,None,566.3708430000115,None,568.319471900037,None,568.319471900037,None,568.319471900037,None,,,,,,,,,,,107,23,Female,2022-05-02_09h37.55.542,Boat,2022.1.1,60.002184082160895,
positive,neutral,1,l,j,,,,,,,,,11,6,204,8,,,,,,,,,,,,,,,,,,,,,,,,main,2,2,1,neutral,positive,j,j,1,0.8443423999706283,568.3356809000252,569.3500617000391,569.3134533000411,None,568.3356809000252,None,568.3356809000252,None,568.3356809000252,None,570.1667621000437,None,570.1667621000437,None,570.1667621000437,None,,,,,,,,,,,107,23,Female,2022-05-02_09h37.55.542,Boat,2022.1.1,60.002184082160895,
negative,neutral,2,j,l,,,,,,,,,11,7,205,12,,,,,,,,,,,,,,,,,,,,,,,,main,1,1,2,neutral,negative,l,l,1,0.8593780999653973,570.1815429000417,571.2010968000395,571.1633676000056,None,570.1815429000417,None,570.1815429000417,None,570.1815429000417,None,572.0300437000463,None,572.0300437000463,None,572.0300437000463,None,,,,,,,,,,,107,23,Female,2022-05-02_09h37.55.542,Boat,2022.1.1,60.002184082160895,
negative,positive,1,j,l,,,,,,,,,11,8,206,6,,,,,,,,,,,,,,,,,,,,,,,,main,1,1,1,positive,negative,l,l,1,0.8239932000287808,572.0482048999984,573.0774562000297,573.0304917000467,None,572.0482048999984,None,572.0482048999984,None,572.0482048999984,None,573.8543213000288,None,573.8543213000288,None,573.8543213000288,None,,,,,,,,,,,107,23,Female,2022-05-02_09h37.55.542,Boat,2022.1.1,60.002184082160895,
positive,positive,1,l,j,,,,,,,,,11,9,207,2,,,,,,,,,,,,,,,,,,,,,,,,main,1,1,1,positive,positive,j,j,1,0.9847252999898046,573.8704809000483,574.882737900014,574.848128200043,None,573.8704809000483,None,573.8704809000483,None,573.8704809000483,None,575.84256950001,None,575.84256950001,None,575.84256950001,None,,,,,,,,,,,107,23,Female,2022-05-02_09h37.55.542,Boat,2022.1.1,60.002184082160895,
