target,distractor,set,ans1,ans2,rep_loop2.thisRepN,rep_loop2.thisTrialN,rep_loop2.thisN,rep_loop2.thisIndex,flanker_prac_loop.thisRepN,flanker_prac_loop.thisTrialN,flanker_prac_loop.thisN,flanker_prac_loop.thisIndex,flanker_main_loop.thisRepN,flanker_main_loop.thisTrialN,flanker_main_loop.thisN,flanker_main_loop.thisIndex,fl_inst_resp.keys,mouse.x,mouse.y,mouse.leftButton,mouse.midButton,mouse.rightButton,mouse.started,mouse.stopped,sound_1.started,sound_1.stopped,no_text.started,no_text.stopped,yes_text.started,yes_text.stopped,mouse_2.x,mouse_2.y,mouse_2.leftButton,mouse_2.midButton,mouse_2.rightButton,mouse_2.started,mouse_2.stopped,back_2.started,back_2.stopped,main_prac,fl_cold,fl_colt,fl_set,fl_dcond,fl_tcond,fl_ans,fl_res,fl_corr,fl_rt,fix_fl.started,fix_fl.stopped,targ.started,targ.stopped,j_button.started,j_button.stopped,k_button.started,k_button.stopped,l_button.started,l_button.stopped,j_button2.started,j_button2.stopped,k_button2.started,k_button2.stopped,l_button2.started,l_button2.stopped,mainback.started,mainback.stopped,key_resp.keys,mouse_6.x,mouse_6.y,mouse_6.leftButton,mouse_6.midButton,mouse_6.rightButton,mouse_6.started,mouse_6.stopped,id*,age*,gender*,date,expName,psychopyVersion,frameRate,
,,,,,0,0,0,0,,,,,,,,,None,-0.24166666,-0.39907408,0,0,0,1.0304620386450551,None,24.128944339958252,None,77.73339670000132,None,77.73339670000132,None,-0.10555556,-0.10092592,0,0,0,0.013345739978831261,None,,,,,,,,,,,,,,,,,,,,,,,,,,,,,,,,,,,,,,,108,26,Male,2022-05-02_12h50.46.983,Boat,2022.1.1,59.96433322224559,
positive,neutral,2,l,j,,,,,0,0,0,17,,,,,,,,,,,,,,,,,,,,,,,,,,81.04986009997083,None,prac,1,1,2,neutral,positive,l,l,1,1.7592874999972992,83.07608530001016,84.0931319000083,84.0462400999968,None,83.07608530001016,None,83.07608530001016,None,83.07608530001016,None,85.83426939998753,None,85.83426939998753,None,85.83426939998753,None,,,,,,,,,,,108,26,Male,2022-05-02_12h50.46.983,Boat,2022.1.1,59.96433322224559,
neutral,negative,2,k,k,,,,,0,1,1,16,,,,,,,,,,,,,,,,,,,,,,,,,,,,prac,2,2,2,negative,neutral,k,k,1,1.0257675999891944,86.85453050001524,87.87221760000102,87.83613399998285,None,86.85453050001524,None,86.85453050001524,None,86.85453050001524,None,88.86668743999326,None,88.86668743999326,None,88.86668743999326,None,,,,,,,,,,,108,26,Male,2022-05-02_12h50.46.983,Boat,2022.1.1,59.96433322224559,
positive,positive,1,l,j,,,,,0,2,2,2,,,,,,,,,,,,,,,,,,,,,,,,,,,,prac,2,2,1,positive,positive,l,l,1,1.1714428999694064,88.88550279999617,89.88482189999195,89.8679209999973,None,88.88550279999617,None,88.88550279999617,None,88.88550279999617,None,91.04121024001506,None,91.04121024001506,None,91.04121024001506,None,,,,,,,,,,,108,26,Male,2022-05-02_12h50.46.983,Boat,2022.1.1,59.96433322224559,
positive,positive,2,l,j,,,,,0,3,3,11,,,,,,,,,,,,,,,,,,,,,,,,,,,,prac,2,2,2,positive,positive,l,l,1,0.9591644999454729,91.06147489999421,92.07688720000442,92.03509869996924,None,91.06147489999421,None,91.06147489999421,None,91.06147489999421,None,93.00207293996937,None,93.00207293996937,None,93.00207293996937,None,,,,,,,,,,,108,26,Male,2022-05-02_12h50.46.983,Boat,2022.1.1,59.96433322224559,
positive,negative,1,l,j,,,,,0,4,4,5,,,,,,,,,,,,,,,,,,,,,,,,,,,,prac,1,1,1,negative,positive,l,l,1,1.3517030000220984,93.01863930001855,94.01832999999169,94.00146840000525,None,93.01863930001855,None,93.01863930001855,None,93.01863930001855,None,95.35562163995928,None,95.35562163995928,None,95.35562163995928,None,,,,,,,,,,,108,26,Male,2022-05-02_12h50.46.983,Boat,2022.1.1,59.96433322224559,
neutral,negative,1,k,k,,,,,0,5,5,7,,,,,,,,,,,,,,,,,,,,,,,,,,,,prac,1,1,1,negative,neutral,k,k,1,0.9370275000110269,95.37240140000358,96.3854981000186,96.3521096999757,None,95.37240140000358,None,95.37240140000358,None,95.37240140000358,None,97.2967696399719,None,97.2967696399719,None,97.2967696399719,None,,,,,,,,,,,108,26,Male,2022-05-02_12h50.46.983,Boat,2022.1.1,59.96433322224559,
neutral,neutral,1,k,k,,,,,0,6,6,1,,,,,,,,,,,,,,,,,,,,,,,,,,,,prac,1,1,1,neutral,neutral,k,k,1,0.8205186999985017,97.31679559999611,98.32021370000439,98.28532620001351,None,97.31679559999611,None,97.31679559999611,None,97.31679559999611,None,99.11855753997224,None,99.11855753997224,None,99.11855753997224,None,,,,,,,,,,,108,26,Male,2022-05-02_12h50.46.983,Boat,2022.1.1,59.96433322224559,
negative,positive,1,j,l,,,,,0,7,7,6,,,,,,,,,,,,,,,,,,,,,,,,,,,,prac,1,1,1,positive,negative,j,j,1,4.077614400011953,99.1353664000053,100.13570179999806,100.11864150001202,None,99.1353664000053,None,99.1353664000053,None,99.1353664000053,None,104.2041642999975,None,104.2041642999975,None,104.2041642999975,None,,,,,,,,,,,108,26,Male,2022-05-02_12h50.46.983,Boat,2022.1.1,59.96433322224559,
neutral,positive,2,k,k,,,,,0,8,8,13,,,,,,,,,,,,,,,,,,,,,,,,,,,,prac,1,1,2,positive,neutral,k,k,1,1.0687468000105582,105.22081189998426,106.23705489997519,106.20187839999562,None,105.22081189998426,None,105.22081189998426,None,105.22081189998426,None,107.27603973998339,None,107.27603973998339,None,107.27603973998339,None,,,,,,,,,,,108,26,Male,2022-05-02_12h50.46.983,Boat,2022.1.1,59.96433322224559,
negative,neutral,2,j,l,,,,,0,9,9,12,,,,,,,,,,,,,,,,,,,,,,,,,,,,prac,2,2,2,neutral,negative,j,j,1,1.0611057000351138,107.29270449996693,108.29975609999383,108.2799731999985,None,107.29270449996693,None,107.29270449996693,None,107.29270449996693,None,109.33826834001229,None,109.33826834001229,None,109.33826834001229,None,,,,,,,,,,,108,26,Male,2022-05-02_12h50.46.983,Boat,2022.1.1,59.96433322224559,
negative,negative,1,j,l,,,,,0,10,10,0,,,,,,,,,,,,,,,,,,,,,,,,,,,,prac,2,2,1,negative,negative,j,j,1,1.2461851999978535,109.35533180000493,110.36714639997808,110.34691869997187,None,109.35533180000493,None,109.35533180000493,None,109.35533180000493,None,111.58723383999313,None,111.58723383999313,None,111.58723383999313,None,,,,,,,,,,,108,26,Male,2022-05-02_12h50.46.983,Boat,2022.1.1,59.96433322224559,
negative,negative,2,j,l,,,,,0,11,11,9,,,,,,,,,,,,,,,,,,,,,,,,,,,,prac,2,2,2,negative,negative,j,j,1,0.9509967999765649,111.60357169999043,112.61872979998589,112.5800683000125,None,111.60357169999043,None,111.60357169999043,None,111.60357169999043,None,113.54050273998291,None,113.54050273998291,None,113.54050273998291,None,,,,,,,,,,,108,26,Male,2022-05-02_12h50.46.983,Boat,2022.1.1,59.96433322224559,
neutral,positive,1,k,k,,,,,0,12,12,4,,,,,,,,,,,,,,,,,,,,,,,,,,,,prac,2,2,1,positive,neutral,k,k,1,0.8530123999807984,113.55613209999865,114.57710100000259,114.53565179998986,None,113.55613209999865,None,113.55613209999865,None,113.55613209999865,None,115.39647613998386,None,115.39647613998386,None,115.39647613998386,None,,,,,,,,,,,108,26,Male,2022-05-02_12h50.46.983,Boat,2022.1.1,59.96433322224559,
neutral,neutral,2,k,k,,,,,0,13,13,10,,,,,,,,,,,,,,,,,,,,,,,,,,,,prac,2,2,2,neutral,neutral,k,k,1,0.7807447999948636,115.41681409999728,116.43291969998972,116.40437790000578,None,115.41681409999728,None,115.41681409999728,None,115.41681409999728,None,117.17825923996861,None,117.17825923996861,None,117.17825923996861,None,,,,,,,,,,,108,26,Male,2022-05-02_12h50.46.983,Boat,2022.1.1,59.96433322224559,
positive,neutral,1,l,j,,,,,0,14,14,8,,,,,,,,,,,,,,,,,,,,,,,,,,,,prac,1,1,1,neutral,positive,l,j,0,1.2869085999554954,117.20049919997109,118.20858969999244,118.18977669999003,None,117.20049919997109,None,117.20049919997109,None,117.20049919997109,None,119.48044419998769,None,119.48044419998769,None,119.48044419998769,None,,,,,,,,,,,108,26,Male,2022-05-02_12h50.46.983,Boat,2022.1.1,59.96433322224559,
negative,positive,2,j,l,,,,,0,15,15,15,,,,,,,,,,,,,,,,,,,,,,,,,,,,prac,2,2,2,positive,negative,j,j,1,0.9519543999922462,120.49137810000684,121.50956609996501,121.47037359996466,None,120.49137810000684,None,120.49137810000684,None,120.49137810000684,None,122.42298493997077,None,122.42298493997077,None,122.42298493997077,None,,,,,,,,,,,108,26,Male,2022-05-02_12h50.46.983,Boat,2022.1.1,59.96433322224559,
negative,neutral,1,j,l,,,,,0,16,16,3,,,,,,,,,,,,,,,,,,,,,,,,,,,,prac,1,1,1,neutral,negative,j,j,1,1.1628265000181273,122.44797460001428,123.45671060000313,123.42056339996634,None,122.44797460001428,None,122.44797460001428,None,122.44797460001428,None,124.5892059399921,None,124.5892059399921,None,124.5892059399921,None,,,,,,,,,,,108,26,Male,2022-05-02_12h50.46.983,Boat,2022.1.1,59.96433322224559,
positive,negative,2,l,j,,,,,0,17,17,14,,,,,,,,,,,,,,,,,,,,,,,,,,,,prac,2,2,2,negative,positive,l,l,1,0.9301791000179946,124.60608549998142,125.61904209997738,125.58559679996688,None,124.60608549998142,None,124.60608549998142,None,124.60608549998142,None,126.52203634000034,None,126.52203634000034,None,126.52203634000034,None,,,,,,,,,,,108,26,Male,2022-05-02_12h50.46.983,Boat,2022.1.1,59.96433322224559,
positive,neutral,1,l,j,,,,,1,0,18,8,,,,,,,,,,,,,,,,,,,,,,,,,,,,prac,2,2,1,neutral,positive,l,l,1,1.0949820000096224,126.5397282000049,127.56388749997132,127.51968359999591,None,126.5397282000049,None,126.5397282000049,None,126.5397282000049,None,128.61993784000515,None,128.61993784000515,None,128.61993784000515,None,,,,,,,,,,,108,26,Male,2022-05-02_12h50.46.983,Boat,2022.1.1,59.96433322224559,
negative,neutral,1,j,l,,,,,1,1,19,3,,,,,,,,,,,,,,,,,,,,,,,,,,,,prac,1,1,1,neutral,negative,j,j,1,1.0112115999800153,128.63577739999164,129.66029199998593,129.6137290999759,None,128.63577739999164,None,128.63577739999164,None,128.63577739999164,None,130.634584740008,None,130.634584740008,None,130.634584740008,None,,,,,,,,,,,108,26,Male,2022-05-02_12h50.46.983,Boat,2022.1.1,59.96433322224559,
positive,positive,1,l,j,,,,,1,2,20,2,,,,,,,,,,,,,,,,,,,,,,,,,,,,prac,1,1,1,positive,positive,l,l,1,0.8708413999993354,130.6510082000168,131.66381369996816,131.62343039998086,None,130.6510082000168,None,130.6510082000168,None,130.6510082000168,None,132.50889893996646,None,132.50889893996646,None,132.50889893996646,None,,,,,,,,,,,108,26,Male,2022-05-02_12h50.46.983,Boat,2022.1.1,59.96433322224559,
negative,neutral,2,j,l,,,,,1,3,21,12,,,,,,,,,,,,,,,,,,,,,,,,,,,,prac,2,2,2,neutral,negative,j,j,1,0.9407978000235744,132.52561790001346,133.54425420000916,133.51729290001094,None,132.52561790001346,None,132.52561790001346,None,132.52561790001346,None,134.4515883399581,None,134.4515883399581,None,134.4515883399581,None,,,,,,,,,,,108,26,Male,2022-05-02_12h50.46.983,Boat,2022.1.1,59.96433322224559,
positive,negative,2,l,j,,,,,1,4,22,14,,,,,,,,,,,,,,,,,,,,,,,,,,,,prac,2,2,2,negative,positive,l,l,1,0.8618957999860868,134.47041529999115,135.487977999961,135.45243900001515,None,134.47041529999115,None,134.47041529999115,None,134.47041529999115,None,136.317673440004,None,136.317673440004,None,136.317673440004,None,,,,,,,,,,,108,26,Male,2022-05-02_12h50.46.983,Boat,2022.1.1,59.96433322224559,
neutral,neutral,1,k,k,,,,,1,5,23,1,,,,,,,,,,,,,,,,,,,,,,,,,,,,prac,2,2,1,neutral,neutral,k,k,1,0.7488585999817587,136.33584939996945,137.3498765999684,137.33051810000325,None,136.33584939996945,None,136.33584939996945,None,136.33584939996945,None,138.06931213996722,None,138.06931213996722,None,138.06931213996722,None,,,,,,,,,,,108,26,Male,2022-05-02_12h50.46.983,Boat,2022.1.1,59.96433322224559,
negative,negative,2,j,l,,,,,1,6,24,9,,,,,,,,,,,,,,,,,,,,,,,,,,,,prac,2,2,2,negative,negative,j,j,1,0.8259084000019357,138.08838500001002,139.09744079998927,139.07725349999964,None,138.08838500001002,None,138.08838500001002,None,138.08838500001002,None,139.9001579399628,None,139.9001579399628,None,139.9001579399628,None,,,,,,,,,,,108,26,Male,2022-05-02_12h50.46.983,Boat,2022.1.1,59.96433322224559,
neutral,negative,1,k,k,,,,,1,7,25,7,,,,,,,,,,,,,,,,,,,,,,,,,,,,prac,2,2,1,negative,neutral,k,k,1,0.739982700033579,139.91642859997228,140.93311109999195,140.8941494000028,None,139.91642859997228,None,139.91642859997228,None,139.91642859997228,None,141.64016253998852,None,141.64016253998852,None,141.64016253998852,None,,,,,,,,,,,108,26,Male,2022-05-02_12h50.46.983,Boat,2022.1.1,59.96433322224559,
positive,negative,1,l,j,,,,,1,8,26,5,,,,,,,,,,,,,,,,,,,,,,,,,,,,prac,1,1,1,negative,positive,l,l,1,1.094407399999909,141.65591139998287,142.66700700001093,142.64717790001305,None,141.65591139998287,None,141.65591139998287,None,141.65591139998287,None,143.73722963998443,None,143.73722963998443,None,143.73722963998443,None,,,,,,,,,,,108,26,Male,2022-05-02_12h50.46.983,Boat,2022.1.1,59.96433322224559,
neutral,positive,1,k,k,,,,,1,9,27,4,,,,,,,,,,,,,,,,,,,,,,,,,,,,prac,1,1,1,positive,neutral,k,k,1,0.7965685999952257,143.7553761000163,144.76931319996947,144.73071599996183,None,143.7553761000163,None,143.7553761000163,None,143.7553761000163,None,145.53628183997353,None,145.53628183997353,None,145.53628183997353,None,,,,,,,,,,,108,26,Male,2022-05-02_12h50.46.983,Boat,2022.1.1,59.96433322224559,
negative,positive,2,j,l,,,,,1,10,28,15,,,,,,,,,,,,,,,,,,,,,,,,,,,,prac,1,1,2,positive,negative,j,j,1,0.7590175000368617,145.55380769999465,146.57754849997582,146.5307485999656,None,145.55380769999465,None,145.55380769999465,None,145.55380769999465,None,147.29897524000262,None,147.29897524000262,None,147.29897524000262,None,,,,,,,,,,,108,26,Male,2022-05-02_12h50.46.983,Boat,2022.1.1,59.96433322224559,
positive,positive,2,l,j,,,,,1,11,29,11,,,,,,,,,,,,,,,,,,,,,,,,,,,,prac,2,2,2,positive,positive,l,l,1,0.8000514000304975,147.31600759999128,148.3195706999977,148.30250089999754,None,147.31600759999128,None,147.31600759999128,None,147.31600759999128,None,149.10133874000167,None,149.10133874000167,None,149.10133874000167,None,,,,,,,,,,,108,26,Male,2022-05-02_12h50.46.983,Boat,2022.1.1,59.96433322224559,
neutral,negative,2,k,k,,,,,1,12,30,16,,,,,,,,,,,,,,,,,,,,,,,,,,,,prac,2,2,2,negative,neutral,k,k,1,0.7125199000001885,149.11817460000748,150.13602480001282,150.09737480001058,None,149.11817460000748,None,149.11817460000748,None,149.11817460000748,None,150.81681824001134,None,150.81681824001134,None,150.81681824001134,None,,,,,,,,,,,108,26,Male,2022-05-02_12h50.46.983,Boat,2022.1.1,59.96433322224559,
neutral,positive,2,k,k,,,,,1,13,31,13,,,,,,,,,,,,,,,,,,,,,,,,,,,,prac,1,1,2,positive,neutral,k,k,1,0.681139099993743,150.83381119999103,151.8512400999898,151.8307419999619,None,150.83381119999103,None,150.83381119999103,None,150.83381119999103,None,152.499864339974,None,152.499864339974,None,152.499864339974,None,,,,,,,,,,,108,26,Male,2022-05-02_12h50.46.983,Boat,2022.1.1,59.96433322224559,
negative,negative,1,j,l,,,,,1,14,32,0,,,,,,,,,,,,,,,,,,,,,,,,,,,,prac,1,1,1,negative,negative,j,j,1,1.6358347000204958,152.5168357999646,153.53354599996237,153.51415040000575,None,152.5168357999646,None,152.5168357999646,None,152.5168357999646,None,155.141856000002,None,155.141856000002,None,155.141856000002,None,,,,,,,,,,,108,26,Male,2022-05-02_12h50.46.983,Boat,2022.1.1,59.96433322224559,
negative,positive,1,j,l,,,,,1,15,33,6,,,,,,,,,,,,,,,,,,,,,,,,,,,,prac,2,2,1,positive,negative,j,j,1,1.175907799974084,156.15544970001793,157.1698716999963,157.1361753999954,None,156.15544970001793,None,156.15544970001793,None,156.15544970001793,None,158.31838693996542,None,158.31838693996542,None,158.31838693996542,None,,,,,,,,,,,108,26,Male,2022-05-02_12h50.46.983,Boat,2022.1.1,59.96433322224559,
positive,neutral,2,l,j,,,,,1,16,34,17,,,,,,,,,,,,,,,,,,,,,,,,,,,,prac,1,1,2,neutral,positive,l,l,1,0.8100708000129089,158.33671299996786,159.35300449997885,159.31432140001561,None,158.33671299996786,None,158.33671299996786,None,158.33671299996786,None,160.13348593996488,None,160.13348593996488,None,160.13348593996488,None,,,,,,,,,,,108,26,Male,2022-05-02_12h50.46.983,Boat,2022.1.1,59.96433322224559,
neutral,neutral,2,k,k,,,,,1,17,35,10,,,,,,,,,,,,,,,,,,,,,,,,,,,,prac,1,1,2,neutral,neutral,k,k,1,0.6768414999824017,160.151769899996,161.16937139997026,161.13277269998798,None,160.151769899996,None,160.151769899996,None,160.151769899996,None,161.81238293999922,None,161.81238293999922,None,161.81238293999922,None,,,,,,,,,,,108,26,Male,2022-05-02_12h50.46.983,Boat,2022.1.1,59.96433322224559,
,,,,,,,,,,,,,,,,,,,,,,,,,,,,,,,,,,,,,,,,,,,,,,,,,,,,,,,,,,,,,,,,,,161.82346889999462,None,None,,,,,,,,108,26,Male,2022-05-02_12h50.46.983,Boat,2022.1.1,59.96433322224559,
,,,,,,,,,,,,,,,,,,,,,,,,,,,,,,,,,,,,,,,,,,,,,,,,,,,,,,,,,,,,,,,,,,,,,0.0018518518,-0.18888889,1,0,0,0.007392540050204843,None,108,26,Male,2022-05-02_12h50.46.983,Boat,2022.1.1,59.96433322224559,
positive,neutral,1,l,j,,,,,,,,,0,0,0,8,,,,,,,,,,,,,,,,,,,,,,177.18196449999232,None,main,2,2,1,neutral,positive,l,l,1,0.9444061999674886,179.20306929998333,180.20336729998235,180.18681420001667,None,179.20306929998333,None,179.20306929998333,None,179.20306929998333,None,181.12303113998496,None,181.12303113998496,None,181.12303113998496,None,,,,,,,,,,,108,26,Male,2022-05-02_12h50.46.983,Boat,2022.1.1,59.96433322224559,
positive,positive,1,l,j,,,,,,,,,0,1,1,2,,,,,,,,,,,,,,,,,,,,,,,,main,2,2,1,positive,positive,l,l,1,0.6266256999806501,181.15223040001,182.15349339996465,182.13485679996666,None,181.15223040001,None,181.15223040001,None,181.15223040001,None,182.7570378399978,None,182.7570378399978,None,182.7570378399978,None,,,,,,,,,,,108,26,Male,2022-05-02_12h50.46.983,Boat,2022.1.1,59.96433322224559,
neutral,neutral,1,k,k,,,,,,,,,0,2,2,1,,,,,,,,,,,,,,,,,,,,,,,,main,2,2,1,neutral,neutral,k,k,1,0.6495601999922656,182.77288140001474,183.79534040001454,183.7481032999931,None,182.77288140001474,None,182.77288140001474,None,182.77288140001474,None,184.4088610399922,None,184.4088610399922,None,184.4088610399922,None,,,,,,,,,,,108,26,Male,2022-05-02_12h50.46.983,Boat,2022.1.1,59.96433322224559,
negative,positive,2,j,l,,,,,,,,,0,3,3,15,,,,,,,,,,,,,,,,,,,,,,,,main,2,2,2,positive,negative,j,j,1,0.6672399999806657,184.42617240000982,185.43655619997298,185.4033528,None,184.42617240000982,None,184.42617240000982,None,184.42617240000982,None,186.08006584001123,None,186.08006584001123,None,186.08006584001123,None,,,,,,,,,,,108,26,Male,2022-05-02_12h50.46.983,Boat,2022.1.1,59.96433322224559,
neutral,positive,1,k,k,,,,,,,,,0,4,4,4,,,,,,,,,,,,,,,,,,,,,,,,main,2,2,1,positive,neutral,k,k,1,0.6491085000452586,186.09697129996493,187.10350309999194,187.0839740000083,None,186.09697129996493,None,186.09697129996493,None,186.09697129996493,None,187.73204914000235,None,187.73204914000235,None,187.73204914000235,None,,,,,,,,,,,108,26,Male,2022-05-02_12h50.46.983,Boat,2022.1.1,59.96433322224559,
neutral,neutral,2,k,k,,,,,,,,,0,5,5,10,,,,,,,,,,,,,,,,,,,,,,,,main,2,2,2,neutral,neutral,k,k,1,0.5752064000116661,187.74877170001855,188.7518868999905,188.73202569998102,None,187.74877170001855,None,187.74877170001855,None,187.74877170001855,None,189.30798343996867,None,189.30798343996867,None,189.30798343996867,None,,,,,,,,,,,108,26,Male,2022-05-02_12h50.46.983,Boat,2022.1.1,59.96433322224559,
positive,positive,2,l,j,,,,,,,,,0,6,6,11,,,,,,,,,,,,,,,,,,,,,,,,main,2,2,2,positive,positive,l,l,1,1.0548230999847874,189.3257791000069,190.33747699996457,190.32008159998804,None,189.3257791000069,None,189.3257791000069,None,189.3257791000069,None,191.3667424400046,None,191.3667424400046,None,191.3667424400046,None,,,,,,,,,,,108,26,Male,2022-05-02_12h50.46.983,Boat,2022.1.1,59.96433322224559,
negative,neutral,1,j,l,,,,,,,,,0,7,7,3,,,,,,,,,,,,,,,,,,,,,,,,main,1,1,1,neutral,negative,j,j,1,0.8292385999811813,191.38564910000423,192.3870669999742,192.37030269997194,None,191.38564910000423,None,191.38564910000423,None,191.38564910000423,None,193.1987718399905,None,193.1987718399905,None,193.1987718399905,None,,,,,,,,,,,108,26,Male,2022-05-02_12h50.46.983,Boat,2022.1.1,59.96433322224559,
neutral,positive,2,k,k,,,,,,,,,0,8,8,13,,,,,,,,,,,,,,,,,,,,,,,,main,1,1,2,positive,neutral,k,k,1,0.7371618999750353,193.2192933000042,194.22026370000094,194.20367519999854,None,193.2192933000042,None,193.2192933000042,None,193.2192933000042,None,194.93695933997515,None,194.93695933997515,None,194.93695933997515,None,,,,,,,,,,,108,26,Male,2022-05-02_12h50.46.983,Boat,2022.1.1,59.96433322224559,
neutral,negative,1,k,k,,,,,,,,,0,9,9,7,,,,,,,,,,,,,,,,,,,,,,,,main,1,1,1,negative,neutral,k,k,1,0.6916770999669097,194.95426759996917,195.96798040001886,195.94830230000662,None,194.95426759996917,None,194.95426759996917,None,194.95426759996917,None,196.63410593997105,None,196.63410593997105,None,196.63410593997105,None,,,,,,,,,,,108,26,Male,2022-05-02_12h50.46.983,Boat,2022.1.1,59.96433322224559,
positive,neutral,2,l,j,,,,,,,,,0,10,10,17,,,,,,,,,,,,,,,,,,,,,,,,main,1,1,2,neutral,positive,l,l,1,0.7294970999937505,196.65268950001337,197.65343259996735,197.63687390001724,None,196.65268950001337,None,196.65268950001337,None,196.65268950001337,None,198.3663284399954,None,198.3663284399954,None,198.3663284399954,None,,,,,,,,,,,108,26,Male,2022-05-02_12h50.46.983,Boat,2022.1.1,59.96433322224559,
positive,negative,2,l,j,,,,,,,,,0,11,11,14,,,,,,,,,,,,,,,,,,,,,,,,main,1,1,2,negative,positive,l,l,1,0.676296999969054,198.38403359998483,199.38709580001887,199.37038719997508,None,198.38403359998483,None,198.38403359998483,None,198.38403359998483,None,200.04248634001124,None,200.04248634001124,None,200.04248634001124,None,,,,,,,,,,,108,26,Male,2022-05-02_12h50.46.983,Boat,2022.1.1,59.96433322224559,
negative,negative,2,j,l,,,,,,,,,0,12,12,9,,,,,,,,,,,,,,,,,,,,,,,,main,1,1,2,negative,negative,j,k,0,0.7064875999931246,200.05960089998553,201.07055269996636,201.05110300000524,None,200.05960089998553,None,200.05960089998553,None,200.05960089998553,None,201.75733240001136,None,201.75733240001136,None,201.75733240001136,None,,,,,,,,,,,108,26,Male,2022-05-02_12h50.46.983,Boat,2022.1.1,59.96433322224559,
positive,negative,1,l,j,,,,,,,,,0,13,13,5,,,,,,,,,,,,,,,,,,,,,,,,main,1,1,1,negative,positive,l,l,1,0.9853940000175498,202.77350770001067,203.78749089996563,203.76892629999202,None,202.77350770001067,None,202.77350770001067,None,202.77350770001067,None,204.7454329399916,None,204.7454329399916,None,204.7454329399916,None,,,,,,,,,,,108,26,Male,2022-05-02_12h50.46.983,Boat,2022.1.1,59.96433322224559,
neutral,negative,2,k,k,,,,,,,,,0,14,14,16,,,,,,,,,,,,,,,,,,,,,,,,main,2,2,2,negative,neutral,k,k,1,0.7319482999737374,204.76316099998076,205.77039139997214,205.7519233999774,None,204.76316099998076,None,204.76316099998076,None,204.76316099998076,None,206.48094483997556,None,206.48094483997556,None,206.48094483997556,None,,,,,,,,,,,108,26,Male,2022-05-02_12h50.46.983,Boat,2022.1.1,59.96433322224559,
negative,negative,1,j,l,,,,,,,,,0,15,15,0,,,,,,,,,,,,,,,,,,,,,,,,main,2,2,1,negative,negative,j,j,1,1.0046502000186592,206.50259150000056,207.50539229996502,207.4886061999714,None,206.50259150000056,None,206.50259150000056,None,206.50259150000056,None,208.4911142399942,None,208.4911142399942,None,208.4911142399942,None,,,,,,,,,,,108,26,Male,2022-05-02_12h50.46.983,Boat,2022.1.1,59.96433322224559,
negative,neutral,2,j,l,,,,,,,,,0,16,16,12,,,,,,,,,,,,,,,,,,,,,,,,main,2,2,2,neutral,negative,j,j,1,1.2369934000307694,208.5074341999716,209.52298880001763,209.48732590000145,None,208.5074341999716,None,208.5074341999716,None,208.5074341999716,None,210.73152103999746,None,210.73152103999746,None,210.73152103999746,None,,,,,,,,,,,108,26,Male,2022-05-02_12h50.46.983,Boat,2022.1.1,59.96433322224559,
negative,positive,1,j,l,,,,,,,,,0,17,17,6,,,,,,,,,,,,,,,,,,,,,,,,main,2,2,1,positive,negative,j,j,1,0.7935928999795578,210.75252480001654,211.76228349999292,211.72063270001672,None,210.75252480001654,None,210.75252480001654,None,210.75252480001654,None,212.52822954001022,None,212.52822954001022,None,212.52822954001022,None,,,,,,,,,,,108,26,Male,2022-05-02_12h50.46.983,Boat,2022.1.1,59.96433322224559,
negative,positive,2,j,l,,,,,,,,,1,0,18,15,,,,,,,,,,,,,,,,,,,,,,,,main,1,1,2,positive,negative,j,j,1,0.8777233000146225,212.5449128000182,213.55478880001465,213.52055119996658,None,212.5449128000182,None,212.5449128000182,None,212.5449128000182,None,214.40685364001547,None,214.40685364001547,None,214.40685364001547,None,,,,,,,,,,,108,26,Male,2022-05-02_12h50.46.983,Boat,2022.1.1,59.96433322224559,
neutral,neutral,1,k,k,,,,,,,,,1,1,19,1,,,,,,,,,,,,,,,,,,,,,,,,main,1,1,1,neutral,neutral,k,k,1,0.8014103000168689,214.4255483999732,215.4458151999861,215.40401449997444,None,214.4255483999732,None,214.4255483999732,None,214.4255483999732,None,216.21335944000748,None,216.21335944000748,None,216.21335944000748,None,,,,,,,,,,,108,26,Male,2022-05-02_12h50.46.983,Boat,2022.1.1,59.96433322224559,
neutral,positive,2,k,k,,,,,,,,,1,2,20,13,,,,,,,,,,,,,,,,,,,,,,,,main,2,2,2,positive,neutral,k,k,1,0.7068566000089049,216.23274720000336,217.24884359998396,217.20456390001345,None,216.23274720000336,None,216.23274720000336,None,216.23274720000336,None,217.92097204001038,None,217.92097204001038,None,217.92097204001038,None,,,,,,,,,,,108,26,Male,2022-05-02_12h50.46.983,Boat,2022.1.1,59.96433322224559,
positive,positive,1,l,j,,,,,,,,,1,3,21,2,,,,,,,,,,,,,,,,,,,,,,,,main,2,2,1,positive,positive,l,l,1,0.8156682000262663,217.93899940000847,218.95182379998732,218.93224100000225,None,217.93899940000847,None,217.93899940000847,None,217.93899940000847,None,219.73930723997182,None,219.73930723997182,None,219.73930723997182,None,,,,,,,,,,,108,26,Male,2022-05-02_12h50.46.983,Boat,2022.1.1,59.96433322224559,
negative,negative,1,j,l,,,,,,,,,1,4,22,0,,,,,,,,,,,,,,,,,,,,,,,,main,1,1,1,negative,negative,j,j,1,0.9668430000310764,219.75587819999782,220.77057250001235,220.73218729998916,None,219.75587819999782,None,219.75587819999782,None,219.75587819999782,None,221.70881084000575,None,221.70881084000575,None,221.70881084000575,None,,,,,,,,,,,108,26,Male,2022-05-02_12h50.46.983,Boat,2022.1.1,59.96433322224559,
neutral,negative,1,k,k,,,,,,,,,1,5,23,7,,,,,,,,,,,,,,,,,,,,,,,,main,2,2,1,negative,neutral,k,k,1,0.8141681000124663,221.7258972999989,222.7346634999849,222.71568209998077,None,221.7258972999989,None,221.7258972999989,None,221.7258972999989,None,223.5273149399727,None,223.5273149399727,None,223.5273149399727,None,,,,,,,,,,,108,26,Male,2022-05-02_12h50.46.983,Boat,2022.1.1,59.96433322224559,
positive,neutral,2,l,j,,,,,,,,,1,6,24,17,,,,,,,,,,,,,,,,,,,,,,,,main,2,2,2,neutral,positive,l,l,1,0.8404179999488406,223.54422919999342,224.5556398999761,224.53765229997225,None,223.54422919999342,None,223.54422919999342,None,223.54422919999342,None,225.36968383999192,None,225.36968383999192,None,225.36968383999192,None,,,,,,,,,,,108,26,Male,2022-05-02_12h50.46.983,Boat,2022.1.1,59.96433322224559,
negative,neutral,1,j,l,,,,,,,,,1,7,25,3,,,,,,,,,,,,,,,,,,,,,,,,main,2,2,1,neutral,negative,j,j,1,0.883632100012619,225.3863893999951,226.38773299998138,226.3701485999627,None,225.3863893999951,None,225.3863893999951,None,225.3863893999951,None,227.25433214000077,None,227.25433214000077,None,227.25433214000077,None,,,,,,,,,,,108,26,Male,2022-05-02_12h50.46.983,Boat,2022.1.1,59.96433322224559,
positive,negative,2,l,j,,,,,,,,,1,8,26,14,,,,,,,,,,,,,,,,,,,,,,,,main,1,1,2,negative,positive,l,l,1,0.7511215000413358,227.2729590999661,228.28776689997176,228.24914089997765,None,227.2729590999661,None,227.2729590999661,None,227.2729590999661,None,229.01056133999373,None,229.01056133999373,None,229.01056133999373,None,,,,,,,,,,,108,26,Male,2022-05-02_12h50.46.983,Boat,2022.1.1,59.96433322224559,
neutral,neutral,2,k,k,,,,,,,,,1,9,27,10,,,,,,,,,,,,,,,,,,,,,,,,main,1,1,2,neutral,neutral,k,k,1,0.7473669000319205,229.02704369998537,230.03596159996232,230.01576480001677,None,229.02704369998537,None,229.02704369998537,None,229.02704369998537,None,230.75884853999014,None,230.75884853999014,None,230.75884853999014,None,,,,,,,,,,,108,26,Male,2022-05-02_12h50.46.983,Boat,2022.1.1,59.96433322224559,
negative,positive,1,j,l,,,,,,,,,1,10,28,6,,,,,,,,,,,,,,,,,,,,,,,,main,1,1,1,positive,negative,j,j,1,1.6807160000316799,230.7769356999779,231.7850754999672,231.76583240000764,None,230.7769356999779,None,230.7769356999779,None,230.7769356999779,None,233.446928499965,None,233.446928499965,None,233.446928499965,None,,,,,,,,,,,108,26,Male,2022-05-02_12h50.46.983,Boat,2022.1.1,59.96433322224559,
negative,negative,2,j,l,,,,,,,,,1,11,29,9,,,,,,,,,,,,,,,,,,,,,,,,main,2,2,2,negative,negative,j,j,1,1.1272803000174463,234.4567815999617,235.47094359999755,235.43762009998318,None,234.4567815999617,None,234.4567815999617,None,234.4567815999617,None,236.57140514001367,None,236.57140514001367,None,236.57140514001367,None,,,,,,,,,,,108,26,Male,2022-05-02_12h50.46.983,Boat,2022.1.1,59.96433322224559,
negative,neutral,2,j,l,,,,,,,,,1,12,30,12,,,,,,,,,,,,,,,,,,,,,,,,main,2,2,2,neutral,negative,j,j,1,0.7164118000073358,236.58785020001233,237.58855689998018,237.57035270001506,None,236.58785020001233,None,236.58785020001233,None,236.58785020001233,None,238.28984824000509,None,238.28984824000509,None,238.28984824000509,None,,,,,,,,,,,108,26,Male,2022-05-02_12h50.46.983,Boat,2022.1.1,59.96433322224559,
positive,negative,1,l,j,,,,,,,,,1,13,31,5,,,,,,,,,,,,,,,,,,,,,,,,main,2,2,1,negative,positive,l,l,1,0.8830697999801487,238.30713909998303,239.3232113000122,239.28926290001255,None,238.30713909998303,None,238.30713909998303,None,238.30713909998303,None,240.17523774001165,None,240.17523774001165,None,240.17523774001165,None,,,,,,,,,,,108,26,Male,2022-05-02_12h50.46.983,Boat,2022.1.1,59.96433322224559,
positive,neutral,1,l,j,,,,,,,,,1,14,32,8,,,,,,,,,,,,,,,,,,,,,,,,main,1,1,1,neutral,positive,l,l,1,0.8319537999923341,240.19173939997563,241.2045419999631,241.17144170001848,None,240.19173939997563,None,240.19173939997563,None,240.19173939997563,None,242.01125343996682,None,242.01125343996682,None,242.01125343996682,None,,,,,,,,,,,108,26,Male,2022-05-02_12h50.46.983,Boat,2022.1.1,59.96433322224559,
positive,positive,2,l,j,,,,,,,,,1,15,33,11,,,,,,,,,,,,,,,,,,,,,,,,main,2,2,2,positive,positive,l,l,1,0.7748936000280082,242.03066069999477,243.04142119997414,243.0045514999656,None,242.03066069999477,None,242.03066069999477,None,242.03066069999477,None,243.78798163999454,None,243.78798163999454,None,243.78798163999454,None,,,,,,,,,,,108,26,Male,2022-05-02_12h50.46.983,Boat,2022.1.1,59.96433322224559,
neutral,positive,1,k,k,,,,,,,,,1,16,34,4,,,,,,,,,,,,,,,,,,,,,,,,main,2,2,1,positive,neutral,k,k,1,0.8111483000102453,243.8049443999771,244.8213772000163,244.78561759996228,None,243.8049443999771,None,243.8049443999771,None,243.8049443999771,None,245.60320053997566,None,245.60320053997566,None,245.60320053997566,None,,,,,,,,,,,108,26,Male,2022-05-02_12h50.46.983,Boat,2022.1.1,59.96433322224559,
neutral,negative,2,k,k,,,,,,,,,1,17,35,16,,,,,,,,,,,,,,,,,,,,,,,,main,1,1,2,negative,neutral,k,k,1,0.8289415999897756,245.62032459996408,246.63792690000264,246.59923069999786,None,245.62032459996408,None,245.62032459996408,None,245.62032459996408,None,247.4360337399703,None,247.4360337399703,None,247.4360337399703,None,,,,,,,,,,,108,26,Male,2022-05-02_12h50.46.983,Boat,2022.1.1,59.96433322224559,
neutral,neutral,1,k,k,,,,,,,,,2,0,36,1,,,,,,,,,,,,,,,,,,,,,,,,main,2,2,1,neutral,neutral,k,k,1,0.856842199980747,247.45391009998275,248.4545127999736,248.43667119997554,None,247.45391009998275,None,247.45391009998275,None,247.45391009998275,None,249.29306634000386,None,249.29306634000386,None,249.29306634000386,None,,,,,,,,,,,108,26,Male,2022-05-02_12h50.46.983,Boat,2022.1.1,59.96433322224559,
neutral,positive,2,k,k,,,,,,,,,2,1,37,13,,,,,,,,,,,,,,,,,,,,,,,,main,2,2,2,positive,neutral,k,k,1,0.7389828000450507,249.3150442999904,250.3189063000027,250.29957909998484,None,249.3150442999904,None,249.3150442999904,None,249.3150442999904,None,251.0354891399911,None,251.0354891399911,None,251.0354891399911,None,,,,,,,,,,,108,26,Male,2022-05-02_12h50.46.983,Boat,2022.1.1,59.96433322224559,
negative,neutral,1,j,l,,,,,,,,,2,2,38,3,,,,,,,,,,,,,,,,,,,,,,,,main,1,1,1,neutral,negative,j,j,1,0.8941210999619216,251.0542769000167,252.0697279999731,252.05012179998448,None,251.0542769000167,None,251.0542769000167,None,251.0542769000167,None,252.93480163995991,None,252.93480163995991,None,252.93480163995991,None,,,,,,,,,,,108,26,Male,2022-05-02_12h50.46.983,Boat,2022.1.1,59.96433322224559,
negative,negative,1,j,l,,,,,,,,,2,3,39,0,,,,,,,,,,,,,,,,,,,,,,,,main,1,1,1,negative,negative,j,j,1,0.7619858999969438,252.95416729996214,253.97139299998526,253.9328948999755,None,252.95416729996214,None,252.95416729996214,None,252.95416729996214,None,254.69949224000447,None,254.69949224000447,None,254.69949224000447,None,,,,,,,,,,,108,26,Male,2022-05-02_12h50.46.983,Boat,2022.1.1,59.96433322224559,
positive,positive,1,l,j,,,,,,,,,2,4,40,2,,,,,,,,,,,,,,,,,,,,,,,,main,1,1,1,positive,positive,l,l,1,0.8738623000099324,254.71829200000502,255.72150159999728,255.70436580001842,None,254.71829200000502,None,254.71829200000502,None,254.71829200000502,None,256.5724849399703,None,256.5724849399703,None,256.5724849399703,None,,,,,,,,,,,108,26,Male,2022-05-02_12h50.46.983,Boat,2022.1.1,59.96433322224559,
positive,negative,2,l,j,,,,,,,,,2,5,41,14,,,,,,,,,,,,,,,,,,,,,,,,main,2,2,2,negative,positive,l,l,1,0.8080205000005662,256.5991511999746,257.60308959998656,257.58309989998816,None,256.5991511999746,None,256.5991511999746,None,256.5991511999746,None,258.386565540015,None,258.386565540015,None,258.386565540015,None,,,,,,,,,,,108,26,Male,2022-05-02_12h50.46.983,Boat,2022.1.1,59.96433322224559,
negative,negative,2,j,l,,,,,,,,,2,6,42,9,,,,,,,,,,,,,,,,,,,,,,,,main,2,2,2,negative,negative,j,j,1,0.9320323999854736,258.4033571999753,259.4130531999981,259.3865169999772,None,258.4033571999753,None,258.4033571999753,None,258.4033571999753,None,260.3203452399757,None,260.3203452399757,None,260.3203452399757,None,,,,,,,,,,,108,26,Male,2022-05-02_12h50.46.983,Boat,2022.1.1,59.96433322224559,
neutral,negative,2,k,k,,,,,,,,,2,7,43,16,,,,,,,,,,,,,,,,,,,,,,,,main,1,1,2,negative,neutral,k,k,1,0.7599492000299506,260.33788219996495,261.35803160001524,261.31478439999046,None,260.33788219996495,None,260.33788219996495,None,260.33788219996495,None,262.08419583996874,None,262.08419583996874,None,262.08419583996874,None,,,,,,,,,,,108,26,Male,2022-05-02_12h50.46.983,Boat,2022.1.1,59.96433322224559,
positive,neutral,1,l,j,,,,,,,,,2,8,44,8,,,,,,,,,,,,,,,,,,,,,,,,main,2,2,1,neutral,positive,l,l,1,0.7730736999656074,262.10392119997414,263.10480759997154,263.0882709000143,None,262.10392119997414,None,262.10392119997414,None,262.10392119997414,None,263.8597130399721,None,263.8597130399721,None,263.8597130399721,None,,,,,,,,,,,108,26,Male,2022-05-02_12h50.46.983,Boat,2022.1.1,59.96433322224559,
negative,positive,1,j,l,,,,,,,,,2,9,45,6,,,,,,,,,,,,,,,,,,,,,,,,main,2,2,1,positive,negative,j,j,1,0.7316409000195563,263.88189339998644,264.89641340001253,264.8550338000059,None,263.88189339998644,None,263.88189339998644,None,263.88189339998644,None,265.59284714001114,None,265.59284714001114,None,265.59284714001114,None,,,,,,,,,,,108,26,Male,2022-05-02_12h50.46.983,Boat,2022.1.1,59.96433322224559,
positive,positive,2,l,j,,,,,,,,,2,10,46,11,,,,,,,,,,,,,,,,,,,,,,,,main,2,2,2,positive,positive,l,l,1,0.8672255999990739,265.6111641000025,266.6257313999813,266.589565399976,None,265.6111641000025,None,265.6111641000025,None,265.6111641000025,None,267.4656997399579,None,267.4656997399579,None,267.4656997399579,None,,,,,,,,,,,108,26,Male,2022-05-02_12h50.46.983,Boat,2022.1.1,59.96433322224559,
neutral,neutral,2,k,k,,,,,,,,,2,11,47,10,,,,,,,,,,,,,,,,,,,,,,,,main,1,1,2,neutral,neutral,k,k,1,0.6964077000156976,267.4864375999896,268.48987130000023,268.4554754999699,None,267.4864375999896,None,267.4864375999896,None,267.4864375999896,None,269.16535133999423,None,269.16535133999423,None,269.16535133999423,None,,,,,,,,,,,108,26,Male,2022-05-02_12h50.46.983,Boat,2022.1.1,59.96433322224559,
negative,positive,2,j,l,,,,,,,,,2,12,48,15,,,,,,,,,,,,,,,,,,,,,,,,main,2,2,2,positive,negative,j,j,1,0.9099787999875844,269.1821645000018,270.1885451999842,270.168973599968,None,269.1821645000018,None,269.1821645000018,None,269.1821645000018,None,271.07798714001547,None,271.07798714001547,None,271.07798714001547,None,,,,,,,,,,,108,26,Male,2022-05-02_12h50.46.983,Boat,2022.1.1,59.96433322224559,
neutral,negative,1,k,k,,,,,,,,,2,13,49,7,,,,,,,,,,,,,,,,,,,,,,,,main,1,1,1,negative,neutral,k,k,1,1.117071799992118,271.09840149997035,272.1051923999912,272.0695766999852,None,271.09840149997035,None,271.09840149997035,None,271.09840149997035,None,273.1988195400045,None,273.1988195400045,None,273.1988195400045,None,,,,,,,,,,,108,26,Male,2022-05-02_12h50.46.983,Boat,2022.1.1,59.96433322224559,
positive,neutral,2,l,j,,,,,,,,,2,14,50,17,,,,,,,,,,,,,,,,,,,,,,,,main,2,2,2,neutral,positive,l,l,1,0.8698156999889761,273.21843339997577,274.2219380000024,274.20486250001704,None,273.21843339997577,None,273.21843339997577,None,273.21843339997577,None,275.0703015399922,None,275.0703015399922,None,275.0703015399922,None,,,,,,,,,,,108,26,Male,2022-05-02_12h50.46.983,Boat,2022.1.1,59.96433322224559,
negative,neutral,2,j,l,,,,,,,,,2,15,51,12,,,,,,,,,,,,,,,,,,,,,,,,main,1,1,2,neutral,negative,j,j,1,0.9436300999950618,275.0884939999669,276.10001439996995,276.0800708999741,None,275.0884939999669,None,275.0884939999669,None,275.0884939999669,None,277.0186173399852,None,277.0186173399852,None,277.0186173399852,None,,,,,,,,,,,108,26,Male,2022-05-02_12h50.46.983,Boat,2022.1.1,59.96433322224559,
neutral,positive,1,k,k,,,,,,,,,2,16,52,4,,,,,,,,,,,,,,,,,,,,,,,,main,2,2,1,positive,neutral,k,k,1,1.0892922999919392,277.0378030000138,278.0395310000167,278.0222954999772,None,277.0378030000138,None,277.0378030000138,None,277.0378030000138,None,279.10804314000416,None,279.10804314000416,None,279.10804314000416,None,,,,,,,,,,,108,26,Male,2022-05-02_12h50.46.983,Boat,2022.1.1,59.96433322224559,
positive,negative,1,l,j,,,,,,,,,2,17,53,5,,,,,,,,,,,,,,,,,,,,,,,,main,1,1,1,negative,positive,l,l,1,0.8717135000042617,279.126408000011,280.15006159996847,280.1054162000073,None,279.126408000011,None,279.126408000011,None,279.126408000011,None,280.98483713998576,None,280.98483713998576,None,280.98483713998576,None,,,,,,,,,,,108,26,Male,2022-05-02_12h50.46.983,Boat,2022.1.1,59.96433322224559,
positive,neutral,1,l,j,,,,,,,,,3,0,54,8,,,,,,,,,,,,,,,,,,,,,,,,main,1,1,1,neutral,positive,l,l,1,0.7346842999686487,281.0043108999962,282.0053310999647,281.9886247999966,None,281.0043108999962,None,281.0043108999962,None,281.0043108999962,None,282.7222544399847,None,282.7222544399847,None,282.7222544399847,None,,,,,,,,,,,108,26,Male,2022-05-02_12h50.46.983,Boat,2022.1.1,59.96433322224559,
neutral,negative,2,k,k,,,,,,,,,3,1,55,16,,,,,,,,,,,,,,,,,,,,,,,,main,1,1,2,negative,neutral,k,k,1,0.7469090000377037,282.7386484000017,283.7554500999977,283.7387549999985,None,282.7386484000017,None,282.7386484000017,None,282.7386484000017,None,284.4717892399931,None,284.4717892399931,None,284.4717892399931,None,,,,,,,,,,,108,26,Male,2022-05-02_12h50.46.983,Boat,2022.1.1,59.96433322224559,
neutral,neutral,2,k,k,,,,,,,,,3,2,56,10,,,,,,,,,,,,,,,,,,,,,,,,main,1,1,2,neutral,neutral,k,k,1,0.6461521000019275,284.48916619998636,285.48946399998385,285.472359700012,None,284.48916619998636,None,284.48916619998636,None,284.48916619998636,None,286.1209381399967,None,286.1209381399967,None,286.1209381399967,None,,,,,,,,,,,108,26,Male,2022-05-02_12h50.46.983,Boat,2022.1.1,59.96433322224559,
negative,neutral,1,j,l,,,,,,,,,3,3,57,3,,,,,,,,,,,,,,,,,,,,,,,,main,2,2,1,neutral,negative,j,j,1,0.9453750000102445,286.13862829998834,287.1554522999795,287.1167916000122,None,286.13862829998834,None,286.13862829998834,None,286.13862829998834,None,288.0700754399586,None,288.0700754399586,None,288.0700754399586,None,,,,,,,,,,,108,26,Male,2022-05-02_12h50.46.983,Boat,2022.1.1,59.96433322224559,
negative,negative,2,j,l,,,,,,,,,3,4,58,9,,,,,,,,,,,,,,,,,,,,,,,,main,1,1,2,negative,negative,j,j,1,0.9755647000274621,288.087707699975,289.0895837999997,289.07134389999555,None,288.087707699975,None,288.087707699975,None,288.087707699975,None,290.04941753999447,None,290.04941753999447,None,290.04941753999447,None,,,,,,,,,,,108,26,Male,2022-05-02_12h50.46.983,Boat,2022.1.1,59.96433322224559,
neutral,positive,2,k,k,,,,,,,,,3,5,59,13,,,,,,,,,,,,,,,,,,,,,,,,main,2,2,2,positive,neutral,k,k,1,0.8314389000297524,290.0689321999671,291.0891670999699,291.0504404999665,None,290.0689321999671,None,290.0689321999671,None,290.0689321999671,None,291.88273544001277,None,291.88273544001277,None,291.88273544001277,None,,,,,,,,,,,108,26,Male,2022-05-02_12h50.46.983,Boat,2022.1.1,59.96433322224559,
positive,negative,1,l,j,,,,,,,,,3,6,60,5,,,,,,,,,,,,,,,,,,,,,,,,main,2,2,1,negative,positive,l,l,1,0.9220927999704145,291.90361889998894,292.9084711999749,292.87186050001765,None,291.90361889998894,None,291.90361889998894,None,291.90361889998894,None,293.8037800399761,None,293.8037800399761,None,293.8037800399761,None,,,,,,,,,,,108,26,Male,2022-05-02_12h50.46.983,Boat,2022.1.1,59.96433322224559,
positive,positive,2,l,j,,,,,,,,,3,7,61,11,,,,,,,,,,,,,,,,,,,,,,,,main,2,2,2,positive,positive,l,l,1,1.1499080000212416,293.8263768000179,294.8413932999829,294.8034361000173,None,293.8263768000179,None,293.8263768000179,None,293.8263768000179,None,295.9572492399893,None,295.9572492399893,None,295.9572492399893,None,,,,,,,,,,,108,26,Male,2022-05-02_12h50.46.983,Boat,2022.1.1,59.96433322224559,
negative,negative,1,j,l,,,,,,,,,3,8,62,0,,,,,,,,,,,,,,,,,,,,,,,,main,2,2,1,negative,negative,j,j,1,0.9988284999853931,295.9834535999689,296.996342599974,296.96011099999305,None,295.9834535999689,None,295.9834535999689,None,295.9834535999689,None,297.96025273998384,None,297.96025273998384,None,297.96025273998384,None,,,,,,,,,,,108,26,Male,2022-05-02_12h50.46.983,Boat,2022.1.1,59.96433322224559,
neutral,negative,1,k,k,,,,,,,,,3,9,63,7,,,,,,,,,,,,,,,,,,,,,,,,main,1,1,1,negative,neutral,k,k,1,0.9078090999973938,297.9824437999632,298.99572959996294,298.96024300000863,None,297.9824437999632,None,297.9824437999632,None,297.9824437999632,None,299.87100563998683,None,299.87100563998683,None,299.87100563998683,None,,,,,,,,,,,108,26,Male,2022-05-02_12h50.46.983,Boat,2022.1.1,59.96433322224559,
negative,positive,2,j,l,,,,,,,,,3,10,64,15,,,,,,,,,,,,,,,,,,,,,,,,main,1,1,2,positive,negative,j,j,1,1.0275257999892347,299.8937000000151,300.90528609999456,300.8856124000158,None,299.8937000000151,None,299.8937000000151,None,299.8937000000151,None,301.9027346399671,None,301.9027346399671,None,301.9027346399671,None,,,,,,,,,,,108,26,Male,2022-05-02_12h50.46.983,Boat,2022.1.1,59.96433322224559,
positive,negative,2,l,j,,,,,,,,,3,11,65,14,,,,,,,,,,,,,,,,,,,,,,,,main,2,2,2,negative,positive,l,l,1,0.9088605000288226,301.9292753000045,302.94312670000363,302.90454620000673,None,301.9292753000045,None,301.9292753000045,None,301.9292753000045,None,303.8168090399995,None,303.8168090399995,None,303.8168090399995,None,,,,,,,,,,,108,26,Male,2022-05-02_12h50.46.983,Boat,2022.1.1,59.96433322224559,
negative,neutral,2,j,l,,,,,,,,,3,12,66,12,,,,,,,,,,,,,,,,,,,,,,,,main,2,2,2,neutral,negative,j,j,1,0.9471764999907464,303.83787439996377,304.84766259999014,304.8058172999881,None,303.83787439996377,None,303.83787439996377,None,303.83787439996377,None,305.76716864001355,None,305.76716864001355,None,305.76716864001355,None,,,,,,,,,,,108,26,Male,2022-05-02_12h50.46.983,Boat,2022.1.1,59.96433322224559,
negative,positive,1,j,l,,,,,,,,,3,13,67,6,,,,,,,,,,,,,,,,,,,,,,,,main,1,1,1,positive,negative,j,j,1,1.0912079999689013,305.78718939999817,306.7890568000148,306.75589179998497,None,305.78718939999817,None,305.78718939999817,None,305.78718939999817,None,307.8595708399953,None,307.8595708399953,None,307.8595708399953,None,,,,,,,,,,,108,26,Male,2022-05-02_12h50.46.983,Boat,2022.1.1,59.96433322224559,
positive,neutral,2,l,j,,,,,,,,,3,14,68,17,,,,,,,,,,,,,,,,,,,,,,,,main,2,2,2,neutral,positive,l,l,1,0.8733554999926127,307.8754542999668,308.8977536999737,308.85590540000703,None,307.8754542999668,None,307.8754542999668,None,307.8754542999668,None,309.7366209400061,None,309.7366209400061,None,309.7366209400061,None,,,,,,,,,,,108,26,Male,2022-05-02_12h50.46.983,Boat,2022.1.1,59.96433322224559,
positive,positive,1,l,j,,,,,,,,,3,15,69,2,,,,,,,,,,,,,,,,,,,,,,,,main,2,2,1,positive,positive,l,,0,1.107999200001359,309.7548071999918,310.75706540001556,310.72290009999415,None,309.7548071999918,None,309.7548071999918,None,309.7548071999918,None,311.85253490001196,None,311.85253490001196,None,311.85253490001196,None,,,,,,,,,,,108,26,Male,2022-05-02_12h50.46.983,Boat,2022.1.1,59.96433322224559,
neutral,neutral,1,k,k,,,,,,,,,3,16,70,1,,,,,,,,,,,,,,,,,,,,,,,,main,2,2,1,neutral,neutral,k,k,1,0.9249057000270113,312.8749244000064,313.8978162999847,313.85715860000346,None,312.8749244000064,None,312.8749244000064,None,312.8749244000064,None,314.7867629399698,None,314.7867629399698,None,314.7867629399698,None,,,,,,,,,,,108,26,Male,2022-05-02_12h50.46.983,Boat,2022.1.1,59.96433322224559,
neutral,positive,1,k,k,,,,,,,,,3,17,71,4,,,,,,,,,,,,,,,,,,,,,,,,main,1,1,1,positive,neutral,k,k,1,1.3749476000084542,314.80483480001567,315.80608840001514,315.78984240000136,None,314.80483480001567,None,314.80483480001567,None,314.80483480001567,None,317.16535203999956,None,317.16535203999956,None,317.16535203999956,None,,,,,,,,,,,108,26,Male,2022-05-02_12h50.46.983,Boat,2022.1.1,59.96433322224559,
negative,negative,2,j,l,,,,,,,,,4,0,72,9,,,,,,,,,,,,,,,,,,,,,,,,main,2,2,2,negative,negative,j,j,1,1.073007500031963,317.1842844999628,318.1896273000166,318.15567449998343,None,317.1842844999628,None,317.1842844999628,None,317.1842844999628,None,319.23949783996795,None,319.23949783996795,None,319.23949783996795,None,,,,,,,,,,,108,26,Male,2022-05-02_12h50.46.983,Boat,2022.1.1,59.96433322224559,
negative,positive,1,j,l,,,,,,,,,4,1,73,6,,,,,,,,,,,,,,,,,,,,,,,,main,2,2,1,positive,negative,j,j,1,0.8780574999982491,319.25811559997965,320.28423629997997,320.23936309997225,None,319.25811559997965,None,319.25811559997965,None,319.25811559997965,None,321.12154793998343,None,321.12154793998343,None,321.12154793998343,None,,,,,,,,,,,108,26,Male,2022-05-02_12h50.46.983,Boat,2022.1.1,59.96433322224559,
positive,negative,1,l,j,,,,,,,,,4,2,74,5,,,,,,,,,,,,,,,,,,,,,,,,main,1,1,1,negative,positive,l,l,1,0.9695115000358783,321.1390590000083,322.15619629999856,322.11775320000015,None,321.1390590000083,None,321.1390590000083,None,321.1390590000083,None,323.0934392399795,None,323.0934392399795,None,323.0934392399795,None,,,,,,,,,,,108,26,Male,2022-05-02_12h50.46.983,Boat,2022.1.1,59.96433322224559,
neutral,negative,1,k,k,,,,,,,,,4,3,75,7,,,,,,,,,,,,,,,,,,,,,,,,main,1,1,1,negative,neutral,k,k,1,0.8570909000118263,323.1102943000151,324.12260559998685,324.08413769997424,None,323.1102943000151,None,323.1102943000151,None,323.1102943000151,None,324.9549823400157,None,324.9549823400157,None,324.9549823400157,None,,,,,,,,,,,108,26,Male,2022-05-02_12h50.46.983,Boat,2022.1.1,59.96433322224559,
neutral,neutral,2,k,k,,,,,,,,,4,4,76,10,,,,,,,,,,,,,,,,,,,,,,,,main,2,2,2,neutral,neutral,k,k,1,0.8770517999655567,324.97191720001865,325.9744834000012,325.95623229997,None,324.97191720001865,None,324.97191720001865,None,324.97191720001865,None,326.8351961399603,None,326.8351961399603,None,326.8351961399603,None,,,,,,,,,,,108,26,Male,2022-05-02_12h50.46.983,Boat,2022.1.1,59.96433322224559,
positive,positive,1,l,j,,,,,,,,,4,5,77,2,,,,,,,,,,,,,,,,,,,,,,,,main,2,2,1,positive,positive,l,l,1,0.92203720001271,326.85518459999,327.8566633000155,327.8399980000104,None,326.85518459999,None,326.85518459999,None,326.85518459999,None,328.7599365400092,None,328.7599365400092,None,328.7599365400092,None,,,,,,,,,,,108,26,Male,2022-05-02_12h50.46.983,Boat,2022.1.1,59.96433322224559,
positive,neutral,1,l,j,,,,,,,,,4,6,78,8,,,,,,,,,,,,,,,,,,,,,,,,main,1,1,1,neutral,positive,l,l,1,1.0583139000227675,328.77614179998636,329.79144810000435,329.7562833999982,None,328.77614179998636,None,328.77614179998636,None,328.77614179998636,None,330.8216342400119,None,330.8216342400119,None,330.8216342400119,None,,,,,,,,,,,108,26,Male,2022-05-02_12h50.46.983,Boat,2022.1.1,59.96433322224559,
negative,neutral,1,j,l,,,,,,,,,4,7,79,3,,,,,,,,,,,,,,,,,,,,,,,,main,2,2,1,neutral,negative,j,j,1,0.9929904000018723,330.83961049997015,331.83953389996896,331.82308639999246,None,330.83961049997015,None,330.83961049997015,None,330.83961049997015,None,332.81908493998344,None,332.81908493998344,None,332.81908493998344,None,,,,,,,,,,,108,26,Male,2022-05-02_12h50.46.983,Boat,2022.1.1,59.96433322224559,
negative,neutral,2,j,l,,,,,,,,,4,8,80,12,,,,,,,,,,,,,,,,,,,,,,,,main,2,2,2,neutral,negative,j,j,1,0.9967543000238948,332.83855280000716,333.83987929997966,333.8064801999717,None,332.83855280000716,None,332.83855280000716,None,332.83855280000716,None,334.8183684399992,None,334.8183684399992,None,334.8183684399992,None,,,,,,,,,,,108,26,Male,2022-05-02_12h50.46.983,Boat,2022.1.1,59.96433322224559,
negative,positive,2,j,l,,,,,,,,,4,9,81,15,,,,,,,,,,,,,,,,,,,,,,,,main,1,1,2,positive,negative,j,j,1,0.7902553000021726,334.8385767000145,335.83964489999926,335.8232016999973,None,334.8385767000145,None,334.8385767000145,None,334.8385767000145,None,336.60972564000986,None,336.60972564000986,None,336.60972564000986,None,,,,,,,,,,,108,26,Male,2022-05-02_12h50.46.983,Boat,2022.1.1,59.96433322224559,
negative,negative,1,j,l,,,,,,,,,4,10,82,0,,,,,,,,,,,,,,,,,,,,,,,,main,1,1,1,negative,negative,j,j,1,0.9374405000125989,336.62692840001546,337.63475049997214,337.61478720000014,None,336.62692840001546,None,336.62692840001546,None,336.62692840001546,None,338.5511322400125,None,338.5511322400125,None,338.5511322400125,None,,,,,,,,,,,108,26,Male,2022-05-02_12h50.46.983,Boat,2022.1.1,59.96433322224559,
positive,neutral,2,l,j,,,,,,,,,4,11,83,17,,,,,,,,,,,,,,,,,,,,,,,,main,2,2,2,neutral,positive,l,l,1,0.8495589999947697,338.57196869998006,339.57296219997806,339.55681330000516,None,338.57196869998006,None,338.57196869998006,None,338.57196869998006,None,340.4030225400056,None,340.4030225400056,None,340.4030225400056,None,,,,,,,,,,,108,26,Male,2022-05-02_12h50.46.983,Boat,2022.1.1,59.96433322224559,
positive,positive,2,l,j,,,,,,,,,4,12,84,11,,,,,,,,,,,,,,,,,,,,,,,,main,1,1,2,positive,positive,l,l,1,0.8222152999951504,340.42181899998104,341.4377793999738,341.41811069997493,None,340.42181899998104,None,340.42181899998104,None,340.42181899998104,None,342.2267031399824,None,342.2267031399824,None,342.2267031399824,None,,,,,,,,,,,108,26,Male,2022-05-02_12h50.46.983,Boat,2022.1.1,59.96433322224559,
neutral,positive,2,k,k,,,,,,,,,4,13,85,13,,,,,,,,,,,,,,,,,,,,,,,,main,2,2,2,positive,neutral,k,k,1,0.8555616000085138,342.2450885999715,343.26522100000875,343.22375669999747,None,342.2450885999715,None,342.2450885999715,None,342.2450885999715,None,344.08694843997364,None,344.08694843997364,None,344.08694843997364,None,,,,,,,,,,,108,26,Male,2022-05-02_12h50.46.983,Boat,2022.1.1,59.96433322224559,
neutral,positive,1,k,k,,,,,,,,,4,14,86,4,,,,,,,,,,,,,,,,,,,,,,,,main,2,2,1,positive,neutral,k,k,1,1.0269665999803692,344.1052494000178,345.1064191000187,345.0900566999917,None,344.1052494000178,None,344.1052494000178,None,344.1052494000178,None,346.1171312399965,None,346.1171312399965,None,346.1171312399965,None,,,,,,,,,,,108,26,Male,2022-05-02_12h50.46.983,Boat,2022.1.1,59.96433322224559,
neutral,neutral,1,k,k,,,,,,,,,4,15,87,1,,,,,,,,,,,,,,,,,,,,,,,,main,1,1,1,neutral,neutral,k,k,1,0.7425822999794036,346.1374778000172,347.14002819999587,347.12320999999065,None,346.1374778000172,None,346.1374778000172,None,346.1374778000172,None,347.86109553996357,None,347.86109553996357,None,347.86109553996357,None,,,,,,,,,,,108,26,Male,2022-05-02_12h50.46.983,Boat,2022.1.1,59.96433322224559,
neutral,negative,2,k,k,,,,,,,,,4,16,88,16,,,,,,,,,,,,,,,,,,,,,,,,main,2,2,2,negative,neutral,k,k,1,0.664395300031174,347.8771520999726,348.88988520001294,348.8565661999746,None,347.8771520999726,None,347.8771520999726,None,347.8771520999726,None,349.5283618399699,None,349.5283618399699,None,349.5283618399699,None,,,,,,,,,,,108,26,Male,2022-05-02_12h50.46.983,Boat,2022.1.1,59.96433322224559,
positive,negative,2,l,j,,,,,,,,,4,17,89,14,,,,,,,,,,,,,,,,,,,,,,,,main,1,1,2,negative,positive,l,l,1,0.8017851000186056,349.5494133000029,350.5569396999781,350.5229562000022,None,349.5494133000029,None,349.5494133000029,None,349.5494133000029,None,351.3341470400046,None,351.3341470400046,None,351.3341470400046,None,,,,,,,,,,,108,26,Male,2022-05-02_12h50.46.983,Boat,2022.1.1,59.96433322224559,
positive,neutral,1,l,j,,,,,,,,,5,0,90,8,,,,,,,,,,,,,,,,,,,,,,,,main,1,1,1,neutral,positive,l,l,1,0.7861827000160702,351.35251029999927,352.3650877000182,352.32325439999113,None,351.35251029999927,None,351.35251029999927,None,351.35251029999927,None,353.12191814000835,None,353.12191814000835,None,353.12191814000835,None,,,,,,,,,,,108,26,Male,2022-05-02_12h50.46.983,Boat,2022.1.1,59.96433322224559,
neutral,negative,1,k,k,,,,,,,,,5,1,91,7,,,,,,,,,,,,,,,,,,,,,,,,main,2,2,1,negative,neutral,k,k,1,0.7541628000326455,353.1403272000025,354.16503520001424,354.1180725999875,None,353.1403272000025,None,353.1403272000025,None,353.1403272000025,None,354.8786818399967,None,354.8786818399967,None,354.8786818399967,None,,,,,,,,,,,108,26,Male,2022-05-02_12h50.46.983,Boat,2022.1.1,59.96433322224559,
negative,neutral,2,j,l,,,,,,,,,5,2,92,12,,,,,,,,,,,,,,,,,,,,,,,,main,2,2,2,neutral,negative,j,j,1,0.9633574999752454,354.8954460999812,355.9153441999806,355.8734825999709,None,354.8954460999812,None,354.8954460999812,None,354.8954460999812,None,356.846057340008,None,356.846057340008,None,356.846057340008,None,,,,,,,,,,,108,26,Male,2022-05-02_12h50.46.983,Boat,2022.1.1,59.96433322224559,
positive,positive,2,l,j,,,,,,,,,5,3,93,11,,,,,,,,,,,,,,,,,,,,,,,,main,2,2,2,positive,positive,l,l,1,0.8134689000435174,356.8670231999713,357.87181159999454,357.85186019999674,None,356.8670231999713,None,356.8670231999713,None,356.8670231999713,None,358.6601117399696,None,358.6601117399696,None,358.6601117399696,None,,,,,,,,,,,108,26,Male,2022-05-02_12h50.46.983,Boat,2022.1.1,59.96433322224559,
negative,negative,2,j,l,,,,,,,,,5,4,94,9,,,,,,,,,,,,,,,,,,,,,,,,main,1,1,2,negative,negative,j,j,1,0.9077730000135489,358.67730300000403,359.6904426999972,359.6546435999917,None,358.67730300000403,None,358.67730300000403,None,358.67730300000403,None,360.57209773999057,None,360.57209773999057,None,360.57209773999057,None,,,,,,,,,,,108,26,Male,2022-05-02_12h50.46.983,Boat,2022.1.1,59.96433322224559,
neutral,neutral,2,k,k,,,,,,,,,5,5,95,10,,,,,,,,,,,,,,,,,,,,,,,,main,2,2,2,neutral,neutral,k,k,1,0.8302080000285059,360.58980379998684,361.590083899966,361.5733804999618,None,360.58980379998684,None,360.58980379998684,None,360.58980379998684,None,362.40673054000945,None,362.40673054000945,None,362.40673054000945,None,,,,,,,,,,,108,26,Male,2022-05-02_12h50.46.983,Boat,2022.1.1,59.96433322224559,
positive,positive,1,l,j,,,,,,,,,5,6,96,2,,,,,,,,,,,,,,,,,,,,,,,,main,2,2,1,positive,positive,l,l,1,0.9312243999447674,362.4237072999822,363.4250175000052,363.4071699999622,None,362.4237072999822,None,362.4237072999822,None,362.4237072999822,None,364.3410278400115,None,364.3410278400115,None,364.3410278400115,None,,,,,,,,,,,108,26,Male,2022-05-02_12h50.46.983,Boat,2022.1.1,59.96433322224559,
neutral,neutral,1,k,k,,,,,,,,,5,7,97,1,,,,,,,,,,,,,,,,,,,,,,,,main,2,2,1,neutral,neutral,k,k,1,0.8584489999921061,364.3576665999717,365.3711681999848,365.35181229998125,None,364.3576665999717,None,364.3576665999717,None,364.3576665999717,None,366.20299853998586,None,366.20299853998586,None,366.20299853998586,None,,,,,,,,,,,108,26,Male,2022-05-02_12h50.46.983,Boat,2022.1.1,59.96433322224559,
neutral,positive,1,k,k,,,,,,,,,5,8,98,4,,,,,,,,,,,,,,,,,,,,,,,,main,1,1,1,positive,neutral,k,k,1,0.6844598000170663,366.22259449999547,367.23211460001767,367.1902807999868,None,366.22259449999547,None,366.22259449999547,None,366.22259449999547,None,367.89047064000624,None,367.89047064000624,None,367.89047064000624,None,,,,,,,,,,,108,26,Male,2022-05-02_12h50.46.983,Boat,2022.1.1,59.96433322224559,
negative,positive,1,j,l,,,,,,,,,5,9,99,6,,,,,,,,,,,,,,,,,,,,,,,,main,2,2,1,positive,negative,j,j,1,1.208583700004965,367.9083551999647,368.9243356999941,368.8904024999938,None,367.9083551999647,None,367.9083551999647,None,367.9083551999647,None,370.10360124,None,370.10360124,None,370.10360124,None,,,,,,,,,,,108,26,Male,2022-05-02_12h50.46.983,Boat,2022.1.1,59.96433322224559,
neutral,positive,2,k,k,,,,,,,,,5,10,100,13,,,,,,,,,,,,,,,,,,,,,,,,main,1,1,2,positive,neutral,k,k,1,0.8181559999939054,370.1227063999977,371.12530979997246,371.107179499988,None,370.1227063999977,None,370.1227063999977,None,370.1227063999977,None,371.92383363997214,None,371.92383363997214,None,371.92383363997214,None,,,,,,,,,,,108,26,Male,2022-05-02_12h50.46.983,Boat,2022.1.1,59.96433322224559,
negative,positive,2,j,l,,,,,,,,,5,11,101,15,,,,,,,,,,,,,,,,,,,,,,,,main,1,1,2,positive,negative,j,j,1,1.0004490000428632,371.943167099962,372.96872629999416,372.9219135000021,None,371.943167099962,None,371.943167099962,None,371.943167099962,None,373.92665793999913,None,373.92665793999913,None,373.92665793999913,None,,,,,,,,,,,108,26,Male,2022-05-02_12h50.46.983,Boat,2022.1.1,59.96433322224559,
negative,negative,1,j,l,,,,,,,,,5,12,102,0,,,,,,,,,,,,,,,,,,,,,,,,main,2,2,1,negative,negative,j,j,1,0.7941831000498496,373.9438257999718,374.9584645999712,374.92420060001314,None,373.9438257999718,None,373.9438257999718,None,373.9438257999718,None,375.72413263996714,None,375.72413263996714,None,375.72413263996714,None,,,,,,,,,,,108,26,Male,2022-05-02_12h50.46.983,Boat,2022.1.1,59.96433322224559,
negative,neutral,1,j,l,,,,,,,,,5,13,103,3,,,,,,,,,,,,,,,,,,,,,,,,main,2,2,1,neutral,negative,j,j,1,0.6681492000352591,375.74028959998395,376.75699249998434,376.7185965999961,None,375.74028959998395,None,375.74028959998395,None,375.74028959998395,None,377.39494503996684,None,377.39494503996684,None,377.39494503996684,None,,,,,,,,,,,108,26,Male,2022-05-02_12h50.46.983,Boat,2022.1.1,59.96433322224559,
positive,negative,1,l,j,,,,,,,,,5,14,104,5,,,,,,,,,,,,,,,,,,,,,,,,main,2,2,1,negative,positive,l,l,1,0.8667078000144102,377.4115940000047,378.42428749997634,378.3882802000153,None,377.4115940000047,None,377.4115940000047,None,377.4115940000047,None,379.26272243997664,None,379.26272243997664,None,379.26272243997664,None,,,,,,,,,,,108,26,Male,2022-05-02_12h50.46.983,Boat,2022.1.1,59.96433322224559,
positive,negative,2,l,j,,,,,,,,,5,15,105,14,,,,,,,,,,,,,,,,,,,,,,,,main,1,1,2,negative,positive,l,l,1,0.9505959000089206,379.28089359996375,380.2903484000126,380.25685710000107,None,379.28089359996375,None,379.28089359996375,None,379.28089359996375,None,381.2187649400148,None,381.2187649400148,None,381.2187649400148,None,,,,,,,,,,,108,26,Male,2022-05-02_12h50.46.983,Boat,2022.1.1,59.96433322224559,
positive,neutral,2,l,j,,,,,,,,,5,16,106,17,,,,,,,,,,,,,,,,,,,,,,,,main,2,2,2,neutral,positive,l,l,1,0.7958369999541901,381.2380421999842,382.240725199983,382.223940099997,None,381.2380421999842,None,381.2380421999842,None,381.2380421999842,None,383.0171436399978,None,383.0171436399978,None,383.0171436399978,None,,,,,,,,,,,108,26,Male,2022-05-02_12h50.46.983,Boat,2022.1.1,59.96433322224559,
neutral,negative,2,k,k,,,,,,,,,5,17,107,16,,,,,,,,,,,,,,,,,,,,,,,,main,2,2,2,negative,neutral,k,k,1,0.7077353000058793,383.0384238999686,384.0404935000115,384.02404429996386,None,383.0384238999686,None,383.0384238999686,None,383.0384238999686,None,384.72723623996717,None,384.72723623996717,None,384.72723623996717,None,,,,,,,,,,,108,26,Male,2022-05-02_12h50.46.983,Boat,2022.1.1,59.96433322224559,
positive,neutral,1,l,j,,,,,,,,,6,0,108,8,,,,,,,,,,,,,,,,,,,,,,,,main,2,2,1,neutral,positive,l,l,1,0.9564842999679968,384.7432066000183,385.7574325000169,385.7235607000184,None,384.7432066000183,None,384.7432066000183,None,384.7432066000183,None,386.6873610400071,None,386.6873610400071,None,386.6873610400071,None,,,,,,,,,,,108,26,Male,2022-05-02_12h50.46.983,Boat,2022.1.1,59.96433322224559,
positive,positive,2,l,j,,,,,,,,,6,1,109,11,,,,,,,,,,,,,,,,,,,,,,,,main,2,2,2,positive,positive,l,l,1,0.8748185000149533,386.70642130001215,387.72209960001055,387.70236679998925,None,386.70642130001215,None,386.70642130001215,None,386.70642130001215,None,388.56259993996355,None,388.56259993996355,None,388.56259993996355,None,,,,,,,,,,,108,26,Male,2022-05-02_12h50.46.983,Boat,2022.1.1,59.96433322224559,
neutral,positive,1,k,k,,,,,,,,,6,2,110,4,,,,,,,,,,,,,,,,,,,,,,,,main,2,2,1,positive,neutral,k,k,1,0.8404477999429218,388.58345949999057,389.5881193999667,389.56883820000803,None,388.58345949999057,None,388.58345949999057,None,388.58345949999057,None,390.4072757399699,None,390.4072757399699,None,390.4072757399699,None,,,,,,,,,,,108,26,Male,2022-05-02_12h50.46.983,Boat,2022.1.1,59.96433322224559,
positive,negative,1,l,j,,,,,,,,,6,3,111,5,,,,,,,,,,,,,,,,,,,,,,,,main,1,1,1,negative,positive,l,l,1,0.8288289000047371,390.42414049996296,391.44028400001116,391.40223910001805,None,390.42414049996296,None,390.42414049996296,None,390.42414049996296,None,392.23970373996417,None,392.23970373996417,None,392.23970373996417,None,,,,,,,,,,,108,26,Male,2022-05-02_12h50.46.983,Boat,2022.1.1,59.96433322224559,
neutral,neutral,1,k,k,,,,,,,,,6,4,112,1,,,,,,,,,,,,,,,,,,,,,,,,main,1,1,1,neutral,neutral,k,k,1,0.7534202000242658,392.2562076000031,393.2689790999866,393.2491516000009,None,392.2562076000031,None,392.2562076000031,None,392.2562076000031,None,393.99593593998,None,393.99593593998,None,393.99593593998,None,,,,,,,,,,,108,26,Male,2022-05-02_12h50.46.983,Boat,2022.1.1,59.96433322224559,
neutral,positive,2,k,k,,,,,,,,,6,5,113,13,,,,,,,,,,,,,,,,,,,,,,,,main,2,2,2,positive,neutral,k,k,1,0.6735887000104412,394.0115071000182,395.0241766999825,394.9905189999845,None,394.0115071000182,None,394.0115071000182,None,394.0115071000182,None,395.67284374000155,None,395.67284374000155,None,395.67284374000155,None,,,,,,,,,,,108,26,Male,2022-05-02_12h50.46.983,Boat,2022.1.1,59.96433322224559,
positive,negative,2,l,j,,,,,,,,,6,6,114,14,,,,,,,,,,,,,,,,,,,,,,,,main,2,2,2,negative,positive,l,l,1,0.8040302000008523,395.6897858000011,396.6912482000189,396.67408600001363,None,395.6897858000011,None,395.6897858000011,None,395.6897858000011,None,397.47857964001014,None,397.47857964001014,None,397.47857964001014,None,,,,,,,,,,,108,26,Male,2022-05-02_12h50.46.983,Boat,2022.1.1,59.96433322224559,
neutral,negative,1,k,k,,,,,,,,,6,7,115,7,,,,,,,,,,,,,,,,,,,,,,,,main,1,1,1,negative,neutral,k,k,1,0.752203100011684,397.4968551999773,398.5156927999924,398.47428939997917,None,397.4968551999773,None,397.4968551999773,None,397.4968551999773,None,399.236326239974,None,399.236326239974,None,399.236326239974,None,,,,,,,,,,,108,26,Male,2022-05-02_12h50.46.983,Boat,2022.1.1,59.96433322224559,
negative,neutral,1,j,l,,,,,,,,,6,8,116,3,,,,,,,,,,,,,,,,,,,,,,,,main,2,2,1,neutral,negative,j,j,1,0.8523476000409573,399.25633449997986,400.28243089996977,400.23612539999885,None,399.25633449997986,None,399.25633449997986,None,399.25633449997986,None,401.09054833996925,None,401.09054833996925,None,401.09054833996925,None,,,,,,,,,,,108,26,Male,2022-05-02_12h50.46.983,Boat,2022.1.1,59.96433322224559,
negative,negative,1,j,l,,,,,,,,,6,9,117,0,,,,,,,,,,,,,,,,,,,,,,,,main,1,1,1,negative,negative,j,j,1,0.7097632000222802,401.1064303999883,402.1101223999867,402.0931183999637,None,401.1064303999883,None,401.1064303999883,None,401.1064303999883,None,402.80391474001226,None,402.80391474001226,None,402.80391474001226,None,,,,,,,,,,,108,26,Male,2022-05-02_12h50.46.983,Boat,2022.1.1,59.96433322224559,
negative,neutral,2,j,l,,,,,,,,,6,10,118,12,,,,,,,,,,,,,,,,,,,,,,,,main,1,1,2,neutral,negative,j,j,1,0.8513136000256054,402.8192754999618,403.83573559997603,403.7915125999716,None,402.8192754999618,None,402.8192754999618,None,402.8192754999618,None,404.6577987399942,None,404.6577987399942,None,404.6577987399942,None,,,,,,,,,,,108,26,Male,2022-05-02_12h50.46.983,Boat,2022.1.1,59.96433322224559,
positive,positive,1,l,j,,,,,,,,,6,11,119,2,,,,,,,,,,,,,,,,,,,,,,,,main,1,1,1,positive,positive,l,l,1,0.7677419999963604,404.6743771000183,405.67440829996485,405.6578449999797,None,404.6743771000183,None,404.6743771000183,None,404.6743771000183,None,406.4272381399933,None,406.4272381399933,None,406.4272381399933,None,,,,,,,,,,,108,26,Male,2022-05-02_12h50.46.983,Boat,2022.1.1,59.96433322224559,
negative,positive,1,j,l,,,,,,,,,6,12,120,6,,,,,,,,,,,,,,,,,,,,,,,,main,1,1,1,positive,negative,j,j,1,1.0403107999591157,406.44422339997254,407.4660552999703,407.4247258999967,None,406.44422339997254,None,406.44422339997254,None,406.44422339997254,None,408.47211613997933,None,408.47211613997933,None,408.47211613997933,None,,,,,,,,,,,108,26,Male,2022-05-02_12h50.46.983,Boat,2022.1.1,59.96433322224559,
neutral,neutral,2,k,k,,,,,,,,,6,13,121,10,,,,,,,,,,,,,,,,,,,,,,,,main,1,1,2,neutral,neutral,k,k,1,0.8193601999664679,408.48976490000496,409.5079325999832,409.4719391000108,None,408.48976490000496,None,408.48976490000496,None,408.48976490000496,None,410.2930494399916,None,410.2930494399916,None,410.2930494399916,None,,,,,,,,,,,108,26,Male,2022-05-02_12h50.46.983,Boat,2022.1.1,59.96433322224559,
negative,negative,2,j,l,,,,,,,,,6,14,122,9,,,,,,,,,,,,,,,,,,,,,,,,main,1,1,2,negative,negative,j,j,1,0.9667995999916457,410.31095579999965,411.32456939999247,411.285661300004,None,410.31095579999965,None,410.31095579999965,None,410.31095579999965,None,412.2625660400081,None,412.2625660400081,None,412.2625660400081,None,,,,,,,,,,,108,26,Male,2022-05-02_12h50.46.983,Boat,2022.1.1,59.96433322224559,
negative,positive,2,j,l,,,,,,,,,6,15,123,15,,,,,,,,,,,,,,,,,,,,,,,,main,2,2,2,positive,negative,j,j,1,0.9855310999555513,412.27927319996525,413.28882720001275,413.26940559997456,None,412.27927319996525,None,412.27927319996525,None,412.27927319996525,None,414.2517546399904,None,414.2517546399904,None,414.2517546399904,None,,,,,,,,,,,108,26,Male,2022-05-02_12h50.46.983,Boat,2022.1.1,59.96433322224559,
neutral,negative,2,k,k,,,,,,,,,6,16,124,16,,,,,,,,,,,,,,,,,,,,,,,,main,2,2,2,negative,neutral,k,k,1,0.8370440999860875,414.2689589000074,415.2747071000049,415.2579472999787,None,414.2689589000074,None,414.2689589000074,None,414.2689589000074,None,416.09076824001386,None,416.09076824001386,None,416.09076824001386,None,,,,,,,,,,,108,26,Male,2022-05-02_12h50.46.983,Boat,2022.1.1,59.96433322224559,
positive,neutral,2,l,j,,,,,,,,,6,17,125,17,,,,,,,,,,,,,,,,,,,,,,,,main,1,1,2,neutral,positive,l,l,1,0.8430260000168346,416.10824859997956,417.1101951000164,417.0911169999745,None,416.10824859997956,None,416.10824859997956,None,416.10824859997956,None,417.93819993999205,None,417.93819993999205,None,417.93819993999205,None,,,,,,,,,,,108,26,Male,2022-05-02_12h50.46.983,Boat,2022.1.1,59.96433322224559,
negative,negative,2,j,l,,,,,,,,,7,0,126,9,,,,,,,,,,,,,,,,,,,,,,,,main,2,2,2,negative,negative,j,j,1,1.1390337999910116,417.9571129999822,418.9731235000072,418.95321179996245,None,417.9571129999822,None,417.9571129999822,None,417.9571129999822,None,420.08111023998936,None,420.08111023998936,None,420.08111023998936,None,,,,,,,,,,,108,26,Male,2022-05-02_12h50.46.983,Boat,2022.1.1,59.96433322224559,
neutral,positive,1,k,k,,,,,,,,,7,1,127,4,,,,,,,,,,,,,,,,,,,,,,,,main,1,1,1,positive,neutral,k,k,1,0.8478094000020064,420.0976434999611,421.1163182000164,421.07522009999957,None,420.0976434999611,None,420.0976434999611,None,420.0976434999611,None,421.93019673999515,None,421.93019673999515,None,421.93019673999515,None,,,,,,,,,,,108,26,Male,2022-05-02_12h50.46.983,Boat,2022.1.1,59.96433322224559,
negative,neutral,1,j,l,,,,,,,,,7,2,128,3,,,,,,,,,,,,,,,,,,,,,,,,main,2,2,1,neutral,negative,j,j,1,1.0394461000105366,421.94663389999187,422.96622080000816,422.9248426000122,None,421.94663389999187,None,421.94663389999187,None,421.94663389999187,None,423.97398663996137,None,423.97398663996137,None,423.97398663996137,None,,,,,,,,,,,108,26,Male,2022-05-02_12h50.46.983,Boat,2022.1.1,59.96433322224559,
negative,positive,2,j,l,,,,,,,,,7,3,129,15,,,,,,,,,,,,,,,,,,,,,,,,main,1,1,2,positive,negative,j,j,1,0.992614799994044,423.99026679998497,425.0246868999675,425.0246868999675,None,423.99026679998497,None,423.99026679998497,None,423.99026679998497,None,425.9702466400049,None,425.9702466400049,None,425.9702466400049,None,,,,,,,,,,,108,26,Male,2022-05-02_12h50.46.983,Boat,2022.1.1,59.96433322224559,
positive,positive,2,l,j,,,,,,,,,7,4,130,11,,,,,,,,,,,,,,,,,,,,,,,,main,1,1,2,positive,positive,l,l,1,0.876072800019756,425.9889212999842,426.9927709000185,426.9574488999788,None,425.9889212999842,None,425.9889212999842,None,425.9889212999842,None,427.8467382400122,None,427.8467382400122,None,427.8467382400122,None,,,,,,,,,,,108,26,Male,2022-05-02_12h50.46.983,Boat,2022.1.1,59.96433322224559,
positive,negative,1,l,j,,,,,,,,,7,5,131,5,,,,,,,,,,,,,,,,,,,,,,,,main,2,2,1,negative,positive,l,l,1,0.7768423000234179,427.8640581999789,428.8772559000063,428.84288000001106,None,427.8640581999789,None,427.8640581999789,None,427.8640581999789,None,429.6250380400161,None,429.6250380400161,None,429.6250380400161,None,,,,,,,,,,,108,26,Male,2022-05-02_12h50.46.983,Boat,2022.1.1,59.96433322224559,
positive,negative,2,l,j,,,,,,,,,7,6,132,14,,,,,,,,,,,,,,,,,,,,,,,,main,2,2,2,negative,positive,l,l,1,0.7373629999929108,429.6431229999871,430.6707404999761,430.62496679998003,None,429.6431229999871,None,429.6431229999871,None,429.6431229999871,None,431.3677326399775,None,431.3677326399775,None,431.3677326399775,None,,,,,,,,,,,108,26,Male,2022-05-02_12h50.46.983,Boat,2022.1.1,59.96433322224559,
negative,neutral,2,j,l,,,,,,,,,7,7,133,12,,,,,,,,,,,,,,,,,,,,,,,,main,2,2,2,neutral,negative,j,j,1,1.062459300039336,431.38663869997254,432.3917470999877,432.37210390000837,None,431.38663869997254,None,431.38663869997254,None,431.38663869997254,None,433.43050434000907,None,433.43050434000907,None,433.43050434000907,None,,,,,,,,,,,108,26,Male,2022-05-02_12h50.46.983,Boat,2022.1.1,59.96433322224559,
neutral,neutral,1,k,k,,,,,,,,,7,8,134,1,,,,,,,,,,,,,,,,,,,,,,,,main,2,2,1,neutral,neutral,k,k,1,0.75865790003445,433.45147289999295,434.46652999997605,434.4253786999616,None,433.45147289999295,None,433.45147289999295,None,433.45147289999295,None,435.19160893998924,None,435.19160893998924,None,435.19160893998924,None,,,,,,,,,,,108,26,Male,2022-05-02_12h50.46.983,Boat,2022.1.1,59.96433322224559,
positive,neutral,2,l,j,,,,,,,,,7,9,135,17,,,,,,,,,,,,,,,,,,,,,,,,main,2,2,2,neutral,positive,l,l,1,0.7262503000092693,435.21286510000937,436.23365459998604,436.19190229999367,None,435.21286510000937,None,435.21286510000937,None,435.21286510000937,None,436.92227323996485,None,436.92227323996485,None,436.92227323996485,None,,,,,,,,,,,108,26,Male,2022-05-02_12h50.46.983,Boat,2022.1.1,59.96433322224559,
neutral,positive,2,k,k,,,,,,,,,7,10,136,13,,,,,,,,,,,,,,,,,,,,,,,,main,1,1,2,positive,neutral,k,k,1,0.7253987999865785,436.93980230001034,437.9588358000037,437.91509209998185,None,436.93980230001034,None,436.93980230001034,None,436.93980230001034,None,438.6528979399882,None,438.6528979399882,None,438.6528979399882,None,,,,,,,,,,,108,26,Male,2022-05-02_12h50.46.983,Boat,2022.1.1,59.96433322224559,
positive,neutral,1,l,j,,,,,,,,,7,11,137,8,,,,,,,,,,,,,,,,,,,,,,,,main,2,2,1,neutral,positive,l,l,1,0.9066200999659486,438.67115899996134,439.67524299997604,439.6562149999663,None,438.67115899996134,None,438.67115899996134,None,438.67115899996134,None,440.56052473999443,None,440.56052473999443,None,440.56052473999443,None,,,,,,,,,,,108,26,Male,2022-05-02_12h50.46.983,Boat,2022.1.1,59.96433322224559,
positive,positive,1,l,j,,,,,,,,,7,12,138,2,,,,,,,,,,,,,,,,,,,,,,,,main,1,1,1,positive,positive,l,l,1,0.8621894000098109,440.57716779998736,441.59982040000614,441.5585259000072,None,440.57716779998736,None,440.57716779998736,None,440.57716779998736,None,442.4252870399796,None,442.4252870399796,None,442.4252870399796,None,,,,,,,,,,,108,26,Male,2022-05-02_12h50.46.983,Boat,2022.1.1,59.96433322224559,
neutral,negative,2,k,k,,,,,,,,,7,13,139,16,,,,,,,,,,,,,,,,,,,,,,,,main,1,1,2,negative,neutral,k,k,1,0.7453304000082426,442.44437519996427,443.47009389998857,443.4249972999678,None,442.44437519996427,None,442.44437519996427,None,442.44437519996427,None,444.1739312399586,None,444.1739312399586,None,444.1739312399586,None,,,,,,,,,,,108,26,Male,2022-05-02_12h50.46.983,Boat,2022.1.1,59.96433322224559,
neutral,neutral,2,k,k,,,,,,,,,7,14,140,10,,,,,,,,,,,,,,,,,,,,,,,,main,2,2,2,neutral,neutral,k,k,1,0.7000934999668971,444.19159499998204,445.19220039999345,445.1753605999984,None,444.19159499998204,None,444.19159499998204,None,444.19159499998204,None,445.876984439994,None,445.876984439994,None,445.876984439994,None,,,,,,,,,,,108,26,Male,2022-05-02_12h50.46.983,Boat,2022.1.1,59.96433322224559,
neutral,negative,1,k,k,,,,,,,,,7,15,141,7,,,,,,,,,,,,,,,,,,,,,,,,main,1,1,1,negative,neutral,k,k,1,0.685570000030566,445.89633000001777,446.91393480001716,446.874968899996,None,445.89633000001777,None,445.89633000001777,None,445.89633000001777,None,447.564345139981,None,447.564345139981,None,447.564345139981,None,,,,,,,,,,,108,26,Male,2022-05-02_12h50.46.983,Boat,2022.1.1,59.96433322224559,
negative,negative,1,j,l,,,,,,,,,7,16,142,0,,,,,,,,,,,,,,,,,,,,,,,,main,2,2,1,negative,negative,j,j,1,0.8607983000110835,447.5861064000055,448.5937109999941,448.55981870001415,None,447.5861064000055,None,447.5861064000055,None,447.5861064000055,None,449.42675563998637,None,449.42675563998637,None,449.42675563998637,None,,,,,,,,,,,108,26,Male,2022-05-02_12h50.46.983,Boat,2022.1.1,59.96433322224559,
negative,positive,1,j,l,,,,,,,,,7,17,143,6,,,,,,,,,,,,,,,,,,,,,,,,main,1,1,1,positive,negative,j,j,1,0.9196001999662258,449.4460326000117,450.4573590999935,450.43720929999836,None,449.4460326000117,None,449.4460326000117,None,449.4460326000117,None,451.35192293996806,None,451.35192293996806,None,451.35192293996806,None,,,,,,,,,,,108,26,Male,2022-05-02_12h50.46.983,Boat,2022.1.1,59.96433322224559,
negative,negative,2,j,l,,,,,,,,,8,0,144,9,,,,,,,,,,,,,,,,,,,,,,,,main,1,1,2,negative,negative,j,j,1,0.932498200039845,451.3715012000175,452.39195889997063,452.3534270999953,None,451.3715012000175,None,451.3715012000175,None,451.3715012000175,None,453.28724894000334,None,453.28724894000334,None,453.28724894000334,None,,,,,,,,,,,108,26,Male,2022-05-02_12h50.46.983,Boat,2022.1.1,59.96433322224559,
neutral,negative,1,k,k,,,,,,,,,8,1,145,7,,,,,,,,,,,,,,,,,,,,,,,,main,2,2,1,negative,neutral,k,k,1,0.7599654999794438,453.30709399998887,454.3254342,454.2866966999718,None,453.30709399998887,None,453.30709399998887,None,453.30709399998887,None,455.04817224,None,455.04817224,None,455.04817224,None,,,,,,,,,,,108,26,Male,2022-05-02_12h50.46.983,Boat,2022.1.1,59.96433322224559,
positive,negative,2,l,j,,,,,,,,,8,2,146,14,,,,,,,,,,,,,,,,,,,,,,,,main,2,2,2,negative,positive,l,l,1,0.7963407000061125,455.0649267999688,456.08342539996374,456.0428413999616,None,455.0649267999688,None,455.0649267999688,None,455.0649267999688,None,456.84847703998093,None,456.84847703998093,None,456.84847703998093,None,,,,,,,,,,,108,26,Male,2022-05-02_12h50.46.983,Boat,2022.1.1,59.96433322224559,
positive,positive,2,l,j,,,,,,,,,8,3,147,11,,,,,,,,,,,,,,,,,,,,,,,,main,2,2,2,positive,positive,l,l,1,0.7946452000178397,456.865902599995,457.87329929997213,457.8533752000076,None,456.865902599995,None,456.865902599995,None,456.865902599995,None,458.64448833998176,None,458.64448833998176,None,458.64448833998176,None,,,,,,,,,,,108,26,Male,2022-05-02_12h50.46.983,Boat,2022.1.1,59.96433322224559,
neutral,positive,1,k,k,,,,,,,,,8,4,148,4,,,,,,,,,,,,,,,,,,,,,,,,main,2,2,1,positive,neutral,k,k,1,0.7704704999923706,458.66250789997866,459.6760461999802,459.63975679996656,None,458.66250789997866,None,458.66250789997866,None,458.66250789997866,None,460.4195805400086,None,460.4195805400086,None,460.4195805400086,None,,,,,,,,,,,108,26,Male,2022-05-02_12h50.46.983,Boat,2022.1.1,59.96433322224559,
negative,negative,1,j,l,,,,,,,,,8,5,149,0,,,,,,,,,,,,,,,,,,,,,,,,main,1,1,1,negative,negative,j,j,1,0.9952863000216894,460.4375874999678,461.4395652000094,461.42022129998077,None,460.4375874999678,None,460.4375874999678,None,460.4375874999678,None,462.414403939998,None,462.414403939998,None,462.414403939998,None,,,,,,,,,,,108,26,Male,2022-05-02_12h50.46.983,Boat,2022.1.1,59.96433322224559,
neutral,positive,2,k,k,,,,,,,,,8,6,150,13,,,,,,,,,,,,,,,,,,,,,,,,main,1,1,2,positive,neutral,k,k,1,0.6959278000285849,462.4354262999841,463.4401130999904,463.4206723999814,None,462.4354262999841,None,462.4354262999841,None,462.4354262999841,None,464.1165468399704,None,464.1165468399704,None,464.1165468399704,None,,,,,,,,,,,108,26,Male,2022-05-02_12h50.46.983,Boat,2022.1.1,59.96433322224559,
negative,positive,1,j,l,,,,,,,,,8,7,151,6,,,,,,,,,,,,,,,,,,,,,,,,main,2,2,1,positive,negative,j,j,1,0.8131761000258848,464.13353839999763,465.1398112999741,465.1202301000012,None,464.13353839999763,None,464.13353839999763,None,464.13353839999763,None,465.93131343999994,None,465.93131343999994,None,465.93131343999994,None,,,,,,,,,,,108,26,Male,2022-05-02_12h50.46.983,Boat,2022.1.1,59.96433322224559,
neutral,neutral,2,k,k,,,,,,,,,8,8,152,10,,,,,,,,,,,,,,,,,,,,,,,,main,1,1,2,neutral,neutral,k,k,1,0.6767614000127651,465.9484805999673,466.9700751999626,466.9235202000127,None,465.9484805999673,None,465.9484805999673,None,465.9484805999673,None,467.60936983997817,None,467.60936983997817,None,467.60936983997817,None,,,,,,,,,,,108,26,Male,2022-05-02_12h50.46.983,Boat,2022.1.1,59.96433322224559,
positive,negative,1,l,j,,,,,,,,,8,9,153,5,,,,,,,,,,,,,,,,,,,,,,,,main,1,1,1,negative,positive,l,l,1,0.7452453000005335,467.628905199992,468.64277490001405,468.60908249998465,None,467.628905199992,None,467.628905199992,None,467.628905199992,None,469.35901023997576,None,469.35901023997576,None,469.35901023997576,None,,,,,,,,,,,108,26,Male,2022-05-02_12h50.46.983,Boat,2022.1.1,59.96433322224559,
positive,neutral,1,l,j,,,,,,,,,8,10,154,8,,,,,,,,,,,,,,,,,,,,,,,,main,2,2,1,neutral,positive,l,l,1,0.7317628000164405,469.3771515999688,470.3929632999934,470.3591408999637,None,469.3771515999688,None,469.3771515999688,None,469.3771515999688,None,471.0933732400008,None,471.0933732400008,None,471.0933732400008,None,,,,,,,,,,,108,26,Male,2022-05-02_12h50.46.983,Boat,2022.1.1,59.96433322224559,
neutral,negative,2,k,k,,,,,,,,,8,11,155,16,,,,,,,,,,,,,,,,,,,,,,,,main,1,1,2,negative,neutral,k,k,1,0.7128421000088565,471.1113896999741,472.1234092999948,472.10372329998063,None,471.1113896999741,None,471.1113896999741,None,471.1113896999741,None,472.8092107400007,None,472.8092107400007,None,472.8092107400007,None,,,,,,,,,,,108,26,Male,2022-05-02_12h50.46.983,Boat,2022.1.1,59.96433322224559,
positive,positive,1,l,j,,,,,,,,,8,12,156,2,,,,,,,,,,,,,,,,,,,,,,,,main,1,1,1,positive,positive,l,l,1,0.7955364999943413,472.8275310000172,473.8450284000137,473.8091170999687,None,472.8275310000172,None,472.8275310000172,None,472.8275310000172,None,474.60899573998176,None,474.60899573998176,None,474.60899573998176,None,,,,,,,,,,,108,26,Male,2022-05-02_12h50.46.983,Boat,2022.1.1,59.96433322224559,
negative,neutral,1,j,l,,,,,,,,,8,13,157,3,,,,,,,,,,,,,,,,,,,,,,,,main,1,1,1,neutral,negative,j,j,1,0.8315940999891609,474.6250255999621,475.625807799981,475.60931349999737,None,474.6250255999621,None,474.6250255999621,None,474.6250255999621,None,476.44298453998636,None,476.44298453998636,None,476.44298453998636,None,,,,,,,,,,,108,26,Male,2022-05-02_12h50.46.983,Boat,2022.1.1,59.96433322224559,
positive,neutral,2,l,j,,,,,,,,,8,14,158,17,,,,,,,,,,,,,,,,,,,,,,,,main,2,2,2,neutral,positive,l,l,1,0.8458964000456035,476.4617061999743,477.47689170000376,477.4424088000087,None,476.4617061999743,None,476.4617061999743,None,476.4617061999743,None,478.29278153998894,None,478.29278153998894,None,478.29278153998894,None,,,,,,,,,,,108,26,Male,2022-05-02_12h50.46.983,Boat,2022.1.1,59.96433322224559,
neutral,neutral,1,k,k,,,,,,,,,8,15,159,1,,,,,,,,,,,,,,,,,,,,,,,,main,1,1,1,neutral,neutral,k,k,1,0.696106499992311,478.3097953000106,479.31076670001494,479.29261110001244,None,478.3097953000106,None,478.3097953000106,None,478.3097953000106,None,479.9924128399871,None,479.9924128399871,None,479.9924128399871,None,,,,,,,,,,,108,26,Male,2022-05-02_12h50.46.983,Boat,2022.1.1,59.96433322224559,
negative,neutral,2,j,l,,,,,,,,,8,16,160,12,,,,,,,,,,,,,,,,,,,,,,,,main,2,2,2,neutral,negative,j,j,1,0.7925643000053242,480.0088724999805,481.0092203000095,480.9925492000184,None,480.0088724999805,None,480.0088724999805,None,480.0088724999805,None,481.78826443999424,None,481.78826443999424,None,481.78826443999424,None,,,,,,,,,,,108,26,Male,2022-05-02_12h50.46.983,Boat,2022.1.1,59.96433322224559,
negative,positive,2,j,l,,,,,,,,,8,17,161,15,,,,,,,,,,,,,,,,,,,,,,,,main,1,1,2,positive,negative,j,j,1,0.723944199969992,481.80860370001756,482.8123987999861,482.77801399998134,None,481.80860370001756,None,481.80860370001756,None,481.80860370001756,None,483.5130089400045,None,483.5130089400045,None,483.5130089400045,None,,,,,,,,,,,108,26,Male,2022-05-02_12h50.46.983,Boat,2022.1.1,59.96433322224559,
negative,positive,1,j,l,,,,,,,,,9,0,162,6,,,,,,,,,,,,,,,,,,,,,,,,main,2,2,1,positive,negative,j,j,1,0.7777184000005946,483.53121159999864,484.54267809999874,484.5230244999984,None,483.53121159999864,None,483.53121159999864,None,483.53121159999864,None,485.29424273999757,None,485.29424273999757,None,485.29424273999757,None,,,,,,,,,,,108,26,Male,2022-05-02_12h50.46.983,Boat,2022.1.1,59.96433322224559,
positive,positive,2,l,j,,,,,,,,,9,1,163,11,,,,,,,,,,,,,,,,,,,,,,,,main,2,2,2,positive,positive,l,l,1,0.7588116999831982,485.31058220000705,486.31323600001633,486.2954418999725,None,485.31058220000705,None,485.31058220000705,None,485.31058220000705,None,487.05691213996033,None,487.05691213996033,None,487.05691213996033,None,,,,,,,,,,,108,26,Male,2022-05-02_12h50.46.983,Boat,2022.1.1,59.96433322224559,
positive,negative,1,l,j,,,,,,,,,9,2,164,5,,,,,,,,,,,,,,,,,,,,,,,,main,1,1,1,negative,positive,l,l,1,1.0832004999974743,487.0756750999717,488.09026329999324,488.0709335000138,None,487.0756750999717,None,487.0756750999717,None,487.0756750999717,None,489.1429105399584,None,489.1429105399584,None,489.1429105399584,None,,,,,,,,,,,108,26,Male,2022-05-02_12h50.46.983,Boat,2022.1.1,59.96433322224559,
positive,neutral,2,l,j,,,,,,,,,9,3,165,17,,,,,,,,,,,,,,,,,,,,,,,,main,2,2,2,neutral,positive,l,l,1,0.8395127999829128,489.16027120000217,490.1736344000092,490.1541628999985,None,489.16027120000217,None,489.16027120000217,None,489.16027120000217,None,490.98646094001015,None,490.98646094001015,None,490.98646094001015,None,,,,,,,,,,,108,26,Male,2022-05-02_12h50.46.983,Boat,2022.1.1,59.96433322224559,
negative,negative,1,j,l,,,,,,,,,9,4,166,0,,,,,,,,,,,,,,,,,,,,,,,,main,2,2,1,negative,negative,j,j,1,0.7415931000141427,491.0048569999635,492.0092993999715,491.99290589999873,None,491.0048569999635,None,491.0048569999635,None,491.0048569999635,None,492.7297716400062,None,492.7297716400062,None,492.7297716400062,None,,,,,,,,,,,108,26,Male,2022-05-02_12h50.46.983,Boat,2022.1.1,59.96433322224559,
neutral,negative,1,k,k,,,,,,,,,9,5,167,7,,,,,,,,,,,,,,,,,,,,,,,,main,2,2,1,negative,neutral,k,k,1,0.7577245999709703,492.7461620999966,493.75993699999526,493.7209753000061,None,492.7461620999966,None,492.7461620999966,None,492.7461620999966,None,494.49110064000706,None,494.49110064000706,None,494.49110064000706,None,,,,,,,,,,,108,26,Male,2022-05-02_12h50.46.983,Boat,2022.1.1,59.96433322224559,
neutral,positive,1,k,k,,,,,,,,,9,6,168,4,,,,,,,,,,,,,,,,,,,,,,,,main,2,2,1,positive,neutral,k,k,1,0.7089490999933332,494.5078318999731,495.52392319997307,495.5043183999951,None,494.5078318999731,None,494.5078318999731,None,494.5078318999731,None,496.2037562399928,None,496.2037562399928,None,496.2037562399928,None,,,,,,,,,,,108,26,Male,2022-05-02_12h50.46.983,Boat,2022.1.1,59.96433322224559,
positive,positive,1,l,j,,,,,,,,,9,7,169,2,,,,,,,,,,,,,,,,,,,,,,,,main,1,1,1,positive,positive,l,l,1,0.7769777000066824,496.21982279996155,497.2264734999626,497.2095410999609,None,496.21982279996155,None,496.21982279996155,None,496.21982279996155,None,497.9814117399801,None,497.9814117399801,None,497.9814117399801,None,,,,,,,,,,,108,26,Male,2022-05-02_12h50.46.983,Boat,2022.1.1,59.96433322224559,
neutral,neutral,1,k,k,,,,,,,,,9,8,170,1,,,,,,,,,,,,,,,,,,,,,,,,main,2,2,1,neutral,neutral,k,k,1,0.7560445999843068,497.99822289997246,499.0096251000068,498.9737802000018,None,497.99822289997246,None,497.99822289997246,None,497.99822289997246,None,499.74168844000087,None,499.74168844000087,None,499.74168844000087,None,,,,,,,,,,,108,26,Male,2022-05-02_12h50.46.983,Boat,2022.1.1,59.96433322224559,
negative,neutral,2,j,l,,,,,,,,,9,9,171,12,,,,,,,,,,,,,,,,,,,,,,,,main,2,2,2,neutral,negative,j,j,1,0.6919293000246398,499.75821050000377,500.75985039997613,500.7419339999906,None,499.75821050000377,None,499.75821050000377,None,499.75821050000377,None,501.4374008399609,None,501.4374008399609,None,501.4374008399609,None,,,,,,,,,,,108,26,Male,2022-05-02_12h50.46.983,Boat,2022.1.1,59.96433322224559,
negative,neutral,1,j,l,,,,,,,,,9,10,172,3,,,,,,,,,,,,,,,,,,,,,,,,main,2,2,1,neutral,negative,j,j,1,0.7273566999938339,501.4529917999753,502.4680115999654,502.4265105999657,None,501.4529917999753,None,501.4529917999753,None,501.4529917999753,None,503.1649495399615,None,503.1649495399615,None,503.1649495399615,None,,,,,,,,,,,108,26,Male,2022-05-02_12h50.46.983,Boat,2022.1.1,59.96433322224559,
neutral,negative,2,k,k,,,,,,,,,9,11,173,16,,,,,,,,,,,,,,,,,,,,,,,,main,1,1,2,negative,neutral,k,k,1,1.1638110000058077,503.1819805999985,504.1930222999654,504.159619699989,None,503.1819805999985,None,503.1819805999985,None,503.1819805999985,None,505.3315707400034,None,505.3315707400034,None,505.3315707400034,None,,,,,,,,,,,108,26,Male,2022-05-02_12h50.46.983,Boat,2022.1.1,59.96433322224559,
positive,negative,2,l,j,,,,,,,,,9,12,174,14,,,,,,,,,,,,,,,,,,,,,,,,main,1,1,2,negative,positive,l,l,1,0.8354911999776959,505.3501141999732,506.3597965000081,506.3427230999805,None,505.3501141999732,None,505.3501141999732,None,505.3501141999732,None,507.17148283999995,None,507.17148283999995,None,507.17148283999995,None,,,,,,,,,,,108,26,Male,2022-05-02_12h50.46.983,Boat,2022.1.1,59.96433322224559,
negative,negative,2,j,l,,,,,,,,,9,13,175,9,,,,,,,,,,,,,,,,,,,,,,,,main,2,2,2,negative,negative,j,j,1,0.7493350999429822,507.19096809998155,508.2011707999627,508.1599036999978,None,507.19096809998155,None,507.19096809998155,None,507.19096809998155,None,508.92299143996206,None,508.92299143996206,None,508.92299143996206,None,,,,,,,,,,,108,26,Male,2022-05-02_12h50.46.983,Boat,2022.1.1,59.96433322224559,
positive,neutral,1,l,j,,,,,,,,,9,14,176,8,,,,,,,,,,,,,,,,,,,,,,,,main,1,1,1,neutral,positive,l,l,1,0.8780240000342019,508.9418424000032,509.95200849999674,509.9249329000013,None,508.9418424000032,None,508.9418424000032,None,508.9418424000032,None,510.80303173998254,None,510.80303173998254,None,510.80303173998254,None,,,,,,,,,,,108,26,Male,2022-05-02_12h50.46.983,Boat,2022.1.1,59.96433322224559,
neutral,neutral,2,k,k,,,,,,,,,9,15,177,10,,,,,,,,,,,,,,,,,,,,,,,,main,1,1,2,neutral,neutral,k,k,1,0.8160243999445811,510.82368979998864,511.8377887000097,511.8179225999629,None,510.82368979998864,None,510.82368979998864,None,510.82368979998864,None,512.6219400400005,None,512.6219400400005,None,512.6219400400005,None,,,,,,,,,,,108,26,Male,2022-05-02_12h50.46.983,Boat,2022.1.1,59.96433322224559,
neutral,positive,2,k,k,,,,,,,,,9,16,178,13,,,,,,,,,,,,,,,,,,,,,,,,main,1,1,2,positive,neutral,k,k,1,0.7696569000254385,512.6419448999804,513.657452000014,513.6184492000029,None,512.6419448999804,None,512.6419448999804,None,512.6419448999804,None,514.3938484399987,None,514.3938484399987,None,514.3938484399987,None,,,,,,,,,,,108,26,Male,2022-05-02_12h50.46.983,Boat,2022.1.1,59.96433322224559,
negative,positive,2,j,l,,,,,,,,,9,17,179,15,,,,,,,,,,,,,,,,,,,,,,,,main,2,2,2,positive,negative,j,j,1,0.8304434000165202,514.409484600008,515.4242104999721,515.4048687000177,None,514.409484600008,None,514.409484600008,None,514.409484600008,None,516.2265245399612,None,516.2265245399612,None,516.2265245399612,None,,,,,,,,,,,108,26,Male,2022-05-02_12h50.46.983,Boat,2022.1.1,59.96433322224559,
negative,positive,1,j,l,,,,,,,,,10,0,180,6,,,,,,,,,,,,,,,,,,,,,,,,main,1,1,1,positive,negative,j,j,1,0.8510406000423245,516.245790499961,517.2575818999903,517.2383264999953,None,516.245790499961,None,516.245790499961,None,516.245790499961,None,518.0803674399795,None,518.0803674399795,None,518.0803674399795,None,,,,,,,,,,,108,26,Male,2022-05-02_12h50.46.983,Boat,2022.1.1,59.96433322224559,
neutral,negative,1,k,k,,,,,,,,,10,1,181,7,,,,,,,,,,,,,,,,,,,,,,,,main,1,1,1,negative,neutral,k,k,1,0.7598388999467716,518.0962006999762,519.1182487999904,519.0769876000122,None,518.0962006999762,None,518.0962006999762,None,518.0962006999762,None,519.843422839971,None,519.843422839971,None,519.843422839971,None,,,,,,,,,,,108,26,Male,2022-05-02_12h50.46.983,Boat,2022.1.1,59.96433322224559,
positive,negative,1,l,j,,,,,,,,,10,2,182,5,,,,,,,,,,,,,,,,,,,,,,,,main,1,1,1,negative,positive,l,l,1,0.9369348000036553,519.8603114999714,520.8598779999884,520.8432485999656,None,519.8603114999714,None,519.8603114999714,None,519.8603114999714,None,521.7821474399825,None,521.7821474399825,None,521.7821474399825,None,,,,,,,,,,,108,26,Male,2022-05-02_12h50.46.983,Boat,2022.1.1,59.96433322224559,
negative,positive,2,j,l,,,,,,,,,10,3,183,15,,,,,,,,,,,,,,,,,,,,,,,,main,1,1,2,positive,negative,j,j,1,0.9340527000022121,521.8003361999872,522.8118402999826,522.776936099981,None,521.8003361999872,None,521.8003361999872,None,521.8003361999872,None,523.721722140006,None,523.721722140006,None,523.721722140006,None,,,,,,,,,,,108,26,Male,2022-05-02_12h50.46.983,Boat,2022.1.1,59.96433322224559,
neutral,positive,1,k,k,,,,,,,,,10,4,184,4,,,,,,,,,,,,,,,,,,,,,,,,main,2,2,1,positive,neutral,k,k,1,0.7590029999846593,523.7411394999945,524.7439943999634,524.7101091999793,None,523.7411394999945,None,523.7411394999945,None,523.7411394999945,None,525.4805689399655,None,525.4805689399655,None,525.4805689399655,None,,,,,,,,,,,108,26,Male,2022-05-02_12h50.46.983,Boat,2022.1.1,59.96433322224559,
positive,positive,1,l,j,,,,,,,,,10,5,185,2,,,,,,,,,,,,,,,,,,,,,,,,main,1,1,1,positive,positive,l,l,1,0.8035138000268489,525.4980018999777,526.5215445999638,526.475258499966,None,525.4980018999777,None,525.4980018999777,None,525.4980018999777,None,527.2886360399716,None,527.2886360399716,None,527.2886360399716,None,,,,,,,,,,,108,26,Male,2022-05-02_12h50.46.983,Boat,2022.1.1,59.96433322224559,
neutral,neutral,1,k,k,,,,,,,,,10,6,186,1,,,,,,,,,,,,,,,,,,,,,,,,main,2,2,1,neutral,neutral,k,k,1,0.731716999958735,527.309423699975,528.3354904999724,528.2884309999645,None,527.309423699975,None,527.309423699975,None,527.309423699975,None,529.0228895399778,None,529.0228895399778,None,529.0228895399778,None,,,,,,,,,,,108,26,Male,2022-05-02_12h50.46.983,Boat,2022.1.1,59.96433322224559,
neutral,negative,2,k,k,,,,,,,,,10,7,187,16,,,,,,,,,,,,,,,,,,,,,,,,main,1,1,2,negative,neutral,k,k,1,0.6828710000263527,529.0423797999974,530.0434733000002,530.0270511999843,None,529.0423797999974,None,529.0423797999974,None,529.0423797999974,None,530.7088371399732,None,530.7088371399732,None,530.7088371399732,None,,,,,,,,,,,108,26,Male,2022-05-02_12h50.46.983,Boat,2022.1.1,59.96433322224559,
negative,neutral,1,j,l,,,,,,,,,10,8,188,3,,,,,,,,,,,,,,,,,,,,,,,,main,2,2,1,neutral,negative,j,j,1,0.7530476999818347,530.726370599994,531.7437026000116,531.708123999997,None,530.726370599994,None,530.726370599994,None,530.726370599994,None,532.4645658399968,None,532.4645658399968,None,532.4645658399968,None,,,,,,,,,,,108,26,Male,2022-05-02_12h50.46.983,Boat,2022.1.1,59.96433322224559,
positive,positive,2,l,j,,,,,,,,,10,9,189,11,,,,,,,,,,,,,,,,,,,,,,,,main,1,1,2,positive,positive,l,l,1,1.0238366999546997,532.4807397999684,533.5051322999643,533.4602561999927,None,532.4807397999684,None,532.4807397999684,None,532.4807397999684,None,534.4927900400071,None,534.4927900400071,None,534.4927900400071,None,,,,,,,,,,,108,26,Male,2022-05-02_12h50.46.983,Boat,2022.1.1,59.96433322224559,
positive,neutral,1,l,j,,,,,,,,,10,10,190,8,,,,,,,,,,,,,,,,,,,,,,,,main,1,1,1,neutral,positive,l,l,1,0.8257293000351638,534.51047009998,535.5108908999828,535.4938214999856,None,534.51047009998,None,534.51047009998,None,534.51047009998,None,536.3223062400066,None,536.3223062400066,None,536.3223062400066,None,,,,,,,,,,,108,26,Male,2022-05-02_12h50.46.983,Boat,2022.1.1,59.96433322224559,
positive,neutral,2,l,j,,,,,,,,,10,11,191,17,,,,,,,,,,,,,,,,,,,,,,,,main,1,1,2,neutral,positive,l,l,1,0.7646410000161268,536.3418356999755,537.3436125000007,537.3271314000012,None,536.3418356999755,None,536.3418356999755,None,536.3418356999755,None,538.0889837399882,None,538.0889837399882,None,538.0889837399882,None,,,,,,,,,,,108,26,Male,2022-05-02_12h50.46.983,Boat,2022.1.1,59.96433322224559,
positive,negative,2,l,j,,,,,,,,,10,12,192,14,,,,,,,,,,,,,,,,,,,,,,,,main,2,2,2,negative,positive,l,l,1,0.7591843000263907,538.1089037999627,539.1107905000099,539.0937693999731,None,538.1089037999627,None,538.1089037999627,None,538.1089037999627,None,539.8490851400129,None,539.8490851400129,None,539.8490851400129,None,,,,,,,,,,,108,26,Male,2022-05-02_12h50.46.983,Boat,2022.1.1,59.96433322224559,
negative,neutral,2,j,l,,,,,,,,,10,13,193,12,,,,,,,,,,,,,,,,,,,,,,,,main,2,2,2,neutral,negative,j,j,1,0.921037099964451,539.8661679999786,540.8783246999956,540.8437813000055,None,539.8661679999786,None,539.8661679999786,None,539.8661679999786,None,541.7724627399875,None,541.7724627399875,None,541.7724627399875,None,,,,,,,,,,,108,26,Male,2022-05-02_12h50.46.983,Boat,2022.1.1,59.96433322224559,
negative,negative,1,j,l,,,,,,,,,10,14,194,0,,,,,,,,,,,,,,,,,,,,,,,,main,1,1,1,negative,negative,j,j,1,0.8278038999997079,541.7925306999823,542.7939136999776,542.7770812999806,None,541.7925306999823,None,541.7925306999823,None,541.7925306999823,None,543.6046048399585,None,543.6046048399585,None,543.6046048399585,None,,,,,,,,,,,108,26,Male,2022-05-02_12h50.46.983,Boat,2022.1.1,59.96433322224559,
neutral,positive,2,k,k,,,,,,,,,10,15,195,13,,,,,,,,,,,,,,,,,,,,,,,,main,1,1,2,positive,neutral,k,k,1,0.7763420999981463,543.625532999984,544.6439642999903,544.6052573999623,None,543.625532999984,None,543.625532999984,None,543.625532999984,None,545.3833372399968,None,545.3833372399968,None,545.3833372399968,None,,,,,,,,,,,108,26,Male,2022-05-02_12h50.46.983,Boat,2022.1.1,59.96433322224559,
negative,negative,2,j,l,,,,,,,,,10,16,196,9,,,,,,,,,,,,,,,,,,,,,,,,main,2,2,2,negative,negative,j,j,1,0.9546182000194676,545.4001095999847,546.4127171,546.3786387,None,545.4001095999847,None,545.4001095999847,None,545.4001095999847,None,547.3405645399762,None,547.3405645399762,None,547.3405645399762,None,,,,,,,,,,,108,26,Male,2022-05-02_12h50.46.983,Boat,2022.1.1,59.96433322224559,
neutral,neutral,2,k,k,,,,,,,,,10,17,197,10,,,,,,,,,,,,,,,,,,,,,,,,main,2,2,2,neutral,neutral,k,k,1,0.7465733999852091,547.3593720999779,548.3749597999849,548.3554300999967,None,547.3593720999779,None,547.3593720999779,None,547.3593720999779,None,549.0895154399623,None,549.0895154399623,None,549.0895154399623,None,,,,,,,,,,,108,26,Male,2022-05-02_12h50.46.983,Boat,2022.1.1,59.96433322224559,
negative,neutral,2,j,l,,,,,,,,,11,0,198,12,,,,,,,,,,,,,,,,,,,,,,,,main,2,2,2,neutral,negative,j,j,1,0.7835049999994226,549.1077564000152,550.1106704999693,550.0940986999776,None,549.1077564000152,None,549.1077564000152,None,549.1077564000152,None,550.876232939976,None,550.876232939976,None,550.876232939976,None,,,,,,,,,,,108,26,Male,2022-05-02_12h50.46.983,Boat,2022.1.1,59.96433322224559,
negative,negative,2,j,l,,,,,,,,,11,1,199,9,,,,,,,,,,,,,,,,,,,,,,,,main,1,1,2,negative,negative,j,j,1,0.7041084000375122,550.8927867999882,551.910555200011,551.8722004999872,None,550.8927867999882,None,550.8927867999882,None,550.8927867999882,None,552.5824779399845,None,552.5824779399845,None,552.5824779399845,None,,,,,,,,,,,108,26,Male,2022-05-02_12h50.46.983,Boat,2022.1.1,59.96433322224559,
neutral,neutral,1,k,k,,,,,,,,,11,2,200,1,,,,,,,,,,,,,,,,,,,,,,,,main,2,2,1,neutral,neutral,k,k,1,0.7147864000289701,552.599386100017,553.6053591999807,553.5853941999958,None,552.599386100017,None,552.599386100017,None,552.599386100017,None,554.2994281399588,None,554.2994281399588,None,554.2994281399588,None,,,,,,,,,,,108,26,Male,2022-05-02_12h50.46.983,Boat,2022.1.1,59.96433322224559,
positive,positive,1,l,j,,,,,,,,,11,3,201,2,,,,,,,,,,,,,,,,,,,,,,,,main,1,1,1,positive,positive,l,l,1,0.6998710999614559,554.3174156000023,555.3277089999756,555.2924730000086,None,554.3174156000023,None,554.3174156000023,None,554.3174156000023,None,556.0035170399642,None,556.0035170399642,None,556.0035170399642,None,,,,,,,,,,,108,26,Male,2022-05-02_12h50.46.983,Boat,2022.1.1,59.96433322224559,
neutral,neutral,2,k,k,,,,,,,,,11,4,202,10,,,,,,,,,,,,,,,,,,,,,,,,main,2,2,2,neutral,neutral,k,k,1,0.7453628000221215,556.020657200017,557.0356158000068,556.9942408999777,None,556.020657200017,None,556.020657200017,None,556.020657200017,None,557.7486865399696,None,557.7486865399696,None,557.7486865399696,None,,,,,,,,,,,108,26,Male,2022-05-02_12h50.46.983,Boat,2022.1.1,59.96433322224559,
negative,negative,1,j,l,,,,,,,,,11,5,203,0,,,,,,,,,,,,,,,,,,,,,,,,main,2,2,1,negative,negative,j,j,1,0.7097717000287957,557.766550100001,558.7758878999739,558.7561577999732,None,557.766550100001,None,557.766550100001,None,557.766550100001,None,559.4615065399848,None,559.4615065399848,None,559.4615065399848,None,,,,,,,,,,,108,26,Male,2022-05-02_12h50.46.983,Boat,2022.1.1,59.96433322224559,
negative,positive,1,j,l,,,,,,,,,11,6,204,6,,,,,,,,,,,,,,,,,,,,,,,,main,2,2,1,positive,negative,j,j,1,0.6674522999674082,559.4791158000007,560.4928034999757,560.4728312999941,None,559.4791158000007,None,559.4791158000007,None,559.4791158000007,None,561.1338257399912,None,561.1338257399912,None,561.1338257399912,None,,,,,,,,,,,108,26,Male,2022-05-02_12h50.46.983,Boat,2022.1.1,59.96433322224559,
neutral,negative,1,k,k,,,,,,,,,11,7,205,7,,,,,,,,,,,,,,,,,,,,,,,,main,1,1,1,negative,neutral,k,k,1,0.6713598999776877,561.15002489998,562.155595899967,562.155595899967,None,561.15002489998,None,561.15002489998,None,561.15002489998,None,562.8079036400013,None,562.8079036400013,None,562.8079036400013,None,,,,,,,,,,,108,26,Male,2022-05-02_12h50.46.983,Boat,2022.1.1,59.96433322224559,
positive,neutral,1,l,j,,,,,,,,,11,8,206,8,,,,,,,,,,,,,,,,,,,,,,,,main,2,2,1,neutral,positive,l,l,1,0.7450287000392564,562.824559199973,563.8444036999717,563.8065882999799,None,562.824559199973,None,562.824559199973,None,562.824559199973,None,564.5559205399768,None,564.5559205399768,None,564.5559205399768,None,,,,,,,,,,,108,26,Male,2022-05-02_12h50.46.983,Boat,2022.1.1,59.96433322224559,
negative,neutral,1,j,l,,,,,,,,,11,9,207,3,,,,,,,,,,,,,,,,,,,,,,,,main,2,2,1,neutral,negative,j,j,1,0.7268087000120431,564.574753199995,565.5799058999983,565.5447332999902,None,564.574753199995,None,564.574753199995,None,564.574753199995,None,566.2832871399878,None,566.2832871399878,None,566.2832871399878,None,,,,,,,,,,,108,26,Male,2022-05-02_12h50.46.983,Boat,2022.1.1,59.96433322224559,
negative,positive,2,j,l,,,,,,,,,11,10,208,15,,,,,,,,,,,,,,,,,,,,,,,,main,1,1,2,positive,negative,j,j,1,0.6705794999725185,566.299897299963,567.312563000014,567.2776499000029,None,566.299897299963,None,566.299897299963,None,566.299897299963,None,567.957710740011,None,567.957710740011,None,567.957710740011,None,,,,,,,,,,,108,26,Male,2022-05-02_12h50.46.983,Boat,2022.1.1,59.96433322224559,
positive,negative,1,l,j,,,,,,,,,11,11,209,5,,,,,,,,,,,,,,,,,,,,,,,,main,1,1,1,negative,positive,l,l,1,0.7674668999970891,567.9748889000039,568.9774023999926,568.9583113999688,None,567.9748889000039,None,567.9748889000039,None,567.9748889000039,None,569.7277005400101,None,569.7277005400101,None,569.7277005400101,None,,,,,,,,,,,108,26,Male,2022-05-02_12h50.46.983,Boat,2022.1.1,59.96433322224559,
