target,distractor,set,ans1,ans2,rep_loop2.thisRepN,rep_loop2.thisTrialN,rep_loop2.thisN,rep_loop2.thisIndex,flanker_prac_loop.thisRepN,flanker_prac_loop.thisTrialN,flanker_prac_loop.thisN,flanker_prac_loop.thisIndex,flanker_main_loop.thisRepN,flanker_main_loop.thisTrialN,flanker_main_loop.thisN,flanker_main_loop.thisIndex,fl_inst_resp.keys,mouse.x,mouse.y,mouse.leftButton,mouse.midButton,mouse.rightButton,mouse.started,mouse.stopped,sound_1.started,sound_1.stopped,no_text.started,no_text.stopped,yes_text.started,yes_text.stopped,mouse_2.x,mouse_2.y,mouse_2.leftButton,mouse_2.midButton,mouse_2.rightButton,mouse_2.started,mouse_2.stopped,back_2.started,back_2.stopped,main_prac,fl_cold,fl_colt,fl_set,fl_dcond,fl_tcond,fl_ans,fl_res,fl_corr,fl_rt,fix_fl.started,fix_fl.stopped,targ.started,targ.stopped,j_button.started,j_button.stopped,k_button.started,k_button.stopped,l_button.started,l_button.stopped,j_button2.started,j_button2.stopped,k_button2.started,k_button2.stopped,l_button2.started,l_button2.stopped,mainback.started,mainback.stopped,key_resp.keys,mouse_6.x,mouse_6.y,mouse_6.leftButton,mouse_6.midButton,mouse_6.rightButton,mouse_6.started,mouse_6.stopped,id*,age*,gender*,date,expName,psychopyVersion,frameRate,
,,,,,0,0,0,0,,,,,,,,,None,0.26759258,-0.39814815,0,0,0,1.0231856002355926,None,26.182828549994156,None,77.88609669997822,None,77.88609669997822,None,-0.062962964,-0.08425926,0,0,0,0.013423550000879914,None,,,,,,,,,,,,,,,,,,,,,,,,,,,,,,,,,,,,,,,109,24,Female,2022-05-02_15h30.31.159,Boat,2022.1.1,59.832266229277344,
neutral,positive,2,k,k,,,,,0,0,0,13,,,,,,,,,,,,,,,,,,,,,,,,,,83.16903689998435,None,prac,2,2,2,positive,neutral,k,k,1,1.3257436999701895,85.19377129996428,86.20806759997504,86.15646470000502,None,85.19377129996428,None,85.19377129996428,None,85.19377129996428,None,87.49280424998142,None,87.49280424998142,None,87.49280424998142,None,,,,,,,,,,,109,24,Female,2022-05-02_15h30.31.159,Boat,2022.1.1,59.832266229277344,
positive,neutral,2,l,j,,,,,0,1,1,17,,,,,,,,,,,,,,,,,,,,,,,,,,,,prac,2,2,2,neutral,positive,j,j,1,1.464782800001558,87.51130289997673,88.52032030001283,88.50063460000092,None,87.51130289997673,None,87.51130289997673,None,87.51130289997673,None,89.96252624999033,None,89.96252624999033,None,89.96252624999033,None,,,,,,,,,,,109,24,Female,2022-05-02_15h30.31.159,Boat,2022.1.1,59.832266229277344,
neutral,neutral,1,k,k,,,,,0,2,2,1,,,,,,,,,,,,,,,,,,,,,,,,,,,,prac,1,1,1,neutral,neutral,k,k,1,1.1088392999954522,89.97829239995917,90.99686139996629,90.97196459997213,None,89.97829239995917,None,89.97829239995917,None,89.97829239995917,None,92.07284974999493,None,92.07284974999493,None,92.07284974999493,None,,,,,,,,,,,109,24,Female,2022-05-02_15h30.31.159,Boat,2022.1.1,59.832266229277344,
positive,positive,1,l,j,,,,,0,3,3,2,,,,,,,,,,,,,,,,,,,,,,,,,,,,prac,1,1,1,positive,positive,j,j,1,1.3944762000464834,92.08847079996485,93.10343069996452,93.08349809999345,None,92.08847079996485,None,92.08847079996485,None,92.08847079996485,None,94.4691238499945,None,94.4691238499945,None,94.4691238499945,None,,,,,,,,,,,109,24,Female,2022-05-02_15h30.31.159,Boat,2022.1.1,59.832266229277344,
positive,neutral,1,l,j,,,,,0,4,4,8,,,,,,,,,,,,,,,,,,,,,,,,,,,,prac,1,1,1,neutral,positive,j,j,1,1.604777800035663,94.48638069996377,95.5029693999677,95.48353119997773,None,94.48638069996377,None,94.48638069996377,None,94.48638069996377,None,97.10468109999783,None,97.10468109999783,None,97.10468109999783,None,,,,,,,,,,,109,24,Female,2022-05-02_15h30.31.159,Boat,2022.1.1,59.832266229277344,
negative,positive,2,j,l,,,,,0,5,5,15,,,,,,,,,,,,,,,,,,,,,,,,,,,,prac,2,2,2,positive,negative,l,l,1,1.059081099985633,98.12500170001294,99.14708879997488,99.11959249997744,None,98.12500170001294,None,98.12500170001294,None,98.12500170001294,None,100.17046474997187,None,100.17046474997187,None,100.17046474997187,None,,,,,,,,,,,109,24,Female,2022-05-02_15h30.31.159,Boat,2022.1.1,59.832266229277344,
positive,negative,1,l,j,,,,,0,6,6,5,,,,,,,,,,,,,,,,,,,,,,,,,,,,prac,2,2,1,negative,positive,j,j,1,0.9324585000285879,100.1883652000106,101.20679219998419,101.17039879999356,None,100.1883652000106,None,100.1883652000106,None,100.1883652000106,None,102.1054806499742,None,102.1054806499742,None,102.1054806499742,None,,,,,,,,,,,109,24,Female,2022-05-02_15h30.31.159,Boat,2022.1.1,59.832266229277344,
negative,negative,2,j,l,,,,,0,7,7,9,,,,,,,,,,,,,,,,,,,,,,,,,,,,prac,2,2,2,negative,negative,l,l,1,0.9511179000255652,102.12334170000395,103.13984139997046,103.10330539999995,None,102.12334170000395,None,102.12334170000395,None,102.12334170000395,None,104.05927194998367,None,104.05927194998367,None,104.05927194998367,None,,,,,,,,,,,109,24,Female,2022-05-02_15h30.31.159,Boat,2022.1.1,59.832266229277344,
positive,positive,2,l,j,,,,,0,8,8,11,,,,,,,,,,,,,,,,,,,,,,,,,,,,prac,2,2,2,positive,positive,j,j,1,0.9162602999713272,104.07522609998705,105.08867929998087,105.05054169998039,None,104.07522609998705,None,104.07522609998705,None,104.07522609998705,None,105.97741225000937,None,105.97741225000937,None,105.97741225000937,None,,,,,,,,,,,109,24,Female,2022-05-02_15h30.31.159,Boat,2022.1.1,59.832266229277344,
negative,negative,1,j,l,,,,,0,9,9,0,,,,,,,,,,,,,,,,,,,,,,,,,,,,prac,1,1,1,negative,negative,l,l,1,1.3435513000003994,105.99351870000828,107.00476079998771,106.9850349999615,None,105.99351870000828,None,105.99351870000828,None,105.99351870000828,None,108.32313714997144,None,108.32313714997144,None,108.32313714997144,None,,,,,,,,,,,109,24,Female,2022-05-02_15h30.31.159,Boat,2022.1.1,59.832266229277344,
negative,neutral,1,j,l,,,,,0,10,10,3,,,,,,,,,,,,,,,,,,,,,,,,,,,,prac,2,2,1,neutral,negative,l,l,1,0.9263140000402927,108.34097640000982,109.35586579999654,109.31707749998895,None,108.34097640000982,None,108.34097640000982,None,108.34097640000982,None,110.25388654996641,None,110.25388654996641,None,110.25388654996641,None,,,,,,,,,,,109,24,Female,2022-05-02_15h30.31.159,Boat,2022.1.1,59.832266229277344,
positive,negative,2,l,j,,,,,0,11,11,14,,,,,,,,,,,,,,,,,,,,,,,,,,,,prac,2,2,2,negative,positive,j,j,1,2.2064903000136837,110.27122599998256,111.27239399997052,111.25589819997549,None,110.27122599998256,None,110.27122599998256,None,110.27122599998256,None,113.46791979996487,None,113.46791979996487,None,113.46791979996487,None,,,,,,,,,,,109,24,Female,2022-05-02_15h30.31.159,Boat,2022.1.1,59.832266229277344,
neutral,positive,1,k,k,,,,,0,12,12,4,,,,,,,,,,,,,,,,,,,,,,,,,,,,prac,1,1,1,positive,neutral,k,k,1,0.9875891999690793,114.4750698999851,115.48957510001492,115.47010579996277,None,114.4750698999851,None,114.4750698999851,None,114.4750698999851,None,116.44956554996315,None,116.44956554996315,None,116.44956554996315,None,,,,,,,,,,,109,24,Female,2022-05-02_15h30.31.159,Boat,2022.1.1,59.832266229277344,
neutral,neutral,2,k,k,,,,,0,13,13,10,,,,,,,,,,,,,,,,,,,,,,,,,,,,prac,1,1,2,neutral,neutral,k,k,1,1.009393699991051,116.46944969997276,117.48711709998315,117.44771619996754,None,116.46944969997276,None,116.46944969997276,None,116.46944969997276,None,118.45959544996731,None,118.45959544996731,None,118.45959544996731,None,,,,,,,,,,,109,24,Female,2022-05-02_15h30.31.159,Boat,2022.1.1,59.832266229277344,
negative,positive,1,j,l,,,,,0,14,14,6,,,,,,,,,,,,,,,,,,,,,,,,,,,,prac,2,2,1,positive,negative,l,l,1,0.9531968999654055,118.47769500000868,119.49243959999876,119.45783530001063,None,118.47769500000868,None,118.47769500000868,None,118.47769500000868,None,120.41703404998407,None,120.41703404998407,None,120.41703404998407,None,,,,,,,,,,,109,24,Female,2022-05-02_15h30.31.159,Boat,2022.1.1,59.832266229277344,
neutral,negative,2,k,k,,,,,0,15,15,16,,,,,,,,,,,,,,,,,,,,,,,,,,,,prac,1,1,2,negative,neutral,k,k,1,1.1577523000305519,120.4351544000092,121.44740159995854,121.40615339996293,None,120.4351544000092,None,120.4351544000092,None,120.4351544000092,None,122.57566954998765,None,122.57566954998765,None,122.57566954998765,None,,,,,,,,,,,109,24,Female,2022-05-02_15h30.31.159,Boat,2022.1.1,59.832266229277344,
negative,neutral,2,j,l,,,,,0,16,16,12,,,,,,,,,,,,,,,,,,,,,,,,,,,,prac,2,2,2,neutral,negative,l,l,1,0.9099620000342838,122.5905955999624,123.61411580001004,123.56744239997352,None,122.5905955999624,None,122.5905955999624,None,122.5905955999624,None,124.48806224996224,None,124.48806224996224,None,124.48806224996224,None,,,,,,,,,,,109,24,Female,2022-05-02_15h30.31.159,Boat,2022.1.1,59.832266229277344,
neutral,negative,1,k,k,,,,,0,17,17,7,,,,,,,,,,,,,,,,,,,,,,,,,,,,prac,1,1,1,negative,neutral,k,k,1,1.025119400001131,124.50547999999253,125.5067242999794,125.48978920001537,None,124.50547999999253,None,124.50547999999253,None,124.50547999999253,None,126.51552635000553,None,126.51552635000553,None,126.51552635000553,None,,,,,,,,,,,109,24,Female,2022-05-02_15h30.31.159,Boat,2022.1.1,59.832266229277344,
positive,positive,2,l,j,,,,,1,0,18,11,,,,,,,,,,,,,,,,,,,,,,,,,,,,prac,1,1,2,positive,positive,j,j,1,0.810817199992016,126.53621039999416,127.55097829998704,127.50604499998735,None,126.53621039999416,None,126.53621039999416,None,126.53621039999416,None,128.32839474995853,None,128.32839474995853,None,128.32839474995853,None,,,,,,,,,,,109,24,Female,2022-05-02_15h30.31.159,Boat,2022.1.1,59.832266229277344,
neutral,negative,2,k,k,,,,,1,1,19,16,,,,,,,,,,,,,,,,,,,,,,,,,,,,prac,2,2,2,negative,neutral,k,k,1,0.8977261999971233,128.34453219996067,129.36429709999356,129.32316269999137,None,128.34453219996067,None,128.34453219996067,None,128.34453219996067,None,130.22915074997582,None,130.22915074997582,None,130.22915074997582,None,,,,,,,,,,,109,24,Female,2022-05-02_15h30.31.159,Boat,2022.1.1,59.832266229277344,
neutral,positive,1,k,k,,,,,1,2,20,4,,,,,,,,,,,,,,,,,,,,,,,,,,,,prac,1,1,1,positive,neutral,k,k,1,0.8570022000349127,130.2494491999969,131.256739799981,131.22144609998213,None,130.2494491999969,None,130.2494491999969,None,130.2494491999969,None,132.08946175000165,None,132.08946175000165,None,132.08946175000165,None,,,,,,,,,,,109,24,Female,2022-05-02_15h30.31.159,Boat,2022.1.1,59.832266229277344,
neutral,negative,1,k,k,,,,,1,3,21,7,,,,,,,,,,,,,,,,,,,,,,,,,,,,prac,2,2,1,negative,neutral,k,k,1,0.8143695000326261,132.1051825999748,133.12089099996956,133.10119610000402,None,132.1051825999748,None,132.1051825999748,None,132.1051825999748,None,133.9065454499796,None,133.9065454499796,None,133.9065454499796,None,,,,,,,,,,,109,24,Female,2022-05-02_15h30.31.159,Boat,2022.1.1,59.832266229277344,
negative,positive,2,j,l,,,,,1,4,22,15,,,,,,,,,,,,,,,,,,,,,,,,,,,,prac,2,2,2,positive,negative,l,l,1,0.9608004000037909,133.922718399961,134.93954089999897,134.9019664999796,None,133.922718399961,None,133.922718399961,None,133.922718399961,None,135.8702901499928,None,135.8702901499928,None,135.8702901499928,None,,,,,,,,,,,109,24,Female,2022-05-02_15h30.31.159,Boat,2022.1.1,59.832266229277344,
positive,neutral,2,l,j,,,,,1,5,23,17,,,,,,,,,,,,,,,,,,,,,,,,,,,,prac,2,2,2,neutral,positive,j,j,1,0.856254699989222,135.88859519996913,136.88975510001183,136.87112879997585,None,135.88859519996913,None,135.88859519996913,None,135.88859519996913,None,137.72823815001175,None,137.72823815001175,None,137.72823815001175,None,,,,,,,,,,,109,24,Female,2022-05-02_15h30.31.159,Boat,2022.1.1,59.832266229277344,
positive,negative,1,l,j,,,,,1,6,24,5,,,,,,,,,,,,,,,,,,,,,,,,,,,,prac,1,1,1,negative,positive,j,j,1,0.973514300014358,137.7442824000027,138.75651400000788,138.7205551000079,None,137.7442824000027,None,137.7442824000027,None,137.7442824000027,None,139.70526864996646,None,139.70526864996646,None,139.70526864996646,None,,,,,,,,,,,109,24,Female,2022-05-02_15h30.31.159,Boat,2022.1.1,59.832266229277344,
neutral,positive,2,k,k,,,,,1,7,25,13,,,,,,,,,,,,,,,,,,,,,,,,,,,,prac,1,1,2,positive,neutral,k,k,1,0.885884299990721,139.72182879998581,140.73993739997968,140.7020809999667,None,139.72182879998581,None,139.72182879998581,None,139.72182879998581,None,141.59142705000704,None,141.59142705000704,None,141.59142705000704,None,,,,,,,,,,,109,24,Female,2022-05-02_15h30.31.159,Boat,2022.1.1,59.832266229277344,
negative,negative,1,j,l,,,,,1,8,26,0,,,,,,,,,,,,,,,,,,,,,,,,,,,,prac,2,2,1,negative,negative,l,l,1,0.9389664999907836,141.6089343999629,142.6235480000032,142.58985039999243,None,141.6089343999629,None,141.6089343999629,None,141.6089343999629,None,143.5329627500032,None,143.5329627500032,None,143.5329627500032,None,,,,,,,,,,,109,24,Female,2022-05-02_15h30.31.159,Boat,2022.1.1,59.832266229277344,
positive,negative,2,l,j,,,,,1,9,27,14,,,,,,,,,,,,,,,,,,,,,,,,,,,,prac,2,2,2,negative,positive,j,j,1,0.8456172999576665,143.55450829997426,144.57302099996014,144.535238499986,None,143.55450829997426,None,143.55450829997426,None,143.55450829997426,None,145.38387754996074,None,145.38387754996074,None,145.38387754996074,None,,,,,,,,,,,109,24,Female,2022-05-02_15h30.31.159,Boat,2022.1.1,59.832266229277344,
negative,positive,1,j,l,,,,,1,10,28,6,,,,,,,,,,,,,,,,,,,,,,,,,,,,prac,2,2,1,positive,negative,l,l,1,0.8524654999491759,145.40287379996153,146.41103700001258,146.37534119997872,None,145.40287379996153,None,145.40287379996153,None,145.40287379996153,None,147.23830625001574,None,147.23830625001574,None,147.23830625001574,None,,,,,,,,,,,109,24,Female,2022-05-02_15h30.31.159,Boat,2022.1.1,59.832266229277344,
neutral,neutral,2,k,k,,,,,1,11,29,10,,,,,,,,,,,,,,,,,,,,,,,,,,,,prac,2,2,2,neutral,neutral,k,k,1,0.9553974000154994,147.25558170001023,148.27341620001243,148.23474569997052,None,147.25558170001023,None,147.25558170001023,None,147.25558170001023,None,149.19587945000967,None,149.19587945000967,None,149.19587945000967,None,,,,,,,,,,,109,24,Female,2022-05-02_15h30.31.159,Boat,2022.1.1,59.832266229277344,
positive,neutral,1,l,j,,,,,1,12,30,8,,,,,,,,,,,,,,,,,,,,,,,,,,,,prac,2,2,1,neutral,positive,j,j,1,0.8608464999706484,149.21324760001153,150.223411199986,150.18998879997525,None,149.21324760001153,None,149.21324760001153,None,149.21324760001153,None,151.0586188500165,None,151.0586188500165,None,151.0586188500165,None,,,,,,,,,,,109,24,Female,2022-05-02_15h30.31.159,Boat,2022.1.1,59.832266229277344,
positive,positive,1,l,j,,,,,1,13,31,2,,,,,,,,,,,,,,,,,,,,,,,,,,,,prac,2,2,1,positive,positive,j,j,1,0.7551278999890201,151.07637979998253,152.1016827999847,152.05667670001276,None,151.07637979998253,None,151.07637979998253,None,151.07637979998253,None,152.8170002499828,None,152.8170002499828,None,152.8170002499828,None,,,,,,,,,,,109,24,Female,2022-05-02_15h30.31.159,Boat,2022.1.1,59.832266229277344,
negative,negative,2,j,l,,,,,1,14,32,9,,,,,,,,,,,,,,,,,,,,,,,,,,,,prac,1,1,2,negative,negative,l,l,1,0.9448092000093311,152.83454419998452,153.848502799985,153.80679539998528,None,152.83454419998452,None,152.83454419998452,None,152.83454419998452,None,154.76263994997134,None,154.76263994997134,None,154.76263994997134,None,,,,,,,,,,,109,24,Female,2022-05-02_15h30.31.159,Boat,2022.1.1,59.832266229277344,
neutral,neutral,1,k,k,,,,,1,15,33,1,,,,,,,,,,,,,,,,,,,,,,,,,,,,prac,2,2,1,neutral,neutral,k,k,1,0.8769182999967597,154.78312199999345,155.79048530000728,155.75667109998176,None,154.78312199999345,None,154.78312199999345,None,154.78312199999345,None,156.64261554996483,None,156.64261554996483,None,156.64261554996483,None,,,,,,,,,,,109,24,Female,2022-05-02_15h30.31.159,Boat,2022.1.1,59.832266229277344,
negative,neutral,2,j,l,,,,,1,16,34,12,,,,,,,,,,,,,,,,,,,,,,,,,,,,prac,1,1,2,neutral,negative,l,l,1,1.0170399000053294,156.6594871999696,157.6738906999817,157.63764589995844,None,156.6594871999696,None,156.6594871999696,None,156.6594871999696,None,158.66214264999144,None,158.66214264999144,None,158.66214264999144,None,,,,,,,,,,,109,24,Female,2022-05-02_15h30.31.159,Boat,2022.1.1,59.832266229277344,
negative,neutral,1,j,l,,,,,1,17,35,3,,,,,,,,,,,,,,,,,,,,,,,,,,,,prac,1,1,1,neutral,negative,l,l,1,0.9643722000182606,158.6778737999848,159.69030029996065,159.65672659996198,None,158.6778737999848,None,158.6778737999848,None,158.6778737999848,None,160.62855174997821,None,160.62855174997821,None,160.62855174997821,None,,,,,,,,,,,109,24,Female,2022-05-02_15h30.31.159,Boat,2022.1.1,59.832266229277344,
,,,,,,,,,,,,,,,,,,,,,,,,,,,,,,,,,,,,,,,,,,,,,,,,,,,,,,,,,,,,,,,,,,160.6414720999892,None,None,,,,,,,,109,24,Female,2022-05-02_15h30.31.159,Boat,2022.1.1,59.832266229277344,
,,,,,,,,,,,,,,,,,,,,,,,,,,,,,,,,,,,,,,,,,,,,,,,,,,,,,,,,,,,,,,,,,,,,,-0.013888889,-0.072222225,1,0,0,0.006262650014832616,None,109,24,Female,2022-05-02_15h30.31.159,Boat,2022.1.1,59.832266229277344,
positive,neutral,2,l,j,,,,,,,,,0,0,0,17,,,,,,,,,,,,,,,,,,,,,,176.85425360000227,None,main,1,1,2,neutral,positive,j,j,1,0.9727321999962442,178.8894866000046,179.91557159996592,179.86885659996187,None,178.8894866000046,None,178.8894866000046,None,178.8894866000046,None,180.84069995000027,None,180.84069995000027,None,180.84069995000027,None,,,,,,,,,,,109,24,Female,2022-05-02_15h30.31.159,Boat,2022.1.1,59.832266229277344,
neutral,neutral,1,k,k,,,,,,,,,0,1,1,1,,,,,,,,,,,,,,,,,,,,,,,,main,1,1,1,neutral,neutral,k,k,1,0.860546300013084,180.86123689997476,181.87382310000248,181.83999110001605,None,180.86123689997476,None,180.86123689997476,None,180.86123689997476,None,182.70739895000588,None,182.70739895000588,None,182.70739895000588,None,,,,,,,,,,,109,24,Female,2022-05-02_15h30.31.159,Boat,2022.1.1,59.832266229277344,
positive,negative,2,l,j,,,,,,,,,0,2,2,14,,,,,,,,,,,,,,,,,,,,,,,,main,2,2,2,negative,positive,j,j,1,0.7505847999709658,182.72328589996323,183.75305419997312,183.70485929999268,None,182.72328589996323,None,182.72328589996323,None,182.72328589996323,None,184.45916615001624,None,184.45916615001624,None,184.45916615001624,None,,,,,,,,,,,109,24,Female,2022-05-02_15h30.31.159,Boat,2022.1.1,59.832266229277344,
positive,positive,1,l,j,,,,,,,,,0,3,3,2,,,,,,,,,,,,,,,,,,,,,,,,main,1,1,1,positive,positive,j,j,1,0.9002974999602884,184.47601639997447,185.49195559998043,185.45651210000506,None,184.47601639997447,None,184.47601639997447,None,184.47601639997447,None,186.36112284997944,None,186.36112284997944,None,186.36112284997944,None,,,,,,,,,,,109,24,Female,2022-05-02_15h30.31.159,Boat,2022.1.1,59.832266229277344,
negative,neutral,2,j,l,,,,,,,,,0,4,4,12,,,,,,,,,,,,,,,,,,,,,,,,main,1,1,2,neutral,negative,l,l,1,0.8154851999715902,186.37896609999007,187.39065519999713,187.35502309998265,None,186.37896609999007,None,186.37896609999007,None,186.37896609999007,None,188.1813407500158,None,188.1813407500158,None,188.1813407500158,None,,,,,,,,,,,109,24,Female,2022-05-02_15h30.31.159,Boat,2022.1.1,59.832266229277344,
negative,positive,2,j,l,,,,,,,,,0,5,5,15,,,,,,,,,,,,,,,,,,,,,,,,main,2,2,2,positive,negative,l,l,1,0.9402273999876343,188.2008080999949,189.2074485999765,189.17364629998337,None,188.2008080999949,None,188.2008080999949,None,188.2008080999949,None,190.12391535000643,None,190.12391535000643,None,190.12391535000643,None,,,,,,,,,,,109,24,Female,2022-05-02_15h30.31.159,Boat,2022.1.1,59.832266229277344,
negative,negative,2,j,l,,,,,,,,,0,6,6,9,,,,,,,,,,,,,,,,,,,,,,,,main,1,1,2,negative,negative,l,l,1,0.8690038999775425,190.1410470000119,191.1408633000101,191.12434209999628,None,190.1410470000119,None,190.1410470000119,None,190.1410470000119,None,191.9960233499878,None,191.9960233499878,None,191.9960233499878,None,,,,,,,,,,,109,24,Female,2022-05-02_15h30.31.159,Boat,2022.1.1,59.832266229277344,
positive,positive,2,l,j,,,,,,,,,0,7,7,11,,,,,,,,,,,,,,,,,,,,,,,,main,2,2,2,positive,positive,j,j,1,0.8245055999723263,192.01329510001233,193.0325756999664,192.99074599996675,None,192.01329510001233,None,192.01329510001233,None,192.01329510001233,None,193.82474204996834,None,193.82474204996834,None,193.82474204996834,None,,,,,,,,,,,109,24,Female,2022-05-02_15h30.31.159,Boat,2022.1.1,59.832266229277344,
negative,negative,1,j,l,,,,,,,,,0,8,8,0,,,,,,,,,,,,,,,,,,,,,,,,main,2,2,1,negative,negative,l,l,1,0.8117031999863684,193.84031469997717,194.84926180000184,194.82470200001262,None,193.84031469997717,None,193.84031469997717,None,193.84031469997717,None,195.63970795000205,None,195.63970795000205,None,195.63970795000205,None,,,,,,,,,,,109,24,Female,2022-05-02_15h30.31.159,Boat,2022.1.1,59.832266229277344,
positive,neutral,1,l,j,,,,,,,,,0,9,9,8,,,,,,,,,,,,,,,,,,,,,,,,main,1,1,1,neutral,positive,j,j,1,0.7987708999426104,195.6584641999798,196.6741980999941,196.64077160001034,None,195.6584641999798,None,195.6584641999798,None,195.6584641999798,None,197.44091554998886,None,197.44091554998886,None,197.44091554998886,None,,,,,,,,,,,109,24,Female,2022-05-02_15h30.31.159,Boat,2022.1.1,59.832266229277344,
neutral,negative,2,k,k,,,,,,,,,0,10,10,16,,,,,,,,,,,,,,,,,,,,,,,,main,1,1,2,negative,neutral,k,k,1,0.8121538000414148,197.45976349996636,198.48597919999156,198.43864619999658,None,197.45976349996636,None,197.45976349996636,None,197.45976349996636,None,199.25700714997947,None,199.25700714997947,None,199.25700714997947,None,,,,,,,,,,,109,24,Female,2022-05-02_15h30.31.159,Boat,2022.1.1,59.832266229277344,
neutral,positive,1,k,k,,,,,,,,,0,11,11,4,,,,,,,,,,,,,,,,,,,,,,,,main,1,1,1,positive,neutral,k,k,1,0.7175628999830224,199.27497099997709,200.27456439996604,200.25766910001403,None,199.27497099997709,None,199.27497099997709,None,199.27497099997709,None,200.97681954997825,None,200.97681954997825,None,200.97681954997825,None,,,,,,,,,,,109,24,Female,2022-05-02_15h30.31.159,Boat,2022.1.1,59.832266229277344,
neutral,positive,2,k,k,,,,,,,,,0,12,12,13,,,,,,,,,,,,,,,,,,,,,,,,main,2,2,2,positive,neutral,k,k,1,0.5978137999773026,200.9943317999714,202.00481839996064,201.98559769999702,None,200.9943317999714,None,200.9943317999714,None,200.9943317999714,None,202.5770784500055,None,202.5770784500055,None,202.5770784500055,None,,,,,,,,,,,109,24,Female,2022-05-02_15h30.31.159,Boat,2022.1.1,59.832266229277344,
negative,neutral,1,j,l,,,,,,,,,0,13,13,3,,,,,,,,,,,,,,,,,,,,,,,,main,2,2,1,neutral,negative,l,l,1,0.7845709000248462,202.5961713999859,203.60479289997602,203.58563509996748,None,202.5961713999859,None,202.5961713999859,None,202.5961713999859,None,204.36648774996866,None,204.36648774996866,None,204.36648774996866,None,,,,,,,,,,,109,24,Female,2022-05-02_15h30.31.159,Boat,2022.1.1,59.832266229277344,
negative,positive,1,j,l,,,,,,,,,0,14,14,6,,,,,,,,,,,,,,,,,,,,,,,,main,2,2,1,positive,negative,l,l,1,0.7160189999849536,204.38467080000555,205.39249669999117,205.35822589998133,None,204.38467080000555,None,204.38467080000555,None,204.38467080000555,None,206.0855090499972,None,206.0855090499972,None,206.0855090499972,None,,,,,,,,,,,109,24,Female,2022-05-02_15h30.31.159,Boat,2022.1.1,59.832266229277344,
positive,negative,1,l,j,,,,,,,,,0,15,15,5,,,,,,,,,,,,,,,,,,,,,,,,main,2,2,1,negative,positive,j,j,1,0.7685466000111774,206.10548829997424,207.10771849995945,207.07431220001308,None,206.10548829997424,None,206.10548829997424,None,206.10548829997424,None,207.85677735001082,None,207.85677735001082,None,207.85677735001082,None,,,,,,,,,,,109,24,Female,2022-05-02_15h30.31.159,Boat,2022.1.1,59.832266229277344,
neutral,neutral,2,k,k,,,,,,,,,0,16,16,10,,,,,,,,,,,,,,,,,,,,,,,,main,2,2,2,neutral,neutral,k,k,1,0.702901600045152,207.87384700000985,208.8827913000132,208.8585827999632,None,207.87384700000985,None,207.87384700000985,None,207.87384700000985,None,209.56165275000967,None,209.56165275000967,None,209.56165275000967,None,,,,,,,,,,,109,24,Female,2022-05-02_15h30.31.159,Boat,2022.1.1,59.832266229277344,
neutral,negative,1,k,k,,,,,,,,,0,17,17,7,,,,,,,,,,,,,,,,,,,,,,,,main,1,1,1,negative,neutral,k,k,1,0.7067980000283569,209.57791190000717,210.58868739998434,210.56928960001096,None,209.57791190000717,None,209.57791190000717,None,209.57791190000717,None,211.27074944996275,None,211.27074944996275,None,211.27074944996275,None,,,,,,,,,,,109,24,Female,2022-05-02_15h30.31.159,Boat,2022.1.1,59.832266229277344,
negative,neutral,2,j,l,,,,,,,,,1,0,18,12,,,,,,,,,,,,,,,,,,,,,,,,main,1,1,2,neutral,negative,l,l,1,0.7882239000173286,211.2901449999772,212.3024675999768,212.2828240999952,None,211.2901449999772,None,211.2901449999772,None,211.2901449999772,None,213.0623962499667,None,213.0623962499667,None,213.0623962499667,None,,,,,,,,,,,109,24,Female,2022-05-02_15h30.31.159,Boat,2022.1.1,59.832266229277344,
positive,neutral,2,l,j,,,,,,,,,1,1,19,17,,,,,,,,,,,,,,,,,,,,,,,,main,1,1,2,neutral,positive,j,j,1,0.7315230999956839,213.0782209999743,214.0914762999746,214.05805220000912,None,213.0782209999743,None,213.0782209999743,None,213.0782209999743,None,214.79716494999593,None,214.79716494999593,None,214.79716494999593,None,,,,,,,,,,,109,24,Female,2022-05-02_15h30.31.159,Boat,2022.1.1,59.832266229277344,
neutral,negative,1,k,k,,,,,,,,,1,2,20,7,,,,,,,,,,,,,,,,,,,,,,,,main,2,2,1,negative,neutral,k,k,1,0.597998000041116,214.81393770000432,215.8329685999779,215.7913716000039,None,214.81393770000432,None,214.81393770000432,None,214.81393770000432,None,216.39757455000654,None,216.39757455000654,None,216.39757455000654,None,,,,,,,,,,,109,24,Female,2022-05-02_15h30.31.159,Boat,2022.1.1,59.832266229277344,
negative,negative,1,j,l,,,,,,,,,1,3,21,0,,,,,,,,,,,,,,,,,,,,,,,,main,2,2,1,negative,negative,l,l,1,0.8251400999724865,216.41396819998045,217.41937779996078,217.41937779996078,None,216.41396819998045,None,216.41396819998045,None,216.41396819998045,None,218.22491694998462,None,218.22491694998462,None,218.22491694998462,None,,,,,,,,,,,109,24,Female,2022-05-02_15h30.31.159,Boat,2022.1.1,59.832266229277344,
positive,neutral,1,l,j,,,,,,,,,1,4,22,8,,,,,,,,,,,,,,,,,,,,,,,,main,2,2,1,neutral,positive,j,j,1,0.8017330000293441,218.24302359996364,219.2430024999776,219.22615000000224,None,218.24302359996364,None,218.24302359996364,None,218.24302359996364,None,220.02890934998868,None,220.02890934998868,None,220.02890934998868,None,,,,,,,,,,,109,24,Female,2022-05-02_15h30.31.159,Boat,2022.1.1,59.832266229277344,
negative,negative,2,j,l,,,,,,,,,1,5,23,9,,,,,,,,,,,,,,,,,,,,,,,,main,1,1,2,negative,negative,l,l,1,0.8405962000251748,220.0453031999641,221.05567649996374,221.03604039998027,None,220.0453031999641,None,220.0453031999641,None,220.0453031999641,None,221.87355444999412,None,221.87355444999412,None,221.87355444999412,None,,,,,,,,,,,109,24,Female,2022-05-02_15h30.31.159,Boat,2022.1.1,59.832266229277344,
neutral,neutral,2,k,k,,,,,,,,,1,6,24,10,,,,,,,,,,,,,,,,,,,,,,,,main,2,2,2,neutral,neutral,k,k,1,0.763499699998647,221.89060799998697,222.8926481999806,222.87364780000644,None,221.89060799998697,None,221.89060799998697,None,221.89060799998697,None,223.64017854997655,None,223.64017854997655,None,223.64017854997655,None,,,,,,,,,,,109,24,Female,2022-05-02_15h30.31.159,Boat,2022.1.1,59.832266229277344,
positive,negative,2,l,j,,,,,,,,,1,7,25,14,,,,,,,,,,,,,,,,,,,,,,,,main,2,2,2,negative,positive,j,j,1,0.661304899957031,223.65699759998824,224.65894649998518,224.64151169999968,None,223.65699759998824,None,223.65699759998824,None,223.65699759998824,None,225.30499814997893,None,225.30499814997893,None,225.30499814997893,None,,,,,,,,,,,109,24,Female,2022-05-02_15h30.31.159,Boat,2022.1.1,59.832266229277344,
neutral,positive,2,k,k,,,,,,,,,1,8,26,13,,,,,,,,,,,,,,,,,,,,,,,,main,1,1,2,positive,neutral,k,k,1,0.6834989999770187,225.32052919996204,226.32492729998194,226.30561929999385,None,225.32052919996204,None,225.32052919996204,None,225.32052919996204,None,226.9903176499647,None,226.9903176499647,None,226.9903176499647,None,,,,,,,,,,,109,24,Female,2022-05-02_15h30.31.159,Boat,2022.1.1,59.832266229277344,
negative,positive,1,j,l,,,,,,,,,1,9,27,6,,,,,,,,,,,,,,,,,,,,,,,,main,2,2,1,positive,negative,l,l,1,0.7355134999961592,227.00771169998916,228.02503859996796,227.9862822999712,None,227.00771169998916,None,227.00771169998916,None,227.00771169998916,None,228.7279746499844,None,228.7279746499844,None,228.7279746499844,None,,,,,,,,,,,109,24,Female,2022-05-02_15h30.31.159,Boat,2022.1.1,59.832266229277344,
positive,positive,1,l,j,,,,,,,,,1,10,28,2,,,,,,,,,,,,,,,,,,,,,,,,main,2,2,1,positive,positive,j,j,1,0.7218005000031553,228.74470340000698,229.75836089998484,229.7250131999608,None,228.74470340000698,None,228.74470340000698,None,228.74470340000698,None,230.45369175000815,None,230.45369175000815,None,230.45369175000815,None,,,,,,,,,,,109,24,Female,2022-05-02_15h30.31.159,Boat,2022.1.1,59.832266229277344,
positive,positive,2,l,j,,,,,,,,,1,11,29,11,,,,,,,,,,,,,,,,,,,,,,,,main,2,2,2,positive,positive,j,j,1,0.7744518999825232,230.4743410999654,231.4748390999739,231.45828560000518,None,230.4743410999654,None,230.4743410999654,None,230.4743410999654,None,232.22965524997562,None,232.22965524997562,None,232.22965524997562,None,,,,,,,,,,,109,24,Female,2022-05-02_15h30.31.159,Boat,2022.1.1,59.832266229277344,
neutral,negative,2,k,k,,,,,,,,,1,12,30,16,,,,,,,,,,,,,,,,,,,,,,,,main,2,2,2,negative,neutral,k,k,1,0.6350356999901123,232.24736939999275,233.2582865000004,233.2250200000126,None,232.24736939999275,None,232.24736939999275,None,232.24736939999275,None,233.86870694998652,None,233.86870694998652,None,233.86870694998652,None,,,,,,,,,,,109,24,Female,2022-05-02_15h30.31.159,Boat,2022.1.1,59.832266229277344,
negative,positive,2,j,l,,,,,,,,,1,13,31,15,,,,,,,,,,,,,,,,,,,,,,,,main,2,2,2,positive,negative,l,l,1,0.8107163000386208,233.88846819999162,234.893376299995,234.85834289999912,None,233.88846819999162,None,233.88846819999162,None,233.88846819999162,None,235.68030394997913,None,235.68030394997913,None,235.68030394997913,None,,,,,,,,,,,109,24,Female,2022-05-02_15h30.31.159,Boat,2022.1.1,59.832266229277344,
positive,negative,1,l,j,,,,,,,,,1,14,32,5,,,,,,,,,,,,,,,,,,,,,,,,main,1,1,1,negative,positive,j,j,1,0.9170889999950305,235.69840689998819,236.70567170000868,236.68620749999536,None,235.69840689998819,None,235.69840689998819,None,235.69840689998819,None,237.602494449995,None,237.602494449995,None,237.602494449995,None,,,,,,,,,,,109,24,Female,2022-05-02_15h30.31.159,Boat,2022.1.1,59.832266229277344,
neutral,neutral,1,k,k,,,,,,,,,1,15,33,1,,,,,,,,,,,,,,,,,,,,,,,,main,2,2,1,neutral,neutral,k,k,1,0.6291892000008374,237.62072080001235,238.62863399996422,238.59179029997904,None,237.62072080001235,None,237.62072080001235,None,237.62072080001235,None,239.23380634997739,None,239.23380634997739,None,239.23380634997739,None,,,,,,,,,,,109,24,Female,2022-05-02_15h30.31.159,Boat,2022.1.1,59.832266229277344,
negative,neutral,1,j,l,,,,,,,,,1,16,34,3,,,,,,,,,,,,,,,,,,,,,,,,main,1,1,1,neutral,negative,l,l,1,0.6414584000012837,239.24986919999355,240.2598874999676,240.22533240000485,None,239.24986919999355,None,239.24986919999355,None,239.24986919999355,None,240.8761981499847,None,240.8761981499847,None,240.8761981499847,None,,,,,,,,,,,109,24,Female,2022-05-02_15h30.31.159,Boat,2022.1.1,59.832266229277344,
neutral,positive,1,k,k,,,,,,,,,1,17,35,4,,,,,,,,,,,,,,,,,,,,,,,,main,2,2,1,positive,neutral,k,k,1,0.7745409999624826,240.89350939996075,241.90876029996434,241.8729452000116,None,240.89350939996075,None,240.89350939996075,None,240.89350939996075,None,242.65470854996238,None,242.65470854996238,None,242.65470854996238,None,,,,,,,,,,,109,24,Female,2022-05-02_15h30.31.159,Boat,2022.1.1,59.832266229277344,
positive,neutral,2,l,j,,,,,,,,,2,0,36,17,,,,,,,,,,,,,,,,,,,,,,,,main,2,2,2,neutral,positive,j,j,1,0.6726889999699779,242.6743025999749,243.6750290999771,243.65852699999232,None,242.6743025999749,None,242.6743025999749,None,242.6743025999749,None,244.3281278499635,None,244.3281278499635,None,244.3281278499635,None,,,,,,,,,,,109,24,Female,2022-05-02_15h30.31.159,Boat,2022.1.1,59.832266229277344,
neutral,neutral,1,k,k,,,,,,,,,2,1,37,1,,,,,,,,,,,,,,,,,,,,,,,,main,1,1,1,neutral,neutral,k,k,1,0.6641320000053383,244.34432949998882,245.35913890000666,245.3260414999677,None,244.34432949998882,None,244.34432949998882,None,244.34432949998882,None,245.99549885001034,None,245.99549885001034,None,245.99549885001034,None,,,,,,,,,,,109,24,Female,2022-05-02_15h30.31.159,Boat,2022.1.1,59.832266229277344,
negative,positive,2,j,l,,,,,,,,,2,2,38,15,,,,,,,,,,,,,,,,,,,,,,,,main,1,1,2,positive,negative,l,l,1,0.6655612000031397,246.0110498999711,247.02619349997258,246.991816499969,None,246.0110498999711,None,246.0110498999711,None,246.0110498999711,None,247.66172894998454,None,247.66172894998454,None,247.66172894998454,None,,,,,,,,,,,109,24,Female,2022-05-02_15h30.31.159,Boat,2022.1.1,59.832266229277344,
negative,negative,2,j,l,,,,,,,,,2,3,39,9,,,,,,,,,,,,,,,,,,,,,,,,main,1,1,2,negative,negative,l,l,1,0.8087598999845795,247.67985660000704,248.69177709997166,248.65797289996408,None,247.67985660000704,None,247.67985660000704,None,247.67985660000704,None,249.47550574998604,None,249.47550574998604,None,249.47550574998604,None,,,,,,,,,,,109,24,Female,2022-05-02_15h30.31.159,Boat,2022.1.1,59.832266229277344,
negative,negative,1,j,l,,,,,,,,,2,4,40,0,,,,,,,,,,,,,,,,,,,,,,,,main,1,1,1,negative,negative,l,l,1,0.9295262999949045,249.49335599999176,250.50897669995902,250.47551349998685,None,249.49335599999176,None,249.49335599999176,None,249.49335599999176,None,251.4078013499966,None,251.4078013499966,None,251.4078013499966,None,,,,,,,,,,,109,24,Female,2022-05-02_15h30.31.159,Boat,2022.1.1,59.832266229277344,
positive,neutral,1,l,j,,,,,,,,,2,5,41,8,,,,,,,,,,,,,,,,,,,,,,,,main,2,2,1,neutral,positive,j,j,1,1.836554299981799,251.42507369996747,252.43690789997345,252.4168478999636,None,251.42507369996747,None,251.42507369996747,None,251.42507369996747,None,254.25607339997077,None,254.25607339997077,None,254.25607339997077,None,,,,,,,,,,,109,24,Female,2022-05-02_15h30.31.159,Boat,2022.1.1,59.832266229277344,
neutral,positive,1,k,k,,,,,,,,,2,6,42,4,,,,,,,,,,,,,,,,,,,,,,,,main,1,1,1,positive,neutral,k,k,1,0.7842330999555998,255.2777527999715,256.2922603999614,256.2730348999612,None,255.2777527999715,None,255.2777527999715,None,255.2777527999715,None,257.0470514500048,None,257.0470514500048,None,257.0470514500048,None,,,,,,,,,,,109,24,Female,2022-05-02_15h30.31.159,Boat,2022.1.1,59.832266229277344,
positive,positive,1,l,j,,,,,,,,,2,7,43,2,,,,,,,,,,,,,,,,,,,,,,,,main,1,1,1,positive,positive,j,j,1,0.7927249000058509,257.0638256999664,258.07557869999437,258.0419447000022,None,257.0638256999664,None,257.0638256999664,None,257.0638256999664,None,258.84285104996525,None,258.84285104996525,None,258.84285104996525,None,,,,,,,,,,,109,24,Female,2022-05-02_15h30.31.159,Boat,2022.1.1,59.832266229277344,
positive,negative,1,l,j,,,,,,,,,2,8,44,5,,,,,,,,,,,,,,,,,,,,,,,,main,2,2,1,negative,positive,j,j,1,1.2021317000035197,258.8598966000136,259.8757173999911,259.85523340001237,None,258.8598966000136,None,258.8598966000136,None,258.8598966000136,None,261.048962950008,None,261.048962950008,None,261.048962950008,None,,,,,,,,,,,109,24,Female,2022-05-02_15h30.31.159,Boat,2022.1.1,59.832266229277344,
positive,negative,2,l,j,,,,,,,,,2,9,45,14,,,,,,,,,,,,,,,,,,,,,,,,main,1,1,2,negative,positive,j,j,1,1.0592822000035085,261.0649771000026,262.0703321999754,262.0703321999754,None,261.0649771000026,None,261.0649771000026,None,261.0649771000026,None,263.1094479499734,None,263.1094479499734,None,263.1094479499734,None,,,,,,,,,,,109,24,Female,2022-05-02_15h30.31.159,Boat,2022.1.1,59.832266229277344,
positive,positive,2,l,j,,,,,,,,,2,10,46,11,,,,,,,,,,,,,,,,,,,,,,,,main,1,1,2,positive,positive,j,j,1,0.8197723999619484,263.12643860001117,264.1423245999613,264.1084289000137,None,263.12643860001117,None,263.12643860001117,None,263.12643860001117,None,264.9325727499672,None,264.9325727499672,None,264.9325727499672,None,,,,,,,,,,,109,24,Female,2022-05-02_15h30.31.159,Boat,2022.1.1,59.832266229277344,
negative,neutral,1,j,l,,,,,,,,,2,11,47,3,,,,,,,,,,,,,,,,,,,,,,,,main,2,2,1,neutral,negative,l,l,1,0.813472300011199,264.95271689997753,265.96142319997307,265.9250020000036,None,264.95271689997753,None,264.95271689997753,None,264.95271689997753,None,266.74928864999674,None,266.74928864999674,None,266.74928864999674,None,,,,,,,,,,,109,24,Female,2022-05-02_15h30.31.159,Boat,2022.1.1,59.832266229277344,
neutral,negative,2,k,k,,,,,,,,,2,12,48,16,,,,,,,,,,,,,,,,,,,,,,,,main,2,2,2,negative,neutral,k,k,1,0.9022830000030808,266.7686456000083,267.7759364999947,267.7593205999583,None,266.7686456000083,None,266.7686456000083,None,266.7686456000083,None,268.6540404499974,None,268.6540404499974,None,268.6540404499974,None,,,,,,,,,,,109,24,Female,2022-05-02_15h30.31.159,Boat,2022.1.1,59.832266229277344,
negative,neutral,2,j,l,,,,,,,,,2,13,49,12,,,,,,,,,,,,,,,,,,,,,,,,main,2,2,2,neutral,negative,l,l,1,0.8184581000241451,268.6702235999983,269.68378769996343,269.6423555999645,None,268.6702235999983,None,268.6702235999983,None,268.6702235999983,None,270.4740135499742,None,270.4740135499742,None,270.4740135499742,None,,,,,,,,,,,109,24,Female,2022-05-02_15h30.31.159,Boat,2022.1.1,59.832266229277344,
negative,positive,1,j,l,,,,,,,,,2,14,50,6,,,,,,,,,,,,,,,,,,,,,,,,main,1,1,1,positive,negative,l,l,1,0.9195480000344105,270.4936453999835,271.509118099988,271.4737169999862,None,270.4936453999835,None,270.4936453999835,None,270.4936453999835,None,272.39583484997274,None,272.39583484997274,None,272.39583484997274,None,,,,,,,,,,,109,24,Female,2022-05-02_15h30.31.159,Boat,2022.1.1,59.832266229277344,
neutral,positive,2,k,k,,,,,,,,,2,15,51,13,,,,,,,,,,,,,,,,,,,,,,,,main,1,1,2,positive,neutral,k,k,1,0.8073228999855928,272.4136410999927,273.43415499996627,273.392407700012,None,272.4136410999927,None,272.4136410999927,None,272.4136410999927,None,274.2077965500066,None,274.2077965500066,None,274.2077965500066,None,,,,,,,,,,,109,24,Female,2022-05-02_15h30.31.159,Boat,2022.1.1,59.832266229277344,
neutral,neutral,2,k,k,,,,,,,,,2,16,52,10,,,,,,,,,,,,,,,,,,,,,,,,main,2,2,2,neutral,neutral,k,k,1,0.7515687000122853,274.2253475000034,275.2261956000002,275.20928929996444,None,274.2253475000034,None,274.2253475000034,None,274.2253475000034,None,275.9614795499947,None,275.9614795499947,None,275.9614795499947,None,,,,,,,,,,,109,24,Female,2022-05-02_15h30.31.159,Boat,2022.1.1,59.832266229277344,
neutral,negative,1,k,k,,,,,,,,,2,17,53,7,,,,,,,,,,,,,,,,,,,,,,,,main,2,2,1,negative,neutral,k,k,1,0.6822356999618933,275.9796162999701,277.0006568999961,276.9592275999603,None,275.9796162999701,None,275.9796162999701,None,275.9796162999701,None,277.64635794999776,None,277.64635794999776,None,277.64635794999776,None,,,,,,,,,,,109,24,Female,2022-05-02_15h30.31.159,Boat,2022.1.1,59.832266229277344,
negative,negative,2,j,l,,,,,,,,,3,0,54,9,,,,,,,,,,,,,,,,,,,,,,,,main,1,1,2,negative,negative,l,l,1,0.8213143000029959,277.66442149999784,278.6758913999656,278.642357899982,None,277.66442149999784,None,277.66442149999784,None,277.66442149999784,None,279.4733949499787,None,279.4733949499787,None,279.4733949499787,None,,,,,,,,,,,109,24,Female,2022-05-02_15h30.31.159,Boat,2022.1.1,59.832266229277344,
positive,positive,2,l,j,,,,,,,,,3,1,55,11,,,,,,,,,,,,,,,,,,,,,,,,main,2,2,2,positive,positive,j,j,1,0.7942918000044301,279.49161249998724,280.5066838999628,280.4872666999581,None,279.49161249998724,None,279.49161249998724,None,279.49161249998724,None,281.2695835499908,None,281.2695835499908,None,281.2695835499908,None,,,,,,,,,,,109,24,Female,2022-05-02_15h30.31.159,Boat,2022.1.1,59.832266229277344,
negative,neutral,1,j,l,,,,,,,,,3,2,56,3,,,,,,,,,,,,,,,,,,,,,,,,main,2,2,1,neutral,negative,l,l,1,0.8418686999939382,281.28938289999496,282.2928833999904,282.2579930999782,None,281.28938289999496,None,281.28938289999496,None,281.28938289999496,None,283.1128680499969,None,283.1128680499969,None,283.1128680499969,None,,,,,,,,,,,109,24,Female,2022-05-02_15h30.31.159,Boat,2022.1.1,59.832266229277344,
positive,neutral,2,l,j,,,,,,,,,3,3,57,17,,,,,,,,,,,,,,,,,,,,,,,,main,2,2,2,neutral,positive,j,j,1,0.78419199999189,283.1284824999748,284.14272489998257,284.107296400005,None,283.1284824999748,None,283.1284824999748,None,283.1284824999748,None,284.89843294996535,None,284.89843294996535,None,284.89843294996535,None,,,,,,,,,,,109,24,Female,2022-05-02_15h30.31.159,Boat,2022.1.1,59.832266229277344,
neutral,neutral,1,k,k,,,,,,,,,3,4,58,1,,,,,,,,,,,,,,,,,,,,,,,,main,1,1,1,neutral,neutral,k,k,1,0.7958718999871053,284.9216713999631,285.9342927999678,285.8925429999945,None,284.9216713999631,None,284.9216713999631,None,284.9216713999631,None,286.69774184998823,None,286.69774184998823,None,286.69774184998823,None,,,,,,,,,,,109,24,Female,2022-05-02_15h30.31.159,Boat,2022.1.1,59.832266229277344,
negative,negative,1,j,l,,,,,,,,,3,5,59,0,,,,,,,,,,,,,,,,,,,,,,,,main,1,1,1,negative,negative,l,l,1,0.7696379999979399,286.7193835999933,287.72617949999403,287.69203440001,None,286.7193835999933,None,286.7193835999933,None,286.7193835999933,None,288.4720583499875,None,288.4720583499875,None,288.4720583499875,None,,,,,,,,,,,109,24,Female,2022-05-02_15h30.31.159,Boat,2022.1.1,59.832266229277344,
neutral,positive,2,k,k,,,,,,,,,3,6,60,13,,,,,,,,,,,,,,,,,,,,,,,,main,2,2,2,positive,neutral,k,k,1,0.8121195000130683,288.4923409000039,289.52114919997985,289.4739652000135,None,288.4923409000039,None,288.4923409000039,None,288.4923409000039,None,290.2870377500076,None,290.2870377500076,None,290.2870377500076,None,,,,,,,,,,,109,24,Female,2022-05-02_15h30.31.159,Boat,2022.1.1,59.832266229277344,
negative,positive,2,j,l,,,,,,,,,3,7,61,15,,,,,,,,,,,,,,,,,,,,,,,,main,1,1,2,positive,negative,l,l,1,0.7913934999960475,290.3071383999777,291.31771269999444,291.27620239998214,None,290.3071383999777,None,290.3071383999777,None,290.3071383999777,None,292.078952849959,None,292.078952849959,None,292.078952849959,None,,,,,,,,,,,109,24,Female,2022-05-02_15h30.31.159,Boat,2022.1.1,59.832266229277344,
negative,neutral,2,j,l,,,,,,,,,3,8,62,12,,,,,,,,,,,,,,,,,,,,,,,,main,2,2,2,neutral,negative,l,l,1,0.7681410999502987,292.09718859998975,293.10869129997445,293.08880739996675,None,292.09718859998975,None,292.09718859998975,None,292.09718859998975,None,293.851719349972,None,293.851719349972,None,293.851719349972,None,,,,,,,,,,,109,24,Female,2022-05-02_15h30.31.159,Boat,2022.1.1,59.832266229277344,
positive,neutral,1,l,j,,,,,,,,,3,9,63,8,,,,,,,,,,,,,,,,,,,,,,,,main,1,1,1,neutral,positive,j,j,1,0.888381099968683,293.8679180999752,294.8790302000125,294.84446860000025,None,293.8679180999752,None,293.8679180999752,None,293.8679180999752,None,295.74229374999413,None,295.74229374999413,None,295.74229374999413,None,,,,,,,,,,,109,24,Female,2022-05-02_15h30.31.159,Boat,2022.1.1,59.832266229277344,
positive,negative,2,l,j,,,,,,,,,3,10,64,14,,,,,,,,,,,,,,,,,,,,,,,,main,2,2,2,negative,positive,j,j,1,0.7487686000531539,295.7595418000128,296.7763503000024,296.73753959999885,None,295.7595418000128,None,295.7595418000128,None,295.7595418000128,None,297.4928389500128,None,297.4928389500128,None,297.4928389500128,None,,,,,,,,,,,109,24,Female,2022-05-02_15h30.31.159,Boat,2022.1.1,59.832266229277344,
neutral,negative,2,k,k,,,,,,,,,3,11,65,16,,,,,,,,,,,,,,,,,,,,,,,,main,2,2,2,negative,neutral,k,k,1,0.8357604999910109,297.5102809999953,298.52598869998474,298.4906933999737,None,297.5102809999953,None,297.5102809999953,None,297.5102809999953,None,299.3316824499634,None,299.3316824499634,None,299.3316824499634,None,,,,,,,,,,,109,24,Female,2022-05-02_15h30.31.159,Boat,2022.1.1,59.832266229277344,
positive,negative,1,l,j,,,,,,,,,3,12,66,5,,,,,,,,,,,,,,,,,,,,,,,,main,2,2,1,negative,positive,j,j,1,1.2239497000118718,299.34919089998584,300.35694669996155,300.33779449999565,None,299.34919089998584,None,299.34919089998584,None,299.34919089998584,None,301.55845204996876,None,301.55845204996876,None,301.55845204996876,None,,,,,,,,,,,109,24,Female,2022-05-02_15h30.31.159,Boat,2022.1.1,59.832266229277344,
positive,positive,1,l,j,,,,,,,,,3,13,67,2,,,,,,,,,,,,,,,,,,,,,,,,main,2,2,1,positive,positive,j,j,1,0.8511173999868333,301.576692099974,302.59080379997613,302.5712498999783,None,301.576692099974,None,301.576692099974,None,301.576692099974,None,303.4096698499634,None,303.4096698499634,None,303.4096698499634,None,,,,,,,,,,,109,24,Female,2022-05-02_15h30.31.159,Boat,2022.1.1,59.832266229277344,
neutral,neutral,2,k,k,,,,,,,,,3,14,68,10,,,,,,,,,,,,,,,,,,,,,,,,main,1,1,2,neutral,neutral,k,k,1,0.8480184000218287,303.43705589999445,304.4431830999674,304.4265480999602,None,303.43705589999445,None,303.43705589999445,None,303.43705589999445,None,305.26493045000825,None,305.26493045000825,None,305.26493045000825,None,,,,,,,,,,,109,24,Female,2022-05-02_15h30.31.159,Boat,2022.1.1,59.832266229277344,
negative,positive,1,j,l,,,,,,,,,3,15,69,6,,,,,,,,,,,,,,,,,,,,,,,,main,2,2,1,positive,negative,l,l,1,0.8317537999828346,305.2811057000072,306.29288089997135,306.25861389999045,None,305.2811057000072,None,305.2811057000072,None,305.2811057000072,None,307.09826185001293,None,307.09826185001293,None,307.09826185001293,None,,,,,,,,,,,109,24,Female,2022-05-02_15h30.31.159,Boat,2022.1.1,59.832266229277344,
neutral,positive,1,k,k,,,,,,,,,3,16,70,4,,,,,,,,,,,,,,,,,,,,,,,,main,1,1,1,positive,neutral,k,k,1,0.7210342999896966,307.11523809999926,308.12640010000905,308.0908584999852,None,307.11523809999926,None,307.11523809999926,None,307.11523809999926,None,308.82350975001464,None,308.82350975001464,None,308.82350975001464,None,,,,,,,,,,,109,24,Female,2022-05-02_15h30.31.159,Boat,2022.1.1,59.832266229277344,
neutral,negative,1,k,k,,,,,,,,,3,17,71,7,,,,,,,,,,,,,,,,,,,,,,,,main,1,1,1,negative,neutral,k,k,1,0.6892056000069715,308.8406787000131,309.84299229999306,309.82579999999143,None,308.8406787000131,None,308.8406787000131,None,308.8406787000131,None,310.51388544996735,None,310.51388544996735,None,310.51388544996735,None,,,,,,,,,,,109,24,Female,2022-05-02_15h30.31.159,Boat,2022.1.1,59.832266229277344,
negative,negative,2,j,l,,,,,,,,,4,0,72,9,,,,,,,,,,,,,,,,,,,,,,,,main,2,2,2,negative,negative,l,l,1,0.8154237000271678,310.5308767000097,311.5511577000143,311.5100729999831,None,310.5308767000097,None,310.5308767000097,None,310.5308767000097,None,312.33325954998145,None,312.33325954998145,None,312.33325954998145,None,,,,,,,,,,,109,24,Female,2022-05-02_15h30.31.159,Boat,2022.1.1,59.832266229277344,
negative,neutral,2,j,l,,,,,,,,,4,1,73,12,,,,,,,,,,,,,,,,,,,,,,,,main,2,2,2,neutral,negative,l,l,1,0.7304423000314273,312.3529375999933,313.37169030000223,313.3264038999914,None,312.3529375999933,None,312.3529375999933,None,312.3529375999933,None,314.06630674999906,None,314.06630674999906,None,314.06630674999906,None,,,,,,,,,,,109,24,Female,2022-05-02_15h30.31.159,Boat,2022.1.1,59.832266229277344,
neutral,negative,2,k,k,,,,,,,,,4,2,74,16,,,,,,,,,,,,,,,,,,,,,,,,main,2,2,2,negative,neutral,k,k,1,0.7480644999886863,314.08284920000006,315.0938146999688,315.0598373999819,None,314.08284920000006,None,314.08284920000006,None,314.08284920000006,None,315.8154998499667,None,315.8154998499667,None,315.8154998499667,None,,,,,,,,,,,109,24,Female,2022-05-02_15h30.31.159,Boat,2022.1.1,59.832266229277344,
neutral,positive,2,k,k,,,,,,,,,4,3,75,13,,,,,,,,,,,,,,,,,,,,,,,,main,1,1,2,positive,neutral,k,k,1,0.7118459999910556,315.8339235999738,316.84088550001616,316.82138089998625,None,315.8339235999738,None,315.8339235999738,None,315.8339235999738,None,317.529728649999,None,317.529728649999,None,317.529728649999,None,,,,,,,,,,,109,24,Female,2022-05-02_15h30.31.159,Boat,2022.1.1,59.832266229277344,
positive,negative,1,l,j,,,,,,,,,4,4,76,5,,,,,,,,,,,,,,,,,,,,,,,,main,1,1,1,negative,positive,j,j,1,0.7896161999669857,317.54570570000215,318.5598389999941,318.5243769999943,None,317.54570570000215,None,317.54570570000215,None,317.54570570000215,None,319.3238456500112,None,319.3238456500112,None,319.3238456500112,None,,,,,,,,,,,109,24,Female,2022-05-02_15h30.31.159,Boat,2022.1.1,59.832266229277344,
positive,neutral,1,l,j,,,,,,,,,4,5,77,8,,,,,,,,,,,,,,,,,,,,,,,,main,1,1,1,neutral,positive,j,j,1,0.7340164000052027,319.3419121999759,320.35817590000806,320.338032700005,None,319.3419121999759,None,319.3419121999759,None,319.3419121999759,None,321.0603020499693,None,321.0603020499693,None,321.0603020499693,None,,,,,,,,,,,109,24,Female,2022-05-02_15h30.31.159,Boat,2022.1.1,59.832266229277344,
neutral,neutral,1,k,k,,,,,,,,,4,6,78,1,,,,,,,,,,,,,,,,,,,,,,,,main,2,2,1,neutral,neutral,k,k,1,0.7359570999979042,321.0782586999703,322.09360399999423,322.06002819997957,None,321.0782586999703,None,321.0782586999703,None,321.0782586999703,None,322.7988017500029,None,322.7988017500029,None,322.7988017500029,None,,,,,,,,,,,109,24,Female,2022-05-02_15h30.31.159,Boat,2022.1.1,59.832266229277344,
negative,positive,2,j,l,,,,,,,,,4,7,79,15,,,,,,,,,,,,,,,,,,,,,,,,main,2,2,2,positive,negative,l,l,1,0.7476881999755278,322.8150835999986,323.83789409999736,323.7912506000139,None,322.8150835999986,None,322.8150835999986,None,322.8150835999986,None,324.54885984997964,None,324.54885984997964,None,324.54885984997964,None,,,,,,,,,,,109,24,Female,2022-05-02_15h30.31.159,Boat,2022.1.1,59.832266229277344,
positive,positive,1,l,j,,,,,,,,,4,8,80,2,,,,,,,,,,,,,,,,,,,,,,,,main,1,1,1,positive,positive,j,j,1,0.9108906000037678,324.56691120000323,325.57669769995846,325.5428576999693,None,324.56691120000323,None,324.56691120000323,None,324.56691120000323,None,326.46230984997237,None,326.46230984997237,None,326.46230984997237,None,,,,,,,,,,,109,24,Female,2022-05-02_15h30.31.159,Boat,2022.1.1,59.832266229277344,
positive,neutral,2,l,j,,,,,,,,,4,9,81,17,,,,,,,,,,,,,,,,,,,,,,,,main,2,2,2,neutral,positive,j,j,1,0.7819934000144713,326.47964739997406,327.49516059999587,327.46065459999954,None,326.47964739997406,None,326.47964739997406,None,326.47964739997406,None,328.24662014999194,None,328.24662014999194,None,328.24662014999194,None,,,,,,,,,,,109,24,Female,2022-05-02_15h30.31.159,Boat,2022.1.1,59.832266229277344,
neutral,neutral,2,k,k,,,,,,,,,4,10,82,10,,,,,,,,,,,,,,,,,,,,,,,,main,2,2,2,neutral,neutral,k,k,1,0.6355639999965206,328.2627913999604,329.2767645000131,329.23838749999413,None,328.2627913999604,None,328.2627913999604,None,328.2627913999604,None,329.8865518500097,None,329.8865518500097,None,329.8865518500097,None,,,,,,,,,,,109,24,Female,2022-05-02_15h30.31.159,Boat,2022.1.1,59.832266229277344,
positive,positive,2,l,j,,,,,,,,,4,11,83,11,,,,,,,,,,,,,,,,,,,,,,,,main,2,2,2,positive,positive,j,j,1,0.854219600034412,329.9026376999682,330.9111290000146,330.87680159998126,None,329.9026376999682,None,329.9026376999682,None,329.9026376999682,None,331.74277104996145,None,331.74277104996145,None,331.74277104996145,None,,,,,,,,,,,109,24,Female,2022-05-02_15h30.31.159,Boat,2022.1.1,59.832266229277344,
negative,positive,1,j,l,,,,,,,,,4,12,84,6,,,,,,,,,,,,,,,,,,,,,,,,main,1,1,1,positive,negative,l,,0,0.9490478999796323,331.7614508999977,332.77731179998955,332.741074999969,None,331.7614508999977,None,331.7614508999977,None,331.7614508999977,None,333.70470459997887,None,333.70470459997887,None,333.70470459997887,None,,,,,,,,,,,109,24,Female,2022-05-02_15h30.31.159,Boat,2022.1.1,59.832266229277344,
neutral,negative,1,k,k,,,,,,,,,4,13,85,7,,,,,,,,,,,,,,,,,,,,,,,,main,2,2,1,negative,neutral,k,k,1,0.7446330999955535,334.71252359997015,335.7353914999985,335.6933018999989,None,334.71252359997015,None,334.71252359997015,None,334.71252359997015,None,336.44351815001573,None,336.44351815001573,None,336.44351815001573,None,,,,,,,,,,,109,24,Female,2022-05-02_15h30.31.159,Boat,2022.1.1,59.832266229277344,
neutral,positive,1,k,k,,,,,,,,,4,14,86,4,,,,,,,,,,,,,,,,,,,,,,,,main,2,2,1,positive,neutral,k,k,1,0.829221099964343,336.4599512999994,337.47521339997184,337.4551739000017,None,336.4599512999994,None,336.4599512999994,None,336.4599512999994,None,338.2771853500162,None,338.2771853500162,None,338.2771853500162,None,,,,,,,,,,,109,24,Female,2022-05-02_15h30.31.159,Boat,2022.1.1,59.832266229277344,
negative,neutral,1,j,l,,,,,,,,,4,15,87,3,,,,,,,,,,,,,,,,,,,,,,,,main,1,1,1,neutral,negative,l,l,1,0.8669717000448145,338.29424929997185,339.3101780000143,339.27563779999036,None,338.29424929997185,None,338.29424929997185,None,338.29424929997185,None,340.14581054996233,None,340.14581054996233,None,340.14581054996233,None,,,,,,,,,,,109,24,Female,2022-05-02_15h30.31.159,Boat,2022.1.1,59.832266229277344,
negative,negative,1,j,l,,,,,,,,,4,16,88,0,,,,,,,,,,,,,,,,,,,,,,,,main,2,2,1,negative,negative,l,l,1,0.7337665000231937,340.16253769997275,341.18547139997827,341.1436577999848,None,340.16253769997275,None,340.16253769997275,None,340.16253769997275,None,341.88058294996154,None,341.88058294996154,None,341.88058294996154,None,,,,,,,,,,,109,24,Female,2022-05-02_15h30.31.159,Boat,2022.1.1,59.832266229277344,
positive,negative,2,l,j,,,,,,,,,4,17,89,14,,,,,,,,,,,,,,,,,,,,,,,,main,1,1,2,negative,positive,j,j,1,0.733884500048589,341.89770879998105,342.9104415999609,342.8718100999831,None,341.89770879998105,None,341.89770879998105,None,341.89770879998105,None,343.61982014996465,None,343.61982014996465,None,343.61982014996465,None,,,,,,,,,,,109,24,Female,2022-05-02_15h30.31.159,Boat,2022.1.1,59.832266229277344,
neutral,neutral,2,k,k,,,,,,,,,5,0,90,10,,,,,,,,,,,,,,,,,,,,,,,,main,2,2,2,neutral,neutral,k,k,1,0.7062957999878563,343.6386683000019,344.64410029997816,344.61031590000493,None,343.6386683000019,None,343.6386683000019,None,343.6386683000019,None,345.3273689500056,None,345.3273689500056,None,345.3273689500056,None,,,,,,,,,,,109,24,Female,2022-05-02_15h30.31.159,Boat,2022.1.1,59.832266229277344,
neutral,positive,2,k,k,,,,,,,,,5,1,91,13,,,,,,,,,,,,,,,,,,,,,,,,main,2,2,2,positive,neutral,k,k,1,0.5918303999933414,345.3461213000119,346.36037349997787,346.3252077999641,None,345.3461213000119,None,345.3461213000119,None,345.3461213000119,None,346.9227658499731,None,346.9227658499731,None,346.9227658499731,None,,,,,,,,,,,109,24,Female,2022-05-02_15h30.31.159,Boat,2022.1.1,59.832266229277344,
positive,negative,2,l,j,,,,,,,,,5,2,92,14,,,,,,,,,,,,,,,,,,,,,,,,main,1,1,2,negative,positive,j,j,1,0.7777467999840155,346.9435676999856,347.9440900000045,347.9274381999858,None,346.9435676999856,None,346.9435676999856,None,346.9435676999856,None,348.7037606500089,None,348.7037606500089,None,348.7037606500089,None,,,,,,,,,,,109,24,Female,2022-05-02_15h30.31.159,Boat,2022.1.1,59.832266229277344,
positive,negative,1,l,j,,,,,,,,,5,3,93,5,,,,,,,,,,,,,,,,,,,,,,,,main,1,1,1,negative,positive,j,j,1,0.9021839000051841,348.7217288999818,349.72529639996355,349.7055733000161,None,348.7217288999818,None,348.7217288999818,None,348.7217288999818,None,350.60752314998535,None,350.60752314998535,None,350.60752314998535,None,,,,,,,,,,,109,24,Female,2022-05-02_15h30.31.159,Boat,2022.1.1,59.832266229277344,
positive,neutral,1,l,j,,,,,,,,,5,4,94,8,,,,,,,,,,,,,,,,,,,,,,,,main,2,2,1,neutral,positive,j,j,1,0.6903242999687791,350.6264571999782,351.65531020000344,351.6083116999944,None,350.6264571999782,None,350.6264571999782,None,350.6264571999782,None,352.2990888499771,None,352.2990888499771,None,352.2990888499771,None,,,,,,,,,,,109,24,Female,2022-05-02_15h30.31.159,Boat,2022.1.1,59.832266229277344,
positive,positive,1,l,j,,,,,,,,,5,5,95,2,,,,,,,,,,,,,,,,,,,,,,,,main,1,1,1,positive,positive,j,j,1,0.7785239000222646,352.3161939000129,353.3255055999616,353.30557939998107,None,352.3161939000129,None,352.3161939000129,None,352.3161939000129,None,354.0795141499839,None,354.0795141499839,None,354.0795141499839,None,,,,,,,,,,,109,24,Female,2022-05-02_15h30.31.159,Boat,2022.1.1,59.832266229277344,
negative,positive,2,j,l,,,,,,,,,5,6,96,15,,,,,,,,,,,,,,,,,,,,,,,,main,2,2,2,positive,negative,l,l,1,0.8114838000037707,354.0975306999753,355.1115220999927,355.0773685000022,None,354.0975306999753,None,354.0975306999753,None,354.0975306999753,None,355.89492364996113,None,355.89492364996113,None,355.89492364996113,None,,,,,,,,,,,109,24,Female,2022-05-02_15h30.31.159,Boat,2022.1.1,59.832266229277344,
negative,positive,1,j,l,,,,,,,,,5,7,97,6,,,,,,,,,,,,,,,,,,,,,,,,main,2,2,1,positive,negative,l,l,1,0.763574700045865,355.9115127999685,356.9250766999903,356.9056408999604,None,355.9115127999685,None,355.9115127999685,None,355.9115127999685,None,357.6616361499764,None,357.6616361499764,None,357.6616361499764,None,,,,,,,,,,,109,24,Female,2022-05-02_15h30.31.159,Boat,2022.1.1,59.832266229277344,
negative,neutral,2,j,l,,,,,,,,,5,8,98,12,,,,,,,,,,,,,,,,,,,,,,,,main,1,1,2,neutral,negative,l,l,1,0.8534554000361823,357.6771102999919,358.67930079996586,358.66072250000434,None,357.6771102999919,None,357.6771102999919,None,357.6771102999919,None,359.517735750007,None,359.517735750007,None,359.517735750007,None,,,,,,,,,,,109,24,Female,2022-05-02_15h30.31.159,Boat,2022.1.1,59.832266229277344,
positive,neutral,2,l,j,,,,,,,,,5,9,99,17,,,,,,,,,,,,,,,,,,,,,,,,main,1,1,2,neutral,positive,j,j,1,0.7483025999972597,359.53550439997343,360.54460269998526,360.50887059996603,None,359.53550439997343,None,359.53550439997343,None,359.53550439997343,None,361.2691307499772,None,361.2691307499772,None,361.2691307499772,None,,,,,,,,,,,109,24,Female,2022-05-02_15h30.31.159,Boat,2022.1.1,59.832266229277344,
neutral,positive,1,k,k,,,,,,,,,5,10,100,4,,,,,,,,,,,,,,,,,,,,,,,,main,1,1,1,positive,neutral,k,k,1,0.7581916999770328,361.28931409999495,362.29427259997465,362.27484069997445,None,361.28931409999495,None,361.28931409999495,None,361.28931409999495,None,363.0278182500042,None,363.0278182500042,None,363.0278182500042,None,,,,,,,,,,,109,24,Female,2022-05-02_15h30.31.159,Boat,2022.1.1,59.832266229277344,
negative,negative,2,j,l,,,,,,,,,5,11,101,9,,,,,,,,,,,,,,,,,,,,,,,,main,2,2,2,negative,negative,l,l,1,0.7119708999525756,363.04621719999705,364.0694130999618,364.0274754000129,None,363.04621719999705,None,363.04621719999705,None,363.04621719999705,None,364.74445454997476,None,364.74445454997476,None,364.74445454997476,None,,,,,,,,,,,109,24,Female,2022-05-02_15h30.31.159,Boat,2022.1.1,59.832266229277344,
negative,negative,1,j,l,,,,,,,,,5,12,102,0,,,,,,,,,,,,,,,,,,,,,,,,main,1,1,1,negative,negative,l,l,1,0.6855483999825083,364.7620484000072,365.78612509998493,365.74428949999856,None,364.7620484000072,None,364.7620484000072,None,364.7620484000072,None,366.4316781499656,None,366.4316781499656,None,366.4316781499656,None,,,,,,,,,,,109,24,Female,2022-05-02_15h30.31.159,Boat,2022.1.1,59.832266229277344,
positive,positive,2,l,j,,,,,,,,,5,13,103,11,,,,,,,,,,,,,,,,,,,,,,,,main,1,1,2,positive,positive,j,j,1,0.7676284000044689,366.4491279000067,367.46316189999925,367.4292475999682,None,366.4491279000067,None,366.4491279000067,None,366.4491279000067,None,368.2037488499773,None,368.2037488499773,None,368.2037488499773,None,,,,,,,,,,,109,24,Female,2022-05-02_15h30.31.159,Boat,2022.1.1,59.832266229277344,
negative,neutral,1,j,l,,,,,,,,,5,14,104,3,,,,,,,,,,,,,,,,,,,,,,,,main,2,2,1,neutral,negative,l,l,1,0.7787485999870114,368.2216857000021,369.23609119997127,369.19428499997593,None,368.2216857000021,None,368.2216857000021,None,368.2216857000021,None,369.98354335001204,None,369.98354335001204,None,369.98354335001204,None,,,,,,,,,,,109,24,Female,2022-05-02_15h30.31.159,Boat,2022.1.1,59.832266229277344,
neutral,neutral,1,k,k,,,,,,,,,5,15,105,1,,,,,,,,,,,,,,,,,,,,,,,,main,2,2,1,neutral,neutral,k,k,1,0.6949112999718636,370.0007029999979,371.01141259999713,370.9776245999965,None,370.0007029999979,None,370.0007029999979,None,370.0007029999979,None,371.68086505000247,None,371.68086505000247,None,371.68086505000247,None,,,,,,,,,,,109,24,Female,2022-05-02_15h30.31.159,Boat,2022.1.1,59.832266229277344,
neutral,negative,2,k,k,,,,,,,,,5,16,106,16,,,,,,,,,,,,,,,,,,,,,,,,main,2,2,2,negative,neutral,k,k,1,0.6400872000376694,371.6985367999878,372.7113418999943,372.67785019997973,None,371.6985367999878,None,371.6985367999878,None,371.6985367999878,None,373.32531335001113,None,373.32531335001113,None,373.32531335001113,None,,,,,,,,,,,109,24,Female,2022-05-02_15h30.31.159,Boat,2022.1.1,59.832266229277344,
neutral,negative,1,k,k,,,,,,,,,5,17,107,7,,,,,,,,,,,,,,,,,,,,,,,,main,2,2,1,negative,neutral,k,k,1,0.7387480000033975,373.343224799959,374.3454288999783,374.3281044999603,None,373.343224799959,None,373.343224799959,None,373.343224799959,None,375.0655433500069,None,375.0655433500069,None,375.0655433500069,None,,,,,,,,,,,109,24,Female,2022-05-02_15h30.31.159,Boat,2022.1.1,59.832266229277344,
positive,positive,2,l,j,,,,,,,,,6,0,108,11,,,,,,,,,,,,,,,,,,,,,,,,main,1,1,2,positive,positive,j,j,1,0.6898661999730393,375.0836642999784,376.0928877000115,376.07310089998646,None,375.0836642999784,None,375.0836642999784,None,375.0836642999784,None,376.76043864997337,None,376.76043864997337,None,376.76043864997337,None,,,,,,,,,,,109,24,Female,2022-05-02_15h30.31.159,Boat,2022.1.1,59.832266229277344,
negative,neutral,1,j,l,,,,,,,,,6,1,109,3,,,,,,,,,,,,,,,,,,,,,,,,main,1,1,1,neutral,negative,l,l,1,0.6722949999966659,376.77664769999683,377.77769449999323,377.7610457999981,None,376.77664769999683,None,376.77664769999683,None,376.77664769999683,None,378.435743250011,None,378.435743250011,None,378.435743250011,None,,,,,,,,,,,109,24,Female,2022-05-02_15h30.31.159,Boat,2022.1.1,59.832266229277344,
neutral,positive,2,k,k,,,,,,,,,6,2,110,13,,,,,,,,,,,,,,,,,,,,,,,,main,1,1,2,positive,neutral,k,k,1,0.7450431999750435,378.4537187999813,379.46135419997154,379.42548330000136,None,378.4537187999813,None,378.4537187999813,None,378.4537187999813,None,380.18120295001427,None,380.18120295001427,None,380.18120295001427,None,,,,,,,,,,,109,24,Female,2022-05-02_15h30.31.159,Boat,2022.1.1,59.832266229277344,
positive,negative,2,l,j,,,,,,,,,6,3,111,14,,,,,,,,,,,,,,,,,,,,,,,,main,2,2,2,negative,positive,j,j,1,0.6413285000016913,380.19941890001064,381.21126859996,381.1776950999629,None,380.19941890001064,None,380.19941890001064,None,380.19941890001064,None,381.8277493499918,None,381.8277493499918,None,381.8277493499918,None,,,,,,,,,,,109,24,Female,2022-05-02_15h30.31.159,Boat,2022.1.1,59.832266229277344,
positive,neutral,1,l,j,,,,,,,,,6,4,112,8,,,,,,,,,,,,,,,,,,,,,,,,main,1,1,1,neutral,positive,j,j,1,0.9683210999937728,381.84259899996687,382.8445833000005,382.8279291999643,None,381.84259899996687,None,381.84259899996687,None,381.84259899996687,None,383.7975308499881,None,383.7975308499881,None,383.7975308499881,None,,,,,,,,,,,109,24,Female,2022-05-02_15h30.31.159,Boat,2022.1.1,59.832266229277344,
positive,neutral,2,l,j,,,,,,,,,6,5,113,17,,,,,,,,,,,,,,,,,,,,,,,,main,2,2,2,neutral,positive,j,j,1,0.708839499973692,383.813965999987,384.8254115000018,384.8060111000086,None,383.813965999987,None,383.813965999987,None,383.813965999987,None,385.5104108499945,None,385.5104108499945,None,385.5104108499945,None,,,,,,,,,,,109,24,Female,2022-05-02_15h30.31.159,Boat,2022.1.1,59.832266229277344,
negative,negative,2,j,l,,,,,,,,,6,6,114,9,,,,,,,,,,,,,,,,,,,,,,,,main,1,1,2,negative,negative,l,l,1,0.81853669998236,385.52687329996843,386.5312323999824,386.513215199986,None,385.52687329996843,None,385.52687329996843,None,385.52687329996843,None,387.3298701499589,None,387.3298701499589,None,387.3298701499589,None,,,,,,,,,,,109,24,Female,2022-05-02_15h30.31.159,Boat,2022.1.1,59.832266229277344,
neutral,neutral,1,k,k,,,,,,,,,6,7,115,1,,,,,,,,,,,,,,,,,,,,,,,,main,2,2,1,neutral,neutral,k,k,1,0.7495659000123851,387.34825739997905,388.36160770000424,388.32774779998,None,387.34825739997905,None,387.34825739997905,None,387.34825739997905,None,389.0848808499868,None,389.0848808499868,None,389.0848808499868,None,,,,,,,,,,,109,24,Female,2022-05-02_15h30.31.159,Boat,2022.1.1,59.832266229277344,
positive,negative,1,l,j,,,,,,,,,6,8,116,5,,,,,,,,,,,,,,,,,,,,,,,,main,2,2,1,negative,positive,j,j,1,1.032911000016611,389.1023297999636,390.1062123000156,390.1062123000156,None,389.1023297999636,None,389.1023297999636,None,389.1023297999636,None,391.1172007499845,None,391.1172007499845,None,391.1172007499845,None,,,,,,,,,,,109,24,Female,2022-05-02_15h30.31.159,Boat,2022.1.1,59.832266229277344,
neutral,neutral,2,k,k,,,,,,,,,6,9,117,10,,,,,,,,,,,,,,,,,,,,,,,,main,2,2,2,neutral,neutral,k,k,1,0.6270868999999948,391.1383313999977,392.15603000001283,392.11110370000824,None,391.1383313999977,None,391.1383313999977,None,391.1383313999977,None,392.74776264996035,None,392.74776264996035,None,392.74776264996035,None,,,,,,,,,,,109,24,Female,2022-05-02_15h30.31.159,Boat,2022.1.1,59.832266229277344,
neutral,positive,1,k,k,,,,,,,,,6,10,118,4,,,,,,,,,,,,,,,,,,,,,,,,main,1,1,1,positive,neutral,k,k,1,0.7357435000012629,392.76487919996725,393.78638249996584,393.7451506999787,None,392.76487919996725,None,392.76487919996725,None,392.76487919996725,None,394.48794194997754,None,394.48794194997754,None,394.48794194997754,None,,,,,,,,,,,109,24,Female,2022-05-02_15h30.31.159,Boat,2022.1.1,59.832266229277344,
negative,positive,1,j,l,,,,,,,,,6,11,119,6,,,,,,,,,,,,,,,,,,,,,,,,main,1,1,1,positive,negative,l,l,1,1.0695908999769017,394.5069717000006,395.51181019999785,395.47738749999553,None,394.5069717000006,None,394.5069717000006,None,394.5069717000006,None,396.55802314996254,None,396.55802314996254,None,396.55802314996254,None,,,,,,,,,,,109,24,Female,2022-05-02_15h30.31.159,Boat,2022.1.1,59.832266229277344,
negative,negative,1,j,l,,,,,,,,,6,12,120,0,,,,,,,,,,,,,,,,,,,,,,,,main,2,2,1,negative,negative,l,l,1,0.719185900001321,396.5775705999695,397.57814449997386,397.5614818999893,None,396.5775705999695,None,396.5775705999695,None,396.5775705999695,None,398.2805415499606,None,398.2805415499606,None,398.2805415499606,None,,,,,,,,,,,109,24,Female,2022-05-02_15h30.31.159,Boat,2022.1.1,59.832266229277344,
neutral,negative,2,k,k,,,,,,,,,6,13,121,16,,,,,,,,,,,,,,,,,,,,,,,,main,2,2,2,negative,neutral,k,k,1,0.8035418000072241,398.2964804999647,399.3201181999757,399.27832009998383,None,398.2964804999647,None,398.2964804999647,None,398.2964804999647,None,400.08802635001484,None,400.08802635001484,None,400.08802635001484,None,,,,,,,,,,,109,24,Female,2022-05-02_15h30.31.159,Boat,2022.1.1,59.832266229277344,
negative,positive,2,j,l,,,,,,,,,6,14,122,15,,,,,,,,,,,,,,,,,,,,,,,,main,1,1,2,positive,negative,l,l,1,0.8254601000226103,400.1068774999585,401.1120033999905,401.0933108999743,None,400.1068774999585,None,400.1068774999585,None,400.1068774999585,None,401.914275749994,None,401.914275749994,None,401.914275749994,None,,,,,,,,,,,109,24,Female,2022-05-02_15h30.31.159,Boat,2022.1.1,59.832266229277344,
positive,positive,1,l,j,,,,,,,,,6,15,123,2,,,,,,,,,,,,,,,,,,,,,,,,main,2,2,1,positive,positive,j,j,1,0.8559120999998413,401.9317684000125,402.9404559999821,402.9198419000022,None,401.9317684000125,None,401.9317684000125,None,401.9317684000125,None,403.77429535001284,None,403.77429535001284,None,403.77429535001284,None,,,,,,,,,,,109,24,Female,2022-05-02_15h30.31.159,Boat,2022.1.1,59.832266229277344,
neutral,negative,1,k,k,,,,,,,,,6,16,124,7,,,,,,,,,,,,,,,,,,,,,,,,main,1,1,1,negative,neutral,k,k,1,0.723852600029204,403.791830400005,404.7951456999872,404.7785703999689,None,403.791830400005,None,403.791830400005,None,403.791830400005,None,405.5016010499676,None,405.5016010499676,None,405.5016010499676,None,,,,,,,,,,,109,24,Female,2022-05-02_15h30.31.159,Boat,2022.1.1,59.832266229277344,
negative,neutral,2,j,l,,,,,,,,,6,17,125,12,,,,,,,,,,,,,,,,,,,,,,,,main,2,2,2,neutral,negative,l,l,1,0.8469391000107862,405.5217058999697,406.52590050001163,406.5063983,None,405.5217058999697,None,405.5217058999697,None,405.5217058999697,None,407.3492590499809,None,407.3492590499809,None,407.3492590499809,None,,,,,,,,,,,109,24,Female,2022-05-02_15h30.31.159,Boat,2022.1.1,59.832266229277344,
neutral,neutral,1,k,k,,,,,,,,,7,0,126,1,,,,,,,,,,,,,,,,,,,,,,,,main,2,2,1,neutral,neutral,k,k,1,0.6069024999742396,407.36612560000503,408.3791998999659,408.34513849997893,None,407.36612560000503,None,407.36612560000503,None,407.36612560000503,None,408.95975674997317,None,408.95975674997317,None,408.95975674997317,None,,,,,,,,,,,109,24,Female,2022-05-02_15h30.31.159,Boat,2022.1.1,59.832266229277344,
neutral,positive,1,k,k,,,,,,,,,7,1,127,4,,,,,,,,,,,,,,,,,,,,,,,,main,1,1,1,positive,neutral,k,k,1,0.6891738999984227,408.9773055000114,409.97839100001147,409.96193290001247,None,408.9773055000114,None,408.9773055000114,None,408.9773055000114,None,410.65034135000315,None,410.65034135000315,None,410.65034135000315,None,,,,,,,,,,,109,24,Female,2022-05-02_15h30.31.159,Boat,2022.1.1,59.832266229277344,
neutral,neutral,2,k,k,,,,,,,,,7,2,128,10,,,,,,,,,,,,,,,,,,,,,,,,main,2,2,2,neutral,neutral,k,k,1,0.6686180999968201,410.66810239996994,411.6805174999754,411.6454864999978,None,410.66810239996994,None,410.66810239996994,None,410.66810239996994,None,412.3238109499798,None,412.3238109499798,None,412.3238109499798,None,,,,,,,,,,,109,24,Female,2022-05-02_15h30.31.159,Boat,2022.1.1,59.832266229277344,
neutral,negative,2,k,k,,,,,,,,,7,3,129,16,,,,,,,,,,,,,,,,,,,,,,,,main,2,2,2,negative,neutral,k,k,1,0.6791659000446089,412.3443356999778,413.3455019000103,413.3283903999836,None,412.3443356999778,None,412.3443356999778,None,412.3443356999778,None,414.00545274995966,None,414.00545274995966,None,414.00545274995966,None,,,,,,,,,,,109,24,Female,2022-05-02_15h30.31.159,Boat,2022.1.1,59.832266229277344,
negative,neutral,1,j,l,,,,,,,,,7,4,130,3,,,,,,,,,,,,,,,,,,,,,,,,main,1,1,1,neutral,negative,l,l,1,0.80882090004161,414.0221409999649,415.02575319999596,415.00656999996863,None,414.0221409999649,None,414.0221409999649,None,414.0221409999649,None,415.81490264995955,None,415.81490264995955,None,415.81490264995955,None,,,,,,,,,,,109,24,Female,2022-05-02_15h30.31.159,Boat,2022.1.1,59.832266229277344,
neutral,negative,1,k,k,,,,,,,,,7,5,131,7,,,,,,,,,,,,,,,,,,,,,,,,main,2,2,1,negative,neutral,k,k,1,0.9746504999930039,415.83131239999784,416.845399599988,416.8108621999854,None,415.83131239999784,None,415.83131239999784,None,415.83131239999784,None,417.7938973499695,None,417.7938973499695,None,417.7938973499695,None,,,,,,,,,,,109,24,Female,2022-05-02_15h30.31.159,Boat,2022.1.1,59.832266229277344,
negative,negative,1,j,l,,,,,,,,,7,6,132,0,,,,,,,,,,,,,,,,,,,,,,,,main,2,2,1,negative,negative,l,l,1,0.7885272999992594,417.81067019997863,418.8118446000153,418.79531319998205,None,417.81067019997863,None,417.81067019997863,None,417.81067019997863,None,419.5834315500106,None,419.5834315500106,None,419.5834315500106,None,,,,,,,,,,,109,24,Female,2022-05-02_15h30.31.159,Boat,2022.1.1,59.832266229277344,
positive,neutral,2,l,j,,,,,,,,,7,7,133,17,,,,,,,,,,,,,,,,,,,,,,,,main,2,2,2,neutral,positive,j,j,1,0.7237435000133701,419.60214659996564,420.6141923000105,420.5788745000027,None,419.60214659996564,None,419.60214659996564,None,419.60214659996564,None,421.3121512499638,None,421.3121512499638,None,421.3121512499638,None,,,,,,,,,,,109,24,Female,2022-05-02_15h30.31.159,Boat,2022.1.1,59.832266229277344,
positive,negative,1,l,j,,,,,,,,,7,8,134,5,,,,,,,,,,,,,,,,,,,,,,,,main,1,1,1,negative,positive,j,j,1,0.9057745999889448,421.3275423999876,422.34585929999594,422.3080312999664,None,421.3275423999876,None,421.3275423999876,None,421.3275423999876,None,423.2209830500069,None,423.2209830500069,None,423.2209830500069,None,,,,,,,,,,,109,24,Female,2022-05-02_15h30.31.159,Boat,2022.1.1,59.832266229277344,
positive,positive,1,l,j,,,,,,,,,7,9,135,2,,,,,,,,,,,,,,,,,,,,,,,,main,2,2,1,positive,positive,j,j,1,0.7379065000568517,423.23696209996706,424.24552289996063,424.22738019999815,None,423.23696209996706,None,423.23696209996706,None,423.23696209996706,None,424.9610986500047,None,424.9610986500047,None,424.9610986500047,None,,,,,,,,,,,109,24,Female,2022-05-02_15h30.31.159,Boat,2022.1.1,59.832266229277344,
neutral,positive,2,k,k,,,,,,,,,7,10,136,13,,,,,,,,,,,,,,,,,,,,,,,,main,2,2,2,positive,neutral,k,k,1,0.7310814000084065,424.9784503999981,425.9957082999754,425.9570709000109,None,424.9784503999981,None,424.9784503999981,None,424.9784503999981,None,426.6951616500155,None,426.6951616500155,None,426.6951616500155,None,,,,,,,,,,,109,24,Female,2022-05-02_15h30.31.159,Boat,2022.1.1,59.832266229277344,
positive,positive,2,l,j,,,,,,,,,7,11,137,11,,,,,,,,,,,,,,,,,,,,,,,,main,1,1,2,positive,positive,j,j,1,0.8690951999742538,426.71251400001347,427.7287495000055,427.69282910000766,None,426.71251400001347,None,426.71251400001347,None,426.71251400001347,None,428.56634354998823,None,428.56634354998823,None,428.56634354998823,None,,,,,,,,,,,109,24,Female,2022-05-02_15h30.31.159,Boat,2022.1.1,59.832266229277344,
negative,positive,1,j,l,,,,,,,,,7,12,138,6,,,,,,,,,,,,,,,,,,,,,,,,main,1,1,1,positive,negative,l,l,1,0.7332960999920033,428.58473659999436,429.6040789000108,429.5622890999657,None,428.58473659999436,None,428.58473659999436,None,428.58473659999436,None,430.30423584999517,None,430.30423584999517,None,430.30423584999517,None,,,,,,,,,,,109,24,Female,2022-05-02_15h30.31.159,Boat,2022.1.1,59.832266229277344,
negative,neutral,2,j,l,,,,,,,,,7,13,139,12,,,,,,,,,,,,,,,,,,,,,,,,main,2,2,2,neutral,negative,l,l,1,0.7618826999678276,430.3208391999942,431.32905860000756,431.31018789997324,None,430.3208391999942,None,430.3208391999942,None,430.3208391999942,None,432.06660715001635,None,432.06660715001635,None,432.06660715001635,None,,,,,,,,,,,109,24,Female,2022-05-02_15h30.31.159,Boat,2022.1.1,59.832266229277344,
negative,negative,2,j,l,,,,,,,,,7,14,140,9,,,,,,,,,,,,,,,,,,,,,,,,main,1,1,2,negative,negative,l,l,1,0.6952307000174187,432.08341009996366,433.09361949999584,433.0739271999919,None,432.08341009996366,None,432.08341009996366,None,432.08341009996366,None,433.7646889499738,None,433.7646889499738,None,433.7646889499738,None,,,,,,,,,,,109,24,Female,2022-05-02_15h30.31.159,Boat,2022.1.1,59.832266229277344,
positive,negative,2,l,j,,,,,,,,,7,15,141,14,,,,,,,,,,,,,,,,,,,,,,,,main,1,1,2,negative,positive,j,j,1,0.8156303000287153,433.78086279996205,434.7969153000158,434.7624699000153,None,433.78086279996205,None,433.78086279996205,None,433.78086279996205,None,435.5826876499923,None,435.5826876499923,None,435.5826876499923,None,,,,,,,,,,,109,24,Female,2022-05-02_15h30.31.159,Boat,2022.1.1,59.832266229277344,
negative,positive,2,j,l,,,,,,,,,7,16,142,15,,,,,,,,,,,,,,,,,,,,,,,,main,1,1,2,positive,negative,l,l,1,0.8355113000143319,435.59981669997796,436.62023229995975,436.5790022999863,None,435.59981669997796,None,435.59981669997796,None,435.59981669997796,None,437.42243804998,None,437.42243804998,None,437.42243804998,None,,,,,,,,,,,109,24,Female,2022-05-02_15h30.31.159,Boat,2022.1.1,59.832266229277344,
positive,neutral,1,l,j,,,,,,,,,7,17,143,8,,,,,,,,,,,,,,,,,,,,,,,,main,2,2,1,neutral,positive,j,j,1,0.7669422999606468,437.44215379998786,438.4609144999995,438.42091469996376,None,437.44215379998786,None,437.44215379998786,None,437.44215379998786,None,439.1918802500004,None,439.1918802500004,None,439.1918802500004,None,,,,,,,,,,,109,24,Female,2022-05-02_15h30.31.159,Boat,2022.1.1,59.832266229277344,
negative,negative,2,j,l,,,,,,,,,8,0,144,9,,,,,,,,,,,,,,,,,,,,,,,,main,1,1,2,negative,negative,l,l,1,0.6480142999789678,439.2115593999624,440.212718099996,440.1949443999911,None,439.2115593999624,None,439.2115593999624,None,439.2115593999624,None,440.8422046499909,None,440.8422046499909,None,440.8422046499909,None,,,,,,,,,,,109,24,Female,2022-05-02_15h30.31.159,Boat,2022.1.1,59.832266229277344,
positive,negative,2,l,j,,,,,,,,,8,1,145,14,,,,,,,,,,,,,,,,,,,,,,,,main,1,1,2,negative,positive,j,j,1,0.7090315999812447,440.8612878000131,441.8625608999864,441.8457147000008,None,440.8612878000131,None,440.8612878000131,None,440.8612878000131,None,442.55412385001546,None,442.55412385001546,None,442.55412385001546,None,,,,,,,,,,,109,24,Female,2022-05-02_15h30.31.159,Boat,2022.1.1,59.832266229277344,
neutral,positive,1,k,k,,,,,,,,,8,2,146,4,,,,,,,,,,,,,,,,,,,,,,,,main,1,1,1,positive,neutral,k,k,1,0.7381829000078142,442.5698666999815,443.57956390001345,443.54070369998226,None,442.5698666999815,None,442.5698666999815,None,442.5698666999815,None,444.29485785000725,None,444.29485785000725,None,444.29485785000725,None,,,,,,,,,,,109,24,Female,2022-05-02_15h30.31.159,Boat,2022.1.1,59.832266229277344,
positive,neutral,1,l,j,,,,,,,,,8,3,147,8,,,,,,,,,,,,,,,,,,,,,,,,main,1,1,1,neutral,positive,j,j,1,0.8165652999887243,444.31142899999395,445.32079959998373,445.2939855000004,None,444.31142899999395,None,444.31142899999395,None,444.31142899999395,None,446.11253904999467,None,446.11253904999467,None,446.11253904999467,None,,,,,,,,,,,109,24,Female,2022-05-02_15h30.31.159,Boat,2022.1.1,59.832266229277344,
negative,positive,1,j,l,,,,,,,,,8,4,148,6,,,,,,,,,,,,,,,,,,,,,,,,main,2,2,1,positive,negative,l,l,1,0.7521787000005133,446.1296044999617,447.14589619997423,447.10740849998547,None,446.1296044999617,None,446.1296044999617,None,446.1296044999617,None,447.8675246500061,None,447.8675246500061,None,447.8675246500061,None,,,,,,,,,,,109,24,Female,2022-05-02_15h30.31.159,Boat,2022.1.1,59.832266229277344,
negative,positive,2,j,l,,,,,,,,,8,5,149,15,,,,,,,,,,,,,,,,,,,,,,,,main,1,1,2,positive,negative,l,l,1,0.7911796999978833,447.8844396999921,448.8967223999789,448.86269479995826,None,447.8844396999921,None,447.8844396999921,None,447.8844396999921,None,449.66250684997067,None,449.66250684997067,None,449.66250684997067,None,,,,,,,,,,,109,24,Female,2022-05-02_15h30.31.159,Boat,2022.1.1,59.832266229277344,
neutral,negative,2,k,k,,,,,,,,,8,6,150,16,,,,,,,,,,,,,,,,,,,,,,,,main,1,1,2,negative,neutral,k,k,1,0.9000840000226162,449.67871119995834,450.6909296999802,450.67068969999673,None,449.67871119995834,None,449.67871119995834,None,449.67871119995834,None,451.564889649977,None,451.564889649977,None,451.564889649977,None,,,,,,,,,,,109,24,Female,2022-05-02_15h30.31.159,Boat,2022.1.1,59.832266229277344,
positive,negative,1,l,j,,,,,,,,,8,7,151,5,,,,,,,,,,,,,,,,,,,,,,,,main,2,2,1,negative,positive,j,j,1,0.7223356000031345,451.58090689999517,452.597528400016,452.5629903000081,None,451.58090689999517,None,451.58090689999517,None,451.58090689999517,None,453.2899978499627,None,453.2899978499627,None,453.2899978499627,None,,,,,,,,,,,109,24,Female,2022-05-02_15h30.31.159,Boat,2022.1.1,59.832266229277344,
negative,neutral,2,j,l,,,,,,,,,8,8,152,12,,,,,,,,,,,,,,,,,,,,,,,,main,1,1,2,neutral,negative,l,l,1,0.7400022000074387,453.30773209995823,454.31254750001244,454.29615020001074,None,453.30773209995823,None,453.30773209995823,None,453.30773209995823,None,455.03150365001056,None,455.03150365001056,None,455.03150365001056,None,,,,,,,,,,,109,24,Female,2022-05-02_15h30.31.159,Boat,2022.1.1,59.832266229277344,
neutral,negative,1,k,k,,,,,,,,,8,9,153,7,,,,,,,,,,,,,,,,,,,,,,,,main,2,2,1,negative,neutral,k,k,1,0.6668197000399232,455.0488381999894,456.07105229998706,456.0291897999705,None,455.0488381999894,None,455.0488381999894,None,455.0488381999894,None,456.7023371499963,None,456.7023371499963,None,456.7023371499963,None,,,,,,,,,,,109,24,Female,2022-05-02_15h30.31.159,Boat,2022.1.1,59.832266229277344,
positive,positive,1,l,j,,,,,,,,,8,10,154,2,,,,,,,,,,,,,,,,,,,,,,,,main,2,2,1,positive,positive,j,j,1,0.7234732000506483,456.7196339999791,457.7277548999991,457.70778870000504,None,456.7196339999791,None,456.7196339999791,None,456.7196339999791,None,458.4283693499747,None,458.4283693499747,None,458.4283693499747,None,,,,,,,,,,,109,24,Female,2022-05-02_15h30.31.159,Boat,2022.1.1,59.832266229277344,
neutral,positive,2,k,k,,,,,,,,,8,11,155,13,,,,,,,,,,,,,,,,,,,,,,,,main,1,1,2,positive,neutral,k,k,1,0.6444890000275336,458.4453424999956,459.46286069997586,459.42403860000195,None,458.4453424999956,None,458.4453424999956,None,458.4453424999956,None,460.0768429499585,None,460.0768429499585,None,460.0768429499585,None,,,,,,,,,,,109,24,Female,2022-05-02_15h30.31.159,Boat,2022.1.1,59.832266229277344,
positive,neutral,2,l,j,,,,,,,,,8,12,156,17,,,,,,,,,,,,,,,,,,,,,,,,main,2,2,2,neutral,positive,j,j,1,0.7155426999670453,460.09579429996666,461.09605870000087,461.0795510999742,None,460.09579429996666,None,460.09579429996666,None,460.09579429996666,None,461.79483764996985,None,461.79483764996985,None,461.79483764996985,None,,,,,,,,,,,109,24,Female,2022-05-02_15h30.31.159,Boat,2022.1.1,59.832266229277344,
negative,neutral,1,j,l,,,,,,,,,8,13,157,3,,,,,,,,,,,,,,,,,,,,,,,,main,2,2,1,neutral,negative,l,l,1,0.7351766999927349,461.8117906000116,462.8130569999921,462.7962055999669,None,461.8117906000116,None,461.8117906000116,None,461.8117906000116,None,463.53178154997295,None,463.53178154997295,None,463.53178154997295,None,,,,,,,,,,,109,24,Female,2022-05-02_15h30.31.159,Boat,2022.1.1,59.832266229277344,
neutral,neutral,2,k,k,,,,,,,,,8,14,158,10,,,,,,,,,,,,,,,,,,,,,,,,main,2,2,2,neutral,neutral,k,k,1,0.785245799983386,463.54816589999245,464.56293219997315,464.5243550000014,None,463.54816589999245,None,463.54816589999245,None,463.54816589999245,None,465.3204834499629,None,465.3204834499629,None,465.3204834499629,None,,,,,,,,,,,109,24,Female,2022-05-02_15h30.31.159,Boat,2022.1.1,59.832266229277344,
neutral,neutral,1,k,k,,,,,,,,,8,15,159,1,,,,,,,,,,,,,,,,,,,,,,,,main,1,1,1,neutral,neutral,k,k,1,0.698290900036227,465.33722559997113,466.34463579999283,466.32457589998376,None,465.33722559997113,None,465.33722559997113,None,465.33722559997113,None,467.0214357500081,None,467.0214357500081,None,467.0214357500081,None,,,,,,,,,,,109,24,Female,2022-05-02_15h30.31.159,Boat,2022.1.1,59.832266229277344,
negative,negative,1,j,l,,,,,,,,,8,16,160,0,,,,,,,,,,,,,,,,,,,,,,,,main,1,1,1,negative,negative,l,l,1,0.7771713999682106,467.03846449998673,468.0463243999984,468.0277980999672,None,467.03846449998673,None,467.03846449998673,None,467.03846449998673,None,468.79934724996565,None,468.79934724996565,None,468.79934724996565,None,,,,,,,,,,,109,24,Female,2022-05-02_15h30.31.159,Boat,2022.1.1,59.832266229277344,
positive,positive,2,l,j,,,,,,,,,8,17,161,11,,,,,,,,,,,,,,,,,,,,,,,,main,1,1,2,positive,positive,j,j,1,0.7662725999834947,468.815873799962,469.82466649997514,469.80464729998494,None,468.815873799962,None,468.815873799962,None,468.815873799962,None,470.5693966500112,None,470.5693966500112,None,470.5693966500112,None,,,,,,,,,,,109,24,Female,2022-05-02_15h30.31.159,Boat,2022.1.1,59.832266229277344,
positive,positive,1,l,j,,,,,,,,,9,0,162,2,,,,,,,,,,,,,,,,,,,,,,,,main,2,2,1,positive,positive,j,j,1,0.9204335000249557,470.5868618999957,471.6050424000132,471.5578188999789,None,470.5868618999957,None,470.5868618999957,None,470.5868618999957,None,472.49297264998313,None,472.49297264998313,None,472.49297264998313,None,,,,,,,,,,,109,24,Female,2022-05-02_15h30.31.159,Boat,2022.1.1,59.832266229277344,
neutral,positive,1,k,k,,,,,,,,,9,1,163,4,,,,,,,,,,,,,,,,,,,,,,,,main,1,1,1,positive,neutral,k,k,1,0.9451462000142783,472.51201559999026,473.5213309999672,473.4947144999751,None,472.51201559999026,None,472.51201559999026,None,472.51201559999026,None,474.43914435000625,None,474.43914435000625,None,474.43914435000625,None,,,,,,,,,,,109,24,Female,2022-05-02_15h30.31.159,Boat,2022.1.1,59.832266229277344,
negative,positive,2,j,l,,,,,,,,,9,2,164,15,,,,,,,,,,,,,,,,,,,,,,,,main,1,1,2,positive,negative,l,l,1,0.744959999981802,474.4599869999802,475.4629697999917,475.446464299981,None,474.4599869999802,None,474.4599869999802,None,474.4599869999802,None,476.18761084997095,None,476.18761084997095,None,476.18761084997095,None,,,,,,,,,,,109,24,Female,2022-05-02_15h30.31.159,Boat,2022.1.1,59.832266229277344,
neutral,neutral,2,k,k,,,,,,,,,9,3,165,10,,,,,,,,,,,,,,,,,,,,,,,,main,2,2,2,neutral,neutral,k,k,1,0.6544228999991901,476.2039569999906,477.22158030001447,477.1797348000109,None,476.2039569999906,None,476.2039569999906,None,476.2039569999906,None,477.844565449981,None,477.844565449981,None,477.844565449981,None,,,,,,,,,,,109,24,Female,2022-05-02_15h30.31.159,Boat,2022.1.1,59.832266229277344,
positive,negative,1,l,j,,,,,,,,,9,4,166,5,,,,,,,,,,,,,,,,,,,,,,,,main,2,2,1,negative,positive,j,j,1,0.9569269000203349,477.8628483999637,478.86320429999614,478.8297401999589,None,477.8628483999637,None,477.8628483999637,None,477.8628483999637,None,479.80288604996167,None,479.80288604996167,None,479.80288604996167,None,,,,,,,,,,,109,24,Female,2022-05-02_15h30.31.159,Boat,2022.1.1,59.832266229277344,
neutral,neutral,1,k,k,,,,,,,,,9,5,167,1,,,,,,,,,,,,,,,,,,,,,,,,main,1,1,1,neutral,neutral,k,k,1,0.711132800031919,479.82444160000887,480.84142419998534,480.79638219997287,None,479.82444160000887,None,479.82444160000887,None,479.82444160000887,None,481.5172903499915,None,481.5172903499915,None,481.5172903499915,None,,,,,,,,,,,109,24,Female,2022-05-02_15h30.31.159,Boat,2022.1.1,59.832266229277344,
positive,neutral,2,l,j,,,,,,,,,9,6,168,17,,,,,,,,,,,,,,,,,,,,,,,,main,1,1,2,neutral,positive,j,j,1,0.8291575000039302,481.5330024000141,482.5463937000022,482.50797480001347,None,481.5330024000141,None,481.5330024000141,None,481.5330024000141,None,483.3491552500054,None,483.3491552500054,None,483.3491552500054,None,,,,,,,,,,,109,24,Female,2022-05-02_15h30.31.159,Boat,2022.1.1,59.832266229277344,
negative,neutral,2,j,l,,,,,,,,,9,7,169,12,,,,,,,,,,,,,,,,,,,,,,,,main,2,2,2,neutral,negative,l,l,1,0.8401400999864563,483.3660329999984,484.3781465999782,484.35810319997836,None,483.3660329999984,None,483.3660329999984,None,483.3660329999984,None,485.1936284499825,None,485.1936284499825,None,485.1936284499825,None,,,,,,,,,,,109,24,Female,2022-05-02_15h30.31.159,Boat,2022.1.1,59.832266229277344,
negative,negative,2,j,l,,,,,,,,,9,8,170,9,,,,,,,,,,,,,,,,,,,,,,,,main,2,2,2,negative,negative,l,l,1,1.3021282000117935,485.2098650999833,486.21329899999546,486.19481899996754,None,485.2098650999833,None,485.2098650999833,None,485.2098650999833,None,487.49696814996423,None,487.49696814996423,None,487.49696814996423,None,,,,,,,,,,,109,24,Female,2022-05-02_15h30.31.159,Boat,2022.1.1,59.832266229277344,
positive,negative,2,l,j,,,,,,,,,9,9,171,14,,,,,,,,,,,,,,,,,,,,,,,,main,2,2,2,negative,positive,j,j,1,0.7245151000097394,487.5140575999976,488.5245439999853,488.5048478000099,None,487.5140575999976,None,487.5140575999976,None,487.5140575999976,None,489.2254396500066,None,489.2254396500066,None,489.2254396500066,None,,,,,,,,,,,109,24,Female,2022-05-02_15h30.31.159,Boat,2022.1.1,59.832266229277344,
neutral,negative,2,k,k,,,,,,,,,9,10,172,16,,,,,,,,,,,,,,,,,,,,,,,,main,2,2,2,negative,neutral,k,k,1,0.6244281000108458,489.2449403000064,490.24714789999416,490.2137986999587,None,489.2449403000064,None,489.2449403000064,None,489.2449403000064,None,490.85063925001305,None,490.85063925001305,None,490.85063925001305,None,,,,,,,,,,,109,24,Female,2022-05-02_15h30.31.159,Boat,2022.1.1,59.832266229277344,
negative,negative,1,j,l,,,,,,,,,9,11,173,0,,,,,,,,,,,,,,,,,,,,,,,,main,2,2,1,negative,negative,l,l,1,0.6676233000471257,490.8671833999688,491.888723400014,491.846790599986,None,490.8671833999688,None,490.8671833999688,None,490.8671833999688,None,492.52262264996534,None,492.52262264996534,None,492.52262264996534,None,,,,,,,,,,,109,24,Female,2022-05-02_15h30.31.159,Boat,2022.1.1,59.832266229277344,
negative,neutral,1,j,l,,,,,,,,,9,12,174,3,,,,,,,,,,,,,,,,,,,,,,,,main,1,1,1,neutral,negative,l,l,1,0.6545324000180699,492.5380971999839,493.5467673999956,493.51083559996914,None,492.5380971999839,None,492.5380971999839,None,492.5380971999839,None,494.17893165000714,None,494.17893165000714,None,494.17893165000714,None,,,,,,,,,,,109,24,Female,2022-05-02_15h30.31.159,Boat,2022.1.1,59.832266229277344,
positive,positive,2,l,j,,,,,,,,,9,13,175,11,,,,,,,,,,,,,,,,,,,,,,,,main,1,1,2,positive,positive,j,j,1,0.7736337999813259,494.19598349998705,495.1972599999863,495.18014609999955,None,494.19598349998705,None,494.19598349998705,None,494.19598349998705,None,495.95677965000505,None,495.95677965000505,None,495.95677965000505,None,,,,,,,,,,,109,24,Female,2022-05-02_15h30.31.159,Boat,2022.1.1,59.832266229277344,
negative,positive,1,j,l,,,,,,,,,9,14,176,6,,,,,,,,,,,,,,,,,,,,,,,,main,1,1,1,positive,negative,l,l,1,0.8094325999845751,495.976247899991,496.9800281999633,496.96217819995945,None,495.976247899991,None,495.976247899991,None,495.976247899991,None,497.7670948500163,None,497.7670948500163,None,497.7670948500163,None,,,,,,,,,,,109,24,Female,2022-05-02_15h30.31.159,Boat,2022.1.1,59.832266229277344,
positive,neutral,1,l,j,,,,,,,,,9,15,177,8,,,,,,,,,,,,,,,,,,,,,,,,main,1,1,1,neutral,positive,j,j,1,0.7460007999907248,497.784934299998,498.7942589999875,498.7749679000117,None,497.784934299998,None,497.784934299998,None,497.784934299998,None,499.5161437499919,None,499.5161437499919,None,499.5161437499919,None,,,,,,,,,,,109,24,Female,2022-05-02_15h30.31.159,Boat,2022.1.1,59.832266229277344,
neutral,negative,1,k,k,,,,,,,,,9,16,178,7,,,,,,,,,,,,,,,,,,,,,,,,main,1,1,1,negative,neutral,k,k,1,0.8376753999618813,499.5325199000072,500.54517289996147,500.5251300999662,None,499.5325199000072,None,499.5325199000072,None,499.5325199000072,None,501.3575920499861,None,501.3575920499861,None,501.3575920499861,None,,,,,,,,,,,109,24,Female,2022-05-02_15h30.31.159,Boat,2022.1.1,59.832266229277344,
neutral,positive,2,k,k,,,,,,,,,9,17,179,13,,,,,,,,,,,,,,,,,,,,,,,,main,2,2,2,positive,neutral,k,k,1,0.7531293000211008,501.37558769999305,502.3803579999949,502.3637380999862,None,501.37558769999305,None,501.37558769999305,None,501.37558769999305,None,503.1135089499876,None,503.1135089499876,None,503.1135089499876,None,,,,,,,,,,,109,24,Female,2022-05-02_15h30.31.159,Boat,2022.1.1,59.832266229277344,
neutral,negative,2,k,k,,,,,,,,,10,0,180,16,,,,,,,,,,,,,,,,,,,,,,,,main,2,2,2,negative,neutral,k,k,1,0.614711600006558,503.1294306999771,504.14704129996244,504.1108238999732,None,503.1294306999771,None,503.1294306999771,None,503.1294306999771,None,504.7313923499896,None,504.7313923499896,None,504.7313923499896,None,,,,,,,,,,,109,24,Female,2022-05-02_15h30.31.159,Boat,2022.1.1,59.832266229277344,
positive,positive,2,l,j,,,,,,,,,10,1,181,11,,,,,,,,,,,,,,,,,,,,,,,,main,2,2,2,positive,positive,j,j,1,0.9727758999797516,504.74906529998407,505.76381039997796,505.72958119999385,None,504.74906529998407,None,504.74906529998407,None,504.74906529998407,None,506.7086157500162,None,506.7086157500162,None,506.7086157500162,None,,,,,,,,,,,109,24,Female,2022-05-02_15h30.31.159,Boat,2022.1.1,59.832266229277344,
positive,negative,2,l,j,,,,,,,,,10,2,182,14,,,,,,,,,,,,,,,,,,,,,,,,main,1,1,2,negative,positive,j,j,1,0.7417424999875948,506.72698179999134,507.7302231999929,507.7139279000112,None,506.72698179999134,None,506.72698179999134,None,506.72698179999134,None,508.4506068499759,None,508.4506068499759,None,508.4506068499759,None,,,,,,,,,,,109,24,Female,2022-05-02_15h30.31.159,Boat,2022.1.1,59.832266229277344,
negative,positive,1,j,l,,,,,,,,,10,3,183,6,,,,,,,,,,,,,,,,,,,,,,,,main,2,2,1,positive,negative,l,l,1,0.7783773000119254,508.46798379998654,509.47862549999263,509.4586905000033,None,508.46798379998654,None,508.46798379998654,None,508.46798379998654,None,510.23196254996583,None,510.23196254996583,None,510.23196254996583,None,,,,,,,,,,,109,24,Female,2022-05-02_15h30.31.159,Boat,2022.1.1,59.832266229277344,
neutral,negative,1,k,k,,,,,,,,,10,4,184,7,,,,,,,,,,,,,,,,,,,,,,,,main,2,2,1,negative,neutral,k,k,1,0.7365007000043988,510.25064509996446,511.2639093999751,511.2282884999877,None,510.25064509996446,None,510.25064509996446,None,510.25064509996446,None,511.9723692499683,None,511.9723692499683,None,511.9723692499683,None,,,,,,,,,,,109,24,Female,2022-05-02_15h30.31.159,Boat,2022.1.1,59.832266229277344,
neutral,neutral,1,k,k,,,,,,,,,10,5,185,1,,,,,,,,,,,,,,,,,,,,,,,,main,1,1,1,neutral,neutral,k,k,1,0.6260930999997072,511.99437309999485,512.9977669999935,512.9642709000036,None,511.99437309999485,None,511.99437309999485,None,511.99437309999485,None,513.6003249500063,None,513.6003249500063,None,513.6003249500063,None,,,,,,,,,,,109,24,Female,2022-05-02_15h30.31.159,Boat,2022.1.1,59.832266229277344,
negative,positive,2,j,l,,,,,,,,,10,6,186,15,,,,,,,,,,,,,,,,,,,,,,,,main,2,2,2,positive,negative,l,l,1,0.8671695999801159,513.6173601999762,514.6332103000022,514.5978800000157,None,513.6173601999762,None,513.6173601999762,None,513.6173601999762,None,515.4702666499652,None,515.4702666499652,None,515.4702666499652,None,,,,,,,,,,,109,24,Female,2022-05-02_15h30.31.159,Boat,2022.1.1,59.832266229277344,
neutral,neutral,2,k,k,,,,,,,,,10,7,187,10,,,,,,,,,,,,,,,,,,,,,,,,main,2,2,2,neutral,neutral,k,k,1,0.8466406000079587,515.49125859997,516.4973993999884,516.4638123000041,None,515.49125859997,None,515.49125859997,None,515.49125859997,None,517.3204910499626,None,517.3204910499626,None,517.3204910499626,None,,,,,,,,,,,109,24,Female,2022-05-02_15h30.31.159,Boat,2022.1.1,59.832266229277344,
negative,neutral,2,j,l,,,,,,,,,10,8,188,12,,,,,,,,,,,,,,,,,,,,,,,,main,1,1,2,neutral,negative,l,l,1,0.8507484000292607,517.337136999995,518.3444167000125,518.3254292999627,None,517.337136999995,None,517.337136999995,None,517.337136999995,None,519.1743271499872,None,519.1743271499872,None,519.1743271499872,None,,,,,,,,,,,109,24,Female,2022-05-02_15h30.31.159,Boat,2022.1.1,59.832266229277344,
positive,neutral,1,l,j,,,,,,,,,10,9,189,8,,,,,,,,,,,,,,,,,,,,,,,,main,1,1,1,neutral,positive,j,j,1,0.7837967000086792,519.1922801999608,520.2003591000102,520.1654730999726,None,519.1922801999608,None,519.1922801999608,None,519.1922801999608,None,520.9603516499628,None,520.9603516499628,None,520.9603516499628,None,,,,,,,,,,,109,24,Female,2022-05-02_15h30.31.159,Boat,2022.1.1,59.832266229277344,
negative,negative,2,j,l,,,,,,,,,10,10,190,9,,,,,,,,,,,,,,,,,,,,,,,,main,2,2,2,negative,negative,l,l,1,0.7254565000184812,520.9768388000084,521.9806118999841,521.9640934999916,None,520.9768388000084,None,520.9768388000084,None,520.9768388000084,None,522.6880125500029,None,522.6880125500029,None,522.6880125500029,None,,,,,,,,,,,109,24,Female,2022-05-02_15h30.31.159,Boat,2022.1.1,59.832266229277344,
positive,positive,1,l,j,,,,,,,,,10,11,191,2,,,,,,,,,,,,,,,,,,,,,,,,main,1,1,1,positive,positive,j,j,1,0.7597718999604695,522.7038663999992,523.7088329999824,523.7088329999824,None,522.7038663999992,None,522.7038663999992,None,522.7038663999992,None,524.4480839499738,None,524.4480839499738,None,524.4480839499738,None,,,,,,,,,,,109,24,Female,2022-05-02_15h30.31.159,Boat,2022.1.1,59.832266229277344,
neutral,positive,1,k,k,,,,,,,,,10,12,192,4,,,,,,,,,,,,,,,,,,,,,,,,main,2,2,1,positive,neutral,k,k,1,0.8008245999808423,524.466538299981,525.4808129000012,525.4422935000039,None,524.466538299981,None,524.466538299981,None,524.466538299981,None,526.2539183499757,None,526.2539183499757,None,526.2539183499757,None,,,,,,,,,,,109,24,Female,2022-05-02_15h30.31.159,Boat,2022.1.1,59.832266229277344,
neutral,positive,2,k,k,,,,,,,,,10,13,193,13,,,,,,,,,,,,,,,,,,,,,,,,main,1,1,2,positive,neutral,k,k,1,0.6623722999938764,526.2707293999847,527.2884866999811,527.2473293999792,None,526.2707293999847,None,526.2707293999847,None,526.2707293999847,None,527.9174569500028,None,527.9174569500028,None,527.9174569500028,None,,,,,,,,,,,109,24,Female,2022-05-02_15h30.31.159,Boat,2022.1.1,59.832266229277344,
negative,negative,1,j,l,,,,,,,,,10,14,194,0,,,,,,,,,,,,,,,,,,,,,,,,main,1,1,1,negative,negative,l,l,1,0.8273988000000827,527.9337391000008,528.9488831000053,528.9143336999696,None,527.9337391000008,None,527.9337391000008,None,527.9337391000008,None,529.7473394499975,None,529.7473394499975,None,529.7473394499975,None,,,,,,,,,,,109,24,Female,2022-05-02_15h30.31.159,Boat,2022.1.1,59.832266229277344,
positive,negative,1,l,j,,,,,,,,,10,15,195,5,,,,,,,,,,,,,,,,,,,,,,,,main,2,2,1,negative,positive,j,j,1,0.6839821999892592,529.7684449999942,530.7808622000157,530.7424651999609,None,529.7684449999942,None,529.7684449999942,None,529.7684449999942,None,531.4343007499701,None,531.4343007499701,None,531.4343007499701,None,,,,,,,,,,,109,24,Female,2022-05-02_15h30.31.159,Boat,2022.1.1,59.832266229277344,
negative,neutral,1,j,l,,,,,,,,,10,16,196,3,,,,,,,,,,,,,,,,,,,,,,,,main,2,2,1,neutral,negative,l,l,1,0.6988108999794349,531.4533215999836,532.4657311000046,532.4311651999597,None,531.4533215999836,None,531.4533215999836,None,531.4533215999836,None,533.1358535499894,None,533.1358535499894,None,533.1358535499894,None,,,,,,,,,,,109,24,Female,2022-05-02_15h30.31.159,Boat,2022.1.1,59.832266229277344,
positive,neutral,2,l,j,,,,,,,,,10,17,197,17,,,,,,,,,,,,,,,,,,,,,,,,main,2,2,2,neutral,positive,j,j,1,0.7616363000124693,533.1517313999939,534.1586853999761,534.1388787999749,None,533.1517313999939,None,533.1517313999939,None,533.1517313999939,None,534.895949549973,None,534.895949549973,None,534.895949549973,None,,,,,,,,,,,109,24,Female,2022-05-02_15h30.31.159,Boat,2022.1.1,59.832266229277344,
neutral,neutral,1,k,k,,,,,,,,,11,0,198,1,,,,,,,,,,,,,,,,,,,,,,,,main,1,1,1,neutral,neutral,k,k,1,0.7322457999689505,534.9254488999723,535.9307863999857,535.897616799979,None,534.9254488999723,None,534.9254488999723,None,534.9254488999723,None,536.635604250012,None,536.635604250012,None,536.635604250012,None,,,,,,,,,,,109,24,Female,2022-05-02_15h30.31.159,Boat,2022.1.1,59.832266229277344,
positive,neutral,1,l,j,,,,,,,,,11,1,199,8,,,,,,,,,,,,,,,,,,,,,,,,main,2,2,1,neutral,positive,j,j,1,0.7805398000054993,536.651247199974,537.6587254999904,537.6375939999707,None,536.651247199974,None,536.651247199974,None,536.651247199974,None,538.4163121499587,None,538.4163121499587,None,538.4163121499587,None,,,,,,,,,,,109,24,Female,2022-05-02_15h30.31.159,Boat,2022.1.1,59.832266229277344,
neutral,negative,2,k,k,,,,,,,,,11,2,200,16,,,,,,,,,,,,,,,,,,,,,,,,main,1,1,2,negative,neutral,k,k,1,0.70464670000365,538.4372941000038,539.4532954999595,539.4169906000025,None,538.4372941000038,None,538.4372941000038,None,538.4372941000038,None,540.126111349964,None,540.126111349964,None,540.126111349964,None,,,,,,,,,,,109,24,Female,2022-05-02_15h30.31.159,Boat,2022.1.1,59.832266229277344,
negative,positive,1,j,l,,,,,,,,,11,3,201,6,,,,,,,,,,,,,,,,,,,,,,,,main,2,2,1,positive,negative,l,l,1,0.6852239999570884,540.1453256999957,541.1647431000019,541.1256961000036,None,540.1453256999957,None,540.1453256999957,None,540.1453256999957,None,541.8143398499815,None,541.8143398499815,None,541.8143398499815,None,,,,,,,,,,,109,24,Female,2022-05-02_15h30.31.159,Boat,2022.1.1,59.832266229277344,
negative,neutral,1,j,l,,,,,,,,,11,4,202,3,,,,,,,,,,,,,,,,,,,,,,,,main,1,1,1,neutral,negative,l,l,1,0.7571441999753006,541.8315756999655,542.8593229000107,542.8125391000067,None,541.8315756999655,None,541.8315756999655,None,541.8315756999655,None,543.5758800499607,None,543.5758800499607,None,543.5758800499607,None,,,,,,,,,,,109,24,Female,2022-05-02_15h30.31.159,Boat,2022.1.1,59.832266229277344,
neutral,positive,1,k,k,,,,,,,,,11,5,203,4,,,,,,,,,,,,,,,,,,,,,,,,main,1,1,1,positive,neutral,k,k,1,0.7816012999974191,543.5938003999763,544.6096346999984,544.5649617000017,None,543.5938003999763,None,543.5938003999763,None,543.5938003999763,None,545.3589887499693,None,545.3589887499693,None,545.3589887499693,None,,,,,,,,,,,109,24,Female,2022-05-02_15h30.31.159,Boat,2022.1.1,59.832266229277344,
negative,negative,2,j,l,,,,,,,,,11,6,204,9,,,,,,,,,,,,,,,,,,,,,,,,main,2,2,2,negative,negative,l,l,1,0.7831530999974348,545.3758451999747,546.3802674000035,546.3588984999806,None,545.3758451999747,None,545.3758451999747,None,545.3758451999747,None,547.1392526499694,None,547.1392526499694,None,547.1392526499694,None,,,,,,,,,,,109,24,Female,2022-05-02_15h30.31.159,Boat,2022.1.1,59.832266229277344,
positive,positive,2,l,j,,,,,,,,,11,7,205,11,,,,,,,,,,,,,,,,,,,,,,,,main,2,2,2,positive,positive,j,j,1,0.6481175000080839,547.1680765000056,548.1756831000093,548.1549710999825,None,547.1680765000056,None,547.1680765000056,None,547.1680765000056,None,548.7965166500071,None,548.7965166500071,None,548.7965166500071,None,,,,,,,,,,,109,24,Female,2022-05-02_15h30.31.159,Boat,2022.1.1,59.832266229277344,
negative,negative,1,j,l,,,,,,,,,11,8,206,0,,,,,,,,,,,,,,,,,,,,,,,,main,2,2,1,negative,negative,l,l,1,0.7189171999925748,548.815313500003,549.82598959998,549.8044534999644,None,548.815313500003,None,548.815313500003,None,548.815313500003,None,550.5181119499612,None,550.5181119499612,None,550.5181119499612,None,,,,,,,,,,,109,24,Female,2022-05-02_15h30.31.159,Boat,2022.1.1,59.832266229277344,
positive,neutral,2,l,j,,,,,,,,,11,9,207,17,,,,,,,,,,,,,,,,,,,,,,,,main,2,2,2,neutral,positive,j,j,1,0.7034303999971598,550.5360767999664,551.5489327000105,551.5146422999678,None,550.5360767999664,None,550.5360767999664,None,550.5360767999664,None,552.2259613499627,None,552.2259613499627,None,552.2259613499627,None,,,,,,,,,,,109,24,Female,2022-05-02_15h30.31.159,Boat,2022.1.1,59.832266229277344,
