target,distractor,set,ans1,ans2,rep_loop2.thisRepN,rep_loop2.thisTrialN,rep_loop2.thisN,rep_loop2.thisIndex,flanker_prac_loop.thisRepN,flanker_prac_loop.thisTrialN,flanker_prac_loop.thisN,flanker_prac_loop.thisIndex,flanker_main_loop.thisRepN,flanker_main_loop.thisTrialN,flanker_main_loop.thisN,flanker_main_loop.thisIndex,fl_inst_resp.keys,mouse.x,mouse.y,mouse.leftButton,mouse.midButton,mouse.rightButton,mouse.started,mouse.stopped,sound_1.started,sound_1.stopped,no_text.started,no_text.stopped,yes_text.started,yes_text.stopped,mouse_2.x,mouse_2.y,mouse_2.leftButton,mouse_2.midButton,mouse_2.rightButton,mouse_2.started,mouse_2.stopped,back_2.started,back_2.stopped,main_prac,fl_cold,fl_colt,fl_set,fl_dcond,fl_tcond,fl_ans,fl_res,fl_corr,fl_rt,fix_fl.started,fix_fl.stopped,targ.started,targ.stopped,j_button.started,j_button.stopped,k_button.started,k_button.stopped,l_button.started,l_button.stopped,j_button2.started,j_button2.stopped,k_button2.started,k_button2.stopped,l_button2.started,l_button2.stopped,mainback.started,mainback.stopped,key_resp.keys,mouse_6.x,mouse_6.y,mouse_6.leftButton,mouse_6.midButton,mouse_6.rightButton,mouse_6.started,mouse_6.stopped,id*,age*,gender*,date,expName,psychopyVersion,frameRate,
,,,,,0,0,0,0,,,,,,,,,None,0.13425925,-0.42777777,0,0,0,1.027691049646819,None,26.88165615001053,None,77.75180310000724,None,77.75180310000724,None,-0.09537037,-0.0712963,0,0,0,0.013378550007473677,None,,,,,,,,,,,,,,,,,,,,,,,,,,,,,,,,,,,,,,,110,21,Female,2022-05-03_16h56.04.915,Boat,2022.1.1,60.179189554880686,
positive,neutral,1,l,j,,,,,0,0,0,8,,,,,,,,,,,,,,,,,,,,,,,,,,82.14954260000377,None,prac,1,1,1,neutral,positive,l,l,1,4.141908299992792,84.19024779999745,85.20538450000458,85.17094399999769,None,84.19024779999745,None,84.19024779999745,None,84.19024779999745,None,89.3241635000013,None,89.3241635000013,None,89.3241635000013,None,,,,,,,,,,,110,21,Female,2022-05-03_16h56.04.915,Boat,2022.1.1,60.179189554880686,
negative,positive,2,j,l,,,,,0,1,1,15,,,,,,,,,,,,,,,,,,,,,,,,,,,,prac,1,1,2,positive,negative,j,j,1,1.3076865000039106,90.35319360000722,91.36656320000475,91.34810840000864,None,90.35319360000722,None,90.35319360000722,None,90.35319360000722,None,92.63524544999818,None,92.63524544999818,None,92.63524544999818,None,,,,,,,,,,,110,21,Female,2022-05-03_16h56.04.915,Boat,2022.1.1,60.179189554880686,
neutral,neutral,2,k,k,,,,,0,2,2,10,,,,,,,,,,,,,,,,,,,,,,,,,,,,prac,1,1,2,neutral,neutral,k,k,1,0.8830508000100963,92.65362430000096,93.6650110000046,93.63836340000853,None,92.65362430000096,None,92.65362430000096,None,92.65362430000096,None,94.5216605499998,None,94.5216605499998,None,94.5216605499998,None,,,,,,,,,,,110,21,Female,2022-05-03_16h56.04.915,Boat,2022.1.1,60.179189554880686,
neutral,positive,2,k,k,,,,,0,3,3,13,,,,,,,,,,,,,,,,,,,,,,,,,,,,prac,1,1,2,positive,neutral,k,k,1,0.7762142999999924,94.53598860000784,95.55332110000018,95.53504440000688,None,94.53598860000784,None,94.53598860000784,None,94.53598860000784,None,96.30086875000852,None,96.30086875000852,None,96.30086875000852,None,,,,,,,,,,,110,21,Female,2022-05-03_16h56.04.915,Boat,2022.1.1,60.179189554880686,
negative,negative,1,j,l,,,,,0,4,4,0,,,,,,,,,,,,,,,,,,,,,,,,,,,,prac,1,1,1,negative,negative,j,j,1,0.9757677000015974,96.31856090000656,97.33310309999797,97.31510880000133,None,96.31856090000656,None,96.31856090000656,None,96.31856090000656,None,98.27711485000036,None,98.27711485000036,None,98.27711485000036,None,,,,,,,,,,,110,21,Female,2022-05-03_16h56.04.915,Boat,2022.1.1,60.179189554880686,
neutral,neutral,1,k,k,,,,,0,5,5,1,,,,,,,,,,,,,,,,,,,,,,,,,,,,prac,1,1,1,neutral,neutral,k,k,1,0.7585169999947539,98.29191179999907,99.303587900009,99.26652790000662,None,98.29191179999907,None,98.29191179999907,None,98.29191179999907,None,100.03953185000573,None,100.03953185000573,None,100.03953185000573,None,,,,,,,,,,,110,21,Female,2022-05-03_16h56.04.915,Boat,2022.1.1,60.179189554880686,
neutral,negative,1,k,k,,,,,0,6,6,7,,,,,,,,,,,,,,,,,,,,,,,,,,,,prac,1,1,1,negative,neutral,k,k,1,0.7519001000036951,100.05501779999759,101.0651302000042,101.03863100000308,None,100.05501779999759,None,100.05501779999759,None,100.05501779999759,None,101.79229414999718,None,101.79229414999718,None,101.79229414999718,None,,,,,,,,,,,110,21,Female,2022-05-03_16h56.04.915,Boat,2022.1.1,60.179189554880686,
positive,positive,2,l,j,,,,,0,7,7,11,,,,,,,,,,,,,,,,,,,,,,,,,,,,prac,1,1,2,positive,positive,l,l,1,0.6835897999990266,101.80790860000707,102.83168509999814,102.78864600000088,None,101.80790860000707,None,101.80790860000707,None,101.80790860000707,None,103.4785854500049,None,103.4785854500049,None,103.4785854500049,None,,,,,,,,,,,110,21,Female,2022-05-03_16h56.04.915,Boat,2022.1.1,60.179189554880686,
positive,negative,2,l,j,,,,,0,8,8,14,,,,,,,,,,,,,,,,,,,,,,,,,,,,prac,1,1,2,negative,positive,l,l,1,0.7671784999984084,103.50157410000975,104.51808380000875,104.49984770000447,None,103.50157410000975,None,103.50157410000975,None,103.50157410000975,None,105.24895375000487,None,105.24895375000487,None,105.24895375000487,None,,,,,,,,,,,110,21,Female,2022-05-03_16h56.04.915,Boat,2022.1.1,60.179189554880686,
negative,negative,2,j,l,,,,,0,9,9,9,,,,,,,,,,,,,,,,,,,,,,,,,,,,prac,2,2,2,negative,negative,j,j,1,0.9231940000026952,105.27260370001022,106.28530020000471,106.26705270000093,None,105.27260370001022,None,105.27260370001022,None,105.27260370001022,None,107.17401944999874,None,107.17401944999874,None,107.17401944999874,None,,,,,,,,,,,110,21,Female,2022-05-03_16h56.04.915,Boat,2022.1.1,60.179189554880686,
negative,neutral,1,j,l,,,,,0,10,10,3,,,,,,,,,,,,,,,,,,,,,,,,,,,,prac,1,1,1,neutral,negative,j,j,1,0.9330836999870371,107.1880538000114,108.20219969999744,108.18397569999797,None,107.1880538000114,None,107.1880538000114,None,107.1880538000114,None,109.1085920500016,None,109.1085920500016,None,109.1085920500016,None,,,,,,,,,,,110,21,Female,2022-05-03_16h56.04.915,Boat,2022.1.1,60.179189554880686,
positive,negative,1,l,j,,,,,0,11,11,5,,,,,,,,,,,,,,,,,,,,,,,,,,,,prac,2,2,1,negative,positive,l,l,1,2.9131731999950716,109.13581500000146,110.1387442999985,110.12134930001048,None,109.13581500000146,None,109.13581500000146,None,109.13581500000146,None,113.02723440001137,None,113.02723440001137,None,113.02723440001137,None,,,,,,,,,,,110,21,Female,2022-05-03_16h56.04.915,Boat,2022.1.1,60.179189554880686,
negative,neutral,2,j,l,,,,,0,12,12,12,,,,,,,,,,,,,,,,,,,,,,,,,,,,prac,2,2,2,neutral,negative,j,j,1,1.017139000003226,114.05003969999962,115.05568050000875,115.02037369999744,None,114.05003969999962,None,114.05003969999962,None,114.05003969999962,None,116.04398915001074,None,116.04398915001074,None,116.04398915001074,None,,,,,,,,,,,110,21,Female,2022-05-03_16h56.04.915,Boat,2022.1.1,60.179189554880686,
neutral,positive,1,k,k,,,,,0,13,13,4,,,,,,,,,,,,,,,,,,,,,,,,,,,,prac,2,2,1,positive,neutral,k,k,1,0.8317659000022104,116.06553940000595,117.08203340000182,117.03868910000892,None,116.06553940000595,None,116.06553940000595,None,116.06553940000595,None,117.87812035000825,None,117.87812035000825,None,117.87812035000825,None,,,,,,,,,,,110,21,Female,2022-05-03_16h56.04.915,Boat,2022.1.1,60.179189554880686,
negative,positive,1,j,l,,,,,0,14,14,6,,,,,,,,,,,,,,,,,,,,,,,,,,,,prac,2,2,1,positive,negative,j,j,1,0.8997629999939818,117.8930587000068,118.9150867999997,118.87210490000143,None,117.8930587000068,None,117.8930587000068,None,117.8930587000068,None,119.78128274999908,None,119.78128274999908,None,119.78128274999908,None,,,,,,,,,,,110,21,Female,2022-05-03_16h56.04.915,Boat,2022.1.1,60.179189554880686,
neutral,negative,2,k,k,,,,,0,15,15,16,,,,,,,,,,,,,,,,,,,,,,,,,,,,prac,1,1,2,negative,neutral,k,k,1,0.8466316999983974,119.79562230000738,120.80327519999992,120.78537569999753,None,119.79562230000738,None,119.79562230000738,None,119.79562230000738,None,121.63033435000106,None,121.63033435000106,None,121.63033435000106,None,,,,,,,,,,,110,21,Female,2022-05-03_16h56.04.915,Boat,2022.1.1,60.179189554880686,
positive,neutral,2,l,j,,,,,0,16,16,17,,,,,,,,,,,,,,,,,,,,,,,,,,,,prac,2,2,2,neutral,positive,l,l,1,0.7120330000034301,121.65641609999875,122.67112280000583,122.63504790001025,None,121.65641609999875,None,121.65641609999875,None,121.65641609999875,None,123.34315165001026,None,123.34315165001026,None,123.34315165001026,None,,,,,,,,,,,110,21,Female,2022-05-03_16h56.04.915,Boat,2022.1.1,60.179189554880686,
positive,positive,1,l,j,,,,,0,17,17,2,,,,,,,,,,,,,,,,,,,,,,,,,,,,prac,1,1,1,positive,positive,l,l,1,0.7022671000013361,123.36696160001156,124.37224810000043,124.35583520001092,None,123.36696160001156,None,123.36696160001156,None,123.36696160001156,None,125.04804925000353,None,125.04804925000353,None,125.04804925000353,None,,,,,,,,,,,110,21,Female,2022-05-03_16h56.04.915,Boat,2022.1.1,60.179189554880686,
negative,neutral,2,j,l,,,,,1,0,18,12,,,,,,,,,,,,,,,,,,,,,,,,,,,,prac,1,1,2,neutral,negative,j,j,1,0.796890000012354,125.06432400000631,126.06810750000295,126.05028010001115,None,125.06432400000631,None,125.06432400000631,None,125.06432400000631,None,126.8480599500006,None,126.8480599500006,None,126.8480599500006,None,,,,,,,,,,,110,21,Female,2022-05-03_16h56.04.915,Boat,2022.1.1,60.179189554880686,
neutral,negative,2,k,k,,,,,1,1,19,16,,,,,,,,,,,,,,,,,,,,,,,,,,,,prac,2,2,2,negative,neutral,k,k,1,0.6638086000020849,126.86406580000767,127.88368030000129,127.83911380000063,None,126.86406580000767,None,126.86406580000767,None,126.86406580000767,None,128.5120200500067,None,128.5120200500067,None,128.5120200500067,None,,,,,,,,,,,110,21,Female,2022-05-03_16h56.04.915,Boat,2022.1.1,60.179189554880686,
negative,positive,1,j,l,,,,,1,2,20,6,,,,,,,,,,,,,,,,,,,,,,,,,,,,prac,1,1,1,positive,negative,j,j,1,0.8631323000008706,128.52811010000005,129.5418878000055,129.50709350001125,None,128.52811010000005,None,128.52811010000005,None,128.52811010000005,None,130.37765084999847,None,130.37765084999847,None,130.37765084999847,None,,,,,,,,,,,110,21,Female,2022-05-03_16h56.04.915,Boat,2022.1.1,60.179189554880686,
neutral,negative,1,k,k,,,,,1,3,21,7,,,,,,,,,,,,,,,,,,,,,,,,,,,,prac,1,1,1,negative,neutral,k,k,1,0.7446437000035075,130.39201429999957,131.40720180000062,131.3902655999991,None,130.39201429999957,None,130.39201429999957,None,130.39201429999957,None,132.12406655000524,None,132.12406655000524,None,132.12406655000524,None,,,,,,,,,,,110,21,Female,2022-05-03_16h56.04.915,Boat,2022.1.1,60.179189554880686,
positive,negative,1,l,j,,,,,1,4,22,5,,,,,,,,,,,,,,,,,,,,,,,,,,,,prac,1,1,1,negative,positive,l,l,1,0.7366090000141412,132.1398795999994,133.14913660001184,133.12237570001162,None,132.1398795999994,None,132.1398795999994,None,132.1398795999994,None,133.86369365000866,None,133.86369365000866,None,133.86369365000866,None,,,,,,,,,,,110,21,Female,2022-05-03_16h56.04.915,Boat,2022.1.1,60.179189554880686,
negative,neutral,1,j,l,,,,,1,5,23,3,,,,,,,,,,,,,,,,,,,,,,,,,,,,prac,2,2,1,neutral,negative,j,j,1,0.7849024000024656,133.88902100000996,134.91557840000314,134.8708423000062,None,133.88902100000996,None,133.88902100000996,None,133.88902100000996,None,135.65124025000551,None,135.65124025000551,None,135.65124025000551,None,,,,,,,,,,,110,21,Female,2022-05-03_16h56.04.915,Boat,2022.1.1,60.179189554880686,
positive,negative,2,l,j,,,,,1,6,24,14,,,,,,,,,,,,,,,,,,,,,,,,,,,,prac,1,1,2,negative,positive,l,l,1,0.9200943000032566,135.665075900004,136.6840530000045,136.66609890000836,None,135.665075900004,None,135.665075900004,None,135.665075900004,None,137.5730775500095,None,137.5730775500095,None,137.5730775500095,None,,,,,,,,,,,110,21,Female,2022-05-03_16h56.04.915,Boat,2022.1.1,60.179189554880686,
neutral,positive,2,k,k,,,,,1,7,25,13,,,,,,,,,,,,,,,,,,,,,,,,,,,,prac,1,1,2,positive,neutral,k,k,1,0.6333742999995593,137.5901359999989,138.60082340000372,138.58282910000707,None,137.5901359999989,None,137.5901359999989,None,137.5901359999989,None,139.20836514999684,None,139.20836514999684,None,139.20836514999684,None,,,,,,,,,,,110,21,Female,2022-05-03_16h56.04.915,Boat,2022.1.1,60.179189554880686,
neutral,neutral,1,k,k,,,,,1,8,26,1,,,,,,,,,,,,,,,,,,,,,,,,,,,,prac,1,1,1,neutral,neutral,k,k,1,0.5761321000027237,139.22436839999864,140.23980039999878,140.2036580999993,None,139.22436839999864,None,139.22436839999864,None,139.22436839999864,None,140.78890865000432,None,140.78890865000432,None,140.78890865000432,None,,,,,,,,,,,110,21,Female,2022-05-03_16h56.04.915,Boat,2022.1.1,60.179189554880686,
neutral,positive,1,k,k,,,,,1,9,27,4,,,,,,,,,,,,,,,,,,,,,,,,,,,,prac,2,2,1,positive,neutral,k,k,1,0.5665114000003086,140.80510270000377,141.80635610000172,141.78848230000585,None,140.80510270000377,None,140.80510270000377,None,140.80510270000377,None,142.35869455001085,None,142.35869455001085,None,142.35869455001085,None,,,,,,,,,,,110,21,Female,2022-05-03_16h56.04.915,Boat,2022.1.1,60.179189554880686,
positive,neutral,1,l,j,,,,,1,10,28,8,,,,,,,,,,,,,,,,,,,,,,,,,,,,prac,2,2,1,neutral,positive,l,l,1,1.0075738000014098,142.37513590000162,143.4010946000053,143.35612490000494,None,142.37513590000162,None,142.37513590000162,None,142.37513590000162,None,144.36994285000839,None,144.36994285000839,None,144.36994285000839,None,,,,,,,,,,,110,21,Female,2022-05-03_16h56.04.915,Boat,2022.1.1,60.179189554880686,
negative,positive,2,j,l,,,,,1,11,29,15,,,,,,,,,,,,,,,,,,,,,,,,,,,,prac,2,2,2,positive,negative,j,j,1,0.7847915000020294,144.392202300005,145.4064856000041,145.3724770000117,None,144.392202300005,None,144.392202300005,None,144.392202300005,None,146.15639724999784,None,146.15639724999784,None,146.15639724999784,None,,,,,,,,,,,110,21,Female,2022-05-03_16h56.04.915,Boat,2022.1.1,60.179189554880686,
negative,negative,1,j,l,,,,,1,12,30,0,,,,,,,,,,,,,,,,,,,,,,,,,,,,prac,1,1,1,negative,negative,j,j,1,0.7027323999936925,146.17121929999848,147.18577650000225,147.1678457000089,None,146.17121929999848,None,146.17121929999848,None,146.17121929999848,None,147.8611818500038,None,147.8611818500038,None,147.8611818500038,None,,,,,,,,,,,110,21,Female,2022-05-03_16h56.04.915,Boat,2022.1.1,60.179189554880686,
negative,negative,2,j,l,,,,,1,13,31,9,,,,,,,,,,,,,,,,,,,,,,,,,,,,prac,1,1,2,negative,negative,j,j,1,0.6341748999984702,147.8749523000006,148.88848550000694,148.869042300008,None,147.8749523000006,None,147.8749523000006,None,147.8749523000006,None,149.49668444999844,None,149.49668444999844,None,149.49668444999844,None,,,,,,,,,,,110,21,Female,2022-05-03_16h56.04.915,Boat,2022.1.1,60.179189554880686,
positive,positive,2,l,j,,,,,1,14,32,11,,,,,,,,,,,,,,,,,,,,,,,,,,,,prac,1,1,2,positive,positive,l,l,1,0.7288131999957841,149.51213160000043,150.53489900000568,150.48992050001107,None,149.51213160000043,None,149.51213160000043,None,149.51213160000043,None,151.22762565000158,None,151.22762565000158,None,151.22762565000158,None,,,,,,,,,,,110,21,Female,2022-05-03_16h56.04.915,Boat,2022.1.1,60.179189554880686,
neutral,neutral,2,k,k,,,,,1,15,33,10,,,,,,,,,,,,,,,,,,,,,,,,,,,,prac,1,1,2,neutral,neutral,k,k,1,0.6917817999928957,151.24266940000234,152.26621110000997,152.22250850001,None,151.24266940000234,None,151.24266940000234,None,151.24266940000234,None,152.92287454999752,None,152.92287454999752,None,152.92287454999752,None,,,,,,,,,,,110,21,Female,2022-05-03_16h56.04.915,Boat,2022.1.1,60.179189554880686,
positive,neutral,2,l,j,,,,,1,16,34,17,,,,,,,,,,,,,,,,,,,,,,,,,,,,prac,2,2,2,neutral,positive,l,l,1,0.6997184999927413,152.93875780000235,153.93995690000884,153.92306280000776,None,152.93875780000235,None,152.93875780000235,None,152.93875780000235,None,154.62544055000473,None,154.62544055000473,None,154.62544055000473,None,,,,,,,,,,,110,21,Female,2022-05-03_16h56.04.915,Boat,2022.1.1,60.179189554880686,
positive,positive,1,l,j,,,,,1,17,35,2,,,,,,,,,,,,,,,,,,,,,,,,,,,,prac,2,2,1,positive,positive,l,l,1,0.685085800010711,154.6407293000084,155.65883460000623,155.6227241000015,None,154.6407293000084,None,154.6407293000084,None,154.6407293000084,None,156.312096150007,None,156.312096150007,None,156.312096150007,None,,,,,,,,,,,110,21,Female,2022-05-03_16h56.04.915,Boat,2022.1.1,60.179189554880686,
,,,,,,,,,,,,,,,,,,,,,,,,,,,,,,,,,,,,,,,,,,,,,,,,,,,,,,,,,,,,,,,,,,156.32033300001058,None,None,,,,,,,,110,21,Female,2022-05-03_16h56.04.915,Boat,2022.1.1,60.179189554880686,
,,,,,,,,,,,,,,,,,,,,,,,,,,,,,,,,,,,,,,,,,,,,,,,,,,,,,,,,,,,,,,,,,,,,,0.05277778,-0.2,1,0,0,0.006321349996142089,None,110,21,Female,2022-05-03_16h56.04.915,Boat,2022.1.1,60.179189554880686,
negative,neutral,2,j,l,,,,,,,,,0,0,0,12,,,,,,,,,,,,,,,,,,,,,,170.61929230000533,None,main,2,2,2,neutral,negative,j,j,1,0.8276767000061227,172.6549134000088,173.65727100000367,173.6398549000005,None,172.6549134000088,None,172.6549134000088,None,172.6549134000088,None,174.4629941499996,None,174.4629941499996,None,174.4629941499996,None,,,,,,,,,,,110,21,Female,2022-05-03_16h56.04.915,Boat,2022.1.1,60.179189554880686,
neutral,neutral,1,k,k,,,,,,,,,0,1,1,1,,,,,,,,,,,,,,,,,,,,,,,,main,2,2,1,neutral,neutral,k,k,1,0.6095930000010412,174.48355270001048,175.4999489000038,175.45678740000585,None,174.48355270001048,None,174.48355270001048,None,174.48355270001048,None,176.07584685001058,None,176.07584685001058,None,176.07584685001058,None,,,,,,,,,,,110,21,Female,2022-05-03_16h56.04.915,Boat,2022.1.1,60.179189554880686,
positive,neutral,1,l,j,,,,,,,,,0,2,2,8,,,,,,,,,,,,,,,,,,,,,,,,main,2,2,1,neutral,positive,l,l,1,0.7322791999904439,176.09254769999825,177.10740240001178,177.07004560000496,None,176.09254769999825,None,176.09254769999825,None,176.09254769999825,None,177.81180295000087,None,177.81180295000087,None,177.81180295000087,None,,,,,,,,,,,110,21,Female,2022-05-03_16h56.04.915,Boat,2022.1.1,60.179189554880686,
neutral,positive,1,k,k,,,,,,,,,0,3,3,4,,,,,,,,,,,,,,,,,,,,,,,,main,2,2,1,positive,neutral,k,k,1,0.6158081000030506,177.82690150001145,178.8378473000048,178.81957120000152,None,177.82690150001145,None,177.82690150001145,None,177.82690150001145,None,179.42934215000133,None,179.42934215000133,None,179.42934215000133,None,,,,,,,,,,,110,21,Female,2022-05-03_16h56.04.915,Boat,2022.1.1,60.179189554880686,
negative,neutral,1,j,l,,,,,,,,,0,4,4,3,,,,,,,,,,,,,,,,,,,,,,,,main,2,2,1,neutral,negative,j,j,1,0.6060668999998597,179.44544710000628,180.45521530001133,180.4192875000008,None,179.44544710000628,None,179.44544710000628,None,179.44544710000628,None,181.04018875000185,None,181.04018875000185,None,181.04018875000185,None,,,,,,,,,,,110,21,Female,2022-05-03_16h56.04.915,Boat,2022.1.1,60.179189554880686,
positive,positive,1,l,j,,,,,,,,,0,5,5,2,,,,,,,,,,,,,,,,,,,,,,,,main,2,2,1,positive,positive,l,l,1,0.6551699999981793,181.05803020000167,182.06948920000286,182.0337670000008,None,181.05803020000167,None,181.05803020000167,None,181.05803020000167,None,182.6973477499967,None,182.6973477499967,None,182.6973477499967,None,,,,,,,,,,,110,21,Female,2022-05-03_16h56.04.915,Boat,2022.1.1,60.179189554880686,
neutral,neutral,2,k,k,,,,,,,,,0,6,6,10,,,,,,,,,,,,,,,,,,,,,,,,main,2,2,2,neutral,neutral,k,k,1,0.5619969999970635,182.71356370000285,183.73382750000746,183.69055470000603,None,182.71356370000285,None,182.71356370000285,None,182.71356370000285,None,184.26204655000475,None,184.26204655000475,None,184.26204655000475,None,,,,,,,,,,,110,21,Female,2022-05-03_16h56.04.915,Boat,2022.1.1,60.179189554880686,
positive,neutral,2,l,j,,,,,,,,,0,7,7,17,,,,,,,,,,,,,,,,,,,,,,,,main,2,2,2,neutral,positive,l,l,1,0.6822506999887992,184.27751610000269,185.2896452999994,185.25352589999966,None,184.27751610000269,None,184.27751610000269,None,184.27751610000269,None,185.94599864999765,None,185.94599864999765,None,185.94599864999765,None,,,,,,,,,,,110,21,Female,2022-05-03_16h56.04.915,Boat,2022.1.1,60.179189554880686,
positive,negative,2,l,j,,,,,,,,,0,8,8,14,,,,,,,,,,,,,,,,,,,,,,,,main,1,1,2,negative,positive,l,l,1,0.7123871000076178,185.96274620000622,186.9734918000031,186.9401210000069,None,185.96274620000622,None,185.96274620000622,None,185.96274620000622,None,187.6615712500032,None,187.6615712500032,None,187.6615712500032,None,,,,,,,,,,,110,21,Female,2022-05-03_16h56.04.915,Boat,2022.1.1,60.179189554880686,
neutral,positive,2,k,k,,,,,,,,,0,9,9,13,,,,,,,,,,,,,,,,,,,,,,,,main,1,1,2,positive,neutral,k,k,1,0.579920599993784,187.67938240000512,188.70206910000707,188.6573200999992,None,187.67938240000512,None,187.67938240000512,None,187.67938240000512,None,189.24382435000445,None,189.24382435000445,None,189.24382435000445,None,,,,,,,,,,,110,21,Female,2022-05-03_16h56.04.915,Boat,2022.1.1,60.179189554880686,
positive,negative,1,l,j,,,,,,,,,0,10,10,5,,,,,,,,,,,,,,,,,,,,,,,,main,1,1,1,negative,positive,l,l,1,0.6603751999937231,189.25909780000802,190.28387730001123,190.24083160000737,None,189.25909780000802,None,189.25909780000802,None,189.25909780000802,None,190.90802065000463,None,190.90802065000463,None,190.90802065000463,None,,,,,,,,,,,110,21,Female,2022-05-03_16h56.04.915,Boat,2022.1.1,60.179189554880686,
negative,negative,1,j,l,,,,,,,,,0,11,11,0,,,,,,,,,,,,,,,,,,,,,,,,main,2,2,1,negative,negative,j,k,0,0.6019355000025826,190.92508200000157,191.93913880000764,191.90312440000707,None,190.92508200000157,None,190.92508200000157,None,190.92508200000157,None,192.5214999000018,None,192.5214999000018,None,192.5214999000018,None,,,,,,,,,,,110,21,Female,2022-05-03_16h56.04.915,Boat,2022.1.1,60.179189554880686,
neutral,negative,2,k,k,,,,,,,,,0,12,12,16,,,,,,,,,,,,,,,,,,,,,,,,main,2,2,2,negative,neutral,k,k,1,0.7504798000009032,193.54243460000725,194.56716390000656,194.5240027000109,None,193.54243460000725,None,193.54243460000725,None,193.54243460000725,None,195.27912935000205,None,195.27912935000205,None,195.27912935000205,None,,,,,,,,,,,110,21,Female,2022-05-03_16h56.04.915,Boat,2022.1.1,60.179189554880686,
positive,positive,2,l,j,,,,,,,,,0,13,13,11,,,,,,,,,,,,,,,,,,,,,,,,main,2,2,2,positive,positive,l,l,1,0.7113503000000492,195.29534660000354,196.3029600000009,196.2854476000066,None,195.29534660000354,None,195.29534660000354,None,195.29534660000354,None,196.99357965000382,None,196.99357965000382,None,196.99357965000382,None,,,,,,,,,,,110,21,Female,2022-05-03_16h56.04.915,Boat,2022.1.1,60.179189554880686,
neutral,negative,1,k,k,,,,,,,,,0,14,14,7,,,,,,,,,,,,,,,,,,,,,,,,main,2,2,1,negative,neutral,k,k,1,0.6831206000060774,197.00930010000593,198.0340823000006,197.9909178000089,None,197.00930010000593,None,197.00930010000593,None,197.00930010000593,None,198.67919985000918,None,198.67919985000918,None,198.67919985000918,None,,,,,,,,,,,110,21,Female,2022-05-03_16h56.04.915,Boat,2022.1.1,60.179189554880686,
negative,positive,2,j,l,,,,,,,,,0,15,15,15,,,,,,,,,,,,,,,,,,,,,,,,main,1,1,2,positive,negative,j,j,1,0.7566598000121303,198.69528100000753,199.70681370000239,199.67074060000596,None,198.69528100000753,None,198.69528100000753,None,198.69528100000753,None,200.44050515000418,None,200.44050515000418,None,200.44050515000418,None,,,,,,,,,,,110,21,Female,2022-05-03_16h56.04.915,Boat,2022.1.1,60.179189554880686,
negative,negative,2,j,l,,,,,,,,,0,16,16,9,,,,,,,,,,,,,,,,,,,,,,,,main,1,1,2,negative,negative,j,j,1,0.6523514000000432,200.45547110000916,201.4745069000055,201.43767939999816,None,200.45547110000916,None,200.45547110000916,None,200.45547110000916,None,202.09508394999722,None,202.09508394999722,None,202.09508394999722,None,,,,,,,,,,,110,21,Female,2022-05-03_16h56.04.915,Boat,2022.1.1,60.179189554880686,
negative,positive,1,j,l,,,,,,,,,0,17,17,6,,,,,,,,,,,,,,,,,,,,,,,,main,2,2,1,positive,negative,j,j,1,0.6159190000034869,202.11062680000032,203.12411319999956,203.08809299999848,None,202.11062680000032,None,202.11062680000032,None,202.11062680000032,None,203.71313904999698,None,203.71313904999698,None,203.71313904999698,None,,,,,,,,,,,110,21,Female,2022-05-03_16h56.04.915,Boat,2022.1.1,60.179189554880686,
negative,neutral,1,j,l,,,,,,,,,1,0,18,3,,,,,,,,,,,,,,,,,,,,,,,,main,2,2,1,neutral,negative,j,j,1,0.6308730000018841,203.72876850000466,204.75208080001175,204.70758750000095,None,203.72876850000466,None,203.72876850000466,None,203.72876850000466,None,205.34641665000237,None,205.34641665000237,None,205.34641665000237,None,,,,,,,,,,,110,21,Female,2022-05-03_16h56.04.915,Boat,2022.1.1,60.179189554880686,
positive,negative,2,l,j,,,,,,,,,1,1,19,14,,,,,,,,,,,,,,,,,,,,,,,,main,1,1,2,negative,positive,l,l,1,0.6740651000000071,205.36086500000965,206.36903010000242,206.35095700000238,None,205.36086500000965,None,205.36086500000965,None,205.36086500000965,None,207.02400455000753,None,207.02400455000753,None,207.02400455000753,None,,,,,,,,,,,110,21,Female,2022-05-03_16h56.04.915,Boat,2022.1.1,60.179189554880686,
positive,neutral,1,l,j,,,,,,,,,1,2,20,8,,,,,,,,,,,,,,,,,,,,,,,,main,2,2,1,neutral,positive,l,l,1,0.7542115999967791,207.04073230001086,208.04089050000766,208.02457200000936,None,207.04073230001086,None,207.04073230001086,None,207.04073230001086,None,208.78029105000024,None,208.78029105000024,None,208.78029105000024,None,,,,,,,,,,,110,21,Female,2022-05-03_16h56.04.915,Boat,2022.1.1,60.179189554880686,
positive,positive,2,l,j,,,,,,,,,1,3,21,11,,,,,,,,,,,,,,,,,,,,,,,,main,1,1,2,positive,positive,l,l,1,0.6234098999993876,208.79617800000415,209.81707620000816,209.7742295000062,None,208.79617800000415,None,208.79617800000415,None,208.79617800000415,None,210.40731745000522,None,210.40731745000522,None,210.40731745000522,None,,,,,,,,,,,110,21,Female,2022-05-03_16h56.04.915,Boat,2022.1.1,60.179189554880686,
negative,neutral,2,j,l,,,,,,,,,1,4,22,12,,,,,,,,,,,,,,,,,,,,,,,,main,2,2,2,neutral,negative,j,j,1,1.1950808000110555,210.42276169999968,211.43418830000155,211.39122660001158,None,210.42276169999968,None,210.42276169999968,None,210.42276169999968,None,212.6059771499975,None,212.6059771499975,None,212.6059771499975,None,,,,,,,,,,,110,21,Female,2022-05-03_16h56.04.915,Boat,2022.1.1,60.179189554880686,
positive,neutral,2,l,j,,,,,,,,,1,5,23,17,,,,,,,,,,,,,,,,,,,,,,,,main,2,2,2,neutral,positive,l,l,1,0.8082011000078637,212.62432080000872,213.6246444999997,213.60697069999878,None,212.62432080000872,None,212.62432080000872,None,212.62432080000872,None,214.416518750001,None,214.416518750001,None,214.416518750001,None,,,,,,,,,,,110,21,Female,2022-05-03_16h56.04.915,Boat,2022.1.1,60.179189554880686,
neutral,positive,1,k,k,,,,,,,,,1,6,24,4,,,,,,,,,,,,,,,,,,,,,,,,main,1,1,1,positive,neutral,k,k,1,0.694742599996971,214.43157430000429,215.44092540000565,215.42273000000569,None,214.43157430000429,None,214.43157430000429,None,214.43157430000429,None,216.11218624999748,None,216.11218624999748,None,216.11218624999748,None,,,,,,,,,,,110,21,Female,2022-05-03_16h56.04.915,Boat,2022.1.1,60.179189554880686,
neutral,neutral,2,k,k,,,,,,,,,1,7,25,10,,,,,,,,,,,,,,,,,,,,,,,,main,1,1,2,neutral,neutral,k,k,1,0.7836075999948662,216.12668900001154,217.1376103000075,217.1199595000071,None,216.12668900001154,None,216.12668900001154,None,216.12668900001154,None,217.89780745000172,None,217.89780745000172,None,217.89780745000172,None,,,,,,,,,,,110,21,Female,2022-05-03_16h56.04.915,Boat,2022.1.1,60.179189554880686,
negative,positive,2,j,l,,,,,,,,,1,8,26,15,,,,,,,,,,,,,,,,,,,,,,,,main,1,1,2,positive,negative,j,j,1,0.7476994000026025,217.91394199999922,218.9243923000031,218.88738620000368,None,217.91394199999922,None,217.91394199999922,None,217.91394199999922,None,219.6478923500079,None,219.6478923500079,None,219.6478923500079,None,,,,,,,,,,,110,21,Female,2022-05-03_16h56.04.915,Boat,2022.1.1,60.179189554880686,
positive,positive,1,l,j,,,,,,,,,1,9,27,2,,,,,,,,,,,,,,,,,,,,,,,,main,1,1,1,positive,positive,l,l,1,0.6941064999991795,219.66425349999918,220.67362430000503,220.6373222000111,None,219.66425349999918,None,219.66425349999918,None,219.66425349999918,None,221.34396495000402,None,221.34396495000402,None,221.34396495000402,None,,,,,,,,,,,110,21,Female,2022-05-03_16h56.04.915,Boat,2022.1.1,60.179189554880686,
negative,negative,1,j,l,,,,,,,,,1,10,28,0,,,,,,,,,,,,,,,,,,,,,,,,main,2,2,1,negative,negative,j,j,1,0.7834418000129517,221.36053119999997,222.3795911000052,222.34125470000436,None,221.36053119999997,None,221.36053119999997,None,221.36053119999997,None,223.130172950009,None,223.130172950009,None,223.130172950009,None,,,,,,,,,,,110,21,Female,2022-05-03_16h56.04.915,Boat,2022.1.1,60.179189554880686,
neutral,negative,1,k,k,,,,,,,,,1,11,29,7,,,,,,,,,,,,,,,,,,,,,,,,main,1,1,1,negative,neutral,k,k,1,0.8477431000064826,223.14640370001143,224.1691162000061,224.1246026000008,None,223.14640370001143,None,223.14640370001143,None,223.14640370001143,None,224.9805630500021,None,224.9805630500021,None,224.9805630500021,None,,,,,,,,,,,110,21,Female,2022-05-03_16h56.04.915,Boat,2022.1.1,60.179189554880686,
neutral,positive,2,k,k,,,,,,,,,1,12,30,13,,,,,,,,,,,,,,,,,,,,,,,,main,2,2,2,positive,neutral,k,k,1,0.6927304000128061,224.99595180001052,226.01792700000806,225.9747483000101,None,224.99595180001052,None,224.99595180001052,None,224.99595180001052,None,226.6761094500078,None,226.6761094500078,None,226.6761094500078,None,,,,,,,,,,,110,21,Female,2022-05-03_16h56.04.915,Boat,2022.1.1,60.179189554880686,
positive,negative,1,l,j,,,,,,,,,1,13,31,5,,,,,,,,,,,,,,,,,,,,,,,,main,1,1,1,negative,positive,l,l,1,0.7154059000022244,226.69150810000428,227.70671690000745,227.67071340000257,None,226.69150810000428,None,226.69150810000428,None,226.69150810000428,None,228.39401505001007,None,228.39401505001007,None,228.39401505001007,None,,,,,,,,,,,110,21,Female,2022-05-03_16h56.04.915,Boat,2022.1.1,60.179189554880686,
neutral,neutral,1,k,k,,,,,,,,,1,14,32,1,,,,,,,,,,,,,,,,,,,,,,,,main,1,1,1,neutral,neutral,k,k,1,0.6936921000014991,228.4090273000038,229.4242654000118,229.38782680001168,None,228.4090273000038,None,228.4090273000038,None,228.4090273000038,None,230.091580050005,None,230.091580050005,None,230.091580050005,None,,,,,,,,,,,110,21,Female,2022-05-03_16h56.04.915,Boat,2022.1.1,60.179189554880686,
negative,negative,2,j,l,,,,,,,,,1,15,33,9,,,,,,,,,,,,,,,,,,,,,,,,main,1,1,2,negative,negative,j,j,1,0.7342913000029512,230.10751700001128,231.12229830000433,231.1048382000008,None,230.10751700001128,None,230.10751700001128,None,230.10751700001128,None,231.82738855000645,None,231.82738855000645,None,231.82738855000645,None,,,,,,,,,,,110,21,Female,2022-05-03_16h56.04.915,Boat,2022.1.1,60.179189554880686,
negative,positive,1,j,l,,,,,,,,,1,16,34,6,,,,,,,,,,,,,,,,,,,,,,,,main,2,2,1,positive,negative,j,j,1,0.7646406999992905,231.8428855000093,232.8578675000026,232.8245265000005,None,231.8428855000093,None,231.8428855000093,None,231.8428855000093,None,233.59429235000863,None,233.59429235000863,None,233.59429235000863,None,,,,,,,,,,,110,21,Female,2022-05-03_16h56.04.915,Boat,2022.1.1,60.179189554880686,
neutral,negative,2,k,k,,,,,,,,,1,17,35,16,,,,,,,,,,,,,,,,,,,,,,,,main,2,2,2,negative,neutral,k,k,1,0.70130890001019,233.60963170000468,234.63466830000107,234.5913784000004,None,233.60963170000468,None,233.60963170000468,None,233.60963170000468,None,235.29792665000133,None,235.29792665000133,None,235.29792665000133,None,,,,,,,,,,,110,21,Female,2022-05-03_16h56.04.915,Boat,2022.1.1,60.179189554880686,
neutral,positive,2,k,k,,,,,,,,,2,0,36,13,,,,,,,,,,,,,,,,,,,,,,,,main,1,1,2,positive,neutral,k,k,1,0.5794303000002401,235.3142993000074,236.3281857000111,236.29159010000876,None,235.3142993000074,None,235.3142993000074,None,235.3142993000074,None,236.87965805000277,None,236.87965805000277,None,236.87965805000277,None,,,,,,,,,,,110,21,Female,2022-05-03_16h56.04.915,Boat,2022.1.1,60.179189554880686,
negative,positive,1,j,l,,,,,,,,,2,1,37,6,,,,,,,,,,,,,,,,,,,,,,,,main,2,2,1,positive,negative,j,j,1,0.7120251999876928,236.89608400000725,237.90963639999973,237.87525090000418,None,236.89608400000725,None,236.89608400000725,None,236.89608400000725,None,238.59487305000658,None,238.59487305000658,None,238.59487305000658,None,,,,,,,,,,,110,21,Female,2022-05-03_16h56.04.915,Boat,2022.1.1,60.179189554880686,
positive,negative,2,l,j,,,,,,,,,2,2,38,14,,,,,,,,,,,,,,,,,,,,,,,,main,1,1,2,negative,positive,l,l,1,0.7155957999930251,238.61023030000797,239.63669630000368,239.59125140000833,None,238.61023030000797,None,238.61023030000797,None,238.61023030000797,None,240.3128170500102,None,240.3128170500102,None,240.3128170500102,None,,,,,,,,,,,110,21,Female,2022-05-03_16h56.04.915,Boat,2022.1.1,60.179189554880686,
negative,negative,2,j,l,,,,,,,,,2,3,39,9,,,,,,,,,,,,,,,,,,,,,,,,main,2,2,2,negative,negative,j,j,1,0.7499409000010928,240.32847360000596,241.34299220000685,241.30856340000173,None,240.32847360000596,None,240.32847360000596,None,240.32847360000596,None,242.06545215000807,None,242.06545215000807,None,242.06545215000807,None,,,,,,,,,,,110,21,Female,2022-05-03_16h56.04.915,Boat,2022.1.1,60.179189554880686,
positive,positive,2,l,j,,,,,,,,,2,4,40,11,,,,,,,,,,,,,,,,,,,,,,,,main,2,2,2,positive,positive,l,l,1,0.7227928000065731,242.0815408000053,243.09291360000498,243.0580353999976,None,242.0815408000053,None,242.0815408000053,None,242.0815408000053,None,243.79173444999907,None,243.79173444999907,None,243.79173444999907,None,,,,,,,,,,,110,21,Female,2022-05-03_16h56.04.915,Boat,2022.1.1,60.179189554880686,
negative,neutral,1,j,l,,,,,,,,,2,5,41,3,,,,,,,,,,,,,,,,,,,,,,,,main,2,2,1,neutral,negative,j,j,1,0.6962379000033252,243.8068801000045,244.8250742000091,244.78889080000226,None,243.8068801000045,None,243.8068801000045,None,243.8068801000045,None,245.49199225000922,None,245.49199225000922,None,245.49199225000922,None,,,,,,,,,,,110,21,Female,2022-05-03_16h56.04.915,Boat,2022.1.1,60.179189554880686,
negative,neutral,2,j,l,,,,,,,,,2,6,42,12,,,,,,,,,,,,,,,,,,,,,,,,main,1,1,2,neutral,negative,j,j,1,0.7542986999906134,245.50757739999972,246.50843180000084,246.49162240000442,None,245.50757739999972,None,245.50757739999972,None,245.50757739999972,None,247.24765185000143,None,247.24765185000143,None,247.24765185000143,None,,,,,,,,,,,110,21,Female,2022-05-03_16h56.04.915,Boat,2022.1.1,60.179189554880686,
positive,neutral,2,l,j,,,,,,,,,2,7,43,17,,,,,,,,,,,,,,,,,,,,,,,,main,2,2,2,neutral,positive,l,l,1,0.72990910000226,247.2636543000117,248.28681550000329,248.24195200001122,None,247.2636543000117,None,247.2636543000117,None,247.2636543000117,None,248.97926135000017,None,248.97926135000017,None,248.97926135000017,None,,,,,,,,,,,110,21,Female,2022-05-03_16h56.04.915,Boat,2022.1.1,60.179189554880686,
neutral,positive,1,k,k,,,,,,,,,2,8,44,4,,,,,,,,,,,,,,,,,,,,,,,,main,2,2,1,positive,neutral,k,k,1,0.6245673000084935,248.9972368000017,250.01848769999924,249.97562510000716,None,248.9972368000017,None,248.9972368000017,None,248.9972368000017,None,250.60831585000852,None,250.60831585000852,None,250.60831585000852,None,,,,,,,,,,,110,21,Female,2022-05-03_16h56.04.915,Boat,2022.1.1,60.179189554880686,
neutral,negative,2,k,k,,,,,,,,,2,9,45,16,,,,,,,,,,,,,,,,,,,,,,,,main,2,2,2,negative,neutral,k,k,1,0.5269428000028711,250.6251792000112,251.6258821000083,251.60833970000385,None,250.6251792000112,None,250.6251792000112,None,250.6251792000112,None,252.13701985000517,None,252.13701985000517,None,252.13701985000517,None,,,,,,,,,,,110,21,Female,2022-05-03_16h56.04.915,Boat,2022.1.1,60.179189554880686,
negative,positive,2,j,l,,,,,,,,,2,10,46,15,,,,,,,,,,,,,,,,,,,,,,,,main,2,2,2,positive,negative,j,j,1,0.7324143999867374,252.1579647000035,253.17504480000935,253.13983949999965,None,252.1579647000035,None,252.1579647000035,None,252.1579647000035,None,253.8716368499998,None,253.8716368499998,None,253.8716368499998,None,,,,,,,,,,,110,21,Female,2022-05-03_16h56.04.915,Boat,2022.1.1,60.179189554880686,
positive,negative,1,l,j,,,,,,,,,2,11,47,5,,,,,,,,,,,,,,,,,,,,,,,,main,2,2,1,negative,positive,l,l,1,0.7206452999962494,253.89513920000172,254.9182492000109,254.87518430000637,None,253.89513920000172,None,253.89513920000172,None,253.89513920000172,None,255.59743315000088,None,255.59743315000088,None,255.59743315000088,None,,,,,,,,,,,110,21,Female,2022-05-03_16h56.04.915,Boat,2022.1.1,60.179189554880686,
neutral,neutral,1,k,k,,,,,,,,,2,12,48,1,,,,,,,,,,,,,,,,,,,,,,,,main,1,1,1,neutral,neutral,k,k,1,0.6621916000003694,255.61284040000464,256.6246029000031,256.58800860001065,None,255.61284040000464,None,255.61284040000464,None,255.61284040000464,None,257.2623975499999,None,257.2623975499999,None,257.2623975499999,None,,,,,,,,,,,110,21,Female,2022-05-03_16h56.04.915,Boat,2022.1.1,60.179189554880686,
neutral,neutral,2,k,k,,,,,,,,,2,13,49,10,,,,,,,,,,,,,,,,,,,,,,,,main,2,2,2,neutral,neutral,k,k,1,0.5594519000005675,257.2777064000111,258.3015702999983,258.2589682000107,None,257.2777064000111,None,257.2777064000111,None,257.2777064000111,None,258.82500555000735,None,258.82500555000735,None,258.82500555000735,None,,,,,,,,,,,110,21,Female,2022-05-03_16h56.04.915,Boat,2022.1.1,60.179189554880686,
negative,negative,1,j,l,,,,,,,,,2,14,50,0,,,,,,,,,,,,,,,,,,,,,,,,main,2,2,1,negative,negative,j,j,1,0.6639550000109011,258.8419295000058,259.8421219000011,259.8255416000029,None,258.8419295000058,None,258.8419295000058,None,258.8419295000058,None,260.4925293500099,None,260.4925293500099,None,260.4925293500099,None,,,,,,,,,,,110,21,Female,2022-05-03_16h56.04.915,Boat,2022.1.1,60.179189554880686,
positive,positive,1,l,j,,,,,,,,,2,15,51,2,,,,,,,,,,,,,,,,,,,,,,,,main,1,1,1,positive,positive,l,l,1,0.7869408999977168,260.50776659999974,261.50874900000053,261.49197560000175,None,260.50776659999974,None,260.50776659999974,None,260.50776659999974,None,262.2814453500003,None,262.2814453500003,None,262.2814453500003,None,,,,,,,,,,,110,21,Female,2022-05-03_16h56.04.915,Boat,2022.1.1,60.179189554880686,
neutral,negative,1,k,k,,,,,,,,,2,16,52,7,,,,,,,,,,,,,,,,,,,,,,,,main,2,2,1,negative,neutral,k,k,1,0.830355199999758,262.2962853000063,263.32030649999797,263.2754105000058,None,262.2962853000063,None,262.2962853000063,None,262.2962853000063,None,264.11391755001097,None,264.11391755001097,None,264.11391755001097,None,,,,,,,,,,,110,21,Female,2022-05-03_16h56.04.915,Boat,2022.1.1,60.179189554880686,
positive,neutral,1,l,j,,,,,,,,,2,17,53,8,,,,,,,,,,,,,,,,,,,,,,,,main,1,1,1,neutral,positive,l,l,1,0.6599618000036571,264.1303340000013,265.1393620000017,265.10428390000015,None,264.1303340000013,None,264.1303340000013,None,264.1303340000013,None,265.77764825000196,None,265.77764825000196,None,265.77764825000196,None,,,,,,,,,,,110,21,Female,2022-05-03_16h56.04.915,Boat,2022.1.1,60.179189554880686,
neutral,positive,2,k,k,,,,,,,,,3,0,54,13,,,,,,,,,,,,,,,,,,,,,,,,main,1,1,2,positive,neutral,k,k,1,0.6822149999934481,265.7930119000084,266.79244520000066,266.77573340000527,None,265.7930119000084,None,265.7930119000084,None,265.7930119000084,None,267.4618930499972,None,267.4618930499972,None,267.4618930499972,None,,,,,,,,,,,110,21,Female,2022-05-03_16h56.04.915,Boat,2022.1.1,60.179189554880686,
neutral,negative,1,k,k,,,,,,,,,3,1,55,7,,,,,,,,,,,,,,,,,,,,,,,,main,2,2,1,negative,neutral,k,k,1,0.6130709999997634,267.4771913000004,268.4856815000094,268.4595619000029,None,267.4771913000004,None,267.4771913000004,None,267.4771913000004,None,269.07752755000257,None,269.07752755000257,None,269.07752755000257,None,,,,,,,,,,,110,21,Female,2022-05-03_16h56.04.915,Boat,2022.1.1,60.179189554880686,
neutral,neutral,2,k,k,,,,,,,,,3,2,56,10,,,,,,,,,,,,,,,,,,,,,,,,main,1,1,2,neutral,neutral,k,k,1,0.6627129999978933,269.09283239999786,270.0941243999987,270.0756667000096,None,269.09283239999786,None,269.09283239999786,None,269.09283239999786,None,270.74328905000294,None,270.74328905000294,None,270.74328905000294,None,,,,,,,,,,,110,21,Female,2022-05-03_16h56.04.915,Boat,2022.1.1,60.179189554880686,
neutral,neutral,1,k,k,,,,,,,,,3,3,57,1,,,,,,,,,,,,,,,,,,,,,,,,main,2,2,1,neutral,neutral,k,k,1,0.6042511999985436,270.75877060000494,271.770821099999,271.73511940000753,None,270.75877060000494,None,270.75877060000494,None,270.75877060000494,None,272.35121645001055,None,272.35121645001055,None,272.35121645001055,None,,,,,,,,,,,110,21,Female,2022-05-03_16h56.04.915,Boat,2022.1.1,60.179189554880686,
positive,negative,1,l,j,,,,,,,,,3,4,58,5,,,,,,,,,,,,,,,,,,,,,,,,main,2,2,1,negative,positive,l,l,1,0.7254504000011366,272.36662500000966,273.38700529999915,273.36865980000584,None,272.36662500000966,None,272.36662500000966,None,272.36662500000966,None,274.07785695000786,None,274.07785695000786,None,274.07785695000786,None,,,,,,,,,,,110,21,Female,2022-05-03_16h56.04.915,Boat,2022.1.1,60.179189554880686,
neutral,positive,1,k,k,,,,,,,,,3,5,59,4,,,,,,,,,,,,,,,,,,,,,,,,main,2,2,1,positive,neutral,k,k,1,0.7336363999929745,274.09351170000446,275.1091620000079,275.07484580000164,None,274.09351170000446,None,274.09351170000446,None,274.09351170000446,None,275.8132304500003,None,275.8132304500003,None,275.8132304500003,None,,,,,,,,,,,110,21,Female,2022-05-03_16h56.04.915,Boat,2022.1.1,60.179189554880686,
neutral,negative,2,k,k,,,,,,,,,3,6,60,16,,,,,,,,,,,,,,,,,,,,,,,,main,2,2,2,negative,neutral,k,k,1,0.7028678000060609,275.8302696000028,276.84264810000604,276.80649670001003,None,275.8302696000028,None,275.8302696000028,None,275.8302696000028,None,277.52022065000784,None,277.52022065000784,None,277.52022065000784,None,,,,,,,,,,,110,21,Female,2022-05-03_16h56.04.915,Boat,2022.1.1,60.179189554880686,
negative,negative,1,j,l,,,,,,,,,3,7,61,0,,,,,,,,,,,,,,,,,,,,,,,,main,2,2,1,negative,negative,j,j,1,0.6662959000095725,277.53569610000704,278.5525207000028,278.5083147000114,None,277.53569610000704,None,277.53569610000704,None,277.53569610000704,None,279.1890242500056,None,279.1890242500056,None,279.1890242500056,None,,,,,,,,,,,110,21,Female,2022-05-03_16h56.04.915,Boat,2022.1.1,60.179189554880686,
positive,negative,2,l,j,,,,,,,,,3,8,62,14,,,,,,,,,,,,,,,,,,,,,,,,main,1,1,2,negative,positive,l,l,1,0.689335699993535,279.20481710000604,280.2068767000019,280.18899070000043,None,279.20481710000604,None,279.20481710000604,None,279.20481710000604,None,280.8793899499986,None,280.8793899499986,None,280.8793899499986,None,,,,,,,,,,,110,21,Female,2022-05-03_16h56.04.915,Boat,2022.1.1,60.179189554880686,
negative,positive,2,j,l,,,,,,,,,3,9,63,15,,,,,,,,,,,,,,,,,,,,,,,,main,2,2,2,positive,negative,j,j,1,0.7614692000061041,280.89540910000505,281.90915490000043,281.8730235000112,None,280.89540910000505,None,280.89540910000505,None,280.89540910000505,None,282.6426646500011,None,282.6426646500011,None,282.6426646500011,None,,,,,,,,,,,110,21,Female,2022-05-03_16h56.04.915,Boat,2022.1.1,60.179189554880686,
positive,neutral,1,l,j,,,,,,,,,3,10,64,8,,,,,,,,,,,,,,,,,,,,,,,,main,2,2,1,neutral,positive,l,l,1,0.8192061000008835,282.65975150000304,283.66909280000255,283.6425184000109,None,282.65975150000304,None,282.65975150000304,None,282.65975150000304,None,284.46466485000275,None,284.46466485000275,None,284.46466485000275,None,,,,,,,,,,,110,21,Female,2022-05-03_16h56.04.915,Boat,2022.1.1,60.179189554880686,
negative,neutral,2,j,l,,,,,,,,,3,11,65,12,,,,,,,,,,,,,,,,,,,,,,,,main,1,1,2,neutral,negative,j,j,1,0.7539931000064826,284.4797252999997,285.502287299998,285.45912120000867,None,284.4797252999997,None,284.4797252999997,None,284.4797252999997,None,286.22263515001106,None,286.22263515001106,None,286.22263515001106,None,,,,,,,,,,,110,21,Female,2022-05-03_16h56.04.915,Boat,2022.1.1,60.179189554880686,
negative,positive,1,j,l,,,,,,,,,3,12,66,6,,,,,,,,,,,,,,,,,,,,,,,,main,1,1,1,positive,negative,j,j,1,0.7839352999872062,286.2407058000099,287.2553018000035,287.21886800001084,None,286.2407058000099,None,286.2407058000099,None,286.2407058000099,None,288.00921095000814,None,288.00921095000814,None,288.00921095000814,None,,,,,,,,,,,110,21,Female,2022-05-03_16h56.04.915,Boat,2022.1.1,60.179189554880686,
negative,negative,2,j,l,,,,,,,,,3,13,67,9,,,,,,,,,,,,,,,,,,,,,,,,main,1,1,2,negative,negative,j,j,1,0.6222998000012012,288.02382610000495,289.0356051999988,289.00911189999897,None,288.02382610000495,None,288.02382610000495,None,288.02382610000495,None,289.6318582500069,None,289.6318582500069,None,289.6318582500069,None,,,,,,,,,,,110,21,Female,2022-05-03_16h56.04.915,Boat,2022.1.1,60.179189554880686,
positive,positive,2,l,j,,,,,,,,,3,14,68,11,,,,,,,,,,,,,,,,,,,,,,,,main,1,1,2,positive,positive,l,l,1,0.6947210999933304,289.64803409999877,290.66935920000833,290.62623410001106,None,289.64803409999877,None,289.64803409999877,None,289.64803409999877,None,291.32984955000285,None,291.32984955000285,None,291.32984955000285,None,,,,,,,,,,,110,21,Female,2022-05-03_16h56.04.915,Boat,2022.1.1,60.179189554880686,
negative,neutral,1,j,l,,,,,,,,,3,15,69,3,,,,,,,,,,,,,,,,,,,,,,,,main,2,2,1,neutral,negative,j,j,1,0.7004114000010304,291.3459081000037,292.3690438000049,292.3263502000045,None,291.3459081000037,None,291.3459081000037,None,291.3459081000037,None,293.0329497500032,None,293.0329497500032,None,293.0329497500032,None,,,,,,,,,,,110,21,Female,2022-05-03_16h56.04.915,Boat,2022.1.1,60.179189554880686,
positive,neutral,2,l,j,,,,,,,,,3,16,70,17,,,,,,,,,,,,,,,,,,,,,,,,main,2,2,2,neutral,positive,l,l,1,0.6883734000002733,293.0480893000058,294.0589125999977,294.02235840000503,None,293.0480893000058,None,293.0480893000058,None,293.0480893000058,None,294.724758350011,None,294.724758350011,None,294.724758350011,None,,,,,,,,,,,110,21,Female,2022-05-03_16h56.04.915,Boat,2022.1.1,60.179189554880686,
positive,positive,1,l,j,,,,,,,,,3,17,71,2,,,,,,,,,,,,,,,,,,,,,,,,main,2,2,1,positive,positive,l,l,1,0.8521792999963509,294.7428332999989,295.74293990001024,295.7259894000017,None,294.7428332999989,None,294.7428332999989,None,294.7428332999989,None,296.580237650004,None,296.580237650004,None,296.580237650004,None,,,,,,,,,,,110,21,Female,2022-05-03_16h56.04.915,Boat,2022.1.1,60.179189554880686,
positive,positive,2,l,j,,,,,,,,,4,0,72,11,,,,,,,,,,,,,,,,,,,,,,,,main,1,1,2,positive,positive,l,l,1,0.6273497999936808,296.59513700001116,297.6194661000045,297.5763625000109,None,296.59513700001116,None,296.59513700001116,None,296.59513700001116,None,298.21085374999967,None,298.21085374999967,None,298.21085374999967,None,,,,,,,,,,,110,21,Female,2022-05-03_16h56.04.915,Boat,2022.1.1,60.179189554880686,
negative,positive,2,j,l,,,,,,,,,4,1,73,15,,,,,,,,,,,,,,,,,,,,,,,,main,2,2,2,positive,negative,j,j,1,0.7234668000019155,298.2272592000081,299.25271500000963,299.2095158000011,None,298.2272592000081,None,298.2272592000081,None,298.2272592000081,None,299.9375998500007,None,299.9375998500007,None,299.9375998500007,None,,,,,,,,,,,110,21,Female,2022-05-03_16h56.04.915,Boat,2022.1.1,60.179189554880686,
neutral,positive,2,k,k,,,,,,,,,4,2,74,13,,,,,,,,,,,,,,,,,,,,,,,,main,2,2,2,positive,neutral,k,k,1,0.7429052000079537,299.9523335999984,300.9694921000046,300.92644830000063,None,299.9523335999984,None,299.9523335999984,None,299.9523335999984,None,301.6803065500106,None,301.6803065500106,None,301.6803065500106,None,,,,,,,,,,,110,21,Female,2022-05-03_16h56.04.915,Boat,2022.1.1,60.179189554880686,
positive,positive,1,l,j,,,,,,,,,4,3,75,2,,,,,,,,,,,,,,,,,,,,,,,,main,2,2,1,positive,positive,l,l,1,0.7146527000004426,301.6971603999991,302.7213332000101,302.6764222000056,None,301.6971603999991,None,301.6971603999991,None,301.6971603999991,None,303.3979171500076,None,303.3979171500076,None,303.3979171500076,None,,,,,,,,,,,110,21,Female,2022-05-03_16h56.04.915,Boat,2022.1.1,60.179189554880686,
negative,negative,1,j,l,,,,,,,,,4,4,76,0,,,,,,,,,,,,,,,,,,,,,,,,main,1,1,1,negative,negative,j,j,1,0.7926106999948388,303.41516010000487,304.4380385000113,304.39303580000706,None,303.41516010000487,None,303.41516010000487,None,303.41516010000487,None,305.19445844999865,None,305.19445844999865,None,305.19445844999865,None,,,,,,,,,,,110,21,Female,2022-05-03_16h56.04.915,Boat,2022.1.1,60.179189554880686,
negative,positive,1,j,l,,,,,,,,,4,5,77,6,,,,,,,,,,,,,,,,,,,,,,,,main,2,2,1,positive,negative,j,j,1,0.7078359000006458,305.20965740000247,306.21975770000427,306.19310869999754,None,305.20965740000247,None,305.20965740000247,None,305.20965740000247,None,306.90559985000874,None,306.90559985000874,None,306.90559985000874,None,,,,,,,,,,,110,21,Female,2022-05-03_16h56.04.915,Boat,2022.1.1,60.179189554880686,
neutral,negative,2,k,k,,,,,,,,,4,6,78,16,,,,,,,,,,,,,,,,,,,,,,,,main,2,2,2,negative,neutral,k,k,1,0.7112839000037638,306.9247224999999,307.9406311000057,307.9058961999981,None,306.9247224999999,None,306.9247224999999,None,306.9247224999999,None,308.6201567500073,None,308.6201567500073,None,308.6201567500073,None,,,,,,,,,,,110,21,Female,2022-05-03_16h56.04.915,Boat,2022.1.1,60.179189554880686,
negative,neutral,2,j,l,,,,,,,,,4,7,79,12,,,,,,,,,,,,,,,,,,,,,,,,main,2,2,2,neutral,negative,j,j,1,0.7123916999989888,308.6382559000049,309.6549184000032,309.6091660000093,None,308.6382559000049,None,308.6382559000049,None,308.6382559000049,None,310.3335642499995,None,310.3335642499995,None,310.3335642499995,None,,,,,,,,,,,110,21,Female,2022-05-03_16h56.04.915,Boat,2022.1.1,60.179189554880686,
positive,neutral,1,l,j,,,,,,,,,4,8,80,8,,,,,,,,,,,,,,,,,,,,,,,,main,1,1,1,neutral,positive,l,l,1,0.7464972000016132,310.3487152000016,311.35924309999973,311.32355760000064,None,310.3487152000016,None,310.3487152000016,None,310.3487152000016,None,312.0819736500096,None,312.0819736500096,None,312.0819736500096,None,,,,,,,,,,,110,21,Female,2022-05-03_16h56.04.915,Boat,2022.1.1,60.179189554880686,
positive,negative,1,l,j,,,,,,,,,4,9,81,5,,,,,,,,,,,,,,,,,,,,,,,,main,1,1,1,negative,positive,l,l,1,0.6632461999979569,312.0991599000117,313.1212874000048,313.0764136000071,None,312.0991599000117,None,312.0991599000117,None,312.0991599000117,None,313.7479543500056,None,313.7479543500056,None,313.7479543500056,None,,,,,,,,,,,110,21,Female,2022-05-03_16h56.04.915,Boat,2022.1.1,60.179189554880686,
neutral,positive,1,k,k,,,,,,,,,4,10,82,4,,,,,,,,,,,,,,,,,,,,,,,,main,2,2,1,positive,neutral,k,k,1,0.6548941999935778,313.7639426000096,314.7865070000116,314.743321300004,None,313.7639426000096,None,313.7639426000096,None,313.7639426000096,None,315.40686595000153,None,315.40686595000153,None,315.40686595000153,None,,,,,,,,,,,110,21,Female,2022-05-03_16h56.04.915,Boat,2022.1.1,60.179189554880686,
negative,neutral,1,j,l,,,,,,,,,4,11,83,3,,,,,,,,,,,,,,,,,,,,,,,,main,2,2,1,neutral,negative,j,j,1,0.6507497999991756,315.4250031999982,316.43633070000215,316.3933354000037,None,315.4250031999982,None,315.4250031999982,None,315.4250031999982,None,317.05978155000486,None,317.05978155000486,None,317.05978155000486,None,,,,,,,,,,,110,21,Female,2022-05-03_16h56.04.915,Boat,2022.1.1,60.179189554880686,
neutral,neutral,1,k,k,,,,,,,,,4,12,84,1,,,,,,,,,,,,,,,,,,,,,,,,main,2,2,1,neutral,neutral,k,k,1,0.7296916999912355,317.0754816999979,318.0891469000053,318.0713434000063,None,317.0754816999979,None,317.0754816999979,None,317.0754816999979,None,318.7933288500033,None,318.7933288500033,None,318.7933288500033,None,,,,,,,,,,,110,21,Female,2022-05-03_16h56.04.915,Boat,2022.1.1,60.179189554880686,
positive,negative,2,l,j,,,,,,,,,4,13,85,14,,,,,,,,,,,,,,,,,,,,,,,,main,1,1,2,negative,positive,l,l,1,0.7183243000035873,318.8108790000115,319.81002889999945,319.79336560000957,None,318.8108790000115,None,318.8108790000115,None,318.8108790000115,None,320.51299045000343,None,320.51299045000343,None,320.51299045000343,None,,,,,,,,,,,110,21,Female,2022-05-03_16h56.04.915,Boat,2022.1.1,60.179189554880686,
neutral,negative,1,k,k,,,,,,,,,4,14,86,7,,,,,,,,,,,,,,,,,,,,,,,,main,1,1,1,negative,neutral,k,k,1,0.6675021999981254,320.53082580000046,321.55349350000324,321.5106020000094,None,320.53082580000046,None,320.53082580000046,None,320.53082580000046,None,322.186091050008,None,322.186091050008,None,322.186091050008,None,,,,,,,,,,,110,21,Female,2022-05-03_16h56.04.915,Boat,2022.1.1,60.179189554880686,
negative,negative,2,j,l,,,,,,,,,4,15,87,9,,,,,,,,,,,,,,,,,,,,,,,,main,2,2,2,negative,negative,j,j,1,0.7780152000050293,322.20087760000024,323.2196018000104,323.19411850000324,None,322.20087760000024,None,322.20087760000024,None,322.20087760000024,None,323.9649977500056,None,323.9649977500056,None,323.9649977500056,None,,,,,,,,,,,110,21,Female,2022-05-03_16h56.04.915,Boat,2022.1.1,60.179189554880686,
positive,neutral,2,l,j,,,,,,,,,4,16,88,17,,,,,,,,,,,,,,,,,,,,,,,,main,2,2,2,neutral,positive,l,l,1,0.7759436999913305,323.980163900007,324.99024030000146,324.95512870000675,None,323.980163900007,None,323.980163900007,None,323.980163900007,None,325.7441860500083,None,325.7441860500083,None,325.7441860500083,None,,,,,,,,,,,110,21,Female,2022-05-03_16h56.04.915,Boat,2022.1.1,60.179189554880686,
neutral,neutral,2,k,k,,,,,,,,,4,17,89,10,,,,,,,,,,,,,,,,,,,,,,,,main,1,1,2,neutral,neutral,k,k,1,0.6620090000069467,325.75994410000567,326.76070840000466,326.74382040000637,None,325.75994410000567,None,325.75994410000567,None,325.75994410000567,None,327.409986149997,None,327.409986149997,None,327.409986149997,None,,,,,,,,,,,110,21,Female,2022-05-03_16h56.04.915,Boat,2022.1.1,60.179189554880686,
negative,positive,1,j,l,,,,,,,,,5,0,90,6,,,,,,,,,,,,,,,,,,,,,,,,main,1,1,1,positive,negative,j,j,1,0.7689181000023382,327.4251760000043,328.44356210000115,328.4066815000115,None,327.4251760000043,None,327.4251760000043,None,327.4251760000043,None,329.18063715001045,None,329.18063715001045,None,329.18063715001045,None,,,,,,,,,,,110,21,Female,2022-05-03_16h56.04.915,Boat,2022.1.1,60.179189554880686,
neutral,positive,2,k,k,,,,,,,,,5,1,91,13,,,,,,,,,,,,,,,,,,,,,,,,main,2,2,2,positive,neutral,k,k,1,0.6698259999975562,329.197662999999,330.2200379999995,330.1769373999996,None,329.197662999999,None,329.197662999999,None,329.197662999999,None,330.85534055001045,None,330.85534055001045,None,330.85534055001045,None,,,,,,,,,,,110,21,Female,2022-05-03_16h56.04.915,Boat,2022.1.1,60.179189554880686,
negative,negative,2,j,l,,,,,,,,,5,2,92,9,,,,,,,,,,,,,,,,,,,,,,,,main,2,2,2,negative,negative,j,j,1,0.6763540000101784,330.8706422000105,331.8869465000025,331.8439325000072,None,330.8706422000105,None,330.8706422000105,None,330.8706422000105,None,332.5327199499996,None,332.5327199499996,None,332.5327199499996,None,,,,,,,,,,,110,21,Female,2022-05-03_16h56.04.915,Boat,2022.1.1,60.179189554880686,
negative,negative,1,j,l,,,,,,,,,5,3,93,0,,,,,,,,,,,,,,,,,,,,,,,,main,1,1,1,negative,negative,j,j,1,0.8119220000080531,332.54833510000026,333.5604991,333.5252679999976,None,332.54833510000026,None,332.54833510000026,None,332.54833510000026,None,334.3472809500061,None,334.3472809500061,None,334.3472809500061,None,,,,,,,,,,,110,21,Female,2022-05-03_16h56.04.915,Boat,2022.1.1,60.179189554880686,
neutral,negative,1,k,k,,,,,,,,,5,4,94,7,,,,,,,,,,,,,,,,,,,,,,,,main,2,2,1,negative,neutral,k,k,1,0.6428994000016246,334.3640105000086,335.38664060000156,335.3413811000064,None,334.3640105000086,None,334.3640105000086,None,334.3640105000086,None,335.9941477500077,None,335.9941477500077,None,335.9941477500077,None,,,,,,,,,,,110,21,Female,2022-05-03_16h56.04.915,Boat,2022.1.1,60.179189554880686,
positive,negative,2,l,j,,,,,,,,,5,5,95,14,,,,,,,,,,,,,,,,,,,,,,,,main,2,2,2,negative,positive,l,l,1,0.6708330999972532,336.01103890000377,337.01053440000396,336.9938397000078,None,336.01103890000377,None,336.01103890000377,None,336.01103890000377,None,337.6699381500046,None,337.6699381500046,None,337.6699381500046,None,,,,,,,,,,,110,21,Female,2022-05-03_16h56.04.915,Boat,2022.1.1,60.179189554880686,
neutral,neutral,1,k,k,,,,,,,,,5,6,96,1,,,,,,,,,,,,,,,,,,,,,,,,main,1,1,1,neutral,neutral,k,k,1,0.6949747000035131,337.6839226000011,338.70378110000456,338.67849630001,None,337.6839226000011,None,337.6839226000011,None,337.6839226000011,None,339.3658472500072,None,339.3658472500072,None,339.3658472500072,None,,,,,,,,,,,110,21,Female,2022-05-03_16h56.04.915,Boat,2022.1.1,60.179189554880686,
negative,neutral,1,j,l,,,,,,,,,5,7,97,3,,,,,,,,,,,,,,,,,,,,,,,,main,2,2,1,neutral,negative,j,j,1,0.6805607999995118,339.38103960000444,340.40355210000416,340.3603943000053,None,339.38103960000444,None,339.38103960000444,None,339.38103960000444,None,341.0486262500024,None,341.0486262500024,None,341.0486262500024,None,,,,,,,,,,,110,21,Female,2022-05-03_16h56.04.915,Boat,2022.1.1,60.179189554880686,
negative,positive,2,j,l,,,,,,,,,5,8,98,15,,,,,,,,,,,,,,,,,,,,,,,,main,2,2,2,positive,negative,j,j,1,0.7481991999957245,341.0637682000088,342.07711490000656,342.0413567000069,None,341.0637682000088,None,341.0637682000088,None,341.0637682000088,None,342.79913565001044,None,342.79913565001044,None,342.79913565001044,None,,,,,,,,,,,110,21,Female,2022-05-03_16h56.04.915,Boat,2022.1.1,60.179189554880686,
negative,neutral,2,j,l,,,,,,,,,5,9,99,12,,,,,,,,,,,,,,,,,,,,,,,,main,2,2,2,neutral,negative,j,j,1,0.6668209000054048,342.814415300003,343.82749510000576,343.79028539999854,None,342.814415300003,None,342.814415300003,None,342.814415300003,None,344.4700614500005,None,344.4700614500005,None,344.4700614500005,None,,,,,,,,,,,110,21,Female,2022-05-03_16h56.04.915,Boat,2022.1.1,60.179189554880686,
positive,neutral,2,l,j,,,,,,,,,5,10,100,17,,,,,,,,,,,,,,,,,,,,,,,,main,2,2,2,neutral,positive,l,l,1,0.7916418000095291,344.4882620999997,345.4938395000063,345.47726169999805,None,344.4882620999997,None,344.4882620999997,None,344.4882620999997,None,346.2622753500007,None,346.2622753500007,None,346.2622753500007,None,,,,,,,,,,,110,21,Female,2022-05-03_16h56.04.915,Boat,2022.1.1,60.179189554880686,
positive,positive,1,l,j,,,,,,,,,5,11,101,2,,,,,,,,,,,,,,,,,,,,,,,,main,1,1,1,positive,positive,l,l,1,0.6975156999978935,346.2788179000054,347.29392660000303,347.25752480000665,None,346.2788179000054,None,346.2788179000054,None,346.2788179000054,None,347.96247305000435,None,347.96247305000435,None,347.96247305000435,None,,,,,,,,,,,110,21,Female,2022-05-03_16h56.04.915,Boat,2022.1.1,60.179189554880686,
neutral,positive,1,k,k,,,,,,,,,5,12,102,4,,,,,,,,,,,,,,,,,,,,,,,,main,1,1,1,positive,neutral,k,k,1,0.6825218000012683,347.97964790000697,348.99406219999946,348.9581365000049,None,347.97964790000697,None,347.97964790000697,None,347.97964790000697,None,349.64860295000545,None,349.64860295000545,None,349.64860295000545,None,,,,,,,,,,,110,21,Female,2022-05-03_16h56.04.915,Boat,2022.1.1,60.179189554880686,
positive,negative,1,l,j,,,,,,,,,5,13,103,5,,,,,,,,,,,,,,,,,,,,,,,,main,2,2,1,negative,positive,l,l,1,0.7002696999988984,349.6641219000012,350.68739720000303,350.6440241000091,None,349.6641219000012,None,349.6641219000012,None,349.6641219000012,None,351.3508809500025,None,351.3508809500025,None,351.3508809500025,None,,,,,,,,,,,110,21,Female,2022-05-03_16h56.04.915,Boat,2022.1.1,60.179189554880686,
positive,positive,2,l,j,,,,,,,,,5,14,104,11,,,,,,,,,,,,,,,,,,,,,,,,main,2,2,2,positive,positive,l,l,1,0.7415895000012824,351.36743290000595,352.37800640000205,352.3409859000094,None,351.36743290000595,None,351.36743290000595,None,351.36743290000595,None,353.0955773499998,None,353.0955773499998,None,353.0955773499998,None,,,,,,,,,,,110,21,Female,2022-05-03_16h56.04.915,Boat,2022.1.1,60.179189554880686,
neutral,negative,2,k,k,,,,,,,,,5,15,105,16,,,,,,,,,,,,,,,,,,,,,,,,main,1,1,2,negative,neutral,k,k,1,0.7682779999886407,353.1113408000092,354.1207807000028,354.0941811000084,None,353.1113408000092,None,353.1113408000092,None,353.1113408000092,None,354.8661686500098,None,354.8661686500098,None,354.8661686500098,None,,,,,,,,,,,110,21,Female,2022-05-03_16h56.04.915,Boat,2022.1.1,60.179189554880686,
positive,neutral,1,l,j,,,,,,,,,5,16,106,8,,,,,,,,,,,,,,,,,,,,,,,,main,1,1,1,neutral,positive,l,l,1,0.7669740000128513,354.88091990000976,355.8887992000091,355.8703230000101,None,354.88091990000976,None,354.88091990000976,None,354.88091990000976,None,356.6367541500047,None,356.6367541500047,None,356.6367541500047,None,,,,,,,,,,,110,21,Female,2022-05-03_16h56.04.915,Boat,2022.1.1,60.179189554880686,
neutral,neutral,2,k,k,,,,,,,,,5,17,107,10,,,,,,,,,,,,,,,,,,,,,,,,main,2,2,2,neutral,neutral,k,k,1,0.6578674999909708,356.6518817000033,357.6708201000001,357.6274725000112,None,356.6518817000033,None,356.6518817000033,None,356.6518817000033,None,358.29580894999964,None,358.29580894999964,None,358.29580894999964,None,,,,,,,,,,,110,21,Female,2022-05-03_16h56.04.915,Boat,2022.1.1,60.179189554880686,
positive,neutral,2,l,j,,,,,,,,,6,0,108,17,,,,,,,,,,,,,,,,,,,,,,,,main,2,2,2,neutral,positive,l,l,1,0.7479319999984,358.31500850000884,359.3223230000003,359.30412110000907,None,358.31500850000884,None,358.31500850000884,None,358.31500850000884,None,360.0468424500112,None,360.0468424500112,None,360.0468424500112,None,,,,,,,,,,,110,21,Female,2022-05-03_16h56.04.915,Boat,2022.1.1,60.179189554880686,
negative,positive,2,j,l,,,,,,,,,6,1,109,15,,,,,,,,,,,,,,,,,,,,,,,,main,2,2,2,positive,negative,j,j,1,0.8435084000084316,360.0627605000045,361.0754073999997,361.0393103000097,None,360.0627605000045,None,360.0627605000045,None,360.0627605000045,None,361.8948808500107,None,361.8948808500107,None,361.8948808500107,None,,,,,,,,,,,110,21,Female,2022-05-03_16h56.04.915,Boat,2022.1.1,60.179189554880686,
negative,neutral,1,j,l,,,,,,,,,6,2,110,3,,,,,,,,,,,,,,,,,,,,,,,,main,1,1,1,neutral,negative,j,j,1,0.7364600000000792,361.9116212000081,362.9110898000072,362.8947660999984,None,361.9116212000081,None,361.9116212000081,None,361.9116212000081,None,363.63303155000614,None,363.63303155000614,None,363.63303155000614,None,,,,,,,,,,,110,21,Female,2022-05-03_16h56.04.915,Boat,2022.1.1,60.179189554880686,
neutral,negative,2,k,k,,,,,,,,,6,3,111,16,,,,,,,,,,,,,,,,,,,,,,,,main,2,2,2,negative,neutral,k,k,1,0.7126015999965603,363.64806040000985,364.66002480000316,364.6238449000084,None,363.64806040000985,None,363.64806040000985,None,363.64806040000985,None,365.34786525000237,None,365.34786525000237,None,365.34786525000237,None,,,,,,,,,,,110,21,Female,2022-05-03_16h56.04.915,Boat,2022.1.1,60.179189554880686,
positive,positive,1,l,j,,,,,,,,,6,4,112,2,,,,,,,,,,,,,,,,,,,,,,,,main,1,1,1,positive,positive,l,l,1,0.7770948000106728,365.3633145000058,366.3777330000012,366.34145700000226,None,365.3633145000058,None,365.3633145000058,None,365.3633145000058,None,367.1280264500063,None,367.1280264500063,None,367.1280264500063,None,,,,,,,,,,,110,21,Female,2022-05-03_16h56.04.915,Boat,2022.1.1,60.179189554880686,
negative,neutral,2,j,l,,,,,,,,,6,5,113,12,,,,,,,,,,,,,,,,,,,,,,,,main,1,1,2,neutral,negative,j,j,1,0.7531711000046926,367.14439620000485,368.16020389999903,368.1241560000053,None,367.14439620000485,None,367.14439620000485,None,367.14439620000485,None,368.88306684999844,None,368.88306684999844,None,368.88306684999844,None,,,,,,,,,,,110,21,Female,2022-05-03_16h56.04.915,Boat,2022.1.1,60.179189554880686,
neutral,positive,1,k,k,,,,,,,,,6,6,114,4,,,,,,,,,,,,,,,,,,,,,,,,main,1,1,1,positive,neutral,k,k,1,0.6972574000101304,368.9006784000085,369.92252720000397,369.8779840000061,None,368.9006784000085,None,368.9006784000085,None,368.9006784000085,None,370.5853790500085,None,370.5853790500085,None,370.5853790500085,None,,,,,,,,,,,110,21,Female,2022-05-03_16h56.04.915,Boat,2022.1.1,60.179189554880686,
negative,negative,1,j,l,,,,,,,,,6,7,115,0,,,,,,,,,,,,,,,,,,,,,,,,main,1,1,1,negative,negative,j,j,1,0.8015095000009751,370.6013767000113,371.6222969000082,371.60435100000177,None,370.6013767000113,None,370.6013767000113,None,370.6013767000113,None,372.38850435000205,None,372.38850435000205,None,372.38850435000205,None,,,,,,,,,,,110,21,Female,2022-05-03_16h56.04.915,Boat,2022.1.1,60.179189554880686,
positive,negative,2,l,j,,,,,,,,,6,8,116,14,,,,,,,,,,,,,,,,,,,,,,,,main,1,1,2,negative,positive,l,l,1,0.7286324000015156,372.4104171000072,373.42335340000864,373.387887600009,None,372.4104171000072,None,372.4104171000072,None,372.4104171000072,None,374.12090345000325,None,374.12090345000325,None,374.12090345000325,None,,,,,,,,,,,110,21,Female,2022-05-03_16h56.04.915,Boat,2022.1.1,60.179189554880686,
positive,negative,1,l,j,,,,,,,,,6,9,117,5,,,,,,,,,,,,,,,,,,,,,,,,main,2,2,1,negative,positive,l,l,1,0.6945826000010129,374.1360144000064,375.14634540000407,375.11227040000085,None,374.1360144000064,None,374.1360144000064,None,374.1360144000064,None,375.81666614999705,None,375.81666614999705,None,375.81666614999705,None,,,,,,,,,,,110,21,Female,2022-05-03_16h56.04.915,Boat,2022.1.1,60.179189554880686,
positive,positive,2,l,j,,,,,,,,,6,10,118,11,,,,,,,,,,,,,,,,,,,,,,,,main,1,1,2,positive,positive,l,l,1,0.6602267999987816,375.8326009000011,376.8561272000079,376.81125050000264,None,375.8326009000011,None,375.8326009000011,None,375.8326009000011,None,377.47965235000885,None,377.47965235000885,None,377.47965235000885,None,,,,,,,,,,,110,21,Female,2022-05-03_16h56.04.915,Boat,2022.1.1,60.179189554880686,
neutral,neutral,1,k,k,,,,,,,,,6,11,119,1,,,,,,,,,,,,,,,,,,,,,,,,main,2,2,1,neutral,neutral,k,k,1,0.7164068999991287,377.49438720000035,378.51131110001006,378.47584910001024,None,377.49438720000035,None,377.49438720000035,None,377.49438720000035,None,379.1983461500029,None,379.1983461500029,None,379.1983461500029,None,,,,,,,,,,,110,21,Female,2022-05-03_16h56.04.915,Boat,2022.1.1,60.179189554880686,
neutral,neutral,2,k,k,,,,,,,,,6,12,120,10,,,,,,,,,,,,,,,,,,,,,,,,main,2,2,2,neutral,neutral,k,k,1,0.611153200006811,379.21573470000294,380.2281374000013,380.19142360000114,None,379.21573470000294,None,379.21573470000294,None,379.21573470000294,None,380.8124893500033,None,380.8124893500033,None,380.8124893500033,None,,,,,,,,,,,110,21,Female,2022-05-03_16h56.04.915,Boat,2022.1.1,60.179189554880686,
negative,negative,2,j,l,,,,,,,,,6,13,121,9,,,,,,,,,,,,,,,,,,,,,,,,main,1,1,2,negative,negative,j,j,1,0.8193817999999737,380.8282617000077,381.8446983000031,381.8080270000064,None,380.8282617000077,None,380.8282617000077,None,380.8282617000077,None,382.63350385000814,None,382.63350385000814,None,382.63350385000814,None,,,,,,,,,,,110,21,Female,2022-05-03_16h56.04.915,Boat,2022.1.1,60.179189554880686,
neutral,positive,2,k,k,,,,,,,,,6,14,122,13,,,,,,,,,,,,,,,,,,,,,,,,main,1,1,2,positive,neutral,k,k,1,0.7487988999928348,382.6490708000056,383.6709891000064,383.6286029000039,None,382.6490708000056,None,382.6490708000056,None,382.6490708000056,None,384.3833922500024,None,384.3833922500024,None,384.3833922500024,None,,,,,,,,,,,110,21,Female,2022-05-03_16h56.04.915,Boat,2022.1.1,60.179189554880686,
negative,positive,1,j,l,,,,,,,,,6,15,123,6,,,,,,,,,,,,,,,,,,,,,,,,main,2,2,1,positive,negative,j,j,1,0.7618338000029325,384.4001101000031,385.40915150000365,385.37386060001154,None,384.4001101000031,None,384.4001101000031,None,384.4001101000031,None,386.1493360499997,None,386.1493360499997,None,386.1493360499997,None,,,,,,,,,,,110,21,Female,2022-05-03_16h56.04.915,Boat,2022.1.1,60.179189554880686,
positive,neutral,1,l,j,,,,,,,,,6,16,124,8,,,,,,,,,,,,,,,,,,,,,,,,main,2,2,1,neutral,positive,l,l,1,0.6308627000107663,386.16393999999855,387.1878158000036,387.1613900000084,None,386.16393999999855,None,386.16393999999855,None,386.16393999999855,None,387.78230095001055,None,387.78230095001055,None,387.78230095001055,None,,,,,,,,,,,110,21,Female,2022-05-03_16h56.04.915,Boat,2022.1.1,60.179189554880686,
neutral,negative,1,k,k,,,,,,,,,6,17,125,7,,,,,,,,,,,,,,,,,,,,,,,,main,1,1,1,negative,neutral,k,k,1,0.6850222000066424,387.7975634000031,388.8215660999995,388.7780958000076,None,387.7975634000031,None,387.7975634000031,None,387.7975634000031,None,389.47163705000713,None,389.47163705000713,None,389.47163705000713,None,,,,,,,,,,,110,21,Female,2022-05-03_16h56.04.915,Boat,2022.1.1,60.179189554880686,
positive,neutral,1,l,j,,,,,,,,,7,0,126,8,,,,,,,,,,,,,,,,,,,,,,,,main,1,1,1,neutral,positive,l,l,1,0.708855200005928,389.48935760000313,390.49444760000915,390.4584548999992,None,389.48935760000313,None,389.48935760000313,None,389.48935760000313,None,391.180675649998,None,391.180675649998,None,391.180675649998,None,,,,,,,,,,,110,21,Female,2022-05-03_16h56.04.915,Boat,2022.1.1,60.179189554880686,
neutral,neutral,1,k,k,,,,,,,,,7,1,127,1,,,,,,,,,,,,,,,,,,,,,,,,main,1,1,1,neutral,neutral,k,k,1,0.6466985000006389,391.1968945000117,392.2118899000052,392.17802390000725,None,391.1968945000117,None,391.1968945000117,None,391.1968945000117,None,392.83112685000816,None,392.83112685000816,None,392.83112685000816,None,,,,,,,,,,,110,21,Female,2022-05-03_16h56.04.915,Boat,2022.1.1,60.179189554880686,
neutral,negative,1,k,k,,,,,,,,,7,2,128,7,,,,,,,,,,,,,,,,,,,,,,,,main,2,2,1,negative,neutral,k,k,1,0.5855034999985946,392.84637739999744,393.86149720000685,393.82534750000923,None,392.84637739999744,None,392.84637739999744,None,392.84637739999744,None,394.4174966500112,None,394.4174966500112,None,394.4174966500112,None,,,,,,,,,,,110,21,Female,2022-05-03_16h56.04.915,Boat,2022.1.1,60.179189554880686,
positive,negative,1,l,j,,,,,,,,,7,3,129,5,,,,,,,,,,,,,,,,,,,,,,,,main,1,1,1,negative,positive,l,l,1,0.6614928000053624,394.43396570000914,395.45740150001075,395.41149450000376,None,394.43396570000914,None,394.43396570000914,None,394.43396570000914,None,396.08260545000377,None,396.08260545000377,None,396.08260545000377,None,,,,,,,,,,,110,21,Female,2022-05-03_16h56.04.915,Boat,2022.1.1,60.179189554880686,
negative,neutral,2,j,l,,,,,,,,,7,4,130,12,,,,,,,,,,,,,,,,,,,,,,,,main,1,1,2,neutral,negative,j,j,1,0.6992953000008129,396.09749890000967,397.1049414000008,397.08078420000675,None,396.09749890000967,None,396.09749890000967,None,396.09749890000967,None,397.78472264999874,None,397.78472264999874,None,397.78472264999874,None,,,,,,,,,,,110,21,Female,2022-05-03_16h56.04.915,Boat,2022.1.1,60.179189554880686,
positive,neutral,2,l,j,,,,,,,,,7,5,131,17,,,,,,,,,,,,,,,,,,,,,,,,main,2,2,2,neutral,positive,l,l,1,0.7646498999965843,397.800192900002,398.8218406000087,398.77889400000277,None,397.800192900002,None,397.800192900002,None,397.800192900002,None,399.55085365000997,None,399.55085365000997,None,399.55085365000997,None,,,,,,,,,,,110,21,Female,2022-05-03_16h56.04.915,Boat,2022.1.1,60.179189554880686,
negative,positive,2,j,l,,,,,,,,,7,6,132,15,,,,,,,,,,,,,,,,,,,,,,,,main,1,1,2,positive,negative,j,j,1,0.7792142999969656,399.56798980000895,400.5882885000028,400.5452415000036,None,399.56798980000895,None,399.56798980000895,None,399.56798980000895,None,401.3326988500019,None,401.3326988500019,None,401.3326988500019,None,,,,,,,,,,,110,21,Female,2022-05-03_16h56.04.915,Boat,2022.1.1,60.179189554880686,
neutral,positive,2,k,k,,,,,,,,,7,7,133,13,,,,,,,,,,,,,,,,,,,,,,,,main,2,2,2,positive,neutral,k,k,1,0.6270640000002459,401.3475565999979,402.36221900000237,402.3254381000006,None,401.3475565999979,None,401.3475565999979,None,401.3475565999979,None,402.9628695499967,None,402.9628695499967,None,402.9628695499967,None,,,,,,,,,,,110,21,Female,2022-05-03_16h56.04.915,Boat,2022.1.1,60.179189554880686,
positive,positive,2,l,j,,,,,,,,,7,8,134,11,,,,,,,,,,,,,,,,,,,,,,,,main,1,1,2,positive,positive,l,l,1,0.8499225999985356,402.97882689999824,404.00079350000306,404.00079350000306,None,402.97882689999824,None,402.97882689999824,None,402.97882689999824,None,404.8149650500098,None,404.8149650500098,None,404.8149650500098,None,,,,,,,,,,,110,21,Female,2022-05-03_16h56.04.915,Boat,2022.1.1,60.179189554880686,
negative,negative,1,j,l,,,,,,,,,7,9,135,0,,,,,,,,,,,,,,,,,,,,,,,,main,1,1,1,negative,negative,j,j,1,0.7288943000021391,404.82964000001084,405.8304091000027,405.8134723000112,None,404.82964000001084,None,404.82964000001084,None,404.82964000001084,None,406.5466833500075,None,406.5466833500075,None,406.5466833500075,None,,,,,,,,,,,110,21,Female,2022-05-03_16h56.04.915,Boat,2022.1.1,60.179189554880686,
neutral,negative,2,k,k,,,,,,,,,7,10,136,16,,,,,,,,,,,,,,,,,,,,,,,,main,2,2,2,negative,neutral,k,k,1,0.7489178999967407,406.5608027999988,407.57164960000955,407.57164960000955,None,406.5608027999988,None,406.5608027999988,None,406.5608027999988,None,408.2978353500046,None,408.2978353500046,None,408.2978353500046,None,,,,,,,,,,,110,21,Female,2022-05-03_16h56.04.915,Boat,2022.1.1,60.179189554880686,
negative,neutral,1,j,l,,,,,,,,,7,11,137,3,,,,,,,,,,,,,,,,,,,,,,,,main,1,1,1,neutral,negative,j,j,1,0.6985895999969216,408.3134332000045,409.32441810000455,409.3066276000027,None,408.3134332000045,None,408.3134332000045,None,408.3134332000045,None,409.99833754999855,None,409.99833754999855,None,409.99833754999855,None,,,,,,,,,,,110,21,Female,2022-05-03_16h56.04.915,Boat,2022.1.1,60.179189554880686,
positive,negative,2,l,j,,,,,,,,,7,12,138,14,,,,,,,,,,,,,,,,,,,,,,,,main,2,2,2,negative,positive,l,l,1,0.7288053999945987,410.0151787000068,411.0285825000028,410.99286830000347,None,410.0151787000068,None,410.0151787000068,None,410.0151787000068,None,411.7300984500005,None,411.7300984500005,None,411.7300984500005,None,,,,,,,,,,,110,21,Female,2022-05-03_16h56.04.915,Boat,2022.1.1,60.179189554880686,
negative,negative,2,j,l,,,,,,,,,7,13,139,9,,,,,,,,,,,,,,,,,,,,,,,,main,1,1,2,negative,negative,j,j,1,0.7021238000015728,411.7454676000052,412.7456624000042,412.7287163000001,None,411.7454676000052,None,411.7454676000052,None,411.7454676000052,None,413.4342274500057,None,413.4342274500057,None,413.4342274500057,None,,,,,,,,,,,110,21,Female,2022-05-03_16h56.04.915,Boat,2022.1.1,60.179189554880686,
negative,positive,1,j,l,,,,,,,,,7,14,140,6,,,,,,,,,,,,,,,,,,,,,,,,main,2,2,1,positive,negative,j,j,1,0.7246845000045141,413.44959230000677,414.4639223999984,414.4289606000093,None,413.44959230000677,None,413.44959230000677,None,413.44959230000677,None,415.16248345000787,None,415.16248345000787,None,415.16248345000787,None,,,,,,,,,,,110,21,Female,2022-05-03_16h56.04.915,Boat,2022.1.1,60.179189554880686,
positive,positive,1,l,j,,,,,,,,,7,15,141,2,,,,,,,,,,,,,,,,,,,,,,,,main,2,2,1,positive,positive,l,l,1,0.8468171999993501,415.17954589999863,416.1961097000021,416.1588641999988,None,415.17954589999863,None,415.17954589999863,None,415.17954589999863,None,417.0126643500087,None,417.0126643500087,None,417.0126643500087,None,,,,,,,,,,,110,21,Female,2022-05-03_16h56.04.915,Boat,2022.1.1,60.179189554880686,
neutral,neutral,2,k,k,,,,,,,,,7,16,142,10,,,,,,,,,,,,,,,,,,,,,,,,main,1,1,2,neutral,neutral,k,k,1,0.7471183000016026,417.03025250000064,418.04565990000265,418.01126460000523,None,417.03025250000064,None,417.03025250000064,None,417.03025250000064,None,418.7630256500095,None,418.7630256500095,None,418.7630256500095,None,,,,,,,,,,,110,21,Female,2022-05-03_16h56.04.915,Boat,2022.1.1,60.179189554880686,
neutral,positive,1,k,k,,,,,,,,,7,17,143,4,,,,,,,,,,,,,,,,,,,,,,,,main,2,2,1,positive,neutral,k,k,1,0.6363974999985658,418.77762940000684,419.7953123000043,419.77662319999945,None,418.77762940000684,None,418.77762940000684,None,418.77762940000684,None,420.40088584999904,None,420.40088584999904,None,420.40088584999904,None,,,,,,,,,,,110,21,Female,2022-05-03_16h56.04.915,Boat,2022.1.1,60.179189554880686,
neutral,positive,1,k,k,,,,,,,,,8,0,144,4,,,,,,,,,,,,,,,,,,,,,,,,main,2,2,1,positive,neutral,k,k,1,0.5972537000052398,420.4178729999985,421.4239348000119,421.4054150000011,None,420.4178729999985,None,420.4178729999985,None,420.4178729999985,None,422.00102425001097,None,422.00102425001097,None,422.00102425001097,None,,,,,,,,,,,110,21,Female,2022-05-03_16h56.04.915,Boat,2022.1.1,60.179189554880686,
positive,positive,1,l,j,,,,,,,,,8,1,145,2,,,,,,,,,,,,,,,,,,,,,,,,main,2,2,1,positive,positive,l,l,1,0.8144689000037033,422.01658280000265,423.0276190000004,423.00929420000466,None,422.01658280000265,None,422.01658280000265,None,422.01658280000265,None,423.8175250500033,None,423.8175250500033,None,423.8175250500033,None,,,,,,,,,,,110,21,Female,2022-05-03_16h56.04.915,Boat,2022.1.1,60.179189554880686,
negative,neutral,1,j,l,,,,,,,,,8,2,146,3,,,,,,,,,,,,,,,,,,,,,,,,main,2,2,1,neutral,negative,j,j,1,0.6667803999880562,423.8336252000008,424.8450574000017,424.8081677000009,None,423.8336252000008,None,423.8336252000008,None,423.8336252000008,None,425.48638475000627,None,425.48638475000627,None,425.48638475000627,None,,,,,,,,,,,110,21,Female,2022-05-03_16h56.04.915,Boat,2022.1.1,60.179189554880686,
neutral,negative,2,k,k,,,,,,,,,8,3,147,16,,,,,,,,,,,,,,,,,,,,,,,,main,1,1,2,negative,neutral,k,k,1,0.715087600008701,425.5014067000011,426.5123033999989,426.4757260000042,None,425.5014067000011,None,425.5014067000011,None,425.5014067000011,None,427.2049418500072,None,427.2049418500072,None,427.2049418500072,None,,,,,,,,,,,110,21,Female,2022-05-03_16h56.04.915,Boat,2022.1.1,60.179189554880686,
negative,neutral,2,j,l,,,,,,,,,8,4,148,12,,,,,,,,,,,,,,,,,,,,,,,,main,1,1,2,neutral,negative,j,j,1,0.7487265999952797,427.2207810000109,428.2292873000115,428.1936740000092,None,427.2207810000109,None,427.2207810000109,None,427.2207810000109,None,428.95669855001034,None,428.95669855001034,None,428.95669855001034,None,,,,,,,,,,,110,21,Female,2022-05-03_16h56.04.915,Boat,2022.1.1,60.179189554880686,
positive,negative,2,l,j,,,,,,,,,8,5,149,14,,,,,,,,,,,,,,,,,,,,,,,,main,1,1,2,negative,positive,l,l,1,0.7055276999890339,428.97153570000955,429.97869830000855,429.94249919999857,None,428.97153570000955,None,428.97153570000955,None,428.97153570000955,None,430.66393664999924,None,430.66393664999924,None,430.66393664999924,None,,,,,,,,,,,110,21,Female,2022-05-03_16h56.04.915,Boat,2022.1.1,60.179189554880686,
neutral,neutral,1,k,k,,,,,,,,,8,6,150,1,,,,,,,,,,,,,,,,,,,,,,,,main,1,1,1,neutral,neutral,k,k,1,0.7339284000045154,430.67813830000523,431.68874009999854,431.68874009999854,None,430.67813830000523,None,430.67813830000523,None,430.67813830000523,None,432.3997212500079,None,432.3997212500079,None,432.3997212500079,None,,,,,,,,,,,110,21,Female,2022-05-03_16h56.04.915,Boat,2022.1.1,60.179189554880686,
positive,negative,1,l,j,,,,,,,,,8,7,151,5,,,,,,,,,,,,,,,,,,,,,,,,main,2,2,1,negative,positive,l,l,1,0.6461527000064962,432.4153493000049,433.4408618000016,433.3960340000049,None,432.4153493000049,None,432.4153493000049,None,432.4153493000049,None,434.0481329500006,None,434.0481329500006,None,434.0481329500006,None,,,,,,,,,,,110,21,Female,2022-05-03_16h56.04.915,Boat,2022.1.1,60.179189554880686,
positive,positive,2,l,j,,,,,,,,,8,8,152,11,,,,,,,,,,,,,,,,,,,,,,,,main,2,2,2,positive,positive,l,l,1,0.650886300005368,434.0636635000119,435.0722176999989,435.04598989999795,None,434.0636635000119,None,434.0636635000119,None,434.0636635000119,None,435.70148105000845,None,435.70148105000845,None,435.70148105000845,None,,,,,,,,,,,110,21,Female,2022-05-03_16h56.04.915,Boat,2022.1.1,60.179189554880686,
neutral,neutral,2,k,k,,,,,,,,,8,9,153,10,,,,,,,,,,,,,,,,,,,,,,,,main,1,1,2,neutral,neutral,k,k,1,0.5796412000054261,435.7172656000039,436.7406522000092,436.6959305000055,None,435.7172656000039,None,435.7172656000039,None,435.7172656000039,None,437.28339135000425,None,437.28339135000425,None,437.28339135000425,None,,,,,,,,,,,110,21,Female,2022-05-03_16h56.04.915,Boat,2022.1.1,60.179189554880686,
neutral,positive,2,k,k,,,,,,,,,8,10,154,13,,,,,,,,,,,,,,,,,,,,,,,,main,1,1,2,positive,neutral,k,k,1,0.7188343000016175,437.29960589999973,438.3125807000033,438.2775411000039,None,437.29960589999973,None,437.29960589999973,None,437.29960589999973,None,439.0056650500017,None,439.0056650500017,None,439.0056650500017,None,,,,,,,,,,,110,21,Female,2022-05-03_16h56.04.915,Boat,2022.1.1,60.179189554880686,
positive,neutral,2,l,j,,,,,,,,,8,11,155,17,,,,,,,,,,,,,,,,,,,,,,,,main,1,1,2,neutral,positive,l,l,1,0.6783533999987412,439.02073299999756,440.0296082999994,439.99417760000506,None,439.02073299999756,None,439.02073299999756,None,439.02073299999756,None,440.68537045000704,None,440.68537045000704,None,440.68537045000704,None,,,,,,,,,,,110,21,Female,2022-05-03_16h56.04.915,Boat,2022.1.1,60.179189554880686,
negative,negative,2,j,l,,,,,,,,,8,12,156,9,,,,,,,,,,,,,,,,,,,,,,,,main,2,2,2,negative,negative,j,j,1,0.7603307999961544,440.70000550000987,441.72226950000913,441.67979449999984,None,440.70000550000987,None,440.70000550000987,None,440.70000550000987,None,442.44687784999843,None,442.44687784999843,None,442.44687784999843,None,,,,,,,,,,,110,21,Female,2022-05-03_16h56.04.915,Boat,2022.1.1,60.179189554880686,
negative,positive,2,j,l,,,,,,,,,8,13,157,15,,,,,,,,,,,,,,,,,,,,,,,,main,1,1,2,positive,negative,j,j,1,0.6009587000007741,442.46415870000783,443.4911809000041,443.446102300004,None,442.46415870000783,None,442.46415870000783,None,442.46415870000783,None,444.05143514999946,None,444.05143514999946,None,444.05143514999946,None,,,,,,,,,,,110,21,Female,2022-05-03_16h56.04.915,Boat,2022.1.1,60.179189554880686,
neutral,negative,1,k,k,,,,,,,,,8,14,158,7,,,,,,,,,,,,,,,,,,,,,,,,main,2,2,1,negative,neutral,k,k,1,0.7134477999934461,444.06870920000074,445.0813460000063,445.04627420000907,None,444.06870920000074,None,444.06870920000074,None,444.06870920000074,None,445.768080650011,None,445.768080650011,None,445.768080650011,None,,,,,,,,,,,110,21,Female,2022-05-03_16h56.04.915,Boat,2022.1.1,60.179189554880686,
negative,positive,1,j,l,,,,,,,,,8,15,159,6,,,,,,,,,,,,,,,,,,,,,,,,main,2,2,1,positive,negative,j,j,1,0.7469528999936301,445.78350020000653,446.7964417000039,446.7595020000008,None,445.78350020000653,None,445.78350020000653,None,445.78350020000653,None,447.517251449998,None,447.517251449998,None,447.517251449998,None,,,,,,,,,,,110,21,Female,2022-05-03_16h56.04.915,Boat,2022.1.1,60.179189554880686,
positive,neutral,1,l,j,,,,,,,,,8,16,160,8,,,,,,,,,,,,,,,,,,,,,,,,main,1,1,1,neutral,positive,l,l,1,0.7641618000052404,447.53499900001043,448.540866299998,448.5227995000023,None,447.53499900001043,None,447.53499900001043,None,447.53499900001043,None,449.28476555000526,None,449.28476555000526,None,449.28476555000526,None,,,,,,,,,,,110,21,Female,2022-05-03_16h56.04.915,Boat,2022.1.1,60.179189554880686,
negative,negative,1,j,l,,,,,,,,,8,17,161,0,,,,,,,,,,,,,,,,,,,,,,,,main,2,2,1,negative,negative,j,j,1,0.7991337999992538,449.300040800008,450.32272250000096,450.27963190000446,None,449.300040800008,None,449.300040800008,None,449.300040800008,None,451.0851034500054,None,451.0851034500054,None,451.0851034500054,None,,,,,,,,,,,110,21,Female,2022-05-03_16h56.04.915,Boat,2022.1.1,60.179189554880686,
negative,positive,2,j,l,,,,,,,,,9,0,162,15,,,,,,,,,,,,,,,,,,,,,,,,main,2,2,2,positive,negative,j,j,1,0.7050896000000648,451.10140910001064,452.11447490000864,452.07860829999845,None,451.10140910001064,None,451.10140910001064,None,451.10140910001064,None,452.79501875000716,None,452.79501875000716,None,452.79501875000716,None,,,,,,,,,,,110,21,Female,2022-05-03_16h56.04.915,Boat,2022.1.1,60.179189554880686,
negative,positive,1,j,l,,,,,,,,,9,1,163,6,,,,,,,,,,,,,,,,,,,,,,,,main,2,2,1,positive,negative,j,j,1,0.6650374000018928,452.81067070001154,453.82574040000327,453.78925110001,None,452.81067070001154,None,452.81067070001154,None,452.81067070001154,None,454.46318595000486,None,454.46318595000486,None,454.46318595000486,None,,,,,,,,,,,110,21,Female,2022-05-03_16h56.04.915,Boat,2022.1.1,60.179189554880686,
neutral,neutral,2,k,k,,,,,,,,,9,2,164,10,,,,,,,,,,,,,,,,,,,,,,,,main,1,1,2,neutral,neutral,k,k,1,0.7702166999952169,454.4800838000083,455.4944353000028,455.458704100005,None,454.4800838000083,None,454.4800838000083,None,454.4800838000083,None,456.23464905000293,None,456.23464905000293,None,456.23464905000293,None,,,,,,,,,,,110,21,Female,2022-05-03_16h56.04.915,Boat,2022.1.1,60.179189554880686,
neutral,positive,2,k,k,,,,,,,,,9,3,165,13,,,,,,,,,,,,,,,,,,,,,,,,main,2,2,2,positive,neutral,k,k,1,0.6782276000012644,456.25296330000856,457.261897400007,457.22644250000303,None,456.25296330000856,None,456.25296330000856,None,456.25296330000856,None,457.91708375001036,None,457.91708375001036,None,457.91708375001036,None,,,,,,,,,,,110,21,Female,2022-05-03_16h56.04.915,Boat,2022.1.1,60.179189554880686,
positive,negative,1,l,j,,,,,,,,,9,4,166,5,,,,,,,,,,,,,,,,,,,,,,,,main,1,1,1,negative,positive,l,l,1,0.7595145000086632,457.93257950000407,458.9318165000004,458.9152615000057,None,457.93257950000407,None,457.93257950000407,None,457.93257950000407,None,459.6803396500007,None,459.6803396500007,None,459.6803396500007,None,,,,,,,,,,,110,21,Female,2022-05-03_16h56.04.915,Boat,2022.1.1,60.179189554880686,
neutral,negative,1,k,k,,,,,,,,,9,5,167,7,,,,,,,,,,,,,,,,,,,,,,,,main,2,2,1,negative,neutral,k,k,1,0.7854652000096394,459.69674340001075,460.6966026000009,460.68045379999967,None,459.69674340001075,None,459.69674340001075,None,459.69674340001075,None,461.4675313500018,None,461.4675313500018,None,461.4675313500018,None,,,,,,,,,,,110,21,Female,2022-05-03_16h56.04.915,Boat,2022.1.1,60.179189554880686,
positive,positive,2,l,j,,,,,,,,,9,6,168,11,,,,,,,,,,,,,,,,,,,,,,,,main,1,1,2,positive,positive,l,l,1,0.8155584000051022,461.48326950000774,462.4971271000104,462.46226130001014,None,461.48326950000774,None,461.48326950000774,None,461.48326950000774,None,463.2857514500036,None,463.2857514500036,None,463.2857514500036,None,,,,,,,,,,,110,21,Female,2022-05-03_16h56.04.915,Boat,2022.1.1,60.179189554880686,
positive,neutral,2,l,j,,,,,,,,,9,7,169,17,,,,,,,,,,,,,,,,,,,,,,,,main,2,2,2,neutral,positive,l,l,1,0.7268821000034222,463.3026014000061,464.3132101000083,464.278401100004,None,463.3026014000061,None,463.3026014000061,None,463.3026014000061,None,465.0150454500079,None,465.0150454500079,None,465.0150454500079,None,,,,,,,,,,,110,21,Female,2022-05-03_16h56.04.915,Boat,2022.1.1,60.179189554880686,
positive,positive,1,l,j,,,,,,,,,9,8,170,2,,,,,,,,,,,,,,,,,,,,,,,,main,1,1,1,positive,positive,l,l,1,0.631583700000192,465.0309988000081,466.0561447000073,466.01321210000606,None,465.0309988000081,None,465.0309988000081,None,465.0309988000081,None,466.64914965000645,None,466.64914965000645,None,466.64914965000645,None,,,,,,,,,,,110,21,Female,2022-05-03_16h56.04.915,Boat,2022.1.1,60.179189554880686,
negative,negative,1,j,l,,,,,,,,,9,9,171,0,,,,,,,,,,,,,,,,,,,,,,,,main,1,1,1,negative,negative,j,j,1,0.7831990999984555,466.6650174000097,467.68953319999855,467.6464202000061,None,466.6650174000097,None,466.6650174000097,None,466.6650174000097,None,468.4339677500073,None,468.4339677500073,None,468.4339677500073,None,,,,,,,,,,,110,21,Female,2022-05-03_16h56.04.915,Boat,2022.1.1,60.179189554880686,
neutral,negative,2,k,k,,,,,,,,,9,10,172,16,,,,,,,,,,,,,,,,,,,,,,,,main,1,1,2,negative,neutral,k,k,1,0.6604839999927208,468.4505055000045,469.46202210000774,469.42497520000325,None,468.4505055000045,None,468.4505055000045,None,468.4505055000045,None,470.0980122500012,None,470.0980122500012,None,470.0980122500012,None,,,,,,,,,,,110,21,Female,2022-05-03_16h56.04.915,Boat,2022.1.1,60.179189554880686,
neutral,positive,1,k,k,,,,,,,,,9,11,173,4,,,,,,,,,,,,,,,,,,,,,,,,main,2,2,1,positive,neutral,k,k,1,0.7948366000055103,470.1137008000078,471.1134968999977,471.0976132000069,None,470.1137008000078,None,470.1137008000078,None,470.1137008000078,None,471.89669005000616,None,471.89669005000616,None,471.89669005000616,None,,,,,,,,,,,110,21,Female,2022-05-03_16h56.04.915,Boat,2022.1.1,60.179189554880686,
positive,negative,2,l,j,,,,,,,,,9,12,174,14,,,,,,,,,,,,,,,,,,,,,,,,main,1,1,2,negative,positive,l,l,1,0.7749117000057595,471.9124155000027,472.9136542000051,472.89684300000954,None,471.9124155000027,None,471.9124155000027,None,471.9124155000027,None,473.6743583500036,None,473.6743583500036,None,473.6743583500036,None,,,,,,,,,,,110,21,Female,2022-05-03_16h56.04.915,Boat,2022.1.1,60.179189554880686,
negative,negative,2,j,l,,,,,,,,,9,13,175,9,,,,,,,,,,,,,,,,,,,,,,,,main,2,2,2,negative,negative,j,j,1,0.8194250000087777,473.6923766000109,474.69668350000575,474.6635920999979,None,473.6923766000109,None,473.6923766000109,None,473.6923766000109,None,475.49652895000764,None,475.49652895000764,None,475.49652895000764,None,,,,,,,,,,,110,21,Female,2022-05-03_16h56.04.915,Boat,2022.1.1,60.179189554880686,
neutral,neutral,1,k,k,,,,,,,,,9,14,176,1,,,,,,,,,,,,,,,,,,,,,,,,main,1,1,1,neutral,neutral,k,k,1,0.7708366000006208,475.5140381000092,476.52351060000365,476.4806005999999,None,475.5140381000092,None,475.5140381000092,None,475.5140381000092,None,477.2688261499978,None,477.2688261499978,None,477.2688261499978,None,,,,,,,,,,,110,21,Female,2022-05-03_16h56.04.915,Boat,2022.1.1,60.179189554880686,
negative,neutral,2,j,l,,,,,,,,,9,15,177,12,,,,,,,,,,,,,,,,,,,,,,,,main,2,2,2,neutral,negative,j,j,1,0.7624791999987792,477.2850104000099,478.29685730001074,478.2599763000035,None,477.2850104000099,None,477.2850104000099,None,477.2850104000099,None,479.0340747499984,None,479.0340747499984,None,479.0340747499984,None,,,,,,,,,,,110,21,Female,2022-05-03_16h56.04.915,Boat,2022.1.1,60.179189554880686,
negative,neutral,1,j,l,,,,,,,,,9,16,178,3,,,,,,,,,,,,,,,,,,,,,,,,main,2,2,1,neutral,negative,j,j,1,0.8822205000033136,479.0497481000057,480.07346929999767,480.0300886000041,None,479.0497481000057,None,479.0497481000057,None,479.0497481000057,None,480.91874415000785,None,480.91874415000785,None,480.91874415000785,None,,,,,,,,,,,110,21,Female,2022-05-03_16h56.04.915,Boat,2022.1.1,60.179189554880686,
positive,neutral,1,l,j,,,,,,,,,9,17,179,8,,,,,,,,,,,,,,,,,,,,,,,,main,1,1,1,neutral,positive,l,l,1,0.7469926999910967,480.93478029999824,481.946609000006,481.91031950000615,None,480.93478029999824,None,480.93478029999824,None,480.93478029999824,None,482.6682150500099,None,482.6682150500099,None,482.6682150500099,None,,,,,,,,,,,110,21,Female,2022-05-03_16h56.04.915,Boat,2022.1.1,60.179189554880686,
positive,negative,1,l,j,,,,,,,,,10,0,180,5,,,,,,,,,,,,,,,,,,,,,,,,main,2,2,1,negative,positive,l,l,1,0.6547242000087863,482.68431950001104,483.7069269000058,483.6646638000093,None,482.68431950001104,None,482.68431950001104,None,482.68431950001104,None,484.32652194999974,None,484.32652194999974,None,484.32652194999974,None,,,,,,,,,,,110,21,Female,2022-05-03_16h56.04.915,Boat,2022.1.1,60.179189554880686,
neutral,negative,2,k,k,,,,,,,,,10,1,181,16,,,,,,,,,,,,,,,,,,,,,,,,main,2,2,2,negative,neutral,k,k,1,0.6750889999966603,484.34230040000693,485.3569314000051,485.3139002000098,None,484.34230040000693,None,484.34230040000693,None,484.34230040000693,None,486.0029601500108,None,486.0029601500108,None,486.0029601500108,None,,,,,,,,,,,110,21,Female,2022-05-03_16h56.04.915,Boat,2022.1.1,60.179189554880686,
neutral,neutral,1,k,k,,,,,,,,,10,2,182,1,,,,,,,,,,,,,,,,,,,,,,,,main,1,1,1,neutral,neutral,k,k,1,0.6259457999985898,486.01811910000106,487.04190370001015,486.9969917999988,None,486.01811910000106,None,486.01811910000106,None,486.01811910000106,None,487.63219115000976,None,487.63219115000976,None,487.63219115000976,None,,,,,,,,,,,110,21,Female,2022-05-03_16h56.04.915,Boat,2022.1.1,60.179189554880686,
positive,neutral,2,l,j,,,,,,,,,10,3,183,17,,,,,,,,,,,,,,,,,,,,,,,,main,2,2,2,neutral,positive,l,l,1,0.7778730999998515,487.6470244000084,488.64742470000056,488.64742470000056,None,487.6470244000084,None,487.6470244000084,None,487.6470244000084,None,489.4130561500031,None,489.4130561500031,None,489.4130561500031,None,,,,,,,,,,,110,21,Female,2022-05-03_16h56.04.915,Boat,2022.1.1,60.179189554880686,
neutral,neutral,2,k,k,,,,,,,,,10,4,184,10,,,,,,,,,,,,,,,,,,,,,,,,main,1,1,2,neutral,neutral,k,k,1,0.680786500000977,489.43136100000993,490.4472098999977,490.41331220000575,None,489.43136100000993,None,489.43136100000993,None,489.43136100000993,None,491.0974558499991,None,491.0974558499991,None,491.0974558499991,None,,,,,,,,,,,110,21,Female,2022-05-03_16h56.04.915,Boat,2022.1.1,60.179189554880686,
neutral,positive,2,k,k,,,,,,,,,10,5,185,13,,,,,,,,,,,,,,,,,,,,,,,,main,1,1,2,positive,neutral,k,k,1,0.6904724000050919,491.1117341000063,492.11377260000154,492.11377260000154,None,491.1117341000063,None,491.1117341000063,None,491.1117341000063,None,492.79081565000234,None,492.79081565000234,None,492.79081565000234,None,,,,,,,,,,,110,21,Female,2022-05-03_16h56.04.915,Boat,2022.1.1,60.179189554880686,
positive,positive,2,l,j,,,,,,,,,10,6,186,11,,,,,,,,,,,,,,,,,,,,,,,,main,1,1,2,positive,positive,l,l,1,0.6878114999999525,492.8088129000098,493.8141576000053,493.7965483000007,None,492.8088129000098,None,492.8088129000098,None,492.8088129000098,None,494.4811526500096,None,494.4811526500096,None,494.4811526500096,None,,,,,,,,,,,110,21,Female,2022-05-03_16h56.04.915,Boat,2022.1.1,60.179189554880686,
positive,neutral,1,l,j,,,,,,,,,10,7,187,8,,,,,,,,,,,,,,,,,,,,,,,,main,2,2,1,neutral,positive,l,l,1,0.7186160999990534,494.4964462000062,495.51378300000215,495.47817220000434,None,494.4964462000062,None,494.4964462000062,None,494.4964462000062,None,496.20166455000873,None,496.20166455000873,None,496.20166455000873,None,,,,,,,,,,,110,21,Female,2022-05-03_16h56.04.915,Boat,2022.1.1,60.179189554880686,
positive,negative,2,l,j,,,,,,,,,10,8,188,14,,,,,,,,,,,,,,,,,,,,,,,,main,2,2,2,negative,positive,l,l,1,0.6307403999962844,496.21663790001185,497.24053360000835,497.1972123000014,None,496.21663790001185,None,496.21663790001185,None,496.21663790001185,None,497.83455085000315,None,497.83455085000315,None,497.83455085000315,None,,,,,,,,,,,110,21,Female,2022-05-03_16h56.04.915,Boat,2022.1.1,60.179189554880686,
negative,positive,2,j,l,,,,,,,,,10,9,189,15,,,,,,,,,,,,,,,,,,,,,,,,main,1,1,2,positive,negative,j,j,1,0.9822038999991491,497.8502837999986,498.8739604000002,498.83079410000937,None,497.8502837999986,None,497.8502837999986,None,497.8502837999986,None,499.8196723499976,None,499.8196723499976,None,499.8196723499976,None,,,,,,,,,,,110,21,Female,2022-05-03_16h56.04.915,Boat,2022.1.1,60.179189554880686,
positive,positive,1,l,j,,,,,,,,,10,10,190,2,,,,,,,,,,,,,,,,,,,,,,,,main,2,2,1,positive,positive,l,l,1,0.7737875000020722,499.83594040000753,500.8467806999979,500.81084580000606,None,499.83594040000753,None,499.83594040000753,None,499.83594040000753,None,501.5978462500032,None,501.5978462500032,None,501.5978462500032,None,,,,,,,,,,,110,21,Female,2022-05-03_16h56.04.915,Boat,2022.1.1,60.179189554880686,
neutral,negative,1,k,k,,,,,,,,,10,11,191,7,,,,,,,,,,,,,,,,,,,,,,,,main,1,1,1,negative,neutral,k,k,1,0.7019909000082407,501.61480350000784,502.6238553000003,502.59751560000586,None,501.61480350000784,None,501.61480350000784,None,501.61480350000784,None,503.30200935000613,None,503.30200935000613,None,503.30200935000613,None,,,,,,,,,,,110,21,Female,2022-05-03_16h56.04.915,Boat,2022.1.1,60.179189554880686,
negative,neutral,1,j,l,,,,,,,,,10,12,192,3,,,,,,,,,,,,,,,,,,,,,,,,main,1,1,1,neutral,negative,j,j,1,0.7814918999938527,503.317853200002,504.340726200011,504.29790520000097,None,503.317853200002,None,503.317853200002,None,503.317853200002,None,505.0858459499985,None,505.0858459499985,None,505.0858459499985,None,,,,,,,,,,,110,21,Female,2022-05-03_16h56.04.915,Boat,2022.1.1,60.179189554880686,
negative,positive,1,j,l,,,,,,,,,10,13,193,6,,,,,,,,,,,,,,,,,,,,,,,,main,1,1,1,positive,negative,j,j,1,0.7309211999963736,505.10128280000936,506.1131002000038,506.07678300001135,None,505.10128280000936,None,505.10128280000936,None,505.10128280000936,None,506.819447950006,None,506.819447950006,None,506.819447950006,None,,,,,,,,,,,110,21,Female,2022-05-03_16h56.04.915,Boat,2022.1.1,60.179189554880686,
negative,negative,1,j,l,,,,,,,,,10,14,194,0,,,,,,,,,,,,,,,,,,,,,,,,main,2,2,1,negative,negative,j,j,1,0.6108284999936586,506.8359320000018,507.84242690000974,507.8243089000025,None,506.8359320000018,None,506.8359320000018,None,506.8359320000018,None,508.4330386500049,None,508.4330386500049,None,508.4330386500049,None,,,,,,,,,,,110,21,Female,2022-05-03_16h56.04.915,Boat,2022.1.1,60.179189554880686,
negative,negative,2,j,l,,,,,,,,,10,15,195,9,,,,,,,,,,,,,,,,,,,,,,,,main,2,2,2,negative,negative,j,j,1,0.6438521999953082,508.4481719000032,509.46456040001067,509.4276704000076,None,508.4481719000032,None,508.4481719000032,None,508.4481719000032,None,510.080738750007,None,510.080738750007,None,510.080738750007,None,,,,,,,,,,,110,21,Female,2022-05-03_16h56.04.915,Boat,2022.1.1,60.179189554880686,
neutral,positive,1,k,k,,,,,,,,,10,16,196,4,,,,,,,,,,,,,,,,,,,,,,,,main,2,2,1,positive,neutral,k,k,1,0.7857468000001973,510.0949869000033,511.10895439999877,511.09088280001015,None,510.0949869000033,None,510.0949869000033,None,510.0949869000033,None,511.86795994999994,None,511.86795994999994,None,511.86795994999994,None,,,,,,,,,,,110,21,Female,2022-05-03_16h56.04.915,Boat,2022.1.1,60.179189554880686,
negative,neutral,2,j,l,,,,,,,,,10,17,197,12,,,,,,,,,,,,,,,,,,,,,,,,main,1,1,2,neutral,negative,j,j,1,0.639433000003919,511.8830469000095,512.8962788000063,512.8601922000089,None,511.8830469000095,None,511.8830469000095,None,511.8830469000095,None,513.5111363500007,None,513.5111363500007,None,513.5111363500007,None,,,,,,,,,,,110,21,Female,2022-05-03_16h56.04.915,Boat,2022.1.1,60.179189554880686,
positive,negative,1,l,j,,,,,,,,,11,0,198,5,,,,,,,,,,,,,,,,,,,,,,,,main,2,2,1,negative,positive,l,l,1,0.7985889999981737,513.5291090000101,514.5410413000063,514.4977569000039,None,513.5291090000101,None,513.5291090000101,None,513.5291090000101,None,515.311981750009,None,515.311981750009,None,515.311981750009,None,,,,,,,,,,,110,21,Female,2022-05-03_16h56.04.915,Boat,2022.1.1,60.179189554880686,
negative,neutral,1,j,l,,,,,,,,,11,1,199,3,,,,,,,,,,,,,,,,,,,,,,,,main,2,2,1,neutral,negative,j,j,1,0.7852998000016669,515.330795300004,516.3314528000046,516.3136574000091,None,515.330795300004,None,515.330795300004,None,515.330795300004,None,517.099499050001,None,517.099499050001,None,517.099499050001,None,,,,,,,,,,,110,21,Female,2022-05-03_16h56.04.915,Boat,2022.1.1,60.179189554880686,
negative,neutral,2,j,l,,,,,,,,,11,2,200,12,,,,,,,,,,,,,,,,,,,,,,,,main,1,1,2,neutral,negative,j,j,1,0.5826940999977523,517.1169983,518.1297533000034,518.0942655000108,None,517.1169983,None,517.1169983,None,517.1169983,None,518.6836440500017,None,518.6836440500017,None,518.6836440500017,None,,,,,,,,,,,110,21,Female,2022-05-03_16h56.04.915,Boat,2022.1.1,60.179189554880686,
negative,negative,2,j,l,,,,,,,,,11,3,201,9,,,,,,,,,,,,,,,,,,,,,,,,main,1,1,2,negative,negative,j,j,1,0.5674698000075296,518.699177500006,519.7256938000064,519.6809448999993,None,518.699177500006,None,518.699177500006,None,518.699177500006,None,520.2544296500098,None,520.2544296500098,None,520.2544296500098,None,,,,,,,,,,,110,21,Female,2022-05-03_16h56.04.915,Boat,2022.1.1,60.179189554880686,
positive,positive,1,l,j,,,,,,,,,11,4,202,2,,,,,,,,,,,,,,,,,,,,,,,,main,2,2,1,positive,positive,l,l,1,0.7024179000000004,520.2691740000009,521.2911471000116,521.2454845000029,None,520.2691740000009,None,520.2691740000009,None,520.2691740000009,None,521.9602212500001,None,521.9602212500001,None,521.9602212500001,None,,,,,,,,,,,110,21,Female,2022-05-03_16h56.04.915,Boat,2022.1.1,60.179189554880686,
negative,positive,2,j,l,,,,,,,,,11,5,203,15,,,,,,,,,,,,,,,,,,,,,,,,main,2,2,2,positive,negative,j,j,1,0.742898199998308,521.9785084000032,522.9964813999977,522.9604715000023,None,521.9785084000032,None,521.9785084000032,None,521.9785084000032,None,523.7039832499984,None,523.7039832499984,None,523.7039832499984,None,,,,,,,,,,,110,21,Female,2022-05-03_16h56.04.915,Boat,2022.1.1,60.179189554880686,
positive,negative,2,l,j,,,,,,,,,11,6,204,14,,,,,,,,,,,,,,,,,,,,,,,,main,1,1,2,negative,positive,l,l,1,0.7902529999992112,523.7196255000017,524.7260232000117,524.7074357000092,None,523.7196255000017,None,523.7196255000017,None,523.7196255000017,None,525.4984407499985,None,525.4984407499985,None,525.4984407499985,None,,,,,,,,,,,110,21,Female,2022-05-03_16h56.04.915,Boat,2022.1.1,60.179189554880686,
neutral,negative,1,k,k,,,,,,,,,11,7,205,7,,,,,,,,,,,,,,,,,,,,,,,,main,1,1,1,negative,neutral,k,k,1,0.6700129999953788,525.5157076000032,526.541037300005,526.4978286000114,None,525.5157076000032,None,525.5157076000032,None,525.5157076000032,None,527.1705521500087,None,527.1705521500087,None,527.1705521500087,None,,,,,,,,,,,110,21,Female,2022-05-03_16h56.04.915,Boat,2022.1.1,60.179189554880686,
negative,positive,1,j,l,,,,,,,,,11,8,206,6,,,,,,,,,,,,,,,,,,,,,,,,main,1,1,1,positive,negative,j,j,1,0.747265799989691,527.1861352999986,528.2002807000099,528.1645500000013,None,527.1861352999986,None,527.1861352999986,None,527.1861352999986,None,528.9201571499987,None,528.9201571499987,None,528.9201571499987,None,,,,,,,,,,,110,21,Female,2022-05-03_16h56.04.915,Boat,2022.1.1,60.179189554880686,
positive,positive,2,l,j,,,,,,,,,11,9,207,11,,,,,,,,,,,,,,,,,,,,,,,,main,1,1,2,positive,positive,l,l,1,0.7519396999996388,528.9355166000023,529.9578353000106,529.9146947000118,None,528.9355166000023,None,528.9355166000023,None,528.9355166000023,None,530.6759073499968,None,530.6759073499968,None,530.6759073499968,None,,,,,,,,,,,110,21,Female,2022-05-03_16h56.04.915,Boat,2022.1.1,60.179189554880686,
