target,distractor,set,ans1,ans2,rep_loop2.thisRepN,rep_loop2.thisTrialN,rep_loop2.thisN,rep_loop2.thisIndex,flanker_prac_loop.thisRepN,flanker_prac_loop.thisTrialN,flanker_prac_loop.thisN,flanker_prac_loop.thisIndex,flanker_main_loop.thisRepN,flanker_main_loop.thisTrialN,flanker_main_loop.thisN,flanker_main_loop.thisIndex,fl_inst_resp.keys,mouse.x,mouse.y,mouse.leftButton,mouse.midButton,mouse.rightButton,mouse.started,mouse.stopped,sound_1.started,sound_1.stopped,no_text.started,no_text.stopped,yes_text.started,yes_text.stopped,mouse_2.x,mouse_2.y,mouse_2.leftButton,mouse_2.midButton,mouse_2.rightButton,mouse_2.started,mouse_2.stopped,back_2.started,back_2.stopped,main_prac,fl_cold,fl_colt,fl_set,fl_dcond,fl_tcond,fl_ans,fl_res,fl_corr,fl_rt,fix_fl.started,fix_fl.stopped,targ.started,targ.stopped,j_button.started,j_button.stopped,k_button.started,k_button.stopped,l_button.started,l_button.stopped,j_button2.started,j_button2.stopped,k_button2.started,k_button2.stopped,l_button2.started,l_button2.stopped,mainback.started,mainback.stopped,key_resp.keys,mouse_6.x,mouse_6.y,mouse_6.leftButton,mouse_6.midButton,mouse_6.rightButton,mouse_6.started,mouse_6.stopped,id*,age*,gender*,date,expName,psychopyVersion,frameRate,
,,,,,0,0,0,0,,,,,,,,,None,0.23518519,-0.3101852,0,0,0,1.0218366003391566,None,33.524101659999,None,84.81044960000145,None,84.81044960000145,None,-0.10092592,-0.08425926,0,0,0,0.013144360011210665,None,,,,,,,,,,,,,,,,,,,,,,,,,,,,,,,,,,,,,,,111,23,Female,2022-05-03_20h03.40.449,Boat,2022.1.1,59.97638130099012,
positive,neutral,1,l,j,,,,,0,0,0,8,,,,,,,,,,,,,,,,,,,,,,,,,,88.72459120000713,None,prac,1,1,1,neutral,positive,j,j,1,1.686323199988692,90.7598610999994,91.77488209999865,91.72978890000377,None,90.7598610999994,None,90.7598610999994,None,90.7598610999994,None,93.43639580000308,None,93.43639580000308,None,93.43639580000308,None,,,,,,,,,,,111,23,Female,2022-05-03_20h03.40.449,Boat,2022.1.1,59.97638130099012,
negative,neutral,1,j,l,,,,,0,1,1,3,,,,,,,,,,,,,,,,,,,,,,,,,,,,prac,1,1,1,neutral,negative,l,l,1,0.9837808000011137,94.44991850000224,95.47305329999654,95.42990760000248,None,94.44991850000224,None,94.44991850000224,None,94.44991850000224,None,96.41900145999679,None,96.41900145999679,None,96.41900145999679,None,,,,,,,,,,,111,23,Female,2022-05-03_20h03.40.449,Boat,2022.1.1,59.97638130099012,
positive,negative,1,l,j,,,,,0,2,2,5,,,,,,,,,,,,,,,,,,,,,,,,,,,,prac,2,2,1,negative,positive,j,j,1,0.9903864999942016,96.43774389999453,97.44668680000177,97.41116340000008,None,96.43774389999453,None,96.43774389999453,None,96.43774389999453,None,98.41353425999986,None,98.41353425999986,None,98.41353425999986,None,,,,,,,,,,,111,23,Female,2022-05-03_20h03.40.449,Boat,2022.1.1,59.97638130099012,
neutral,negative,2,k,k,,,,,0,3,3,16,,,,,,,,,,,,,,,,,,,,,,,,,,,,prac,2,2,2,negative,neutral,k,k,1,0.8460588000016287,98.42927010000858,99.43421720000333,99.41425660000823,None,98.42927010000858,None,98.42927010000858,None,98.42927010000858,None,100.26192726000735,None,100.26192726000735,None,100.26192726000735,None,,,,,,,,,,,111,23,Female,2022-05-03_20h03.40.449,Boat,2022.1.1,59.97638130099012,
positive,neutral,2,l,j,,,,,0,4,4,17,,,,,,,,,,,,,,,,,,,,,,,,,,,,prac,2,2,2,neutral,positive,j,j,1,0.9555947000044398,100.2800966000068,101.29011270000774,101.26361270000052,None,100.2800966000068,None,100.2800966000068,None,100.2800966000068,None,102.21871786000847,None,102.21871786000847,None,102.21871786000847,None,,,,,,,,,,,111,23,Female,2022-05-03_20h03.40.449,Boat,2022.1.1,59.97638130099012,
negative,negative,2,j,l,,,,,0,5,5,9,,,,,,,,,,,,,,,,,,,,,,,,,,,,prac,2,2,2,negative,negative,l,l,1,0.9621500999928685,102.23400910000782,103.24930169999425,103.21374239999568,None,102.23400910000782,None,102.23400910000782,None,102.23400910000782,None,104.18343706000596,None,104.18343706000596,None,104.18343706000596,None,,,,,,,,,,,111,23,Female,2022-05-03_20h03.40.449,Boat,2022.1.1,59.97638130099012,
negative,neutral,2,j,l,,,,,0,6,6,12,,,,,,,,,,,,,,,,,,,,,,,,,,,,prac,2,2,2,neutral,negative,l,l,1,0.7305301000014879,104.1979849000054,105.19677930000762,105.18050770000264,None,104.1979849000054,None,104.1979849000054,None,104.1979849000054,None,105.915799960008,None,105.915799960008,None,105.915799960008,None,,,,,,,,,,,111,23,Female,2022-05-03_20h03.40.449,Boat,2022.1.1,59.97638130099012,
neutral,neutral,1,k,k,,,,,0,7,7,1,,,,,,,,,,,,,,,,,,,,,,,,,,,,prac,1,1,1,neutral,neutral,k,k,1,0.8344302000041353,105.931287600004,106.9584232000052,106.91325670000515,None,105.931287600004,None,105.931287600004,None,105.931287600004,None,107.75236885999911,None,107.75236885999911,None,107.75236885999911,None,,,,,,,,,,,111,23,Female,2022-05-03_20h03.40.449,Boat,2022.1.1,59.97638130099012,
negative,positive,2,j,l,,,,,0,8,8,15,,,,,,,,,,,,,,,,,,,,,,,,,,,,prac,2,2,2,positive,negative,l,l,1,0.9458506000082707,107.76793859999452,108.78994919999968,108.7470680999977,None,107.76793859999452,None,107.76793859999452,None,107.76793859999452,None,109.70090026000398,None,109.70090026000398,None,109.70090026000398,None,,,,,,,,,,,111,23,Female,2022-05-03_20h03.40.449,Boat,2022.1.1,59.97638130099012,
positive,positive,1,l,j,,,,,0,9,9,2,,,,,,,,,,,,,,,,,,,,,,,,,,,,prac,2,2,1,positive,positive,j,j,1,0.8186643999943044,109.71641789999558,110.73989090000396,110.6974712999945,None,109.71641789999558,None,109.71641789999558,None,109.71641789999558,None,111.52282216000603,None,111.52282216000603,None,111.52282216000603,None,,,,,,,,,,,111,23,Female,2022-05-03_20h03.40.449,Boat,2022.1.1,59.97638130099012,
positive,positive,2,l,j,,,,,0,10,10,11,,,,,,,,,,,,,,,,,,,,,,,,,,,,prac,2,2,2,positive,positive,j,j,1,1.1113586999999825,111.53820799999812,112.55872549999913,112.5139807999949,None,111.53820799999812,None,111.53820799999812,None,111.53820799999812,None,113.6348169600038,None,113.6348169600038,None,113.6348169600038,None,,,,,,,,,,,111,23,Female,2022-05-03_20h03.40.449,Boat,2022.1.1,59.97638130099012,
neutral,negative,1,k,k,,,,,0,11,11,7,,,,,,,,,,,,,,,,,,,,,,,,,,,,prac,1,1,1,negative,neutral,k,k,1,0.7107194999989588,113.65076269999554,114.66423199999554,114.62788280000677,None,113.65076269999554,None,113.65076269999554,None,113.65076269999554,None,115.34848835999728,None,115.34848835999728,None,115.34848835999728,None,,,,,,,,,,,111,23,Female,2022-05-03_20h03.40.449,Boat,2022.1.1,59.97638130099012,
neutral,positive,2,k,k,,,,,0,12,12,13,,,,,,,,,,,,,,,,,,,,,,,,,,,,prac,1,1,2,positive,neutral,k,k,1,0.9124144999950659,115.36377130000619,116.37991380000312,116.34430850000354,None,115.36377130000619,None,115.36377130000619,None,115.36377130000619,None,117.26405156000109,None,117.26405156000109,None,117.26405156000109,None,,,,,,,,,,,111,23,Female,2022-05-03_20h03.40.449,Boat,2022.1.1,59.97638130099012,
negative,negative,1,j,l,,,,,0,13,13,0,,,,,,,,,,,,,,,,,,,,,,,,,,,,prac,2,2,1,negative,negative,l,l,1,1.0378988000011304,117.27846339999815,118.27979040000355,118.27979040000355,None,117.27846339999815,None,117.27846339999815,None,117.27846339999815,None,119.30227255999634,None,119.30227255999634,None,119.30227255999634,None,,,,,,,,,,,111,23,Female,2022-05-03_20h03.40.449,Boat,2022.1.1,59.97638130099012,
negative,positive,1,j,l,,,,,0,14,14,6,,,,,,,,,,,,,,,,,,,,,,,,,,,,prac,2,2,1,positive,negative,l,l,1,0.6492584999941755,119.31831440000678,120.33203479999793,120.2969185999973,None,119.31831440000678,None,119.31831440000678,None,119.31831440000678,None,120.95435906000202,None,120.95435906000202,None,120.95435906000202,None,,,,,,,,,,,111,23,Female,2022-05-03_20h03.40.449,Boat,2022.1.1,59.97638130099012,
neutral,neutral,2,k,k,,,,,0,15,15,10,,,,,,,,,,,,,,,,,,,,,,,,,,,,prac,2,2,2,neutral,neutral,k,k,1,0.8061403000028804,120.96889829999418,121.99200890000793,121.9474676999962,None,120.96889829999418,None,120.96889829999418,None,120.96889829999418,None,122.76404646000591,None,122.76404646000591,None,122.76404646000591,None,,,,,,,,,,,111,23,Female,2022-05-03_20h03.40.449,Boat,2022.1.1,59.97638130099012,
positive,negative,2,l,j,,,,,0,16,16,14,,,,,,,,,,,,,,,,,,,,,,,,,,,,prac,2,2,2,negative,positive,j,j,1,0.8026884999999311,122.7801746000041,123.78061760000128,123.74733250000281,None,122.7801746000041,None,122.7801746000041,None,122.7801746000041,None,124.5689915600029,None,124.5689915600029,None,124.5689915600029,None,,,,,,,,,,,111,23,Female,2022-05-03_20h03.40.449,Boat,2022.1.1,59.97638130099012,
neutral,positive,1,k,k,,,,,0,17,17,4,,,,,,,,,,,,,,,,,,,,,,,,,,,,prac,1,1,1,positive,neutral,k,k,1,1.3011699999915436,124.58298200000718,125.59464189999562,125.5772108999954,None,124.58298200000718,None,124.58298200000718,None,124.58298200000718,None,126.86964005999616,None,126.86964005999616,None,126.86964005999616,None,,,,,,,,,,,111,23,Female,2022-05-03_20h03.40.449,Boat,2022.1.1,59.97638130099012,
negative,positive,1,j,l,,,,,1,0,18,6,,,,,,,,,,,,,,,,,,,,,,,,,,,,prac,1,1,1,positive,negative,l,l,1,0.8773099999962142,126.88677290000487,127.906942600006,127.86535590000858,None,126.88677290000487,None,126.88677290000487,None,126.88677290000487,None,128.7509396600013,None,128.7509396600013,None,128.7509396600013,None,,,,,,,,,,,111,23,Female,2022-05-03_20h03.40.449,Boat,2022.1.1,59.97638130099012,
neutral,positive,1,k,k,,,,,1,1,19,4,,,,,,,,,,,,,,,,,,,,,,,,,,,,prac,2,2,1,positive,neutral,k,k,1,0.6794403000094462,128.76703730000008,129.79250799999863,129.74800979999418,None,128.76703730000008,None,128.76703730000008,None,128.76703730000008,None,130.4329216599959,None,130.4329216599959,None,130.4329216599959,None,,,,,,,,,,,111,23,Female,2022-05-03_20h03.40.449,Boat,2022.1.1,59.97638130099012,
neutral,negative,1,k,k,,,,,1,2,20,7,,,,,,,,,,,,,,,,,,,,,,,,,,,,prac,2,2,1,negative,neutral,k,k,1,1.3860143000056269,130.44789359999413,131.46422920000623,131.44585010000446,None,130.44789359999413,None,130.44789359999413,None,130.44789359999413,None,132.82068886000488,None,132.82068886000488,None,132.82068886000488,None,,,,,,,,,,,111,23,Female,2022-05-03_20h03.40.449,Boat,2022.1.1,59.97638130099012,
positive,positive,2,l,j,,,,,1,3,21,11,,,,,,,,,,,,,,,,,,,,,,,,,,,,prac,1,1,2,positive,positive,j,j,1,0.7014004000084242,132.83520470000803,133.84732509999594,133.8266389000055,None,132.83520470000803,None,132.83520470000803,None,132.83520470000803,None,134.5253856599971,None,134.5253856599971,None,134.5253856599971,None,,,,,,,,,,,111,23,Female,2022-05-03_20h03.40.449,Boat,2022.1.1,59.97638130099012,
neutral,negative,2,k,k,,,,,1,4,22,16,,,,,,,,,,,,,,,,,,,,,,,,,,,,prac,2,2,2,negative,neutral,k,k,1,0.5772956000000704,134.54359139999724,135.5597745999985,135.51398230000632,None,134.54359139999724,None,134.54359139999724,None,134.54359139999724,None,136.10356646,None,136.10356646,None,136.10356646,None,,,,,,,,,,,111,23,Female,2022-05-03_20h03.40.449,Boat,2022.1.1,59.97638130099012,
neutral,neutral,2,k,k,,,,,1,5,23,10,,,,,,,,,,,,,,,,,,,,,,,,,,,,prac,2,2,2,neutral,neutral,k,k,1,0.6622008999984246,136.11857740000414,137.1408841000084,137.09800040000118,None,136.11857740000414,None,136.11857740000414,None,136.11857740000414,None,137.76750445999787,None,137.76750445999787,None,137.76750445999787,None,,,,,,,,,,,111,23,Female,2022-05-03_20h03.40.449,Boat,2022.1.1,59.97638130099012,
neutral,neutral,1,k,k,,,,,1,6,24,1,,,,,,,,,,,,,,,,,,,,,,,,,,,,prac,1,1,1,neutral,neutral,k,k,1,0.6678892000054475,137.78237270000682,138.7964820000052,138.7779506999941,None,137.78237270000682,None,137.78237270000682,None,137.78237270000682,None,139.43912695999606,None,139.43912695999606,None,139.43912695999606,None,,,,,,,,,,,111,23,Female,2022-05-03_20h03.40.449,Boat,2022.1.1,59.97638130099012,
negative,positive,2,j,l,,,,,1,7,25,15,,,,,,,,,,,,,,,,,,,,,,,,,,,,prac,1,1,2,positive,negative,l,l,1,0.7785035999986576,139.45309320000524,140.46305869999924,140.44504590000724,None,139.45309320000524,None,139.45309320000524,None,139.45309320000524,None,141.2180895599973,None,141.2180895599973,None,141.2180895599973,None,,,,,,,,,,,111,23,Female,2022-05-03_20h03.40.449,Boat,2022.1.1,59.97638130099012,
neutral,positive,2,k,k,,,,,1,8,26,13,,,,,,,,,,,,,,,,,,,,,,,,,,,,prac,2,2,2,positive,neutral,k,k,1,1.2766579000017373,141.23284199999762,142.24717360000068,142.2105717000086,None,141.23284199999762,None,141.23284199999762,None,141.23284199999762,None,143.49816346000588,None,143.49816346000588,None,143.49816346000588,None,,,,,,,,,,,111,23,Female,2022-05-03_20h03.40.449,Boat,2022.1.1,59.97638130099012,
negative,negative,1,j,l,,,,,1,9,27,0,,,,,,,,,,,,,,,,,,,,,,,,,,,,prac,1,1,1,negative,negative,l,l,1,0.8527379000006476,143.51303099999495,144.5239794999943,144.497466300003,None,143.51303099999495,None,143.51303099999495,None,143.51303099999495,None,145.35293355999747,None,145.35293355999747,None,145.35293355999747,None,,,,,,,,,,,111,23,Female,2022-05-03_20h03.40.449,Boat,2022.1.1,59.97638130099012,
positive,positive,1,l,j,,,,,1,10,28,2,,,,,,,,,,,,,,,,,,,,,,,,,,,,prac,2,2,1,positive,positive,j,j,1,1.064290100010112,145.36806120000256,146.39244140000665,146.37386849999893,None,145.36806120000256,None,145.36806120000256,None,145.36806120000256,None,147.4194950600009,None,147.4194950600009,None,147.4194950600009,None,,,,,,,,,,,111,23,Female,2022-05-03_20h03.40.449,Boat,2022.1.1,59.97638130099012,
positive,negative,2,l,j,,,,,1,11,29,14,,,,,,,,,,,,,,,,,,,,,,,,,,,,prac,2,2,2,negative,positive,j,j,1,0.797979299997678,147.43636669999978,148.4477806000068,148.4143034000008,None,147.43636669999978,None,147.43636669999978,None,147.43636669999978,None,149.21956295999698,None,149.21956295999698,None,149.21956295999698,None,,,,,,,,,,,111,23,Female,2022-05-03_20h03.40.449,Boat,2022.1.1,59.97638130099012,
negative,neutral,2,j,l,,,,,1,12,30,12,,,,,,,,,,,,,,,,,,,,,,,,,,,,prac,2,2,2,neutral,negative,l,l,1,0.9479912000097102,149.233475800007,150.24565739999525,150.22733930000686,None,149.233475800007,None,149.233475800007,None,149.233475800007,None,151.16889835999754,None,151.16889835999754,None,151.16889835999754,None,,,,,,,,,,,111,23,Female,2022-05-03_20h03.40.449,Boat,2022.1.1,59.97638130099012,
negative,negative,2,j,l,,,,,1,13,31,9,,,,,,,,,,,,,,,,,,,,,,,,,,,,prac,2,2,2,negative,negative,l,l,1,0.7154219000076409,151.18381529999897,152.1977324000036,152.16140409999934,None,151.18381529999897,None,151.18381529999897,None,151.18381529999897,None,152.88618916000414,None,152.88618916000414,None,152.88618916000414,None,,,,,,,,,,,111,23,Female,2022-05-03_20h03.40.449,Boat,2022.1.1,59.97638130099012,
positive,negative,1,l,j,,,,,1,14,32,5,,,,,,,,,,,,,,,,,,,,,,,,,,,,prac,1,1,1,negative,positive,j,j,1,1.0148480999923777,152.9014016000001,153.91359520000697,153.89609340000607,None,152.9014016000001,None,152.9014016000001,None,152.9014016000001,None,154.90349535999994,None,154.90349535999994,None,154.90349535999994,None,,,,,,,,,,,111,23,Female,2022-05-03_20h03.40.449,Boat,2022.1.1,59.97638130099012,
negative,neutral,1,j,l,,,,,1,15,33,3,,,,,,,,,,,,,,,,,,,,,,,,,,,,prac,1,1,1,neutral,negative,l,l,1,0.8471152000129223,154.91746700000658,155.9288794000022,155.9106116000039,None,154.91746700000658,None,154.91746700000658,None,154.91746700000658,None,156.75233235999767,None,156.75233235999767,None,156.75233235999767,None,,,,,,,,,,,111,23,Female,2022-05-03_20h03.40.449,Boat,2022.1.1,59.97638130099012,
positive,neutral,2,l,j,,,,,1,16,34,17,,,,,,,,,,,,,,,,,,,,,,,,,,,,prac,2,2,2,neutral,positive,j,j,1,1.5002649999951245,156.76771559999906,157.78184070000134,157.74815699999453,None,156.76771559999906,None,156.76771559999906,None,156.76771559999906,None,159.25779350000084,None,159.25779350000084,None,159.25779350000084,None,,,,,,,,,,,111,23,Female,2022-05-03_20h03.40.449,Boat,2022.1.1,59.97638130099012,
positive,neutral,1,l,j,,,,,1,17,35,8,,,,,,,,,,,,,,,,,,,,,,,,,,,,prac,1,1,1,neutral,positive,j,j,1,0.9864256000000751,160.26647210000374,161.28198590000102,161.24651979999908,None,160.26647210000374,None,160.26647210000374,None,160.26647210000374,None,162.2390460600087,None,162.2390460600087,None,162.2390460600087,None,,,,,,,,,,,111,23,Female,2022-05-03_20h03.40.449,Boat,2022.1.1,59.97638130099012,
,,,,,,,,,,,,,,,,,,,,,,,,,,,,,,,,,,,,,,,,,,,,,,,,,,,,,,,,,,,,,,,,,,162.2517402000085,None,None,,,,,,,,111,23,Female,2022-05-03_20h03.40.449,Boat,2022.1.1,59.97638130099012,
,,,,,,,,,,,,,,,,,,,,,,,,,,,,,,,,,,,,,,,,,,,,,,,,,,,,,,,,,,,,,,,,,,,,,0.725,0.41666666,1,0,0,0.005869960004929453,None,111,23,Female,2022-05-03_20h03.40.449,Boat,2022.1.1,59.97638130099012,
negative,negative,2,j,l,,,,,,,,,0,0,0,9,,,,,,,,,,,,,,,,,,,,,,205.9608952999988,None,main,1,1,2,negative,negative,l,l,1,0.892892000003485,207.9794971000083,208.98270019999472,208.94901799999934,None,207.9794971000083,None,207.9794971000083,None,207.9794971000083,None,209.8534743599972,None,209.8534743599972,None,209.8534743599972,None,,,,,,,,,,,111,23,Female,2022-05-03_20h03.40.449,Boat,2022.1.1,59.97638130099012,
neutral,negative,2,k,k,,,,,,,,,0,1,1,16,,,,,,,,,,,,,,,,,,,,,,,,main,1,1,2,negative,neutral,k,k,1,0.690873699990334,209.87358319999475,210.88238910000655,210.84808500000509,None,209.87358319999475,None,209.87358319999475,None,209.87358319999475,None,211.54956265999644,None,211.54956265999644,None,211.54956265999644,None,,,,,,,,,,,111,23,Female,2022-05-03_20h03.40.449,Boat,2022.1.1,59.97638130099012,
positive,neutral,2,l,j,,,,,,,,,0,2,2,17,,,,,,,,,,,,,,,,,,,,,,,,main,2,2,2,neutral,positive,j,j,1,0.7468394999887096,211.56600760000583,212.5809586999967,212.56255830000737,None,211.56600760000583,None,211.56600760000583,None,211.56600760000583,None,213.2990401600051,None,213.2990401600051,None,213.2990401600051,None,,,,,,,,,,,111,23,Female,2022-05-03_20h03.40.449,Boat,2022.1.1,59.97638130099012,
positive,negative,1,l,j,,,,,,,,,0,3,3,5,,,,,,,,,,,,,,,,,,,,,,,,main,2,2,1,negative,positive,j,j,1,0.8347136000083992,213.316533899997,214.33125570000266,214.2953456999967,None,213.316533899997,None,213.316533899997,None,213.316533899997,None,215.13710005999891,None,215.13710005999891,None,215.13710005999891,None,,,,,,,,,,,111,23,Female,2022-05-03_20h03.40.449,Boat,2022.1.1,59.97638130099012,
positive,positive,2,l,j,,,,,,,,,0,4,4,11,,,,,,,,,,,,,,,,,,,,,,,,main,2,2,2,positive,positive,j,j,1,0.766139800005476,215.15256780000345,216.1758958999999,216.13262950000353,None,215.15256780000345,None,215.15256780000345,None,215.15256780000345,None,216.9048000599956,None,216.9048000599956,None,216.9048000599956,None,,,,,,,,,,,111,23,Female,2022-05-03_20h03.40.449,Boat,2022.1.1,59.97638130099012,
neutral,neutral,1,k,k,,,,,,,,,0,5,5,1,,,,,,,,,,,,,,,,,,,,,,,,main,2,2,1,neutral,neutral,k,k,1,0.6130886000028113,216.92161089999718,217.94431690000056,217.89976529999694,None,216.92161089999718,None,216.92161089999718,None,216.92161089999718,None,218.52082935999496,None,218.52082935999496,None,218.52082935999496,None,,,,,,,,,,,111,23,Female,2022-05-03_20h03.40.449,Boat,2022.1.1,59.97638130099012,
negative,positive,2,j,l,,,,,,,,,0,6,6,15,,,,,,,,,,,,,,,,,,,,,,,,main,1,1,2,positive,negative,l,l,1,0.6981616999983089,218.53745810000692,219.56075299999793,219.51551630000176,None,218.53745810000692,None,218.53745810000692,None,218.53745810000692,None,220.2216566600051,None,220.2216566600051,None,220.2216566600051,None,,,,,,,,,,,111,23,Female,2022-05-03_20h03.40.449,Boat,2022.1.1,59.97638130099012,
positive,negative,2,l,j,,,,,,,,,0,7,7,14,,,,,,,,,,,,,,,,,,,,,,,,main,2,2,2,negative,positive,j,j,1,0.796501899996656,220.23790370000643,221.24929550000525,221.21600440000475,None,220.23790370000643,None,220.23790370000643,None,220.23790370000643,None,222.0206992600084,None,222.0206992600084,None,222.0206992600084,None,,,,,,,,,,,111,23,Female,2022-05-03_20h03.40.449,Boat,2022.1.1,59.97638130099012,
neutral,positive,2,k,k,,,,,,,,,0,8,8,13,,,,,,,,,,,,,,,,,,,,,,,,main,2,2,2,positive,neutral,k,k,1,0.7840686999988975,222.037144300004,223.04962079999677,223.01508349999494,None,222.037144300004,None,222.037144300004,None,222.037144300004,None,223.80799936000548,None,223.80799936000548,None,223.80799936000548,None,,,,,,,,,,,111,23,Female,2022-05-03_20h03.40.449,Boat,2022.1.1,59.97638130099012,
positive,neutral,1,l,j,,,,,,,,,0,9,9,8,,,,,,,,,,,,,,,,,,,,,,,,main,2,2,1,neutral,positive,j,j,1,0.8777987999928882,223.82346580000012,224.82997839999734,224.8119563000073,None,223.82346580000012,None,223.82346580000012,None,223.82346580000012,None,225.6871805600036,None,225.6871805600036,None,225.6871805600036,None,,,,,,,,,,,111,23,Female,2022-05-03_20h03.40.449,Boat,2022.1.1,59.97638130099012,
negative,neutral,1,j,l,,,,,,,,,0,10,10,3,,,,,,,,,,,,,,,,,,,,,,,,main,2,2,1,neutral,negative,l,l,1,0.6966595999983838,225.70283219999692,226.71499100000074,226.6784284000023,None,225.70283219999692,None,225.70283219999692,None,225.70283219999692,None,227.38638446000695,None,227.38638446000695,None,227.38638446000695,None,,,,,,,,,,,111,23,Female,2022-05-03_20h03.40.449,Boat,2022.1.1,59.97638130099012,
neutral,negative,1,k,k,,,,,,,,,0,11,11,7,,,,,,,,,,,,,,,,,,,,,,,,main,2,2,1,negative,neutral,k,k,1,0.7076359999919077,227.40220589999808,228.41338410000026,228.3779164000007,None,227.40220589999808,None,227.40220589999808,None,227.40220589999808,None,229.097517160009,None,229.097517160009,None,229.097517160009,None,,,,,,,,,,,111,23,Female,2022-05-03_20h03.40.449,Boat,2022.1.1,59.97638130099012,
positive,positive,1,l,j,,,,,,,,,0,12,12,2,,,,,,,,,,,,,,,,,,,,,,,,main,2,2,1,positive,positive,j,j,1,0.5400506000005407,229.11764799999946,230.1329565000051,230.09742550000374,None,229.11764799999946,None,229.11764799999946,None,229.11764799999946,None,230.63873136000765,None,230.63873136000765,None,230.63873136000765,None,,,,,,,,,,,111,23,Female,2022-05-03_20h03.40.449,Boat,2022.1.1,59.97638130099012,
negative,negative,1,j,l,,,,,,,,,0,13,13,0,,,,,,,,,,,,,,,,,,,,,,,,main,2,2,1,negative,negative,l,l,1,0.8786108000058448,230.6547172999999,231.66604929999448,231.62986450000608,None,230.6547172999999,None,230.6547172999999,None,230.6547172999999,None,232.5194798600074,None,232.5194798600074,None,232.5194798600074,None,,,,,,,,,,,111,23,Female,2022-05-03_20h03.40.449,Boat,2022.1.1,59.97638130099012,
negative,neutral,2,j,l,,,,,,,,,0,14,14,12,,,,,,,,,,,,,,,,,,,,,,,,main,2,2,2,neutral,negative,l,l,1,1.0287739999912446,232.53618720000668,233.5484962000046,233.5120098000043,None,232.53618720000668,None,232.53618720000668,None,232.53618720000668,None,234.55175346000178,None,234.55175346000178,None,234.55175346000178,None,,,,,,,,,,,111,23,Female,2022-05-03_20h03.40.449,Boat,2022.1.1,59.97638130099012,
negative,positive,1,j,l,,,,,,,,,0,15,15,6,,,,,,,,,,,,,,,,,,,,,,,,main,2,2,1,positive,negative,l,l,1,0.7201402999926358,234.56877120000718,235.58313810000254,235.54820669999754,None,234.56877120000718,None,234.56877120000718,None,234.56877120000718,None,236.2747162600077,None,236.2747162600077,None,236.2747162600077,None,,,,,,,,,,,111,23,Female,2022-05-03_20h03.40.449,Boat,2022.1.1,59.97638130099012,
neutral,neutral,2,k,k,,,,,,,,,0,16,16,10,,,,,,,,,,,,,,,,,,,,,,,,main,2,2,2,neutral,neutral,k,k,1,0.6445512999925995,236.2910225999949,237.30106900000828,237.26646009999968,None,236.2910225999949,None,236.2910225999949,None,236.2910225999949,None,237.9211872600077,None,237.9211872600077,None,237.9211872600077,None,,,,,,,,,,,111,23,Female,2022-05-03_20h03.40.449,Boat,2022.1.1,59.97638130099012,
neutral,positive,1,k,k,,,,,,,,,0,17,17,4,,,,,,,,,,,,,,,,,,,,,,,,main,2,2,1,positive,neutral,k,k,1,0.5634985999931814,237.93624500000442,238.9596598000062,238.9164168999996,None,237.93624500000442,None,237.93624500000442,None,237.93624500000442,None,239.48699555999482,None,239.48699555999482,None,239.48699555999482,None,,,,,,,,,,,111,23,Female,2022-05-03_20h03.40.449,Boat,2022.1.1,59.97638130099012,
negative,positive,2,j,l,,,,,,,,,1,0,18,15,,,,,,,,,,,,,,,,,,,,,,,,main,1,1,2,positive,negative,l,l,1,0.7649853999901097,239.50342550000641,240.5161863999965,240.47983430000022,None,239.50342550000641,None,239.50342550000641,None,239.50342550000641,None,241.2539789600065,None,241.2539789600065,None,241.2539789600065,None,,,,,,,,,,,111,23,Female,2022-05-03_20h03.40.449,Boat,2022.1.1,59.97638130099012,
neutral,positive,2,k,k,,,,,,,,,1,1,19,13,,,,,,,,,,,,,,,,,,,,,,,,main,1,1,2,positive,neutral,k,k,1,1.1714915000047768,241.26969149999786,242.29306910000741,242.24990369999432,None,241.26969149999786,None,241.26969149999786,None,241.26969149999786,None,243.4293392600026,None,243.4293392600026,None,243.4293392600026,None,,,,,,,,,,,111,23,Female,2022-05-03_20h03.40.449,Boat,2022.1.1,59.97638130099012,
neutral,negative,2,k,k,,,,,,,,,1,2,20,16,,,,,,,,,,,,,,,,,,,,,,,,main,2,2,2,negative,neutral,k,k,1,0.5898195000045234,243.4487644000037,244.45962259999942,244.41684390000592,None,243.4487644000037,None,243.4487644000037,None,243.4487644000037,None,245.0205005600088,None,245.0205005600088,None,245.0205005600088,None,,,,,,,,,,,111,23,Female,2022-05-03_20h03.40.449,Boat,2022.1.1,59.97638130099012,
positive,neutral,2,l,j,,,,,,,,,1,3,21,17,,,,,,,,,,,,,,,,,,,,,,,,main,2,2,2,neutral,positive,j,j,1,0.6640890999988187,245.03596259999904,246.03551529999822,246.01881439999852,None,245.03596259999904,None,245.03596259999904,None,245.03596259999904,None,246.6871892599971,None,246.6871892599971,None,246.6871892599971,None,,,,,,,,,,,111,23,Female,2022-05-03_20h03.40.449,Boat,2022.1.1,59.97638130099012,
positive,positive,1,l,j,,,,,,,,,1,4,22,2,,,,,,,,,,,,,,,,,,,,,,,,main,2,2,1,positive,positive,j,k,0,0.5966350000089733,246.70225420000497,247.71183349999774,247.69310449999466,None,246.70225420000497,None,246.70225420000497,None,246.70225420000497,None,248.29314540000632,None,248.29314540000632,None,248.29314540000632,None,,,,,,,,,,,111,23,Female,2022-05-03_20h03.40.449,Boat,2022.1.1,59.97638130099012,
negative,positive,1,j,l,,,,,,,,,1,5,23,6,,,,,,,,,,,,,,,,,,,,,,,,main,1,1,1,positive,negative,l,l,1,0.9049798999913037,249.30169380000734,250.31741099999635,250.28149039999698,None,249.30169380000734,None,249.30169380000734,None,249.30169380000734,None,251.19404666000045,None,251.19404666000045,None,251.19404666000045,None,,,,,,,,,,,111,23,Female,2022-05-03_20h03.40.449,Boat,2022.1.1,59.97638130099012,
positive,neutral,1,l,j,,,,,,,,,1,6,24,8,,,,,,,,,,,,,,,,,,,,,,,,main,1,1,1,neutral,positive,j,j,1,1.3752428000007058,251.21292420000827,252.217149899996,252.18202350000502,None,251.21292420000827,None,251.21292420000827,None,251.21292420000827,None,253.57175455999968,None,253.57175455999968,None,253.57175455999968,None,,,,,,,,,,,111,23,Female,2022-05-03_20h03.40.449,Boat,2022.1.1,59.97638130099012,
positive,positive,2,l,j,,,,,,,,,1,7,25,11,,,,,,,,,,,,,,,,,,,,,,,,main,2,2,2,positive,positive,j,j,1,0.714993500005221,253.5884861000086,254.61008769999899,254.56688030000078,None,253.5884861000086,None,253.5884861000086,None,253.5884861000086,None,255.28828226000186,None,255.28828226000186,None,255.28828226000186,None,,,,,,,,,,,111,23,Female,2022-05-03_20h03.40.449,Boat,2022.1.1,59.97638130099012,
positive,negative,2,l,j,,,,,,,,,1,8,26,14,,,,,,,,,,,,,,,,,,,,,,,,main,1,1,2,negative,positive,j,j,1,0.7266588999918895,255.3053671999951,256.32680690000416,256.2837928000081,None,255.3053671999951,None,255.3053671999951,None,255.3053671999951,None,257.01836815999707,None,257.01836815999707,None,257.01836815999707,None,,,,,,,,,,,111,23,Female,2022-05-03_20h03.40.449,Boat,2022.1.1,59.97638130099012,
neutral,neutral,1,k,k,,,,,,,,,1,9,27,1,,,,,,,,,,,,,,,,,,,,,,,,main,1,1,1,neutral,neutral,k,k,1,0.7012813000037568,257.03358289999596,258.0508162000042,258.01393119999557,None,257.03358289999596,None,257.03358289999596,None,257.03358289999596,None,258.7220760599972,None,258.7220760599972,None,258.7220760599972,None,,,,,,,,,,,111,23,Female,2022-05-03_20h03.40.449,Boat,2022.1.1,59.97638130099012,
negative,neutral,2,j,l,,,,,,,,,1,10,28,12,,,,,,,,,,,,,,,,,,,,,,,,main,1,1,2,neutral,negative,l,l,1,0.6607859000068856,258.73774019999837,259.76183319999836,259.7168071000051,None,258.73774019999837,None,258.73774019999837,None,258.73774019999837,None,260.3854922600091,None,260.3854922600091,None,260.3854922600091,None,,,,,,,,,,,111,23,Female,2022-05-03_20h03.40.449,Boat,2022.1.1,59.97638130099012,
positive,negative,1,l,j,,,,,,,,,1,11,29,5,,,,,,,,,,,,,,,,,,,,,,,,main,1,1,1,negative,positive,j,j,1,0.8174038999859476,260.4011421000032,261.41693950000627,261.38029810000444,None,260.4011421000032,None,260.4011421000032,None,260.4011421000032,None,262.2050887599995,None,262.2050887599995,None,262.2050887599995,None,,,,,,,,,,,111,23,Female,2022-05-03_20h03.40.449,Boat,2022.1.1,59.97638130099012,
negative,neutral,1,j,l,,,,,,,,,1,12,30,3,,,,,,,,,,,,,,,,,,,,,,,,main,2,2,1,neutral,negative,l,l,1,0.8150365000037709,262.21967220000806,263.23385420000704,263.19963600000483,None,262.21967220000806,None,262.21967220000806,None,262.21967220000806,None,264.02239156000144,None,264.02239156000144,None,264.02239156000144,None,,,,,,,,,,,111,23,Female,2022-05-03_20h03.40.449,Boat,2022.1.1,59.97638130099012,
negative,negative,2,j,l,,,,,,,,,1,13,31,9,,,,,,,,,,,,,,,,,,,,,,,,main,2,2,2,negative,negative,l,j,0,0.6240720999921905,264.03781639999943,265.06029920000583,265.0170048,None,264.03781639999943,None,264.03781639999943,None,264.03781639999943,None,265.6533863000077,None,265.6533863000077,None,265.6533863000077,None,,,,,,,,,,,111,23,Female,2022-05-03_20h03.40.449,Boat,2022.1.1,59.97638130099012,
neutral,negative,1,k,k,,,,,,,,,1,14,32,7,,,,,,,,,,,,,,,,,,,,,,,,main,2,2,1,negative,neutral,k,k,1,0.7161382000049343,266.6686272999941,267.6951779000083,267.65057969999907,None,266.6686272999941,None,266.6686272999941,None,266.6686272999941,None,268.37099495999576,None,268.37099495999576,None,268.37099495999576,None,,,,,,,,,,,111,23,Female,2022-05-03_20h03.40.449,Boat,2022.1.1,59.97638130099012,
neutral,neutral,2,k,k,,,,,,,,,1,15,33,10,,,,,,,,,,,,,,,,,,,,,,,,main,2,2,2,neutral,neutral,k,k,1,0.8325413999991724,268.38691250000556,269.4104933000053,269.36724170000525,None,268.38691250000556,None,268.38691250000556,None,268.38691250000556,None,270.2060270599992,None,270.2060270599992,None,270.2060270599992,None,,,,,,,,,,,111,23,Female,2022-05-03_20h03.40.449,Boat,2022.1.1,59.97638130099012,
negative,negative,1,j,l,,,,,,,,,1,16,34,0,,,,,,,,,,,,,,,,,,,,,,,,main,1,1,1,negative,negative,l,l,1,0.7826438000047347,270.22075849999965,271.232929699996,271.1967172000004,None,270.22075849999965,None,270.22075849999965,None,270.22075849999965,None,271.99052706000805,None,271.99052706000805,None,271.99052706000805,None,,,,,,,,,,,111,23,Female,2022-05-03_20h03.40.449,Boat,2022.1.1,59.97638130099012,
neutral,positive,1,k,k,,,,,,,,,1,17,35,4,,,,,,,,,,,,,,,,,,,,,,,,main,2,2,1,positive,neutral,k,k,1,0.629512400002568,272.0074309000047,273.02677419999964,272.98340880000615,None,272.0074309000047,None,272.0074309000047,None,272.0074309000047,None,273.62277215999495,None,273.62277215999495,None,273.62277215999495,None,,,,,,,,,,,111,23,Female,2022-05-03_20h03.40.449,Boat,2022.1.1,59.97638130099012,
neutral,negative,2,k,k,,,,,,,,,2,0,36,16,,,,,,,,,,,,,,,,,,,,,,,,main,2,2,2,negative,neutral,k,k,1,0.6300798999873223,273.63779360000626,274.650453299997,274.6142574999976,None,273.63779360000626,None,273.63779360000626,None,273.63779360000626,None,275.2551217600063,None,275.2551217600063,None,275.2551217600063,None,,,,,,,,,,,111,23,Female,2022-05-03_20h03.40.449,Boat,2022.1.1,59.97638130099012,
neutral,neutral,1,k,k,,,,,,,,,2,1,37,1,,,,,,,,,,,,,,,,,,,,,,,,main,2,2,1,neutral,neutral,k,k,1,0.6413523000082932,275.2711367000011,276.2858688999986,276.25091610000527,None,275.2711367000011,None,275.2711367000011,None,275.2711367000011,None,276.900732860007,None,276.900732860007,None,276.900732860007,None,,,,,,,,,,,111,23,Female,2022-05-03_20h03.40.449,Boat,2022.1.1,59.97638130099012,
positive,positive,2,l,j,,,,,,,,,2,2,38,11,,,,,,,,,,,,,,,,,,,,,,,,main,2,2,2,positive,positive,j,j,1,0.8017608000081964,276.9152782000019,277.9184513000073,277.901443499999,None,276.9152782000019,None,276.9152782000019,None,276.9152782000019,None,278.70393576000936,None,278.70393576000936,None,278.70393576000936,None,,,,,,,,,,,111,23,Female,2022-05-03_20h03.40.449,Boat,2022.1.1,59.97638130099012,
positive,neutral,2,l,j,,,,,,,,,2,3,39,17,,,,,,,,,,,,,,,,,,,,,,,,main,2,2,2,neutral,positive,j,j,1,0.6303886999958195,278.7197565999959,279.72841500000504,279.71056400000816,None,278.7197565999959,None,278.7197565999959,None,278.7197565999959,None,280.3370240599994,None,280.3370240599994,None,280.3370240599994,None,,,,,,,,,,,111,23,Female,2022-05-03_20h03.40.449,Boat,2022.1.1,59.97638130099012,
negative,negative,1,j,l,,,,,,,,,2,4,40,0,,,,,,,,,,,,,,,,,,,,,,,,main,1,1,1,negative,negative,l,l,1,0.7303627000073902,280.35437270000693,281.3768524000043,281.3338619999995,None,280.35437270000693,None,280.35437270000693,None,280.35437270000693,None,282.0699237599998,None,282.0699237599998,None,282.0699237599998,None,,,,,,,,,,,111,23,Female,2022-05-03_20h03.40.449,Boat,2022.1.1,59.97638130099012,
negative,neutral,2,j,l,,,,,,,,,2,5,41,12,,,,,,,,,,,,,,,,,,,,,,,,main,2,2,2,neutral,negative,l,l,1,0.9012446999986423,282.0854018999962,283.1104461000068,283.0673481999984,None,282.0854018999962,None,282.0854018999962,None,282.0854018999962,None,283.9734273599985,None,283.9734273599985,None,283.9734273599985,None,,,,,,,,,,,111,23,Female,2022-05-03_20h03.40.449,Boat,2022.1.1,59.97638130099012,
negative,positive,2,j,l,,,,,,,,,2,6,42,15,,,,,,,,,,,,,,,,,,,,,,,,main,1,1,2,positive,negative,l,l,1,0.678921700004139,283.9879818000045,285.00081189999764,284.98406930000056,None,283.9879818000045,None,283.9879818000045,None,283.9879818000045,None,285.6547371599969,None,285.6547371599969,None,285.6547371599969,None,,,,,,,,,,,111,23,Female,2022-05-03_20h03.40.449,Boat,2022.1.1,59.97638130099012,
positive,negative,1,l,j,,,,,,,,,2,7,43,5,,,,,,,,,,,,,,,,,,,,,,,,main,2,2,1,negative,positive,j,j,1,0.7470049999974435,285.66974100000516,286.6938298000023,286.65057330000855,None,285.66974100000516,None,285.66974100000516,None,285.66974100000516,None,287.40351366000834,None,287.40351366000834,None,287.40351366000834,None,,,,,,,,,,,111,23,Female,2022-05-03_20h03.40.449,Boat,2022.1.1,59.97638130099012,
positive,neutral,1,l,j,,,,,,,,,2,8,44,8,,,,,,,,,,,,,,,,,,,,,,,,main,2,2,1,neutral,positive,j,j,1,0.5995257999893511,287.4206592999981,288.4300332999992,288.4120952000085,None,287.4206592999981,None,287.4206592999981,None,287.4206592999981,None,289.0052710600081,None,289.0052710600081,None,289.0052710600081,None,,,,,,,,,,,111,23,Female,2022-05-03_20h03.40.449,Boat,2022.1.1,59.97638130099012,
negative,neutral,1,j,l,,,,,,,,,2,9,45,3,,,,,,,,,,,,,,,,,,,,,,,,main,2,2,1,neutral,negative,l,l,1,0.7472428000037326,289.02062090000254,290.0441389000043,290.00113810000767,None,289.02062090000254,None,289.02062090000254,None,289.02062090000254,None,290.75454125999534,None,290.75454125999534,None,290.75454125999534,None,,,,,,,,,,,111,23,Female,2022-05-03_20h03.40.449,Boat,2022.1.1,59.97638130099012,
positive,negative,2,l,j,,,,,,,,,2,10,46,14,,,,,,,,,,,,,,,,,,,,,,,,main,2,2,2,negative,positive,j,j,1,0.6315948000119533,290.769652899995,291.7937319000048,291.7508478999953,None,290.769652899995,None,290.769652899995,None,290.769652899995,None,292.38920906000715,None,292.38920906000715,None,292.38920906000715,None,,,,,,,,,,,111,23,Female,2022-05-03_20h03.40.449,Boat,2022.1.1,59.97638130099012,
neutral,neutral,2,k,k,,,,,,,,,2,11,47,10,,,,,,,,,,,,,,,,,,,,,,,,main,2,2,2,neutral,neutral,k,k,1,0.6986154999904102,292.4049060999969,293.41797330000554,293.3826387000008,None,292.4049060999969,None,292.4049060999969,None,292.4049060999969,None,294.08980455999847,None,294.08980455999847,None,294.08980455999847,None,,,,,,,,,,,111,23,Female,2022-05-03_20h03.40.449,Boat,2022.1.1,59.97638130099012,
negative,positive,1,j,l,,,,,,,,,2,12,48,6,,,,,,,,,,,,,,,,,,,,,,,,main,1,1,1,positive,negative,l,l,1,0.7017100999946706,294.10560920000717,295.12739920000604,295.08443879999686,None,294.10560920000717,None,294.10560920000717,None,294.10560920000717,None,295.79487685999777,None,295.79487685999777,None,295.79487685999777,None,,,,,,,,,,,111,23,Female,2022-05-03_20h03.40.449,Boat,2022.1.1,59.97638130099012,
positive,positive,1,l,j,,,,,,,,,2,13,49,2,,,,,,,,,,,,,,,,,,,,,,,,main,2,2,1,positive,positive,j,j,1,0.836072799997055,295.8112441999983,296.81412540000747,296.7964328999951,None,295.8112441999983,None,295.8112441999983,None,295.8112441999983,None,297.6336861600081,None,297.6336861600081,None,297.6336861600081,None,,,,,,,,,,,111,23,Female,2022-05-03_20h03.40.449,Boat,2022.1.1,59.97638130099012,
negative,negative,2,j,l,,,,,,,,,2,14,50,9,,,,,,,,,,,,,,,,,,,,,,,,main,2,2,2,negative,negative,l,l,1,0.6702152999932878,297.6486364000011,298.66360420000274,298.62722249999933,None,297.6486364000011,None,297.6486364000011,None,297.6486364000011,None,299.3059940600011,None,299.3059940600011,None,299.3059940600011,None,,,,,,,,,,,111,23,Female,2022-05-03_20h03.40.449,Boat,2022.1.1,59.97638130099012,
neutral,negative,1,k,k,,,,,,,,,2,15,51,7,,,,,,,,,,,,,,,,,,,,,,,,main,2,2,1,negative,neutral,k,k,1,0.6593274000042584,299.3223008000059,300.33439550000185,300.29937079999945,None,299.3223008000059,None,299.3223008000059,None,299.3223008000059,None,300.96757856000625,None,300.96757856000625,None,300.96757856000625,None,,,,,,,,,,,111,23,Female,2022-05-03_20h03.40.449,Boat,2022.1.1,59.97638130099012,
neutral,positive,1,k,k,,,,,,,,,2,16,52,4,,,,,,,,,,,,,,,,,,,,,,,,main,1,1,1,positive,neutral,k,k,1,0.5519498999929056,300.98448919999646,301.98441509999975,301.96767929999623,None,300.98448919999646,None,300.98448919999646,None,300.98448919999646,None,302.5231171599968,None,302.5231171599968,None,302.5231171599968,None,,,,,,,,,,,111,23,Female,2022-05-03_20h03.40.449,Boat,2022.1.1,59.97638130099012,
neutral,positive,2,k,k,,,,,,,,,2,17,53,13,,,,,,,,,,,,,,,,,,,,,,,,main,1,1,2,positive,neutral,k,k,1,0.8479678000003332,302.5385893000057,303.56126740000036,303.5185422000068,None,302.5385893000057,None,302.5385893000057,None,302.5385893000057,None,304.37339786000086,None,304.37339786000086,None,304.37339786000086,None,,,,,,,,,,,111,23,Female,2022-05-03_20h03.40.449,Boat,2022.1.1,59.97638130099012,
neutral,negative,1,k,k,,,,,,,,,3,0,54,7,,,,,,,,,,,,,,,,,,,,,,,,main,2,2,1,negative,neutral,k,k,1,0.6304653999977745,304.38898530000006,305.401171599995,305.3662758999999,None,304.38898530000006,None,304.38898530000006,None,304.38898530000006,None,306.0057646599977,None,306.0057646599977,None,306.0057646599977,None,,,,,,,,,,,111,23,Female,2022-05-03_20h03.40.449,Boat,2022.1.1,59.97638130099012,
negative,positive,1,j,l,,,,,,,,,3,1,55,6,,,,,,,,,,,,,,,,,,,,,,,,main,1,1,1,positive,negative,l,l,1,0.7088884999975562,306.02094640000723,307.0306694000028,307.0127060000086,None,306.02094640000723,None,306.02094640000723,None,306.02094640000723,None,307.7111686600052,None,307.7111686600052,None,307.7111686600052,None,,,,,,,,,,,111,23,Female,2022-05-03_20h03.40.449,Boat,2022.1.1,59.97638130099012,
negative,neutral,1,j,l,,,,,,,,,3,2,56,3,,,,,,,,,,,,,,,,,,,,,,,,main,1,1,1,neutral,negative,l,l,1,0.6609631000028457,307.7407666000072,308.76296269999875,308.71798359999957,None,307.7407666000072,None,307.7407666000072,None,307.7407666000072,None,309.38305415999787,None,309.38305415999787,None,309.38305415999787,None,,,,,,,,,,,111,23,Female,2022-05-03_20h03.40.449,Boat,2022.1.1,59.97638130099012,
positive,positive,2,l,j,,,,,,,,,3,3,57,11,,,,,,,,,,,,,,,,,,,,,,,,main,1,1,2,positive,positive,j,j,1,0.9689409999991767,309.4002127999993,310.40136830000847,310.3830646999995,None,309.4002127999993,None,309.4002127999993,None,309.4002127999993,None,311.35442476000173,None,311.35442476000173,None,311.35442476000173,None,,,,,,,,,,,111,23,Female,2022-05-03_20h03.40.449,Boat,2022.1.1,59.97638130099012,
positive,neutral,2,l,j,,,,,,,,,3,4,58,17,,,,,,,,,,,,,,,,,,,,,,,,main,1,1,2,neutral,positive,j,j,1,0.6177042999916011,311.3708021000057,312.3945042999985,312.3515672000067,None,311.3708021000057,None,311.3708021000057,None,311.3708021000057,None,312.97481166000364,None,312.97481166000364,None,312.97481166000364,None,,,,,,,,,,,111,23,Female,2022-05-03_20h03.40.449,Boat,2022.1.1,59.97638130099012,
negative,negative,2,j,l,,,,,,,,,3,5,59,9,,,,,,,,,,,,,,,,,,,,,,,,main,2,2,2,negative,negative,l,l,1,0.761136200002511,312.9901646000071,314.002115700001,313.9670088999992,None,312.9901646000071,None,312.9901646000071,None,312.9901646000071,None,314.7382774600061,None,314.7382774600061,None,314.7382774600061,None,,,,,,,,,,,111,23,Female,2022-05-03_20h03.40.449,Boat,2022.1.1,59.97638130099012,
negative,neutral,2,j,l,,,,,,,,,3,6,60,12,,,,,,,,,,,,,,,,,,,,,,,,main,1,1,2,neutral,negative,l,l,1,0.8690021999937017,314.753699199995,315.7681823000021,315.73184449999826,None,314.753699199995,None,314.753699199995,None,314.753699199995,None,316.6080984600063,None,316.6080984600063,None,316.6080984600063,None,,,,,,,,,,,111,23,Female,2022-05-03_20h03.40.449,Boat,2022.1.1,59.97638130099012,
neutral,neutral,1,k,k,,,,,,,,,3,7,61,1,,,,,,,,,,,,,,,,,,,,,,,,main,2,2,1,neutral,neutral,k,k,1,0.6667949999973644,316.625426300001,317.63515339999867,317.59966449999774,None,316.625426300001,None,316.625426300001,None,316.625426300001,None,318.2791634600086,None,318.2791634600086,None,318.2791634600086,None,,,,,,,,,,,111,23,Female,2022-05-03_20h03.40.449,Boat,2022.1.1,59.97638130099012,
positive,negative,1,l,j,,,,,,,,,3,8,62,5,,,,,,,,,,,,,,,,,,,,,,,,main,2,2,1,negative,positive,j,j,1,0.7763473999948474,318.29678570000397,319.31279840000207,319.2684021000023,None,318.29678570000397,None,318.29678570000397,None,318.29678570000397,None,320.0574774600042,None,320.0574774600042,None,320.0574774600042,None,,,,,,,,,,,111,23,Female,2022-05-03_20h03.40.449,Boat,2022.1.1,59.97638130099012,
neutral,positive,1,k,k,,,,,,,,,3,9,63,4,,,,,,,,,,,,,,,,,,,,,,,,main,2,2,1,positive,neutral,k,k,1,0.6438047000119695,320.07392830000026,321.0846479000029,321.0496271000011,None,320.07392830000026,None,320.07392830000026,None,320.07392830000026,None,321.70393916000614,None,321.70393916000614,None,321.70393916000614,None,,,,,,,,,,,111,23,Female,2022-05-03_20h03.40.449,Boat,2022.1.1,59.97638130099012,
positive,positive,1,l,j,,,,,,,,,3,10,64,2,,,,,,,,,,,,,,,,,,,,,,,,main,2,2,1,positive,positive,j,j,1,0.7636380000039935,321.7208146000048,322.729537399995,322.7113967000041,None,321.7208146000048,None,321.7208146000048,None,321.7208146000048,None,323.4699010599958,None,323.4699010599958,None,323.4699010599958,None,,,,,,,,,,,111,23,Female,2022-05-03_20h03.40.449,Boat,2022.1.1,59.97638130099012,
neutral,negative,2,k,k,,,,,,,,,3,11,65,16,,,,,,,,,,,,,,,,,,,,,,,,main,2,2,2,negative,neutral,k,k,1,1.233998399999109,323.486713899998,324.5017430000007,324.46816040000704,None,323.486713899998,None,323.486713899998,None,323.486713899998,None,325.70638376000863,None,325.70638376000863,None,325.70638376000863,None,,,,,,,,,,,111,23,Female,2022-05-03_20h03.40.449,Boat,2022.1.1,59.97638130099012,
neutral,neutral,2,k,k,,,,,,,,,3,12,66,10,,,,,,,,,,,,,,,,,,,,,,,,main,2,2,2,neutral,neutral,k,k,1,0.8649577999894973,325.72257470000477,326.74458559999766,326.7016287000006,None,325.72257470000477,None,325.72257470000477,None,325.72257470000477,None,327.57430806000195,None,327.57430806000195,None,327.57430806000195,None,,,,,,,,,,,111,23,Female,2022-05-03_20h03.40.449,Boat,2022.1.1,59.97638130099012,
positive,neutral,1,l,j,,,,,,,,,3,13,67,8,,,,,,,,,,,,,,,,,,,,,,,,main,2,2,1,neutral,positive,j,j,1,0.8431031000072835,327.58933570000227,328.60178460000316,328.5664067000034,None,327.58933570000227,None,327.58933570000227,None,327.58933570000227,None,329.41853256000616,None,329.41853256000616,None,329.41853256000616,None,,,,,,,,,,,111,23,Female,2022-05-03_20h03.40.449,Boat,2022.1.1,59.97638130099012,
positive,negative,2,l,j,,,,,,,,,3,14,68,14,,,,,,,,,,,,,,,,,,,,,,,,main,2,2,2,negative,positive,j,j,1,0.8018641000089701,329.4356661000056,330.4467044000048,330.4286362999992,None,329.4356661000056,None,329.4356661000056,None,329.4356661000056,None,331.223942560007,None,331.223942560007,None,331.223942560007,None,,,,,,,,,,,111,23,Female,2022-05-03_20h03.40.449,Boat,2022.1.1,59.97638130099012,
neutral,positive,2,k,k,,,,,,,,,3,15,69,13,,,,,,,,,,,,,,,,,,,,,,,,main,1,1,2,positive,neutral,k,k,1,0.8471380999981193,331.2390729000035,332.26325210000505,332.2187797000079,None,331.2390729000035,None,331.2390729000035,None,331.2390729000035,None,333.0734551599977,None,333.0734551599977,None,333.0734551599977,None,,,,,,,,,,,111,23,Female,2022-05-03_20h03.40.449,Boat,2022.1.1,59.97638130099012,
negative,positive,2,j,l,,,,,,,,,3,16,70,15,,,,,,,,,,,,,,,,,,,,,,,,main,2,2,2,positive,negative,l,l,1,0.8387326999945799,333.08872100000735,334.0992755000043,334.0634069999942,None,333.08872100000735,None,333.08872100000735,None,333.08872100000735,None,334.91560646000437,None,334.91560646000437,None,334.91560646000437,None,,,,,,,,,,,111,23,Female,2022-05-03_20h03.40.449,Boat,2022.1.1,59.97638130099012,
negative,negative,1,j,l,,,,,,,,,3,17,71,0,,,,,,,,,,,,,,,,,,,,,,,,main,1,1,1,negative,negative,l,l,1,0.6885142999963136,334.93368210000335,335.94483639999817,335.90399819999584,None,334.93368210000335,None,334.93368210000335,None,334.93368210000335,None,336.60488315999976,None,336.60488315999976,None,336.60488315999976,None,,,,,,,,,,,111,23,Female,2022-05-03_20h03.40.449,Boat,2022.1.1,59.97638130099012,
positive,negative,2,l,j,,,,,,,,,4,0,72,14,,,,,,,,,,,,,,,,,,,,,,,,main,2,2,2,negative,positive,j,j,1,0.8303956999880029,336.6215491000039,337.63558170000033,337.59926450000785,None,336.6215491000039,None,336.6215491000039,None,336.6215491000039,None,338.4383273600048,None,338.4383273600048,None,338.4383273600048,None,,,,,,,,,,,111,23,Female,2022-05-03_20h03.40.449,Boat,2022.1.1,59.97638130099012,
negative,negative,2,j,l,,,,,,,,,4,1,73,9,,,,,,,,,,,,,,,,,,,,,,,,main,2,2,2,negative,negative,l,l,1,0.6670158000051742,338.4532648000022,339.45215900000767,339.4356864000001,None,338.4532648000022,None,338.4532648000022,None,338.4532648000022,None,340.10684915999593,None,340.10684915999593,None,340.10684915999593,None,,,,,,,,,,,111,23,Female,2022-05-03_20h03.40.449,Boat,2022.1.1,59.97638130099012,
neutral,neutral,2,k,k,,,,,,,,,4,2,74,10,,,,,,,,,,,,,,,,,,,,,,,,main,2,2,2,neutral,neutral,k,k,1,0.698474000004353,340.1229775999964,341.145056399997,341.10240879999765,None,340.1229775999964,None,340.1229775999964,None,340.1229775999964,None,341.80760546000386,None,341.80760546000386,None,341.80760546000386,None,,,,,,,,,,,111,23,Female,2022-05-03_20h03.40.449,Boat,2022.1.1,59.97638130099012,
positive,neutral,1,l,j,,,,,,,,,4,3,75,8,,,,,,,,,,,,,,,,,,,,,,,,main,1,1,1,neutral,positive,j,j,1,0.7437712999962969,341.82326030000695,342.8310913000023,342.8133267999947,None,341.82326030000695,None,341.82326030000695,None,341.82326030000695,None,343.55446816000915,None,343.55446816000915,None,343.55446816000915,None,,,,,,,,,,,111,23,Female,2022-05-03_20h03.40.449,Boat,2022.1.1,59.97638130099012,
negative,neutral,2,j,l,,,,,,,,,4,4,76,12,,,,,,,,,,,,,,,,,,,,,,,,main,2,2,2,neutral,negative,l,l,1,0.6474761999998009,343.5707818999945,344.58131649999996,344.5634343999991,None,343.5707818999945,None,343.5707818999945,None,343.5707818999945,None,345.2043034600007,None,345.2043034600007,None,345.2043034600007,None,,,,,,,,,,,111,23,Female,2022-05-03_20h03.40.449,Boat,2022.1.1,59.97638130099012,
neutral,positive,2,k,k,,,,,,,,,4,5,77,13,,,,,,,,,,,,,,,,,,,,,,,,main,1,1,2,positive,neutral,k,k,1,0.568139599999995,345.2194090999983,346.21874599999865,346.2022872999951,None,345.2194090999983,None,345.2194090999983,None,345.2194090999983,None,346.77436325999736,None,346.77436325999736,None,346.77436325999736,None,,,,,,,,,,,111,23,Female,2022-05-03_20h03.40.449,Boat,2022.1.1,59.97638130099012,
positive,neutral,2,l,j,,,,,,,,,4,6,78,17,,,,,,,,,,,,,,,,,,,,,,,,main,2,2,2,neutral,positive,j,j,1,0.5798396000027424,346.7895322999975,347.8028081999946,347.7664583000005,None,346.7895322999975,None,346.7895322999975,None,346.7895322999975,None,348.3550048599951,None,348.3550048599951,None,348.3550048599951,None,,,,,,,,,,,111,23,Female,2022-05-03_20h03.40.449,Boat,2022.1.1,59.97638130099012,
negative,positive,2,j,l,,,,,,,,,4,7,79,15,,,,,,,,,,,,,,,,,,,,,,,,main,2,2,2,positive,negative,l,l,1,0.5470467999984976,348.37206180000794,349.3876285000006,349.3525604000024,None,348.37206180000794,None,348.37206180000794,None,348.37206180000794,None,349.9058851600072,None,349.9058851600072,None,349.9058851600072,None,,,,,,,,,,,111,23,Female,2022-05-03_20h03.40.449,Boat,2022.1.1,59.97638130099012,
neutral,neutral,1,k,k,,,,,,,,,4,8,80,1,,,,,,,,,,,,,,,,,,,,,,,,main,2,2,1,neutral,neutral,k,k,1,0.4811681999999564,349.9230838000076,350.9340921999974,350.8984940999944,None,349.9230838000076,None,349.9230838000076,None,349.9230838000076,None,351.38946076000286,None,351.38946076000286,None,351.38946076000286,None,,,,,,,,,,,111,23,Female,2022-05-03_20h03.40.449,Boat,2022.1.1,59.97638130099012,
positive,positive,2,l,j,,,,,,,,,4,9,81,11,,,,,,,,,,,,,,,,,,,,,,,,main,1,1,2,positive,positive,j,j,1,0.5970928000024287,351.4058029000007,352.4138332000002,352.395325999998,None,351.4058029000007,None,351.4058029000007,None,351.4058029000007,None,352.9891391600046,None,352.9891391600046,None,352.9891391600046,None,,,,,,,,,,,111,23,Female,2022-05-03_20h03.40.449,Boat,2022.1.1,59.97638130099012,
neutral,positive,1,k,k,,,,,,,,,4,10,82,4,,,,,,,,,,,,,,,,,,,,,,,,main,1,1,1,positive,neutral,k,k,1,0.7492766999930609,353.0054436000064,354.0174965000042,353.981260200002,None,353.0054436000064,None,353.0054436000064,None,353.0054436000064,None,354.74066636000646,None,354.74066636000646,None,354.74066636000646,None,,,,,,,,,,,111,23,Female,2022-05-03_20h03.40.449,Boat,2022.1.1,59.97638130099012,
negative,neutral,1,j,l,,,,,,,,,4,11,83,3,,,,,,,,,,,,,,,,,,,,,,,,main,1,1,1,neutral,negative,l,l,1,0.7006144000042696,354.7590865999955,355.7684930999967,355.7317847999948,None,354.7590865999955,None,354.7590865999955,None,354.7590865999955,None,356.44627516000185,None,356.44627516000185,None,356.44627516000185,None,,,,,,,,,,,111,23,Female,2022-05-03_20h03.40.449,Boat,2022.1.1,59.97638130099012,
negative,positive,1,j,l,,,,,,,,,4,12,84,6,,,,,,,,,,,,,,,,,,,,,,,,main,2,2,1,positive,negative,l,l,1,0.7704434999905061,356.4649645000027,357.4804087999946,357.43622160000086,None,356.4649645000027,None,356.4649645000027,None,356.4649645000027,None,358.219173359999,None,358.219173359999,None,358.219173359999,None,,,,,,,,,,,111,23,Female,2022-05-03_20h03.40.449,Boat,2022.1.1,59.97638130099012,
positive,positive,1,l,j,,,,,,,,,4,13,85,2,,,,,,,,,,,,,,,,,,,,,,,,main,2,2,1,positive,positive,j,j,1,0.733306399997673,358.2345866999967,359.25218949999544,359.21581320000405,None,358.2345866999967,None,358.2345866999967,None,358.2345866999967,None,359.95263736000345,None,359.95263736000345,None,359.95263736000345,None,,,,,,,,,,,111,23,Female,2022-05-03_20h03.40.449,Boat,2022.1.1,59.97638130099012,
negative,negative,1,j,l,,,,,,,,,4,14,86,0,,,,,,,,,,,,,,,,,,,,,,,,main,2,2,1,negative,negative,l,l,1,0.7145484999928158,359.9700935000001,360.9689337000018,360.9524534000084,None,359.9700935000001,None,359.9700935000001,None,359.9700935000001,None,361.6706651600049,None,361.6706651600049,None,361.6706651600049,None,,,,,,,,,,,111,23,Female,2022-05-03_20h03.40.449,Boat,2022.1.1,59.97638130099012,
neutral,negative,1,k,k,,,,,,,,,4,15,87,7,,,,,,,,,,,,,,,,,,,,,,,,main,2,2,1,negative,neutral,k,k,1,0.7969313999929,361.6882234000077,362.702999000001,362.66740059999574,None,361.6882234000077,None,361.6882234000077,None,361.6882234000077,None,363.4712786600081,None,363.4712786600081,None,363.4712786600081,None,,,,,,,,,,,111,23,Female,2022-05-03_20h03.40.449,Boat,2022.1.1,59.97638130099012,
neutral,negative,2,k,k,,,,,,,,,4,16,88,16,,,,,,,,,,,,,,,,,,,,,,,,main,2,2,2,negative,neutral,k,k,1,0.7487088999914704,363.48689529999683,364.5122246999963,364.469161800007,None,363.48689529999683,None,363.48689529999683,None,363.48689529999683,None,365.22284825999816,None,365.22284825999816,None,365.22284825999816,None,,,,,,,,,,,111,23,Female,2022-05-03_20h03.40.449,Boat,2022.1.1,59.97638130099012,
positive,negative,1,l,j,,,,,,,,,4,17,89,5,,,,,,,,,,,,,,,,,,,,,,,,main,2,2,1,negative,positive,j,j,1,0.8557403000013437,365.2379485999991,366.24748560000444,366.22907660000783,None,365.2379485999991,None,365.2379485999991,None,365.2379485999991,None,367.0813611599966,None,367.0813611599966,None,367.0813611599966,None,,,,,,,,,,,111,23,Female,2022-05-03_20h03.40.449,Boat,2022.1.1,59.97638130099012,
positive,neutral,2,l,j,,,,,,,,,5,0,90,17,,,,,,,,,,,,,,,,,,,,,,,,main,2,2,2,neutral,positive,j,k,0,0.6234942000010051,367.10295260000566,368.11909249999735,368.0845943000022,None,367.10295260000566,None,367.10295260000566,None,367.10295260000566,None,368.7121866999951,None,368.7121866999951,None,368.7121866999951,None,,,,,,,,,,,111,23,Female,2022-05-03_20h03.40.449,Boat,2022.1.1,59.97638130099012,
negative,neutral,1,j,l,,,,,,,,,5,1,91,3,,,,,,,,,,,,,,,,,,,,,,,,main,2,2,1,neutral,negative,l,l,1,0.7776797999977134,369.7210221999994,370.7368604000076,370.702729800003,None,369.7210221999994,None,369.7210221999994,None,369.7210221999994,None,371.4864214600035,None,371.4864214600035,None,371.4864214600035,None,,,,,,,,,,,111,23,Female,2022-05-03_20h03.40.449,Boat,2022.1.1,59.97638130099012,
neutral,negative,2,k,k,,,,,,,,,5,2,92,16,,,,,,,,,,,,,,,,,,,,,,,,main,2,2,2,negative,neutral,k,k,1,0.9545470000011846,371.5028386000049,372.51253750000615,372.486187100003,None,371.5028386000049,None,371.5028386000049,None,371.5028386000049,None,373.4427458600054,None,373.4427458600054,None,373.4427458600054,None,,,,,,,,,,,111,23,Female,2022-05-03_20h03.40.449,Boat,2022.1.1,59.97638130099012,
negative,positive,1,j,l,,,,,,,,,5,3,93,6,,,,,,,,,,,,,,,,,,,,,,,,main,1,1,1,positive,negative,l,l,1,0.8120178999961354,373.4610914000077,374.465967600001,374.4477760000009,None,373.4610914000077,None,373.4610914000077,None,373.4610914000077,None,375.258462160005,None,375.258462160005,None,375.258462160005,None,,,,,,,,,,,111,23,Female,2022-05-03_20h03.40.449,Boat,2022.1.1,59.97638130099012,
positive,positive,2,l,j,,,,,,,,,5,4,94,11,,,,,,,,,,,,,,,,,,,,,,,,main,2,2,2,positive,positive,j,j,1,0.7467996000050334,375.27396659999795,376.28602300000784,376.24935139999434,None,375.27396659999795,None,375.27396659999795,None,375.27396659999795,None,377.00751386000195,None,377.00751386000195,None,377.00751386000195,None,,,,,,,,,,,111,23,Female,2022-05-03_20h03.40.449,Boat,2022.1.1,59.97638130099012,
neutral,neutral,2,k,k,,,,,,,,,5,5,95,10,,,,,,,,,,,,,,,,,,,,,,,,main,2,2,2,neutral,neutral,k,k,1,0.6478515000053449,377.0243216999952,378.0357681000023,377.9995227000036,None,377.0243216999952,None,377.0243216999952,None,377.0243216999952,None,378.657411960006,None,378.657411960006,None,378.657411960006,None,,,,,,,,,,,111,23,Female,2022-05-03_20h03.40.449,Boat,2022.1.1,59.97638130099012,
negative,neutral,2,j,l,,,,,,,,,5,6,96,12,,,,,,,,,,,,,,,,,,,,,,,,main,2,2,2,neutral,negative,l,l,1,0.8788399000040954,378.67543360000127,379.69787659999565,379.652596800006,None,378.67543360000127,None,378.67543360000127,None,378.67543360000127,None,380.53991826000276,None,380.53991826000276,None,380.53991826000276,None,,,,,,,,,,,111,23,Female,2022-05-03_20h03.40.449,Boat,2022.1.1,59.97638130099012,
neutral,positive,1,k,k,,,,,,,,,5,7,97,4,,,,,,,,,,,,,,,,,,,,,,,,main,1,1,1,positive,neutral,k,k,1,0.7664966999873286,380.55719500000123,381.5792172000074,381.53614680000464,None,380.55719500000123,None,380.55719500000123,None,380.55719500000123,None,382.30858646000854,None,382.30858646000854,None,382.30858646000854,None,,,,,,,,,,,111,23,Female,2022-05-03_20h03.40.449,Boat,2022.1.1,59.97638130099012,
negative,positive,2,j,l,,,,,,,,,5,8,98,15,,,,,,,,,,,,,,,,,,,,,,,,main,1,1,2,positive,negative,l,l,1,0.7236624000070151,382.32450080000854,383.3322396000003,383.3144098000048,None,382.32450080000854,None,382.32450080000854,None,382.32450080000854,None,384.03636396000513,None,384.03636396000513,None,384.03636396000513,None,,,,,,,,,,,111,23,Female,2022-05-03_20h03.40.449,Boat,2022.1.1,59.97638130099012,
positive,negative,1,l,j,,,,,,,,,5,9,99,5,,,,,,,,,,,,,,,,,,,,,,,,main,1,1,1,negative,positive,j,j,1,0.7997616000066046,384.05307999999786,385.06260649999604,385.0362616000057,None,384.05307999999786,None,384.05307999999786,None,384.05307999999786,None,385.83826975999693,None,385.83826975999693,None,385.83826975999693,None,,,,,,,,,,,111,23,Female,2022-05-03_20h03.40.449,Boat,2022.1.1,59.97638130099012,
neutral,positive,2,k,k,,,,,,,,,5,10,100,13,,,,,,,,,,,,,,,,,,,,,,,,main,2,2,2,positive,neutral,k,k,1,0.6780414000095334,385.8540431000001,386.8695013999968,386.8343756999966,None,385.8540431000001,None,385.8540431000001,None,385.8540431000001,None,387.519603760005,None,387.519603760005,None,387.519603760005,None,,,,,,,,,,,111,23,Female,2022-05-03_20h03.40.449,Boat,2022.1.1,59.97638130099012,
neutral,negative,1,k,k,,,,,,,,,5,11,101,7,,,,,,,,,,,,,,,,,,,,,,,,main,2,2,1,negative,neutral,k,k,1,0.7530266999965534,387.53517529999954,388.5532471000042,388.51728990000265,None,387.53517529999954,None,387.53517529999954,None,387.53517529999954,None,389.274911559996,None,389.274911559996,None,389.274911559996,None,,,,,,,,,,,111,23,Female,2022-05-03_20h03.40.449,Boat,2022.1.1,59.97638130099012,
negative,negative,1,j,l,,,,,,,,,5,12,102,0,,,,,,,,,,,,,,,,,,,,,,,,main,2,2,1,negative,negative,l,l,1,0.707990000009886,389.29146120000223,390.3033907000063,390.26702430000296,None,389.29146120000223,None,389.29146120000223,None,389.29146120000223,None,390.98642326000265,None,390.98642326000265,None,390.98642326000265,None,,,,,,,,,,,111,23,Female,2022-05-03_20h03.40.449,Boat,2022.1.1,59.97638130099012,
positive,negative,2,l,j,,,,,,,,,5,13,103,14,,,,,,,,,,,,,,,,,,,,,,,,main,1,1,2,negative,positive,j,j,1,0.770344099990325,391.00354510000034,392.0144449000072,391.9961883000069,None,391.00354510000034,None,391.00354510000034,None,391.00354510000034,None,392.7585484600073,None,392.7585484600073,None,392.7585484600073,None,,,,,,,,,,,111,23,Female,2022-05-03_20h03.40.449,Boat,2022.1.1,59.97638130099012,
positive,neutral,1,l,j,,,,,,,,,5,14,104,8,,,,,,,,,,,,,,,,,,,,,,,,main,1,1,1,neutral,positive,j,j,1,0.6804897000110941,392.77443839999614,393.7978532999987,393.7528607999993,None,392.77443839999614,None,392.77443839999614,None,392.77443839999614,None,394.44238296000697,None,394.44238296000697,None,394.44238296000697,None,,,,,,,,,,,111,23,Female,2022-05-03_20h03.40.449,Boat,2022.1.1,59.97638130099012,
positive,positive,1,l,j,,,,,,,,,5,15,105,2,,,,,,,,,,,,,,,,,,,,,,,,main,1,1,1,positive,positive,j,j,1,0.74051750000217,394.4591863999958,395.4685782000015,395.43198320000374,None,394.4591863999958,None,394.4591863999958,None,394.4591863999958,None,396.186904160009,None,396.186904160009,None,396.186904160009,None,,,,,,,,,,,111,23,Female,2022-05-03_20h03.40.449,Boat,2022.1.1,59.97638130099012,
negative,negative,2,j,l,,,,,,,,,5,16,106,9,,,,,,,,,,,,,,,,,,,,,,,,main,1,1,2,negative,negative,l,l,1,0.7468986000021687,396.2042275999993,397.21766920000664,397.2000823999988,None,396.2042275999993,None,396.2042275999993,None,396.2042275999993,None,397.9367640600045,None,397.9367640600045,None,397.9367640600045,None,,,,,,,,,,,111,23,Female,2022-05-03_20h03.40.449,Boat,2022.1.1,59.97638130099012,
neutral,neutral,1,k,k,,,,,,,,,5,17,107,1,,,,,,,,,,,,,,,,,,,,,,,,main,2,2,1,neutral,neutral,k,k,1,0.6886214999976801,397.953975299999,398.9794840999966,398.9339074000018,None,397.953975299999,None,397.953975299999,None,397.953975299999,None,399.62705915999834,None,399.62705915999834,None,399.62705915999834,None,,,,,,,,,,,111,23,Female,2022-05-03_20h03.40.449,Boat,2022.1.1,59.97638130099012,
neutral,negative,2,k,k,,,,,,,,,6,0,108,16,,,,,,,,,,,,,,,,,,,,,,,,main,1,1,2,negative,neutral,k,k,1,0.7053224999981467,399.6433623000048,400.6533597999951,400.61659520000103,None,399.6433623000048,None,399.6433623000048,None,399.6433623000048,None,401.3367806600087,None,401.3367806600087,None,401.3367806600087,None,,,,,,,,,,,111,23,Female,2022-05-03_20h03.40.449,Boat,2022.1.1,59.97638130099012,
neutral,negative,1,k,k,,,,,,,,,6,1,109,7,,,,,,,,,,,,,,,,,,,,,,,,main,2,2,1,negative,neutral,k,k,1,0.6510454999952344,401.351611200007,402.3537059999944,402.3357518999983,None,401.351611200007,None,401.351611200007,None,401.351611200007,None,402.98952595999583,None,402.98952595999583,None,402.98952595999583,None,,,,,,,,,,,111,23,Female,2022-05-03_20h03.40.449,Boat,2022.1.1,59.97638130099012,
positive,positive,1,l,j,,,,,,,,,6,2,110,2,,,,,,,,,,,,,,,,,,,,,,,,main,2,2,1,positive,positive,j,j,1,0.6691521999891847,403.0056315999973,404.0200477000035,403.9867665000056,None,403.0056315999973,None,403.0056315999973,None,403.0056315999973,None,404.6628016599949,None,404.6628016599949,None,404.6628016599949,None,,,,,,,,,,,111,23,Female,2022-05-03_20h03.40.449,Boat,2022.1.1,59.97638130099012,
negative,neutral,2,j,l,,,,,,,,,6,3,111,12,,,,,,,,,,,,,,,,,,,,,,,,main,1,1,2,neutral,negative,l,l,1,0.7790377000055742,404.67768629999773,405.6868825999991,405.6704721999995,None,404.67768629999773,None,404.67768629999773,None,404.67768629999773,None,406.44286866000914,None,406.44286866000914,None,406.44286866000914,None,,,,,,,,,,,111,23,Female,2022-05-03_20h03.40.449,Boat,2022.1.1,59.97638130099012,
positive,negative,1,l,j,,,,,,,,,6,4,112,5,,,,,,,,,,,,,,,,,,,,,,,,main,1,1,1,negative,positive,j,j,1,0.9639801000012085,406.458117400005,407.4815324999945,407.437674300003,None,406.458117400005,None,406.458117400005,None,406.458117400005,None,408.4089407600055,None,408.4089407600055,None,408.4089407600055,None,,,,,,,,,,,111,23,Female,2022-05-03_20h03.40.449,Boat,2022.1.1,59.97638130099012,
neutral,neutral,2,k,k,,,,,,,,,6,5,113,10,,,,,,,,,,,,,,,,,,,,,,,,main,1,1,2,neutral,neutral,k,k,1,0.6963029999897117,408.42343140000594,409.4367506999988,409.4010475999967,None,408.42343140000594,None,408.42343140000594,None,408.42343140000594,None,410.1074880600005,None,410.1074880600005,None,410.1074880600005,None,,,,,,,,,,,111,23,Female,2022-05-03_20h03.40.449,Boat,2022.1.1,59.97638130099012,
negative,positive,2,j,l,,,,,,,,,6,6,114,15,,,,,,,,,,,,,,,,,,,,,,,,main,2,2,2,positive,negative,l,l,1,0.6933171000127913,410.12370520000695,411.13695610000286,411.1033405000053,None,410.12370520000695,None,410.12370520000695,None,410.12370520000695,None,411.8041269600013,None,411.8041269600013,None,411.8041269600013,None,,,,,,,,,,,111,23,Female,2022-05-03_20h03.40.449,Boat,2022.1.1,59.97638130099012,
negative,positive,1,j,l,,,,,,,,,6,7,115,6,,,,,,,,,,,,,,,,,,,,,,,,main,1,1,1,positive,negative,l,l,1,1.2364519999973709,411.82105470000533,412.82039750000695,412.8035510000045,None,411.82105470000533,None,411.82105470000533,None,411.82105470000533,None,414.04254216000265,None,414.04254216000265,None,414.04254216000265,None,,,,,,,,,,,111,23,Female,2022-05-03_20h03.40.449,Boat,2022.1.1,59.97638130099012,
neutral,positive,1,k,k,,,,,,,,,6,8,116,4,,,,,,,,,,,,,,,,,,,,,,,,main,1,1,1,positive,neutral,k,k,1,0.6665788999962388,414.05994619999547,415.07034099999873,415.0334392000077,None,414.05994619999547,None,414.05994619999547,None,414.05994619999547,None,415.71441475999893,None,415.71441475999893,None,415.71441475999893,None,,,,,,,,,,,111,23,Female,2022-05-03_20h03.40.449,Boat,2022.1.1,59.97638130099012,
neutral,positive,2,k,k,,,,,,,,,6,9,117,13,,,,,,,,,,,,,,,,,,,,,,,,main,2,2,2,positive,neutral,k,k,1,0.7255590999993728,415.7295327000029,416.7467583999969,416.70350580000377,None,415.7295327000029,None,415.7295327000029,None,415.7295327000029,None,417.44079266000483,None,417.44079266000483,None,417.44079266000483,None,,,,,,,,,,,111,23,Female,2022-05-03_20h03.40.449,Boat,2022.1.1,59.97638130099012,
negative,negative,2,j,l,,,,,,,,,6,10,118,9,,,,,,,,,,,,,,,,,,,,,,,,main,2,2,2,negative,negative,l,l,1,0.8659947999985889,417.4561016999942,418.4650332000019,418.4464724999998,None,417.4561016999942,None,417.4561016999942,None,417.4561016999942,None,419.30931406000457,None,419.30931406000457,None,419.30931406000457,None,,,,,,,,,,,111,23,Female,2022-05-03_20h03.40.449,Boat,2022.1.1,59.97638130099012,
positive,neutral,1,l,j,,,,,,,,,6,11,119,8,,,,,,,,,,,,,,,,,,,,,,,,main,2,2,1,neutral,positive,j,j,1,0.8123086999985389,419.3238629999978,420.34662150000804,420.3037280999997,None,419.3238629999978,None,419.3238629999978,None,419.3238629999978,None,421.12346896000383,None,421.12346896000383,None,421.12346896000383,None,,,,,,,,,,,111,23,Female,2022-05-03_20h03.40.449,Boat,2022.1.1,59.97638130099012,
positive,positive,2,l,j,,,,,,,,,6,12,120,11,,,,,,,,,,,,,,,,,,,,,,,,main,1,1,2,positive,positive,j,j,1,0.8486827000015182,421.1392033000011,422.15393760000006,422.1178610000061,None,421.1392033000011,None,421.1392033000011,None,421.1392033000011,None,422.97447916000385,None,422.97447916000385,None,422.97447916000385,None,,,,,,,,,,,111,23,Female,2022-05-03_20h03.40.449,Boat,2022.1.1,59.97638130099012,
positive,neutral,2,l,j,,,,,,,,,6,13,121,17,,,,,,,,,,,,,,,,,,,,,,,,main,1,1,2,neutral,positive,j,j,1,0.694137899990892,422.9905232000019,424.00403100000403,423.9673507999978,None,422.9905232000019,None,422.9905232000019,None,422.9905232000019,None,424.6718025600072,None,424.6718025600072,None,424.6718025600072,None,,,,,,,,,,,111,23,Female,2022-05-03_20h03.40.449,Boat,2022.1.1,59.97638130099012,
neutral,neutral,1,k,k,,,,,,,,,6,14,122,1,,,,,,,,,,,,,,,,,,,,,,,,main,1,1,1,neutral,neutral,k,k,1,0.8001366000098642,424.68752590000804,425.70114950000425,425.6660452000069,None,424.68752590000804,None,424.68752590000804,None,424.68752590000804,None,426.47415006000085,None,426.47415006000085,None,426.47415006000085,None,,,,,,,,,,,111,23,Female,2022-05-03_20h03.40.449,Boat,2022.1.1,59.97638130099012,
negative,neutral,1,j,l,,,,,,,,,6,15,123,3,,,,,,,,,,,,,,,,,,,,,,,,main,2,2,1,neutral,negative,l,l,1,0.8168345999874873,426.490057300005,427.5134506000031,427.4706087999948,None,426.490057300005,None,426.490057300005,None,426.490057300005,None,428.2937189599994,None,428.2937189599994,None,428.2937189599994,None,,,,,,,,,,,111,23,Female,2022-05-03_20h03.40.449,Boat,2022.1.1,59.97638130099012,
negative,negative,1,j,l,,,,,,,,,6,16,124,0,,,,,,,,,,,,,,,,,,,,,,,,main,1,1,1,negative,negative,l,l,1,0.5973921999975573,428.3081500999979,429.3200361000054,429.30241649999516,None,428.3081500999979,None,428.3081500999979,None,428.3081500999979,None,429.89242316000457,None,429.89242316000457,None,429.89242316000457,None,,,,,,,,,,,111,23,Female,2022-05-03_20h03.40.449,Boat,2022.1.1,59.97638130099012,
positive,negative,2,l,j,,,,,,,,,6,17,125,14,,,,,,,,,,,,,,,,,,,,,,,,main,1,1,2,negative,positive,j,j,1,0.7954514000011841,429.9081099000032,430.92137890000595,430.88565749999543,None,429.9081099000032,None,429.9081099000032,None,429.9081099000032,None,431.69107956000664,None,431.69107956000664,None,431.69107956000664,None,,,,,,,,,,,111,23,Female,2022-05-03_20h03.40.449,Boat,2022.1.1,59.97638130099012,
negative,neutral,1,j,l,,,,,,,,,7,0,126,3,,,,,,,,,,,,,,,,,,,,,,,,main,2,2,1,neutral,negative,l,l,1,0.8131464999896707,431.70593630000076,432.7320866999944,432.687354099995,None,431.70593630000076,None,431.70593630000076,None,431.70593630000076,None,433.50624316000324,None,433.50624316000324,None,433.50624316000324,None,,,,,,,,,,,111,23,Female,2022-05-03_20h03.40.449,Boat,2022.1.1,59.97638130099012,
negative,negative,1,j,l,,,,,,,,,7,1,127,0,,,,,,,,,,,,,,,,,,,,,,,,main,2,2,1,negative,negative,l,l,1,0.7003783999971347,433.52184440000565,434.5378415000014,434.5028123000084,None,433.52184440000565,None,433.52184440000565,None,433.52184440000565,None,435.20822606000877,None,435.20822606000877,None,435.20822606000877,None,,,,,,,,,,,111,23,Female,2022-05-03_20h03.40.449,Boat,2022.1.1,59.97638130099012,
positive,positive,1,l,j,,,,,,,,,7,2,128,2,,,,,,,,,,,,,,,,,,,,,,,,main,2,2,1,positive,positive,j,j,1,0.8280185000039637,435.226324999996,436.2369178000081,436.2004756999959,None,435.226324999996,None,435.226324999996,None,435.226324999996,None,437.0402089600044,None,437.0402089600044,None,437.0402089600044,None,,,,,,,,,,,111,23,Female,2022-05-03_20h03.40.449,Boat,2022.1.1,59.97638130099012,
positive,positive,2,l,j,,,,,,,,,7,3,129,11,,,,,,,,,,,,,,,,,,,,,,,,main,1,1,2,positive,positive,j,j,1,0.8488090000028023,437.0558539000049,438.06592570000794,438.04763169999933,None,437.0558539000049,None,437.0558539000049,None,437.0558539000049,None,438.8894623600005,None,438.8894623600005,None,438.8894623600005,None,,,,,,,,,,,111,23,Female,2022-05-03_20h03.40.449,Boat,2022.1.1,59.97638130099012,
negative,neutral,2,j,l,,,,,,,,,7,4,130,12,,,,,,,,,,,,,,,,,,,,,,,,main,2,2,2,neutral,negative,l,l,1,0.8998483000032138,438.9071324999968,439.9184286999953,439.88206119999813,None,438.9071324999968,None,438.9071324999968,None,438.9071324999968,None,440.7930257600034,None,440.7930257600034,None,440.7930257600034,None,,,,,,,,,,,111,23,Female,2022-05-03_20h03.40.449,Boat,2022.1.1,59.97638130099012,
neutral,neutral,1,k,k,,,,,,,,,7,5,131,1,,,,,,,,,,,,,,,,,,,,,,,,main,2,2,1,neutral,neutral,k,k,1,0.7450777000049129,440.8097392000054,441.8161933000083,441.7972340999986,None,440.8097392000054,None,440.8097392000054,None,440.8097392000054,None,442.54110306000223,None,442.54110306000223,None,442.54110306000223,None,,,,,,,,,,,111,23,Female,2022-05-03_20h03.40.449,Boat,2022.1.1,59.97638130099012,
negative,positive,1,j,l,,,,,,,,,7,6,132,6,,,,,,,,,,,,,,,,,,,,,,,,main,1,1,1,positive,negative,l,l,1,0.9660511999973096,442.55830940000305,443.56552190000366,443.5472734000068,None,442.55830940000305,None,442.55830940000305,None,442.55830940000305,None,444.5092198599974,None,444.5092198599974,None,444.5092198599974,None,,,,,,,,,,,111,23,Female,2022-05-03_20h03.40.449,Boat,2022.1.1,59.97638130099012,
neutral,positive,1,k,k,,,,,,,,,7,7,133,4,,,,,,,,,,,,,,,,,,,,,,,,main,2,2,1,positive,neutral,k,k,1,0.6996733999985736,444.5248999000032,445.5325850999943,445.5139404000074,None,444.5248999000032,None,444.5248999000032,None,444.5248999000032,None,446.2116332600068,None,446.2116332600068,None,446.2116332600068,None,,,,,,,,,,,111,23,Female,2022-05-03_20h03.40.449,Boat,2022.1.1,59.97638130099012,
neutral,negative,1,k,k,,,,,,,,,7,8,134,7,,,,,,,,,,,,,,,,,,,,,,,,main,1,1,1,negative,neutral,k,k,1,0.6896181000047363,446.2268089999998,447.23754590000317,447.2209243999969,None,446.2268089999998,None,446.2268089999998,None,446.2268089999998,None,447.9042598600005,None,447.9042598600005,None,447.9042598600005,None,,,,,,,,,,,111,23,Female,2022-05-03_20h03.40.449,Boat,2022.1.1,59.97638130099012,
positive,negative,1,l,j,,,,,,,,,7,9,135,5,,,,,,,,,,,,,,,,,,,,,,,,main,2,2,1,negative,positive,j,j,1,0.7511868000001414,447.92035990000295,448.9308671000035,448.90438279999944,None,447.92035990000295,None,447.92035990000295,None,447.92035990000295,None,449.6572471600026,None,449.6572471600026,None,449.6572471600026,None,,,,,,,,,,,111,23,Female,2022-05-03_20h03.40.449,Boat,2022.1.1,59.97638130099012,
positive,negative,2,l,j,,,,,,,,,7,10,136,14,,,,,,,,,,,,,,,,,,,,,,,,main,1,1,2,negative,positive,j,j,1,0.8489664999942761,449.67343310000433,450.6882394999993,450.65162659999623,None,449.67343310000433,None,449.67343310000433,None,449.67343310000433,None,451.5088293600071,None,451.5088293600071,None,451.5088293600071,None,,,,,,,,,,,111,23,Female,2022-05-03_20h03.40.449,Boat,2022.1.1,59.97638130099012,
positive,neutral,1,l,j,,,,,,,,,7,11,137,8,,,,,,,,,,,,,,,,,,,,,,,,main,1,1,1,neutral,positive,j,j,1,0.9620733000047039,451.5247304000077,452.5493365000002,452.5044874000014,None,451.5247304000077,None,451.5247304000077,None,451.5247304000077,None,453.47358175999545,None,453.47358175999545,None,453.47358175999545,None,,,,,,,,,,,111,23,Female,2022-05-03_20h03.40.449,Boat,2022.1.1,59.97638130099012,
neutral,positive,2,k,k,,,,,,,,,7,12,138,13,,,,,,,,,,,,,,,,,,,,,,,,main,2,2,2,positive,neutral,k,k,1,0.8163432000001194,453.4903207000025,454.5146134999959,454.47151920000033,None,453.4903207000025,None,453.4903207000025,None,453.4903207000025,None,455.29153586000905,None,455.29153586000905,None,455.29153586000905,None,,,,,,,,,,,111,23,Female,2022-05-03_20h03.40.449,Boat,2022.1.1,59.97638130099012,
neutral,negative,2,k,k,,,,,,,,,7,13,139,16,,,,,,,,,,,,,,,,,,,,,,,,main,2,2,2,negative,neutral,k,k,1,1.699154699992505,455.308995600004,456.33262990000367,456.2882537999976,None,455.308995600004,None,455.308995600004,None,455.308995600004,None,457.9987678000034,None,457.9987678000034,None,457.9987678000034,None,,,,,,,,,,,111,23,Female,2022-05-03_20h03.40.449,Boat,2022.1.1,59.97638130099012,
neutral,neutral,2,k,k,,,,,,,,,7,14,140,10,,,,,,,,,,,,,,,,,,,,,,,,main,2,2,2,neutral,neutral,k,k,1,0.8094742999965092,459.00736869999673,460.02065170000424,459.9842442999943,None,459.00736869999673,None,459.00736869999673,None,459.00736869999673,None,460.8042802600045,None,460.8042802600045,None,460.8042802600045,None,,,,,,,,,,,111,23,Female,2022-05-03_20h03.40.449,Boat,2022.1.1,59.97638130099012,
positive,neutral,2,l,j,,,,,,,,,7,15,141,17,,,,,,,,,,,,,,,,,,,,,,,,main,1,1,2,neutral,positive,j,j,1,0.8178411999979289,460.8218998000084,461.821343100004,461.7883312000049,None,460.8218998000084,None,460.8218998000084,None,460.8218998000084,None,462.62421745999893,None,462.62421745999893,None,462.62421745999893,None,,,,,,,,,,,111,23,Female,2022-05-03_20h03.40.449,Boat,2022.1.1,59.97638130099012,
negative,negative,2,j,l,,,,,,,,,7,16,142,9,,,,,,,,,,,,,,,,,,,,,,,,main,1,1,2,negative,negative,l,l,1,0.8271300000051269,462.6396933000069,463.6545144999982,463.6207501000026,None,462.6396933000069,None,462.6396933000069,None,462.6396933000069,None,464.45499095999696,None,464.45499095999696,None,464.45499095999696,None,,,,,,,,,,,111,23,Female,2022-05-03_20h03.40.449,Boat,2022.1.1,59.97638130099012,
negative,positive,2,j,l,,,,,,,,,7,17,143,15,,,,,,,,,,,,,,,,,,,,,,,,main,1,1,2,positive,negative,l,l,1,0.7541319000010844,464.4718445000035,465.4895849000022,465.45219900000666,None,464.4718445000035,None,464.4718445000035,None,464.4718445000035,None,466.21024396000723,None,466.21024396000723,None,466.21024396000723,None,,,,,,,,,,,111,23,Female,2022-05-03_20h03.40.449,Boat,2022.1.1,59.97638130099012,
neutral,neutral,2,k,k,,,,,,,,,8,0,144,10,,,,,,,,,,,,,,,,,,,,,,,,main,1,1,2,neutral,neutral,k,k,1,0.6797742000053404,466.22913819999667,467.2373296000005,467.2010614000028,None,466.22913819999667,None,466.22913819999667,None,466.22913819999667,None,467.8937063599966,None,467.8937063599966,None,467.8937063599966,None,,,,,,,,,,,111,23,Female,2022-05-03_20h03.40.449,Boat,2022.1.1,59.97638130099012,
negative,negative,2,j,l,,,,,,,,,8,1,145,9,,,,,,,,,,,,,,,,,,,,,,,,main,2,2,2,negative,negative,l,l,1,0.9837269999989076,467.9086566000042,468.9327052000008,468.8881221000047,None,467.9086566000042,None,467.9086566000042,None,467.9086566000042,None,469.8783615600056,None,469.8783615600056,None,469.8783615600056,None,,,,,,,,,,,111,23,Female,2022-05-03_20h03.40.449,Boat,2022.1.1,59.97638130099012,
negative,neutral,2,j,l,,,,,,,,,8,2,146,12,,,,,,,,,,,,,,,,,,,,,,,,main,2,2,2,neutral,negative,l,k,0,0.7052188999950886,469.8953595000057,470.8998896999983,470.88150119999773,None,469.8953595000057,None,469.8953595000057,None,469.8953595000057,None,471.59174289999646,None,471.59174289999646,None,471.59174289999646,None,,,,,,,,,,,111,23,Female,2022-05-03_20h03.40.449,Boat,2022.1.1,59.97638130099012,
negative,positive,1,j,l,,,,,,,,,8,3,147,6,,,,,,,,,,,,,,,,,,,,,,,,main,2,2,1,positive,negative,l,l,1,1.1343014000012772,472.60658310000144,473.62188170000445,473.5873750000028,None,472.60658310000144,None,472.60658310000144,None,472.60658310000144,None,474.7259703600081,None,474.7259703600081,None,474.7259703600081,None,,,,,,,,,,,111,23,Female,2022-05-03_20h03.40.449,Boat,2022.1.1,59.97638130099012,
neutral,positive,2,k,k,,,,,,,,,8,4,148,13,,,,,,,,,,,,,,,,,,,,,,,,main,1,1,2,positive,neutral,k,k,1,0.7068638000055216,474.74291460000677,475.7569635999971,475.72185739999986,None,474.74291460000677,None,474.74291460000677,None,474.74291460000677,None,476.4381558600086,None,476.4381558600086,None,476.4381558600086,None,,,,,,,,,,,111,23,Female,2022-05-03_20h03.40.449,Boat,2022.1.1,59.97638130099012,
positive,positive,1,l,j,,,,,,,,,8,5,149,2,,,,,,,,,,,,,,,,,,,,,,,,main,1,1,1,positive,positive,j,j,1,0.7337438999966253,476.45385210000677,477.4647842999984,477.4382917000039,None,476.45385210000677,None,476.45385210000677,None,476.45385210000677,None,478.1741057599953,None,478.1741057599953,None,478.1741057599953,None,,,,,,,,,,,111,23,Female,2022-05-03_20h03.40.449,Boat,2022.1.1,59.97638130099012,
positive,negative,1,l,j,,,,,,,,,8,6,150,5,,,,,,,,,,,,,,,,,,,,,,,,main,1,1,1,negative,positive,j,j,1,0.7348058000061428,478.18960339999467,479.2048161999992,479.16857049999817,None,478.18960339999467,None,478.18960339999467,None,478.18960339999467,None,479.91141285999913,None,479.91141285999913,None,479.91141285999913,None,,,,,,,,,,,111,23,Female,2022-05-03_20h03.40.449,Boat,2022.1.1,59.97638130099012,
negative,positive,2,j,l,,,,,,,,,8,7,151,15,,,,,,,,,,,,,,,,,,,,,,,,main,2,2,2,positive,negative,l,l,1,0.8801061999984086,479.9269481999945,480.9358957000077,480.90109480000683,None,479.9269481999945,None,479.9269481999945,None,479.9269481999945,None,481.79358315999855,None,481.79358315999855,None,481.79358315999855,None,,,,,,,,,,,111,23,Female,2022-05-03_20h03.40.449,Boat,2022.1.1,59.97638130099012,
positive,positive,2,l,j,,,,,,,,,8,8,152,11,,,,,,,,,,,,,,,,,,,,,,,,main,1,1,2,positive,positive,j,j,1,0.9657576999888988,481.8108085999993,482.83346609999717,482.78810269999667,None,481.8108085999993,None,481.8108085999993,None,481.8108085999993,None,483.76424775999624,None,483.76424775999624,None,483.76424775999624,None,,,,,,,,,,,111,23,Female,2022-05-03_20h03.40.449,Boat,2022.1.1,59.97638130099012,
positive,neutral,1,l,j,,,,,,,,,8,9,153,8,,,,,,,,,,,,,,,,,,,,,,,,main,1,1,1,neutral,positive,j,j,1,0.886759200002416,483.77990619999764,484.78349600000365,484.76481390000845,None,483.77990619999764,None,483.77990619999764,None,483.77990619999764,None,485.6528689600033,None,485.6528689600033,None,485.6528689600033,None,,,,,,,,,,,111,23,Female,2022-05-03_20h03.40.449,Boat,2022.1.1,59.97638130099012,
positive,neutral,2,l,j,,,,,,,,,8,10,154,17,,,,,,,,,,,,,,,,,,,,,,,,main,1,1,2,neutral,positive,j,j,1,0.7755289000051562,485.6694525000057,486.672014900003,486.65353579999646,None,485.6694525000057,None,485.6694525000057,None,485.6694525000057,None,487.4313699599967,None,487.4313699599967,None,487.4313699599967,None,,,,,,,,,,,111,23,Female,2022-05-03_20h03.40.449,Boat,2022.1.1,59.97638130099012,
negative,neutral,1,j,l,,,,,,,,,8,11,155,3,,,,,,,,,,,,,,,,,,,,,,,,main,2,2,1,neutral,negative,l,l,1,0.6780800999986241,487.4471612000052,488.4653379000083,488.42249340000853,None,487.4471612000052,None,487.4471612000052,None,487.4471612000052,None,489.1108054599987,None,489.1108054599987,None,489.1108054599987,None,,,,,,,,,,,111,23,Female,2022-05-03_20h03.40.449,Boat,2022.1.1,59.97638130099012,
negative,negative,1,j,l,,,,,,,,,8,12,156,0,,,,,,,,,,,,,,,,,,,,,,,,main,2,2,1,negative,negative,l,l,1,0.7048752999980934,489.1280146000063,490.13904809999804,490.1020628999977,None,489.1280146000063,None,489.1280146000063,None,489.1280146000063,None,490.81804816000806,None,490.81804816000806,None,490.81804816000806,None,,,,,,,,,,,111,23,Female,2022-05-03_20h03.40.449,Boat,2022.1.1,59.97638130099012,
positive,negative,2,l,j,,,,,,,,,8,13,157,14,,,,,,,,,,,,,,,,,,,,,,,,main,2,2,2,negative,positive,j,j,1,0.8578420999983791,490.8389775999967,491.8386615000054,491.8219204000052,None,490.8389775999967,None,490.8389775999967,None,490.8389775999967,None,492.6815005600016,None,492.6815005600016,None,492.6815005600016,None,,,,,,,,,,,111,23,Female,2022-05-03_20h03.40.449,Boat,2022.1.1,59.97638130099012,
neutral,neutral,1,k,k,,,,,,,,,8,14,158,1,,,,,,,,,,,,,,,,,,,,,,,,main,2,2,1,neutral,neutral,k,k,1,0.7286233000049833,492.69594340000185,493.71713170000294,493.6986031999986,None,492.69594340000185,None,492.69594340000185,None,492.69594340000185,None,494.41084076000845,None,494.41084076000845,None,494.41084076000845,None,,,,,,,,,,,111,23,Female,2022-05-03_20h03.40.449,Boat,2022.1.1,59.97638130099012,
neutral,negative,2,k,k,,,,,,,,,8,15,159,16,,,,,,,,,,,,,,,,,,,,,,,,main,2,2,2,negative,neutral,k,k,1,0.7127679999975953,494.426089200002,495.4387729000009,495.40525949999574,None,494.426089200002,None,494.426089200002,None,494.426089200002,None,496.12599206000743,None,496.12599206000743,None,496.12599206000743,None,,,,,,,,,,,111,23,Female,2022-05-03_20h03.40.449,Boat,2022.1.1,59.97638130099012,
neutral,positive,1,k,k,,,,,,,,,8,16,160,4,,,,,,,,,,,,,,,,,,,,,,,,main,2,2,1,positive,neutral,k,k,1,0.8167958999983966,496.14191720000235,497.16557860000466,497.13851499999873,None,496.14191720000235,None,496.14191720000235,None,496.14191720000235,None,497.9444580600044,None,497.9444580600044,None,497.9444580600044,None,,,,,,,,,,,111,23,Female,2022-05-03_20h03.40.449,Boat,2022.1.1,59.97638130099012,
neutral,negative,1,k,k,,,,,,,,,8,17,161,7,,,,,,,,,,,,,,,,,,,,,,,,main,1,1,1,negative,neutral,k,k,1,0.6610591999924509,497.9600575000077,498.97253909999563,498.93648859999666,None,497.9600575000077,None,497.9600575000077,None,497.9600575000077,None,499.60850835999884,None,499.60850835999884,None,499.60850835999884,None,,,,,,,,,,,111,23,Female,2022-05-03_20h03.40.449,Boat,2022.1.1,59.97638130099012,
positive,negative,1,l,j,,,,,,,,,9,0,162,5,,,,,,,,,,,,,,,,,,,,,,,,main,2,2,1,negative,positive,j,j,1,0.7305053000018233,499.62434130000474,500.6356628000067,500.61737829999765,None,499.62434130000474,None,499.62434130000474,None,499.62434130000474,None,501.3413110600028,None,501.3413110600028,None,501.3413110600028,None,,,,,,,,,,,111,23,Female,2022-05-03_20h03.40.449,Boat,2022.1.1,59.97638130099012,
positive,neutral,1,l,j,,,,,,,,,9,1,163,8,,,,,,,,,,,,,,,,,,,,,,,,main,1,1,1,neutral,positive,j,j,1,0.6534261000051629,501.3592009999993,502.3743689999974,502.34052359999623,None,501.3592009999993,None,501.3592009999993,None,501.3592009999993,None,502.99931586000605,None,502.99931586000605,None,502.99931586000605,None,,,,,,,,,,,111,23,Female,2022-05-03_20h03.40.449,Boat,2022.1.1,59.97638130099012,
negative,negative,2,j,l,,,,,,,,,9,2,164,9,,,,,,,,,,,,,,,,,,,,,,,,main,2,2,2,negative,negative,l,l,1,0.7606815000035567,503.01445099999546,504.0318602000043,503.98877720000746,None,503.01445099999546,None,503.01445099999546,None,503.01445099999546,None,504.7609384600015,None,504.7609384600015,None,504.7609384600015,None,,,,,,,,,,,111,23,Female,2022-05-03_20h03.40.449,Boat,2022.1.1,59.97638130099012,
neutral,positive,2,k,k,,,,,,,,,9,3,165,13,,,,,,,,,,,,,,,,,,,,,,,,main,1,1,2,positive,neutral,k,k,1,0.6572502000053646,504.7776759999979,505.78942899999674,505.75255930000276,None,504.7776759999979,None,504.7776759999979,None,504.7776759999979,None,506.42252986000096,None,506.42252986000096,None,506.42252986000096,None,,,,,,,,,,,111,23,Female,2022-05-03_20h03.40.449,Boat,2022.1.1,59.97638130099012,
neutral,negative,1,k,k,,,,,,,,,9,4,166,7,,,,,,,,,,,,,,,,,,,,,,,,main,2,2,1,negative,neutral,k,k,1,0.8521601000102237,506.4394035000005,507.44894000000204,507.4056907000049,None,506.4394035000005,None,506.4394035000005,None,506.4394035000005,None,508.2761217599997,None,508.2761217599997,None,508.2761217599997,None,,,,,,,,,,,111,23,Female,2022-05-03_20h03.40.449,Boat,2022.1.1,59.97638130099012,
positive,neutral,2,l,j,,,,,,,,,9,5,167,17,,,,,,,,,,,,,,,,,,,,,,,,main,2,2,2,neutral,positive,j,j,1,0.8836640000081388,508.29210580000654,509.3056374000007,509.2723160000023,None,508.29210580000654,None,508.29210580000654,None,508.29210580000654,None,510.16262856000105,None,510.16262856000105,None,510.16262856000105,None,,,,,,,,,,,111,23,Female,2022-05-03_20h03.40.449,Boat,2022.1.1,59.97638130099012,
negative,positive,2,j,l,,,,,,,,,9,6,168,15,,,,,,,,,,,,,,,,,,,,,,,,main,2,2,2,positive,negative,l,l,1,0.8003866999933962,510.1783129999967,511.18940859999566,511.1524044999969,None,510.1783129999967,None,510.1783129999967,None,510.1783129999967,None,511.96666955999683,None,511.96666955999683,None,511.96666955999683,None,,,,,,,,,,,111,23,Female,2022-05-03_20h03.40.449,Boat,2022.1.1,59.97638130099012,
neutral,positive,1,k,k,,,,,,,,,9,7,169,4,,,,,,,,,,,,,,,,,,,,,,,,main,2,2,1,positive,neutral,k,k,1,0.7262018999899738,511.9843580000015,513.0024260000064,512.9555646000081,None,511.9843580000015,None,511.9843580000015,None,511.9843580000015,None,513.694043960009,None,513.694043960009,None,513.694043960009,None,,,,,,,,,,,111,23,Female,2022-05-03_20h03.40.449,Boat,2022.1.1,59.97638130099012,
positive,positive,2,l,j,,,,,,,,,9,8,170,11,,,,,,,,,,,,,,,,,,,,,,,,main,2,2,2,positive,positive,j,j,1,1.258223699987866,513.7101633999991,514.7223940999975,514.6855756000004,None,513.7101633999991,None,513.7101633999991,None,513.7101633999991,None,515.9557104600041,None,515.9557104600041,None,515.9557104600041,None,,,,,,,,,,,111,23,Female,2022-05-03_20h03.40.449,Boat,2022.1.1,59.97638130099012,
neutral,neutral,1,k,k,,,,,,,,,9,9,171,1,,,,,,,,,,,,,,,,,,,,,,,,main,1,1,1,neutral,neutral,k,k,1,0.6774070999963442,515.9720979999984,516.9826618000079,516.9566080000077,None,515.9720979999984,None,515.9720979999984,None,515.9720979999984,None,517.6353583600081,None,517.6353583600081,None,517.6353583600081,None,,,,,,,,,,,111,23,Female,2022-05-03_20h03.40.449,Boat,2022.1.1,59.97638130099012,
neutral,negative,2,k,k,,,,,,,,,9,10,172,16,,,,,,,,,,,,,,,,,,,,,,,,main,1,1,2,negative,neutral,k,k,1,1.5775745999999344,517.6548391999968,518.6724298000045,518.6359299000032,None,517.6548391999968,None,517.6548391999968,None,517.6548391999968,None,520.2228685000009,None,520.2228685000009,None,520.2228685000009,None,,,,,,,,,,,111,23,Female,2022-05-03_20h03.40.449,Boat,2022.1.1,59.97638130099012,
negative,neutral,2,j,l,,,,,,,,,9,11,173,12,,,,,,,,,,,,,,,,,,,,,,,,main,2,2,2,neutral,negative,l,l,1,0.8731974000111222,521.2411125000071,522.2655281000043,522.2227102000033,None,521.2411125000071,None,521.2411125000071,None,521.2411125000071,None,523.1015411600034,None,523.1015411600034,None,523.1015411600034,None,,,,,,,,,,,111,23,Female,2022-05-03_20h03.40.449,Boat,2022.1.1,59.97638130099012,
neutral,neutral,2,k,k,,,,,,,,,9,12,174,10,,,,,,,,,,,,,,,,,,,,,,,,main,2,2,2,neutral,neutral,k,k,1,0.6678684999933466,523.1184596999956,524.1238415999978,524.0903254000004,None,523.1184596999956,None,523.1184596999956,None,523.1184596999956,None,524.7725484600029,None,524.7725484600029,None,524.7725484600029,None,,,,,,,,,,,111,23,Female,2022-05-03_20h03.40.449,Boat,2022.1.1,59.97638130099012,
negative,neutral,1,j,l,,,,,,,,,9,13,175,3,,,,,,,,,,,,,,,,,,,,,,,,main,2,2,1,neutral,negative,l,l,1,0.6858195000095293,524.7895497999998,525.7894876000064,525.7727117000031,None,524.7895497999998,None,524.7895497999998,None,524.7895497999998,None,526.4608755599999,None,526.4608755599999,None,526.4608755599999,None,,,,,,,,,,,111,23,Female,2022-05-03_20h03.40.449,Boat,2022.1.1,59.97638130099012,
negative,positive,1,j,l,,,,,,,,,9,14,176,6,,,,,,,,,,,,,,,,,,,,,,,,main,1,1,1,positive,negative,l,l,1,0.7442257000075188,526.4766380000074,527.4894271999947,527.4543910000066,None,526.4766380000074,None,526.4766380000074,None,526.4766380000074,None,528.2073675600055,None,528.2073675600055,None,528.2073675600055,None,,,,,,,,,,,111,23,Female,2022-05-03_20h03.40.449,Boat,2022.1.1,59.97638130099012,
positive,negative,2,l,j,,,,,,,,,9,15,177,14,,,,,,,,,,,,,,,,,,,,,,,,main,2,2,2,negative,positive,j,j,1,0.9515370000008261,528.2247282000026,529.2393971999991,529.2022109999962,None,528.2247282000026,None,528.2247282000026,None,528.2247282000026,None,530.1614519600058,None,530.1614519600058,None,530.1614519600058,None,,,,,,,,,,,111,23,Female,2022-05-03_20h03.40.449,Boat,2022.1.1,59.97638130099012,
negative,negative,1,j,l,,,,,,,,,9,16,178,0,,,,,,,,,,,,,,,,,,,,,,,,main,1,1,1,negative,negative,l,l,1,1.0959373000077903,530.1785662000038,531.2008648000046,531.1563103999943,None,530.1785662000038,None,530.1785662000038,None,530.1785662000038,None,532.2611034600064,None,532.2611034600064,None,532.2611034600064,None,,,,,,,,,,,111,23,Female,2022-05-03_20h03.40.449,Boat,2022.1.1,59.97638130099012,
positive,positive,1,l,j,,,,,,,,,9,17,179,2,,,,,,,,,,,,,,,,,,,,,,,,main,1,1,1,positive,positive,j,j,1,0.8316879000049084,532.2759959999967,533.3008209999971,533.257317399999,None,532.2759959999967,None,532.2759959999967,None,532.2759959999967,None,534.0951056599966,None,534.0951056599966,None,534.0951056599966,None,,,,,,,,,,,111,23,Female,2022-05-03_20h03.40.449,Boat,2022.1.1,59.97638130099012,
neutral,neutral,2,k,k,,,,,,,,,10,0,180,10,,,,,,,,,,,,,,,,,,,,,,,,main,2,2,2,neutral,neutral,k,k,1,0.726947500006645,534.1101068999997,535.1344394000043,535.0895372999948,None,534.1101068999997,None,534.1101068999997,None,534.1101068999997,None,535.8242102599994,None,535.8242102599994,None,535.8242102599994,None,,,,,,,,,,,111,23,Female,2022-05-03_20h03.40.449,Boat,2022.1.1,59.97638130099012,
positive,negative,2,l,j,,,,,,,,,10,1,181,14,,,,,,,,,,,,,,,,,,,,,,,,main,2,2,2,negative,positive,j,j,1,0.8337672000052407,535.8400636000006,536.8660418000072,536.8202215000056,None,535.8400636000006,None,535.8400636000006,None,535.8400636000006,None,537.6608957600052,None,537.6608957600052,None,537.6608957600052,None,,,,,,,,,,,111,23,Female,2022-05-03_20h03.40.449,Boat,2022.1.1,59.97638130099012,
neutral,positive,2,k,k,,,,,,,,,10,2,182,13,,,,,,,,,,,,,,,,,,,,,,,,main,2,2,2,positive,neutral,k,k,1,0.7001913999993121,537.6776873000053,538.689681600008,538.6557831999962,None,537.6776873000053,None,537.6776873000053,None,537.6776873000053,None,539.3630292600079,None,539.3630292600079,None,539.3630292600079,None,,,,,,,,,,,111,23,Female,2022-05-03_20h03.40.449,Boat,2022.1.1,59.97638130099012,
positive,negative,1,l,j,,,,,,,,,10,3,183,5,,,,,,,,,,,,,,,,,,,,,,,,main,1,1,1,negative,positive,j,j,1,0.8450295999937225,539.3787229000009,540.384664600002,540.3663280000037,None,539.3787229000009,None,539.3787229000009,None,539.3787229000009,None,541.2108701600024,None,541.2108701600024,None,541.2108701600024,None,,,,,,,,,,,111,23,Female,2022-05-03_20h03.40.449,Boat,2022.1.1,59.97638130099012,
neutral,positive,1,k,k,,,,,,,,,10,4,184,4,,,,,,,,,,,,,,,,,,,,,,,,main,1,1,1,positive,neutral,k,k,1,0.7310825000022305,541.2257463999995,542.2396362,542.2049789000012,None,541.2257463999995,None,541.2257463999995,None,541.2257463999995,None,542.9443337600038,None,542.9443337600038,None,542.9443337600038,None,,,,,,,,,,,111,23,Female,2022-05-03_20h03.40.449,Boat,2022.1.1,59.97638130099012,
negative,positive,1,j,l,,,,,,,,,10,5,185,6,,,,,,,,,,,,,,,,,,,,,,,,main,2,2,1,positive,negative,l,l,1,0.8610574000049382,542.9601784999977,543.982957500004,543.9397607999999,None,542.9601784999977,None,542.9601784999977,None,542.9601784999977,None,544.8075977600034,None,544.8075977600034,None,544.8075977600034,None,,,,,,,,,,,111,23,Female,2022-05-03_20h03.40.449,Boat,2022.1.1,59.97638130099012,
positive,positive,1,l,j,,,,,,,,,10,6,186,2,,,,,,,,,,,,,,,,,,,,,,,,main,1,1,1,positive,positive,j,j,1,0.8771334000048228,544.8241969999945,545.8230355999985,545.8068037000048,None,544.8241969999945,None,544.8241969999945,None,544.8241969999945,None,546.6887291600084,None,546.6887291600084,None,546.6887291600084,None,,,,,,,,,,,111,23,Female,2022-05-03_20h03.40.449,Boat,2022.1.1,59.97638130099012,
negative,negative,1,j,l,,,,,,,,,10,7,187,0,,,,,,,,,,,,,,,,,,,,,,,,main,1,1,1,negative,negative,l,l,1,0.7163276000064798,546.7075569000008,547.7181277000054,547.6746472000086,None,546.7075569000008,None,546.7075569000008,None,546.7075569000008,None,548.4077256600082,None,548.4077256600082,None,548.4077256600082,None,,,,,,,,,,,111,23,Female,2022-05-03_20h03.40.449,Boat,2022.1.1,59.97638130099012,
negative,neutral,2,j,l,,,,,,,,,10,8,188,12,,,,,,,,,,,,,,,,,,,,,,,,main,2,2,2,neutral,negative,l,l,1,0.8008162000041921,548.422664800004,549.4392355000018,549.4032230000012,None,548.422664800004,None,548.422664800004,None,548.422664800004,None,550.2101338599983,None,550.2101338599983,None,550.2101338599983,None,,,,,,,,,,,111,23,Female,2022-05-03_20h03.40.449,Boat,2022.1.1,59.97638130099012,
positive,neutral,1,l,j,,,,,,,,,10,9,189,8,,,,,,,,,,,,,,,,,,,,,,,,main,2,2,1,neutral,positive,j,l,0,0.7144824000133667,550.2265554000041,551.2402845000033,551.2030070000037,None,550.2265554000041,None,550.2265554000041,None,550.2265554000041,None,551.9306243000028,None,551.9306243000028,None,551.9306243000028,None,,,,,,,,,,,111,23,Female,2022-05-03_20h03.40.449,Boat,2022.1.1,59.97638130099012,
positive,neutral,2,l,j,,,,,,,,,10,10,190,17,,,,,,,,,,,,,,,,,,,,,,,,main,1,1,2,neutral,positive,j,j,1,0.9157775000057882,552.9421431999945,553.9679561999947,553.9234546999942,None,552.9421431999945,None,552.9421431999945,None,552.9421431999945,None,554.844241759996,None,554.844241759996,None,554.844241759996,None,,,,,,,,,,,111,23,Female,2022-05-03_20h03.40.449,Boat,2022.1.1,59.97638130099012,
neutral,negative,2,k,k,,,,,,,,,10,11,191,16,,,,,,,,,,,,,,,,,,,,,,,,main,2,2,2,negative,neutral,k,k,1,0.7999161000043387,554.8586789999972,555.8846718999994,555.840096400003,None,554.8586789999972,None,554.8586789999972,None,554.8586789999972,None,556.6466008600052,None,556.6466008600052,None,556.6466008600052,None,,,,,,,,,,,111,23,Female,2022-05-03_20h03.40.449,Boat,2022.1.1,59.97638130099012,
positive,positive,2,l,j,,,,,,,,,10,12,192,11,,,,,,,,,,,,,,,,,,,,,,,,main,1,1,2,positive,positive,j,j,1,0.6982667999982368,556.662259699995,557.6852256999991,557.6404063999944,None,556.662259699995,None,556.662259699995,None,556.662259699995,None,558.3470359599975,None,558.3470359599975,None,558.3470359599975,None,,,,,,,,,,,111,23,Female,2022-05-03_20h03.40.449,Boat,2022.1.1,59.97638130099012,
negative,negative,2,j,l,,,,,,,,,10,13,193,9,,,,,,,,,,,,,,,,,,,,,,,,main,1,1,2,negative,negative,l,l,1,0.8614446999999927,558.3625598000071,559.3832715000026,559.3401797999977,None,558.3625598000071,None,558.3625598000071,None,558.3625598000071,None,560.2109425600007,None,560.2109425600007,None,560.2109425600007,None,,,,,,,,,,,111,23,Female,2022-05-03_20h03.40.449,Boat,2022.1.1,59.97638130099012,
neutral,neutral,1,k,k,,,,,,,,,10,14,194,1,,,,,,,,,,,,,,,,,,,,,,,,main,2,2,1,neutral,neutral,k,k,1,0.7651055000023916,560.226138500002,561.2515493999963,561.2068762999988,None,560.226138500002,None,560.226138500002,None,560.226138500002,None,561.9772416599968,None,561.9772416599968,None,561.9772416599968,None,,,,,,,,,,,111,23,Female,2022-05-03_20h03.40.449,Boat,2022.1.1,59.97638130099012,
negative,neutral,1,j,l,,,,,,,,,10,15,195,3,,,,,,,,,,,,,,,,,,,,,,,,main,2,2,1,neutral,negative,l,l,1,0.7783448999980465,561.9961777999997,563.0071960000059,562.9734622999968,None,561.9961777999997,None,561.9961777999997,None,561.9961777999997,None,563.7594557600038,None,563.7594557600038,None,563.7594557600038,None,,,,,,,,,,,111,23,Female,2022-05-03_20h03.40.449,Boat,2022.1.1,59.97638130099012,
neutral,negative,1,k,k,,,,,,,,,10,16,196,7,,,,,,,,,,,,,,,,,,,,,,,,main,1,1,1,negative,neutral,k,k,1,0.8657830000011018,563.7746658999968,564.7734697999986,564.757626999999,None,563.7746658999968,None,563.7746658999968,None,563.7746658999968,None,565.6267953599978,None,565.6267953599978,None,565.6267953599978,None,,,,,,,,,,,111,23,Female,2022-05-03_20h03.40.449,Boat,2022.1.1,59.97638130099012,
negative,positive,2,j,l,,,,,,,,,10,17,197,15,,,,,,,,,,,,,,,,,,,,,,,,main,2,2,2,positive,negative,l,l,1,0.8349402000021655,565.6442539999989,566.668250200004,566.6236060000083,None,565.6442539999989,None,565.6442539999989,None,565.6442539999989,None,567.4659431599954,None,567.4659431599954,None,567.4659431599954,None,,,,,,,,,,,111,23,Female,2022-05-03_20h03.40.449,Boat,2022.1.1,59.97638130099012,
neutral,positive,2,k,k,,,,,,,,,11,0,198,13,,,,,,,,,,,,,,,,,,,,,,,,main,1,1,2,positive,neutral,k,k,1,0.825841700003366,567.4816710000014,568.4923044000025,568.457152899995,None,567.4816710000014,None,567.4816710000014,None,567.4816710000014,None,569.2930172599969,None,569.2930172599969,None,569.2930172599969,None,,,,,,,,,,,111,23,Female,2022-05-03_20h03.40.449,Boat,2022.1.1,59.97638130099012,
positive,positive,2,l,j,,,,,,,,,11,1,199,11,,,,,,,,,,,,,,,,,,,,,,,,main,2,2,2,positive,positive,j,j,1,0.8463027000107104,569.3076217000053,570.3241501000011,570.3062062999961,None,569.3076217000053,None,569.3076217000053,None,569.3076217000053,None,571.1419572600076,None,571.1419572600076,None,571.1419572600076,None,,,,,,,,,,,111,23,Female,2022-05-03_20h03.40.449,Boat,2022.1.1,59.97638130099012,
positive,neutral,1,l,j,,,,,,,,,11,2,200,8,,,,,,,,,,,,,,,,,,,,,,,,main,2,2,1,neutral,positive,j,k,0,0.6163206000055652,571.1575411999947,572.1741297999979,572.1376791000075,None,571.1575411999947,None,571.1575411999947,None,571.1575411999947,None,572.763909900008,None,572.763909900008,None,572.763909900008,None,,,,,,,,,,,111,23,Female,2022-05-03_20h03.40.449,Boat,2022.1.1,59.97638130099012,
positive,negative,2,l,j,,,,,,,,,11,3,201,14,,,,,,,,,,,,,,,,,,,,,,,,main,1,1,2,negative,positive,j,j,1,0.8500111999892397,573.7745224999962,574.7870647999953,574.7527547000063,None,573.7745224999962,None,573.7745224999962,None,573.7745224999962,None,575.611768559998,None,575.611768559998,None,575.611768559998,None,,,,,,,,,,,111,23,Female,2022-05-03_20h03.40.449,Boat,2022.1.1,59.97638130099012,
negative,negative,2,j,l,,,,,,,,,11,4,202,9,,,,,,,,,,,,,,,,,,,,,,,,main,2,2,2,negative,negative,l,l,1,0.8309277000080328,575.6278416999994,576.6520927999954,576.6071507000015,None,575.6278416999994,None,575.6278416999994,None,575.6278416999994,None,577.4456151599967,None,577.4456151599967,None,577.4456151599967,None,,,,,,,,,,,111,23,Female,2022-05-03_20h03.40.449,Boat,2022.1.1,59.97638130099012,
negative,neutral,2,j,l,,,,,,,,,11,5,203,12,,,,,,,,,,,,,,,,,,,,,,,,main,2,2,2,neutral,negative,l,l,1,0.7298177000047872,577.4614011999947,578.4685611000023,578.4499746000074,None,577.4614011999947,None,577.4614011999947,None,577.4614011999947,None,579.1773157600052,None,579.1773157600052,None,579.1773157600052,None,,,,,,,,,,,111,23,Female,2022-05-03_20h03.40.449,Boat,2022.1.1,59.97638130099012,
neutral,negative,1,k,k,,,,,,,,,11,6,204,7,,,,,,,,,,,,,,,,,,,,,,,,main,2,2,1,negative,neutral,k,k,1,0.7831564000080107,579.1959262000018,580.207425200002,580.1742314000003,None,579.1959262000018,None,579.1959262000018,None,579.1959262000018,None,580.9633441599959,None,580.9633441599959,None,580.9633441599959,None,,,,,,,,,,,111,23,Female,2022-05-03_20h03.40.449,Boat,2022.1.1,59.97638130099012,
neutral,neutral,1,k,k,,,,,,,,,11,7,205,1,,,,,,,,,,,,,,,,,,,,,,,,main,1,1,1,neutral,neutral,k,k,1,0.6791267999942647,580.9784698000003,581.9905023000028,581.9546909000055,None,580.9784698000003,None,580.9784698000003,None,580.9784698000003,None,582.6452465599956,None,582.6452465599956,None,582.6452465599956,None,,,,,,,,,,,111,23,Female,2022-05-03_20h03.40.449,Boat,2022.1.1,59.97638130099012,
positive,negative,1,l,j,,,,,,,,,11,8,206,5,,,,,,,,,,,,,,,,,,,,,,,,main,1,1,1,negative,positive,j,j,1,0.7419381000072462,582.6602079000004,583.6740738999943,583.6379773000081,None,582.6602079000004,None,582.6602079000004,None,582.6602079000004,None,584.3907848600007,None,584.3907848600007,None,584.3907848600007,None,,,,,,,,,,,111,23,Female,2022-05-03_20h03.40.449,Boat,2022.1.1,59.97638130099012,
neutral,negative,2,k,k,,,,,,,,,11,9,207,16,,,,,,,,,,,,,,,,,,,,,,,,main,2,2,2,negative,neutral,k,k,1,0.750978900003247,584.4058758000028,585.4073264000035,585.3911358000041,None,584.4058758000028,None,584.4058758000028,None,584.4058758000028,None,586.1436873599974,None,586.1436873599974,None,586.1436873599974,None,,,,,,,,,,,111,23,Female,2022-05-03_20h03.40.449,Boat,2022.1.1,59.97638130099012,
positive,positive,1,l,j,,,,,,,,,11,10,208,2,,,,,,,,,,,,,,,,,,,,,,,,main,1,1,1,positive,positive,j,j,1,0.8680409000080545,586.1598690999963,587.184181699995,587.1409543000045,None,586.1598690999963,None,586.1598690999963,None,586.1598690999963,None,588.0139093599952,None,588.0139093599952,None,588.0139093599952,None,,,,,,,,,,,111,23,Female,2022-05-03_20h03.40.449,Boat,2022.1.1,59.97638130099012,
