target,distractor,set,ans1,ans2,rep_loop2.thisRepN,rep_loop2.thisTrialN,rep_loop2.thisN,rep_loop2.thisIndex,flanker_prac_loop.thisRepN,flanker_prac_loop.thisTrialN,flanker_prac_loop.thisN,flanker_prac_loop.thisIndex,flanker_main_loop.thisRepN,flanker_main_loop.thisTrialN,flanker_main_loop.thisN,flanker_main_loop.thisIndex,fl_inst_resp.keys,mouse.x,mouse.y,mouse.leftButton,mouse.midButton,mouse.rightButton,mouse.started,mouse.stopped,sound_1.started,sound_1.stopped,no_text.started,no_text.stopped,yes_text.started,yes_text.stopped,mouse_2.x,mouse_2.y,mouse_2.leftButton,mouse_2.midButton,mouse_2.rightButton,mouse_2.started,mouse_2.stopped,back_2.started,back_2.stopped,main_prac,fl_cold,fl_colt,fl_set,fl_dcond,fl_tcond,fl_ans,fl_res,fl_corr,fl_rt,fix_fl.started,fix_fl.stopped,targ.started,targ.stopped,j_button.started,j_button.stopped,k_button.started,k_button.stopped,l_button.started,l_button.stopped,j_button2.started,j_button2.stopped,k_button2.started,k_button2.stopped,l_button2.started,l_button2.stopped,mainback.started,mainback.stopped,key_resp.keys,key_resp.rt,mouse_6.x,mouse_6.y,mouse_6.leftButton,mouse_6.midButton,mouse_6.rightButton,mouse_6.started,mouse_6.stopped,id*,age*,gender*,date,expName,psychopyVersion,frameRate,
,,,,,0,0,0,0,,,,,,,,,None,-0.04537037,-0.17870371,0,0,0,1.0989640805928502,None,37.8845994100091,None,87.97166010001092,None,87.97166010001092,None,-0.06944445,-0.12222222,0,0,0,0.015388820029329509,None,,,,,,,,,,,,,,,,,,,,,,,,,,,,,,,,,,,,,,,,112,20,Female,2022-05-04_09h48.05.672,Boat,2022.1.1,59.99772008673796,
neutral,positive,2,k,k,,,,,0,0,0,13,,,,,,,,,,,,,,,,,,,,,,,,,,91.17865549999988,None,prac,2,2,2,positive,neutral,k,k,1,3.2541230999922846,93.29700419999426,94.34827069999301,94.2996826999879,None,93.29700419999426,None,93.29700419999426,None,93.29700419999426,None,97.52153269998962,None,97.52153269998962,None,97.52153269998962,None,,,,,,,,,,,,112,20,Female,2022-05-04_09h48.05.672,Boat,2022.1.1,59.99772008673796,
neutral,negative,1,k,k,,,,,0,1,1,7,,,,,,,,,,,,,,,,,,,,,,,,,,,,prac,1,1,1,negative,neutral,k,j,0,1.4652038000058383,98.61460719999741,99.66394120000768,99.61512339999899,None,98.61460719999741,None,98.61460719999741,None,98.61460719999741,None,101.02035959999193,None,101.02035959999193,None,101.02035959999193,None,,,,,,,,,,,,112,20,Female,2022-05-04_09h48.05.672,Boat,2022.1.1,59.99772008673796,
negative,negative,2,j,l,,,,,0,2,2,9,,,,,,,,,,,,,,,,,,,,,,,,,,,,prac,2,2,2,negative,negative,j,j,1,1.3006583000242244,102.10145739998552,103.14380290001282,103.07275880000088,None,102.10145739998552,None,102.10145739998552,None,102.10145739998552,None,104.3301678299962,None,104.3301678299962,None,104.3301678299962,None,,,,,,,,,,,,112,20,Female,2022-05-04_09h48.05.672,Boat,2022.1.1,59.99772008673796,
negative,positive,2,j,l,,,,,0,3,3,15,,,,,,,,,,,,,,,,,,,,,,,,,,,,prac,1,1,2,positive,negative,j,j,1,1.1499265000165906,104.41352120001102,105.46676829998614,105.41886090001208,None,104.41352120001102,None,104.41352120001102,None,104.41352120001102,None,106.49888753000995,None,106.49888753000995,None,106.49888753000995,None,,,,,,,,,,,,112,20,Female,2022-05-04_09h48.05.672,Boat,2022.1.1,59.99772008673796,
positive,positive,2,l,j,,,,,0,4,4,11,,,,,,,,,,,,,,,,,,,,,,,,,,,,prac,1,1,2,positive,positive,l,l,1,1.1857709999894723,106.55207040000823,107.60674849999486,107.55970270000398,None,106.55207040000823,None,106.55207040000823,None,106.55207040000823,None,108.68255443001398,None,108.68255443001398,None,108.68255443001398,None,,,,,,,,,,,,112,20,Female,2022-05-04_09h48.05.672,Boat,2022.1.1,59.99772008673796,
negative,negative,1,j,l,,,,,0,5,5,0,,,,,,,,,,,,,,,,,,,,,,,,,,,,prac,1,1,1,negative,negative,j,j,1,1.2406741000013426,108.75944019999588,109.8107478999882,109.76201209999272,None,108.75944019999588,None,108.75944019999588,None,108.75944019999588,None,110.9408812300011,None,110.9408812300011,None,110.9408812300011,None,,,,,,,,,,,,112,20,Female,2022-05-04_09h48.05.672,Boat,2022.1.1,59.99772008673796,
positive,negative,1,l,j,,,,,0,6,6,5,,,,,,,,,,,,,,,,,,,,,,,,,,,,prac,2,2,1,negative,positive,l,l,1,1.1797986000019591,111.02335579998908,112.08787119999761,112.03996269998606,None,111.02335579998908,None,111.02335579998908,None,111.02335579998908,None,113.12229592999792,None,113.12229592999792,None,113.12229592999792,None,,,,,,,,,,,,112,20,Female,2022-05-04_09h48.05.672,Boat,2022.1.1,59.99772008673796,
neutral,negative,2,k,k,,,,,0,7,7,16,,,,,,,,,,,,,,,,,,,,,,,,,,,,prac,2,2,2,negative,neutral,k,k,1,1.0400462000106927,113.20550340000773,114.25327580000157,114.20505859999685,None,113.20550340000773,None,113.20550340000773,None,113.20550340000773,None,115.1748584200046,None,115.1748584200046,None,115.1748584200046,None,,,,,,,,,,,,112,20,Female,2022-05-04_09h48.05.672,Boat,2022.1.1,59.99772008673796,
negative,positive,1,j,l,,,,,0,8,8,6,,,,,,,,,,,,,,,,,,,,,,,,,,,,prac,2,2,1,positive,negative,j,j,1,0.9747628000041004,115.23141979999491,116.3090389999852,116.25415739999153,None,115.23141979999491,None,115.23141979999491,None,115.23141979999491,None,117.16168813000549,None,117.16168813000549,None,117.16168813000549,None,,,,,,,,,,,,112,20,Female,2022-05-04_09h48.05.672,Boat,2022.1.1,59.99772008673796,
positive,positive,1,l,j,,,,,0,9,9,2,,,,,,,,,,,,,,,,,,,,,,,,,,,,prac,2,2,1,positive,positive,l,l,1,0.916103600000497,117.235628800001,118.29666520000319,118.24389270000393,None,117.235628800001,None,117.235628800001,None,117.235628800001,None,119.08950031999265,None,119.08950031999265,None,119.08950031999265,None,,,,,,,,,,,,112,20,Female,2022-05-04_09h48.05.672,Boat,2022.1.1,59.99772008673796,
negative,neutral,1,j,l,,,,,0,10,10,3,,,,,,,,,,,,,,,,,,,,,,,,,,,,prac,2,2,1,neutral,negative,j,j,1,0.9009939999959897,119.17017279998981,120.21419319999404,120.16306230000919,None,119.17017279998981,None,119.17017279998981,None,119.17017279998981,None,120.99805451998836,None,120.99805451998836,None,120.99805451998836,None,,,,,,,,,,,,112,20,Female,2022-05-04_09h48.05.672,Boat,2022.1.1,59.99772008673796,
neutral,positive,1,k,k,,,,,0,11,11,4,,,,,,,,,,,,,,,,,,,,,,,,,,,,prac,2,2,1,positive,neutral,k,k,1,0.8859088000026532,121.0292635000078,122.10102780000307,122.0455185000028,None,121.0292635000078,None,121.0292635000078,None,121.0292635000078,None,122.88725162999471,None,122.88725162999471,None,122.88725162999471,None,,,,,,,,,,,,112,20,Female,2022-05-04_09h48.05.672,Boat,2022.1.1,59.99772008673796,
positive,negative,2,l,j,,,,,0,12,12,14,,,,,,,,,,,,,,,,,,,,,,,,,,,,prac,2,2,2,negative,positive,l,l,1,0.8148531999904662,122.95235780000803,123.99348899998586,123.94451159998425,None,122.95235780000803,None,122.95235780000803,None,122.95235780000803,None,124.71251522001111,None,124.71251522001111,None,124.71251522001111,None,,,,,,,,,,,,112,20,Female,2022-05-04_09h48.05.672,Boat,2022.1.1,59.99772008673796,
neutral,neutral,2,k,k,,,,,0,13,13,10,,,,,,,,,,,,,,,,,,,,,,,,,,,,prac,2,2,2,neutral,neutral,k,k,1,0.7946163000015076,124.75480990001233,125.83237680001184,125.78192040001159,None,124.75480990001233,None,124.75480990001233,None,124.75480990001233,None,126.51022642999887,None,126.51022642999887,None,126.51022642999887,None,,,,,,,,,,,,112,20,Female,2022-05-04_09h48.05.672,Boat,2022.1.1,59.99772008673796,
negative,neutral,2,j,l,,,,,0,14,14,12,,,,,,,,,,,,,,,,,,,,,,,,,,,,prac,2,2,2,neutral,negative,j,j,1,0.8487223999982234,126.58667620000779,127.65381809999235,127.60580789999221,None,126.58667620000779,None,126.58667620000779,None,126.58667620000779,None,128.37399951999544,None,128.37399951999544,None,128.37399951999544,None,,,,,,,,,,,,112,20,Female,2022-05-04_09h48.05.672,Boat,2022.1.1,59.99772008673796,
positive,neutral,1,l,j,,,,,0,15,15,8,,,,,,,,,,,,,,,,,,,,,,,,,,,,prac,2,2,1,neutral,positive,l,,0,1.0338050000136718,128.41637660001288,129.45033429999603,129.45033429999603,None,128.41637660001288,None,128.41637660001288,None,128.41637660001288,None,130.4260071000026,None,130.4260071000026,None,130.4260071000026,None,,,,,,,,,,,,112,20,Female,2022-05-04_09h48.05.672,Boat,2022.1.1,59.99772008673796,
positive,neutral,2,l,j,,,,,0,16,16,17,,,,,,,,,,,,,,,,,,,,,,,,,,,,prac,2,2,2,neutral,positive,l,l,1,0.9243444000021555,131.50716559999273,132.5494847999944,132.48273449999397,None,131.50716559999273,None,131.50716559999273,None,131.50716559999273,None,133.37459622999305,None,133.37459622999305,None,133.37459622999305,None,,,,,,,,,,,,112,20,Female,2022-05-04_09h48.05.672,Boat,2022.1.1,59.99772008673796,
neutral,neutral,1,k,k,,,,,0,17,17,1,,,,,,,,,,,,,,,,,,,,,,,,,,,,prac,2,2,1,neutral,neutral,k,k,1,0.9244051999994554,133.4358050999872,134.46832819998963,134.40887429998838,None,133.4358050999872,None,133.4358050999872,None,133.4358050999872,None,135.30915352999583,None,135.30915352999583,None,135.30915352999583,None,,,,,,,,,,,,112,20,Female,2022-05-04_09h48.05.672,Boat,2022.1.1,59.99772008673796,
neutral,positive,1,k,k,,,,,1,0,18,4,,,,,,,,,,,,,,,,,,,,,,,,,,,,prac,2,2,1,positive,neutral,k,k,1,0.9824627000198234,135.37710569999763,136.438307000004,136.3890201000031,None,135.37710569999763,None,135.37710569999763,None,135.37710569999763,None,137.28836882000326,None,137.28836882000326,None,137.28836882000326,None,,,,,,,,,,,,112,20,Female,2022-05-04_09h48.05.672,Boat,2022.1.1,59.99772008673796,
positive,negative,1,l,j,,,,,1,1,19,5,,,,,,,,,,,,,,,,,,,,,,,,,,,,prac,2,2,1,negative,positive,l,l,1,0.7300146000052337,137.35881519998657,138.39825239998754,138.35024930001236,None,137.35881519998657,None,137.35881519998657,None,137.35881519998657,None,139.036413130007,None,139.036413130007,None,139.036413130007,None,,,,,,,,,,,,112,20,Female,2022-05-04_09h48.05.672,Boat,2022.1.1,59.99772008673796,
negative,positive,2,j,l,,,,,1,2,20,15,,,,,,,,,,,,,,,,,,,,,,,,,,,,prac,2,2,2,positive,negative,j,j,1,0.761676099995384,139.11654260000796,140.18836759999976,140.09002629999304,None,139.11654260000796,None,139.11654260000796,None,139.11654260000796,None,140.809066320007,None,140.809066320007,None,140.809066320007,None,,,,,,,,,,,,112,20,Female,2022-05-04_09h48.05.672,Boat,2022.1.1,59.99772008673796,
negative,neutral,1,j,l,,,,,1,3,21,3,,,,,,,,,,,,,,,,,,,,,,,,,,,,prac,1,1,1,neutral,negative,j,j,1,0.7582555999979377,140.87251549999928,141.9147621000011,141.86573560000397,None,140.87251549999928,None,140.87251549999928,None,140.87251549999928,None,142.56857091999848,None,142.56857091999848,None,142.56857091999848,None,,,,,,,,,,,,112,20,Female,2022-05-04_09h48.05.672,Boat,2022.1.1,59.99772008673796,
positive,neutral,1,l,j,,,,,1,4,22,8,,,,,,,,,,,,,,,,,,,,,,,,,,,,prac,2,2,1,neutral,positive,l,l,1,1.0151328000065405,142.61291600001277,143.64922960000695,143.64922960000695,None,142.61291600001277,None,142.61291600001277,None,142.61291600001277,None,144.59411761999365,None,144.59411761999365,None,144.59411761999365,None,,,,,,,,,,,,112,20,Female,2022-05-04_09h48.05.672,Boat,2022.1.1,59.99772008673796,
negative,neutral,2,j,l,,,,,1,5,23,12,,,,,,,,,,,,,,,,,,,,,,,,,,,,prac,1,1,2,neutral,negative,j,j,1,0.7319763999839779,144.63988460000837,145.67395550000947,145.62530949999928,None,144.63988460000837,None,144.63988460000837,None,144.63988460000837,None,146.334588619991,None,146.334588619991,None,146.334588619991,None,,,,,,,,,,,,112,20,Female,2022-05-04_09h48.05.672,Boat,2022.1.1,59.99772008673796,
neutral,positive,2,k,k,,,,,1,6,24,13,,,,,,,,,,,,,,,,,,,,,,,,,,,,prac,2,2,2,positive,neutral,k,k,1,0.7700211000046693,146.36494619998848,147.42412300000433,147.3750788999896,None,146.36494619998848,None,146.36494619998848,None,146.36494619998848,None,148.10725622000757,None,148.10725622000757,None,148.10725622000757,None,,,,,,,,,,,,112,20,Female,2022-05-04_09h48.05.672,Boat,2022.1.1,59.99772008673796,
positive,positive,2,l,j,,,,,1,7,25,11,,,,,,,,,,,,,,,,,,,,,,,,,,,,prac,1,1,2,positive,positive,l,l,1,0.9058394999883603,148.18311370001175,149.23405060000368,149.1853453000076,None,148.18311370001175,None,148.18311370001175,None,148.18311370001175,None,150.02420593001298,None,150.02420593001298,None,150.02420593001298,None,,,,,,,,,,,,112,20,Female,2022-05-04_09h48.05.672,Boat,2022.1.1,59.99772008673796,
positive,positive,1,l,j,,,,,1,8,26,2,,,,,,,,,,,,,,,,,,,,,,,,,,,,prac,1,1,1,positive,positive,l,l,1,0.9425145999994129,150.11133340001106,151.15812340000411,151.1109967000084,None,150.11133340001106,None,150.11133340001106,None,150.11133340001106,None,151.98126252000804,None,151.98126252000804,None,151.98126252000804,None,,,,,,,,,,,,112,20,Female,2022-05-04_09h48.05.672,Boat,2022.1.1,59.99772008673796,
negative,negative,1,j,l,,,,,1,9,27,0,,,,,,,,,,,,,,,,,,,,,,,,,,,,prac,1,1,1,negative,negative,j,j,1,1.6222508999926504,152.01565210000263,153.0745159999933,153.02519489999395,None,152.01565210000263,None,152.01565210000263,None,152.01565210000263,None,154.6216010999924,None,154.6216010999924,None,154.6216010999924,None,,,,,,,,,,,,112,20,Female,2022-05-04_09h48.05.672,Boat,2022.1.1,59.99772008673796,
negative,negative,2,j,l,,,,,1,10,28,9,,,,,,,,,,,,,,,,,,,,,,,,,,,,prac,1,1,2,negative,negative,j,j,1,2.164728500007186,155.69600110000465,156.77084390001255,156.7228172000032,None,155.69600110000465,None,155.69600110000465,None,155.69600110000465,None,158.79621540001244,None,158.79621540001244,None,158.79621540001244,None,,,,,,,,,,,,112,20,Female,2022-05-04_09h48.05.672,Boat,2022.1.1,59.99772008673796,
neutral,neutral,2,k,k,,,,,1,11,29,10,,,,,,,,,,,,,,,,,,,,,,,,,,,,prac,1,1,2,neutral,neutral,k,k,1,0.9085684000165202,159.87386610000976,160.90971469998476,160.8584417999955,None,159.87386610000976,None,159.87386610000976,None,159.87386610000976,None,161.72738252999844,None,161.72738252999844,None,161.72738252999844,None,,,,,,,,,,,,112,20,Female,2022-05-04_09h48.05.672,Boat,2022.1.1,59.99772008673796,
positive,negative,2,l,j,,,,,1,12,30,14,,,,,,,,,,,,,,,,,,,,,,,,,,,,prac,2,2,2,negative,positive,l,l,1,0.920191800018074,161.79187680000905,162.8473990999919,162.79901250000694,None,161.79187680000905,None,161.79187680000905,None,161.79187680000905,None,163.64755032001415,None,163.64755032001415,None,163.64755032001415,None,,,,,,,,,,,,112,20,Female,2022-05-04_09h48.05.672,Boat,2022.1.1,59.99772008673796,
positive,neutral,2,l,j,,,,,1,13,31,17,,,,,,,,,,,,,,,,,,,,,,,,,,,,prac,2,2,2,neutral,positive,l,l,1,-0.46538469998631626,163.70195909999893,None,None,None,163.70195909999893,None,163.70195909999893,None,163.70195909999893,None,164.24218639999162,None,164.24218639999162,None,164.24218639999162,None,,,,,,,,,,,,112,20,Female,2022-05-04_09h48.05.672,Boat,2022.1.1,59.99772008673796,
neutral,negative,2,k,k,,,,,1,14,32,16,,,,,,,,,,,,,,,,,,,,,,,,,,,,prac,2,2,2,negative,neutral,k,k,1,0.9905075000133365,167.30612379999366,168.342427399999,168.29513630000292,None,167.30612379999366,None,167.30612379999366,None,167.30612379999366,None,169.24228713001358,None,169.24228713001358,None,169.24228713001358,None,,,,,,,,,,,,112,20,Female,2022-05-04_09h48.05.672,Boat,2022.1.1,59.99772008673796,
neutral,neutral,1,k,k,,,,,1,15,33,1,,,,,,,,,,,,,,,,,,,,,,,,,,,,prac,2,2,1,neutral,neutral,k,k,1,0.9243407999747433,169.30091540000285,170.3389876000001,170.28983759999392,None,169.30091540000285,None,169.30091540000285,None,169.30091540000285,None,171.1747212300019,None,171.1747212300019,None,171.1747212300019,None,,,,,,,,,,,,112,20,Female,2022-05-04_09h48.05.672,Boat,2022.1.1,59.99772008673796,
neutral,negative,1,k,k,,,,,1,16,34,7,,,,,,,,,,,,,,,,,,,,,,,,,,,,prac,2,2,1,negative,neutral,k,k,1,0.829832500021439,171.23158530000364,172.26372339998488,172.2145779999846,None,171.23158530000364,None,171.23158530000364,None,171.23158530000364,None,173.0091829299985,None,173.0091829299985,None,173.0091829299985,None,,,,,,,,,,,,112,20,Female,2022-05-04_09h48.05.672,Boat,2022.1.1,59.99772008673796,
negative,positive,1,j,l,,,,,1,17,35,6,,,,,,,,,,,,,,,,,,,,,,,,,,,,prac,1,1,1,positive,negative,j,j,1,0.9576892000040971,173.08800530000008,174.13674809999065,174.08861649999744,None,173.08800530000008,None,173.08800530000008,None,173.08800530000008,None,174.9782770299993,None,174.9782770299993,None,174.9782770299993,None,,,,,,,,,,,,112,20,Female,2022-05-04_09h48.05.672,Boat,2022.1.1,59.99772008673796,
,,,,,,,,,,,,,,,,,,,,,,,,,,,,,,,,,,,,,,,,,,,,,,,,,,,,,,,,,,,,,,,,,,174.99752589999116,None,space,11.532343900005799,,,,,,,,112,20,Female,2022-05-04_09h48.05.672,Boat,2022.1.1,59.99772008673796,
,,,,,,,,,,,,,,,,,,,,,,,,,,,,,,,,,,,,,,,,,,,,,,,,,,,,,,,,,,,,,,,,,,,,,,0.60555553,-0.4148148,0,0,0,0.0088824299746193,None,112,20,Female,2022-05-04_09h48.05.672,Boat,2022.1.1,59.99772008673796,
negative,negative,1,j,l,,,,,,,,,0,0,0,0,,,,,,,,,,,,,,,,,,,,,,186.55923939999775,None,main,2,2,1,negative,negative,j,j,1,1.1590774000214878,188.70139740000013,189.75482100000954,189.70767309999792,None,188.70139740000013,None,188.70139740000013,None,188.70139740000013,None,190.77331332999748,None,190.77331332999748,None,190.77331332999748,None,,,,,,,,,,,,112,20,Female,2022-05-04_09h48.05.672,Boat,2022.1.1,59.99772008673796,
negative,negative,2,j,l,,,,,,,,,0,1,1,9,,,,,,,,,,,,,,,,,,,,,,,,main,1,1,2,negative,negative,j,j,1,0.8521677999815438,190.86694840001292,191.90141190000577,191.85381569998572,None,190.86694840001292,None,190.86694840001292,None,190.86694840001292,None,192.6413449199987,None,192.6413449199987,None,192.6413449199987,None,,,,,,,,,,,,112,20,Female,2022-05-04_09h48.05.672,Boat,2022.1.1,59.99772008673796,
neutral,negative,2,k,k,,,,,,,,,0,2,2,16,,,,,,,,,,,,,,,,,,,,,,,,main,1,1,2,negative,neutral,k,k,1,0.8668922999931965,192.6897692999919,193.72249190000002,193.72249190000002,None,192.6897692999919,None,192.6897692999919,None,192.6897692999919,None,194.50719990998624,None,194.50719990998624,None,194.50719990998624,None,,,,,,,,,,,,112,20,Female,2022-05-04_09h48.05.672,Boat,2022.1.1,59.99772008673796,
positive,neutral,2,l,j,,,,,,,,,0,3,3,17,,,,,,,,,,,,,,,,,,,,,,,,main,2,2,2,neutral,positive,l,l,1,0.9489652999909595,194.5494030000118,195.60191299999133,195.55382679999457,None,194.5494030000118,None,194.5494030000118,None,194.5494030000118,None,196.47251972999075,None,196.47251972999075,None,196.47251972999075,None,,,,,,,,,,,,112,20,Female,2022-05-04_09h48.05.672,Boat,2022.1.1,59.99772008673796,
neutral,neutral,1,k,k,,,,,,,,,0,4,4,1,,,,,,,,,,,,,,,,,,,,,,,,main,1,1,1,neutral,neutral,k,k,1,0.9267449000035413,196.55276789999334,197.61880029999884,197.57150140000158,None,196.55276789999334,None,196.55276789999334,None,196.55276789999334,None,198.41019252000262,None,198.41019252000262,None,198.41019252000262,None,,,,,,,,,,,,112,20,Female,2022-05-04_09h48.05.672,Boat,2022.1.1,59.99772008673796,
negative,neutral,1,j,l,,,,,,,,,0,5,5,3,,,,,,,,,,,,,,,,,,,,,,,,main,1,1,1,neutral,negative,j,j,1,0.9762035999738146,198.47897870000452,199.54148200000054,199.49184450000757,None,198.47897870000452,None,198.47897870000452,None,198.47897870000452,None,200.40382912000644,None,200.40382912000644,None,200.40382912000644,None,,,,,,,,,,,,112,20,Female,2022-05-04_09h48.05.672,Boat,2022.1.1,59.99772008673796,
negative,positive,1,j,l,,,,,,,,,0,6,6,6,,,,,,,,,,,,,,,,,,,,,,,,main,2,2,1,positive,negative,j,j,1,0.7953948999929707,200.43755669999518,201.50620179998805,201.45237429998815,None,200.43755669999518,None,200.43755669999518,None,200.43755669999518,None,202.20464882000817,None,202.20464882000817,None,202.20464882000817,None,,,,,,,,,,,,112,20,Female,2022-05-04_09h48.05.672,Boat,2022.1.1,59.99772008673796,
positive,negative,1,l,j,,,,,,,,,0,7,7,5,,,,,,,,,,,,,,,,,,,,,,,,main,1,1,1,negative,positive,l,l,1,1.3028553999902215,202.23830719999387,203.28885469998932,203.2410186000052,None,202.23830719999387,None,202.23830719999387,None,202.23830719999387,None,204.51754482999095,None,204.51754482999095,None,204.51754482999095,None,,,,,,,,,,,,112,20,Female,2022-05-04_09h48.05.672,Boat,2022.1.1,59.99772008673796,
positive,positive,2,l,j,,,,,,,,,0,8,8,11,,,,,,,,,,,,,,,,,,,,,,,,main,2,2,2,positive,positive,l,l,1,1.0006923000037204,204.5759340999939,205.62834980001207,205.57862960000057,None,204.5759340999939,None,204.5759340999939,None,204.5759340999939,None,206.524000729993,None,206.524000729993,None,206.524000729993,None,,,,,,,,,,,,112,20,Female,2022-05-04_09h48.05.672,Boat,2022.1.1,59.99772008673796,
positive,positive,1,l,j,,,,,,,,,0,9,9,2,,,,,,,,,,,,,,,,,,,,,,,,main,2,2,1,positive,positive,l,l,1,0.9053496000124142,206.57512540000607,207.63295060000382,207.58474049999495,None,206.57512540000607,None,206.57512540000607,None,206.57512540000607,None,208.4427787300141,None,208.4427787300141,None,208.4427787300141,None,,,,,,,,,,,,112,20,Female,2022-05-04_09h48.05.672,Boat,2022.1.1,59.99772008673796,
neutral,positive,2,k,k,,,,,,,,,0,10,10,13,,,,,,,,,,,,,,,,,,,,,,,,main,2,2,2,positive,neutral,k,k,1,0.9608797000255436,208.52219700001297,209.55345579999266,209.5201151999936,None,208.52219700001297,None,208.52219700001297,None,208.52219700001297,None,210.41838312999462,None,210.41838312999462,None,210.41838312999462,None,,,,,,,,,,,,112,20,Female,2022-05-04_09h48.05.672,Boat,2022.1.1,59.99772008673796,
positive,neutral,1,l,j,,,,,,,,,0,11,11,8,,,,,,,,,,,,,,,,,,,,,,,,main,1,1,1,neutral,positive,l,l,1,0.9095870000019204,210.49155249999603,211.53594750000047,211.4878711999918,None,210.49155249999603,None,210.49155249999603,None,210.49155249999603,None,212.33976741998924,None,212.33976741998924,None,212.33976741998924,None,,,,,,,,,,,,112,20,Female,2022-05-04_09h48.05.672,Boat,2022.1.1,59.99772008673796,
neutral,neutral,2,k,k,,,,,,,,,0,12,12,10,,,,,,,,,,,,,,,,,,,,,,,,main,2,2,2,neutral,neutral,k,k,1,0.9760633000114467,212.37373970000772,213.40728919999674,213.40728919999674,None,212.37373970000772,None,212.37373970000772,None,212.37373970000772,None,214.3226456299948,None,214.3226456299948,None,214.3226456299948,None,,,,,,,,,,,,112,20,Female,2022-05-04_09h48.05.672,Boat,2022.1.1,59.99772008673796,
neutral,positive,1,k,k,,,,,,,,,0,13,13,4,,,,,,,,,,,,,,,,,,,,,,,,main,2,2,1,positive,neutral,k,k,1,0.9139194999879692,214.39289029999054,215.45167000000947,215.40320209998754,None,214.39289029999054,None,214.39289029999054,None,214.39289029999054,None,216.24176822999144,None,216.24176822999144,None,216.24176822999144,None,,,,,,,,,,,,112,20,Female,2022-05-04_09h48.05.672,Boat,2022.1.1,59.99772008673796,
positive,negative,2,l,j,,,,,,,,,0,14,14,14,,,,,,,,,,,,,,,,,,,,,,,,main,2,2,2,negative,positive,l,l,1,0.8365260999999009,216.32200529999682,217.39607149999938,217.30171480000718,None,216.32200529999682,None,216.32200529999682,None,216.32200529999682,None,218.09598282998778,None,218.09598282998778,None,218.09598282998778,None,,,,,,,,,,,,112,20,Female,2022-05-04_09h48.05.672,Boat,2022.1.1,59.99772008673796,
neutral,negative,1,k,k,,,,,,,,,0,15,15,7,,,,,,,,,,,,,,,,,,,,,,,,main,1,1,1,negative,neutral,k,k,1,0.8451302999746986,218.17610899999272,219.2137175000098,219.16510869999183,None,218.17610899999272,None,218.17610899999272,None,218.17610899999272,None,219.94742291999285,None,219.94742291999285,None,219.94742291999285,None,,,,,,,,,,,,112,20,Female,2022-05-04_09h48.05.672,Boat,2022.1.1,59.99772008673796,
negative,positive,2,j,l,,,,,,,,,0,16,16,15,,,,,,,,,,,,,,,,,,,,,,,,main,2,2,2,positive,negative,j,j,1,1.0964586000191048,219.9953569000063,221.03893169999355,220.98966419999488,None,219.9953569000063,None,219.9953569000063,None,219.9953569000063,None,222.0601978300023,None,222.0601978300023,None,222.0601978300023,None,,,,,,,,,,,,112,20,Female,2022-05-04_09h48.05.672,Boat,2022.1.1,59.99772008673796,
negative,neutral,2,j,l,,,,,,,,,0,17,17,12,,,,,,,,,,,,,,,,,,,,,,,,main,2,2,2,neutral,negative,j,j,1,0.8886600999976508,222.1263428000093,223.1743349999888,223.12445649999427,None,222.1263428000093,None,222.1263428000093,None,222.1263428000093,None,223.95559952000042,None,223.95559952000042,None,223.95559952000042,None,,,,,,,,,,,,112,20,Female,2022-05-04_09h48.05.672,Boat,2022.1.1,59.99772008673796,
negative,neutral,2,j,l,,,,,,,,,1,0,18,12,,,,,,,,,,,,,,,,,,,,,,,,main,2,2,2,neutral,negative,j,j,1,0.8739981999970041,224.03366300000926,225.08817559998715,225.03902719999314,None,224.03366300000926,None,224.03366300000926,None,224.03366300000926,None,225.8544968200091,None,225.8544968200091,None,225.8544968200091,None,,,,,,,,,,,,112,20,Female,2022-05-04_09h48.05.672,Boat,2022.1.1,59.99772008673796,
neutral,neutral,2,k,k,,,,,,,,,1,1,19,10,,,,,,,,,,,,,,,,,,,,,,,,main,2,2,2,neutral,neutral,k,k,1,0.9092622000025585,225.87615480000386,226.96525269999984,226.91157679999014,None,225.87615480000386,None,225.87615480000386,None,225.87615480000386,None,227.76603753000964,None,227.76603753000964,None,227.76603753000964,None,,,,,,,,,,,,112,20,Female,2022-05-04_09h48.05.672,Boat,2022.1.1,59.99772008673796,
neutral,positive,1,k,k,,,,,,,,,1,2,20,4,,,,,,,,,,,,,,,,,,,,,,,,main,2,2,1,positive,neutral,k,k,1,1.053552999976091,227.843197899987,228.90672440000344,228.85891410001204,None,227.843197899987,None,227.843197899987,None,227.843197899987,None,229.83240022000393,None,229.83240022000393,None,229.83240022000393,None,,,,,,,,,,,,112,20,Female,2022-05-04_09h48.05.672,Boat,2022.1.1,59.99772008673796,
positive,negative,1,l,j,,,,,,,,,1,3,21,5,,,,,,,,,,,,,,,,,,,,,,,,main,2,2,1,negative,positive,l,l,1,0.9110757000162266,229.86371730000246,230.9279944000009,230.8797506999981,None,229.86371730000246,None,229.86371730000246,None,229.86371730000246,None,231.74899592999137,None,231.74899592999137,None,231.74899592999137,None,,,,,,,,,,,,112,20,Female,2022-05-04_09h48.05.672,Boat,2022.1.1,59.99772008673796,
neutral,positive,2,k,k,,,,,,,,,1,4,22,13,,,,,,,,,,,,,,,,,,,,,,,,main,2,2,2,positive,neutral,k,k,1,1.056414999999106,231.82433760000276,232.86394390001078,232.81531539998832,None,231.82433760000276,None,231.82433760000276,None,231.82433760000276,None,233.8173159300117,None,233.8173159300117,None,233.8173159300117,None,,,,,,,,,,,,112,20,Female,2022-05-04_09h48.05.672,Boat,2022.1.1,59.99772008673796,
negative,positive,1,j,l,,,,,,,,,1,5,23,6,,,,,,,,,,,,,,,,,,,,,,,,main,2,2,1,positive,negative,j,j,1,1.0342013000044972,233.87907059999998,234.94643680000445,234.8989225999976,None,233.87907059999998,None,233.87907059999998,None,233.87907059999998,None,235.86289891998752,None,235.86289891998752,None,235.86289891998752,None,,,,,,,,,,,,112,20,Female,2022-05-04_09h48.05.672,Boat,2022.1.1,59.99772008673796,
positive,positive,2,l,j,,,,,,,,,1,6,24,11,,,,,,,,,,,,,,,,,,,,,,,,main,1,1,2,positive,positive,l,l,1,1.1254366999783088,235.89937579998514,236.95764229999622,236.90912430000026,None,235.89937579998514,None,235.89937579998514,None,235.89937579998514,None,237.99219803000452,None,237.99219803000452,None,237.99219803000452,None,,,,,,,,,,,,112,20,Female,2022-05-04_09h48.05.672,Boat,2022.1.1,59.99772008673796,
negative,positive,2,j,l,,,,,,,,,1,7,25,15,,,,,,,,,,,,,,,,,,,,,,,,main,1,1,2,positive,negative,j,j,1,1.0176321000035387,238.07377119999728,239.12787430000026,239.08074209999177,None,238.07377119999728,None,238.07377119999728,None,238.07377119999728,None,240.0266808299988,None,240.0266808299988,None,240.0266808299988,None,,,,,,,,,,,,112,20,Female,2022-05-04_09h48.05.672,Boat,2022.1.1,59.99772008673796,
positive,negative,2,l,j,,,,,,,,,1,8,26,14,,,,,,,,,,,,,,,,,,,,,,,,main,2,2,2,negative,positive,l,l,1,1.119197099993471,240.09688259998802,241.17269139998825,241.12423889999627,None,240.09688259998802,None,240.09688259998802,None,240.09688259998802,None,242.1566028299916,None,242.1566028299916,None,242.1566028299916,None,,,,,,,,,,,,112,20,Female,2022-05-04_09h48.05.672,Boat,2022.1.1,59.99772008673796,
neutral,neutral,1,k,k,,,,,,,,,1,9,27,1,,,,,,,,,,,,,,,,,,,,,,,,main,2,2,1,neutral,neutral,k,k,1,0.9806337999762036,242.22703919999185,243.27971100001014,243.23222360000364,None,242.22703919999185,None,242.22703919999185,None,242.22703919999185,None,244.14426582000453,None,244.14426582000453,None,244.14426582000453,None,,,,,,,,,,,,112,20,Female,2022-05-04_09h48.05.672,Boat,2022.1.1,59.99772008673796,
negative,neutral,1,j,l,,,,,,,,,1,10,28,3,,,,,,,,,,,,,,,,,,,,,,,,main,2,2,1,neutral,negative,j,j,1,1.0202258999925107,244.19356019998668,245.26037999999244,245.2107202000043,None,244.19356019998668,None,244.19356019998668,None,244.19356019998668,None,246.17442023000913,None,246.17442023000913,None,246.17442023000913,None,,,,,,,,,,,,112,20,Female,2022-05-04_09h48.05.672,Boat,2022.1.1,59.99772008673796,
neutral,negative,1,k,k,,,,,,,,,1,11,29,7,,,,,,,,,,,,,,,,,,,,,,,,main,1,1,1,negative,neutral,k,k,1,0.9926169000100344,246.25528409998515,247.30420049998793,247.22185130001162,None,246.25528409998515,None,246.25528409998515,None,246.25528409998515,None,248.17584402999492,None,248.17584402999492,None,248.17584402999492,None,,,,,,,,,,,,112,20,Female,2022-05-04_09h48.05.672,Boat,2022.1.1,59.99772008673796,
negative,negative,2,j,l,,,,,,,,,1,12,30,9,,,,,,,,,,,,,,,,,,,,,,,,main,1,1,2,negative,negative,j,j,1,1.025270999991335,248.25596189999487,249.29152190001332,249.2442873000109,None,248.25596189999487,None,248.25596189999487,None,248.25596189999487,None,250.21436432999909,None,250.21436432999909,None,250.21436432999909,None,,,,,,,,,,,,112,20,Female,2022-05-04_09h48.05.672,Boat,2022.1.1,59.99772008673796,
positive,neutral,2,l,j,,,,,,,,,1,13,31,17,,,,,,,,,,,,,,,,,,,,,,,,main,1,1,2,neutral,positive,l,l,1,1.0724859000183642,250.29036290000658,251.3465450000076,251.2933747000061,None,250.29036290000658,None,250.29036290000658,None,250.29036290000658,None,252.29761311999175,None,252.29761311999175,None,252.29761311999175,None,,,,,,,,,,,,112,20,Female,2022-05-04_09h48.05.672,Boat,2022.1.1,59.99772008673796,
neutral,negative,2,k,k,,,,,,,,,1,14,32,16,,,,,,,,,,,,,,,,,,,,,,,,main,1,1,2,negative,neutral,k,k,1,1.0325106999953277,252.3446818999946,253.38293650001287,253.33403629998793,None,252.3446818999946,None,252.3446818999946,None,252.3446818999946,None,254.34265983000515,None,254.34265983000515,None,254.34265983000515,None,,,,,,,,,,,,112,20,Female,2022-05-04_09h48.05.672,Boat,2022.1.1,59.99772008673796,
positive,neutral,1,l,j,,,,,,,,,1,15,33,8,,,,,,,,,,,,,,,,,,,,,,,,main,2,2,1,neutral,positive,l,l,1,1.4550984000088647,254.4122250000073,255.46271359999082,255.41311719999067,None,254.4122250000073,None,254.4122250000073,None,254.4122250000073,None,256.80617972999465,None,256.80617972999465,None,256.80617972999465,None,,,,,,,,,,,,112,20,Female,2022-05-04_09h48.05.672,Boat,2022.1.1,59.99772008673796,
negative,negative,1,j,l,,,,,,,,,1,16,34,0,,,,,,,,,,,,,,,,,,,,,,,,main,1,1,1,negative,negative,j,j,1,0.9159151999920141,256.889276300004,257.93736919999355,257.89132239998435,None,256.889276300004,None,256.889276300004,None,256.889276300004,None,258.72906372,None,258.72906372,None,258.72906372,None,,,,,,,,,,,,112,20,Female,2022-05-04_09h48.05.672,Boat,2022.1.1,59.99772008673796,
positive,positive,1,l,j,,,,,,,,,1,17,35,2,,,,,,,,,,,,,,,,,,,,,,,,main,2,2,1,positive,positive,l,l,1,0.9635129000234883,258.80144010001095,259.8416608000116,259.79719209999894,None,258.80144010001095,None,258.80144010001095,None,258.80144010001095,None,260.71243321999793,None,260.71243321999793,None,260.71243321999793,None,,,,,,,,,,,,112,20,Female,2022-05-04_09h48.05.672,Boat,2022.1.1,59.99772008673796,
positive,positive,1,l,j,,,,,,,,,2,0,36,2,,,,,,,,,,,,,,,,,,,,,,,,main,1,1,1,positive,positive,l,l,1,1.2077655000030063,260.7510575999913,261.8148351999989,261.7730249000015,None,260.7510575999913,None,260.7510575999913,None,260.7510575999913,None,262.929666329996,None,262.929666329996,None,262.929666329996,None,,,,,,,,,,,,112,20,Female,2022-05-04_09h48.05.672,Boat,2022.1.1,59.99772008673796,
negative,neutral,1,j,l,,,,,,,,,2,1,37,3,,,,,,,,,,,,,,,,,,,,,,,,main,1,1,1,neutral,negative,j,j,1,0.9733178000024054,262.9905515999999,264.0495260999887,264.00013520001085,None,262.9905515999999,None,262.9905515999999,None,262.9905515999999,None,264.91209851999304,None,264.91209851999304,None,264.91209851999304,None,,,,,,,,,,,,112,20,Female,2022-05-04_09h48.05.672,Boat,2022.1.1,59.99772008673796,
neutral,positive,2,k,k,,,,,,,,,2,2,38,13,,,,,,,,,,,,,,,,,,,,,,,,main,1,1,2,positive,neutral,k,k,1,0.9265564999950584,264.9501814999967,266.02042939999956,265.9717857000069,None,264.9501814999967,None,264.9501814999967,None,264.9501814999967,None,266.8434610299941,None,266.8434610299941,None,266.8434610299941,None,,,,,,,,,,,,112,20,Female,2022-05-04_09h48.05.672,Boat,2022.1.1,59.99772008673796,
neutral,neutral,1,k,k,,,,,,,,,2,3,39,1,,,,,,,,,,,,,,,,,,,,,,,,main,1,1,1,neutral,neutral,k,k,1,0.8173166999768,266.91223839999293,267.9894564000133,267.8933599999873,None,266.91223839999293,None,266.91223839999293,None,266.91223839999293,None,268.6740519299987,None,268.6740519299987,None,268.6740519299987,None,,,,,,,,,,,,112,20,Female,2022-05-04_09h48.05.672,Boat,2022.1.1,59.99772008673796,
negative,negative,2,j,l,,,,,,,,,2,4,40,9,,,,,,,,,,,,,,,,,,,,,,,,main,2,2,2,negative,negative,j,j,1,0.8938668000046164,268.7275640000007,269.79687980000745,269.70782280000276,None,268.7275640000007,None,268.7275640000007,None,268.7275640000007,None,270.57574542999504,None,270.57574542999504,None,270.57574542999504,None,,,,,,,,,,,,112,20,Female,2022-05-04_09h48.05.672,Boat,2022.1.1,59.99772008673796,
positive,neutral,1,l,j,,,,,,,,,2,5,41,8,,,,,,,,,,,,,,,,,,,,,,,,main,1,1,1,neutral,positive,l,l,1,0.8511819000123069,270.64780810000957,271.7202416000073,271.6725404000026,None,270.64780810000957,None,270.64780810000957,None,270.64780810000957,None,272.4342174199934,None,272.4342174199934,None,272.4342174199934,None,,,,,,,,,,,,112,20,Female,2022-05-04_09h48.05.672,Boat,2022.1.1,59.99772008673796,
neutral,negative,2,k,k,,,,,,,,,2,6,42,16,,,,,,,,,,,,,,,,,,,,,,,,main,1,1,2,negative,neutral,k,k,1,0.8436952999909408,272.48023270000704,273.56276349999825,273.5084535999922,None,272.48023270000704,None,272.48023270000704,None,272.48023270000704,None,274.2896854199877,None,274.2896854199877,None,274.2896854199877,None,,,,,,,,,,,,112,20,Female,2022-05-04_09h48.05.672,Boat,2022.1.1,59.99772008673796,
negative,positive,1,j,l,,,,,,,,,2,7,43,6,,,,,,,,,,,,,,,,,,,,,,,,main,2,2,1,positive,negative,j,j,1,0.8622425999783445,274.32391249999637,275.36949029998505,275.36949029998505,None,274.32391249999637,None,274.32391249999637,None,274.32391249999637,None,276.14436861000723,None,276.14436861000723,None,276.14436861000723,None,,,,,,,,,,,,112,20,Female,2022-05-04_09h48.05.672,Boat,2022.1.1,59.99772008673796,
neutral,positive,1,k,k,,,,,,,,,2,8,44,4,,,,,,,,,,,,,,,,,,,,,,,,main,1,1,1,positive,neutral,k,k,1,0.7442823000019416,276.1846680000017,277.25770290000946,277.21103310000035,None,276.1846680000017,None,276.1846680000017,None,276.1846680000017,None,277.89432770998684,None,277.89432770998684,None,277.89432770998684,None,,,,,,,,,,,,112,20,Female,2022-05-04_09h48.05.672,Boat,2022.1.1,59.99772008673796,
negative,negative,1,j,l,,,,,,,,,2,9,45,0,,,,,,,,,,,,,,,,,,,,,,,,main,1,1,1,negative,negative,j,j,1,0.8780715000175405,277.9266376000014,278.9654969999974,278.9654969999974,None,277.9266376000014,None,277.9266376000014,None,277.9266376000014,None,279.7901123200078,None,279.7901123200078,None,279.7901123200078,None,,,,,,,,,,,,112,20,Female,2022-05-04_09h48.05.672,Boat,2022.1.1,59.99772008673796,
positive,positive,2,l,j,,,,,,,,,2,10,46,11,,,,,,,,,,,,,,,,,,,,,,,,main,1,1,2,positive,positive,l,l,1,0.8062367999809794,279.8260971000127,280.88435360000585,280.8355416000122,None,279.8260971000127,None,279.8260971000127,None,279.8260971000127,None,281.60045901999695,None,281.60045901999695,None,281.60045901999695,None,,,,,,,,,,,,112,20,Female,2022-05-04_09h48.05.672,Boat,2022.1.1,59.99772008673796,
neutral,neutral,2,k,k,,,,,,,,,2,11,47,10,,,,,,,,,,,,,,,,,,,,,,,,main,1,1,2,neutral,neutral,k,k,1,0.7601291000028141,281.63262270000996,282.68965509999543,282.6414645999903,None,281.63262270000996,None,281.63262270000996,None,281.63262270000996,None,283.3711577300041,None,283.3711577300041,None,283.3711577300041,None,,,,,,,,,,,,112,20,Female,2022-05-04_09h48.05.672,Boat,2022.1.1,59.99772008673796,
positive,negative,2,l,j,,,,,,,,,2,12,48,14,,,,,,,,,,,,,,,,,,,,,,,,main,2,2,2,negative,positive,l,l,1,1.0234161999833304,283.42774479999207,284.5053190999897,284.40844440000365,None,283.42774479999207,None,283.42774479999207,None,283.42774479999207,None,285.40242122999047,None,285.40242122999047,None,285.40242122999047,None,,,,,,,,,,,,112,20,Female,2022-05-04_09h48.05.672,Boat,2022.1.1,59.99772008673796,
positive,negative,1,l,j,,,,,,,,,2,13,49,5,,,,,,,,,,,,,,,,,,,,,,,,main,2,2,1,negative,positive,l,l,1,1.3084529000043403,285.47384749999037,286.55101039999863,286.50148440001067,None,285.47384749999037,None,285.47384749999037,None,285.47384749999037,None,287.72131131999197,None,287.72131131999197,None,287.72131131999197,None,,,,,,,,,,,,112,20,Female,2022-05-04_09h48.05.672,Boat,2022.1.1,59.99772008673796,
positive,neutral,2,l,j,,,,,,,,,2,14,50,17,,,,,,,,,,,,,,,,,,,,,,,,main,2,2,2,neutral,positive,l,l,1,0.9813024000031874,287.7560414999898,288.7937430999882,288.74591219998547,None,287.7560414999898,None,287.7560414999898,None,287.7560414999898,None,289.70988623001034,None,289.70988623001034,None,289.70988623001034,None,,,,,,,,,,,,112,20,Female,2022-05-04_09h48.05.672,Boat,2022.1.1,59.99772008673796,
neutral,negative,1,k,k,,,,,,,,,2,15,51,7,,,,,,,,,,,,,,,,,,,,,,,,main,2,2,1,negative,neutral,k,k,1,0.821820100012701,289.77840720000677,290.841271399986,290.792366699985,None,289.77840720000677,None,289.77840720000677,None,289.77840720000677,None,291.53876743000586,None,291.53876743000586,None,291.53876743000586,None,,,,,,,,,,,,112,20,Female,2022-05-04_09h48.05.672,Boat,2022.1.1,59.99772008673796,
negative,neutral,2,j,l,,,,,,,,,2,16,52,12,,,,,,,,,,,,,,,,,,,,,,,,main,1,1,2,neutral,negative,j,j,1,0.9949180999828968,291.6154460000107,292.64568320001126,292.5992671000131,None,291.6154460000107,None,291.6154460000107,None,291.6154460000107,None,293.53894632000595,None,293.53894632000595,None,293.53894632000595,None,,,,,,,,,,,,112,20,Female,2022-05-04_09h48.05.672,Boat,2022.1.1,59.99772008673796,
negative,positive,2,j,l,,,,,,,,,2,17,53,15,,,,,,,,,,,,,,,,,,,,,,,,main,2,2,2,positive,negative,j,j,1,0.7974443999992218,293.61584819998825,294.65973439998925,294.61101220001,None,293.61584819998825,None,293.61584819998825,None,293.61584819998825,None,295.35657363001377,None,295.35657363001377,None,295.35657363001377,None,,,,,,,,,,,,112,20,Female,2022-05-04_09h48.05.672,Boat,2022.1.1,59.99772008673796,
positive,negative,1,l,j,,,,,,,,,3,0,54,5,,,,,,,,,,,,,,,,,,,,,,,,main,1,1,1,negative,positive,l,l,1,0.9838609000144061,295.43081329998677,296.4893286000006,296.4414582999889,None,295.43081329998677,None,295.43081329998677,None,295.43081329998677,None,297.35167192000665,None,297.35167192000665,None,297.35167192000665,None,,,,,,,,,,,,112,20,Female,2022-05-04_09h48.05.672,Boat,2022.1.1,59.99772008673796,
negative,neutral,1,j,l,,,,,,,,,3,1,55,3,,,,,,,,,,,,,,,,,,,,,,,,main,1,1,1,neutral,negative,j,j,1,1.0300684999965597,297.3776724000054,298.4236576000112,298.37637600000016,None,297.3776724000054,None,297.3776724000054,None,297.3776724000054,None,299.38725192000277,None,299.38725192000277,None,299.38725192000277,None,,,,,,,,,,,,112,20,Female,2022-05-04_09h48.05.672,Boat,2022.1.1,59.99772008673796,
negative,neutral,2,j,l,,,,,,,,,3,2,56,12,,,,,,,,,,,,,,,,,,,,,,,,main,2,2,2,neutral,negative,j,j,1,1.037167300004512,299.4234538000019,300.4808467999974,300.4301731000014,None,299.4234538000019,None,299.4234538000019,None,299.4234538000019,None,301.43181472000435,None,301.43181472000435,None,301.43181472000435,None,,,,,,,,,,,,112,20,Female,2022-05-04_09h48.05.672,Boat,2022.1.1,59.99772008673796,
negative,positive,1,j,l,,,,,,,,,3,3,57,6,,,,,,,,,,,,,,,,,,,,,,,,main,2,2,1,positive,negative,j,j,1,0.8494955000060145,301.454410300008,302.50848429999314,302.45494970001164,None,301.454410300008,None,301.454410300008,None,301.454410300008,None,303.28744782000433,None,303.28744782000433,None,303.28744782000433,None,,,,,,,,,,,,112,20,Female,2022-05-04_09h48.05.672,Boat,2022.1.1,59.99772008673796,
negative,negative,1,j,l,,,,,,,,,3,4,58,0,,,,,,,,,,,,,,,,,,,,,,,,main,1,1,1,negative,negative,j,j,1,0.7097007000120357,303.3128791000054,304.3575421999849,304.30891079999856,None,303.3128791000054,None,303.3128791000054,None,303.3128791000054,None,305.0037375300075,None,305.0037375300075,None,305.0037375300075,None,,,,,,,,,,,,112,20,Female,2022-05-04_09h48.05.672,Boat,2022.1.1,59.99772008673796,
neutral,positive,1,k,k,,,,,,,,,3,5,59,4,,,,,,,,,,,,,,,,,,,,,,,,main,2,2,1,positive,neutral,k,k,1,1.0111815000127535,305.06183859999874,306.10224949999247,306.0530116999871,None,305.06183859999874,None,305.06183859999874,None,305.06183859999874,None,307.01516442000286,None,307.01516442000286,None,307.01516442000286,None,,,,,,,,,,,,112,20,Female,2022-05-04_09h48.05.672,Boat,2022.1.1,59.99772008673796,
positive,positive,2,l,j,,,,,,,,,3,6,60,11,,,,,,,,,,,,,,,,,,,,,,,,main,2,2,2,positive,positive,l,l,1,0.7666205000132322,307.06933100000606,308.120785600011,308.0718898999912,None,307.06933100000606,None,307.06933100000606,None,307.06933100000606,None,308.79587711998613,None,308.79587711998613,None,308.79587711998613,None,,,,,,,,,,,,112,20,Female,2022-05-04_09h48.05.672,Boat,2022.1.1,59.99772008673796,
positive,positive,1,l,j,,,,,,,,,3,7,61,2,,,,,,,,,,,,,,,,,,,,,,,,main,1,1,1,positive,positive,l,l,1,1.603858799993759,308.8311240999901,309.8811561999901,309.83260570000857,None,308.8311240999901,None,308.8311240999901,None,308.8311240999901,None,311.4246518999862,None,311.4246518999862,None,311.4246518999862,None,,,,,,,,,,,,112,20,Female,2022-05-04_09h48.05.672,Boat,2022.1.1,59.99772008673796,
neutral,neutral,2,k,k,,,,,,,,,3,8,62,10,,,,,,,,,,,,,,,,,,,,,,,,main,2,2,2,neutral,neutral,k,k,1,0.799216899991734,312.4949016000028,313.5453675999888,313.50031939998735,None,312.4949016000028,None,312.4949016000028,None,312.4949016000028,None,314.2343647199974,None,314.2343647199974,None,314.2343647199974,None,,,,,,,,,,,,112,20,Female,2022-05-04_09h48.05.672,Boat,2022.1.1,59.99772008673796,
positive,negative,2,l,j,,,,,,,,,3,9,63,14,,,,,,,,,,,,,,,,,,,,,,,,main,1,1,2,negative,positive,l,l,1,0.8700611999956891,314.2659042000014,315.31201580000925,315.27929679999943,None,314.2659042000014,None,314.2659042000014,None,314.2659042000014,None,316.10761431999856,None,316.10761431999856,None,316.10761431999856,None,,,,,,,,,,,,112,20,Female,2022-05-04_09h48.05.672,Boat,2022.1.1,59.99772008673796,
neutral,positive,2,k,k,,,,,,,,,3,10,64,13,,,,,,,,,,,,,,,,,,,,,,,,main,2,2,2,positive,neutral,k,k,1,0.8180123000056483,316.15728499999386,317.2346663000062,317.1800229999935,None,316.15728499999386,None,316.15728499999386,None,316.15728499999386,None,317.92840283000845,None,317.92840283000845,None,317.92840283000845,None,,,,,,,,,,,,112,20,Female,2022-05-04_09h48.05.672,Boat,2022.1.1,59.99772008673796,
negative,negative,2,j,l,,,,,,,,,3,11,65,9,,,,,,,,,,,,,,,,,,,,,,,,main,2,2,2,negative,negative,j,j,1,0.9842979999957606,317.99954660001094,319.0723108999955,318.97753340000054,None,317.99954660001094,None,317.99954660001094,None,317.99954660001094,None,319.9273150199966,None,319.9273150199966,None,319.9273150199966,None,,,,,,,,,,,,112,20,Female,2022-05-04_09h48.05.672,Boat,2022.1.1,59.99772008673796,
positive,neutral,1,l,j,,,,,,,,,3,12,66,8,,,,,,,,,,,,,,,,,,,,,,,,main,1,1,1,neutral,positive,l,l,1,0.8940087999799289,319.9935007999884,321.0386748999881,320.9851320000016,None,319.9935007999884,None,319.9935007999884,None,319.9935007999884,None,321.8331728200079,None,321.8331728200079,None,321.8331728200079,None,,,,,,,,,,,,112,20,Female,2022-05-04_09h48.05.672,Boat,2022.1.1,59.99772008673796,
neutral,negative,2,k,k,,,,,,,,,3,13,67,16,,,,,,,,,,,,,,,,,,,,,,,,main,2,2,2,negative,neutral,k,k,1,0.7793167000054382,321.8647970999882,322.9097303999879,322.86254060000647,None,321.8647970999882,None,321.8647970999882,None,321.8647970999882,None,323.61562471999207,None,323.61562471999207,None,323.61562471999207,None,,,,,,,,,,,,112,20,Female,2022-05-04_09h48.05.672,Boat,2022.1.1,59.99772008673796,
neutral,neutral,1,k,k,,,,,,,,,3,14,68,1,,,,,,,,,,,,,,,,,,,,,,,,main,2,2,1,neutral,neutral,k,k,1,0.935490599978948,323.68433509999886,324.72941150001134,324.6810192000121,None,323.68433509999886,None,323.68433509999886,None,323.68433509999886,None,325.56251752999964,None,325.56251752999964,None,325.56251752999964,None,,,,,,,,,,,,112,20,Female,2022-05-04_09h48.05.672,Boat,2022.1.1,59.99772008673796,
neutral,negative,1,k,k,,,,,,,,,3,15,69,7,,,,,,,,,,,,,,,,,,,,,,,,main,2,2,1,negative,neutral,k,k,1,0.7581371999986004,325.6419891999976,326.67201020001085,326.6382389999926,None,325.6419891999976,None,325.6419891999976,None,325.6419891999976,None,327.32684632000166,None,327.32684632000166,None,327.32684632000166,None,,,,,,,,,,,,112,20,Female,2022-05-04_09h48.05.672,Boat,2022.1.1,59.99772008673796,
positive,neutral,2,l,j,,,,,,,,,3,16,70,17,,,,,,,,,,,,,,,,,,,,,,,,main,2,2,2,neutral,positive,l,l,1,0.9927535000024363,327.39996750000864,328.45146620000014,328.40281629998935,None,327.39996750000864,None,327.39996750000864,None,327.39996750000864,None,329.33552733000255,None,329.33552733000255,None,329.33552733000255,None,,,,,,,,,,,,112,20,Female,2022-05-04_09h48.05.672,Boat,2022.1.1,59.99772008673796,
negative,positive,2,j,l,,,,,,,,,3,17,71,15,,,,,,,,,,,,,,,,,,,,,,,,main,2,2,2,positive,negative,j,j,1,0.8932613999932073,329.4132513999939,330.4735868999851,330.4263222999871,None,329.4132513999939,None,329.4132513999939,None,329.4132513999939,None,331.2418088199862,None,331.2418088199862,None,331.2418088199862,None,,,,,,,,,,,,112,20,Female,2022-05-04_09h48.05.672,Boat,2022.1.1,59.99772008673796,
positive,neutral,1,l,j,,,,,,,,,4,0,72,8,,,,,,,,,,,,,,,,,,,,,,,,main,1,1,1,neutral,positive,l,l,1,1.259233899996616,331.31193170000915,332.3643104000075,332.316702799988,None,331.31193170000915,None,331.31193170000915,None,331.31193170000915,None,333.5074833200139,None,333.5074833200139,None,333.5074833200139,None,,,,,,,,,,,,112,20,Female,2022-05-04_09h48.05.672,Boat,2022.1.1,59.99772008673796,
negative,positive,1,j,l,,,,,,,,,4,1,73,6,,,,,,,,,,,,,,,,,,,,,,,,main,1,1,1,positive,negative,j,j,1,0.9440464999934193,333.5706848000118,334.63869059999706,334.5907062999904,None,333.5706848000118,None,333.5706848000118,None,333.5706848000118,None,335.4623120200064,None,335.4623120200064,None,335.4623120200064,None,,,,,,,,,,,,112,20,Female,2022-05-04_09h48.05.672,Boat,2022.1.1,59.99772008673796,
positive,neutral,2,l,j,,,,,,,,,4,2,74,17,,,,,,,,,,,,,,,,,,,,,,,,main,2,2,2,neutral,positive,l,l,1,0.8080767999927048,335.4951226999983,336.5464265999908,336.49737100000493,None,335.4951226999983,None,335.4951226999983,None,335.4951226999983,None,337.2622967100004,None,337.2622967100004,None,337.2622967100004,None,,,,,,,,,,,,112,20,Female,2022-05-04_09h48.05.672,Boat,2022.1.1,59.99772008673796,
positive,negative,2,l,j,,,,,,,,,4,3,75,14,,,,,,,,,,,,,,,,,,,,,,,,main,2,2,2,negative,positive,l,l,1,1.0243255000095814,337.30278080000426,338.3627412999922,338.3128781999985,None,337.30278080000426,None,337.30278080000426,None,337.30278080000426,None,339.30357933001363,None,339.30357933001363,None,339.30357933001363,None,,,,,,,,,,,,112,20,Female,2022-05-04_09h48.05.672,Boat,2022.1.1,59.99772008673796,
negative,neutral,1,j,l,,,,,,,,,4,4,76,3,,,,,,,,,,,,,,,,,,,,,,,,main,1,1,1,neutral,negative,j,j,1,0.9170859000005294,339.3769880000036,340.41516199999023,340.36770199998864,None,339.3769880000036,None,339.3769880000036,None,339.3769880000036,None,341.23403032001227,None,341.23403032001227,None,341.23403032001227,None,,,,,,,,,,,,112,20,Female,2022-05-04_09h48.05.672,Boat,2022.1.1,59.99772008673796,
negative,negative,2,j,l,,,,,,,,,4,5,77,9,,,,,,,,,,,,,,,,,,,,,,,,main,2,2,2,negative,negative,j,j,1,0.871899999998277,341.30765699999756,342.3470782999939,342.2989290000114,None,341.30765699999756,None,341.30765699999756,None,341.30765699999756,None,343.11651662000224,None,343.11651662000224,None,343.11651662000224,None,,,,,,,,,,,,112,20,Female,2022-05-04_09h48.05.672,Boat,2022.1.1,59.99772008673796,
neutral,negative,2,k,k,,,,,,,,,4,6,78,16,,,,,,,,,,,,,,,,,,,,,,,,main,1,1,2,negative,neutral,k,k,1,0.7926020000013523,343.1643119000073,344.2082334999868,344.1591945000109,None,343.1643119000073,None,343.1643119000073,None,343.1643119000073,None,344.91926051998746,None,344.91926051998746,None,344.91926051998746,None,,,,,,,,,,,,112,20,Female,2022-05-04_09h48.05.672,Boat,2022.1.1,59.99772008673796,
neutral,negative,1,k,k,,,,,,,,,4,7,79,7,,,,,,,,,,,,,,,,,,,,,,,,main,2,2,1,negative,neutral,k,k,1,0.7587679999996908,344.95025269998587,346.020936099987,345.9721368000028,None,344.95025269998587,None,344.95025269998587,None,344.95025269998587,None,346.6857601200114,None,346.6857601200114,None,346.6857601200114,None,,,,,,,,,,,,112,20,Female,2022-05-04_09h48.05.672,Boat,2022.1.1,59.99772008673796,
negative,negative,1,j,l,,,,,,,,,4,8,80,0,,,,,,,,,,,,,,,,,,,,,,,,main,1,1,1,negative,negative,j,j,1,0.8881508999911603,346.7147932999942,347.7504139000084,347.7504139000084,None,346.7147932999942,None,346.7147932999942,None,346.7147932999942,None,348.5778808199917,None,348.5778808199917,None,348.5778808199917,None,,,,,,,,,,,,112,20,Female,2022-05-04_09h48.05.672,Boat,2022.1.1,59.99772008673796,
positive,negative,1,l,j,,,,,,,,,4,9,81,5,,,,,,,,,,,,,,,,,,,,,,,,main,2,2,1,negative,positive,l,l,1,0.9575668000034057,348.6336916,349.69343789998675,349.6459718999977,None,348.6336916,None,348.6336916,None,348.6336916,None,350.5396827299905,None,350.5396827299905,None,350.5396827299905,None,,,,,,,,,,,,112,20,Female,2022-05-04_09h48.05.672,Boat,2022.1.1,59.99772008673796,
neutral,positive,2,k,k,,,,,,,,,4,10,82,13,,,,,,,,,,,,,,,,,,,,,,,,main,1,1,2,positive,neutral,k,k,1,0.8086813999980222,350.61251969999284,351.66238840000005,351.6148422000115,None,350.61251969999284,None,350.61251969999284,None,350.61251969999284,None,352.3559033200087,None,352.3559033200087,None,352.3559033200087,None,,,,,,,,,,,,112,20,Female,2022-05-04_09h48.05.672,Boat,2022.1.1,59.99772008673796,
neutral,neutral,1,k,k,,,,,,,,,4,11,83,1,,,,,,,,,,,,,,,,,,,,,,,,main,2,2,1,neutral,neutral,k,k,1,0.7163882000022568,352.40334150000126,353.46517609999864,353.42392169998493,None,352.40334150000126,None,352.40334150000126,None,352.40334150000126,None,354.08519701999614,None,354.08519701999614,None,354.08519701999614,None,,,,,,,,,,,,112,20,Female,2022-05-04_09h48.05.672,Boat,2022.1.1,59.99772008673796,
neutral,positive,1,k,k,,,,,,,,,4,12,84,4,,,,,,,,,,,,,,,,,,,,,,,,main,2,2,1,positive,neutral,k,k,1,0.7261786999879405,354.1147813999851,355.1626379000081,355.1127221999923,None,354.1147813999851,None,354.1147813999851,None,354.1147813999851,None,355.816346729995,None,355.816346729995,None,355.816346729995,None,,,,,,,,,,,,112,20,Female,2022-05-04_09h48.05.672,Boat,2022.1.1,59.99772008673796,
negative,positive,2,j,l,,,,,,,,,4,13,85,15,,,,,,,,,,,,,,,,,,,,,,,,main,2,2,2,positive,negative,j,j,1,0.8779470000008587,355.89118219999364,356.94241650000913,356.89269079998485,None,355.89118219999364,None,355.89118219999364,None,355.89118219999364,None,357.7024253199867,None,357.7024253199867,None,357.7024253199867,None,,,,,,,,,,,,112,20,Female,2022-05-04_09h48.05.672,Boat,2022.1.1,59.99772008673796,
positive,positive,1,l,j,,,,,,,,,4,14,86,2,,,,,,,,,,,,,,,,,,,,,,,,main,1,1,1,positive,positive,l,l,1,0.9855819999938831,357.73908420000225,358.7924158000096,358.74457310000435,None,357.73908420000225,None,357.73908420000225,None,357.73908420000225,None,359.6993003199983,None,359.6993003199983,None,359.6993003199983,None,,,,,,,,,,,,112,20,Female,2022-05-04_09h48.05.672,Boat,2022.1.1,59.99772008673796,
positive,positive,2,l,j,,,,,,,,,4,15,87,11,,,,,,,,,,,,,,,,,,,,,,,,main,1,1,2,positive,positive,l,l,1,1.0291864000028,359.72346619999735,360.7986608000065,360.75083989999257,None,359.72346619999735,None,359.72346619999735,None,359.72346619999735,None,361.732132629992,None,361.732132629992,None,361.732132629992,None,,,,,,,,,,,,112,20,Female,2022-05-04_09h48.05.672,Boat,2022.1.1,59.99772008673796,
negative,neutral,2,j,l,,,,,,,,,4,16,88,12,,,,,,,,,,,,,,,,,,,,,,,,main,1,1,2,neutral,negative,j,j,1,0.9638108000217471,361.80901950001135,362.87892369998735,362.82977320000646,None,361.80901950001135,None,361.80901950001135,None,361.80901950001135,None,363.71271562998885,None,363.71271562998885,None,363.71271562998885,None,,,,,,,,,,,,112,20,Female,2022-05-04_09h48.05.672,Boat,2022.1.1,59.99772008673796,
neutral,neutral,2,k,k,,,,,,,,,4,17,89,10,,,,,,,,,,,,,,,,,,,,,,,,main,2,2,2,neutral,neutral,k,k,1,0.7778866000007838,363.7750951999915,364.81500949998735,364.7657918999903,None,363.7750951999915,None,363.7750951999915,None,363.7750951999915,None,365.503030230006,None,365.503030230006,None,365.503030230006,None,,,,,,,,,,,,112,20,Female,2022-05-04_09h48.05.672,Boat,2022.1.1,59.99772008673796,
negative,negative,1,j,l,,,,,,,,,5,0,90,0,,,,,,,,,,,,,,,,,,,,,,,,main,2,2,1,negative,negative,j,j,1,0.8163417000032496,365.58162360001006,366.6331074000045,366.58471100000315,None,365.58162360001006,None,365.58162360001006,None,365.58162360001006,None,367.3327565200103,None,367.3327565200103,None,367.3327565200103,None,,,,,,,,,,,,112,20,Female,2022-05-04_09h48.05.672,Boat,2022.1.1,59.99772008673796,
neutral,positive,1,k,k,,,,,,,,,5,1,91,4,,,,,,,,,,,,,,,,,,,,,,,,main,1,1,1,positive,neutral,k,k,1,0.7552972999983467,367.36122240000986,368.42538760000025,368.37417039999855,None,367.36122240000986,None,367.36122240000986,None,367.36122240000986,None,369.0916467200092,None,369.0916467200092,None,369.0916467200092,None,,,,,,,,,,,,112,20,Female,2022-05-04_09h48.05.672,Boat,2022.1.1,59.99772008673796,
neutral,negative,2,k,k,,,,,,,,,5,2,92,16,,,,,,,,,,,,,,,,,,,,,,,,main,2,2,2,negative,neutral,k,k,1,0.7970046999980696,369.12475919999997,370.20058880001307,370.15238029998727,None,369.12475919999997,None,369.12475919999997,None,369.12475919999997,None,370.8831575199962,None,370.8831575199962,None,370.8831575199962,None,,,,,,,,,,,,112,20,Female,2022-05-04_09h48.05.672,Boat,2022.1.1,59.99772008673796,
neutral,positive,2,k,k,,,,,,,,,5,3,93,13,,,,,,,,,,,,,,,,,,,,,,,,main,2,2,2,positive,neutral,k,k,1,0.8346114000014495,370.9661349999951,372.02511650000815,371.9757740999921,None,370.9661349999951,None,370.9661349999951,None,370.9661349999951,None,372.7361085299985,None,372.7361085299985,None,372.7361085299985,None,,,,,,,,,,,,112,20,Female,2022-05-04_09h48.05.672,Boat,2022.1.1,59.99772008673796,
neutral,negative,1,k,k,,,,,,,,,5,4,94,7,,,,,,,,,,,,,,,,,,,,,,,,main,2,2,1,negative,neutral,k,k,1,0.7594000000099186,372.8128047999926,373.86787889999687,373.8200511999894,None,372.8128047999926,None,372.8128047999926,None,372.8128047999926,None,374.4999532200105,None,374.4999532200105,None,374.4999532200105,None,,,,,,,,,,,,112,20,Female,2022-05-04_09h48.05.672,Boat,2022.1.1,59.99772008673796,
neutral,neutral,1,k,k,,,,,,,,,5,5,95,1,,,,,,,,,,,,,,,,,,,,,,,,main,2,2,1,neutral,neutral,k,k,1,0.6961543000070378,374.5776929999993,375.614253000007,375.56727339999634,None,374.5776929999993,None,374.5776929999993,None,374.5776929999993,None,376.2209824199905,None,376.2209824199905,None,376.2209824199905,None,,,,,,,,,,,,112,20,Female,2022-05-04_09h48.05.672,Boat,2022.1.1,59.99772008673796,
positive,positive,2,l,j,,,,,,,,,5,6,96,11,,,,,,,,,,,,,,,,,,,,,,,,main,2,2,2,positive,positive,l,l,1,1.0168320999946445,376.25677770000766,377.2992392999877,377.2498359000019,None,376.25677770000766,None,376.25677770000766,None,376.25677770000766,None,378.2430377299956,None,378.2430377299956,None,378.2430377299956,None,,,,,,,,,,,,112,20,Female,2022-05-04_09h48.05.672,Boat,2022.1.1,59.99772008673796,
negative,positive,1,j,l,,,,,,,,,5,7,97,6,,,,,,,,,,,,,,,,,,,,,,,,main,1,1,1,positive,negative,j,j,1,0.882100899994839,378.3153852999967,379.366603500006,379.3195393999922,None,378.3153852999967,None,378.3153852999967,None,378.3153852999967,None,380.1390192200139,None,380.1390192200139,None,380.1390192200139,None,,,,,,,,,,,,112,20,Female,2022-05-04_09h48.05.672,Boat,2022.1.1,59.99772008673796,
positive,positive,1,l,j,,,,,,,,,5,8,98,2,,,,,,,,,,,,,,,,,,,,,,,,main,2,2,1,positive,positive,l,j,0,0.8614219000155572,380.1928178000089,381.2326941000065,381.18540550000034,None,380.1928178000089,None,380.1928178000089,None,380.1928178000089,None,382.00760979999905,None,382.00760979999905,None,382.00760979999905,None,,,,,,,,,,,,112,20,Female,2022-05-04_09h48.05.672,Boat,2022.1.1,59.99772008673796,
positive,neutral,1,l,j,,,,,,,,,5,9,99,8,,,,,,,,,,,,,,,,,,,,,,,,main,1,1,1,neutral,positive,l,l,1,1.0565786999941338,383.0908047000121,384.1261187999917,384.0758188999898,None,383.0908047000121,None,383.0908047000121,None,383.0908047000121,None,385.07857382000077,None,385.07857382000077,None,385.07857382000077,None,,,,,,,,,,,,112,20,Female,2022-05-04_09h48.05.672,Boat,2022.1.1,59.99772008673796,
positive,negative,2,l,j,,,,,,,,,5,10,100,14,,,,,,,,,,,,,,,,,,,,,,,,main,2,2,2,negative,positive,l,l,1,0.9320731000043452,385.16600259998813,386.2346733000013,386.14339320000727,None,385.16600259998813,None,385.16600259998813,None,385.16600259998813,None,387.0289834199881,None,387.0289834199881,None,387.0289834199881,None,,,,,,,,,,,,112,20,Female,2022-05-04_09h48.05.672,Boat,2022.1.1,59.99772008673796,
negative,negative,2,j,l,,,,,,,,,5,11,101,9,,,,,,,,,,,,,,,,,,,,,,,,main,1,1,2,negative,negative,j,j,1,0.9082252999942284,387.0782476000022,388.1117885999847,388.1117885999847,None,387.0782476000022,None,387.0782476000022,None,387.0782476000022,None,388.94789092000576,None,388.94789092000576,None,388.94789092000576,None,,,,,,,,,,,,112,20,Female,2022-05-04_09h48.05.672,Boat,2022.1.1,59.99772008673796,
negative,neutral,2,j,l,,,,,,,,,5,12,102,12,,,,,,,,,,,,,,,,,,,,,,,,main,1,1,2,neutral,negative,j,j,1,0.8177471999952104,388.9767267999996,390.0102273999946,389.9671679000021,None,388.9767267999996,None,388.9767267999996,None,388.9767267999996,None,390.75771441999825,None,390.75771441999825,None,390.75771441999825,None,,,,,,,,,,,,112,20,Female,2022-05-04_09h48.05.672,Boat,2022.1.1,59.99772008673796,
negative,neutral,1,j,l,,,,,,,,,5,13,103,3,,,,,,,,,,,,,,,,,,,,,,,,main,2,2,1,neutral,negative,j,j,1,0.8574890999880154,390.83006579999346,391.9001067999925,391.8536594999896,None,390.83006579999346,None,390.83006579999346,None,390.83006579999346,None,392.63620323001527,None,392.63620323001527,None,392.63620323001527,None,,,,,,,,,,,,112,20,Female,2022-05-04_09h48.05.672,Boat,2022.1.1,59.99772008673796,
negative,positive,2,j,l,,,,,,,,,5,14,104,15,,,,,,,,,,,,,,,,,,,,,,,,main,2,2,2,positive,negative,j,j,1,0.7196504000166897,392.70499880000716,393.7817958999949,393.73268929999904,None,392.70499880000716,None,392.70499880000716,None,392.70499880000716,None,394.3680222199997,None,394.3680222199997,None,394.3680222199997,None,,,,,,,,,,,,112,20,Female,2022-05-04_09h48.05.672,Boat,2022.1.1,59.99772008673796,
positive,neutral,2,l,j,,,,,,,,,5,15,105,17,,,,,,,,,,,,,,,,,,,,,,,,main,2,2,2,neutral,positive,l,l,1,0.8851602000067942,394.3994120999996,395.4658647000033,395.4138702999917,None,394.3994120999996,None,394.3994120999996,None,394.3994120999996,None,396.2463508100016,None,396.2463508100016,None,396.2463508100016,None,,,,,,,,,,,,112,20,Female,2022-05-04_09h48.05.672,Boat,2022.1.1,59.99772008673796,
positive,negative,1,l,j,,,,,,,,,5,16,106,5,,,,,,,,,,,,,,,,,,,,,,,,main,1,1,1,negative,positive,l,l,1,0.9156378000043333,396.2802151000069,397.30410629999824,397.27280350000365,None,396.2802151000069,None,396.2802151000069,None,396.2802151000069,None,398.1660200099985,None,398.1660200099985,None,398.1660200099985,None,,,,,,,,,,,,112,20,Female,2022-05-04_09h48.05.672,Boat,2022.1.1,59.99772008673796,
neutral,neutral,2,k,k,,,,,,,,,5,17,107,10,,,,,,,,,,,,,,,,,,,,,,,,main,1,1,2,neutral,neutral,k,k,1,0.8087585000030231,398.1975361999939,399.239013399987,399.239013399987,None,398.1975361999939,None,398.1975361999939,None,398.1975361999939,None,399.98625512001456,None,399.98625512001456,None,399.98625512001456,None,,,,,,,,,,,,112,20,Female,2022-05-04_09h48.05.672,Boat,2022.1.1,59.99772008673796,
neutral,neutral,1,k,k,,,,,,,,,6,0,108,1,,,,,,,,,,,,,,,,,,,,,,,,main,2,2,1,neutral,neutral,k,k,1,0.7757759000232909,400.03537090000464,401.0840190000017,401.04009359999327,None,400.03537090000464,None,400.03537090000464,None,400.03537090000464,None,401.7632733099861,None,401.7632733099861,None,401.7632733099861,None,,,,,,,,,,,,112,20,Female,2022-05-04_09h48.05.672,Boat,2022.1.1,59.99772008673796,
negative,negative,1,j,l,,,,,,,,,6,1,109,0,,,,,,,,,,,,,,,,,,,,,,,,main,2,2,1,negative,negative,j,j,1,0.7186592000070959,401.79636129998835,402.8317290999985,402.80303929999354,None,401.79636129998835,None,401.79636129998835,None,401.79636129998835,None,403.48728360999377,None,403.48728360999377,None,403.48728360999377,None,,,,,,,,,,,,112,20,Female,2022-05-04_09h48.05.672,Boat,2022.1.1,59.99772008673796,
positive,negative,2,l,j,,,,,,,,,6,2,110,14,,,,,,,,,,,,,,,,,,,,,,,,main,1,1,2,negative,positive,l,l,1,0.7437019999779295,403.51547710000887,404.53176990000065,404.50320909998845,None,403.51547710000887,None,403.51547710000887,None,403.51547710000887,None,405.24506611999243,None,405.24506611999243,None,405.24506611999243,None,,,,,,,,,,,,112,20,Female,2022-05-04_09h48.05.672,Boat,2022.1.1,59.99772008673796,
negative,positive,1,j,l,,,,,,,,,6,3,111,6,,,,,,,,,,,,,,,,,,,,,,,,main,2,2,1,positive,negative,j,j,1,1.0890954999777023,405.2806554999843,406.342942999996,406.3001113999926,None,405.2806554999843,None,405.2806554999843,None,405.2806554999843,None,407.33989673000764,None,407.33989673000764,None,407.33989673000764,None,,,,,,,,,,,,112,20,Female,2022-05-04_09h48.05.672,Boat,2022.1.1,59.99772008673796,
neutral,neutral,2,k,k,,,,,,,,,6,4,112,10,,,,,,,,,,,,,,,,,,,,,,,,main,1,1,2,neutral,neutral,k,k,1,0.7231450999970548,407.4117678999901,408.4584718999977,408.40966949998983,None,407.4117678999901,None,407.4117678999901,None,407.4117678999901,None,409.0745490200003,None,409.0745490200003,None,409.0745490200003,None,,,,,,,,,,,,112,20,Female,2022-05-04_09h48.05.672,Boat,2022.1.1,59.99772008673796,
negative,positive,2,j,l,,,,,,,,,6,5,113,15,,,,,,,,,,,,,,,,,,,,,,,,main,1,1,2,positive,negative,j,j,1,0.8409495999803767,409.1128572000016,410.18282680000993,410.1339568000112,None,409.1128572000016,None,409.1128572000016,None,409.1128572000016,None,410.9222741200007,None,410.9222741200007,None,410.9222741200007,None,,,,,,,,,,,,112,20,Female,2022-05-04_09h48.05.672,Boat,2022.1.1,59.99772008673796,
neutral,positive,1,k,k,,,,,,,,,6,6,114,4,,,,,,,,,,,,,,,,,,,,,,,,main,1,1,1,positive,neutral,k,k,1,0.8460730999941006,410.9779212999856,412.05442629999015,412.0073781000101,None,410.9779212999856,None,410.9779212999856,None,410.9779212999856,None,412.7757954200148,None,412.7757954200148,None,412.7757954200148,None,,,,,,,,,,,,112,20,Female,2022-05-04_09h48.05.672,Boat,2022.1.1,59.99772008673796,
negative,negative,2,j,l,,,,,,,,,6,7,115,9,,,,,,,,,,,,,,,,,,,,,,,,main,1,1,2,negative,negative,j,j,1,0.8637325000017881,412.81079200000386,413.8832843999844,413.8333595999866,None,412.81079200000386,None,412.81079200000386,None,412.81079200000386,None,414.6458317199955,None,414.6458317199955,None,414.6458317199955,None,,,,,,,,,,,,112,20,Female,2022-05-04_09h48.05.672,Boat,2022.1.1,59.99772008673796,
negative,neutral,1,j,l,,,,,,,,,6,8,116,3,,,,,,,,,,,,,,,,,,,,,,,,main,1,1,1,neutral,negative,j,j,1,1.1204598999756854,414.68459180000355,415.701751399989,415.6688804999867,None,414.68459180000355,None,414.68459180000355,None,414.68459180000355,None,416.7724912200007,None,416.7724912200007,None,416.7724912200007,None,,,,,,,,,,,,112,20,Female,2022-05-04_09h48.05.672,Boat,2022.1.1,59.99772008673796,
positive,neutral,1,l,j,,,,,,,,,6,9,117,8,,,,,,,,,,,,,,,,,,,,,,,,main,2,2,1,neutral,positive,l,l,1,0.8579657999798656,416.80312699999195,417.8489414000069,417.79807640000945,None,416.80312699999195,None,416.80312699999195,None,416.80312699999195,None,418.6382979199931,None,418.6382979199931,None,418.6382979199931,None,,,,,,,,,,,,112,20,Female,2022-05-04_09h48.05.672,Boat,2022.1.1,59.99772008673796,
neutral,positive,2,k,k,,,,,,,,,6,10,118,13,,,,,,,,,,,,,,,,,,,,,,,,main,1,1,2,positive,neutral,k,k,1,0.7303375999908894,418.6783415999962,419.73331869998947,419.685682499985,None,418.6783415999962,None,418.6783415999962,None,418.6783415999962,None,420.3605446099944,None,420.3605446099944,None,420.3605446099944,None,,,,,,,,,,,,112,20,Female,2022-05-04_09h48.05.672,Boat,2022.1.1,59.99772008673796,
positive,negative,1,l,j,,,,,,,,,6,11,119,5,,,,,,,,,,,,,,,,,,,,,,,,main,2,2,1,negative,positive,l,l,1,0.7880470000091009,420.40231490001315,421.45647189999,421.4075895000133,None,420.40231490001315,None,420.40231490001315,None,420.40231490001315,None,422.1528164100135,None,422.1528164100135,None,422.1528164100135,None,,,,,,,,,,,,112,20,Female,2022-05-04_09h48.05.672,Boat,2022.1.1,59.99772008673796,
positive,neutral,2,l,j,,,,,,,,,6,12,120,17,,,,,,,,,,,,,,,,,,,,,,,,main,1,1,2,neutral,positive,l,l,1,0.8582935000013094,422.19873939998797,423.23614090000046,423.1864162000129,None,422.19873939998797,None,422.19873939998797,None,422.19873939998797,None,424.0161437099858,None,424.0161437099858,None,424.0161437099858,None,,,,,,,,,,,,112,20,Female,2022-05-04_09h48.05.672,Boat,2022.1.1,59.99772008673796,
positive,positive,2,l,j,,,,,,,,,6,13,121,11,,,,,,,,,,,,,,,,,,,,,,,,main,2,2,2,positive,positive,l,l,1,0.7762509000021964,424.06249059998663,425.1230005999969,425.0732643000083,None,424.06249059998663,None,424.06249059998663,None,424.06249059998663,None,425.8132356200018,None,425.8132356200018,None,425.8132356200018,None,,,,,,,,,,,,112,20,Female,2022-05-04_09h48.05.672,Boat,2022.1.1,59.99772008673796,
neutral,negative,2,k,k,,,,,,,,,6,14,122,16,,,,,,,,,,,,,,,,,,,,,,,,main,1,1,2,negative,neutral,k,k,1,0.7987904000037815,425.8429177000071,426.88330469999346,426.83519380001235,None,425.8429177000071,None,425.8429177000071,None,425.8429177000071,None,427.6180020300148,None,427.6180020300148,None,427.6180020300148,None,,,,,,,,,,,,112,20,Female,2022-05-04_09h48.05.672,Boat,2022.1.1,59.99772008673796,
negative,neutral,2,j,l,,,,,,,,,6,15,123,12,,,,,,,,,,,,,,,,,,,,,,,,main,1,1,2,neutral,negative,j,j,1,0.9347385999863036,427.68654600001173,428.7343936999969,428.6858430999855,None,427.68654600001173,None,427.68654600001173,None,427.68654600001173,None,429.5607831300062,None,429.5607831300062,None,429.5607831300062,None,,,,,,,,,,,,112,20,Female,2022-05-04_09h48.05.672,Boat,2022.1.1,59.99772008673796,
positive,positive,1,l,j,,,,,,,,,6,16,124,2,,,,,,,,,,,,,,,,,,,,,,,,main,1,1,1,positive,positive,l,j,0,0.7617185999988578,429.61750019999454,430.67173780000303,430.6246945000021,None,429.61750019999454,None,429.61750019999454,None,429.61750019999454,None,431.3379658999911,None,431.3379658999911,None,431.3379658999911,None,,,,,,,,,,,,112,20,Female,2022-05-04_09h48.05.672,Boat,2022.1.1,59.99772008673796,
neutral,negative,1,k,k,,,,,,,,,6,17,125,7,,,,,,,,,,,,,,,,,,,,,,,,main,1,1,1,negative,neutral,k,k,1,1.4561906000017188,432.41458139999304,433.4585309000104,433.40934139999445,None,432.41458139999304,None,432.41458139999304,None,432.41458139999304,None,434.8000836200023,None,434.8000836200023,None,434.8000836200023,None,,,,,,,,,,,,112,20,Female,2022-05-04_09h48.05.672,Boat,2022.1.1,59.99772008673796,
positive,negative,2,l,j,,,,,,,,,7,0,126,14,,,,,,,,,,,,,,,,,,,,,,,,main,2,2,2,negative,positive,l,l,1,1.0589145999983884,434.8802464999899,435.94968329998665,435.90180369999143,None,434.8802464999899,None,434.8802464999899,None,434.8802464999899,None,436.8702713200124,None,436.8702713200124,None,436.8702713200124,None,,,,,,,,,,,,112,20,Female,2022-05-04_09h48.05.672,Boat,2022.1.1,59.99772008673796,
negative,negative,2,j,l,,,,,,,,,7,1,127,9,,,,,,,,,,,,,,,,,,,,,,,,main,1,1,2,negative,negative,j,j,1,0.865709900012007,436.9395421000081,438.0141686999996,437.9662864000129,None,436.9395421000081,None,436.9395421000081,None,436.9395421000081,None,438.75438921999887,None,438.75438921999887,None,438.75438921999887,None,,,,,,,,,,,,112,20,Female,2022-05-04_09h48.05.672,Boat,2022.1.1,59.99772008673796,
positive,positive,1,l,j,,,,,,,,,7,2,128,2,,,,,,,,,,,,,,,,,,,,,,,,main,2,2,1,positive,positive,l,l,1,0.9716413999849465,438.7832771000103,439.82228749999194,439.82228749999194,None,438.7832771000103,None,438.7832771000103,None,438.7832771000103,None,440.7343152299931,None,440.7343152299931,None,440.7343152299931,None,,,,,,,,,,,,112,20,Female,2022-05-04_09h48.05.672,Boat,2022.1.1,59.99772008673796,
negative,neutral,1,j,l,,,,,,,,,7,3,129,3,,,,,,,,,,,,,,,,,,,,,,,,main,1,1,1,neutral,negative,j,j,1,1.171400100021856,440.7894096999953,441.8628910999978,441.8208927999949,None,440.7894096999953,None,440.7894096999953,None,440.7894096999953,None,442.91185041999563,None,442.91185041999563,None,442.91185041999563,None,,,,,,,,,,,,112,20,Female,2022-05-04_09h48.05.672,Boat,2022.1.1,59.99772008673796,
negative,neutral,2,j,l,,,,,,,,,7,4,130,12,,,,,,,,,,,,,,,,,,,,,,,,main,1,1,2,neutral,negative,j,j,1,0.9270421999972314,442.9759164999996,444.0432017999992,443.9955603000126,None,442.9759164999996,None,442.9759164999996,None,442.9759164999996,None,444.8458735200053,None,444.8458735200053,None,444.8458735200053,None,,,,,,,,,,,,112,20,Female,2022-05-04_09h48.05.672,Boat,2022.1.1,59.99772008673796,
negative,negative,1,j,l,,,,,,,,,7,5,131,0,,,,,,,,,,,,,,,,,,,,,,,,main,2,2,1,negative,negative,j,j,1,1.0851204000064172,444.87931570000364,445.92941909999354,445.88047239999287,None,444.87931570000364,None,444.87931570000364,None,444.87931570000364,None,446.9353549300053,None,446.9353549300053,None,446.9353549300053,None,,,,,,,,,,,,112,20,Female,2022-05-04_09h48.05.672,Boat,2022.1.1,59.99772008673796,
positive,neutral,1,l,j,,,,,,,,,7,6,132,8,,,,,,,,,,,,,,,,,,,,,,,,main,1,1,1,neutral,positive,l,l,1,0.9003654000116512,447.00352790000034,448.07810809998773,448.03061700001126,None,447.00352790000034,None,447.00352790000034,None,447.00352790000034,None,448.8511019299971,None,448.8511019299971,None,448.8511019299971,None,,,,,,,,,,,,112,20,Female,2022-05-04_09h48.05.672,Boat,2022.1.1,59.99772008673796,
positive,positive,2,l,j,,,,,,,,,7,7,133,11,,,,,,,,,,,,,,,,,,,,,,,,main,2,2,2,positive,positive,l,l,1,0.8233676000090782,448.9209855000081,449.9815624000039,449.9324784000055,None,448.9209855000081,None,448.9209855000081,None,448.9209855000081,None,450.68254791999937,None,450.68254791999937,None,450.68254791999937,None,,,,,,,,,,,,112,20,Female,2022-05-04_09h48.05.672,Boat,2022.1.1,59.99772008673796,
positive,negative,1,l,j,,,,,,,,,7,8,134,5,,,,,,,,,,,,,,,,,,,,,,,,main,2,2,1,negative,positive,l,l,1,1.0028806999907829,450.7288208999962,451.7946905999852,451.7432348000002,None,450.7288208999962,None,450.7288208999962,None,450.7288208999962,None,452.68630341998653,None,452.68630341998653,None,452.68630341998653,None,,,,,,,,,,,,112,20,Female,2022-05-04_09h48.05.672,Boat,2022.1.1,59.99772008673796,
neutral,neutral,1,k,k,,,,,,,,,7,9,135,1,,,,,,,,,,,,,,,,,,,,,,,,main,1,1,1,neutral,neutral,k,k,1,0.8259008000022732,452.73147999998764,453.81007119998685,453.7608926999965,None,452.73147999998764,None,452.73147999998764,None,452.73147999998764,None,454.5251195300138,None,454.5251195300138,None,454.5251195300138,None,,,,,,,,,,,,112,20,Female,2022-05-04_09h48.05.672,Boat,2022.1.1,59.99772008673796,
negative,positive,2,j,l,,,,,,,,,7,10,136,15,,,,,,,,,,,,,,,,,,,,,,,,main,2,2,2,positive,negative,j,j,1,0.8203658999991603,454.59782659998746,455.6656856999907,455.6190588999889,None,454.59782659998746,None,454.59782659998746,None,454.59782659998746,None,456.36360751999894,None,456.36360751999894,None,456.36360751999894,None,,,,,,,,,,,,112,20,Female,2022-05-04_09h48.05.672,Boat,2022.1.1,59.99772008673796,
neutral,positive,1,k,k,,,,,,,,,7,11,137,4,,,,,,,,,,,,,,,,,,,,,,,,main,1,1,1,positive,neutral,k,k,1,0.8088802999991458,456.4037121000001,457.46924840001157,457.422962200013,None,456.4037121000001,None,456.4037121000001,None,456.4037121000001,None,458.1757317199896,None,458.1757317199896,None,458.1757317199896,None,,,,,,,,,,,,112,20,Female,2022-05-04_09h48.05.672,Boat,2022.1.1,59.99772008673796,
positive,neutral,2,l,j,,,,,,,,,7,12,138,17,,,,,,,,,,,,,,,,,,,,,,,,main,2,2,2,neutral,positive,l,l,1,0.8497297000139952,458.2119696000009,459.2696052000101,459.2273210999847,None,458.2119696000009,None,458.2119696000009,None,458.2119696000009,None,460.0297901199898,None,460.0297901199898,None,460.0297901199898,None,,,,,,,,,,,,112,20,Female,2022-05-04_09h48.05.672,Boat,2022.1.1,59.99772008673796,
neutral,neutral,2,k,k,,,,,,,,,7,13,139,10,,,,,,,,,,,,,,,,,,,,,,,,main,1,1,2,neutral,neutral,k,k,1,0.7512443999876268,460.0633961999847,461.0976388999843,461.0976388999843,None,460.0633961999847,None,460.0633961999847,None,460.0633961999847,None,461.7875232199964,None,461.7875232199964,None,461.7875232199964,None,,,,,,,,,,,,112,20,Female,2022-05-04_09h48.05.672,Boat,2022.1.1,59.99772008673796,
neutral,positive,2,k,k,,,,,,,,,7,14,140,13,,,,,,,,,,,,,,,,,,,,,,,,main,1,1,2,positive,neutral,k,k,1,0.7417007999902125,461.83193230000325,462.89493320000474,462.84018070000457,None,461.83193230000325,None,461.83193230000325,None,461.83193230000325,None,463.5232398100023,None,463.5232398100023,None,463.5232398100023,None,,,,,,,,,,,,112,20,Female,2022-05-04_09h48.05.672,Boat,2022.1.1,59.99772008673796,
neutral,negative,1,k,k,,,,,,,,,7,15,141,7,,,,,,,,,,,,,,,,,,,,,,,,main,1,1,1,negative,neutral,k,k,1,0.9416134000057355,463.56869509999524,464.5992200000037,464.5992200000037,None,463.56869509999524,None,463.56869509999524,None,463.56869509999524,None,465.4745174099924,None,465.4745174099924,None,465.4745174099924,None,,,,,,,,,,,,112,20,Female,2022-05-04_09h48.05.672,Boat,2022.1.1,59.99772008673796,
negative,positive,1,j,l,,,,,,,,,7,16,142,6,,,,,,,,,,,,,,,,,,,,,,,,main,2,2,1,positive,negative,j,j,1,0.9435099999827798,465.50876319999225,466.5884625999897,466.5353111999866,None,465.50876319999225,None,465.50876319999225,None,465.50876319999225,None,467.4342212199932,None,467.4342212199932,None,467.4342212199932,None,,,,,,,,,,,,112,20,Female,2022-05-04_09h48.05.672,Boat,2022.1.1,59.99772008673796,
neutral,negative,2,k,k,,,,,,,,,7,17,143,16,,,,,,,,,,,,,,,,,,,,,,,,main,2,2,2,negative,neutral,k,k,1,0.7451937999867368,467.4753662000003,468.55077339999843,468.50442019998445,None,467.4753662000003,None,467.4753662000003,None,467.4753662000003,None,469.18826551999666,None,469.18826551999666,None,469.18826551999666,None,,,,,,,,,,,,112,20,Female,2022-05-04_09h48.05.672,Boat,2022.1.1,59.99772008673796,
positive,negative,2,l,j,,,,,,,,,8,0,144,14,,,,,,,,,,,,,,,,,,,,,,,,main,2,2,2,negative,positive,l,l,1,0.811919499974465,469.22979260000284,470.3008545000048,470.2526850999857,None,469.22979260000284,None,469.22979260000284,None,469.22979260000284,None,471.00449022001123,None,471.00449022001123,None,471.00449022001123,None,,,,,,,,,,,,112,20,Female,2022-05-04_09h48.05.672,Boat,2022.1.1,59.99772008673796,
negative,negative,2,j,l,,,,,,,,,8,1,145,9,,,,,,,,,,,,,,,,,,,,,,,,main,2,2,2,negative,negative,j,j,1,0.7864429999899585,471.0359007999941,472.1044641000044,472.05653289999464,None,471.0359007999941,None,471.0359007999941,None,471.0359007999941,None,472.79816681998784,None,472.79816681998784,None,472.79816681998784,None,,,,,,,,,,,,112,20,Female,2022-05-04_09h48.05.672,Boat,2022.1.1,59.99772008673796,
positive,positive,1,l,j,,,,,,,,,8,2,146,2,,,,,,,,,,,,,,,,,,,,,,,,main,2,2,1,positive,positive,l,l,1,0.886864499974763,472.84741210000357,473.9048849999963,473.85710920000565,None,472.84741210000357,None,472.84741210000357,None,472.84741210000357,None,474.68713771999467,None,474.68713771999467,None,474.68713771999467,None,,,,,,,,,,,,112,20,Female,2022-05-04_09h48.05.672,Boat,2022.1.1,59.99772008673796,
negative,negative,1,j,l,,,,,,,,,8,3,147,0,,,,,,,,,,,,,,,,,,,,,,,,main,2,2,1,negative,negative,j,j,1,0.8059040999796707,474.72146729999804,475.7611307000043,475.7611307000043,None,474.72146729999804,None,474.72146729999804,None,474.72146729999804,None,476.5022722200025,None,476.5022722200025,None,476.5022722200025,None,,,,,,,,,,,,112,20,Female,2022-05-04_09h48.05.672,Boat,2022.1.1,59.99772008673796,
neutral,positive,2,k,k,,,,,,,,,8,4,148,13,,,,,,,,,,,,,,,,,,,,,,,,main,1,1,2,positive,neutral,k,k,1,0.7203106000088155,476.56995380000444,477.63061839999864,477.5438911000092,None,476.56995380000444,None,476.56995380000444,None,476.56995380000444,None,478.2318153199973,None,478.2318153199973,None,478.2318153199973,None,,,,,,,,,,,,112,20,Female,2022-05-04_09h48.05.672,Boat,2022.1.1,59.99772008673796,
neutral,neutral,2,k,k,,,,,,,,,8,5,149,10,,,,,,,,,,,,,,,,,,,,,,,,main,1,1,2,neutral,neutral,k,k,1,0.7211039999965578,478.264743000007,479.3325995999912,479.2862385000044,None,478.264743000007,None,478.264743000007,None,478.264743000007,None,479.96070362001194,None,479.96070362001194,None,479.96070362001194,None,,,,,,,,,,,,112,20,Female,2022-05-04_09h48.05.672,Boat,2022.1.1,59.99772008673796,
negative,neutral,1,j,l,,,,,,,,,8,6,150,3,,,,,,,,,,,,,,,,,,,,,,,,main,1,1,1,neutral,negative,j,j,1,0.906929000018863,479.999834199989,481.07363910001004,481.029260100011,None,479.999834199989,None,479.999834199989,None,479.999834199989,None,481.85930751000416,None,481.85930751000416,None,481.85930751000416,None,,,,,,,,,,,,112,20,Female,2022-05-04_09h48.05.672,Boat,2022.1.1,59.99772008673796,
positive,positive,2,l,j,,,,,,,,,8,7,151,11,,,,,,,,,,,,,,,,,,,,,,,,main,1,1,2,positive,positive,l,l,1,0.8113658000074793,481.9129566999909,482.9638142999902,482.9152812999964,None,481.9129566999909,None,481.9129566999909,None,481.9129566999909,None,483.674731310003,None,483.674731310003,None,483.674731310003,None,,,,,,,,,,,,112,20,Female,2022-05-04_09h48.05.672,Boat,2022.1.1,59.99772008673796,
positive,negative,1,l,j,,,,,,,,,8,8,152,5,,,,,,,,,,,,,,,,,,,,,,,,main,2,2,1,negative,positive,l,l,1,0.7954808000067715,483.7204384999932,484.79170420000446,484.7441719000053,None,483.7204384999932,None,483.7204384999932,None,483.7204384999932,None,485.48446222001223,None,485.48446222001223,None,485.48446222001223,None,,,,,,,,,,,,112,20,Female,2022-05-04_09h48.05.672,Boat,2022.1.1,59.99772008673796,
negative,neutral,2,j,l,,,,,,,,,8,9,153,12,,,,,,,,,,,,,,,,,,,,,,,,main,2,2,2,neutral,negative,j,j,1,1.9760850000020582,485.53110809999635,486.6065174000105,486.5587297999882,None,485.53110809999635,None,485.53110809999635,None,485.53110809999635,None,488.4787575000082,None,488.4787575000082,None,488.4787575000082,None,,,,,,,,,,,,112,20,Female,2022-05-04_09h48.05.672,Boat,2022.1.1,59.99772008673796,
positive,neutral,2,l,j,,,,,,,,,8,10,154,17,,,,,,,,,,,,,,,,,,,,,,,,main,1,1,2,neutral,positive,l,l,1,0.981143000011798,489.54491170000983,490.58765120001044,490.52149069998995,None,489.54491170000983,None,489.54491170000983,None,489.54491170000983,None,491.4704682299984,None,491.4704682299984,None,491.4704682299984,None,,,,,,,,,,,,112,20,Female,2022-05-04_09h48.05.672,Boat,2022.1.1,59.99772008673796,
neutral,negative,1,k,k,,,,,,,,,8,11,155,7,,,,,,,,,,,,,,,,,,,,,,,,main,1,1,1,negative,neutral,k,k,1,0.7026006999949459,491.52837459999137,492.6010932000063,492.50511460000416,None,491.52837459999137,None,491.52837459999137,None,491.52837459999137,None,493.1789282199985,None,493.1789282199985,None,493.1789282199985,None,,,,,,,,,,,,112,20,Female,2022-05-04_09h48.05.672,Boat,2022.1.1,59.99772008673796,
negative,positive,1,j,l,,,,,,,,,8,12,156,6,,,,,,,,,,,,,,,,,,,,,,,,main,2,2,1,positive,negative,j,j,1,0.745596699998714,493.23120909999125,494.27806519999285,494.23537559999386,None,493.23120909999125,None,493.23120909999125,None,493.23120909999125,None,494.9290858200053,None,494.9290858200053,None,494.9290858200053,None,,,,,,,,,,,,112,20,Female,2022-05-04_09h48.05.672,Boat,2022.1.1,59.99772008673796,
neutral,neutral,1,k,k,,,,,,,,,8,13,157,1,,,,,,,,,,,,,,,,,,,,,,,,main,2,2,1,neutral,neutral,k,k,1,0.7719146000163164,495.0162003999867,496.0381697000121,496.0126755000092,None,495.0162003999867,None,495.0162003999867,None,495.0162003999867,None,496.7190606199962,None,496.7190606199962,None,496.7190606199962,None,,,,,,,,,,,,112,20,Female,2022-05-04_09h48.05.672,Boat,2022.1.1,59.99772008673796,
neutral,negative,2,k,k,,,,,,,,,8,14,158,16,,,,,,,,,,,,,,,,,,,,,,,,main,2,2,2,negative,neutral,k,k,1,0.807727999985218,496.76245929999277,497.8295138000103,497.78355379999266,None,496.76245929999277,None,496.76245929999277,None,496.76245929999277,None,498.5299849300122,None,498.5299849300122,None,498.5299849300122,None,,,,,,,,,,,,112,20,Female,2022-05-04_09h48.05.672,Boat,2022.1.1,59.99772008673796,
neutral,positive,1,k,k,,,,,,,,,8,15,159,4,,,,,,,,,,,,,,,,,,,,,,,,main,2,2,1,positive,neutral,k,k,1,0.766453599993838,498.60547099998803,499.675728400005,499.62789740000153,None,498.60547099998803,None,498.60547099998803,None,498.60547099998803,None,500.30840902000784,None,500.30840902000784,None,500.30840902000784,None,,,,,,,,,,,,112,20,Female,2022-05-04_09h48.05.672,Boat,2022.1.1,59.99772008673796,
negative,positive,2,j,l,,,,,,,,,8,16,160,15,,,,,,,,,,,,,,,,,,,,,,,,main,2,2,2,positive,negative,j,j,1,0.7721718999964651,500.3402710999944,501.4071084999887,501.3595231999934,None,500.3402710999944,None,500.3402710999944,None,500.3402710999944,None,502.08889752000107,None,502.08889752000107,None,502.08889752000107,None,,,,,,,,,,,,112,20,Female,2022-05-04_09h48.05.672,Boat,2022.1.1,59.99772008673796,
positive,neutral,1,l,j,,,,,,,,,8,17,161,8,,,,,,,,,,,,,,,,,,,,,,,,main,2,2,1,neutral,positive,l,l,1,0.9394399000157136,502.11592869999004,503.1638491000049,503.1155051999958,None,502.11592869999004,None,502.11592869999004,None,502.11592869999004,None,504.02034082001194,None,504.02034082001194,None,504.02034082001194,None,,,,,,,,,,,,112,20,Female,2022-05-04_09h48.05.672,Boat,2022.1.1,59.99772008673796,
negative,positive,2,j,l,,,,,,,,,9,0,162,15,,,,,,,,,,,,,,,,,,,,,,,,main,2,2,2,positive,negative,j,j,1,0.86791760000051,504.094863300008,505.15880790000665,505.1089471000014,None,504.094863300008,None,504.094863300008,None,504.094863300008,None,505.91006763000627,None,505.91006763000627,None,505.91006763000627,None,,,,,,,,,,,,112,20,Female,2022-05-04_09h48.05.672,Boat,2022.1.1,59.99772008673796,
positive,negative,2,l,j,,,,,,,,,9,1,163,14,,,,,,,,,,,,,,,,,,,,,,,,main,2,2,2,negative,positive,l,l,1,0.9892555999977048,505.9813284999982,507.0327992000093,506.98566259999643,None,505.9813284999982,None,505.9813284999982,None,505.9813284999982,None,507.91118901999437,None,507.91118901999437,None,507.91118901999437,None,,,,,,,,,,,,112,20,Female,2022-05-04_09h48.05.672,Boat,2022.1.1,59.99772008673796,
neutral,neutral,1,k,k,,,,,,,,,9,2,164,1,,,,,,,,,,,,,,,,,,,,,,,,main,2,2,1,neutral,neutral,k,k,1,0.8095123999810312,507.981761300005,509.03447670000605,508.9865550000104,None,507.981761300005,None,507.981761300005,None,507.981761300005,None,509.7334956300096,None,509.7334956300096,None,509.7334956300096,None,,,,,,,,,,,,112,20,Female,2022-05-04_09h48.05.672,Boat,2022.1.1,59.99772008673796,
positive,neutral,1,l,j,,,,,,,,,9,3,165,8,,,,,,,,,,,,,,,,,,,,,,,,main,1,1,1,neutral,positive,l,l,1,0.8575347000150941,509.7895209999988,510.8508393999946,510.8023219000024,None,509.7895209999988,None,509.7895209999988,None,509.7895209999988,None,511.5969212300028,None,511.5969212300028,None,511.5969212300028,None,,,,,,,,,,,,112,20,Female,2022-05-04_09h48.05.672,Boat,2022.1.1,59.99772008673796,
neutral,positive,2,k,k,,,,,,,,,9,4,166,13,,,,,,,,,,,,,,,,,,,,,,,,main,2,2,2,positive,neutral,k,k,1,0.8450576000032015,511.67365899999277,512.7343383000116,512.6865312999871,None,511.67365899999277,None,511.67365899999277,None,511.67365899999277,None,513.4541474200028,None,513.4541474200028,None,513.4541474200028,None,,,,,,,,,,,,112,20,Female,2022-05-04_09h48.05.672,Boat,2022.1.1,59.99772008673796,
negative,negative,2,j,l,,,,,,,,,9,5,167,9,,,,,,,,,,,,,,,,,,,,,,,,main,2,2,2,negative,negative,j,j,1,0.8138300999999046,513.4827405000106,514.5523753000016,514.5055502000032,None,513.4827405000106,None,513.4827405000106,None,513.4827405000106,None,515.2669834200001,None,515.2669834200001,None,515.2669834200001,None,,,,,,,,,,,,112,20,Female,2022-05-04_09h48.05.672,Boat,2022.1.1,59.99772008673796,
positive,neutral,2,l,j,,,,,,,,,9,6,168,17,,,,,,,,,,,,,,,,,,,,,,,,main,1,1,2,neutral,positive,l,l,1,0.9619679000170436,515.3403226000082,516.380181799992,516.33390279999,None,515.3403226000082,None,515.3403226000082,None,515.3403226000082,None,517.2419161300116,None,517.2419161300116,None,517.2419161300116,None,,,,,,,,,,,,112,20,Female,2022-05-04_09h48.05.672,Boat,2022.1.1,59.99772008673796,
negative,negative,1,j,l,,,,,,,,,9,7,169,0,,,,,,,,,,,,,,,,,,,,,,,,main,2,2,1,negative,negative,j,j,1,0.961208600027021,517.3155218999891,518.3758781999932,518.3277399000071,None,517.3155218999891,None,517.3155218999891,None,517.3155218999891,None,519.2089811199926,None,519.2089811199926,None,519.2089811199926,None,,,,,,,,,,,,112,20,Female,2022-05-04_09h48.05.672,Boat,2022.1.1,59.99772008673796,
neutral,negative,1,k,k,,,,,,,,,9,8,170,7,,,,,,,,,,,,,,,,,,,,,,,,main,1,1,1,negative,neutral,k,k,1,0.7259737999993376,519.2690210999863,520.3296390000032,520.2810873999842,None,519.2690210999863,None,519.2690210999863,None,519.2690210999863,None,520.94800102,None,520.94800102,None,520.94800102,None,,,,,,,,,,,,112,20,Female,2022-05-04_09h48.05.672,Boat,2022.1.1,59.99772008673796,
negative,neutral,1,j,l,,,,,,,,,9,9,171,3,,,,,,,,,,,,,,,,,,,,,,,,main,1,1,1,neutral,negative,j,j,1,0.8676941999874543,520.9819902000017,522.0422816000064,521.9921525999962,None,520.9819902000017,None,520.9819902000017,None,520.9819902000017,None,522.8089187099947,None,522.8089187099947,None,522.8089187099947,None,,,,,,,,,,,,112,20,Female,2022-05-04_09h48.05.672,Boat,2022.1.1,59.99772008673796,
positive,positive,2,l,j,,,,,,,,,9,10,172,11,,,,,,,,,,,,,,,,,,,,,,,,main,2,2,2,positive,positive,l,l,1,0.7513704000157304,522.8498555000115,523.8619416999863,523.8387635000108,None,522.8498555000115,None,522.8498555000115,None,522.8498555000115,None,524.5769049200112,None,524.5769049200112,None,524.5769049200112,None,,,,,,,,,,,,112,20,Female,2022-05-04_09h48.05.672,Boat,2022.1.1,59.99772008673796,
neutral,negative,2,k,k,,,,,,,,,9,11,173,16,,,,,,,,,,,,,,,,,,,,,,,,main,2,2,2,negative,neutral,k,k,1,0.7894150999782141,524.6032584999921,525.6362733000133,525.6362733000133,None,524.6032584999921,None,524.6032584999921,None,524.6032584999921,None,526.3739376199896,None,526.3739376199896,None,526.3739376199896,None,,,,,,,,,,,,112,20,Female,2022-05-04_09h48.05.672,Boat,2022.1.1,59.99772008673796,
neutral,positive,1,k,k,,,,,,,,,9,12,174,4,,,,,,,,,,,,,,,,,,,,,,,,main,1,1,1,positive,neutral,k,k,1,0.753004600002896,526.4157292000018,527.4899256000062,527.4429332999862,None,526.4157292000018,None,526.4157292000018,None,526.4157292000018,None,528.1200250100053,None,528.1200250100053,None,528.1200250100053,None,,,,,,,,,,,,112,20,Female,2022-05-04_09h48.05.672,Boat,2022.1.1,59.99772008673796,
negative,neutral,2,j,l,,,,,,,,,9,13,175,12,,,,,,,,,,,,,,,,,,,,,,,,main,2,2,2,neutral,negative,j,j,1,0.8468025999900419,528.1632557999983,529.2146697999851,529.1666583000042,None,528.1632557999983,None,528.1632557999983,None,528.1632557999983,None,529.9783623200142,None,529.9783623200142,None,529.9783623200142,None,,,,,,,,,,,,112,20,Female,2022-05-04_09h48.05.672,Boat,2022.1.1,59.99772008673796,
positive,negative,1,l,j,,,,,,,,,9,14,176,5,,,,,,,,,,,,,,,,,,,,,,,,main,1,1,1,negative,positive,l,l,1,1.208534300007159,530.0500702999998,531.0890772999846,531.0385428000009,None,530.0500702999998,None,530.0500702999998,None,530.0500702999998,None,532.1984455200086,None,532.1984455200086,None,532.1984455200086,None,,,,,,,,,,,,112,20,Female,2022-05-04_09h48.05.672,Boat,2022.1.1,59.99772008673796,
positive,positive,1,l,j,,,,,,,,,9,15,177,2,,,,,,,,,,,,,,,,,,,,,,,,main,2,2,1,positive,positive,l,l,1,1.0445532000157982,532.248788900004,533.2870705999958,533.2387133000011,None,532.248788900004,None,532.248788900004,None,532.248788900004,None,534.2574813199985,None,534.2574813199985,None,534.2574813199985,None,,,,,,,,,,,,112,20,Female,2022-05-04_09h48.05.672,Boat,2022.1.1,59.99772008673796,
negative,positive,1,j,l,,,,,,,,,9,16,178,6,,,,,,,,,,,,,,,,,,,,,,,,main,1,1,1,positive,negative,j,j,1,0.7908256000082474,534.2893509000132,535.3280997000111,535.2842451999895,None,534.2893509000132,None,534.2893509000132,None,534.2893509000132,None,536.0540627200039,None,536.0540627200039,None,536.0540627200039,None,,,,,,,,,,,,112,20,Female,2022-05-04_09h48.05.672,Boat,2022.1.1,59.99772008673796,
neutral,neutral,2,k,k,,,,,,,,,9,17,179,10,,,,,,,,,,,,,,,,,,,,,,,,main,1,1,2,neutral,neutral,k,k,1,0.7817846999969333,536.0855702999979,537.1479202999908,537.0990179000073,None,536.0855702999979,None,536.0855702999979,None,536.0855702999979,None,537.8452437200117,None,537.8452437200117,None,537.8452437200117,None,,,,,,,,,,,,112,20,Female,2022-05-04_09h48.05.672,Boat,2022.1.1,59.99772008673796,
negative,neutral,1,j,l,,,,,,,,,10,0,180,3,,,,,,,,,,,,,,,,,,,,,,,,main,2,2,1,neutral,negative,j,j,1,1.2587829999974929,537.8689266000001,538.942344799987,538.8932145999861,None,537.8689266000001,None,537.8689266000001,None,537.8689266000001,None,540.105107320001,None,540.105107320001,None,540.105107320001,None,,,,,,,,,,,,112,20,Female,2022-05-04_09h48.05.672,Boat,2022.1.1,59.99772008673796,
negative,negative,1,j,l,,,,,,,,,10,1,181,0,,,,,,,,,,,,,,,,,,,,,,,,main,1,1,1,negative,negative,j,j,1,0.7928583000029903,540.1664562000078,541.2339113999915,541.1869147999969,None,540.1664562000078,None,540.1664562000078,None,540.1664562000078,None,541.9050219200085,None,541.9050219200085,None,541.9050219200085,None,,,,,,,,,,,,112,20,Female,2022-05-04_09h48.05.672,Boat,2022.1.1,59.99772008673796,
neutral,positive,2,k,k,,,,,,,,,10,2,182,13,,,,,,,,,,,,,,,,,,,,,,,,main,2,2,2,positive,neutral,k,k,1,0.9120281999930739,541.9706300999969,543.023409299989,542.9755798999977,None,541.9706300999969,None,541.9706300999969,None,541.9706300999969,None,543.8280436300032,None,543.8280436300032,None,543.8280436300032,None,,,,,,,,,,,,112,20,Female,2022-05-04_09h48.05.672,Boat,2022.1.1,59.99772008673796,
negative,positive,2,j,l,,,,,,,,,10,3,183,15,,,,,,,,,,,,,,,,,,,,,,,,main,1,1,2,positive,negative,j,j,1,1.041880200005835,543.9021669999929,544.9507197999919,544.9048957999912,None,543.9021669999929,None,543.9021669999929,None,543.9021669999929,None,545.8837714300083,None,545.8837714300083,None,545.8837714300083,None,,,,,,,,,,,,112,20,Female,2022-05-04_09h48.05.672,Boat,2022.1.1,59.99772008673796,
positive,neutral,1,l,j,,,,,,,,,10,4,184,8,,,,,,,,,,,,,,,,,,,,,,,,main,2,2,1,neutral,positive,l,l,1,1.0319714000215754,545.9528104999918,547.001471800002,546.9535471999843,None,545.9528104999918,None,545.9528104999918,None,545.9528104999918,None,547.9208156200125,None,547.9208156200125,None,547.9208156200125,None,,,,,,,,,,,,112,20,Female,2022-05-04_09h48.05.672,Boat,2022.1.1,59.99772008673796,
negative,neutral,2,j,l,,,,,,,,,10,5,185,12,,,,,,,,,,,,,,,,,,,,,,,,main,1,1,2,neutral,negative,j,j,1,0.8485004000249319,547.9965973999933,549.0705137999903,549.0218121999933,None,547.9965973999933,None,547.9965973999933,None,547.9965973999933,None,549.7832087200018,None,549.7832087200018,None,549.7832087200018,None,,,,,,,,,,,,112,20,Female,2022-05-04_09h48.05.672,Boat,2022.1.1,59.99772008673796,
positive,positive,2,l,j,,,,,,,,,10,6,186,11,,,,,,,,,,,,,,,,,,,,,,,,main,1,1,2,positive,positive,l,l,1,1.5811178000003565,549.8187422000046,550.9033174999931,550.8539252000046,None,549.8187422000046,None,549.8187422000046,None,549.8187422000046,None,552.3855062999937,None,552.3855062999937,None,552.3855062999937,None,,,,,,,,,,,,112,20,Female,2022-05-04_09h48.05.672,Boat,2022.1.1,59.99772008673796,
neutral,negative,2,k,k,,,,,,,,,10,7,187,16,,,,,,,,,,,,,,,,,,,,,,,,main,2,2,2,negative,neutral,k,k,1,0.8190013999992516,553.4667949999857,554.5128285000101,554.4635965999914,None,553.4667949999857,None,553.4667949999857,None,553.4667949999857,None,555.226596320013,None,555.226596320013,None,555.226596320013,None,,,,,,,,,,,,112,20,Female,2022-05-04_09h48.05.672,Boat,2022.1.1,59.99772008673796,
negative,negative,2,j,l,,,,,,,,,10,8,188,9,,,,,,,,,,,,,,,,,,,,,,,,main,2,2,2,negative,negative,j,j,1,0.8431094999832567,555.2602245000016,556.293883300008,556.293883300008,None,555.2602245000016,None,555.2602245000016,None,555.2602245000016,None,557.0763526199967,None,557.0763526199967,None,557.0763526199967,None,,,,,,,,,,,,112,20,Female,2022-05-04_09h48.05.672,Boat,2022.1.1,59.99772008673796,
neutral,neutral,2,k,k,,,,,,,,,10,9,189,10,,,,,,,,,,,,,,,,,,,,,,,,main,1,1,2,neutral,neutral,k,k,1,0.7911991000000853,557.1096936000104,558.1582853999862,558.1096942999866,None,557.1096936000104,None,557.1096936000104,None,557.1096936000104,None,558.8735881200059,None,558.8735881200059,None,558.8735881200059,None,,,,,,,,,,,,112,20,Female,2022-05-04_09h48.05.672,Boat,2022.1.1,59.99772008673796,
positive,negative,1,l,j,,,,,,,,,10,10,190,5,,,,,,,,,,,,,,,,,,,,,,,,main,1,1,1,negative,positive,l,l,1,0.9899673000036273,558.9053764999844,559.9589220999915,559.9059294000035,None,558.9053764999844,None,558.9053764999844,None,558.9053764999844,None,560.8687263200059,None,560.8687263200059,None,560.8687263200059,None,,,,,,,,,,,,112,20,Female,2022-05-04_09h48.05.672,Boat,2022.1.1,59.99772008673796,
positive,negative,2,l,j,,,,,,,,,10,11,191,14,,,,,,,,,,,,,,,,,,,,,,,,main,2,2,2,negative,positive,l,l,1,1.0063713999988977,560.9043306999956,561.945092000009,561.945092000009,None,560.9043306999956,None,560.9043306999956,None,560.9043306999956,None,562.8670118099951,None,562.8670118099951,None,562.8670118099951,None,,,,,,,,,,,,112,20,Female,2022-05-04_09h48.05.672,Boat,2022.1.1,59.99772008673796,
neutral,positive,1,k,k,,,,,,,,,10,12,192,4,,,,,,,,,,,,,,,,,,,,,,,,main,1,1,1,positive,neutral,k,k,1,0.7929964000068139,562.9069504000072,563.937869299989,563.937869299989,None,562.9069504000072,None,562.9069504000072,None,562.9069504000072,None,564.6769614200107,None,564.6769614200107,None,564.6769614200107,None,,,,,,,,,,,,112,20,Female,2022-05-04_09h48.05.672,Boat,2022.1.1,59.99772008673796,
positive,positive,1,l,j,,,,,,,,,10,13,193,2,,,,,,,,,,,,,,,,,,,,,,,,main,1,1,1,positive,positive,l,l,1,0.8683137999905739,564.714134400012,565.7650906000054,565.7166721000103,None,564.714134400012,None,564.714134400012,None,564.714134400012,None,566.5412102099915,None,566.5412102099915,None,566.5412102099915,None,,,,,,,,,,,,112,20,Female,2022-05-04_09h48.05.672,Boat,2022.1.1,59.99772008673796,
negative,positive,1,j,l,,,,,,,,,10,14,194,6,,,,,,,,,,,,,,,,,,,,,,,,main,2,2,1,positive,negative,j,j,1,1.3440532000095118,566.5732179000042,567.6263348000066,567.578297,None,566.5732179000042,None,566.5732179000042,None,566.5732179000042,None,568.8962885200103,None,568.8962885200103,None,568.8962885200103,None,,,,,,,,,,,,112,20,Female,2022-05-04_09h48.05.672,Boat,2022.1.1,59.99772008673796,
neutral,negative,1,k,k,,,,,,,,,10,15,195,7,,,,,,,,,,,,,,,,,,,,,,,,main,2,2,1,negative,neutral,k,k,1,0.8193457000015769,568.944359199988,570.0044892999867,569.9525622999936,None,568.944359199988,None,568.944359199988,None,568.944359199988,None,570.7149162099929,None,570.7149162099929,None,570.7149162099929,None,,,,,,,,,,,,112,20,Female,2022-05-04_09h48.05.672,Boat,2022.1.1,59.99772008673796,
positive,neutral,2,l,j,,,,,,,,,10,16,196,17,,,,,,,,,,,,,,,,,,,,,,,,main,1,1,2,neutral,positive,l,l,1,0.943582800013246,570.7526903999969,571.8088133000128,571.8088133000128,None,570.7526903999969,None,570.7526903999969,None,570.7526903999969,None,572.6663622200081,None,572.6663622200081,None,572.6663622200081,None,,,,,,,,,,,,112,20,Female,2022-05-04_09h48.05.672,Boat,2022.1.1,59.99772008673796,
neutral,neutral,1,k,k,,,,,,,,,10,17,197,1,,,,,,,,,,,,,,,,,,,,,,,,main,1,1,1,neutral,neutral,k,k,1,0.7406782000034582,572.7506813000073,573.7939485000097,573.7457332999911,None,572.7506813000073,None,572.7506813000073,None,572.7506813000073,None,574.425333620014,None,574.425333620014,None,574.425333620014,None,,,,,,,,,,,,112,20,Female,2022-05-04_09h48.05.672,Boat,2022.1.1,59.99772008673796,
negative,neutral,2,j,l,,,,,,,,,11,0,198,12,,,,,,,,,,,,,,,,,,,,,,,,main,2,2,2,neutral,negative,j,j,1,0.9659686000086367,574.4695615000091,575.5321793000039,575.4824971999915,None,574.4695615000091,None,574.4695615000091,None,574.4695615000091,None,576.4019419200135,None,576.4019419200135,None,576.4019419200135,None,,,,,,,,,,,,112,20,Female,2022-05-04_09h48.05.672,Boat,2022.1.1,59.99772008673796,
negative,negative,2,j,l,,,,,,,,,11,1,199,9,,,,,,,,,,,,,,,,,,,,,,,,main,1,1,2,negative,negative,j,j,1,0.846668000012869,576.4665951000061,577.5065401000029,577.4591756000009,None,576.4665951000061,None,576.4665951000061,None,576.4665951000061,None,578.2603371299978,None,578.2603371299978,None,578.2603371299978,None,,,,,,,,,,,,112,20,Female,2022-05-04_09h48.05.672,Boat,2022.1.1,59.99772008673796,
positive,neutral,1,l,j,,,,,,,,,11,2,200,8,,,,,,,,,,,,,,,,,,,,,,,,main,1,1,1,neutral,positive,l,l,1,1.0674905000196304,578.3345275000029,579.3806774000113,579.3336166999943,None,578.3345275000029,None,578.3345275000029,None,578.3345275000029,None,580.3350429199868,None,580.3350429199868,None,580.3350429199868,None,,,,,,,,,,,,112,20,Female,2022-05-04_09h48.05.672,Boat,2022.1.1,59.99772008673796,
neutral,negative,1,k,k,,,,,,,,,11,3,201,7,,,,,,,,,,,,,,,,,,,,,,,,main,2,2,1,negative,neutral,k,k,1,0.8141102000081446,580.3736731999961,581.421841000003,581.3846107999852,None,580.3736731999961,None,580.3736731999961,None,580.3736731999961,None,582.159408119996,None,582.159408119996,None,582.159408119996,None,,,,,,,,,,,,112,20,Female,2022-05-04_09h48.05.672,Boat,2022.1.1,59.99772008673796,
positive,positive,1,l,j,,,,,,,,,11,4,202,2,,,,,,,,,,,,,,,,,,,,,,,,main,1,1,1,positive,positive,l,l,1,0.8694781000085641,582.1906363999879,583.2447676000011,583.1961929000099,None,582.1906363999879,None,582.1906363999879,None,582.1906363999879,None,584.0379977299948,None,584.0379977299948,None,584.0379977299948,None,,,,,,,,,,,,112,20,Female,2022-05-04_09h48.05.672,Boat,2022.1.1,59.99772008673796,
neutral,negative,2,k,k,,,,,,,,,11,5,203,16,,,,,,,,,,,,,,,,,,,,,,,,main,2,2,2,negative,neutral,k,k,1,0.932611199998064,584.1043888000131,585.1492849999922,585.1013796000043,None,584.1043888000131,None,584.1043888000131,None,584.1043888000131,None,585.9781062300084,None,585.9781062300084,None,585.9781062300084,None,,,,,,,,,,,,112,20,Female,2022-05-04_09h48.05.672,Boat,2022.1.1,59.99772008673796,
negative,positive,1,j,l,,,,,,,,,11,6,204,6,,,,,,,,,,,,,,,,,,,,,,,,main,2,2,1,positive,negative,j,j,1,1.079803400003584,586.0511200999899,587.1081421999843,587.0596464000118,None,586.0511200999899,None,586.0511200999899,None,586.0511200999899,None,588.0627625200082,None,588.0627625200082,None,588.0627625200082,None,,,,,,,,,,,,112,20,Female,2022-05-04_09h48.05.672,Boat,2022.1.1,59.99772008673796,
positive,neutral,2,l,j,,,,,,,,,11,7,205,17,,,,,,,,,,,,,,,,,,,,,,,,main,1,1,2,neutral,positive,l,l,1,0.7904183000209741,588.132892900001,589.1602232999867,589.1270546999876,None,588.132892900001,None,588.132892900001,None,588.132892900001,None,589.8688374200078,None,589.8688374200078,None,589.8688374200078,None,,,,,,,,,,,,112,20,Female,2022-05-04_09h48.05.672,Boat,2022.1.1,59.99772008673796,
neutral,positive,2,k,k,,,,,,,,,11,8,206,13,,,,,,,,,,,,,,,,,,,,,,,,main,1,1,2,positive,neutral,k,k,1,0.7715422000037506,589.9292294000043,590.9712722999975,590.9212907000037,None,589.9292294000043,None,589.9292294000043,None,589.9292294000043,None,591.6484997199964,None,591.6484997199964,None,591.6484997199964,None,,,,,,,,,,,,112,20,Female,2022-05-04_09h48.05.672,Boat,2022.1.1,59.99772008673796,
negative,negative,1,j,l,,,,,,,,,11,9,207,0,,,,,,,,,,,,,,,,,,,,,,,,main,1,1,1,negative,negative,j,j,1,1.168126000004122,591.6809819999908,592.7586293999921,592.7105751000054,None,591.6809819999908,None,591.6809819999908,None,591.6809819999908,None,593.8217402200039,None,593.8217402200039,None,593.8217402200039,None,,,,,,,,,,,,112,20,Female,2022-05-04_09h48.05.672,Boat,2022.1.1,59.99772008673796,
