target,distractor,set,ans1,ans2,rep_loop2.thisRepN,rep_loop2.thisTrialN,rep_loop2.thisN,rep_loop2.thisIndex,flanker_prac_loop.thisRepN,flanker_prac_loop.thisTrialN,flanker_prac_loop.thisN,flanker_prac_loop.thisIndex,flanker_main_loop.thisRepN,flanker_main_loop.thisTrialN,flanker_main_loop.thisN,flanker_main_loop.thisIndex,fl_inst_resp.keys,mouse.x,mouse.y,mouse.leftButton,mouse.midButton,mouse.rightButton,mouse.started,mouse.stopped,sound_1.started,sound_1.stopped,no_text.started,no_text.stopped,yes_text.started,yes_text.stopped,mouse_2.x,mouse_2.y,mouse_2.leftButton,mouse_2.midButton,mouse_2.rightButton,mouse_2.started,mouse_2.stopped,back_2.started,back_2.stopped,main_prac,fl_cold,fl_colt,fl_set,fl_dcond,fl_tcond,fl_ans,fl_res,fl_corr,fl_rt,fix_fl.started,fix_fl.stopped,targ.started,targ.stopped,j_button.started,j_button.stopped,k_button.started,k_button.stopped,l_button.started,l_button.stopped,j_button2.started,j_button2.stopped,k_button2.started,k_button2.stopped,l_button2.started,l_button2.stopped,mainback.started,mainback.stopped,key_resp.keys,mouse_6.x,mouse_6.y,mouse_6.leftButton,mouse_6.midButton,mouse_6.rightButton,mouse_6.started,mouse_6.stopped,id*,age*,gender*,date,expName,psychopyVersion,frameRate,
,,,,,0,0,0,0,,,,,,,,,None,0.2361111,-0.35925925,0,0,0,1.0237052195589058,None,25.99123182001349,None,77.3608332000149,None,77.3608332000149,None,-0.0787037,-0.085185185,0,0,0,0.013225920003606007,None,,,,,,,,,,,,,,,,,,,,,,,,,,,,,,,,,,,,,,,113,26,Male,2022-05-04_12h21.26.385,Boat,2022.1.1,59.892720155064744,
positive,neutral,2,l,j,,,,,0,0,0,17,,,,,,,,,,,,,,,,,,,,,,,,,,82.10899979999522,None,prac,1,1,2,neutral,positive,j,j,1,1.9753688999917358,84.13867529999698,85.15889150000294,85.11388650001027,None,84.13867529999698,None,84.13867529999698,None,84.13867529999698,None,87.10499469999922,None,87.10499469999922,None,87.10499469999922,None,,,,,,,,,,,113,26,Male,2022-05-04_12h21.26.385,Boat,2022.1.1,59.892720155064744,
neutral,positive,1,k,k,,,,,0,1,1,4,,,,,,,,,,,,,,,,,,,,,,,,,,,,prac,2,2,1,positive,neutral,k,k,1,1.0176561000116635,88.11690799999633,89.13023820001399,89.09375739999814,None,88.11690799999633,None,88.11690799999633,None,88.11690799999633,None,90.11997811998882,None,90.11997811998882,None,90.11997811998882,None,,,,,,,,,,,113,26,Male,2022-05-04_12h21.26.385,Boat,2022.1.1,59.892720155064744,
negative,neutral,2,j,l,,,,,0,2,2,12,,,,,,,,,,,,,,,,,,,,,,,,,,,,prac,1,1,2,neutral,negative,l,l,1,1.143563899997389,90.13652920001186,91.15740490000462,91.11423810000997,None,90.13652920001186,None,90.13652920001186,None,90.13652920001186,None,92.26667512000714,None,92.26667512000714,None,92.26667512000714,None,,,,,,,,,,,113,26,Male,2022-05-04_12h21.26.385,Boat,2022.1.1,59.892720155064744,
positive,negative,1,l,j,,,,,0,3,3,5,,,,,,,,,,,,,,,,,,,,,,,,,,,,prac,2,2,1,negative,positive,j,j,1,1.0847371999989264,92.28379350001342,93.29762550001033,93.26131820000592,None,92.28379350001342,None,92.28379350001342,None,92.28379350001342,None,94.35273651999015,None,94.35273651999015,None,94.35273651999015,None,,,,,,,,,,,113,26,Male,2022-05-04_12h21.26.385,Boat,2022.1.1,59.892720155064744,
positive,negative,2,l,j,,,,,0,4,4,14,,,,,,,,,,,,,,,,,,,,,,,,,,,,prac,2,2,2,negative,positive,j,j,1,0.8481551999866497,94.37175099999877,95.3904620000103,95.34776430000784,None,94.37175099999877,None,94.37175099999877,None,94.37175099999877,None,96.20326182000863,None,96.20326182000863,None,96.20326182000863,None,,,,,,,,,,,113,26,Male,2022-05-04_12h21.26.385,Boat,2022.1.1,59.892720155064744,
negative,positive,2,j,l,,,,,0,5,5,15,,,,,,,,,,,,,,,,,,,,,,,,,,,,prac,2,2,2,positive,negative,l,l,1,0.8594040000170935,96.21975190000376,97.23109929999919,97.19657470000675,None,96.21975190000376,None,96.21975190000376,None,96.21975190000376,None,98.06435031998845,None,98.06435031998845,None,98.06435031998845,None,,,,,,,,,,,113,26,Male,2022-05-04_12h21.26.385,Boat,2022.1.1,59.892720155064744,
negative,neutral,1,j,l,,,,,0,6,6,3,,,,,,,,,,,,,,,,,,,,,,,,,,,,prac,2,2,1,neutral,negative,l,l,1,1.0813994999916758,98.08134549998795,99.08276280001155,99.06446900000446,None,98.08134549998795,None,98.08134549998795,None,98.08134549998795,None,100.14925591998909,None,100.14925591998909,None,100.14925591998909,None,,,,,,,,,,,113,26,Male,2022-05-04_12h21.26.385,Boat,2022.1.1,59.892720155064744,
positive,neutral,1,l,j,,,,,0,7,7,8,,,,,,,,,,,,,,,,,,,,,,,,,,,,prac,2,2,1,neutral,positive,j,j,1,1.2341590000141878,100.16680380000616,101.18105889999424,101.14561899998807,None,100.16680380000616,None,100.16680380000616,None,100.16680380000616,None,102.38615602000792,None,102.38615602000792,None,102.38615602000792,None,,,,,,,,,,,113,26,Male,2022-05-04_12h21.26.385,Boat,2022.1.1,59.892720155064744,
neutral,negative,1,k,k,,,,,0,8,8,7,,,,,,,,,,,,,,,,,,,,,,,,,,,,prac,1,1,1,negative,neutral,k,k,1,0.8247185000218451,102.40218010000535,103.42428999999538,103.3809462999925,None,102.40218010000535,None,102.40218010000535,None,102.40218010000535,None,104.2144130199944,None,104.2144130199944,None,104.2144130199944,None,,,,,,,,,,,113,26,Male,2022-05-04_12h21.26.385,Boat,2022.1.1,59.892720155064744,
positive,positive,2,l,j,,,,,0,9,9,11,,,,,,,,,,,,,,,,,,,,,,,,,,,,prac,2,2,2,positive,positive,j,j,1,0.8607539999939036,104.2300108000054,105.24811600000248,105.21088460000465,None,104.2300108000054,None,104.2300108000054,None,104.2300108000054,None,106.07792021999776,None,106.07792021999776,None,106.07792021999776,None,,,,,,,,,,,113,26,Male,2022-05-04_12h21.26.385,Boat,2022.1.1,59.892720155064744,
neutral,positive,2,k,k,,,,,0,10,10,13,,,,,,,,,,,,,,,,,,,,,,,,,,,,prac,2,2,2,positive,neutral,k,k,1,0.8634821999876294,106.09481939999387,107.09658099999069,107.07846389999031,None,106.09481939999387,None,106.09481939999387,None,106.09481939999387,None,107.94294982001011,None,107.94294982001011,None,107.94294982001011,None,,,,,,,,,,,113,26,Male,2022-05-04_12h21.26.385,Boat,2022.1.1,59.892720155064744,
negative,negative,1,j,l,,,,,0,11,11,0,,,,,,,,,,,,,,,,,,,,,,,,,,,,prac,2,2,1,negative,negative,l,l,1,0.9713106999988668,107.96144939999795,108.97463099999004,108.94788049999624,None,107.96144939999795,None,107.96144939999795,None,107.96144939999795,None,109.91641522000137,None,109.91641522000137,None,109.91641522000137,None,,,,,,,,,,,113,26,Male,2022-05-04_12h21.26.385,Boat,2022.1.1,59.892720155064744,
negative,negative,2,j,l,,,,,0,12,12,9,,,,,,,,,,,,,,,,,,,,,,,,,,,,prac,2,2,2,negative,negative,l,l,1,0.8343938000034541,109.93224640001426,110.95952390000457,110.91423329999088,None,109.93224640001426,None,109.93224640001426,None,109.93224640001426,None,111.75259291999683,None,111.75259291999683,None,111.75259291999683,None,,,,,,,,,,,113,26,Male,2022-05-04_12h21.26.385,Boat,2022.1.1,59.892720155064744,
neutral,neutral,1,k,k,,,,,0,13,13,1,,,,,,,,,,,,,,,,,,,,,,,,,,,,prac,2,2,1,neutral,neutral,k,k,1,0.8651855000061914,111.76975060001132,112.7820875000034,112.74801390001085,None,111.76975060001132,None,111.76975060001132,None,111.76975060001132,None,113.62050512001443,None,113.62050512001443,None,113.62050512001443,None,,,,,,,,,,,113,26,Male,2022-05-04_12h21.26.385,Boat,2022.1.1,59.892720155064744,
positive,positive,1,l,j,,,,,0,14,14,2,,,,,,,,,,,,,,,,,,,,,,,,,,,,prac,2,2,1,positive,positive,j,j,1,1.1872895999986213,113.63841089999187,114.6473435999942,114.61063410001225,None,113.63841089999187,None,113.63841089999187,None,113.63841089999187,None,115.81102901998966,None,115.81102901998966,None,115.81102901998966,None,,,,,,,,,,,113,26,Male,2022-05-04_12h21.26.385,Boat,2022.1.1,59.892720155064744,
neutral,negative,2,k,k,,,,,0,15,15,16,,,,,,,,,,,,,,,,,,,,,,,,,,,,prac,2,2,2,negative,neutral,k,k,1,0.7907829000032507,115.82973319999292,116.84820999999647,116.81187159998808,None,115.82973319999292,None,115.82973319999292,None,115.82973319999292,None,117.6031956199935,None,117.6031956199935,None,117.6031956199935,None,,,,,,,,,,,113,26,Male,2022-05-04_12h21.26.385,Boat,2022.1.1,59.892720155064744,
negative,positive,1,j,l,,,,,0,16,16,6,,,,,,,,,,,,,,,,,,,,,,,,,,,,prac,1,1,1,positive,negative,l,l,1,1.0917351999960374,117.61932749999687,118.64151799998945,118.59808150000754,None,117.61932749999687,None,117.61932749999687,None,117.61932749999687,None,119.69831451999781,None,119.69831451999781,None,119.69831451999781,None,,,,,,,,,,,113,26,Male,2022-05-04_12h21.26.385,Boat,2022.1.1,59.892720155064744,
neutral,neutral,2,k,k,,,,,0,17,17,10,,,,,,,,,,,,,,,,,,,,,,,,,,,,prac,1,1,2,neutral,neutral,k,k,1,0.7863807000103407,119.71355610000319,120.72488739999244,120.69812929999898,None,119.71355610000319,None,119.71355610000319,None,119.71355610000319,None,121.48661541999027,None,121.48661541999027,None,121.48661541999027,None,,,,,,,,,,,113,26,Male,2022-05-04_12h21.26.385,Boat,2022.1.1,59.892720155064744,
neutral,positive,2,k,k,,,,,1,0,18,13,,,,,,,,,,,,,,,,,,,,,,,,,,,,prac,2,2,2,positive,neutral,k,k,1,0.6709650000266265,121.50254859999404,122.51485070001218,122.47871289998875,None,121.50254859999404,None,121.50254859999404,None,121.50254859999404,None,123.16059751999856,None,123.16059751999856,None,123.16059751999856,None,,,,,,,,,,,113,26,Male,2022-05-04_12h21.26.385,Boat,2022.1.1,59.892720155064744,
negative,negative,2,j,l,,,,,1,1,19,9,,,,,,,,,,,,,,,,,,,,,,,,,,,,prac,1,1,2,negative,negative,l,l,1,0.7849868999910541,123.17697160001262,124.1800579999981,124.16184879999491,None,123.17697160001262,None,123.17697160001262,None,123.17697160001262,None,124.94812422000396,None,124.94812422000396,None,124.94812422000396,None,,,,,,,,,,,113,26,Male,2022-05-04_12h21.26.385,Boat,2022.1.1,59.892720155064744,
negative,neutral,2,j,l,,,,,1,2,20,12,,,,,,,,,,,,,,,,,,,,,,,,,,,,prac,1,1,2,neutral,negative,l,l,1,1.255147299991222,124.96542930000578,125.98172030001297,125.94596800001455,None,124.96542930000578,None,124.96542930000578,None,124.96542930000578,None,127.20692332000763,None,127.20692332000763,None,127.20692332000763,None,,,,,,,,,,,113,26,Male,2022-05-04_12h21.26.385,Boat,2022.1.1,59.892720155064744,
negative,neutral,1,j,l,,,,,1,3,21,3,,,,,,,,,,,,,,,,,,,,,,,,,,,,prac,1,1,1,neutral,negative,l,l,1,0.8123328999790829,127.22364630000084,128.2318568000046,128.1947797999892,None,127.22364630000084,None,127.22364630000084,None,127.22364630000084,None,129.02049561999448,None,129.02049561999448,None,129.02049561999448,None,,,,,,,,,,,113,26,Male,2022-05-04_12h21.26.385,Boat,2022.1.1,59.892720155064744,
positive,positive,2,l,j,,,,,1,4,22,11,,,,,,,,,,,,,,,,,,,,,,,,,,,,prac,1,1,2,positive,positive,j,j,1,0.5945208999910392,129.03681049999432,130.0579676000052,130.01469240000006,None,129.03681049999432,None,129.03681049999432,None,129.03681049999432,None,130.61798202001083,None,130.61798202001083,None,130.61798202001083,None,,,,,,,,,,,113,26,Male,2022-05-04_12h21.26.385,Boat,2022.1.1,59.892720155064744,
negative,positive,2,j,l,,,,,1,5,23,15,,,,,,,,,,,,,,,,,,,,,,,,,,,,prac,2,2,2,positive,negative,l,l,1,0.6998332999937702,130.63369899999816,131.65828780000447,131.61500429999433,None,130.63369899999816,None,130.63369899999816,None,130.63369899999816,None,132.3200696199987,None,132.3200696199987,None,132.3200696199987,None,,,,,,,,,,,113,26,Male,2022-05-04_12h21.26.385,Boat,2022.1.1,59.892720155064744,
neutral,negative,2,k,k,,,,,1,6,24,16,,,,,,,,,,,,,,,,,,,,,,,,,,,,prac,1,1,2,negative,neutral,k,k,1,0.6608167999947909,132.335476200009,133.3479107999883,133.3112376999925,None,132.335476200009,None,132.335476200009,None,132.335476200009,None,133.98306541999628,None,133.98306541999628,None,133.98306541999628,None,,,,,,,,,,,113,26,Male,2022-05-04_12h21.26.385,Boat,2022.1.1,59.892720155064744,
negative,negative,1,j,l,,,,,1,7,25,0,,,,,,,,,,,,,,,,,,,,,,,,,,,,prac,1,1,1,negative,negative,l,l,1,0.9171879999921657,134.00059099998907,135.01164820001577,134.99338480000733,None,134.00059099998907,None,134.00059099998907,None,134.00059099998907,None,135.90277492000897,None,135.90277492000897,None,135.90277492000897,None,,,,,,,,,,,113,26,Male,2022-05-04_12h21.26.385,Boat,2022.1.1,59.892720155064744,
negative,positive,1,j,l,,,,,1,8,26,6,,,,,,,,,,,,,,,,,,,,,,,,,,,,prac,2,2,1,positive,negative,l,l,1,0.7486567000159994,135.9199968999892,136.93177890000516,136.89500049999333,None,135.9199968999892,None,135.9199968999892,None,135.9199968999892,None,137.6529202200094,None,137.6529202200094,None,137.6529202200094,None,,,,,,,,,,,113,26,Male,2022-05-04_12h21.26.385,Boat,2022.1.1,59.892720155064744,
neutral,neutral,2,k,k,,,,,1,9,27,10,,,,,,,,,,,,,,,,,,,,,,,,,,,,prac,1,1,2,neutral,neutral,k,k,1,0.7772853999922518,137.66899030000786,138.68335269999807,138.64709740001126,None,137.66899030000786,None,137.66899030000786,None,137.66899030000786,None,139.43306842000166,None,139.43306842000166,None,139.43306842000166,None,,,,,,,,,,,113,26,Male,2022-05-04_12h21.26.385,Boat,2022.1.1,59.892720155064744,
positive,negative,2,l,j,,,,,1,10,28,14,,,,,,,,,,,,,,,,,,,,,,,,,,,,prac,1,1,2,negative,positive,j,j,1,0.7038600999803748,139.44956629999797,140.46562569998787,140.42967879999196,None,139.44956629999797,None,139.44956629999797,None,139.44956629999797,None,141.1402429200156,None,141.1402429200156,None,141.1402429200156,None,,,,,,,,,,,113,26,Male,2022-05-04_12h21.26.385,Boat,2022.1.1,59.892720155064744,
positive,negative,1,l,j,,,,,1,11,29,5,,,,,,,,,,,,,,,,,,,,,,,,,,,,prac,1,1,1,negative,positive,j,,0,1.0453864999872167,141.1564861999941,142.16392710001674,142.12698490000912,None,141.1564861999941,None,141.1564861999941,None,141.1564861999941,None,143.19753999999375,None,143.19753999999375,None,143.19753999999375,None,,,,,,,,,,,113,26,Male,2022-05-04_12h21.26.385,Boat,2022.1.1,59.892720155064744,
neutral,negative,1,k,k,,,,,1,12,30,7,,,,,,,,,,,,,,,,,,,,,,,,,,,,prac,2,2,1,negative,neutral,k,k,1,0.7985010000120383,144.21750639998936,145.23231729998952,145.1964610000141,None,144.21750639998936,None,144.21750639998936,None,144.21750639998936,None,146.00205031999795,None,146.00205031999795,None,146.00205031999795,None,,,,,,,,,,,113,26,Male,2022-05-04_12h21.26.385,Boat,2022.1.1,59.892720155064744,
positive,positive,1,l,j,,,,,1,13,31,2,,,,,,,,,,,,,,,,,,,,,,,,,,,,prac,1,1,1,positive,positive,j,j,1,1.092870499996934,146.01952780000283,147.04213610000443,146.9988846000051,None,146.01952780000283,None,146.01952780000283,None,146.01952780000283,None,148.09885622001312,None,148.09885622001312,None,148.09885622001312,None,,,,,,,,,,,113,26,Male,2022-05-04_12h21.26.385,Boat,2022.1.1,59.892720155064744,
neutral,positive,1,k,k,,,,,1,14,32,4,,,,,,,,,,,,,,,,,,,,,,,,,,,,prac,2,2,1,positive,neutral,k,k,1,0.73664329998428,148.11466099999961,149.12696570000844,149.10866950001218,None,148.11466099999961,None,148.11466099999961,None,148.11466099999961,None,149.83708642000275,None,149.83708642000275,None,149.83708642000275,None,,,,,,,,,,,113,26,Male,2022-05-04_12h21.26.385,Boat,2022.1.1,59.892720155064744,
neutral,neutral,1,k,k,,,,,1,15,33,1,,,,,,,,,,,,,,,,,,,,,,,,,,,,prac,2,2,1,neutral,neutral,k,k,1,0.8807777999900281,149.85356869999669,150.86540710000554,150.83224580000388,None,149.85356869999669,None,149.85356869999669,None,149.85356869999669,None,151.72028192000872,None,151.72028192000872,None,151.72028192000872,None,,,,,,,,,,,113,26,Male,2022-05-04_12h21.26.385,Boat,2022.1.1,59.892720155064744,
positive,neutral,2,l,j,,,,,1,16,34,17,,,,,,,,,,,,,,,,,,,,,,,,,,,,prac,2,2,2,neutral,positive,j,j,1,0.7796627000207081,151.7369607000146,152.7489379000035,152.7149930000014,None,151.7369607000146,None,151.7369607000146,None,151.7369607000146,None,153.50213492000185,None,153.50213492000185,None,153.50213492000185,None,,,,,,,,,,,113,26,Male,2022-05-04_12h21.26.385,Boat,2022.1.1,59.892720155064744,
positive,neutral,1,l,j,,,,,1,17,35,8,,,,,,,,,,,,,,,,,,,,,,,,,,,,prac,2,2,1,neutral,positive,j,j,1,1.1152121000050101,153.51987930000178,154.54218260000926,154.49904570000945,None,153.51987930000178,None,153.51987930000178,None,153.51987930000178,None,155.62058862000995,None,155.62058862000995,None,155.62058862000995,None,,,,,,,,,,,113,26,Male,2022-05-04_12h21.26.385,Boat,2022.1.1,59.892720155064744,
,,,,,,,,,,,,,,,,,,,,,,,,,,,,,,,,,,,,,,,,,,,,,,,,,,,,,,,,,,,,,,,,,,155.6325433999882,None,None,,,,,,,,113,26,Male,2022-05-04_12h21.26.385,Boat,2022.1.1,59.892720155064744,
,,,,,,,,,,,,,,,,,,,,,,,,,,,,,,,,,,,,,,,,,,,,,,,,,,,,,,,,,,,,,,,,,,,,,-0.036111113,-0.24814814,1,0,0,0.006038320017978549,None,113,26,Male,2022-05-04_12h21.26.385,Boat,2022.1.1,59.892720155064744,
positive,positive,2,l,j,,,,,,,,,0,0,0,11,,,,,,,,,,,,,,,,,,,,,,174.777722800005,None,main,2,2,2,positive,positive,j,j,1,0.9905806999886408,176.79947430000175,177.81302279999363,177.7774994999927,None,176.79947430000175,None,176.79947430000175,None,176.79947430000175,None,178.76977671999194,None,178.76977671999194,None,178.76977671999194,None,,,,,,,,,,,113,26,Male,2022-05-04_12h21.26.385,Boat,2022.1.1,59.892720155064744,
negative,negative,1,j,l,,,,,,,,,0,1,1,0,,,,,,,,,,,,,,,,,,,,,,,,main,1,1,1,negative,negative,l,l,1,0.8418328000116162,178.79583720001392,179.800089700002,179.76320350001333,None,178.79583720001392,None,178.79583720001392,None,178.79583720001392,None,180.61629731998838,None,180.61629731998838,None,180.61629731998838,None,,,,,,,,,,,113,26,Male,2022-05-04_12h21.26.385,Boat,2022.1.1,59.892720155064744,
negative,positive,1,j,l,,,,,,,,,0,2,2,6,,,,,,,,,,,,,,,,,,,,,,,,main,2,2,1,positive,negative,l,l,1,0.7877766000165138,180.63361140000052,181.6496856000158,181.61587899998995,None,180.63361140000052,None,180.63361140000052,None,180.63361140000052,None,182.4052697200008,None,182.4052697200008,None,182.4052697200008,None,,,,,,,,,,,113,26,Male,2022-05-04_12h21.26.385,Boat,2022.1.1,59.892720155064744,
positive,negative,2,l,j,,,,,,,,,0,3,3,14,,,,,,,,,,,,,,,,,,,,,,,,main,1,1,2,negative,positive,j,j,1,0.7389311000006273,182.42319669999415,183.43325229999027,183.3964636999881,None,182.42319669999415,None,182.42319669999415,None,182.42319669999415,None,184.1494631199952,None,184.1494631199952,None,184.1494631199952,None,,,,,,,,,,,113,26,Male,2022-05-04_12h21.26.385,Boat,2022.1.1,59.892720155064744,
positive,negative,1,l,j,,,,,,,,,0,4,4,5,,,,,,,,,,,,,,,,,,,,,,,,main,1,1,1,negative,positive,j,j,1,0.7498569000163116,184.16448529998888,185.1653987999889,185.14716940000653,None,184.16448529998888,None,184.16448529998888,None,184.16448529998888,None,185.90166962000367,None,185.90166962000367,None,185.90166962000367,None,,,,,,,,,,,113,26,Male,2022-05-04_12h21.26.385,Boat,2022.1.1,59.892720155064744,
positive,neutral,2,l,j,,,,,,,,,0,5,5,17,,,,,,,,,,,,,,,,,,,,,,,,main,1,1,2,neutral,positive,j,j,1,0.7859610999876168,185.91753140001674,186.93305240001064,186.8996111000015,None,185.91753140001674,None,185.91753140001674,None,185.91753140001674,None,187.68936161998718,None,187.68936161998718,None,187.68936161998718,None,,,,,,,,,,,113,26,Male,2022-05-04_12h21.26.385,Boat,2022.1.1,59.892720155064744,
neutral,positive,2,k,k,,,,,,,,,0,6,6,13,,,,,,,,,,,,,,,,,,,,,,,,main,2,2,2,positive,neutral,k,k,1,0.8124060000118334,187.70535900001414,188.72766579999006,188.68340559999342,None,187.70535900001414,None,187.70535900001414,None,187.70535900001414,None,189.50449121998682,None,189.50449121998682,None,189.50449121998682,None,,,,,,,,,,,113,26,Male,2022-05-04_12h21.26.385,Boat,2022.1.1,59.892720155064744,
positive,neutral,1,l,j,,,,,,,,,0,7,7,8,,,,,,,,,,,,,,,,,,,,,,,,main,1,1,1,neutral,positive,j,j,1,0.6978005999990273,189.51981410000008,190.53313779999735,190.49783050001133,None,189.51981410000008,None,189.51981410000008,None,189.51981410000008,None,191.20396552001185,None,191.20396552001185,None,191.20396552001185,None,,,,,,,,,,,113,26,Male,2022-05-04_12h21.26.385,Boat,2022.1.1,59.892720155064744,
negative,positive,2,j,l,,,,,,,,,0,8,8,15,,,,,,,,,,,,,,,,,,,,,,,,main,2,2,2,positive,negative,l,l,1,0.8978711000236217,191.2207563999982,192.24472829999286,192.200162299996,None,191.2207563999982,None,191.2207563999982,None,191.2207563999982,None,193.1048183200095,None,193.1048183200095,None,193.1048183200095,None,,,,,,,,,,,113,26,Male,2022-05-04_12h21.26.385,Boat,2022.1.1,59.892720155064744,
negative,neutral,1,j,l,,,,,,,,,0,9,9,3,,,,,,,,,,,,,,,,,,,,,,,,main,2,2,1,neutral,negative,l,l,1,0.7547540999948978,193.1214994000038,194.13296940000146,194.09984209999675,None,193.1214994000038,None,193.1214994000038,None,193.1214994000038,None,194.86231481998985,None,194.86231481998985,None,194.86231481998985,None,,,,,,,,,,,113,26,Male,2022-05-04_12h21.26.385,Boat,2022.1.1,59.892720155064744,
neutral,positive,1,k,k,,,,,,,,,0,10,10,4,,,,,,,,,,,,,,,,,,,,,,,,main,1,1,1,positive,neutral,k,k,1,0.6390996999980416,194.88025149999885,195.8831804000074,195.86669970001094,None,194.88025149999885,None,194.88025149999885,None,194.88025149999885,None,196.5029984199995,None,196.5029984199995,None,196.5029984199995,None,,,,,,,,,,,113,26,Male,2022-05-04_12h21.26.385,Boat,2022.1.1,59.892720155064744,
neutral,negative,2,k,k,,,,,,,,,0,11,11,16,,,,,,,,,,,,,,,,,,,,,,,,main,2,2,2,negative,neutral,k,k,1,0.7479559000057634,196.52087290000054,197.53519110000343,197.50020330000552,None,196.52087290000054,None,196.52087290000054,None,196.52087290000054,None,198.25480052001367,None,198.25480052001367,None,198.25480052001367,None,,,,,,,,,,,113,26,Male,2022-05-04_12h21.26.385,Boat,2022.1.1,59.892720155064744,
neutral,neutral,2,k,k,,,,,,,,,0,12,12,10,,,,,,,,,,,,,,,,,,,,,,,,main,2,2,2,neutral,neutral,k,k,1,0.6292664000065997,198.27111659999355,199.29283459999715,199.249922899995,None,198.27111659999355,None,198.27111659999355,None,198.27111659999355,None,199.88592021998775,None,199.88592021998775,None,199.88592021998775,None,,,,,,,,,,,113,26,Male,2022-05-04_12h21.26.385,Boat,2022.1.1,59.892720155064744,
negative,neutral,2,j,l,,,,,,,,,0,13,13,12,,,,,,,,,,,,,,,,,,,,,,,,main,1,1,2,neutral,negative,l,l,1,0.7479701999982353,199.90348209999502,200.91675500001293,200.88062820001505,None,199.90348209999502,None,199.90348209999502,None,199.90348209999502,None,201.63685351999302,None,201.63685351999302,None,201.63685351999302,None,,,,,,,,,,,113,26,Male,2022-05-04_12h21.26.385,Boat,2022.1.1,59.892720155064744,
negative,negative,2,j,l,,,,,,,,,0,14,14,9,,,,,,,,,,,,,,,,,,,,,,,,main,1,1,2,negative,negative,l,l,1,0.730232400004752,201.65241989999777,202.67636020001373,202.63340099999914,None,201.65241989999777,None,201.65241989999777,None,201.65241989999777,None,203.36965522000392,None,203.36965522000392,None,203.36965522000392,None,,,,,,,,,,,113,26,Male,2022-05-04_12h21.26.385,Boat,2022.1.1,59.892720155064744,
positive,positive,1,l,j,,,,,,,,,0,15,15,2,,,,,,,,,,,,,,,,,,,,,,,,main,2,2,1,positive,positive,j,j,1,0.8834653999947477,203.3868661999877,204.4097669000039,204.36416779999854,None,203.3868661999877,None,203.3868661999877,None,203.3868661999877,None,205.25582261999662,None,205.25582261999662,None,205.25582261999662,None,,,,,,,,,,,113,26,Male,2022-05-04_12h21.26.385,Boat,2022.1.1,59.892720155064744,
neutral,neutral,1,k,k,,,,,,,,,0,16,16,1,,,,,,,,,,,,,,,,,,,,,,,,main,2,2,1,neutral,neutral,k,k,1,0.6620211999979801,205.27132639999036,206.2948466000089,206.25045729998965,None,205.27132639999036,None,205.27132639999036,None,205.27132639999036,None,206.92069642000425,None,206.92069642000425,None,206.92069642000425,None,,,,,,,,,,,113,26,Male,2022-05-04_12h21.26.385,Boat,2022.1.1,59.892720155064744,
neutral,negative,1,k,k,,,,,,,,,0,17,17,7,,,,,,,,,,,,,,,,,,,,,,,,main,2,2,1,negative,neutral,k,k,1,0.8176063999999315,206.93674239999382,207.9600679000141,207.9168900999939,None,206.93674239999382,None,206.93674239999382,None,206.93674239999382,None,208.73975142000418,None,208.73975142000418,None,208.73975142000418,None,,,,,,,,,,,113,26,Male,2022-05-04_12h21.26.385,Boat,2022.1.1,59.892720155064744,
negative,negative,2,j,l,,,,,,,,,1,0,18,9,,,,,,,,,,,,,,,,,,,,,,,,main,1,1,2,negative,negative,l,l,1,1.0296434999909252,208.75571920000948,209.76146249999874,209.743593399995,None,208.75571920000948,None,208.75571920000948,None,208.75571920000948,None,210.77220841999807,None,210.77220841999807,None,210.77220841999807,None,,,,,,,,,,,113,26,Male,2022-05-04_12h21.26.385,Boat,2022.1.1,59.892720155064744,
positive,neutral,2,l,j,,,,,,,,,1,1,19,17,,,,,,,,,,,,,,,,,,,,,,,,main,1,1,2,neutral,positive,j,j,1,0.9108052999945357,210.78811490000226,211.79796799999895,211.76182889999473,None,210.78811490000226,None,210.78811490000226,None,210.78811490000226,None,212.6861407199962,None,212.6861407199962,None,212.6861407199962,None,,,,,,,,,,,113,26,Male,2022-05-04_12h21.26.385,Boat,2022.1.1,59.892720155064744,
neutral,negative,1,k,k,,,,,,,,,1,2,20,7,,,,,,,,,,,,,,,,,,,,,,,,main,2,2,1,negative,neutral,k,k,1,0.6987308000097983,212.70164929999737,213.71703319999506,213.68069609999657,None,212.70164929999737,None,212.70164929999737,None,212.70164929999737,None,214.38770312000125,None,214.38770312000125,None,214.38770312000125,None,,,,,,,,,,,113,26,Male,2022-05-04_12h21.26.385,Boat,2022.1.1,59.892720155064744,
positive,neutral,1,l,j,,,,,,,,,1,3,21,8,,,,,,,,,,,,,,,,,,,,,,,,main,1,1,1,neutral,positive,j,j,1,0.6496383000048809,214.40369100001408,215.4168595999945,215.38348899999983,None,214.40369100001408,None,214.40369100001408,None,214.40369100001408,None,216.0403730200109,None,216.0403730200109,None,216.0403730200109,None,,,,,,,,,,,113,26,Male,2022-05-04_12h21.26.385,Boat,2022.1.1,59.892720155064744,
negative,positive,2,j,l,,,,,,,,,1,4,22,15,,,,,,,,,,,,,,,,,,,,,,,,main,1,1,2,positive,negative,l,l,1,0.7901263000094332,216.0565299000009,217.07859700001427,217.03385030000936,None,216.0565299000009,None,216.0565299000009,None,216.0565299000009,None,217.8341743200057,None,217.8341743200057,None,217.8341743200057,None,,,,,,,,,,,113,26,Male,2022-05-04_12h21.26.385,Boat,2022.1.1,59.892720155064744,
positive,positive,1,l,j,,,,,,,,,1,5,23,2,,,,,,,,,,,,,,,,,,,,,,,,main,1,1,1,positive,positive,j,j,1,1.2142977000039537,217.85062189999735,218.860299699998,218.83370270000887,None,217.85062189999735,None,217.85062189999735,None,217.85062189999735,None,220.05151161998802,None,220.05151161998802,None,220.05151161998802,None,,,,,,,,,,,113,26,Male,2022-05-04_12h21.26.385,Boat,2022.1.1,59.892720155064744,
positive,negative,1,l,j,,,,,,,,,1,6,24,5,,,,,,,,,,,,,,,,,,,,,,,,main,1,1,1,negative,positive,j,j,1,0.6686437000171281,220.06896360000246,221.08055640000384,221.04540500001167,None,220.06896360000246,None,220.06896360000246,None,220.06896360000246,None,221.72488272000047,None,221.72488272000047,None,221.72488272000047,None,,,,,,,,,,,113,26,Male,2022-05-04_12h21.26.385,Boat,2022.1.1,59.892720155064744,
positive,positive,2,l,j,,,,,,,,,1,7,25,11,,,,,,,,,,,,,,,,,,,,,,,,main,1,1,2,positive,positive,j,j,1,1.0959156999888364,221.74058089999016,222.75092190000578,222.73227269999916,None,221.74058089999016,None,221.74058089999016,None,221.74058089999016,None,223.82186402001244,None,223.82186402001244,None,223.82186402001244,None,,,,,,,,,,,113,26,Male,2022-05-04_12h21.26.385,Boat,2022.1.1,59.892720155064744,
negative,neutral,1,j,l,,,,,,,,,1,8,26,3,,,,,,,,,,,,,,,,,,,,,,,,main,2,2,1,neutral,negative,l,l,1,0.945539899985306,223.83699250000063,224.86060519999592,224.81712409999454,None,223.83699250000063,None,223.83699250000063,None,223.83699250000063,None,225.77017202000425,None,225.77017202000425,None,225.77017202000425,None,,,,,,,,,,,113,26,Male,2022-05-04_12h21.26.385,Boat,2022.1.1,59.892720155064744,
neutral,positive,1,k,k,,,,,,,,,1,9,27,4,,,,,,,,,,,,,,,,,,,,,,,,main,2,2,1,positive,neutral,k,k,1,0.8786517000116874,225.7875280000153,226.8104064000072,226.767222399998,None,225.7875280000153,None,225.7875280000153,None,225.7875280000153,None,227.65179282001046,None,227.65179282001046,None,227.65179282001046,None,,,,,,,,,,,113,26,Male,2022-05-04_12h21.26.385,Boat,2022.1.1,59.892720155064744,
neutral,neutral,1,k,k,,,,,,,,,1,10,28,1,,,,,,,,,,,,,,,,,,,,,,,,main,1,1,1,neutral,neutral,k,k,1,0.6030558999918867,227.66826440001023,228.66722140001366,228.6506936000078,None,227.66826440001023,None,227.66826440001023,None,227.66826440001023,None,229.25478331999912,None,229.25478331999912,None,229.25478331999912,None,,,,,,,,,,,113,26,Male,2022-05-04_12h21.26.385,Boat,2022.1.1,59.892720155064744,
negative,positive,1,j,l,,,,,,,,,1,11,29,6,,,,,,,,,,,,,,,,,,,,,,,,main,1,1,1,positive,negative,l,,0,1.0644049000111409,229.27470820001327,230.28380890001426,230.25076100000297,None,229.27470820001327,None,229.27470820001327,None,229.27470820001327,None,231.3304633999942,None,231.3304633999942,None,231.3304633999942,None,,,,,,,,,,,113,26,Male,2022-05-04_12h21.26.385,Boat,2022.1.1,59.892720155064744,
neutral,neutral,2,k,k,,,,,,,,,1,12,30,10,,,,,,,,,,,,,,,,,,,,,,,,main,2,2,2,neutral,neutral,k,k,1,0.8103718999773264,232.3525595999963,233.36736880001263,233.3326459999953,None,232.3525595999963,None,232.3525595999963,None,232.3525595999963,None,234.15020682001196,None,234.15020682001196,None,234.15020682001196,None,,,,,,,,,,,113,26,Male,2022-05-04_12h21.26.385,Boat,2022.1.1,59.892720155064744,
negative,negative,1,j,l,,,,,,,,,1,13,31,0,,,,,,,,,,,,,,,,,,,,,,,,main,1,1,1,negative,negative,l,l,1,0.9276368000137154,234.16727450001054,235.16747539999778,235.15059559998917,None,234.16727450001054,None,234.16727450001054,None,234.16727450001054,None,236.08076801999997,None,236.08076801999997,None,236.08076801999997,None,,,,,,,,,,,113,26,Male,2022-05-04_12h21.26.385,Boat,2022.1.1,59.892720155064744,
neutral,positive,2,k,k,,,,,,,,,1,14,32,13,,,,,,,,,,,,,,,,,,,,,,,,main,1,1,2,positive,neutral,k,k,1,0.7219563999969978,236.10167589999037,237.11632430000464,237.08044260001043,None,236.10167589999037,None,236.10167589999037,None,236.10167589999037,None,237.80591252000013,None,237.80591252000013,None,237.80591252000013,None,,,,,,,,,,,113,26,Male,2022-05-04_12h21.26.385,Boat,2022.1.1,59.892720155064744,
negative,neutral,2,j,l,,,,,,,,,1,15,33,12,,,,,,,,,,,,,,,,,,,,,,,,main,1,1,2,neutral,negative,l,l,1,0.9640737999870908,237.82218730001478,238.84565949998796,238.8007682999887,None,237.82218730001478,None,237.82218730001478,None,237.82218730001478,None,239.772513919996,None,239.772513919996,None,239.772513919996,None,,,,,,,,,,,113,26,Male,2022-05-04_12h21.26.385,Boat,2022.1.1,59.892720155064744,
positive,negative,2,l,j,,,,,,,,,1,16,34,14,,,,,,,,,,,,,,,,,,,,,,,,main,2,2,2,negative,positive,j,j,1,0.7908526000101119,239.78887849999592,240.80115630000364,240.76738110001315,None,239.78887849999592,None,239.78887849999592,None,239.78887849999592,None,241.5672901199927,None,241.5672901199927,None,241.5672901199927,None,,,,,,,,,,,113,26,Male,2022-05-04_12h21.26.385,Boat,2022.1.1,59.892720155064744,
neutral,negative,2,k,k,,,,,,,,,1,17,35,16,,,,,,,,,,,,,,,,,,,,,,,,main,2,2,2,negative,neutral,k,k,1,0.7708086999773514,241.5843487000093,242.60078300000168,242.56667649999144,None,241.5843487000093,None,241.5843487000093,None,241.5843487000093,None,243.33949512000837,None,243.33949512000837,None,243.33949512000837,None,,,,,,,,,,,113,26,Male,2022-05-04_12h21.26.385,Boat,2022.1.1,59.892720155064744,
neutral,neutral,1,k,k,,,,,,,,,2,0,36,1,,,,,,,,,,,,,,,,,,,,,,,,main,2,2,1,neutral,neutral,k,k,1,0.7402800999989267,243.35656919999747,244.37765509999008,244.33452750000288,None,243.35656919999747,None,243.35656919999747,None,243.35656919999747,None,245.0839911200077,None,245.0839911200077,None,245.0839911200077,None,,,,,,,,,,,113,26,Male,2022-05-04_12h21.26.385,Boat,2022.1.1,59.892720155064744,
neutral,positive,1,k,k,,,,,,,,,2,1,37,4,,,,,,,,,,,,,,,,,,,,,,,,main,1,1,1,positive,neutral,k,k,1,0.7201786999939941,245.09972080000443,246.10117119998904,246.08426850000978,None,245.09972080000443,None,245.09972080000443,None,245.09972080000443,None,246.80612272,None,246.80612272,None,246.80612272,None,,,,,,,,,,,113,26,Male,2022-05-04_12h21.26.385,Boat,2022.1.1,59.892720155064744,
positive,neutral,1,l,j,,,,,,,,,2,2,38,8,,,,,,,,,,,,,,,,,,,,,,,,main,2,2,1,neutral,positive,j,j,1,1.0242667999991681,246.82174829998985,247.83476679999148,247.79855269999825,None,246.82174829998985,None,246.82174829998985,None,246.82174829998985,None,248.83409311999858,None,248.83409311999858,None,248.83409311999858,None,,,,,,,,,,,113,26,Male,2022-05-04_12h21.26.385,Boat,2022.1.1,59.892720155064744,
negative,neutral,2,j,l,,,,,,,,,2,3,39,12,,,,,,,,,,,,,,,,,,,,,,,,main,2,2,2,neutral,negative,l,l,1,0.7705817999958526,248.85167880001245,249.85331299999962,249.83573270001216,None,248.85167880001245,None,248.85167880001245,None,248.85167880001245,None,250.60635742000014,None,250.60635742000014,None,250.60635742000014,None,,,,,,,,,,,113,26,Male,2022-05-04_12h21.26.385,Boat,2022.1.1,59.892720155064744,
neutral,positive,2,k,k,,,,,,,,,2,4,40,13,,,,,,,,,,,,,,,,,,,,,,,,main,1,1,2,positive,neutral,k,k,1,0.7127266000024974,250.62262430001283,251.63254700001562,251.59669390000636,None,250.62262430001283,None,250.62262430001283,None,250.62262430001283,None,252.3220116200013,None,252.3220116200013,None,252.3220116200013,None,,,,,,,,,,,113,26,Male,2022-05-04_12h21.26.385,Boat,2022.1.1,59.892720155064744,
positive,positive,2,l,j,,,,,,,,,2,5,41,11,,,,,,,,,,,,,,,,,,,,,,,,main,2,2,2,positive,positive,j,j,1,0.7201070000010077,252.33831680001458,253.34723000001395,253.3291964000091,None,252.33831680001458,None,252.33831680001458,None,252.33831680001458,None,254.04539452000463,None,254.04539452000463,None,254.04539452000463,None,,,,,,,,,,,113,26,Male,2022-05-04_12h21.26.385,Boat,2022.1.1,59.892720155064744,
neutral,negative,2,k,k,,,,,,,,,2,6,42,16,,,,,,,,,,,,,,,,,,,,,,,,main,2,2,2,negative,neutral,k,k,1,0.7735729000123683,254.0624485000153,255.0778838999977,255.0345224000048,None,254.0624485000153,None,254.0624485000153,None,254.0624485000153,None,255.81939931998787,None,255.81939931998787,None,255.81939931998787,None,,,,,,,,,,,113,26,Male,2022-05-04_12h21.26.385,Boat,2022.1.1,59.892720155064744,
negative,positive,1,j,l,,,,,,,,,2,7,43,6,,,,,,,,,,,,,,,,,,,,,,,,main,2,2,1,positive,negative,l,l,1,1.0160336999979336,255.83885860000737,256.84794510001666,256.8124109999917,None,255.83885860000737,None,255.83885860000737,None,255.83885860000737,None,257.83985032000635,None,257.83985032000635,None,257.83985032000635,None,,,,,,,,,,,113,26,Male,2022-05-04_12h21.26.385,Boat,2022.1.1,59.892720155064744,
positive,negative,1,l,j,,,,,,,,,2,8,44,5,,,,,,,,,,,,,,,,,,,,,,,,main,1,1,1,negative,positive,j,j,1,0.9871996000001673,257.8557781999989,258.8777810999891,258.83461419999367,None,257.8557781999989,None,257.8557781999989,None,257.8557781999989,None,259.83026731999996,None,259.83026731999996,None,259.83026731999996,None,,,,,,,,,,,113,26,Male,2022-05-04_12h21.26.385,Boat,2022.1.1,59.892720155064744,
positive,neutral,2,l,j,,,,,,,,,2,9,45,17,,,,,,,,,,,,,,,,,,,,,,,,main,2,2,2,neutral,positive,j,j,1,0.675214099988807,259.8473412000167,260.8514572000131,260.8179821000085,None,259.8473412000167,None,259.8473412000167,None,259.8473412000167,None,261.5068231199897,None,261.5068231199897,None,261.5068231199897,None,,,,,,,,,,,113,26,Male,2022-05-04_12h21.26.385,Boat,2022.1.1,59.892720155064744,
neutral,neutral,2,k,k,,,,,,,,,2,10,46,10,,,,,,,,,,,,,,,,,,,,,,,,main,2,2,2,neutral,neutral,k,k,1,0.7853857000009157,261.5234191000054,262.5294426000037,262.5112087999878,None,261.5234191000054,None,261.5234191000054,None,261.5234191000054,None,263.296114320014,None,263.296114320014,None,263.296114320014,None,,,,,,,,,,,113,26,Male,2022-05-04_12h21.26.385,Boat,2022.1.1,59.892720155064744,
positive,positive,1,l,j,,,,,,,,,2,11,47,2,,,,,,,,,,,,,,,,,,,,,,,,main,2,2,1,positive,positive,j,j,1,0.7652846999990288,263.31606620000093,264.32773190000444,264.28443120000884,None,263.31606620000093,None,263.31606620000093,None,263.31606620000093,None,265.0639340199908,None,265.0639340199908,None,265.0639340199908,None,,,,,,,,,,,113,26,Male,2022-05-04_12h21.26.385,Boat,2022.1.1,59.892720155064744,
positive,negative,2,l,j,,,,,,,,,2,12,48,14,,,,,,,,,,,,,,,,,,,,,,,,main,2,2,2,negative,positive,j,j,1,0.6871698999893852,265.08301609999035,266.1014656999905,266.06409100000747,None,265.08301609999035,None,265.08301609999035,None,265.08301609999035,None,266.7530275199882,None,266.7530275199882,None,266.7530275199882,None,,,,,,,,,,,113,26,Male,2022-05-04_12h21.26.385,Boat,2022.1.1,59.892720155064744,
neutral,negative,1,k,k,,,,,,,,,2,13,49,7,,,,,,,,,,,,,,,,,,,,,,,,main,1,1,1,negative,neutral,k,k,1,0.7337273999874014,266.7702530999959,267.7803656999895,267.7628251000133,None,266.7702530999959,None,266.7702530999959,None,266.7702530999959,None,268.4888302200037,None,268.4888302200037,None,268.4888302200037,None,,,,,,,,,,,113,26,Male,2022-05-04_12h21.26.385,Boat,2022.1.1,59.892720155064744,
negative,neutral,1,j,l,,,,,,,,,2,14,50,3,,,,,,,,,,,,,,,,,,,,,,,,main,1,1,1,neutral,negative,l,l,1,1.0919297999935225,268.50659659999656,269.51858470001025,269.484973499988,None,268.50659659999656,None,268.50659659999656,None,268.50659659999656,None,270.58491252000965,None,270.58491252000965,None,270.58491252000965,None,,,,,,,,,,,113,26,Male,2022-05-04_12h21.26.385,Boat,2022.1.1,59.892720155064744,
negative,positive,2,j,l,,,,,,,,,2,15,51,15,,,,,,,,,,,,,,,,,,,,,,,,main,2,2,2,positive,negative,l,l,1,0.9180071999726351,270.60171859999537,271.60144080000464,271.58486860000994,None,270.60171859999537,None,270.60171859999537,None,270.60171859999537,None,272.50394101998825,None,272.50394101998825,None,272.50394101998825,None,,,,,,,,,,,113,26,Male,2022-05-04_12h21.26.385,Boat,2022.1.1,59.892720155064744,
negative,negative,1,j,l,,,,,,,,,2,16,52,0,,,,,,,,,,,,,,,,,,,,,,,,main,2,2,1,negative,negative,l,l,1,0.754035300022224,272.52255900000455,273.544601600006,273.5016229999892,None,272.52255900000455,None,272.52255900000455,None,272.52255900000455,None,274.2626361200149,None,274.2626361200149,None,274.2626361200149,None,,,,,,,,,,,113,26,Male,2022-05-04_12h21.26.385,Boat,2022.1.1,59.892720155064744,
negative,negative,2,j,l,,,,,,,,,2,17,53,9,,,,,,,,,,,,,,,,,,,,,,,,main,2,2,2,negative,negative,l,l,1,0.7074876000115182,274.2820608000038,275.29662340000505,275.2525145999971,None,274.2820608000038,None,274.2820608000038,None,274.2820608000038,None,275.97160072000986,None,275.97160072000986,None,275.97160072000986,None,,,,,,,,,,,113,26,Male,2022-05-04_12h21.26.385,Boat,2022.1.1,59.892720155064744,
negative,positive,1,j,l,,,,,,,,,3,0,54,6,,,,,,,,,,,,,,,,,,,,,,,,main,1,1,1,positive,negative,l,l,1,0.6623989999934565,275.9877065999899,277.0114456000156,276.9684400999977,None,275.9877065999899,None,275.9877065999899,None,275.9877065999899,None,277.6368840199924,None,277.6368840199924,None,277.6368840199924,None,,,,,,,,,,,113,26,Male,2022-05-04_12h21.26.385,Boat,2022.1.1,59.892720155064744,
neutral,positive,1,k,k,,,,,,,,,3,1,55,4,,,,,,,,,,,,,,,,,,,,,,,,main,1,1,1,positive,neutral,k,k,1,0.7606738999893423,277.6529850999941,278.67768719999003,278.635100399988,None,277.6529850999941,None,277.6529850999941,None,277.6529850999941,None,279.4015673200105,None,279.4015673200105,None,279.4015673200105,None,,,,,,,,,,,113,26,Male,2022-05-04_12h21.26.385,Boat,2022.1.1,59.892720155064744,
negative,neutral,2,j,l,,,,,,,,,3,2,56,12,,,,,,,,,,,,,,,,,,,,,,,,main,1,1,2,neutral,negative,l,l,1,0.8203910000156611,279.4186483999947,280.4182257000066,280.4019460999989,None,279.4186483999947,None,279.4186483999947,None,279.4186483999947,None,281.22354122000104,None,281.22354122000104,None,281.22354122000104,None,,,,,,,,,,,113,26,Male,2022-05-04_12h21.26.385,Boat,2022.1.1,59.892720155064744,
positive,positive,1,l,j,,,,,,,,,3,3,57,2,,,,,,,,,,,,,,,,,,,,,,,,main,2,2,1,positive,positive,j,j,1,0.6972293999860995,281.24090870001237,282.26176520000445,282.2184319999942,None,281.24090870001237,None,281.24090870001237,None,281.24090870001237,None,282.9236664200056,None,282.9236664200056,None,282.9236664200056,None,,,,,,,,,,,113,26,Male,2022-05-04_12h21.26.385,Boat,2022.1.1,59.892720155064744,
neutral,positive,2,k,k,,,,,,,,,3,4,58,13,,,,,,,,,,,,,,,,,,,,,,,,main,2,2,2,positive,neutral,k,k,1,0.7801681999990251,282.93963330000406,283.95360690000234,283.9184319000051,None,282.93963330000406,None,282.93963330000406,None,282.93963330000406,None,284.70604661999675,None,284.70604661999675,None,284.70604661999675,None,,,,,,,,,,,113,26,Male,2022-05-04_12h21.26.385,Boat,2022.1.1,59.892720155064744,
negative,neutral,1,j,l,,,,,,,,,3,5,59,3,,,,,,,,,,,,,,,,,,,,,,,,main,1,1,1,neutral,negative,l,l,1,0.9804867999919225,284.72208899998805,285.7323747999908,285.6967194000026,None,284.72208899998805,None,284.72208899998805,None,284.72208899998805,None,286.6887581199902,None,286.6887581199902,None,286.6887581199902,None,,,,,,,,,,,113,26,Male,2022-05-04_12h21.26.385,Boat,2022.1.1,59.892720155064744,
positive,negative,1,l,j,,,,,,,,,3,6,60,5,,,,,,,,,,,,,,,,,,,,,,,,main,2,2,1,negative,positive,j,j,1,1.1084682999935467,286.70621100001154,287.716723599995,287.680033200013,None,286.70621100001154,None,286.70621100001154,None,286.70621100001154,None,288.8017044200009,None,288.8017044200009,None,288.8017044200009,None,,,,,,,,,,,113,26,Male,2022-05-04_12h21.26.385,Boat,2022.1.1,59.892720155064744,
positive,neutral,1,l,j,,,,,,,,,3,7,61,8,,,,,,,,,,,,,,,,,,,,,,,,main,2,2,1,neutral,positive,j,j,1,0.8013350999972317,288.81755020000855,289.818831600016,289.8021848000062,None,288.81755020000855,None,288.81755020000855,None,288.81755020000855,None,290.60513532000766,None,290.60513532000766,None,290.60513532000766,None,,,,,,,,,,,113,26,Male,2022-05-04_12h21.26.385,Boat,2022.1.1,59.892720155064744,
neutral,negative,2,k,k,,,,,,,,,3,8,62,16,,,,,,,,,,,,,,,,,,,,,,,,main,1,1,2,negative,neutral,k,k,1,0.7900822999945376,290.62264600000344,291.64683400001377,291.6018422000052,None,290.62264600000344,None,290.62264600000344,None,290.62264600000344,None,292.39861582000447,None,292.39861582000447,None,292.39861582000447,None,,,,,,,,,,,113,26,Male,2022-05-04_12h21.26.385,Boat,2022.1.1,59.892720155064744,
positive,negative,2,l,j,,,,,,,,,3,9,63,14,,,,,,,,,,,,,,,,,,,,,,,,main,1,1,2,negative,positive,j,j,1,0.7891993999946862,292.4180105999985,293.4187101999996,293.4010714000033,None,292.4180105999985,None,292.4180105999985,None,292.4180105999985,None,294.1885693200078,None,294.1885693200078,None,294.1885693200078,None,,,,,,,,,,,113,26,Male,2022-05-04_12h21.26.385,Boat,2022.1.1,59.892720155064744,
negative,positive,2,j,l,,,,,,,,,3,10,64,15,,,,,,,,,,,,,,,,,,,,,,,,main,2,2,2,positive,negative,l,l,1,0.8539559000055306,294.2055662999919,295.21320150000975,295.1952283999999,None,294.2055662999919,None,294.2055662999919,None,294.2055662999919,None,296.0466468199942,None,296.0466468199942,None,296.0466468199942,None,,,,,,,,,,,113,26,Male,2022-05-04_12h21.26.385,Boat,2022.1.1,59.892720155064744,
neutral,negative,1,k,k,,,,,,,,,3,11,65,7,,,,,,,,,,,,,,,,,,,,,,,,main,1,1,1,negative,neutral,k,k,1,0.827651200001128,296.0663588999887,297.078474000009,297.03548700001556,None,296.0663588999887,None,296.0663588999887,None,296.0663588999887,None,297.8756618199899,None,297.8756618199899,None,297.8756618199899,None,,,,,,,,,,,113,26,Male,2022-05-04_12h21.26.385,Boat,2022.1.1,59.892720155064744,
neutral,neutral,1,k,k,,,,,,,,,3,12,66,1,,,,,,,,,,,,,,,,,,,,,,,,main,1,1,1,neutral,neutral,k,k,1,0.7387718000099994,297.89197570001124,298.90157129999716,298.86510799999814,None,297.89197570001124,None,297.89197570001124,None,297.89197570001124,None,299.61878112001284,None,299.61878112001284,None,299.61878112001284,None,,,,,,,,,,,113,26,Male,2022-05-04_12h21.26.385,Boat,2022.1.1,59.892720155064744,
positive,neutral,2,l,j,,,,,,,,,3,13,67,17,,,,,,,,,,,,,,,,,,,,,,,,main,2,2,2,neutral,positive,j,j,1,0.7524803999986034,299.63596809998853,300.65159069999936,300.61484620001283,None,299.63596809998853,None,299.63596809998853,None,299.63596809998853,None,301.37309592000963,None,301.37309592000963,None,301.37309592000963,None,,,,,,,,,,,113,26,Male,2022-05-04_12h21.26.385,Boat,2022.1.1,59.892720155064744,
positive,positive,2,l,j,,,,,,,,,3,14,68,11,,,,,,,,,,,,,,,,,,,,,,,,main,2,2,2,positive,positive,j,j,1,0.7643102000001818,301.38966089999303,302.4023176000046,302.3647648000042,None,301.38966089999303,None,301.38966089999303,None,301.38966089999303,None,303.14049551998903,None,303.14049551998903,None,303.14049551998903,None,,,,,,,,,,,113,26,Male,2022-05-04_12h21.26.385,Boat,2022.1.1,59.892720155064744,
negative,negative,2,j,l,,,,,,,,,3,15,69,9,,,,,,,,,,,,,,,,,,,,,,,,main,2,2,2,negative,negative,l,l,1,0.9789850999950431,303.15593010000885,304.16502839999157,304.14695280001615,None,303.15593010000885,None,303.15593010000885,None,303.15593010000885,None,305.12156521999566,None,305.12156521999566,None,305.12156521999566,None,,,,,,,,,,,113,26,Male,2022-05-04_12h21.26.385,Boat,2022.1.1,59.892720155064744,
neutral,neutral,2,k,k,,,,,,,,,3,16,70,10,,,,,,,,,,,,,,,,,,,,,,,,main,2,2,2,neutral,neutral,k,k,1,0.6496869999973569,305.1386465000105,306.1524781000044,306.1188405000139,None,305.1386465000105,None,305.1386465000105,None,305.1386465000105,None,306.77369942000075,None,306.77369942000075,None,306.77369942000075,None,,,,,,,,,,,113,26,Male,2022-05-04_12h21.26.385,Boat,2022.1.1,59.892720155064744,
negative,negative,1,j,l,,,,,,,,,3,17,71,0,,,,,,,,,,,,,,,,,,,,,,,,main,2,2,1,negative,negative,l,l,1,0.6795453999948222,306.7904262999946,307.80250710001565,307.7688813999994,None,306.7904262999946,None,306.7904262999946,None,306.7904262999946,None,308.45596561999116,None,308.45596561999116,None,308.45596561999116,None,,,,,,,,,,,113,26,Male,2022-05-04_12h21.26.385,Boat,2022.1.1,59.892720155064744,
neutral,negative,1,k,k,,,,,,,,,4,0,72,7,,,,,,,,,,,,,,,,,,,,,,,,main,2,2,1,negative,neutral,k,k,1,0.6258824999968056,308.4731132000161,309.497007900005,309.45245189999696,None,308.4731132000161,None,308.4731132000161,None,308.4731132000161,None,310.08607732000235,None,310.08607732000235,None,310.08607732000235,None,,,,,,,,,,,113,26,Male,2022-05-04_12h21.26.385,Boat,2022.1.1,59.892720155064744,
positive,neutral,2,l,j,,,,,,,,,4,1,73,17,,,,,,,,,,,,,,,,,,,,,,,,main,1,1,2,neutral,positive,j,j,1,0.8012740999984089,310.1011220999935,311.11353729999973,311.0953138000041,None,310.1011220999935,None,310.1011220999935,None,310.1011220999935,None,311.8891059200017,None,311.8891059200017,None,311.8891059200017,None,,,,,,,,,,,113,26,Male,2022-05-04_12h21.26.385,Boat,2022.1.1,59.892720155064744,
negative,neutral,2,j,l,,,,,,,,,4,2,74,12,,,,,,,,,,,,,,,,,,,,,,,,main,2,2,2,neutral,negative,l,l,1,0.9627386000065599,311.9062922000012,312.91768509999383,312.8817372999911,None,311.9062922000012,None,311.9062922000012,None,311.9062922000012,None,313.8545199200074,None,313.8545199200074,None,313.8545199200074,None,,,,,,,,,,,113,26,Male,2022-05-04_12h21.26.385,Boat,2022.1.1,59.892720155064744,
neutral,neutral,1,k,k,,,,,,,,,4,3,75,1,,,,,,,,,,,,,,,,,,,,,,,,main,2,2,1,neutral,neutral,k,k,1,0.6944581000134349,313.8708870999981,314.89545630000066,314.852309400012,None,313.8708870999981,None,313.8708870999981,None,313.8708870999981,None,315.5524865199899,None,315.5524865199899,None,315.5524865199899,None,,,,,,,,,,,113,26,Male,2022-05-04_12h21.26.385,Boat,2022.1.1,59.892720155064744,
neutral,positive,2,k,k,,,,,,,,,4,4,76,13,,,,,,,,,,,,,,,,,,,,,,,,main,2,2,2,positive,neutral,k,k,1,0.8853380999935325,315.56937240000116,316.5955466000014,316.5504348000104,None,315.56937240000116,None,315.56937240000116,None,315.56937240000116,None,317.4402761199948,None,317.4402761199948,None,317.4402761199948,None,,,,,,,,,,,113,26,Male,2022-05-04_12h21.26.385,Boat,2022.1.1,59.892720155064744,
positive,neutral,1,l,j,,,,,,,,,4,5,77,8,,,,,,,,,,,,,,,,,,,,,,,,main,1,1,1,neutral,positive,j,j,1,1.1290351999923587,317.4564421999967,318.48088360001566,318.43555550000747,None,317.4564421999967,None,317.4564421999967,None,317.4564421999967,None,319.57215782000856,None,319.57215782000856,None,319.57215782000856,None,,,,,,,,,,,113,26,Male,2022-05-04_12h21.26.385,Boat,2022.1.1,59.892720155064744,
positive,positive,2,l,j,,,,,,,,,4,6,78,11,,,,,,,,,,,,,,,,,,,,,,,,main,2,2,2,positive,positive,j,j,1,0.7661512999911793,319.5881146999891,320.6121487999917,320.5696117999905,None,319.5881146999891,None,319.5881146999891,None,319.5881146999891,None,321.3405265200039,None,321.3405265200039,None,321.3405265200039,None,,,,,,,,,,,113,26,Male,2022-05-04_12h21.26.385,Boat,2022.1.1,59.892720155064744,
neutral,neutral,2,k,k,,,,,,,,,4,7,79,10,,,,,,,,,,,,,,,,,,,,,,,,main,2,2,2,neutral,neutral,k,k,1,0.7653601999918465,321.35661300001084,322.3792119999998,322.33616090001306,None,321.35661300001084,None,321.35661300001084,None,321.35661300001084,None,323.1082547200116,None,323.1082547200116,None,323.1082547200116,None,,,,,,,,,,,113,26,Male,2022-05-04_12h21.26.385,Boat,2022.1.1,59.892720155064744,
negative,negative,2,j,l,,,,,,,,,4,8,80,9,,,,,,,,,,,,,,,,,,,,,,,,main,2,2,2,negative,negative,l,l,1,0.8110254000057466,323.12471319999895,324.1361314000096,324.10105990001466,None,323.12471319999895,None,323.12471319999895,None,323.12471319999895,None,324.9226832199987,None,324.9226832199987,None,324.9226832199987,None,,,,,,,,,,,113,26,Male,2022-05-04_12h21.26.385,Boat,2022.1.1,59.892720155064744,
negative,positive,1,j,l,,,,,,,,,4,9,81,6,,,,,,,,,,,,,,,,,,,,,,,,main,2,2,1,positive,negative,l,l,1,1.0497550000145566,324.93965640000533,325.96234590001404,325.9192519999924,None,324.93965640000533,None,324.93965640000533,None,324.93965640000533,None,326.97438362001265,None,326.97438362001265,None,326.97438362001265,None,,,,,,,,,,,113,26,Male,2022-05-04_12h21.26.385,Boat,2022.1.1,59.892720155064744,
positive,negative,1,l,j,,,,,,,,,4,10,82,5,,,,,,,,,,,,,,,,,,,,,,,,main,1,1,1,negative,positive,j,j,1,0.727517599996645,326.9900481000077,327.9973966999969,327.97899619999225,None,326.9900481000077,None,326.9900481000077,None,326.9900481000077,None,328.7039237200137,None,328.7039237200137,None,328.7039237200137,None,,,,,,,,,,,113,26,Male,2022-05-04_12h21.26.385,Boat,2022.1.1,59.892720155064744,
negative,neutral,1,j,l,,,,,,,,,4,11,83,3,,,,,,,,,,,,,,,,,,,,,,,,main,2,2,1,neutral,negative,l,l,1,0.8852542999957222,328.72114830001374,329.73610270000063,329.70256420000806,None,328.72114830001374,None,328.72114830001374,None,328.72114830001374,None,330.5921221199882,None,330.5921221199882,None,330.5921221199882,None,,,,,,,,,,,113,26,Male,2022-05-04_12h21.26.385,Boat,2022.1.1,59.892720155064744,
neutral,negative,2,k,k,,,,,,,,,4,12,84,16,,,,,,,,,,,,,,,,,,,,,,,,main,2,2,2,negative,neutral,k,k,1,0.7827570999797899,330.6075540999882,331.6292584000039,331.5862826000084,None,330.6075540999882,None,330.6075540999882,None,330.6075540999882,None,332.3780570200091,None,332.3780570200091,None,332.3780570200091,None,,,,,,,,,,,113,26,Male,2022-05-04_12h21.26.385,Boat,2022.1.1,59.892720155064744,
neutral,positive,1,k,k,,,,,,,,,4,13,85,4,,,,,,,,,,,,,,,,,,,,,,,,main,1,1,1,positive,neutral,k,k,1,0.7964922999963164,332.3976473000075,333.4127512999985,333.36965219999547,None,332.3976473000075,None,332.3976473000075,None,332.3976473000075,None,334.17760511999074,None,334.17760511999074,None,334.17760511999074,None,,,,,,,,,,,113,26,Male,2022-05-04_12h21.26.385,Boat,2022.1.1,59.892720155064744,
negative,negative,1,j,l,,,,,,,,,4,14,86,0,,,,,,,,,,,,,,,,,,,,,,,,main,1,1,1,negative,negative,l,l,1,1.2465224000043236,334.1932836000051,335.2001364000025,335.18218380000326,None,334.1932836000051,None,334.1932836000051,None,334.1932836000051,None,336.42565432000845,None,336.42565432000845,None,336.42565432000845,None,,,,,,,,,,,113,26,Male,2022-05-04_12h21.26.385,Boat,2022.1.1,59.892720155064744,
negative,positive,2,j,l,,,,,,,,,4,15,87,15,,,,,,,,,,,,,,,,,,,,,,,,main,2,2,2,positive,negative,l,l,1,0.9923006999888457,336.4431878000032,337.4482061000017,337.4310846000153,None,336.4431878000032,None,336.4431878000032,None,336.4431878000032,None,338.42111181999496,None,338.42111181999496,None,338.42111181999496,None,,,,,,,,,,,113,26,Male,2022-05-04_12h21.26.385,Boat,2022.1.1,59.892720155064744,
positive,positive,1,l,j,,,,,,,,,4,16,88,2,,,,,,,,,,,,,,,,,,,,,,,,main,1,1,1,positive,positive,j,j,1,0.7987919999868609,338.4381623000081,339.4532795000123,339.4187353999878,None,338.4381623000081,None,338.4381623000081,None,338.4381623000081,None,340.22316211999566,None,340.22316211999566,None,340.22316211999566,None,,,,,,,,,,,113,26,Male,2022-05-04_12h21.26.385,Boat,2022.1.1,59.892720155064744,
positive,negative,2,l,j,,,,,,,,,4,17,89,14,,,,,,,,,,,,,,,,,,,,,,,,main,2,2,2,negative,positive,j,j,1,0.8930320000217762,340.2396108999965,341.2490744999959,341.2314996999921,None,340.2396108999965,None,340.2396108999965,None,340.2396108999965,None,342.11998422000613,None,342.11998422000613,None,342.11998422000613,None,,,,,,,,,,,113,26,Male,2022-05-04_12h21.26.385,Boat,2022.1.1,59.892720155064744,
negative,negative,1,j,l,,,,,,,,,5,0,90,0,,,,,,,,,,,,,,,,,,,,,,,,main,1,1,1,negative,negative,l,l,1,0.9044599999906495,342.13676160000614,343.14586379998946,343.1031662999885,None,342.13676160000614,None,342.13676160000614,None,342.13676160000614,None,344.02767112000436,None,344.02767112000436,None,344.02767112000436,None,,,,,,,,,,,113,26,Male,2022-05-04_12h21.26.385,Boat,2022.1.1,59.892720155064744,
negative,positive,2,j,l,,,,,,,,,5,1,91,15,,,,,,,,,,,,,,,,,,,,,,,,main,2,2,2,positive,negative,l,l,1,0.9975765000272077,344.0472589000128,345.0533982999914,345.03542550001293,None,344.0472589000128,None,344.0472589000128,None,344.0472589000128,None,346.0278032199916,None,346.0278032199916,None,346.0278032199916,None,,,,,,,,,,,113,26,Male,2022-05-04_12h21.26.385,Boat,2022.1.1,59.892720155064744,
negative,neutral,2,j,l,,,,,,,,,5,2,92,12,,,,,,,,,,,,,,,,,,,,,,,,main,2,2,2,neutral,negative,l,l,1,0.7457374000223354,346.04351330001373,347.0541486000002,347.0364147000073,None,346.04351330001373,None,346.04351330001373,None,346.04351330001373,None,347.77486572000487,None,347.77486572000487,None,347.77486572000487,None,,,,,,,,,,,113,26,Male,2022-05-04_12h21.26.385,Boat,2022.1.1,59.892720155064744,
neutral,negative,1,k,k,,,,,,,,,5,3,93,7,,,,,,,,,,,,,,,,,,,,,,,,main,2,2,1,negative,neutral,k,k,1,1.0411388999782503,347.790788000013,348.8036443000019,348.7670333000133,None,347.790788000013,None,347.790788000013,None,347.790788000013,None,349.8195614199998,None,349.8195614199998,None,349.8195614199998,None,,,,,,,,,,,113,26,Male,2022-05-04_12h21.26.385,Boat,2022.1.1,59.892720155064744,
positive,positive,2,l,j,,,,,,,,,5,4,94,11,,,,,,,,,,,,,,,,,,,,,,,,main,2,2,2,positive,positive,j,j,1,0.5525788000086322,349.83535780000966,350.83747990001575,350.82002859999193,None,349.83535780000966,None,349.83535780000966,None,349.83535780000966,None,351.3741669200157,None,351.3741669200157,None,351.3741669200157,None,,,,,,,,,,,113,26,Male,2022-05-04_12h21.26.385,Boat,2022.1.1,59.892720155064744,
neutral,positive,2,k,k,,,,,,,,,5,5,95,13,,,,,,,,,,,,,,,,,,,,,,,,main,1,1,2,positive,neutral,k,k,1,0.7647899000148755,351.3908985000162,352.4131936999911,352.3699988000153,None,351.3908985000162,None,351.3908985000162,None,351.3908985000162,None,353.14158632000033,None,353.14158632000033,None,353.14158632000033,None,,,,,,,,,,,113,26,Male,2022-05-04_12h21.26.385,Boat,2022.1.1,59.892720155064744,
negative,negative,2,j,l,,,,,,,,,5,6,96,9,,,,,,,,,,,,,,,,,,,,,,,,main,2,2,2,negative,negative,l,l,1,0.9246702000091318,353.1579924999969,354.1700805000146,354.13402240001597,None,353.1579924999969,None,353.1579924999969,None,353.1579924999969,None,355.0698767200141,None,355.0698767200141,None,355.0698767200141,None,,,,,,,,,,,113,26,Male,2022-05-04_12h21.26.385,Boat,2022.1.1,59.892720155064744,
negative,positive,1,j,l,,,,,,,,,5,7,97,6,,,,,,,,,,,,,,,,,,,,,,,,main,1,1,1,positive,negative,l,l,1,0.9201132000016514,355.08568620000733,356.09655519999797,356.07123390000197,None,355.08568620000733,None,355.08568620000733,None,355.08568620000733,None,356.9920573200128,None,356.9920573200128,None,356.9920573200128,None,,,,,,,,,,,113,26,Male,2022-05-04_12h21.26.385,Boat,2022.1.1,59.892720155064744,
neutral,neutral,2,k,k,,,,,,,,,5,8,98,10,,,,,,,,,,,,,,,,,,,,,,,,main,2,2,2,neutral,neutral,k,k,1,0.7140864000248257,357.00858570000855,358.02070339999045,357.98685789998854,None,357.00858570000855,None,357.00858570000855,None,357.00858570000855,None,358.7086151199968,None,358.7086151199968,None,358.7086151199968,None,,,,,,,,,,,113,26,Male,2022-05-04_12h21.26.385,Boat,2022.1.1,59.892720155064744,
positive,neutral,1,l,j,,,,,,,,,5,9,99,8,,,,,,,,,,,,,,,,,,,,,,,,main,1,1,1,neutral,positive,j,j,1,0.9073985999857541,358.7253789000097,359.7369013999996,359.70081390000996,None,358.7253789000097,None,358.7253789000097,None,358.7253789000097,None,360.6199765200057,None,360.6199765200057,None,360.6199765200057,None,,,,,,,,,,,113,26,Male,2022-05-04_12h21.26.385,Boat,2022.1.1,59.892720155064744,
neutral,neutral,1,k,k,,,,,,,,,5,10,100,1,,,,,,,,,,,,,,,,,,,,,,,,main,1,1,1,neutral,neutral,k,k,1,0.7693180000060238,360.63570030001574,361.63679359998787,361.61827510001604,None,360.63570030001574,None,360.63570030001574,None,360.63570030001574,None,362.39068982001334,None,362.39068982001334,None,362.39068982001334,None,,,,,,,,,,,113,26,Male,2022-05-04_12h21.26.385,Boat,2022.1.1,59.892720155064744,
positive,neutral,2,l,j,,,,,,,,,5,11,101,17,,,,,,,,,,,,,,,,,,,,,,,,main,1,1,2,neutral,positive,j,j,1,0.5998476999811828,362.4076839000045,363.4198710999917,363.38176809999277,None,362.4076839000045,None,362.4076839000045,None,362.4076839000045,None,363.99265572,None,363.99265572,None,363.99265572,None,,,,,,,,,,,113,26,Male,2022-05-04_12h21.26.385,Boat,2022.1.1,59.892720155064744,
neutral,positive,1,k,k,,,,,,,,,5,12,102,4,,,,,,,,,,,,,,,,,,,,,,,,main,2,2,1,positive,neutral,k,k,1,2.040087500005029,364.00970260001486,365.0201348999981,364.98595800000476,None,364.00970260001486,None,364.00970260001486,None,364.00970260001486,None,367.04233789999853,None,367.04233789999853,None,367.04233789999853,None,,,,,,,,,,,113,26,Male,2022-05-04_12h21.26.385,Boat,2022.1.1,59.892720155064744,
positive,negative,2,l,j,,,,,,,,,5,13,103,14,,,,,,,,,,,,,,,,,,,,,,,,main,1,1,2,negative,positive,j,j,1,1.016531200002646,368.05540690000635,369.0720938000013,369.0371018000005,None,368.05540690000635,None,368.05540690000635,None,368.05540690000635,None,370.05888821998667,None,370.05888821998667,None,370.05888821998667,None,,,,,,,,,,,113,26,Male,2022-05-04_12h21.26.385,Boat,2022.1.1,59.892720155064744,
positive,negative,1,l,j,,,,,,,,,5,14,104,5,,,,,,,,,,,,,,,,,,,,,,,,main,2,2,1,negative,positive,j,j,1,0.9905266999849118,370.07484660000773,371.0878626999911,371.05120570000145,None,370.07484660000773,None,370.07484660000773,None,370.07484660000773,None,372.05349492001403,None,372.05349492001403,None,372.05349492001403,None,,,,,,,,,,,113,26,Male,2022-05-04_12h21.26.385,Boat,2022.1.1,59.892720155064744,
neutral,negative,2,k,k,,,,,,,,,5,15,105,16,,,,,,,,,,,,,,,,,,,,,,,,main,2,2,2,negative,neutral,k,k,1,0.7662218000041321,372.06882340001175,373.0706954000052,373.05376599999727,None,372.06882340001175,None,372.06882340001175,None,372.06882340001175,None,373.82177852000166,None,373.82177852000166,None,373.82177852000166,None,,,,,,,,,,,113,26,Male,2022-05-04_12h21.26.385,Boat,2022.1.1,59.892720155064744,
negative,neutral,1,j,l,,,,,,,,,5,16,106,3,,,,,,,,,,,,,,,,,,,,,,,,main,1,1,1,neutral,negative,l,l,1,0.9526193999918178,373.8381245000055,374.83708480000496,374.8204995999986,None,373.8381245000055,None,373.8381245000055,None,373.8381245000055,None,375.7765854200028,None,375.7765854200028,None,375.7765854200028,None,,,,,,,,,,,113,26,Male,2022-05-04_12h21.26.385,Boat,2022.1.1,59.892720155064744,
positive,positive,1,l,j,,,,,,,,,5,17,107,2,,,,,,,,,,,,,,,,,,,,,,,,main,1,1,1,positive,positive,j,j,1,0.8240150999918114,375.7935431000078,376.8037700999994,376.76669700001366,None,375.7935431000078,None,375.7935431000078,None,375.7935431000078,None,377.6042724200146,None,377.6042724200146,None,377.6042724200146,None,,,,,,,,,,,113,26,Male,2022-05-04_12h21.26.385,Boat,2022.1.1,59.892720155064744,
neutral,positive,1,k,k,,,,,,,,,6,0,108,4,,,,,,,,,,,,,,,,,,,,,,,,main,2,2,1,positive,neutral,k,k,1,0.7477952000044752,377.6206683999917,378.62072159998934,378.6044330000004,None,377.6206683999917,None,377.6206683999917,None,377.6206683999917,None,379.3545342199999,None,379.3545342199999,None,379.3545342199999,None,,,,,,,,,,,113,26,Male,2022-05-04_12h21.26.385,Boat,2022.1.1,59.892720155064744,
neutral,negative,1,k,k,,,,,,,,,6,1,109,7,,,,,,,,,,,,,,,,,,,,,,,,main,1,1,1,negative,neutral,k,k,1,0.7504963999963365,379.3729038000165,380.3873988999985,380.3503800999897,None,379.3729038000165,None,379.3729038000165,None,379.3729038000165,None,381.1080544199998,None,381.1080544199998,None,381.1080544199998,None,,,,,,,,,,,113,26,Male,2022-05-04_12h21.26.385,Boat,2022.1.1,59.892720155064744,
positive,neutral,1,l,j,,,,,,,,,6,2,110,8,,,,,,,,,,,,,,,,,,,,,,,,main,1,1,1,neutral,positive,j,j,1,0.9479335999931209,381.1234123999893,382.14707860001363,382.10390149999876,None,381.1234123999893,None,381.1234123999893,None,381.1234123999893,None,383.058290020001,None,383.058290020001,None,383.058290020001,None,,,,,,,,,,,113,26,Male,2022-05-04_12h21.26.385,Boat,2022.1.1,59.892720155064744,
negative,negative,1,j,l,,,,,,,,,6,3,111,0,,,,,,,,,,,,,,,,,,,,,,,,main,1,1,1,negative,negative,l,l,1,0.821750199975213,383.0744709999999,384.09905530000106,384.0539013000089,None,383.0744709999999,None,383.0744709999999,None,383.0744709999999,None,384.88349232001053,None,384.88349232001053,None,384.88349232001053,None,,,,,,,,,,,113,26,Male,2022-05-04_12h21.26.385,Boat,2022.1.1,59.892720155064744,
negative,positive,1,j,l,,,,,,,,,6,4,112,6,,,,,,,,,,,,,,,,,,,,,,,,main,1,1,1,positive,negative,l,l,1,0.6086013999884017,384.90307739999844,385.9045325999905,385.88710389999324,None,384.90307739999844,None,384.90307739999844,None,384.90307739999844,None,386.4935095200111,None,386.4935095200111,None,386.4935095200111,None,,,,,,,,,,,113,26,Male,2022-05-04_12h21.26.385,Boat,2022.1.1,59.892720155064744,
positive,neutral,2,l,j,,,,,,,,,6,5,113,17,,,,,,,,,,,,,,,,,,,,,,,,main,1,1,2,neutral,positive,j,j,1,0.7727632999885827,386.50967960001435,387.52076549999765,387.48396270000376,None,386.50967960001435,None,386.50967960001435,None,386.50967960001435,None,388.2706588200148,None,388.2706588200148,None,388.2706588200148,None,,,,,,,,,,,113,26,Male,2022-05-04_12h21.26.385,Boat,2022.1.1,59.892720155064744,
positive,negative,2,l,j,,,,,,,,,6,6,114,14,,,,,,,,,,,,,,,,,,,,,,,,main,1,1,2,negative,positive,j,j,1,0.8522118999972008,388.2856224999996,389.28778040001635,389.2712771999941,None,388.2856224999996,None,388.2856224999996,None,388.2856224999996,None,390.12477911999156,None,390.12477911999156,None,390.12477911999156,None,,,,,,,,,,,113,26,Male,2022-05-04_12h21.26.385,Boat,2022.1.1,59.892720155064744,
positive,positive,1,l,j,,,,,,,,,6,7,115,2,,,,,,,,,,,,,,,,,,,,,,,,main,2,2,1,positive,positive,j,j,1,0.9153732999984641,390.14080210000975,391.15397390001453,391.1208972999884,None,390.14080210000975,None,390.14080210000975,None,390.14080210000975,None,392.0425434200064,None,392.0425434200064,None,392.0425434200064,None,,,,,,,,,,,113,26,Male,2022-05-04_12h21.26.385,Boat,2022.1.1,59.892720155064744,
negative,negative,2,j,l,,,,,,,,,6,8,116,9,,,,,,,,,,,,,,,,,,,,,,,,main,2,2,2,negative,negative,l,l,1,0.6913341000035871,392.0585255000042,393.0820931000053,393.0375514999905,None,392.0585255000042,None,392.0585255000042,None,392.0585255000042,None,393.73746451999466,None,393.73746451999466,None,393.73746451999466,None,,,,,,,,,,,113,26,Male,2022-05-04_12h21.26.385,Boat,2022.1.1,59.892720155064744,
neutral,neutral,2,k,k,,,,,,,,,6,9,117,10,,,,,,,,,,,,,,,,,,,,,,,,main,1,1,2,neutral,neutral,k,k,1,0.5561918999883346,393.7542720999918,394.76163250001264,394.74374490001355,None,393.7542720999918,None,393.7542720999918,None,393.7542720999918,None,395.2978141200059,None,395.2978141200059,None,395.2978141200059,None,,,,,,,,,,,113,26,Male,2022-05-04_12h21.26.385,Boat,2022.1.1,59.892720155064744,
neutral,neutral,1,k,k,,,,,,,,,6,10,118,1,,,,,,,,,,,,,,,,,,,,,,,,main,2,2,1,neutral,neutral,k,k,1,0.7456895000068471,395.3175966000126,396.3210335999902,396.2878006999963,None,395.3175966000126,None,395.3175966000126,None,395.3175966000126,None,397.0463479199883,None,397.0463479199883,None,397.0463479199883,None,,,,,,,,,,,113,26,Male,2022-05-04_12h21.26.385,Boat,2022.1.1,59.892720155064744,
neutral,negative,2,k,k,,,,,,,,,6,11,119,16,,,,,,,,,,,,,,,,,,,,,,,,main,2,2,2,negative,neutral,k,k,1,0.6596007999905851,397.0651404999953,398.080552600004,398.03742700000294,None,397.0651404999953,None,397.0651404999953,None,397.0651404999953,None,398.7079272199975,None,398.7079272199975,None,398.7079272199975,None,,,,,,,,,,,113,26,Male,2022-05-04_12h21.26.385,Boat,2022.1.1,59.892720155064744,
positive,positive,2,l,j,,,,,,,,,6,12,120,11,,,,,,,,,,,,,,,,,,,,,,,,main,1,1,2,positive,positive,j,j,1,0.7659301000239793,398.7233961999882,399.73775999998907,399.7013750000042,None,398.7233961999882,None,398.7233961999882,None,398.7233961999882,None,400.4760838200076,None,400.4760838200076,None,400.4760838200076,None,,,,,,,,,,,113,26,Male,2022-05-04_12h21.26.385,Boat,2022.1.1,59.892720155064744,
neutral,positive,2,k,k,,,,,,,,,6,13,121,13,,,,,,,,,,,,,,,,,,,,,,,,main,1,1,2,positive,neutral,k,k,1,0.8323081000125967,400.4938286000106,401.5143771000148,401.4717234999989,None,400.4938286000106,None,400.4938286000106,None,400.4938286000106,None,402.31299791999334,None,402.31299791999334,None,402.31299791999334,None,,,,,,,,,,,113,26,Male,2022-05-04_12h21.26.385,Boat,2022.1.1,59.892720155064744,
negative,neutral,1,j,l,,,,,,,,,6,14,122,3,,,,,,,,,,,,,,,,,,,,,,,,main,1,1,1,neutral,negative,l,l,1,0.927499200013699,402.3286714999995,403.3379752000037,403.3217302999983,None,402.3286714999995,None,402.3286714999995,None,402.3286714999995,None,404.24174802001505,None,404.24174802001505,None,404.24174802001505,None,,,,,,,,,,,113,26,Male,2022-05-04_12h21.26.385,Boat,2022.1.1,59.892720155064744,
positive,negative,1,l,j,,,,,,,,,6,15,123,5,,,,,,,,,,,,,,,,,,,,,,,,main,2,2,1,negative,positive,j,j,1,0.8806454000005033,404.25959289999446,405.2715443999914,405.23808730000746,None,404.25959289999446,None,404.25959289999446,None,404.25959289999446,None,406.12449402000345,None,406.12449402000345,None,406.12449402000345,None,,,,,,,,,,,113,26,Male,2022-05-04_12h21.26.385,Boat,2022.1.1,59.892720155064744,
negative,neutral,2,j,l,,,,,,,,,6,16,124,12,,,,,,,,,,,,,,,,,,,,,,,,main,1,1,2,neutral,negative,l,l,1,0.9634256999997888,406.1414798999904,407.1546762000071,407.1178133999929,None,406.1414798999904,None,406.1414798999904,None,406.1414798999904,None,408.09085341999014,None,408.09085341999014,None,408.09085341999014,None,,,,,,,,,,,113,26,Male,2022-05-04_12h21.26.385,Boat,2022.1.1,59.892720155064744,
negative,positive,2,j,l,,,,,,,,,6,17,125,15,,,,,,,,,,,,,,,,,,,,,,,,main,1,1,2,positive,negative,l,l,1,1.0267692999914289,408.10695529999794,409.12146590001066,409.0879137000011,None,408.10695529999794,None,408.10695529999794,None,408.10695529999794,None,410.1211002200056,None,410.1211002200056,None,410.1211002200056,None,,,,,,,,,,,113,26,Male,2022-05-04_12h21.26.385,Boat,2022.1.1,59.892720155064744,
positive,negative,1,l,j,,,,,,,,,7,0,126,5,,,,,,,,,,,,,,,,,,,,,,,,main,1,1,1,negative,positive,j,j,1,0.795128099998692,410.1381021999987,411.1641355000029,411.12019819999114,None,410.1381021999987,None,410.1381021999987,None,410.1381021999987,None,411.919745720012,None,411.919745720012,None,411.919745720012,None,,,,,,,,,,,113,26,Male,2022-05-04_12h21.26.385,Boat,2022.1.1,59.892720155064744,
positive,negative,2,l,j,,,,,,,,,7,1,127,14,,,,,,,,,,,,,,,,,,,,,,,,main,2,2,2,negative,positive,j,j,1,1.0512854999979027,411.9381786000158,412.9380320000055,412.9218169999949,None,411.9381786000158,None,411.9381786000158,None,411.9381786000158,None,413.974124020015,None,413.974124020015,None,413.974124020015,None,,,,,,,,,,,113,26,Male,2022-05-04_12h21.26.385,Boat,2022.1.1,59.892720155064744,
positive,positive,1,l,j,,,,,,,,,7,2,128,2,,,,,,,,,,,,,,,,,,,,,,,,main,1,1,1,positive,positive,j,j,1,0.9944358000066131,413.9904041000118,415.004663300002,414.9681597999879,None,413.9904041000118,None,413.9904041000118,None,413.9904041000118,None,415.9715623200085,None,415.9715623200085,None,415.9715623200085,None,,,,,,,,,,,113,26,Male,2022-05-04_12h21.26.385,Boat,2022.1.1,59.892720155064744,
neutral,negative,1,k,k,,,,,,,,,7,3,129,7,,,,,,,,,,,,,,,,,,,,,,,,main,2,2,1,negative,neutral,k,k,1,0.8549668999912683,415.9889407000155,417.0047004999942,416.96958120001364,None,415.9889407000155,None,415.9889407000155,None,415.9889407000155,None,417.82989792001024,None,417.82989792001024,None,417.82989792001024,None,,,,,,,,,,,113,26,Male,2022-05-04_12h21.26.385,Boat,2022.1.1,59.892720155064744,
positive,neutral,1,l,j,,,,,,,,,7,4,130,8,,,,,,,,,,,,,,,,,,,,,,,,main,1,1,1,neutral,positive,j,j,1,0.8639387000002898,417.849022600014,418.8665775000118,418.82158139999956,None,417.849022600014,None,417.849022600014,None,417.849022600014,None,419.69503322001253,None,419.69503322001253,None,419.69503322001253,None,,,,,,,,,,,113,26,Male,2022-05-04_12h21.26.385,Boat,2022.1.1,59.892720155064744,
neutral,positive,1,k,k,,,,,,,,,7,5,131,4,,,,,,,,,,,,,,,,,,,,,,,,main,1,1,1,positive,neutral,k,k,1,0.7739094999851659,419.7132769000018,420.72132579999743,420.68550230000983,None,419.7132769000018,None,419.7132769000018,None,419.7132769000018,None,421.4727542200038,None,421.4727542200038,None,421.4727542200038,None,,,,,,,,,,,113,26,Male,2022-05-04_12h21.26.385,Boat,2022.1.1,59.892720155064744,
negative,neutral,1,j,l,,,,,,,,,7,6,132,3,,,,,,,,,,,,,,,,,,,,,,,,main,1,1,1,neutral,negative,l,l,1,1.0677461000159383,421.4890044000058,422.48819309999817,422.47178600000916,None,421.4890044000058,None,421.4890044000058,None,421.4890044000058,None,423.543469120012,None,423.543469120012,None,423.543469120012,None,,,,,,,,,,,113,26,Male,2022-05-04_12h21.26.385,Boat,2022.1.1,59.892720155064744,
neutral,neutral,1,k,k,,,,,,,,,7,7,133,1,,,,,,,,,,,,,,,,,,,,,,,,main,1,1,1,neutral,neutral,k,k,1,0.8133049000171013,423.55875460000243,424.5664805000124,424.5482139000087,None,423.55875460000243,None,423.55875460000243,None,423.55875460000243,None,425.359370320008,None,425.359370320008,None,425.359370320008,None,,,,,,,,,,,113,26,Male,2022-05-04_12h21.26.385,Boat,2022.1.1,59.892720155064744,
neutral,positive,2,k,k,,,,,,,,,7,8,134,13,,,,,,,,,,,,,,,,,,,,,,,,main,1,1,2,positive,neutral,k,k,1,0.8920943999837618,425.3760353999969,426.39946109999437,426.35475170001155,None,425.3760353999969,None,425.3760353999969,None,425.3760353999969,None,427.25477332001026,None,427.25477332001026,None,427.25477332001026,None,,,,,,,,,,,113,26,Male,2022-05-04_12h21.26.385,Boat,2022.1.1,59.892720155064744,
negative,neutral,2,j,l,,,,,,,,,7,9,135,12,,,,,,,,,,,,,,,,,,,,,,,,main,2,2,2,neutral,negative,l,l,1,1.1028570999915246,427.2706621999969,428.2883512999979,428.25206810000236,None,427.2706621999969,None,427.2706621999969,None,427.2706621999969,None,429.3600189199991,None,429.3600189199991,None,429.3600189199991,None,,,,,,,,,,,113,26,Male,2022-05-04_12h21.26.385,Boat,2022.1.1,59.892720155064744,
positive,positive,2,l,j,,,,,,,,,7,10,136,11,,,,,,,,,,,,,,,,,,,,,,,,main,1,1,2,positive,positive,j,j,1,0.831487699993886,429.3763733000087,430.39825629998813,430.35489300001063,None,429.3763733000087,None,429.3763733000087,None,429.3763733000087,None,431.19381151999403,None,431.19381151999403,None,431.19381151999403,None,,,,,,,,,,,113,26,Male,2022-05-04_12h21.26.385,Boat,2022.1.1,59.892720155064744,
negative,negative,2,j,l,,,,,,,,,7,11,137,9,,,,,,,,,,,,,,,,,,,,,,,,main,1,1,2,negative,negative,l,l,1,0.8906860999995843,431.2102489999961,432.22171260000323,432.18528279999737,None,431.2102489999961,None,431.2102489999961,None,431.2102489999961,None,433.08849921999206,None,433.08849921999206,None,433.08849921999206,None,,,,,,,,,,,113,26,Male,2022-05-04_12h21.26.385,Boat,2022.1.1,59.892720155064744,
neutral,negative,2,k,k,,,,,,,,,7,12,138,16,,,,,,,,,,,,,,,,,,,,,,,,main,1,1,2,negative,neutral,k,k,1,0.7962601000035647,433.1054638999922,434.11669039999833,434.0980958,None,433.1054638999922,None,433.1054638999922,None,433.1054638999922,None,434.8881883199996,None,434.8881883199996,None,434.8881883199996,None,,,,,,,,,,,113,26,Male,2022-05-04_12h21.26.385,Boat,2022.1.1,59.892720155064744,
positive,neutral,2,l,j,,,,,,,,,7,13,139,17,,,,,,,,,,,,,,,,,,,,,,,,main,1,1,2,neutral,positive,j,j,1,0.7488443999900483,434.90795100000105,435.93153130001156,435.8885593000159,None,434.90795100000105,None,434.90795100000105,None,434.90795100000105,None,436.6399523200147,None,436.6399523200147,None,436.6399523200147,None,,,,,,,,,,,113,26,Male,2022-05-04_12h21.26.385,Boat,2022.1.1,59.892720155064744,
negative,positive,1,j,l,,,,,,,,,7,14,140,6,,,,,,,,,,,,,,,,,,,,,,,,main,2,2,1,positive,negative,l,l,1,1.0686002999718767,436.6556413999933,437.66705889999866,437.6483434000111,None,436.6556413999933,None,436.6556413999933,None,436.6556413999933,None,438.7101626199932,None,438.7101626199932,None,438.7101626199932,None,,,,,,,,,,,113,26,Male,2022-05-04_12h21.26.385,Boat,2022.1.1,59.892720155064744,
negative,positive,2,j,l,,,,,,,,,7,15,141,15,,,,,,,,,,,,,,,,,,,,,,,,main,2,2,2,positive,negative,l,l,1,0.8777813999913633,438.726963299996,439.7348359999887,439.7168776000035,None,438.726963299996,None,438.726963299996,None,438.726963299996,None,440.5908602200128,None,440.5908602200128,None,440.5908602200128,None,,,,,,,,,,,113,26,Male,2022-05-04_12h21.26.385,Boat,2022.1.1,59.892720155064744,
neutral,neutral,2,k,k,,,,,,,,,7,16,142,10,,,,,,,,,,,,,,,,,,,,,,,,main,2,2,2,neutral,neutral,k,k,1,0.9667189999890979,440.6070846999937,441.6317349000019,441.58863690000726,None,440.6070846999937,None,440.6070846999937,None,440.6070846999937,None,442.5599231200089,None,442.5599231200089,None,442.5599231200089,None,,,,,,,,,,,113,26,Male,2022-05-04_12h21.26.385,Boat,2022.1.1,59.892720155064744,
negative,negative,1,j,l,,,,,,,,,7,17,143,0,,,,,,,,,,,,,,,,,,,,,,,,main,1,1,1,negative,negative,l,l,1,1.0585238999919966,442.5771301999921,443.5986120000016,443.55546969998977,None,442.5771301999921,None,442.5771301999921,None,442.5771301999921,None,444.6221638200135,None,444.6221638200135,None,444.6221638200135,None,,,,,,,,,,,113,26,Male,2022-05-04_12h21.26.385,Boat,2022.1.1,59.892720155064744,
negative,neutral,2,j,l,,,,,,,,,8,0,144,12,,,,,,,,,,,,,,,,,,,,,,,,main,2,2,2,neutral,negative,l,l,1,0.8798128000053111,444.6389823000063,445.6553757000074,445.6209025999997,None,444.6389823000063,None,444.6389823000063,None,444.6389823000063,None,446.50575651998804,None,446.50575651998804,None,446.50575651998804,None,,,,,,,,,,,113,26,Male,2022-05-04_12h21.26.385,Boat,2022.1.1,59.892720155064744,
negative,positive,1,j,l,,,,,,,,,8,1,145,6,,,,,,,,,,,,,,,,,,,,,,,,main,2,2,1,positive,negative,l,l,1,0.7889102000044659,446.52147619999596,447.5317486000131,447.505344300007,None,446.52147619999596,None,446.52147619999596,None,446.52147619999596,None,448.29782232001014,None,448.29782232001014,None,448.29782232001014,None,,,,,,,,,,,113,26,Male,2022-05-04_12h21.26.385,Boat,2022.1.1,59.892720155064744,
positive,neutral,1,l,j,,,,,,,,,8,2,146,8,,,,,,,,,,,,,,,,,,,,,,,,main,1,1,1,neutral,positive,j,j,1,0.8246155000233557,448.3137679999927,449.321783899999,449.28545960001065,None,448.3137679999927,None,448.3137679999927,None,448.3137679999927,None,450.1241922200046,None,450.1241922200046,None,450.1241922200046,None,,,,,,,,,,,113,26,Male,2022-05-04_12h21.26.385,Boat,2022.1.1,59.892720155064744,
negative,negative,1,j,l,,,,,,,,,8,3,147,0,,,,,,,,,,,,,,,,,,,,,,,,main,1,1,1,negative,negative,l,l,1,0.8908715999859851,450.1396917999955,451.14871209999546,451.122406200011,None,450.1396917999955,None,450.1396917999955,None,450.1396917999955,None,452.0176226200041,None,452.0176226200041,None,452.0176226200041,None,,,,,,,,,,,113,26,Male,2022-05-04_12h21.26.385,Boat,2022.1.1,59.892720155064744,
positive,negative,2,l,j,,,,,,,,,8,4,148,14,,,,,,,,,,,,,,,,,,,,,,,,main,2,2,2,negative,positive,j,j,1,1.1740056999842636,452.03951309999684,453.0555879000167,453.0210150000057,None,452.03951309999684,None,452.03951309999684,None,452.03951309999684,None,454.1937003199913,None,454.1937003199913,None,454.1937003199913,None,,,,,,,,,,,113,26,Male,2022-05-04_12h21.26.385,Boat,2022.1.1,59.892720155064744,
positive,positive,1,l,j,,,,,,,,,8,5,149,2,,,,,,,,,,,,,,,,,,,,,,,,main,2,2,1,positive,positive,j,j,1,0.9985511999984737,454.2095557000139,455.2347726000007,455.1887696000049,None,454.2095557000139,None,454.2095557000139,None,454.2095557000139,None,456.1944165200024,None,456.1944165200024,None,456.1944165200024,None,,,,,,,,,,,113,26,Male,2022-05-04_12h21.26.385,Boat,2022.1.1,59.892720155064744,
negative,positive,2,j,l,,,,,,,,,8,6,150,15,,,,,,,,,,,,,,,,,,,,,,,,main,1,1,2,positive,negative,l,l,1,0.7473680999828503,456.2106812999991,457.219187700015,457.2006459000113,None,456.2106812999991,None,456.2106812999991,None,456.2106812999991,None,457.94435711998665,None,457.94435711998665,None,457.94435711998665,None,,,,,,,,,,,113,26,Male,2022-05-04_12h21.26.385,Boat,2022.1.1,59.892720155064744,
neutral,positive,1,k,k,,,,,,,,,8,7,151,4,,,,,,,,,,,,,,,,,,,,,,,,main,1,1,1,positive,neutral,k,k,1,0.9236898999952246,457.96026600000914,458.97126729998854,458.93464250001125,None,457.96026600000914,None,457.96026600000914,None,457.96026600000914,None,459.8722235200024,None,459.8722235200024,None,459.8722235200024,None,,,,,,,,,,,113,26,Male,2022-05-04_12h21.26.385,Boat,2022.1.1,59.892720155064744,
negative,neutral,1,j,l,,,,,,,,,8,8,152,3,,,,,,,,,,,,,,,,,,,,,,,,main,2,2,1,neutral,negative,l,l,1,0.7880528999958187,459.8881148000073,460.89886380001553,460.8724690999952,None,459.8881148000073,None,459.8881148000073,None,459.8881148000073,None,461.66247401999715,None,461.66247401999715,None,461.66247401999715,None,,,,,,,,,,,113,26,Male,2022-05-04_12h21.26.385,Boat,2022.1.1,59.892720155064744,
positive,neutral,2,l,j,,,,,,,,,8,9,153,17,,,,,,,,,,,,,,,,,,,,,,,,main,2,2,2,neutral,positive,j,j,1,0.8813462000107393,461.6786647000117,462.69877849999466,462.6559137000004,None,461.6786647000117,None,461.6786647000117,None,461.6786647000117,None,463.5478801200137,None,463.5478801200137,None,463.5478801200137,None,,,,,,,,,,,113,26,Male,2022-05-04_12h21.26.385,Boat,2022.1.1,59.892720155064744,
neutral,negative,1,k,k,,,,,,,,,8,10,154,7,,,,,,,,,,,,,,,,,,,,,,,,main,1,1,1,negative,neutral,k,k,1,1.0452937000081874,463.5637218999909,464.58225880001555,464.53917229999206,None,463.5637218999909,None,463.5637218999909,None,463.5637218999909,None,465.59435571999927,None,465.59435571999927,None,465.59435571999927,None,,,,,,,,,,,113,26,Male,2022-05-04_12h21.26.385,Boat,2022.1.1,59.892720155064744,
positive,positive,2,l,j,,,,,,,,,8,11,155,11,,,,,,,,,,,,,,,,,,,,,,,,main,2,2,2,positive,positive,j,j,1,0.9558507000037935,465.60952520000865,466.63241079999716,466.5892013999983,None,465.60952520000865,None,465.60952520000865,None,465.60952520000865,None,467.5522986200143,None,467.5522986200143,None,467.5522986200143,None,,,,,,,,,,,113,26,Male,2022-05-04_12h21.26.385,Boat,2022.1.1,59.892720155064744,
neutral,positive,2,k,k,,,,,,,,,8,12,156,13,,,,,,,,,,,,,,,,,,,,,,,,main,2,2,2,positive,neutral,k,k,1,0.8996815000136849,467.572757499991,468.5821164000081,468.55596080000396,None,467.572757499991,None,467.572757499991,None,467.572757499991,None,469.45579152000425,None,469.45579152000425,None,469.45579152000425,None,,,,,,,,,,,113,26,Male,2022-05-04_12h21.26.385,Boat,2022.1.1,59.892720155064744,
neutral,neutral,1,k,k,,,,,,,,,8,13,157,1,,,,,,,,,,,,,,,,,,,,,,,,main,2,2,1,neutral,neutral,k,k,1,0.7674613999843132,469.47255599999335,470.4876840999932,470.45174970000517,None,469.47255599999335,None,469.47255599999335,None,469.47255599999335,None,471.22617681998815,None,471.22617681998815,None,471.22617681998815,None,,,,,,,,,,,113,26,Male,2022-05-04_12h21.26.385,Boat,2022.1.1,59.892720155064744,
neutral,neutral,2,k,k,,,,,,,,,8,14,158,10,,,,,,,,,,,,,,,,,,,,,,,,main,1,1,2,neutral,neutral,k,k,1,0.6634007999964524,471.2420514000114,472.2678215999913,472.2227387999883,None,471.2420514000114,None,471.2420514000114,None,471.2420514000114,None,472.89198361999877,None,472.89198361999877,None,472.89198361999877,None,,,,,,,,,,,113,26,Male,2022-05-04_12h21.26.385,Boat,2022.1.1,59.892720155064744,
positive,negative,1,l,j,,,,,,,,,8,15,159,5,,,,,,,,,,,,,,,,,,,,,,,,main,1,1,1,negative,positive,j,j,1,0.9497668000112753,472.90809640000225,473.92278769999393,473.88741610001307,None,472.90809640000225,None,472.90809640000225,None,472.90809640000225,None,474.84396302000675,None,474.84396302000675,None,474.84396302000675,None,,,,,,,,,,,113,26,Male,2022-05-04_12h21.26.385,Boat,2022.1.1,59.892720155064744,
negative,negative,2,j,l,,,,,,,,,8,16,160,9,,,,,,,,,,,,,,,,,,,,,,,,main,2,2,2,negative,negative,l,l,1,1.2448577999894042,474.8603820000135,475.88215499999933,475.83956449999823,None,474.8603820000135,None,474.8603820000135,None,474.8603820000135,None,477.09163532000673,None,477.09163532000673,None,477.09163532000673,None,,,,,,,,,,,113,26,Male,2022-05-04_12h21.26.385,Boat,2022.1.1,59.892720155064744,
neutral,negative,2,k,k,,,,,,,,,8,17,161,16,,,,,,,,,,,,,,,,,,,,,,,,main,1,1,2,negative,neutral,k,k,1,0.7472572000115179,477.10825119999936,478.1322805999953,478.08945060000406,None,477.10825119999936,None,477.10825119999936,None,477.10825119999936,None,478.842134219993,None,478.842134219993,None,478.842134219993,None,,,,,,,,,,,113,26,Male,2022-05-04_12h21.26.385,Boat,2022.1.1,59.892720155064744,
positive,negative,1,l,j,,,,,,,,,9,0,162,5,,,,,,,,,,,,,,,,,,,,,,,,main,1,1,1,negative,positive,j,j,1,0.8004407999978866,478.85742049998953,479.8569998999883,479.84058260000893,None,478.85742049998953,None,478.85742049998953,None,478.85742049998953,None,480.64469611998936,None,480.64469611998936,None,480.64469611998936,None,,,,,,,,,,,113,26,Male,2022-05-04_12h21.26.385,Boat,2022.1.1,59.892720155064744,
neutral,positive,2,k,k,,,,,,,,,9,1,163,13,,,,,,,,,,,,,,,,,,,,,,,,main,1,1,2,positive,neutral,k,k,1,0.7347625000111293,480.66224120001425,481.6840527000022,481.6393933999934,None,480.66224120001425,None,480.66224120001425,None,480.66224120001425,None,482.38285861998736,None,482.38285861998736,None,482.38285861998736,None,,,,,,,,,,,113,26,Male,2022-05-04_12h21.26.385,Boat,2022.1.1,59.892720155064744,
neutral,negative,2,k,k,,,,,,,,,9,2,164,16,,,,,,,,,,,,,,,,,,,,,,,,main,2,2,2,negative,neutral,k,k,1,0.6751449999865144,482.3996169999882,483.4007988999947,483.3824748999905,None,482.3996169999882,None,482.3996169999882,None,482.3996169999882,None,484.05970761999777,None,484.05970761999777,None,484.05970761999777,None,,,,,,,,,,,113,26,Male,2022-05-04_12h21.26.385,Boat,2022.1.1,59.892720155064744,
positive,negative,2,l,j,,,,,,,,,9,3,165,14,,,,,,,,,,,,,,,,,,,,,,,,main,1,1,2,negative,positive,j,j,1,0.8848149999976158,484.07510240000556,485.08743750001304,485.05119769999874,None,484.07510240000556,None,484.07510240000556,None,484.07510240000556,None,485.9485600200045,None,485.9485600200045,None,485.9485600200045,None,,,,,,,,,,,113,26,Male,2022-05-04_12h21.26.385,Boat,2022.1.1,59.892720155064744,
positive,positive,2,l,j,,,,,,,,,9,4,166,11,,,,,,,,,,,,,,,,,,,,,,,,main,2,2,2,positive,positive,j,j,1,0.7753675999992993,485.9675004000019,486.98276479999186,486.9395982999995,None,485.9675004000019,None,485.9675004000019,None,485.9675004000019,None,487.725072719992,None,487.725072719992,None,487.725072719992,None,,,,,,,,,,,113,26,Male,2022-05-04_12h21.26.385,Boat,2022.1.1,59.892720155064744,
negative,negative,1,j,l,,,,,,,,,9,5,167,0,,,,,,,,,,,,,,,,,,,,,,,,main,1,1,1,negative,negative,l,l,1,1.0828581000096165,487.7424547999981,488.7659699000069,488.7228827000072,None,487.7424547999981,None,487.7424547999981,None,487.7424547999981,None,489.8105566200014,None,489.8105566200014,None,489.8105566200014,None,,,,,,,,,,,113,26,Male,2022-05-04_12h21.26.385,Boat,2022.1.1,59.892720155064744,
neutral,neutral,2,k,k,,,,,,,,,9,6,168,10,,,,,,,,,,,,,,,,,,,,,,,,main,1,1,2,neutral,neutral,k,k,1,0.7277069000119809,489.8260583000083,490.85115360000054,490.8062143000134,None,489.8260583000083,None,489.8260583000083,None,489.8260583000083,None,491.54122221998693,None,491.54122221998693,None,491.54122221998693,None,,,,,,,,,,,113,26,Male,2022-05-04_12h21.26.385,Boat,2022.1.1,59.892720155064744,
negative,negative,2,j,l,,,,,,,,,9,7,169,9,,,,,,,,,,,,,,,,,,,,,,,,main,1,1,2,negative,negative,l,l,1,1.1617568000219762,491.5559889000142,492.56599500001175,492.5400115000084,None,491.5559889000142,None,491.5559889000142,None,491.5559889000142,None,493.706347419988,None,493.706347419988,None,493.706347419988,None,,,,,,,,,,,113,26,Male,2022-05-04_12h21.26.385,Boat,2022.1.1,59.892720155064744,
negative,positive,2,j,l,,,,,,,,,9,8,170,15,,,,,,,,,,,,,,,,,,,,,,,,main,2,2,2,positive,negative,l,l,1,1.0347476000024471,493.72245380000095,494.73934810000355,494.70266460001585,None,493.72245380000095,None,493.72245380000095,None,493.72245380000095,None,495.7432617199869,None,495.7432617199869,None,495.7432617199869,None,,,,,,,,,,,113,26,Male,2022-05-04_12h21.26.385,Boat,2022.1.1,59.892720155064744,
neutral,negative,1,k,k,,,,,,,,,9,9,171,7,,,,,,,,,,,,,,,,,,,,,,,,main,1,1,1,negative,neutral,k,k,1,0.8507835000054911,495.75852639999357,496.75867629999993,496.74148699999205,None,495.75852639999357,None,495.75852639999357,None,495.75852639999357,None,497.5977196200023,None,497.5977196200023,None,497.5977196200023,None,,,,,,,,,,,113,26,Male,2022-05-04_12h21.26.385,Boat,2022.1.1,59.892720155064744,
neutral,positive,1,k,k,,,,,,,,,9,10,172,4,,,,,,,,,,,,,,,,,,,,,,,,main,2,2,1,positive,neutral,k,k,1,0.692181199992774,497.6141775000142,498.62604490001104,498.5913852000085,None,497.6141775000142,None,497.6141775000142,None,497.6141775000142,None,499.2917273199913,None,499.2917273199913,None,499.2917273199913,None,,,,,,,,,,,113,26,Male,2022-05-04_12h21.26.385,Boat,2022.1.1,59.892720155064744,
positive,neutral,2,l,j,,,,,,,,,9,11,173,17,,,,,,,,,,,,,,,,,,,,,,,,main,2,2,2,neutral,positive,j,j,1,0.7689638000156265,499.3082316000073,500.3331911000132,500.289984300005,None,499.3082316000073,None,499.3082316000073,None,499.3082316000073,None,501.0633687199937,None,501.0633687199937,None,501.0633687199937,None,,,,,,,,,,,113,26,Male,2022-05-04_12h21.26.385,Boat,2022.1.1,59.892720155064744,
neutral,neutral,1,k,k,,,,,,,,,9,12,174,1,,,,,,,,,,,,,,,,,,,,,,,,main,2,2,1,neutral,neutral,k,k,1,3.028233500022907,501.0807518000074,502.1016079999972,502.05669900000794,None,501.0807518000074,None,501.0807518000074,None,501.0807518000074,None,505.09845119999954,None,505.09845119999954,None,505.09845119999954,None,,,,,,,,,,,113,26,Male,2022-05-04_12h21.26.385,Boat,2022.1.1,59.892720155064744,
positive,positive,1,l,j,,,,,,,,,9,13,175,2,,,,,,,,,,,,,,,,,,,,,,,,main,1,1,1,positive,positive,j,j,1,1.0163578999927267,506.1086362999922,507.1332943000016,507.09024280001177,None,506.1086362999922,None,506.1086362999922,None,506.1086362999922,None,508.11193601998673,None,508.11193601998673,None,508.11193601998673,None,,,,,,,,,,,113,26,Male,2022-05-04_12h21.26.385,Boat,2022.1.1,59.892720155064744,
negative,neutral,1,j,l,,,,,,,,,9,14,176,3,,,,,,,,,,,,,,,,,,,,,,,,main,2,2,1,neutral,negative,l,l,1,0.8352194000035524,508.1276881000085,509.1402164000028,509.10335200000554,None,508.1276881000085,None,508.1276881000085,None,508.1276881000085,None,509.95589684000583,None,509.95589684000583,None,509.95589684000583,None,,,,,,,,,,,113,26,Male,2022-05-04_12h21.26.385,Boat,2022.1.1,59.892720155064744,
positive,neutral,1,l,j,,,,,,,,,9,15,177,8,,,,,,,,,,,,,,,,,,,,,,,,main,2,2,1,neutral,positive,j,j,1,1.0064079000148922,509.9911495000124,511.0058218000049,510.96128509999835,None,509.9911495000124,None,509.9911495000124,None,509.9911495000124,None,511.96239161999836,None,511.96239161999836,None,511.96239161999836,None,,,,,,,,,,,113,26,Male,2022-05-04_12h21.26.385,Boat,2022.1.1,59.892720155064744,
negative,neutral,2,j,l,,,,,,,,,9,16,178,12,,,,,,,,,,,,,,,,,,,,,,,,main,2,2,2,neutral,negative,l,l,1,0.9014878000016324,511.9852594000113,513.0070196999877,512.9636005999928,None,511.9852594000113,None,511.9852594000113,None,511.9852594000113,None,513.8683382199873,None,513.8683382199873,None,513.8683382199873,None,,,,,,,,,,,113,26,Male,2022-05-04_12h21.26.385,Boat,2022.1.1,59.892720155064744,
negative,positive,1,j,l,,,,,,,,,9,17,179,6,,,,,,,,,,,,,,,,,,,,,,,,main,1,1,1,positive,negative,l,l,1,1.198333599983016,513.8924153000116,514.9068555000122,514.8727690000087,None,513.8924153000116,None,513.8924153000116,None,513.8924153000116,None,516.0718977200071,None,516.0718977200071,None,516.0718977200071,None,,,,,,,,,,,113,26,Male,2022-05-04_12h21.26.385,Boat,2022.1.1,59.892720155064744,
positive,positive,1,l,j,,,,,,,,,10,0,180,2,,,,,,,,,,,,,,,,,,,,,,,,main,2,2,1,positive,positive,j,j,1,0.7332027000084054,516.091416500014,517.1184573000064,517.0722308999975,None,516.091416500014,None,516.091416500014,None,516.091416500014,None,517.8087392199872,None,517.8087392199872,None,517.8087392199872,None,,,,,,,,,,,113,26,Male,2022-05-04_12h21.26.385,Boat,2022.1.1,59.892720155064744,
neutral,neutral,1,k,k,,,,,,,,,10,1,181,1,,,,,,,,,,,,,,,,,,,,,,,,main,2,2,1,neutral,neutral,k,k,1,0.82799319998594,517.8261932999885,518.8513696000155,518.8069834999915,None,517.8261932999885,None,517.8261932999885,None,517.8261932999885,None,519.6403094199981,None,519.6403094199981,None,519.6403094199981,None,,,,,,,,,,,113,26,Male,2022-05-04_12h21.26.385,Boat,2022.1.1,59.892720155064744,
negative,neutral,1,j,l,,,,,,,,,10,2,182,3,,,,,,,,,,,,,,,,,,,,,,,,main,2,2,1,neutral,negative,l,l,1,0.8208321999991313,519.6584594000014,520.6755762000103,520.636439199996,None,519.6584594000014,None,519.6584594000014,None,519.6584594000014,None,521.463793119989,None,521.463793119989,None,521.463793119989,None,,,,,,,,,,,113,26,Male,2022-05-04_12h21.26.385,Boat,2022.1.1,59.892720155064744,
neutral,positive,1,k,k,,,,,,,,,10,3,183,4,,,,,,,,,,,,,,,,,,,,,,,,main,2,2,1,positive,neutral,k,k,1,0.8476212999958079,521.4813930999953,522.4915937999904,522.4561819999944,None,521.4813930999953,None,521.4813930999953,None,521.4813930999953,None,523.3139373199868,None,523.3139373199868,None,523.3139373199868,None,,,,,,,,,,,113,26,Male,2022-05-04_12h21.26.385,Boat,2022.1.1,59.892720155064744,
positive,negative,1,l,j,,,,,,,,,10,4,184,5,,,,,,,,,,,,,,,,,,,,,,,,main,2,2,1,negative,positive,j,j,1,0.7085765000083484,523.3324294000049,524.340709400014,524.3045602999919,None,523.3324294000049,None,523.3324294000049,None,523.3324294000049,None,525.0256657200138,None,525.0256657200138,None,525.0256657200138,None,,,,,,,,,,,113,26,Male,2022-05-04_12h21.26.385,Boat,2022.1.1,59.892720155064744,
negative,neutral,2,j,l,,,,,,,,,10,5,185,12,,,,,,,,,,,,,,,,,,,,,,,,main,1,1,2,neutral,negative,l,l,1,0.8334511999855749,525.0435556000157,526.0572456000082,526.0238767999981,None,525.0435556000157,None,525.0435556000157,None,525.0435556000157,None,526.8628829200082,None,526.8628829200082,None,526.8628829200082,None,,,,,,,,,,,113,26,Male,2022-05-04_12h21.26.385,Boat,2022.1.1,59.892720155064744,
negative,positive,2,j,l,,,,,,,,,10,6,186,15,,,,,,,,,,,,,,,,,,,,,,,,main,1,1,2,positive,negative,l,l,1,0.7242397000081837,526.8787389000063,527.8913691999915,527.8530446999939,None,526.8787389000063,None,526.8787389000063,None,526.8787389000063,None,528.5895543199935,None,528.5895543199935,None,528.5895543199935,None,,,,,,,,,,,113,26,Male,2022-05-04_12h21.26.385,Boat,2022.1.1,59.892720155064744,
positive,neutral,1,l,j,,,,,,,,,10,7,187,8,,,,,,,,,,,,,,,,,,,,,,,,main,2,2,1,neutral,positive,j,j,1,0.8371511000150349,528.607709200005,529.6167889999924,529.5909161000163,None,528.607709200005,None,528.607709200005,None,528.607709200005,None,530.4297870200156,None,530.4297870200156,None,530.4297870200156,None,,,,,,,,,,,113,26,Male,2022-05-04_12h21.26.385,Boat,2022.1.1,59.892720155064744,
negative,positive,1,j,l,,,,,,,,,10,8,188,6,,,,,,,,,,,,,,,,,,,,,,,,main,1,1,1,positive,negative,l,l,1,0.9295152999984566,530.4473666000122,531.4571219999925,531.4210980999924,None,530.4473666000122,None,530.4473666000122,None,530.4473666000122,None,532.3620319199894,None,532.3620319199894,None,532.3620319199894,None,,,,,,,,,,,113,26,Male,2022-05-04_12h21.26.385,Boat,2022.1.1,59.892720155064744,
positive,negative,2,l,j,,,,,,,,,10,9,189,14,,,,,,,,,,,,,,,,,,,,,,,,main,2,2,2,negative,positive,j,j,1,1.0028657999937423,532.3780734000029,533.4006628000061,533.3577326000086,None,532.3780734000029,None,532.3780734000029,None,532.3780734000029,None,534.3681573200068,None,534.3681573200068,None,534.3681573200068,None,,,,,,,,,,,113,26,Male,2022-05-04_12h21.26.385,Boat,2022.1.1,59.892720155064744,
neutral,positive,2,k,k,,,,,,,,,10,10,190,13,,,,,,,,,,,,,,,,,,,,,,,,main,2,2,2,positive,neutral,k,k,1,0.9430031999945641,534.3860415999952,535.4006312999991,535.3576262000133,None,534.3860415999952,None,534.3860415999952,None,534.3860415999952,None,536.313013419995,None,536.313013419995,None,536.313013419995,None,,,,,,,,,,,113,26,Male,2022-05-04_12h21.26.385,Boat,2022.1.1,59.892720155064744,
negative,negative,1,j,l,,,,,,,,,10,11,191,0,,,,,,,,,,,,,,,,,,,,,,,,main,2,2,1,negative,negative,l,l,1,0.9346674999978859,536.3296848000027,537.340658000001,537.305820300011,None,536.3296848000027,None,536.3296848000027,None,536.3296848000027,None,538.2518584199919,None,538.2518584199919,None,538.2518584199919,None,,,,,,,,,,,113,26,Male,2022-05-04_12h21.26.385,Boat,2022.1.1,59.892720155064744,
positive,positive,2,l,j,,,,,,,,,10,12,192,11,,,,,,,,,,,,,,,,,,,,,,,,main,1,1,2,positive,positive,j,j,1,0.8198448000184726,538.2703924000089,539.2874959000037,539.2504640000116,None,538.2703924000089,None,538.2703924000089,None,538.2703924000089,None,540.0740117200097,None,540.0740117200097,None,540.0740117200097,None,,,,,,,,,,,113,26,Male,2022-05-04_12h21.26.385,Boat,2022.1.1,59.892720155064744,
positive,neutral,2,l,j,,,,,,,,,10,13,193,17,,,,,,,,,,,,,,,,,,,,,,,,main,2,2,2,neutral,positive,j,j,1,1.119423399999505,540.0928031000076,541.107622600015,541.0714845999901,None,540.0928031000076,None,540.0928031000076,None,540.0928031000076,None,542.1948088199919,None,542.1948088199919,None,542.1948088199919,None,,,,,,,,,,,113,26,Male,2022-05-04_12h21.26.385,Boat,2022.1.1,59.892720155064744,
neutral,negative,2,k,k,,,,,,,,,10,14,194,16,,,,,,,,,,,,,,,,,,,,,,,,main,1,1,2,negative,neutral,k,k,1,0.7066113000037149,542.2148408000066,543.2241263999895,543.1908824999991,None,542.2148408000066,None,542.2148408000066,None,542.2148408000066,None,543.9075518200028,None,543.9075518200028,None,543.9075518200028,None,,,,,,,,,,,113,26,Male,2022-05-04_12h21.26.385,Boat,2022.1.1,59.892720155064744,
neutral,neutral,2,k,k,,,,,,,,,10,15,195,10,,,,,,,,,,,,,,,,,,,,,,,,main,1,1,2,neutral,neutral,k,k,1,0.7387182999809738,543.9242413000029,544.9342258000106,544.9085942000092,None,543.9242413000029,None,543.9242413000029,None,543.9242413000029,None,545.6492143199924,None,545.6492143199924,None,545.6492143199924,None,,,,,,,,,,,113,26,Male,2022-05-04_12h21.26.385,Boat,2022.1.1,59.892720155064744,
neutral,negative,1,k,k,,,,,,,,,10,16,196,7,,,,,,,,,,,,,,,,,,,,,,,,main,2,2,1,negative,neutral,k,k,1,0.6953672000090592,545.668777599989,546.6749227000109,546.6411126000166,None,545.668777599989,None,545.668777599989,None,545.668777599989,None,547.346460119987,None,547.346460119987,None,547.346460119987,None,,,,,,,,,,,113,26,Male,2022-05-04_12h21.26.385,Boat,2022.1.1,59.892720155064744,
negative,negative,2,j,l,,,,,,,,,10,17,197,9,,,,,,,,,,,,,,,,,,,,,,,,main,1,1,2,negative,negative,l,l,1,1.0574690999928862,547.362861600006,548.3742464999959,548.341065399989,None,547.362861600006,None,547.362861600006,None,547.362861600006,None,549.4078011200094,None,549.4078011200094,None,549.4078011200094,None,,,,,,,,,,,113,26,Male,2022-05-04_12h21.26.385,Boat,2022.1.1,59.892720155064744,
negative,neutral,1,j,l,,,,,,,,,11,0,198,3,,,,,,,,,,,,,,,,,,,,,,,,main,2,2,1,neutral,negative,l,l,1,0.8720099000202026,549.4247034,550.4346959000104,550.4075579000055,None,549.4247034,None,549.4247034,None,549.4247034,None,551.2831869200076,None,551.2831869200076,None,551.2831869200076,None,,,,,,,,,,,113,26,Male,2022-05-04_12h21.26.385,Boat,2022.1.1,59.892720155064744,
neutral,neutral,2,k,k,,,,,,,,,11,1,199,10,,,,,,,,,,,,,,,,,,,,,,,,main,2,2,2,neutral,neutral,k,k,1,0.8686926999944262,551.2996525999915,552.3068950000161,552.2883573000145,None,551.2996525999915,None,551.2996525999915,None,551.2996525999915,None,553.1542830199963,None,553.1542830199963,None,553.1542830199963,None,,,,,,,,,,,113,26,Male,2022-05-04_12h21.26.385,Boat,2022.1.1,59.892720155064744,
positive,neutral,1,l,j,,,,,,,,,11,2,200,8,,,,,,,,,,,,,,,,,,,,,,,,main,2,2,1,neutral,positive,j,j,1,1.0247191000089515,553.1701502999931,554.1739019000088,554.155284700013,None,553.1701502999931,None,553.1701502999931,None,553.1701502999931,None,555.1800354200153,None,555.1800354200153,None,555.1800354200153,None,,,,,,,,,,,113,26,Male,2022-05-04_12h21.26.385,Boat,2022.1.1,59.892720155064744,
neutral,negative,2,k,k,,,,,,,,,11,3,201,16,,,,,,,,,,,,,,,,,,,,,,,,main,2,2,2,negative,neutral,k,k,1,0.7484915000095498,555.1964930999966,556.2090912999993,556.1745742000057,None,555.1964930999966,None,555.1964930999966,None,555.1964930999966,None,556.9301551199954,None,556.9301551199954,None,556.9301551199954,None,,,,,,,,,,,113,26,Male,2022-05-04_12h21.26.385,Boat,2022.1.1,59.892720155064744,
negative,negative,2,j,l,,,,,,,,,11,4,202,9,,,,,,,,,,,,,,,,,,,,,,,,main,1,1,2,negative,negative,l,l,1,0.8960909000015818,556.9493895999913,557.9677376000036,557.9221091000072,None,556.9493895999913,None,556.9493895999913,None,556.9493895999913,None,558.8305645199929,None,558.8305645199929,None,558.8305645199929,None,,,,,,,,,,,113,26,Male,2022-05-04_12h21.26.385,Boat,2022.1.1,59.892720155064744,
positive,neutral,2,l,j,,,,,,,,,11,5,203,17,,,,,,,,,,,,,,,,,,,,,,,,main,1,1,2,neutral,positive,j,j,1,1.3401424000039697,558.8461262999917,559.8678259000008,559.8243661999877,None,558.8461262999917,None,558.8461262999917,None,558.8461262999917,None,561.1744285199878,None,561.1744285199878,None,561.1744285199878,None,,,,,,,,,,,113,26,Male,2022-05-04_12h21.26.385,Boat,2022.1.1,59.892720155064744,
positive,positive,2,l,j,,,,,,,,,11,6,204,11,,,,,,,,,,,,,,,,,,,,,,,,main,1,1,2,positive,positive,j,j,1,0.7381973000010476,561.1908810999885,562.1915345000161,562.1740036999981,None,561.1908810999885,None,561.1908810999885,None,561.1908810999885,None,562.9150672200107,None,562.9150672200107,None,562.9150672200107,None,,,,,,,,,,,113,26,Male,2022-05-04_12h21.26.385,Boat,2022.1.1,59.892720155064744,
positive,negative,2,l,j,,,,,,,,,11,7,205,14,,,,,,,,,,,,,,,,,,,,,,,,main,2,2,2,negative,positive,j,j,1,0.7202238999889232,562.9298498000135,563.9419545000128,563.905823500012,None,562.9298498000135,None,562.9298498000135,None,562.9298498000135,None,564.6377855199884,None,564.6377855199884,None,564.6377855199884,None,,,,,,,,,,,113,26,Male,2022-05-04_12h21.26.385,Boat,2022.1.1,59.892720155064744,
neutral,neutral,1,k,k,,,,,,,,,11,8,206,1,,,,,,,,,,,,,,,,,,,,,,,,main,1,1,1,neutral,neutral,k,k,1,0.7247553000051994,564.6565676000027,565.6594744999893,565.6416053000139,None,564.6565676000027,None,564.6565676000027,None,564.6565676000027,None,566.3659736199974,None,566.3659736199974,None,566.3659736199974,None,,,,,,,,,,,113,26,Male,2022-05-04_12h21.26.385,Boat,2022.1.1,59.892720155064744,
negative,negative,1,j,l,,,,,,,,,11,9,207,0,,,,,,,,,,,,,,,,,,,,,,,,main,2,2,1,negative,negative,l,l,1,0.7898179000185337,566.3833050999965,567.3915309000004,567.3551646000124,None,566.3833050999965,None,566.3833050999965,None,566.3833050999965,None,568.1585206199874,None,568.1585206199874,None,568.1585206199874,None,,,,,,,,,,,113,26,Male,2022-05-04_12h21.26.385,Boat,2022.1.1,59.892720155064744,
positive,negative,1,l,j,,,,,,,,,11,10,208,5,,,,,,,,,,,,,,,,,,,,,,,,main,1,1,1,negative,positive,j,j,1,0.8712344999948982,568.1748470999883,569.1761056999967,569.158081600006,None,568.1748470999883,None,568.1748470999883,None,568.1748470999883,None,570.0317164200154,None,570.0317164200154,None,570.0317164200154,None,,,,,,,,,,,113,26,Male,2022-05-04_12h21.26.385,Boat,2022.1.1,59.892720155064744,
negative,positive,1,j,l,,,,,,,,,11,11,209,6,,,,,,,,,,,,,,,,,,,,,,,,main,2,2,1,positive,negative,l,l,1,0.9071526000043377,570.0514282000076,571.0550549000036,571.036489399994,None,570.0514282000076,None,570.0514282000076,None,570.0514282000076,None,571.9433244200103,None,571.9433244200103,None,571.9433244200103,None,,,,,,,,,,,113,26,Male,2022-05-04_12h21.26.385,Boat,2022.1.1,59.892720155064744,
