target,distractor,set,ans1,ans2,rep_loop2.thisRepN,rep_loop2.thisTrialN,rep_loop2.thisN,rep_loop2.thisIndex,flanker_prac_loop.thisRepN,flanker_prac_loop.thisTrialN,flanker_prac_loop.thisN,flanker_prac_loop.thisIndex,flanker_main_loop.thisRepN,flanker_main_loop.thisTrialN,flanker_main_loop.thisN,flanker_main_loop.thisIndex,fl_inst_resp.keys,mouse.x,mouse.y,mouse.leftButton,mouse.midButton,mouse.rightButton,mouse.started,mouse.stopped,sound_1.started,sound_1.stopped,no_text.started,no_text.stopped,yes_text.started,yes_text.stopped,mouse_2.x,mouse_2.y,mouse_2.leftButton,mouse_2.midButton,mouse_2.rightButton,mouse_2.started,mouse_2.stopped,back_2.started,back_2.stopped,main_prac,fl_cold,fl_colt,fl_set,fl_dcond,fl_tcond,fl_ans,fl_res,fl_corr,fl_rt,fix_fl.started,fix_fl.stopped,targ.started,targ.stopped,j_button.started,j_button.stopped,k_button.started,k_button.stopped,l_button.started,l_button.stopped,j_button2.started,j_button2.stopped,k_button2.started,k_button2.stopped,l_button2.started,l_button2.stopped,mainback.started,mainback.stopped,key_resp.keys,mouse_6.x,mouse_6.y,mouse_6.leftButton,mouse_6.midButton,mouse_6.rightButton,mouse_6.started,mouse_6.stopped,id*,age*,gender*,date,expName,psychopyVersion,frameRate,
,,,,,0,0,0,0,,,,,,,,,None,0.5555556,-0.4351852,0,0,0,1.0355918510176707,None,26.339628750024712,None,76.15981620000093,None,76.15981620000093,None,-0.08425926,-0.10555556,0,0,0,0.01324614998884499,None,,,,,,,,,,,,,,,,,,,,,,,,,,,,,,,,,,,,,,,114,20,Female,2022-05-04_14h12.32.515,Boat,2022.1.1,59.89828073563919,
positive,neutral,1,l,j,,,,,0,0,0,8,,,,,,,,,,,,,,,,,,,,,,,,,,80.62401020000107,None,prac,2,2,1,neutral,positive,l,,0,2.473552400013432,82.65547190001234,83.6627611000149,83.6286734000023,None,82.65547190001234,None,82.65547190001234,None,82.65547190001234,None,86.1218813000014,None,86.1218813000014,None,86.1218813000014,None,,,,,,,,,,,114,20,Female,2022-05-04_14h12.32.515,Boat,2022.1.1,59.89828073563919,
positive,neutral,2,l,j,,,,,0,1,1,17,,,,,,,,,,,,,,,,,,,,,,,,,,,,prac,2,2,2,neutral,positive,l,l,1,1.161794000014197,87.13215879999916,88.14694420000887,88.1108495000226,None,87.13215879999916,None,87.13215879999916,None,87.13215879999916,None,89.27986665000499,None,89.27986665000499,None,89.27986665000499,None,,,,,,,,,,,114,20,Female,2022-05-04_14h12.32.515,Boat,2022.1.1,59.89828073563919,
positive,positive,1,l,j,,,,,0,2,2,2,,,,,,,,,,,,,,,,,,,,,,,,,,,,prac,2,2,1,positive,positive,l,k,0,1.1363454000093043,89.2980077000102,90.32289160002256,90.27679980001994,None,89.2980077000102,None,89.2980077000102,None,89.2980077000102,None,91.42238140001427,None,91.42238140001427,None,91.42238140001427,None,,,,,,,,,,,114,20,Female,2022-05-04_14h12.32.515,Boat,2022.1.1,59.89828073563919,
neutral,neutral,2,k,k,,,,,0,3,3,10,,,,,,,,,,,,,,,,,,,,,,,,,,,,prac,1,1,2,neutral,neutral,k,k,1,1.2846429999917746,92.43112200000905,93.45614130000467,93.41300760000013,None,92.43112200000905,None,92.43112200000905,None,92.43112200000905,None,94.70183055001253,None,94.70183055001253,None,94.70183055001253,None,,,,,,,,,,,114,20,Female,2022-05-04_14h12.32.515,Boat,2022.1.1,59.89828073563919,
negative,negative,2,j,l,,,,,0,4,4,9,,,,,,,,,,,,,,,,,,,,,,,,,,,,prac,1,1,2,negative,negative,j,j,1,1.1890798000094946,94.719416500011,95.72984830001951,95.69375090001267,None,94.719416500011,None,94.719416500011,None,94.719416500011,None,96.89433185002709,None,96.89433185002709,None,96.89433185002709,None,,,,,,,,,,,114,20,Female,2022-05-04_14h12.32.515,Boat,2022.1.1,59.89828073563919,
negative,neutral,1,j,l,,,,,0,5,5,3,,,,,,,,,,,,,,,,,,,,,,,,,,,,prac,1,1,1,neutral,negative,j,j,1,3.1299249999865424,96.91343990000314,97.91315619999659,97.89647530001821,None,96.91343990000314,None,96.91343990000314,None,96.91343990000314,None,101.03144040002371,None,101.03144040002371,None,101.03144040002371,None,,,,,,,,,,,114,20,Female,2022-05-04_14h12.32.515,Boat,2022.1.1,59.89828073563919,
positive,positive,2,l,j,,,,,0,6,6,11,,,,,,,,,,,,,,,,,,,,,,,,,,,,prac,2,2,2,positive,positive,l,l,1,1.1186048999952618,102.04899619999924,103.0672515000042,103.02978830001666,None,102.04899619999924,None,102.04899619999924,None,102.04899619999924,None,104.15229725002719,None,104.15229725002719,None,104.15229725002719,None,,,,,,,,,,,114,20,Female,2022-05-04_14h12.32.515,Boat,2022.1.1,59.89828073563919,
negative,positive,1,j,l,,,,,0,7,7,6,,,,,,,,,,,,,,,,,,,,,,,,,,,,prac,1,1,1,positive,negative,j,j,1,0.88193410000531,104.17509780000546,105.18985300001805,105.14425840001786,None,104.17509780000546,None,104.17509780000546,None,104.17509780000546,None,106.03727465000993,None,106.03727465000993,None,106.03727465000993,None,,,,,,,,,,,114,20,Female,2022-05-04_14h12.32.515,Boat,2022.1.1,59.89828073563919,
neutral,negative,1,k,k,,,,,0,8,8,7,,,,,,,,,,,,,,,,,,,,,,,,,,,,prac,1,1,1,negative,neutral,k,k,1,0.8430854000034742,106.05497980001383,107.0635150000162,107.02740320001612,None,106.05497980001383,None,106.05497980001383,None,106.05497980001383,None,107.88318895001721,None,107.88318895001721,None,107.88318895001721,None,,,,,,,,,,,114,20,Female,2022-05-04_14h12.32.515,Boat,2022.1.1,59.89828073563919,
positive,negative,2,l,j,,,,,0,9,9,14,,,,,,,,,,,,,,,,,,,,,,,,,,,,prac,1,1,2,negative,positive,l,l,1,0.738432299986016,107.90001120002125,108.91344709999976,108.87592950000544,None,107.90001120002125,None,107.90001120002125,None,107.90001120002125,None,109.62455405001238,None,109.62455405001238,None,109.62455405001238,None,,,,,,,,,,,114,20,Female,2022-05-04_14h12.32.515,Boat,2022.1.1,59.89828073563919,
neutral,neutral,1,k,k,,,,,0,10,10,1,,,,,,,,,,,,,,,,,,,,,,,,,,,,prac,2,2,1,neutral,neutral,k,k,1,0.8338425999972969,109.64212750000297,110.64271070001996,110.62499040001421,None,109.64212750000297,None,109.64212750000297,None,109.64212750000297,None,111.46081445002638,None,111.46081445002638,None,111.46081445002638,None,,,,,,,,,,,114,20,Female,2022-05-04_14h12.32.515,Boat,2022.1.1,59.89828073563919,
neutral,positive,2,k,k,,,,,0,11,11,13,,,,,,,,,,,,,,,,,,,,,,,,,,,,prac,1,1,2,positive,neutral,k,k,1,0.61679390000063,111.4777172000031,112.47997720001149,112.46356699999887,None,111.4777172000031,None,111.4777172000031,None,111.4777172000031,None,113.0800230500201,None,113.0800230500201,None,113.0800230500201,None,,,,,,,,,,,114,20,Female,2022-05-04_14h12.32.515,Boat,2022.1.1,59.89828073563919,
positive,negative,1,l,j,,,,,0,12,12,5,,,,,,,,,,,,,,,,,,,,,,,,,,,,prac,2,2,1,negative,positive,l,l,1,0.6849613999947906,113.09865430000355,114.12340589999803,114.08008000001428,None,113.09865430000355,None,113.09865430000355,None,113.09865430000355,None,114.76703315001505,None,114.76703315001505,None,114.76703315001505,None,,,,,,,,,,,114,20,Female,2022-05-04_14h12.32.515,Boat,2022.1.1,59.89828073563919,
neutral,positive,1,k,k,,,,,0,13,13,4,,,,,,,,,,,,,,,,,,,,,,,,,,,,prac,2,2,1,positive,neutral,k,k,1,1.31124959999579,114.78489110001829,115.80673520002165,115.7633063000103,None,114.78489110001829,None,114.78489110001829,None,114.78489110001829,None,117.081150050016,None,117.081150050016,None,117.081150050016,None,,,,,,,,,,,114,20,Female,2022-05-04_14h12.32.515,Boat,2022.1.1,59.89828073563919,
neutral,negative,2,k,k,,,,,0,14,14,16,,,,,,,,,,,,,,,,,,,,,,,,,,,,prac,2,2,2,negative,neutral,k,k,1,0.7875840999768116,117.09916820001672,118.12326400002348,118.07577389999642,None,117.09916820001672,None,117.09916820001672,None,117.09916820001672,None,118.87230885000027,None,118.87230885000027,None,118.87230885000027,None,,,,,,,,,,,114,20,Female,2022-05-04_14h12.32.515,Boat,2022.1.1,59.89828073563919,
negative,neutral,2,j,l,,,,,0,15,15,12,,,,,,,,,,,,,,,,,,,,,,,,,,,,prac,2,2,2,neutral,negative,j,j,1,1.0943376999930479,118.89178380000521,119.90676710000844,119.86367050002445,None,118.89178380000521,None,118.89178380000521,None,118.89178380000521,None,120.96676245000272,None,120.96676245000272,None,120.96676245000272,None,,,,,,,,,,,114,20,Female,2022-05-04_14h12.32.515,Boat,2022.1.1,59.89828073563919,
negative,positive,2,j,l,,,,,0,16,16,15,,,,,,,,,,,,,,,,,,,,,,,,,,,,prac,2,2,2,positive,negative,j,j,1,0.6092976999934763,120.98701230000006,121.99759030001587,121.96372070000507,None,120.98701230000006,None,120.98701230000006,None,120.98701230000006,None,122.58035985002353,None,122.58035985002353,None,122.58035985002353,None,,,,,,,,,,,114,20,Female,2022-05-04_14h12.32.515,Boat,2022.1.1,59.89828073563919,
negative,negative,1,j,l,,,,,0,17,17,0,,,,,,,,,,,,,,,,,,,,,,,,,,,,prac,2,2,1,negative,negative,j,j,1,1.3779998999962118,122.60066090000328,123.61401520000072,123.57912080001552,None,122.60066090000328,None,122.60066090000328,None,122.60066090000328,None,124.96152455002012,None,124.96152455002012,None,124.96152455002012,None,,,,,,,,,,,114,20,Female,2022-05-04_14h12.32.515,Boat,2022.1.1,59.89828073563919,
neutral,positive,1,k,k,,,,,1,0,18,4,,,,,,,,,,,,,,,,,,,,,,,,,,,,prac,2,2,1,positive,neutral,k,k,1,0.8492277000041213,124.98078930002521,126.00869690001127,125.96302779999678,None,124.98078930002521,None,124.98078930002521,None,124.98078930002521,None,126.81376525000378,None,126.81376525000378,None,126.81376525000378,None,,,,,,,,,,,114,20,Female,2022-05-04_14h12.32.515,Boat,2022.1.1,59.89828073563919,
positive,negative,1,l,j,,,,,1,1,19,5,,,,,,,,,,,,,,,,,,,,,,,,,,,,prac,2,2,1,negative,positive,l,l,1,1.5048316000029445,126.83302220000769,127.84734120001667,127.81334170000628,None,126.83302220000769,None,126.83302220000769,None,126.83302220000769,None,129.32884680002462,None,129.32884680002462,None,129.32884680002462,None,,,,,,,,,,,114,20,Female,2022-05-04_14h12.32.515,Boat,2022.1.1,59.89828073563919,
positive,positive,1,l,j,,,,,1,2,20,2,,,,,,,,,,,,,,,,,,,,,,,,,,,,prac,2,2,1,positive,positive,l,l,1,0.8701283000118565,130.3503685000178,131.36378690000856,131.33048180001788,None,130.3503685000178,None,130.3503685000178,None,130.3503685000178,None,132.20431425000714,None,132.20431425000714,None,132.20431425000714,None,,,,,,,,,,,114,20,Female,2022-05-04_14h12.32.515,Boat,2022.1.1,59.89828073563919,
negative,positive,2,j,l,,,,,1,3,21,15,,,,,,,,,,,,,,,,,,,,,,,,,,,,prac,1,1,2,positive,negative,j,j,1,0.91072250000434,132.22208690000116,133.23100960001466,133.19382290000794,None,132.22208690000116,None,132.22208690000116,None,132.22208690000116,None,134.11789895000692,None,134.11789895000692,None,134.11789895000692,None,,,,,,,,,,,114,20,Female,2022-05-04_14h12.32.515,Boat,2022.1.1,59.89828073563919,
negative,neutral,1,j,l,,,,,1,4,22,3,,,,,,,,,,,,,,,,,,,,,,,,,,,,prac,2,2,1,neutral,negative,j,j,1,0.9779695000033826,134.1350500000117,135.1475917000207,135.11059450000175,None,134.1350500000117,None,134.1350500000117,None,134.1350500000117,None,136.09836495001508,None,136.09836495001508,None,136.09836495001508,None,,,,,,,,,,,114,20,Female,2022-05-04_14h12.32.515,Boat,2022.1.1,59.89828073563919,
neutral,negative,2,k,k,,,,,1,5,23,16,,,,,,,,,,,,,,,,,,,,,,,,,,,,prac,1,1,2,negative,neutral,k,k,1,0.7468762999924365,136.11636539999745,137.12693490000675,137.1087023,None,136.11636539999745,None,136.11636539999745,None,136.11636539999745,None,137.8488709500263,None,137.8488709500263,None,137.8488709500263,None,,,,,,,,,,,114,20,Female,2022-05-04_14h12.32.515,Boat,2022.1.1,59.89828073563919,
neutral,neutral,2,k,k,,,,,1,6,24,10,,,,,,,,,,,,,,,,,,,,,,,,,,,,prac,1,1,2,neutral,neutral,k,k,1,0.723267900000792,137.86604530000477,138.88119680000818,138.84758140001213,None,137.86604530000477,None,137.86604530000477,None,137.86604530000477,None,139.57424494999867,None,139.57424494999867,None,139.57424494999867,None,,,,,,,,,,,114,20,Female,2022-05-04_14h12.32.515,Boat,2022.1.1,59.89828073563919,
negative,positive,1,j,l,,,,,1,7,25,6,,,,,,,,,,,,,,,,,,,,,,,,,,,,prac,1,1,1,positive,negative,j,j,1,0.8395074000000022,139.59089660001337,140.5956112999993,140.57688320000307,None,139.59089660001337,None,139.59089660001337,None,139.59089660001337,None,141.41519525001348,None,141.41519525001348,None,141.41519525001348,None,,,,,,,,,,,114,20,Female,2022-05-04_14h12.32.515,Boat,2022.1.1,59.89828073563919,
neutral,negative,1,k,k,,,,,1,8,26,7,,,,,,,,,,,,,,,,,,,,,,,,,,,,prac,2,2,1,negative,neutral,k,k,1,0.7857035000051837,141.43494490001467,142.45877240001573,142.41287710002507,None,141.43494490001467,None,141.43494490001467,None,141.43494490001467,None,143.2031974500016,None,143.2031974500016,None,143.2031974500016,None,,,,,,,,,,,114,20,Female,2022-05-04_14h12.32.515,Boat,2022.1.1,59.89828073563919,
neutral,positive,2,k,k,,,,,1,9,27,13,,,,,,,,,,,,,,,,,,,,,,,,,,,,prac,1,1,2,positive,neutral,k,k,1,0.6464859000116121,143.22044380000443,144.2338343000156,144.19755360001,None,143.22044380000443,None,143.22044380000443,None,143.22044380000443,None,144.8524543500127,None,144.8524543500127,None,144.8524543500127,None,,,,,,,,,,,114,20,Female,2022-05-04_14h12.32.515,Boat,2022.1.1,59.89828073563919,
neutral,neutral,1,k,k,,,,,1,10,28,1,,,,,,,,,,,,,,,,,,,,,,,,,,,,prac,2,2,1,neutral,neutral,k,k,1,0.6702914999914356,144.86865330001456,145.88081260002218,145.84674690000247,None,144.86865330001456,None,144.86865330001456,None,144.86865330001456,None,146.52537755001975,None,146.52537755001975,None,146.52537755001975,None,,,,,,,,,,,114,20,Female,2022-05-04_14h12.32.515,Boat,2022.1.1,59.89828073563919,
positive,neutral,2,l,j,,,,,1,11,29,17,,,,,,,,,,,,,,,,,,,,,,,,,,,,prac,2,2,2,neutral,positive,l,l,1,0.7523393000010401,146.54525789999752,147.56433520000428,147.52639970000018,None,146.54525789999752,None,146.54525789999752,None,146.54525789999752,None,148.2799418500246,None,148.2799418500246,None,148.2799418500246,None,,,,,,,,,,,114,20,Female,2022-05-04_14h12.32.515,Boat,2022.1.1,59.89828073563919,
positive,neutral,1,l,j,,,,,1,12,30,8,,,,,,,,,,,,,,,,,,,,,,,,,,,,prac,2,2,1,neutral,positive,l,l,1,1.1085555999889039,148.29796860000351,149.31307140001445,149.27580970001873,None,148.29796860000351,None,148.29796860000351,None,148.29796860000351,None,150.3897952500003,None,150.3897952500003,None,150.3897952500003,None,,,,,,,,,,,114,20,Female,2022-05-04_14h12.32.515,Boat,2022.1.1,59.89828073563919,
negative,negative,2,j,l,,,,,1,13,31,9,,,,,,,,,,,,,,,,,,,,,,,,,,,,prac,1,1,2,negative,negative,j,j,1,0.870157500001369,150.40885940002045,151.41421680001076,151.39776590000838,None,150.40885940002045,None,150.40885940002045,None,150.40885940002045,None,152.26378525002218,None,152.26378525002218,None,152.26378525002218,None,,,,,,,,,,,114,20,Female,2022-05-04_14h12.32.515,Boat,2022.1.1,59.89828073563919,
negative,negative,1,j,l,,,,,1,14,32,0,,,,,,,,,,,,,,,,,,,,,,,,,,,,prac,2,2,1,negative,negative,j,j,1,0.8390237999847159,152.28260060001048,153.30739719999838,153.26074200001312,None,152.28260060001048,None,152.28260060001048,None,152.28260060001048,None,154.10656285001022,None,154.10656285001022,None,154.10656285001022,None,,,,,,,,,,,114,20,Female,2022-05-04_14h12.32.515,Boat,2022.1.1,59.89828073563919,
positive,positive,2,l,j,,,,,1,15,33,11,,,,,,,,,,,,,,,,,,,,,,,,,,,,prac,1,1,2,positive,positive,l,l,1,0.9146298999839928,154.12629710001056,155.14071410000906,155.09691180000664,None,154.12629710001056,None,154.12629710001056,None,154.12629710001056,None,156.02145395000406,None,156.02145395000406,None,156.02145395000406,None,,,,,,,,,,,114,20,Female,2022-05-04_14h12.32.515,Boat,2022.1.1,59.89828073563919,
negative,neutral,2,j,l,,,,,1,16,34,12,,,,,,,,,,,,,,,,,,,,,,,,,,,,prac,2,2,2,neutral,negative,j,j,1,0.843221299990546,156.039642800024,157.05125479999697,157.0144244999974,None,156.039642800024,None,156.039642800024,None,156.039642800024,None,157.86834175000257,None,157.86834175000257,None,157.86834175000257,None,,,,,,,,,,,114,20,Female,2022-05-04_14h12.32.515,Boat,2022.1.1,59.89828073563919,
positive,negative,2,l,j,,,,,1,17,35,14,,,,,,,,,,,,,,,,,,,,,,,,,,,,prac,2,2,2,negative,positive,l,l,1,0.7995029999874532,157.8843478000199,158.90773710000212,158.86454730000696,None,157.8843478000199,None,157.8843478000199,None,157.8843478000199,None,159.6696416500228,None,159.6696416500228,None,159.6696416500228,None,,,,,,,,,,,114,20,Female,2022-05-04_14h12.32.515,Boat,2022.1.1,59.89828073563919,
,,,,,,,,,,,,,,,,,,,,,,,,,,,,,,,,,,,,,,,,,,,,,,,,,,,,,,,,,,,,,,,,,,159.67855650000274,None,None,,,,,,,,114,20,Female,2022-05-04_14h12.32.515,Boat,2022.1.1,59.89828073563919,
,,,,,,,,,,,,,,,,,,,,,,,,,,,,,,,,,,,,,,,,,,,,,,,,,,,,,,,,,,,,,,,,,,,,,0.028703704,-0.08055556,1,0,0,0.005820949998451397,None,114,20,Female,2022-05-04_14h12.32.515,Boat,2022.1.1,59.89828073563919,
negative,neutral,2,j,l,,,,,,,,,0,0,0,12,,,,,,,,,,,,,,,,,,,,,,173.60945300001185,None,main,2,2,2,neutral,negative,j,j,1,1.2105045999924187,175.63005690000136,176.64127380002174,176.61576290000812,None,175.63005690000136,None,175.63005690000136,None,175.63005690000136,None,177.81961225002595,None,177.81961225002595,None,177.81961225002595,None,,,,,,,,,,,114,20,Female,2022-05-04_14h12.32.515,Boat,2022.1.1,59.89828073563919,
positive,negative,1,l,j,,,,,,,,,0,1,1,5,,,,,,,,,,,,,,,,,,,,,,,,main,2,2,1,negative,positive,l,l,1,1.02211420002277,177.8461595000117,178.8482513000199,178.81420420002542,None,177.8461595000117,None,177.8461595000117,None,177.8461595000117,None,179.8470720500074,None,179.8470720500074,None,179.8470720500074,None,,,,,,,,,,,114,20,Female,2022-05-04_14h12.32.515,Boat,2022.1.1,59.89828073563919,
positive,neutral,1,l,j,,,,,,,,,0,2,2,8,,,,,,,,,,,,,,,,,,,,,,,,main,2,2,1,neutral,positive,l,l,1,0.7530045000021346,179.86320540000452,180.8652872000239,180.8468299000233,None,179.86320540000452,None,179.86320540000452,None,179.86320540000452,None,181.60108925000822,None,181.60108925000822,None,181.60108925000822,None,,,,,,,,,,,114,20,Female,2022-05-04_14h12.32.515,Boat,2022.1.1,59.89828073563919,
neutral,positive,1,k,k,,,,,,,,,0,3,3,4,,,,,,,,,,,,,,,,,,,,,,,,main,1,1,1,positive,neutral,k,k,1,0.9596704000141472,181.6202508000133,182.64145080000162,182.59831950001535,None,181.6202508000133,None,181.6202508000133,None,181.6202508000133,None,183.56508245002186,None,183.56508245002186,None,183.56508245002186,None,,,,,,,,,,,114,20,Female,2022-05-04_14h12.32.515,Boat,2022.1.1,59.89828073563919,
neutral,neutral,2,k,k,,,,,,,,,0,4,4,10,,,,,,,,,,,,,,,,,,,,,,,,main,2,2,2,neutral,neutral,k,k,1,0.8534438000060618,183.58330260001821,184.5987517000176,184.56160810001893,None,183.58330260001821,None,183.58330260001821,None,183.58330260001821,None,185.42146145002624,None,185.42146145002624,None,185.42146145002624,None,,,,,,,,,,,114,20,Female,2022-05-04_14h12.32.515,Boat,2022.1.1,59.89828073563919,
negative,positive,1,j,l,,,,,,,,,0,5,5,6,,,,,,,,,,,,,,,,,,,,,,,,main,1,1,1,positive,negative,j,j,1,1.4131744999904186,185.43878759999643,186.45985780001502,186.41495649999706,None,185.43878759999643,None,185.43878759999643,None,185.43878759999643,None,187.83718875001358,None,187.83718875001358,None,187.83718875001358,None,,,,,,,,,,,114,20,Female,2022-05-04_14h12.32.515,Boat,2022.1.1,59.89828073563919,
negative,neutral,1,j,l,,,,,,,,,0,6,6,3,,,,,,,,,,,,,,,,,,,,,,,,main,1,1,1,neutral,negative,j,j,1,0.7421390999807045,187.8543839000049,188.85997849999694,188.84158520001802,None,187.8543839000049,None,187.8543839000049,None,187.8543839000049,None,189.58262395000492,None,189.58262395000492,None,189.58262395000492,None,,,,,,,,,,,114,20,Female,2022-05-04_14h12.32.515,Boat,2022.1.1,59.89828073563919,
neutral,negative,1,k,k,,,,,,,,,0,7,7,7,,,,,,,,,,,,,,,,,,,,,,,,main,2,2,1,negative,neutral,k,k,1,0.6734945999924093,189.6001333000022,190.61345420000725,190.57702290001907,None,189.6001333000022,None,189.6001333000022,None,189.6001333000022,None,191.2580060500215,None,191.2580060500215,None,191.2580060500215,None,,,,,,,,,,,114,20,Female,2022-05-04_14h12.32.515,Boat,2022.1.1,59.89828073563919,
positive,positive,2,l,j,,,,,,,,,0,8,8,11,,,,,,,,,,,,,,,,,,,,,,,,main,2,2,2,positive,positive,l,l,1,0.6139363000111189,191.27745540000615,192.2819336000248,192.2644949000096,None,191.27745540000615,None,191.27745540000615,None,191.27745540000615,None,192.87499135002435,None,192.87499135002435,None,192.87499135002435,None,,,,,,,,,,,114,20,Female,2022-05-04_14h12.32.515,Boat,2022.1.1,59.89828073563919,
negative,negative,2,j,l,,,,,,,,,0,9,9,9,,,,,,,,,,,,,,,,,,,,,,,,main,1,1,2,negative,negative,j,j,1,0.8393195999960881,192.89740200000233,193.90833310000016,193.86514270000043,None,192.89740200000233,None,192.89740200000233,None,192.89740200000233,None,194.71785165000182,None,194.71785165000182,None,194.71785165000182,None,,,,,,,,,,,114,20,Female,2022-05-04_14h12.32.515,Boat,2022.1.1,59.89828073563919,
neutral,neutral,1,k,k,,,,,,,,,0,10,10,1,,,,,,,,,,,,,,,,,,,,,,,,main,1,1,1,neutral,neutral,k,k,1,0.8036056999990251,194.733409700013,195.7477351000125,195.71135910000885,None,194.733409700013,None,194.733409700013,None,194.733409700013,None,196.52450495001102,None,196.52450495001102,None,196.52450495001102,None,,,,,,,,,,,114,20,Female,2022-05-04_14h12.32.515,Boat,2022.1.1,59.89828073563919,
negative,negative,1,j,l,,,,,,,,,0,11,11,0,,,,,,,,,,,,,,,,,,,,,,,,main,1,1,1,negative,negative,j,j,1,0.8924679000047036,196.5420013999974,197.54723070000182,197.52869590002229,None,196.5420013999974,None,196.5420013999974,None,196.5420013999974,None,198.41865385001,None,198.41865385001,None,198.41865385001,None,,,,,,,,,,,114,20,Female,2022-05-04_14h12.32.515,Boat,2022.1.1,59.89828073563919,
positive,negative,2,l,j,,,,,,,,,0,12,12,14,,,,,,,,,,,,,,,,,,,,,,,,main,2,2,2,negative,positive,l,l,1,0.7154089999967255,198.43676189999678,199.44872680000844,199.41284980002092,None,198.43676189999678,None,198.43676189999678,None,198.43676189999678,None,200.13751085000985,None,200.13751085000985,None,200.13751085000985,None,,,,,,,,,,,114,20,Female,2022-05-04_14h12.32.515,Boat,2022.1.1,59.89828073563919,
positive,neutral,2,l,j,,,,,,,,,0,13,13,17,,,,,,,,,,,,,,,,,,,,,,,,main,2,2,2,neutral,positive,l,l,1,0.7165214999986347,200.15694549999898,201.17563050001627,201.13206520001404,None,200.15694549999898,None,200.15694549999898,None,200.15694549999898,None,201.85924454999912,None,201.85924454999912,None,201.85924454999912,None,,,,,,,,,,,114,20,Female,2022-05-04_14h12.32.515,Boat,2022.1.1,59.89828073563919,
neutral,positive,2,k,k,,,,,,,,,0,14,14,13,,,,,,,,,,,,,,,,,,,,,,,,main,2,2,2,positive,neutral,k,k,1,0.8618979000020772,201.87586379999993,202.88211010000668,202.84698910001316,None,201.87586379999993,None,201.87586379999993,None,201.87586379999993,None,203.72119285000662,None,203.72119285000662,None,203.72119285000662,None,,,,,,,,,,,114,20,Female,2022-05-04_14h12.32.515,Boat,2022.1.1,59.89828073563919,
positive,positive,1,l,j,,,,,,,,,0,15,15,2,,,,,,,,,,,,,,,,,,,,,,,,main,1,1,1,positive,positive,l,l,1,1.0626682000001892,203.74383050002507,204.75884680001764,204.7154334000079,None,203.74383050002507,None,203.74383050002507,None,203.74383050002507,None,205.78787955001752,None,205.78787955001752,None,205.78787955001752,None,,,,,,,,,,,114,20,Female,2022-05-04_14h12.32.515,Boat,2022.1.1,59.89828073563919,
negative,positive,2,j,l,,,,,,,,,0,16,16,15,,,,,,,,,,,,,,,,,,,,,,,,main,2,2,2,positive,negative,j,j,1,0.7449562999827322,205.80479039999773,206.81218550002086,206.79390210000565,None,205.80479039999773,None,205.80479039999773,None,205.80479039999773,None,207.53513085001322,None,207.53513085001322,None,207.53513085001322,None,,,,,,,,,,,114,20,Female,2022-05-04_14h12.32.515,Boat,2022.1.1,59.89828073563919,
neutral,negative,2,k,k,,,,,,,,,0,17,17,16,,,,,,,,,,,,,,,,,,,,,,,,main,1,1,2,negative,neutral,k,k,1,0.7158536000060849,207.55235579999862,208.57533520000288,208.53235600001062,None,207.55235579999862,None,207.55235579999862,None,207.55235579999862,None,209.25407945001206,None,209.25407945001206,None,209.25407945001206,None,,,,,,,,,,,114,20,Female,2022-05-04_14h12.32.515,Boat,2022.1.1,59.89828073563919,
negative,neutral,1,j,l,,,,,,,,,1,0,18,3,,,,,,,,,,,,,,,,,,,,,,,,main,2,2,1,neutral,negative,j,l,0,1.1951785999990534,209.2716779000184,210.28155100002186,210.24357820002479,None,209.2716779000184,None,209.2716779000184,None,209.2716779000184,None,211.45702680002432,None,211.45702680002432,None,211.45702680002432,None,,,,,,,,,,,114,20,Female,2022-05-04_14h12.32.515,Boat,2022.1.1,59.89828073563919,
neutral,negative,2,k,k,,,,,,,,,1,1,19,16,,,,,,,,,,,,,,,,,,,,,,,,main,1,1,2,negative,neutral,k,k,1,0.8839071999827866,212.46970360001433,213.4823083000083,213.44853740002145,None,212.46970360001433,None,212.46970360001433,None,212.46970360001433,None,214.3377563499991,None,214.3377563499991,None,214.3377563499991,None,,,,,,,,,,,114,20,Female,2022-05-04_14h12.32.515,Boat,2022.1.1,59.89828073563919,
negative,neutral,2,j,l,,,,,,,,,1,2,20,12,,,,,,,,,,,,,,,,,,,,,,,,main,1,1,2,neutral,negative,j,j,1,1.023577000014484,214.35686880000867,215.3605170000228,215.3425599000184,None,214.35686880000867,None,214.35686880000867,None,214.35686880000867,None,216.36506715001013,None,216.36506715001013,None,216.36506715001013,None,,,,,,,,,,,114,20,Female,2022-05-04_14h12.32.515,Boat,2022.1.1,59.89828073563919,
neutral,positive,2,k,k,,,,,,,,,1,3,21,13,,,,,,,,,,,,,,,,,,,,,,,,main,2,2,2,positive,neutral,k,k,1,0.8557636000041384,216.38306920000468,217.38399390000268,217.3659614000062,None,216.38306920000468,None,216.38306920000468,None,216.38306920000468,None,218.22310885001497,None,218.22310885001497,None,218.22310885001497,None,,,,,,,,,,,114,20,Female,2022-05-04_14h12.32.515,Boat,2022.1.1,59.89828073563919,
neutral,positive,1,k,k,,,,,,,,,1,4,22,4,,,,,,,,,,,,,,,,,,,,,,,,main,1,1,1,positive,neutral,k,k,1,0.6799704000004567,218.24577470001532,219.25903310001013,219.21574159999727,None,218.24577470001532,None,218.24577470001532,None,218.24577470001532,None,219.9049638500175,None,219.9049638500175,None,219.9049638500175,None,,,,,,,,,,,114,20,Female,2022-05-04_14h12.32.515,Boat,2022.1.1,59.89828073563919,
negative,positive,1,j,l,,,,,,,,,1,5,23,6,,,,,,,,,,,,,,,,,,,,,,,,main,2,2,1,positive,negative,j,j,1,1.3249276999849826,219.92306220001774,220.92973390000407,220.91105700001935,None,219.92306220001774,None,219.92306220001774,None,219.92306220001774,None,222.23499770000925,None,222.23499770000925,None,222.23499770000925,None,,,,,,,,,,,114,20,Female,2022-05-04_14h12.32.515,Boat,2022.1.1,59.89828073563919,
negative,negative,1,j,l,,,,,,,,,1,6,24,0,,,,,,,,,,,,,,,,,,,,,,,,main,1,1,1,negative,negative,j,j,1,0.9847895000129938,222.25386060000164,223.2646056000085,223.2275387000118,None,222.25386060000164,None,222.25386060000164,None,222.25386060000164,None,224.22056745001754,None,224.22056745001754,None,224.22056745001754,None,,,,,,,,,,,114,20,Female,2022-05-04_14h12.32.515,Boat,2022.1.1,59.89828073563919,
negative,negative,2,j,l,,,,,,,,,1,7,25,9,,,,,,,,,,,,,,,,,,,,,,,,main,2,2,2,negative,negative,j,j,1,0.881792400003178,224.23763560000225,225.2591522000148,225.2156849000021,None,224.23763560000225,None,224.23763560000225,None,224.23763560000225,None,226.1056120500172,None,226.1056120500172,None,226.1056120500172,None,,,,,,,,,,,114,20,Female,2022-05-04_14h12.32.515,Boat,2022.1.1,59.89828073563919,
positive,positive,2,l,j,,,,,,,,,1,8,26,11,,,,,,,,,,,,,,,,,,,,,,,,main,1,1,2,positive,positive,l,l,1,0.7230159000027925,226.12326100000064,227.13256510000792,227.09457149999798,None,226.12326100000064,None,226.12326100000064,None,226.12326100000064,None,227.83148235001426,None,227.83148235001426,None,227.83148235001426,None,,,,,,,,,,,114,20,Female,2022-05-04_14h12.32.515,Boat,2022.1.1,59.89828073563919,
neutral,negative,1,k,k,,,,,,,,,1,9,27,7,,,,,,,,,,,,,,,,,,,,,,,,main,2,2,1,negative,neutral,k,k,1,0.5154841000039596,227.8489817000227,228.86537060001865,228.82909870002186,None,227.8489817000227,None,227.8489817000227,None,227.8489817000227,None,229.34975495000543,None,229.34975495000543,None,229.34975495000543,None,,,,,,,,,,,114,20,Female,2022-05-04_14h12.32.515,Boat,2022.1.1,59.89828073563919,
neutral,neutral,2,k,k,,,,,,,,,1,10,28,10,,,,,,,,,,,,,,,,,,,,,,,,main,2,2,2,neutral,neutral,k,k,1,0.6759345000027679,229.36755870000343,230.382903300022,230.34648410000955,None,229.36755870000343,None,229.36755870000343,None,229.36755870000343,None,231.02911535001766,None,231.02911535001766,None,231.02911535001766,None,,,,,,,,,,,114,20,Female,2022-05-04_14h12.32.515,Boat,2022.1.1,59.89828073563919,
positive,positive,1,l,j,,,,,,,,,1,11,29,2,,,,,,,,,,,,,,,,,,,,,,,,main,1,1,1,positive,positive,l,l,1,0.5515882000036072,231.04958869999973,232.066089800006,232.02969019999728,None,231.04958869999973,None,231.04958869999973,None,231.04958869999973,None,232.5833021500177,None,232.5833021500177,None,232.5833021500177,None,,,,,,,,,,,114,20,Female,2022-05-04_14h12.32.515,Boat,2022.1.1,59.89828073563919,
positive,negative,1,l,j,,,,,,,,,1,12,30,5,,,,,,,,,,,,,,,,,,,,,,,,main,2,2,1,negative,positive,l,l,1,0.7503166999958921,232.60052180002094,233.62773780000862,233.58229560000473,None,232.60052180002094,None,232.60052180002094,None,232.60052180002094,None,234.3353367500269,None,234.3353367500269,None,234.3353367500269,None,,,,,,,,,,,114,20,Female,2022-05-04_14h12.32.515,Boat,2022.1.1,59.89828073563919,
positive,neutral,2,l,j,,,,,,,,,1,13,31,17,,,,,,,,,,,,,,,,,,,,,,,,main,2,2,2,neutral,positive,l,l,1,0.8324053999967873,234.35479740001028,235.37618479999946,235.33278860000428,None,234.35479740001028,None,234.35479740001028,None,234.35479740001028,None,236.17044695001385,None,236.17044695001385,None,236.17044695001385,None,,,,,,,,,,,114,20,Female,2022-05-04_14h12.32.515,Boat,2022.1.1,59.89828073563919,
positive,neutral,1,l,j,,,,,,,,,1,14,32,8,,,,,,,,,,,,,,,,,,,,,,,,main,1,1,1,neutral,positive,l,l,1,0.7416837000055239,236.18935680002323,237.2040784000128,237.1661643999978,None,236.18935680002323,None,236.18935680002323,None,236.18935680002323,None,237.91630065001954,None,237.91630065001954,None,237.91630065001954,None,,,,,,,,,,,114,20,Female,2022-05-04_14h12.32.515,Boat,2022.1.1,59.89828073563919,
positive,negative,2,l,j,,,,,,,,,1,15,33,14,,,,,,,,,,,,,,,,,,,,,,,,main,2,2,2,negative,positive,l,l,1,0.6748484999989159,237.93581680001807,238.94969100001617,238.91628920001676,None,237.93581680001807,None,237.93581680001807,None,237.93581680001807,None,239.5945230500103,None,239.5945230500103,None,239.5945230500103,None,,,,,,,,,,,114,20,Female,2022-05-04_14h12.32.515,Boat,2022.1.1,59.89828073563919,
negative,positive,2,j,l,,,,,,,,,1,16,34,15,,,,,,,,,,,,,,,,,,,,,,,,main,1,1,2,positive,negative,j,j,1,0.5881830000143964,239.61683920002542,240.61634180002147,240.5997522000107,None,239.61683920002542,None,239.61683920002542,None,239.61683920002542,None,241.18585405001357,None,241.18585405001357,None,241.18585405001357,None,,,,,,,,,,,114,20,Female,2022-05-04_14h12.32.515,Boat,2022.1.1,59.89828073563919,
neutral,neutral,1,k,k,,,,,,,,,1,17,35,1,,,,,,,,,,,,,,,,,,,,,,,,main,1,1,1,neutral,neutral,k,k,1,1.064601300022332,241.20438380000996,242.21644899999956,242.1828784000245,None,241.20438380000996,None,241.20438380000996,None,241.20438380000996,None,243.2538679500023,None,243.2538679500023,None,243.2538679500023,None,,,,,,,,,,,114,20,Female,2022-05-04_14h12.32.515,Boat,2022.1.1,59.89828073563919,
neutral,neutral,1,k,k,,,,,,,,,2,0,36,1,,,,,,,,,,,,,,,,,,,,,,,,main,1,1,1,neutral,neutral,k,k,1,0.5589746000187006,243.2695212000108,244.285268800013,244.2495943000249,None,243.2695212000108,None,243.2695212000108,None,243.2695212000108,None,244.8161814500083,None,244.8161814500083,None,244.8161814500083,None,,,,,,,,,,,114,20,Female,2022-05-04_14h12.32.515,Boat,2022.1.1,59.89828073563919,
negative,negative,2,j,l,,,,,,,,,2,1,37,9,,,,,,,,,,,,,,,,,,,,,,,,main,1,1,2,negative,negative,j,j,1,1.0203289999917615,244.83427010002197,245.86147490001167,245.81641570001375,None,244.83427010002197,None,244.83427010002197,None,244.83427010002197,None,246.83965735000965,None,246.83965735000965,None,246.83965735000965,None,,,,,,,,,,,114,20,Female,2022-05-04_14h12.32.515,Boat,2022.1.1,59.89828073563919,
negative,negative,1,j,l,,,,,,,,,2,2,38,0,,,,,,,,,,,,,,,,,,,,,,,,main,1,1,1,negative,negative,j,j,1,0.759922600002028,246.85643890002393,247.8855467000103,247.83520050000516,None,246.85643890002393,None,246.85643890002393,None,246.85643890002393,None,248.60244565000465,None,248.60244565000465,None,248.60244565000465,None,,,,,,,,,,,114,20,Female,2022-05-04_14h12.32.515,Boat,2022.1.1,59.89828073563919,
positive,neutral,2,l,j,,,,,,,,,2,3,39,17,,,,,,,,,,,,,,,,,,,,,,,,main,1,1,2,neutral,positive,l,l,1,0.6036079000041354,248.62003240000922,249.6331840000057,249.59783740001149,None,248.62003240000922,None,248.62003240000922,None,248.62003240000922,None,250.20732295001216,None,250.20732295001216,None,250.20732295001216,None,,,,,,,,,,,114,20,Female,2022-05-04_14h12.32.515,Boat,2022.1.1,59.89828073563919,
positive,negative,1,l,j,,,,,,,,,2,4,40,5,,,,,,,,,,,,,,,,,,,,,,,,main,1,1,1,negative,positive,l,l,1,0.6725422999879811,250.228852500004,251.2312641000026,251.2127406000218,None,250.228852500004,None,250.228852500004,None,250.228852500004,None,251.88396624999876,None,251.88396624999876,None,251.88396624999876,None,,,,,,,,,,,114,20,Female,2022-05-04_14h12.32.515,Boat,2022.1.1,59.89828073563919,
negative,positive,2,j,l,,,,,,,,,2,5,41,15,,,,,,,,,,,,,,,,,,,,,,,,main,2,2,2,positive,negative,j,j,1,0.8460659999982454,251.9027727000066,252.92092190001858,252.8844792000018,None,251.9027727000066,None,251.9027727000066,None,251.9027727000066,None,253.73248955002344,None,253.73248955002344,None,253.73248955002344,None,,,,,,,,,,,114,20,Female,2022-05-04_14h12.32.515,Boat,2022.1.1,59.89828073563919,
neutral,neutral,2,k,k,,,,,,,,,2,6,42,10,,,,,,,,,,,,,,,,,,,,,,,,main,1,1,2,neutral,neutral,k,k,1,0.7455214999790769,253.7514952000056,254.77838840000913,254.73198250000132,None,253.7514952000056,None,253.7514952000056,None,253.7514952000056,None,255.48342375000647,None,255.48342375000647,None,255.48342375000647,None,,,,,,,,,,,114,20,Female,2022-05-04_14h12.32.515,Boat,2022.1.1,59.89828073563919,
negative,positive,1,j,l,,,,,,,,,2,7,43,6,,,,,,,,,,,,,,,,,,,,,,,,main,1,1,1,positive,negative,j,j,1,0.8826199000177439,255.5006401000137,256.51674180000555,256.4805746000202,None,255.5006401000137,None,255.5006401000137,None,255.5006401000137,None,257.3681052500062,None,257.3681052500062,None,257.3681052500062,None,,,,,,,,,,,114,20,Female,2022-05-04_14h12.32.515,Boat,2022.1.1,59.89828073563919,
negative,neutral,2,j,l,,,,,,,,,2,8,44,12,,,,,,,,,,,,,,,,,,,,,,,,main,2,2,2,neutral,negative,j,l,0,0.7067722999781836,257.3871397000039,258.4101082000125,258.36668800000916,None,257.3871397000039,None,257.3871397000039,None,257.3871397000039,None,259.08289630000945,None,259.08289630000945,None,259.08289630000945,None,,,,,,,,,,,114,20,Female,2022-05-04_14h12.32.515,Boat,2022.1.1,59.89828073563919,
neutral,positive,2,k,k,,,,,,,,,2,9,45,13,,,,,,,,,,,,,,,,,,,,,,,,main,2,2,2,positive,neutral,k,k,1,0.8082997000019532,260.10396910001873,261.1043342000048,261.0863797000202,None,260.10396910001873,None,260.10396910001873,None,260.10396910001873,None,261.8966502500145,None,261.8966502500145,None,261.8966502500145,None,,,,,,,,,,,114,20,Female,2022-05-04_14h12.32.515,Boat,2022.1.1,59.89828073563919,
positive,negative,2,l,j,,,,,,,,,2,10,46,14,,,,,,,,,,,,,,,,,,,,,,,,main,1,1,2,negative,positive,l,l,1,0.7425575999950524,261.9172229000251,262.9331439000089,262.89854600001127,None,261.9172229000251,None,261.9172229000251,None,261.9172229000251,None,263.6425752500101,None,263.6425752500101,None,263.6425752500101,None,,,,,,,,,,,114,20,Female,2022-05-04_14h12.32.515,Boat,2022.1.1,59.89828073563919,
positive,positive,1,l,j,,,,,,,,,2,11,47,2,,,,,,,,,,,,,,,,,,,,,,,,main,1,1,1,positive,positive,l,l,1,1.163076299999375,263.6634170000034,264.68136310001137,264.6431012999965,None,263.6634170000034,None,263.6634170000034,None,263.6634170000034,None,265.8071523499995,None,265.8071523499995,None,265.8071523499995,None,,,,,,,,,,,114,20,Female,2022-05-04_14h12.32.515,Boat,2022.1.1,59.89828073563919,
neutral,positive,1,k,k,,,,,,,,,2,12,48,4,,,,,,,,,,,,,,,,,,,,,,,,main,1,1,1,positive,neutral,k,k,1,0.8814806000154931,265.8246855000034,266.83623850002186,266.8002465000027,None,265.8246855000034,None,265.8246855000034,None,265.8246855000034,None,267.6926176500012,None,267.6926176500012,None,267.6926176500012,None,,,,,,,,,,,114,20,Female,2022-05-04_14h12.32.515,Boat,2022.1.1,59.89828073563919,
negative,neutral,1,j,l,,,,,,,,,2,13,49,3,,,,,,,,,,,,,,,,,,,,,,,,main,2,2,1,neutral,negative,j,j,1,0.9337916999938898,267.7117324999999,268.7265589000017,268.68067210001755,None,267.7117324999999,None,267.7117324999999,None,267.7117324999999,None,269.6283676500054,None,269.6283676500054,None,269.6283676500054,None,,,,,,,,,,,114,20,Female,2022-05-04_14h12.32.515,Boat,2022.1.1,59.89828073563919,
neutral,negative,2,k,k,,,,,,,,,2,14,50,16,,,,,,,,,,,,,,,,,,,,,,,,main,1,1,2,negative,neutral,k,k,1,0.8284500000008848,269.64696080001886,270.6502077000041,270.6334132000047,None,269.64696080001886,None,269.64696080001886,None,269.64696080001886,None,271.45989985001796,None,271.45989985001796,None,271.45989985001796,None,,,,,,,,,,,114,20,Female,2022-05-04_14h12.32.515,Boat,2022.1.1,59.89828073563919,
positive,positive,2,l,j,,,,,,,,,2,15,51,11,,,,,,,,,,,,,,,,,,,,,,,,main,2,2,2,positive,positive,l,l,1,0.8779504999984056,271.4783902000054,272.4838024000055,272.4659638000012,None,271.4783902000054,None,271.4783902000054,None,271.4783902000054,None,273.3399743500078,None,273.3399743500078,None,273.3399743500078,None,,,,,,,,,,,114,20,Female,2022-05-04_14h12.32.515,Boat,2022.1.1,59.89828073563919,
neutral,negative,1,k,k,,,,,,,,,2,16,52,7,,,,,,,,,,,,,,,,,,,,,,,,main,2,2,1,negative,neutral,k,k,1,0.7536921999999322,273.35646940002334,274.36611620002077,274.3286601,None,273.35646940002334,None,273.35646940002334,None,273.35646940002334,None,275.0968608499999,None,275.0968608499999,None,275.0968608499999,None,,,,,,,,,,,114,20,Female,2022-05-04_14h12.32.515,Boat,2022.1.1,59.89828073563919,
positive,neutral,1,l,j,,,,,,,,,2,17,53,8,,,,,,,,,,,,,,,,,,,,,,,,main,1,1,1,neutral,positive,l,l,1,1.140300400002161,275.1176493000239,276.1172317000164,276.1004424999992,None,275.1176493000239,None,275.1176493000239,None,275.1176493000239,None,277.2393278500269,None,277.2393278500269,None,277.2393278500269,None,,,,,,,,,,,114,20,Female,2022-05-04_14h12.32.515,Boat,2022.1.1,59.89828073563919,
neutral,positive,1,k,k,,,,,,,,,3,0,54,4,,,,,,,,,,,,,,,,,,,,,,,,main,2,2,1,positive,neutral,k,k,1,0.9248654000111856,277.2553279999993,278.26400190001004,278.2454232000164,None,277.2553279999993,None,277.2553279999993,None,277.2553279999993,None,279.16690555002714,None,279.16690555002714,None,279.16690555002714,None,,,,,,,,,,,114,20,Female,2022-05-04_14h12.32.515,Boat,2022.1.1,59.89828073563919,
negative,positive,1,j,l,,,,,,,,,3,1,55,6,,,,,,,,,,,,,,,,,,,,,,,,main,2,2,1,positive,negative,j,j,1,0.9030975000059698,279.1853604000062,280.2015488000179,280.1672041999991,None,279.1853604000062,None,279.1853604000062,None,279.1853604000062,None,281.0725492500089,None,281.0725492500089,None,281.0725492500089,None,,,,,,,,,,,114,20,Female,2022-05-04_14h12.32.515,Boat,2022.1.1,59.89828073563919,
negative,positive,2,j,l,,,,,,,,,3,2,56,15,,,,,,,,,,,,,,,,,,,,,,,,main,2,2,2,positive,negative,j,j,1,1.023717400006717,281.091305000009,282.10080790001666,282.067180300015,None,281.091305000009,None,281.091305000009,None,281.091305000009,None,283.09993865000723,None,283.09993865000723,None,283.09993865000723,None,,,,,,,,,,,114,20,Female,2022-05-04_14h12.32.515,Boat,2022.1.1,59.89828073563919,
negative,neutral,1,j,l,,,,,,,,,3,3,57,3,,,,,,,,,,,,,,,,,,,,,,,,main,1,1,1,neutral,negative,j,j,1,0.9107360999914818,283.1174982000084,284.1306508000125,284.09514160000253,None,283.1174982000084,None,283.1174982000084,None,283.1174982000084,None,285.01418295002367,None,285.01418295002367,None,285.01418295002367,None,,,,,,,,,,,114,20,Female,2022-05-04_14h12.32.515,Boat,2022.1.1,59.89828073563919,
negative,neutral,2,j,l,,,,,,,,,3,4,58,12,,,,,,,,,,,,,,,,,,,,,,,,main,2,2,2,neutral,negative,j,j,1,0.8306031999818515,285.0347575000196,286.03381390002323,286.0173597999965,None,285.0347575000196,None,285.0347575000196,None,285.0347575000196,None,286.84764005002506,None,286.84764005002506,None,286.84764005002506,None,,,,,,,,,,,114,20,Female,2022-05-04_14h12.32.515,Boat,2022.1.1,59.89828073563919,
neutral,negative,2,k,k,,,,,,,,,3,5,59,16,,,,,,,,,,,,,,,,,,,,,,,,main,2,2,2,negative,neutral,k,k,1,0.8550091999932192,286.8677456000005,287.86716429999797,287.8504278000037,None,286.8677456000005,None,286.8677456000005,None,286.8677456000005,None,288.7044074500183,None,288.7044074500183,None,288.7044074500183,None,,,,,,,,,,,114,20,Female,2022-05-04_14h12.32.515,Boat,2022.1.1,59.89828073563919,
neutral,negative,1,k,k,,,,,,,,,3,6,60,7,,,,,,,,,,,,,,,,,,,,,,,,main,2,2,1,negative,neutral,k,k,1,0.9473814000084531,288.7213931000151,289.73436040000524,289.70067290001316,None,288.7213931000151,None,288.7213931000151,None,288.7213931000151,None,290.6541165500268,None,290.6541165500268,None,290.6541165500268,None,,,,,,,,,,,114,20,Female,2022-05-04_14h12.32.515,Boat,2022.1.1,59.89828073563919,
positive,negative,1,l,j,,,,,,,,,3,7,61,5,,,,,,,,,,,,,,,,,,,,,,,,main,2,2,1,negative,positive,l,l,1,1.0897560000012163,290.6707701999985,291.6939549000235,291.6508211000182,None,290.6707701999985,None,290.6707701999985,None,290.6707701999985,None,292.74715235000184,None,292.74715235000184,None,292.74715235000184,None,,,,,,,,,,,114,20,Female,2022-05-04_14h12.32.515,Boat,2022.1.1,59.89828073563919,
neutral,neutral,2,k,k,,,,,,,,,3,8,62,10,,,,,,,,,,,,,,,,,,,,,,,,main,1,1,2,neutral,neutral,k,k,1,1.107351299986476,292.7679724000045,293.784103700018,293.7475548000075,None,292.7679724000045,None,292.7679724000045,None,292.7679724000045,None,294.85619225001136,None,294.85619225001136,None,294.85619225001136,None,,,,,,,,,,,114,20,Female,2022-05-04_14h12.32.515,Boat,2022.1.1,59.89828073563919,
negative,negative,2,j,l,,,,,,,,,3,9,63,9,,,,,,,,,,,,,,,,,,,,,,,,main,2,2,2,negative,negative,j,j,1,1.1412241000216454,294.87489170001936,295.8835336000193,295.84690790000604,None,294.87489170001936,None,294.87489170001936,None,294.87489170001936,None,297.00170615001406,None,297.00170615001406,None,297.00170615001406,None,,,,,,,,,,,114,20,Female,2022-05-04_14h12.32.515,Boat,2022.1.1,59.89828073563919,
positive,neutral,2,l,j,,,,,,,,,3,10,64,17,,,,,,,,,,,,,,,,,,,,,,,,main,2,2,2,neutral,positive,l,l,1,0.9184702000056859,297.01836010001716,298.03021880000597,298.01236849999987,None,297.01836010001716,None,297.01836010001716,None,297.01836010001716,None,298.92180845002,None,298.92180845002,None,298.92180845002,None,,,,,,,,,,,114,20,Female,2022-05-04_14h12.32.515,Boat,2022.1.1,59.89828073563919,
positive,negative,2,l,j,,,,,,,,,3,11,65,14,,,,,,,,,,,,,,,,,,,,,,,,main,2,2,2,negative,positive,l,l,1,1.0158343999937642,298.9394591000164,299.9500599000021,299.91419020001194,None,298.9394591000164,None,298.9394591000164,None,298.9394591000164,None,300.9403363500052,None,300.9403363500052,None,300.9403363500052,None,,,,,,,,,,,114,20,Female,2022-05-04_14h12.32.515,Boat,2022.1.1,59.89828073563919,
positive,positive,2,l,j,,,,,,,,,3,12,66,11,,,,,,,,,,,,,,,,,,,,,,,,main,2,2,2,positive,positive,l,l,1,0.7320875000150409,300.95853850001004,301.967521100014,301.9322111000074,None,300.95853850001004,None,300.95853850001004,None,300.95853850001004,None,302.67602305001054,None,302.67602305001054,None,302.67602305001054,None,,,,,,,,,,,114,20,Female,2022-05-04_14h12.32.515,Boat,2022.1.1,59.89828073563919,
negative,negative,1,j,l,,,,,,,,,3,13,67,0,,,,,,,,,,,,,,,,,,,,,,,,main,1,1,1,negative,negative,j,j,1,1.0776263999869116,302.69796560000395,303.7010339999979,303.66583569999784,None,302.69796560000395,None,302.69796560000395,None,302.69796560000395,None,304.75590635001134,None,304.75590635001134,None,304.75590635001134,None,,,,,,,,,,,114,20,Female,2022-05-04_14h12.32.515,Boat,2022.1.1,59.89828073563919,
positive,neutral,1,l,j,,,,,,,,,3,14,68,8,,,,,,,,,,,,,,,,,,,,,,,,main,1,1,1,neutral,positive,l,l,1,0.9151530000090133,304.7726468000037,305.78507000001264,305.7505943000142,None,304.7726468000037,None,304.7726468000037,None,304.7726468000037,None,306.67341175000473,None,306.67341175000473,None,306.67341175000473,None,,,,,,,,,,,114,20,Female,2022-05-04_14h12.32.515,Boat,2022.1.1,59.89828073563919,
positive,positive,1,l,j,,,,,,,,,3,15,69,2,,,,,,,,,,,,,,,,,,,,,,,,main,2,2,1,positive,positive,l,l,1,0.8631070000119507,306.6902102000022,307.7009188000229,307.6641277000017,None,306.6902102000022,None,306.6902102000022,None,306.6902102000022,None,308.53903595000446,None,308.53903595000446,None,308.53903595000446,None,,,,,,,,,,,114,20,Female,2022-05-04_14h12.32.515,Boat,2022.1.1,59.89828073563919,
neutral,positive,2,k,k,,,,,,,,,3,16,70,13,,,,,,,,,,,,,,,,,,,,,,,,main,1,1,2,positive,neutral,k,k,1,0.7808500000101048,308.5552670000179,309.57764670002507,309.53441560000647,None,308.5552670000179,None,308.5552670000179,None,308.5552670000179,None,310.32223755002195,None,310.32223755002195,None,310.32223755002195,None,,,,,,,,,,,114,20,Female,2022-05-04_14h12.32.515,Boat,2022.1.1,59.89828073563919,
neutral,neutral,1,k,k,,,,,,,,,3,17,71,1,,,,,,,,,,,,,,,,,,,,,,,,main,1,1,1,neutral,neutral,k,k,1,0.780962399992859,310.339802100003,311.36271840002155,311.3155362000107,None,310.339802100003,None,310.339802100003,None,310.339802100003,None,312.1063605500123,None,312.1063605500123,None,312.1063605500123,None,,,,,,,,,,,114,20,Female,2022-05-04_14h12.32.515,Boat,2022.1.1,59.89828073563919,
neutral,positive,2,k,k,,,,,,,,,4,0,72,13,,,,,,,,,,,,,,,,,,,,,,,,main,2,2,2,positive,neutral,k,k,1,0.7591631999821402,312.12296190002235,313.1349472000147,313.09841960002086,None,312.12296190002235,None,312.12296190002235,None,312.12296190002235,None,313.8683804500062,None,313.8683804500062,None,313.8683804500062,None,,,,,,,,,,,114,20,Female,2022-05-04_14h12.32.515,Boat,2022.1.1,59.89828073563919,
positive,negative,1,l,j,,,,,,,,,4,1,73,5,,,,,,,,,,,,,,,,,,,,,,,,main,1,1,1,negative,positive,l,l,1,0.9658197999815457,313.88755120002315,314.91295670002,314.86789110000245,None,313.88755120002315,None,313.88755120002315,None,313.88755120002315,None,315.8377817500179,None,315.8377817500179,None,315.8377817500179,None,,,,,,,,,,,114,20,Female,2022-05-04_14h12.32.515,Boat,2022.1.1,59.89828073563919,
positive,neutral,1,l,j,,,,,,,,,4,2,74,8,,,,,,,,,,,,,,,,,,,,,,,,main,2,2,1,neutral,positive,l,l,1,0.8151553999923635,315.8549044000101,316.86291009999695,316.8447448000079,None,315.8549044000101,None,315.8549044000101,None,315.8549044000101,None,317.654675150002,None,317.654675150002,None,317.654675150002,None,,,,,,,,,,,114,20,Female,2022-05-04_14h12.32.515,Boat,2022.1.1,59.89828073563919,
neutral,positive,1,k,k,,,,,,,,,4,3,75,4,,,,,,,,,,,,,,,,,,,,,,,,main,2,2,1,positive,neutral,k,k,1,0.8643995999882463,317.6759818000137,318.6796471000125,318.6611583000049,None,317.6759818000137,None,317.6759818000137,None,317.6759818000137,None,319.52093295002413,None,319.52093295002413,None,319.52093295002413,None,,,,,,,,,,,114,20,Female,2022-05-04_14h12.32.515,Boat,2022.1.1,59.89828073563919,
negative,negative,2,j,l,,,,,,,,,4,4,76,9,,,,,,,,,,,,,,,,,,,,,,,,main,1,1,2,negative,negative,j,j,1,0.8332418999925721,319.5416255000164,320.5512938000029,320.51694000000134,None,319.5416255000164,None,319.5416255000164,None,319.5416255000164,None,321.3600236500235,None,321.3600236500235,None,321.3600236500235,None,,,,,,,,,,,114,20,Female,2022-05-04_14h12.32.515,Boat,2022.1.1,59.89828073563919,
neutral,negative,2,k,k,,,,,,,,,4,5,77,16,,,,,,,,,,,,,,,,,,,,,,,,main,1,1,2,negative,neutral,k,k,1,0.7614712000067811,321.37969110000995,322.38486020002165,322.35061390002375,None,321.37969110000995,None,321.37969110000995,None,321.37969110000995,None,323.12356234999896,None,323.12356234999896,None,323.12356234999896,None,,,,,,,,,,,114,20,Female,2022-05-04_14h12.32.515,Boat,2022.1.1,59.89828073563919,
negative,negative,1,j,l,,,,,,,,,4,6,78,0,,,,,,,,,,,,,,,,,,,,,,,,main,1,1,1,negative,negative,j,j,1,1.764024200005224,323.1410931000137,324.1627243999974,324.1180379000143,None,323.1410931000137,None,323.1410931000137,None,323.1410931000137,None,325.8976062000147,None,325.8976062000147,None,325.8976062000147,None,,,,,,,,,,,114,20,Female,2022-05-04_14h12.32.515,Boat,2022.1.1,59.89828073563919,
negative,positive,1,j,l,,,,,,,,,4,7,79,6,,,,,,,,,,,,,,,,,,,,,,,,main,2,2,1,positive,negative,j,j,1,0.8772212999756448,326.9056868000189,327.91829440000583,327.88265919999685,None,326.9056868000189,None,326.9056868000189,None,326.9056868000189,None,328.7675970500015,None,328.7675970500015,None,328.7675970500015,None,,,,,,,,,,,114,20,Female,2022-05-04_14h12.32.515,Boat,2022.1.1,59.89828073563919,
positive,negative,2,l,j,,,,,,,,,4,8,80,14,,,,,,,,,,,,,,,,,,,,,,,,main,2,2,2,negative,positive,l,l,1,0.6547092999971937,328.7852404000005,329.80209979999927,329.7653213000158,None,328.7852404000005,None,328.7852404000005,None,328.7852404000005,None,330.4261149500118,None,330.4261149500118,None,330.4261149500118,None,,,,,,,,,,,114,20,Female,2022-05-04_14h12.32.515,Boat,2022.1.1,59.89828073563919,
positive,positive,1,l,j,,,,,,,,,4,9,81,2,,,,,,,,,,,,,,,,,,,,,,,,main,2,2,1,positive,positive,l,l,1,0.7145804000028875,330.4442605000222,331.44762869999977,331.4297940999968,None,330.4442605000222,None,330.4442605000222,None,330.4442605000222,None,332.1442376500083,None,332.1442376500083,None,332.1442376500083,None,,,,,,,,,,,114,20,Female,2022-05-04_14h12.32.515,Boat,2022.1.1,59.89828073563919,
neutral,negative,1,k,k,,,,,,,,,4,10,82,7,,,,,,,,,,,,,,,,,,,,,,,,main,2,2,1,negative,neutral,k,k,1,0.7508253999985754,332.161259400018,333.178060700011,333.1349385000067,None,332.161259400018,None,332.161259400018,None,332.161259400018,None,333.897171050022,None,333.897171050022,None,333.897171050022,None,,,,,,,,,,,114,20,Female,2022-05-04_14h12.32.515,Boat,2022.1.1,59.89828073563919,
positive,neutral,2,l,j,,,,,,,,,4,11,83,17,,,,,,,,,,,,,,,,,,,,,,,,main,1,1,2,neutral,positive,l,l,1,0.8410207999986596,333.9138051000191,334.91845320002176,334.90136750001693,None,333.9138051000191,None,333.9138051000191,None,333.9138051000191,None,335.73961145000357,None,335.73961145000357,None,335.73961145000357,None,,,,,,,,,,,114,20,Female,2022-05-04_14h12.32.515,Boat,2022.1.1,59.89828073563919,
negative,neutral,1,j,l,,,,,,,,,4,12,84,3,,,,,,,,,,,,,,,,,,,,,,,,main,2,2,1,neutral,negative,j,j,1,1.231063900020672,335.7580381000007,336.77974930001074,336.7341646999994,None,335.7580381000007,None,335.7580381000007,None,335.7580381000007,None,337.9740292500093,None,337.9740292500093,None,337.9740292500093,None,,,,,,,,,,,114,20,Female,2022-05-04_14h12.32.515,Boat,2022.1.1,59.89828073563919,
positive,positive,2,l,j,,,,,,,,,4,13,85,11,,,,,,,,,,,,,,,,,,,,,,,,main,1,1,2,positive,positive,l,l,1,0.7626629000005778,337.99370890000137,339.00167670001974,338.96529990001,None,337.99370890000137,None,337.99370890000137,None,337.99370890000137,None,339.7392036500125,None,339.7392036500125,None,339.7392036500125,None,,,,,,,,,,,114,20,Female,2022-05-04_14h12.32.515,Boat,2022.1.1,59.89828073563919,
neutral,neutral,1,k,k,,,,,,,,,4,14,86,1,,,,,,,,,,,,,,,,,,,,,,,,main,1,1,1,neutral,neutral,k,k,1,0.6979755999927875,339.75661840001703,340.7685820000188,340.73398270001053,None,339.75661840001703,None,339.75661840001703,None,339.75661840001703,None,341.44030884999955,None,341.44030884999955,None,341.44030884999955,None,,,,,,,,,,,114,20,Female,2022-05-04_14h12.32.515,Boat,2022.1.1,59.89828073563919,
negative,positive,2,j,l,,,,,,,,,4,15,87,15,,,,,,,,,,,,,,,,,,,,,,,,main,2,2,2,positive,negative,j,j,1,0.6429419000050984,341.4565071000252,342.4799078000069,342.4346437000204,None,341.4565071000252,None,341.4565071000252,None,341.4565071000252,None,343.08534125000295,None,343.08534125000295,None,343.08534125000295,None,,,,,,,,,,,114,20,Female,2022-05-04_14h12.32.515,Boat,2022.1.1,59.89828073563919,
negative,neutral,2,j,l,,,,,,,,,4,16,88,12,,,,,,,,,,,,,,,,,,,,,,,,main,2,2,2,neutral,negative,j,j,1,0.6006751000240911,343.10468600000604,344.11439830000745,344.09663159999764,None,343.10468600000604,None,343.10468600000604,None,343.10468600000604,None,344.68919715000374,None,344.68919715000374,None,344.68919715000374,None,,,,,,,,,,,114,20,Female,2022-05-04_14h12.32.515,Boat,2022.1.1,59.89828073563919,
neutral,neutral,2,k,k,,,,,,,,,4,17,89,10,,,,,,,,,,,,,,,,,,,,,,,,main,2,2,2,neutral,neutral,k,k,1,0.7775745000108145,344.70713019999675,345.72843170000124,345.68528180001886,None,344.70713019999675,None,344.70713019999675,None,344.70713019999675,None,346.4689129500213,None,346.4689129500213,None,346.4689129500213,None,,,,,,,,,,,114,20,Female,2022-05-04_14h12.32.515,Boat,2022.1.1,59.89828073563919,
positive,neutral,2,l,j,,,,,,,,,5,0,90,17,,,,,,,,,,,,,,,,,,,,,,,,main,2,2,2,neutral,positive,l,l,1,0.6975733000144828,346.4868839000119,347.50207539999974,347.46764800001984,None,346.4868839000119,None,346.4868839000119,None,346.4868839000119,None,348.17017685002355,None,348.17017685002355,None,348.17017685002355,None,,,,,,,,,,,114,20,Female,2022-05-04_14h12.32.515,Boat,2022.1.1,59.89828073563919,
neutral,positive,1,k,k,,,,,,,,,5,1,91,4,,,,,,,,,,,,,,,,,,,,,,,,main,2,2,1,positive,neutral,k,k,1,1.3493823999888264,348.18692160001956,349.20211710000876,349.1659450000152,None,348.18692160001956,None,348.18692160001956,None,348.18692160001956,None,350.52206815002427,None,350.52206815002427,None,350.52206815002427,None,,,,,,,,,,,114,20,Female,2022-05-04_14h12.32.515,Boat,2022.1.1,59.89828073563919,
neutral,neutral,2,k,k,,,,,,,,,5,2,92,10,,,,,,,,,,,,,,,,,,,,,,,,main,1,1,2,neutral,neutral,k,k,1,0.7309147999912966,350.5382967000187,351.5505860999983,351.513580800005,None,350.5382967000187,None,350.5382967000187,None,350.5382967000187,None,352.2551346500142,None,352.2551346500142,None,352.2551346500142,None,,,,,,,,,,,114,20,Female,2022-05-04_14h12.32.515,Boat,2022.1.1,59.89828073563919,
neutral,negative,2,k,k,,,,,,,,,5,3,93,16,,,,,,,,,,,,,,,,,,,,,,,,main,2,2,2,negative,neutral,k,k,1,0.6822705000231508,352.27397140001995,353.29682060002233,353.25214810000034,None,352.27397140001995,None,352.27397140001995,None,352.27397140001995,None,353.94044755000795,None,353.94044755000795,None,353.94044755000795,None,,,,,,,,,,,114,20,Female,2022-05-04_14h12.32.515,Boat,2022.1.1,59.89828073563919,
positive,positive,2,l,j,,,,,,,,,5,4,94,11,,,,,,,,,,,,,,,,,,,,,,,,main,2,2,2,positive,positive,l,l,1,0.6286939999845345,353.95879410000634,354.9784425999969,354.9354592000018,None,353.95879410000634,None,353.95879410000634,None,353.95879410000634,None,355.5726746500033,None,355.5726746500033,None,355.5726746500033,None,,,,,,,,,,,114,20,Female,2022-05-04_14h12.32.515,Boat,2022.1.1,59.89828073563919,
negative,positive,1,j,l,,,,,,,,,5,5,95,6,,,,,,,,,,,,,,,,,,,,,,,,main,1,1,1,positive,negative,j,j,1,0.6457400000072084,355.5889299999981,356.61367880000034,356.5682976000244,None,355.5889299999981,None,355.5889299999981,None,355.5889299999981,None,357.2214912500087,None,357.2214912500087,None,357.2214912500087,None,,,,,,,,,,,114,20,Female,2022-05-04_14h12.32.515,Boat,2022.1.1,59.89828073563919,
neutral,neutral,1,k,k,,,,,,,,,5,6,96,1,,,,,,,,,,,,,,,,,,,,,,,,main,1,1,1,neutral,neutral,k,k,1,0.7994229000178166,357.2384153000021,358.2524540000013,358.2159806000127,None,357.2384153000021,None,357.2384153000021,None,357.2384153000021,None,359.02309505001466,None,359.02309505001466,None,359.02309505001466,None,,,,,,,,,,,114,20,Female,2022-05-04_14h12.32.515,Boat,2022.1.1,59.89828073563919,
negative,neutral,2,j,l,,,,,,,,,5,7,97,12,,,,,,,,,,,,,,,,,,,,,,,,main,2,2,2,neutral,negative,j,j,1,0.7647548000095412,359.0400540000119,360.05442240001867,360.0188717000128,None,359.0400540000119,None,359.0400540000119,None,359.0400540000119,None,360.79011595002083,None,360.79011595002083,None,360.79011595002083,None,,,,,,,,,,,114,20,Female,2022-05-04_14h12.32.515,Boat,2022.1.1,59.89828073563919,
neutral,positive,2,k,k,,,,,,,,,5,8,98,13,,,,,,,,,,,,,,,,,,,,,,,,main,2,2,2,positive,neutral,k,k,1,0.6124125999922398,360.8064272000047,361.82893879999756,361.7857682000031,None,360.8064272000047,None,360.8064272000047,None,360.8064272000047,None,362.40495265001954,None,362.40495265001954,None,362.40495265001954,None,,,,,,,,,,,114,20,Female,2022-05-04_14h12.32.515,Boat,2022.1.1,59.89828073563919,
positive,neutral,1,l,j,,,,,,,,,5,9,99,8,,,,,,,,,,,,,,,,,,,,,,,,main,1,1,1,neutral,positive,l,l,1,0.8173289000114892,362.42103759999736,363.4454990000231,363.4022868000029,None,362.42103759999736,None,362.42103759999736,None,362.42103759999736,None,364.22342195001255,None,364.22342195001255,None,364.22342195001255,None,,,,,,,,,,,114,20,Female,2022-05-04_14h12.32.515,Boat,2022.1.1,59.89828073563919,
neutral,negative,1,k,k,,,,,,,,,5,10,100,7,,,,,,,,,,,,,,,,,,,,,,,,main,1,1,1,negative,neutral,k,k,1,0.7130474000005051,364.2416969000187,365.2522312000219,365.2190833000059,None,364.2416969000187,None,364.2416969000187,None,364.2416969000187,None,365.9405620500067,None,365.9405620500067,None,365.9405620500067,None,,,,,,,,,,,114,20,Female,2022-05-04_14h12.32.515,Boat,2022.1.1,59.89828073563919,
negative,negative,1,j,l,,,,,,,,,5,11,101,0,,,,,,,,,,,,,,,,,,,,,,,,main,1,1,1,negative,negative,j,j,1,0.8979624999919906,365.9568214000028,366.98077860000194,366.9362891000055,None,365.9568214000028,None,365.9568214000028,None,365.9568214000028,None,367.84011605000995,None,367.84011605000995,None,367.84011605000995,None,,,,,,,,,,,114,20,Female,2022-05-04_14h12.32.515,Boat,2022.1.1,59.89828073563919,
negative,positive,2,j,l,,,,,,,,,5,12,102,15,,,,,,,,,,,,,,,,,,,,,,,,main,1,1,2,positive,negative,j,j,1,0.9447207000048365,367.8582510999986,368.88129600000684,368.83514770001057,None,367.8582510999986,None,367.8582510999986,None,367.8582510999986,None,369.78671495002635,None,369.78671495002635,None,369.78671495002635,None,,,,,,,,,,,114,20,Female,2022-05-04_14h12.32.515,Boat,2022.1.1,59.89828073563919,
positive,negative,2,l,j,,,,,,,,,5,13,103,14,,,,,,,,,,,,,,,,,,,,,,,,main,1,1,2,negative,positive,l,l,1,0.9261834000062663,369.8054476000252,370.8189446000033,370.78591880001477,None,369.8054476000252,None,369.8054476000252,None,369.8054476000252,None,371.7178410500084,None,371.7178410500084,None,371.7178410500084,None,,,,,,,,,,,114,20,Female,2022-05-04_14h12.32.515,Boat,2022.1.1,59.89828073563919,
positive,negative,1,l,j,,,,,,,,,5,14,104,5,,,,,,,,,,,,,,,,,,,,,,,,main,2,2,1,negative,positive,l,l,1,0.8357310999999754,371.73437980000745,372.73586410001735,372.71912860000157,None,371.73437980000745,None,371.73437980000745,None,371.73437980000745,None,373.5554849500215,None,373.5554849500215,None,373.5554849500215,None,,,,,,,,,,,114,20,Female,2022-05-04_14h12.32.515,Boat,2022.1.1,59.89828073563919,
positive,positive,1,l,j,,,,,,,,,5,15,105,2,,,,,,,,,,,,,,,,,,,,,,,,main,2,2,1,positive,positive,l,l,1,0.681630100007169,373.5736676000233,374.5883436000149,374.55380540000624,None,373.5736676000233,None,373.5736676000233,None,373.5736676000233,None,375.23863195002485,None,375.23863195002485,None,375.23863195002485,None,,,,,,,,,,,114,20,Female,2022-05-04_14h12.32.515,Boat,2022.1.1,59.89828073563919,
negative,neutral,1,j,l,,,,,,,,,5,16,106,3,,,,,,,,,,,,,,,,,,,,,,,,main,1,1,1,neutral,negative,j,j,1,0.7655445999989752,375.25769150000997,376.2691354000126,376.23208280000836,None,375.25769150000997,None,375.25769150000997,None,375.25769150000997,None,377.00811995001567,None,377.00811995001567,None,377.00811995001567,None,,,,,,,,,,,114,20,Female,2022-05-04_14h12.32.515,Boat,2022.1.1,59.89828073563919,
negative,negative,2,j,l,,,,,,,,,5,17,107,9,,,,,,,,,,,,,,,,,,,,,,,,main,1,1,2,negative,negative,j,j,1,0.9525352999917232,377.02497140000924,378.0458333000133,378.0028185000119,None,377.02497140000924,None,377.02497140000924,None,377.02497140000924,None,378.96420005002,None,378.96420005002,None,378.96420005002,None,,,,,,,,,,,114,20,Female,2022-05-04_14h12.32.515,Boat,2022.1.1,59.89828073563919,
negative,negative,1,j,l,,,,,,,,,6,0,108,0,,,,,,,,,,,,,,,,,,,,,,,,main,1,1,1,negative,negative,j,j,1,1.1923383999965154,378.98145020002266,379.9881166999985,379.96839150000596,None,378.98145020002266,None,378.98145020002266,None,378.98145020002266,None,381.15781415000964,None,381.15781415000964,None,381.15781415000964,None,,,,,,,,,,,114,20,Female,2022-05-04_14h12.32.515,Boat,2022.1.1,59.89828073563919,
positive,neutral,1,l,j,,,,,,,,,6,1,109,8,,,,,,,,,,,,,,,,,,,,,,,,main,1,1,1,neutral,positive,l,l,1,0.8162731000047643,381.1757344000216,382.19595500000287,382.15274280001177,None,381.1757344000216,None,381.1757344000216,None,381.1757344000216,None,382.977188550026,None,382.977188550026,None,382.977188550026,None,,,,,,,,,,,114,20,Female,2022-05-04_14h12.32.515,Boat,2022.1.1,59.89828073563919,
negative,positive,1,j,l,,,,,,,,,6,2,110,6,,,,,,,,,,,,,,,,,,,,,,,,main,2,2,1,positive,negative,j,j,1,0.8469391999824438,382.99448410002515,384.00334440000006,383.96674730000086,None,382.99448410002515,None,382.99448410002515,None,382.99448410002515,None,384.82656455002433,None,384.82656455002433,None,384.82656455002433,None,,,,,,,,,,,114,20,Female,2022-05-04_14h12.32.515,Boat,2022.1.1,59.89828073563919,
positive,positive,2,l,j,,,,,,,,,6,3,111,11,,,,,,,,,,,,,,,,,,,,,,,,main,1,1,2,positive,positive,l,l,1,0.8971488999959547,384.8445265000046,385.864204100013,385.8192456999968,None,384.8445265000046,None,384.8445265000046,None,384.8445265000046,None,386.72708035001705,None,386.72708035001705,None,386.72708035001705,None,,,,,,,,,,,114,20,Female,2022-05-04_14h12.32.515,Boat,2022.1.1,59.89828073563919,
negative,neutral,1,j,l,,,,,,,,,6,4,112,3,,,,,,,,,,,,,,,,,,,,,,,,main,2,2,1,neutral,negative,j,j,1,0.8793362000142224,386.7451967000088,387.7624740000174,387.71970430001966,None,386.7451967000088,None,386.7451967000088,None,386.7451967000088,None,388.60858005000335,None,388.60858005000335,None,388.60858005000335,None,,,,,,,,,,,114,20,Female,2022-05-04_14h12.32.515,Boat,2022.1.1,59.89828073563919,
neutral,negative,2,k,k,,,,,,,,,6,5,113,16,,,,,,,,,,,,,,,,,,,,,,,,main,1,1,2,negative,neutral,k,k,1,1.1667940999905113,388.6259100000025,389.63788500000373,389.6029105000198,None,388.6259100000025,None,388.6259100000025,None,388.6259100000025,None,390.7789134500228,None,390.7789134500228,None,390.7789134500228,None,,,,,,,,,,,114,20,Female,2022-05-04_14h12.32.515,Boat,2022.1.1,59.89828073563919,
neutral,neutral,1,k,k,,,,,,,,,6,6,114,1,,,,,,,,,,,,,,,,,,,,,,,,main,1,1,1,neutral,neutral,k,j,0,1.9755415999970865,390.7977666000079,391.81444110002485,391.76970679999795,None,390.7977666000079,None,390.7977666000079,None,390.7977666000079,None,393.7612438000215,None,393.7612438000215,None,393.7612438000215,None,,,,,,,,,,,114,20,Female,2022-05-04_14h12.32.515,Boat,2022.1.1,59.89828073563919,
positive,negative,2,l,j,,,,,,,,,6,7,115,14,,,,,,,,,,,,,,,,,,,,,,,,main,2,2,2,negative,positive,l,l,1,1.1185822999977972,394.775156800024,395.78287550000823,395.76548410000396,None,394.775156800024,None,394.775156800024,None,394.775156800024,None,396.8754173500085,None,396.8754173500085,None,396.8754173500085,None,,,,,,,,,,,114,20,Female,2022-05-04_14h12.32.515,Boat,2022.1.1,59.89828073563919,
neutral,positive,1,k,k,,,,,,,,,6,8,116,4,,,,,,,,,,,,,,,,,,,,,,,,main,2,2,1,positive,neutral,k,k,1,0.9619980999850668,396.8986780999985,397.89980730001116,397.88123100000666,None,396.8986780999985,None,396.8986780999985,None,396.8986780999985,None,398.8418361500109,None,398.8418361500109,None,398.8418361500109,None,,,,,,,,,,,114,20,Female,2022-05-04_14h12.32.515,Boat,2022.1.1,59.89828073563919,
negative,negative,2,j,l,,,,,,,,,6,9,117,9,,,,,,,,,,,,,,,,,,,,,,,,main,1,1,2,negative,negative,j,j,1,1.3605404999980237,398.8578342999972,399.86624170001596,399.8480699000065,None,398.8578342999972,None,398.8578342999972,None,398.8578342999972,None,401.2048944500013,None,401.2048944500013,None,401.2048944500013,None,,,,,,,,,,,114,20,Female,2022-05-04_14h12.32.515,Boat,2022.1.1,59.89828073563919,
negative,positive,2,j,l,,,,,,,,,6,10,118,15,,,,,,,,,,,,,,,,,,,,,,,,main,2,2,2,positive,negative,j,j,1,0.7200434999831486,401.2236513000098,402.2464497000037,402.2033066000149,None,401.2236513000098,None,401.2236513000098,None,401.2236513000098,None,402.9284908500005,None,402.9284908500005,None,402.9284908500005,None,,,,,,,,,,,114,20,Female,2022-05-04_14h12.32.515,Boat,2022.1.1,59.89828073563919,
positive,negative,1,l,j,,,,,,,,,6,11,119,5,,,,,,,,,,,,,,,,,,,,,,,,main,1,1,1,negative,positive,l,l,1,0.7762732999981381,402.9467745000147,403.9515582000022,403.9330996000208,None,402.9467745000147,None,402.9467745000147,None,402.9467745000147,None,404.70701845002185,None,404.70701845002185,None,404.70701845002185,None,,,,,,,,,,,114,20,Female,2022-05-04_14h12.32.515,Boat,2022.1.1,59.89828073563919,
neutral,positive,2,k,k,,,,,,,,,6,12,120,13,,,,,,,,,,,,,,,,,,,,,,,,main,2,2,2,positive,neutral,k,k,1,0.7344783000007737,404.72588110002107,405.73668920001364,405.7031558000017,None,404.72588110002107,None,404.72588110002107,None,404.72588110002107,None,406.4456310500129,None,406.4456310500129,None,406.4456310500129,None,,,,,,,,,,,114,20,Female,2022-05-04_14h12.32.515,Boat,2022.1.1,59.89828073563919,
negative,neutral,2,j,l,,,,,,,,,6,13,121,12,,,,,,,,,,,,,,,,,,,,,,,,main,2,2,2,neutral,negative,j,j,1,1.1330169000138994,406.46266180000384,407.4698281000019,407.43668640000396,None,406.46266180000384,None,406.46266180000384,None,406.46266180000384,None,408.58005055002576,None,408.58005055002576,None,408.58005055002576,None,,,,,,,,,,,114,20,Female,2022-05-04_14h12.32.515,Boat,2022.1.1,59.89828073563919,
positive,positive,1,l,j,,,,,,,,,6,14,122,2,,,,,,,,,,,,,,,,,,,,,,,,main,2,2,1,positive,positive,l,l,1,0.8608134999813046,408.6031444000255,409.62057950001326,409.5782321000006,None,408.6031444000255,None,408.6031444000255,None,408.6031444000255,None,410.44453125002036,None,410.44453125002036,None,410.44453125002036,None,,,,,,,,,,,114,20,Female,2022-05-04_14h12.32.515,Boat,2022.1.1,59.89828073563919,
neutral,negative,1,k,k,,,,,,,,,6,15,123,7,,,,,,,,,,,,,,,,,,,,,,,,main,2,2,1,negative,neutral,k,k,1,0.7862667000154033,410.4640652000089,411.47022850002395,411.45337640002253,None,410.4640652000089,None,410.4640652000089,None,410.4640652000089,None,412.2348666500213,None,412.2348666500213,None,412.2348666500213,None,,,,,,,,,,,114,20,Female,2022-05-04_14h12.32.515,Boat,2022.1.1,59.89828073563919,
positive,neutral,2,l,j,,,,,,,,,6,16,124,17,,,,,,,,,,,,,,,,,,,,,,,,main,2,2,2,neutral,positive,l,l,1,1.0899993999919388,412.25378250001813,413.2813755000243,413.2359696000058,None,412.25378250001813,None,412.25378250001813,None,412.25378250001813,None,414.3283544500038,None,414.3283544500038,None,414.3283544500038,None,,,,,,,,,,,114,20,Female,2022-05-04_14h12.32.515,Boat,2022.1.1,59.89828073563919,
neutral,neutral,2,k,k,,,,,,,,,6,17,125,10,,,,,,,,,,,,,,,,,,,,,,,,main,2,2,2,neutral,neutral,k,k,1,0.7589453000109643,414.34564820001833,415.363457200001,415.31994549999945,None,414.34564820001833,None,414.34564820001833,None,414.34564820001833,None,416.08914245001796,None,416.08914245001796,None,416.08914245001796,None,,,,,,,,,,,114,20,Female,2022-05-04_14h12.32.515,Boat,2022.1.1,59.89828073563919,
positive,neutral,1,l,j,,,,,,,,,7,0,126,8,,,,,,,,,,,,,,,,,,,,,,,,main,1,1,1,neutral,positive,l,l,1,0.7889962999906857,416.1056944000011,417.11894770001527,417.0817583000171,None,416.1056944000011,None,416.1056944000011,None,416.1056944000011,None,417.88146265002723,None,417.88146265002723,None,417.88146265002723,None,,,,,,,,,,,114,20,Female,2022-05-04_14h12.32.515,Boat,2022.1.1,59.89828073563919,
positive,negative,2,l,j,,,,,,,,,7,1,127,14,,,,,,,,,,,,,,,,,,,,,,,,main,1,1,2,negative,positive,l,l,1,0.6757680999871809,417.9015091000183,418.91351520002354,418.8701558000175,None,417.9015091000183,None,417.9015091000183,None,417.9015091000183,None,419.559012350018,None,419.559012350018,None,419.559012350018,None,,,,,,,,,,,114,20,Female,2022-05-04_14h12.32.515,Boat,2022.1.1,59.89828073563919,
neutral,positive,1,k,k,,,,,,,,,7,2,128,4,,,,,,,,,,,,,,,,,,,,,,,,main,1,1,1,positive,neutral,k,k,1,0.6976321999973152,419.57602690000203,420.58176850000746,420.56326100000297,None,419.57602690000203,None,419.57602690000203,None,419.57602690000203,None,421.2590372500155,None,421.2590372500155,None,421.2590372500155,None,,,,,,,,,,,114,20,Female,2022-05-04_14h12.32.515,Boat,2022.1.1,59.89828073563919,
negative,negative,2,j,l,,,,,,,,,7,3,129,9,,,,,,,,,,,,,,,,,,,,,,,,main,2,2,2,negative,negative,j,j,1,0.8562631999957375,421.2756778000039,422.28712860000087,422.2495912000013,None,421.2756778000039,None,421.2756778000039,None,421.2756778000039,None,423.11886135000094,None,423.11886135000094,None,423.11886135000094,None,,,,,,,,,,,114,20,Female,2022-05-04_14h12.32.515,Boat,2022.1.1,59.89828073563919,
negative,positive,1,j,l,,,,,,,,,7,4,130,6,,,,,,,,,,,,,,,,,,,,,,,,main,1,1,1,positive,negative,j,j,1,0.9057172999891918,423.13729450001847,424.13714790000813,424.1198487000074,None,423.13729450001847,None,423.13729450001847,None,423.13729450001847,None,425.02645925001997,None,425.02645925001997,None,425.02645925001997,None,,,,,,,,,,,114,20,Female,2022-05-04_14h12.32.515,Boat,2022.1.1,59.89828073563919,
negative,neutral,1,j,l,,,,,,,,,7,5,131,3,,,,,,,,,,,,,,,,,,,,,,,,main,1,1,1,neutral,negative,j,j,1,0.6576478999922983,425.0435037999996,426.0634359999967,426.0203173000191,None,425.0435037999996,None,425.0435037999996,None,425.0435037999996,None,426.6877414500079,None,426.6877414500079,None,426.6877414500079,None,,,,,,,,,,,114,20,Female,2022-05-04_14h12.32.515,Boat,2022.1.1,59.89828073563919,
positive,negative,1,l,j,,,,,,,,,7,6,132,5,,,,,,,,,,,,,,,,,,,,,,,,main,1,1,1,negative,positive,l,l,1,0.8834402000065893,426.70445650001056,427.72022149999975,427.6849554000073,None,426.70445650001056,None,426.70445650001056,None,426.70445650001056,None,428.57346965000323,None,428.57346965000323,None,428.57346965000323,None,,,,,,,,,,,114,20,Female,2022-05-04_14h12.32.515,Boat,2022.1.1,59.89828073563919,
neutral,positive,2,k,k,,,,,,,,,7,7,133,13,,,,,,,,,,,,,,,,,,,,,,,,main,1,1,2,positive,neutral,k,k,1,0.7517439999792259,428.5910905000055,429.6039759000123,429.56923190000816,None,428.5910905000055,None,428.5910905000055,None,428.5910905000055,None,430.32612495002394,None,430.32612495002394,None,430.32612495002394,None,,,,,,,,,,,114,20,Female,2022-05-04_14h12.32.515,Boat,2022.1.1,59.89828073563919,
positive,neutral,2,l,j,,,,,,,,,7,8,134,17,,,,,,,,,,,,,,,,,,,,,,,,main,2,2,2,neutral,positive,l,l,1,1.0395995000144467,430.34513480000896,431.3536556000181,431.3197361000057,None,430.34513480000896,None,430.34513480000896,None,430.34513480000896,None,432.37048875002364,None,432.37048875002364,None,432.37048875002364,None,,,,,,,,,,,114,20,Female,2022-05-04_14h12.32.515,Boat,2022.1.1,59.89828073563919,
negative,negative,1,j,l,,,,,,,,,7,9,135,0,,,,,,,,,,,,,,,,,,,,,,,,main,1,1,1,negative,negative,j,j,1,0.7742727999866474,432.3886189000041,433.3882240000239,433.3713259000215,None,432.3886189000041,None,432.3886189000041,None,432.3886189000041,None,434.14868215000314,None,434.14868215000314,None,434.14868215000314,None,,,,,,,,,,,114,20,Female,2022-05-04_14h12.32.515,Boat,2022.1.1,59.89828073563919,
neutral,negative,1,k,k,,,,,,,,,7,10,136,7,,,,,,,,,,,,,,,,,,,,,,,,main,2,2,1,negative,neutral,k,k,1,0.7407192999962717,434.16855020000366,435.1701032000128,435.1521256999986,None,434.16855020000366,None,434.16855020000366,None,434.16855020000366,None,435.8898876500054,None,435.8898876500054,None,435.8898876500054,None,,,,,,,,,,,114,20,Female,2022-05-04_14h12.32.515,Boat,2022.1.1,59.89828073563919,
neutral,neutral,1,k,k,,,,,,,,,7,11,137,1,,,,,,,,,,,,,,,,,,,,,,,,main,2,2,1,neutral,neutral,k,k,1,0.7638749999750871,435.9075165000104,436.9306186000176,436.8874882000091,None,435.9075165000104,None,435.9075165000104,None,435.9075165000104,None,437.656569750022,None,437.656569750022,None,437.656569750022,None,,,,,,,,,,,114,20,Female,2022-05-04_14h12.32.515,Boat,2022.1.1,59.89828073563919,
negative,neutral,2,j,l,,,,,,,,,7,12,138,12,,,,,,,,,,,,,,,,,,,,,,,,main,1,1,2,neutral,negative,j,k,0,1.2451147999963723,437.6749011000211,438.6968920000072,438.6542666000023,None,437.6749011000211,None,437.6749011000211,None,437.6749011000211,None,439.9095481999975,None,439.9095481999975,None,439.9095481999975,None,,,,,,,,,,,114,20,Female,2022-05-04_14h12.32.515,Boat,2022.1.1,59.89828073563919,
neutral,negative,2,k,k,,,,,,,,,7,13,139,16,,,,,,,,,,,,,,,,,,,,,,,,main,2,2,2,negative,neutral,k,k,1,0.9796856000029948,440.92366500000935,441.9471504999965,441.9043460999965,None,440.92366500000935,None,440.92366500000935,None,440.92366500000935,None,442.8886847500136,None,442.8886847500136,None,442.8886847500136,None,,,,,,,,,,,114,20,Female,2022-05-04_14h12.32.515,Boat,2022.1.1,59.89828073563919,
neutral,neutral,2,k,k,,,,,,,,,7,14,140,10,,,,,,,,,,,,,,,,,,,,,,,,main,1,1,2,neutral,neutral,k,k,1,0.7113401000096928,442.90532910000184,443.93072329999995,443.8871549000032,None,442.90532910000184,None,442.90532910000184,None,442.90532910000184,None,444.60346554999995,None,444.60346554999995,None,444.60346554999995,None,,,,,,,,,,,114,20,Female,2022-05-04_14h12.32.515,Boat,2022.1.1,59.89828073563919,
negative,positive,2,j,l,,,,,,,,,7,15,141,15,,,,,,,,,,,,,,,,,,,,,,,,main,1,1,2,positive,negative,j,j,1,0.9654370000062045,444.6210435999965,445.630656000023,445.6041038999974,None,444.6210435999965,None,444.6210435999965,None,444.6210435999965,None,446.57173255001834,None,446.57173255001834,None,446.57173255001834,None,,,,,,,,,,,114,20,Female,2022-05-04_14h12.32.515,Boat,2022.1.1,59.89828073563919,
positive,positive,2,l,j,,,,,,,,,7,16,142,11,,,,,,,,,,,,,,,,,,,,,,,,main,2,2,2,positive,positive,l,l,1,0.7630782999913208,446.5906549000065,447.6041441000125,447.5678486000106,None,446.5906549000065,None,446.5906549000065,None,446.5906549000065,None,448.33793915002315,None,448.33793915002315,None,448.33793915002315,None,,,,,,,,,,,114,20,Female,2022-05-04_14h12.32.515,Boat,2022.1.1,59.89828073563919,
positive,positive,1,l,j,,,,,,,,,7,17,143,2,,,,,,,,,,,,,,,,,,,,,,,,main,1,1,1,positive,positive,l,l,1,1.03973180000321,448.3559728000255,449.3805065000197,449.3375156999973,None,448.3559728000255,None,448.3559728000255,None,448.3559728000255,None,450.38105655002,None,450.38105655002,None,450.38105655002,None,,,,,,,,,,,114,20,Female,2022-05-04_14h12.32.515,Boat,2022.1.1,59.89828073563919,
positive,positive,1,l,j,,,,,,,,,8,0,144,2,,,,,,,,,,,,,,,,,,,,,,,,main,2,2,1,positive,positive,l,l,1,0.645946400007233,450.40278580001905,451.4082261000003,451.37255700002424,None,450.40278580001905,None,450.40278580001905,None,450.40278580001905,None,452.02986465001885,None,452.02986465001885,None,452.02986465001885,None,,,,,,,,,,,114,20,Female,2022-05-04_14h12.32.515,Boat,2022.1.1,59.89828073563919,
negative,neutral,1,j,l,,,,,,,,,8,1,145,3,,,,,,,,,,,,,,,,,,,,,,,,main,1,1,1,neutral,negative,j,j,1,0.9759151999896858,452.0463493000134,453.0493107000075,453.0306702000089,None,452.0463493000134,None,452.0463493000134,None,452.0463493000134,None,454.00805845001304,None,454.00805845001304,None,454.00805845001304,None,,,,,,,,,,,114,20,Female,2022-05-04_14h12.32.515,Boat,2022.1.1,59.89828073563919,
neutral,positive,1,k,k,,,,,,,,,8,2,146,4,,,,,,,,,,,,,,,,,,,,,,,,main,1,1,1,positive,neutral,k,k,1,0.7434483999968506,454.02311840001494,455.0366711000097,454.9991609000135,None,454.02311840001494,None,454.02311840001494,None,454.02311840001494,None,455.75448435001016,None,455.75448435001016,None,455.75448435001016,None,,,,,,,,,,,114,20,Female,2022-05-04_14h12.32.515,Boat,2022.1.1,59.89828073563919,
negative,positive,2,j,l,,,,,,,,,8,3,147,15,,,,,,,,,,,,,,,,,,,,,,,,main,2,2,2,positive,negative,j,j,1,0.8967194000142626,455.7710554000223,456.7712094000017,456.75454750002245,None,455.7710554000223,None,455.7710554000223,None,455.7710554000223,None,457.65467605000885,None,457.65467605000885,None,457.65467605000885,None,,,,,,,,,,,114,20,Female,2022-05-04_14h12.32.515,Boat,2022.1.1,59.89828073563919,
positive,positive,2,l,j,,,,,,,,,8,4,148,11,,,,,,,,,,,,,,,,,,,,,,,,main,2,2,2,positive,positive,l,l,1,0.8286309999821242,457.6713995000173,458.68784860000596,458.65106760000344,None,457.6713995000173,None,457.6713995000173,None,457.6713995000173,None,459.48643505000217,None,459.48643505000217,None,459.48643505000217,None,,,,,,,,,,,114,20,Female,2022-05-04_14h12.32.515,Boat,2022.1.1,59.89828073563919,
neutral,neutral,2,k,k,,,,,,,,,8,5,149,10,,,,,,,,,,,,,,,,,,,,,,,,main,2,2,2,neutral,neutral,k,k,1,0.7701021000102628,459.50512470002286,460.5045469000179,460.48807130000205,None,459.50512470002286,None,459.50512470002286,None,459.50512470002286,None,461.259993250019,None,461.259993250019,None,461.259993250019,None,,,,,,,,,,,114,20,Female,2022-05-04_14h12.32.515,Boat,2022.1.1,59.89828073563919,
positive,negative,1,l,j,,,,,,,,,8,6,150,5,,,,,,,,,,,,,,,,,,,,,,,,main,2,2,1,negative,positive,l,l,1,1.047704500000691,461.2775215000147,462.29918450000696,462.25307330000214,None,461.2775215000147,None,461.2775215000147,None,461.2775215000147,None,463.31026395000225,None,463.31026395000225,None,463.31026395000225,None,,,,,,,,,,,114,20,Female,2022-05-04_14h12.32.515,Boat,2022.1.1,59.89828073563919,
positive,negative,2,l,j,,,,,,,,,8,7,151,14,,,,,,,,,,,,,,,,,,,,,,,,main,1,1,2,negative,positive,l,l,1,1.0034675000060815,463.32727520001936,464.3479747000092,464.3044908000156,None,463.32727520001936,None,463.32727520001936,None,463.32727520001936,None,465.3172041500249,None,465.3172041500249,None,465.3172041500249,None,,,,,,,,,,,114,20,Female,2022-05-04_14h12.32.515,Boat,2022.1.1,59.89828073563919,
neutral,negative,2,k,k,,,,,,,,,8,8,152,16,,,,,,,,,,,,,,,,,,,,,,,,main,2,2,2,negative,neutral,k,k,1,1.1078035999962594,465.33466650001355,466.35389630001737,466.3162329000188,None,465.33466650001355,None,465.33466650001355,None,465.33466650001355,None,467.4270762500266,None,467.4270762500266,None,467.4270762500266,None,,,,,,,,,,,114,20,Female,2022-05-04_14h12.32.515,Boat,2022.1.1,59.89828073563919,
negative,positive,1,j,l,,,,,,,,,8,9,153,6,,,,,,,,,,,,,,,,,,,,,,,,main,1,1,1,positive,negative,j,j,1,0.8937240000232123,467.4436505000049,468.4546962000022,468.41980070000864,None,467.4436505000049,None,467.4436505000049,None,467.4436505000049,None,469.32326905001827,None,469.32326905001827,None,469.32326905001827,None,,,,,,,,,,,114,20,Female,2022-05-04_14h12.32.515,Boat,2022.1.1,59.89828073563919,
positive,neutral,2,l,j,,,,,,,,,8,10,154,17,,,,,,,,,,,,,,,,,,,,,,,,main,1,1,2,neutral,positive,l,l,1,0.8872797999938484,469.3394746000122,470.36418770000455,470.32143080001697,None,469.3394746000122,None,469.3394746000122,None,469.3394746000122,None,471.21377765000506,None,471.21377765000506,None,471.21377765000506,None,,,,,,,,,,,114,20,Female,2022-05-04_14h12.32.515,Boat,2022.1.1,59.89828073563919,
negative,neutral,2,j,l,,,,,,,,,8,11,155,12,,,,,,,,,,,,,,,,,,,,,,,,main,1,1,2,neutral,negative,j,j,1,1.021643900021445,471.2306035000074,472.2476213000191,472.2047793000238,None,471.2306035000074,None,471.2306035000074,None,471.2306035000074,None,473.2382669500104,None,473.2382669500104,None,473.2382669500104,None,,,,,,,,,,,114,20,Female,2022-05-04_14h12.32.515,Boat,2022.1.1,59.89828073563919,
neutral,positive,2,k,k,,,,,,,,,8,12,156,13,,,,,,,,,,,,,,,,,,,,,,,,main,2,2,2,positive,neutral,k,k,1,1.1720201999996789,473.2577008000226,474.269824100018,474.23286680001183,None,473.2577008000226,None,473.2577008000226,None,473.2577008000226,None,475.41178635001705,None,475.41178635001705,None,475.41178635001705,None,,,,,,,,,,,114,20,Female,2022-05-04_14h12.32.515,Boat,2022.1.1,59.89828073563919,
negative,negative,1,j,l,,,,,,,,,8,13,157,0,,,,,,,,,,,,,,,,,,,,,,,,main,1,1,1,negative,negative,j,j,1,1.3307421999925282,475.4307727999985,476.4379003000213,476.41921780002303,None,475.4307727999985,None,475.4307727999985,None,475.4307727999985,None,477.74737925001244,None,477.74737925001244,None,477.74737925001244,None,,,,,,,,,,,114,20,Female,2022-05-04_14h12.32.515,Boat,2022.1.1,59.89828073563919,
neutral,neutral,1,k,k,,,,,,,,,8,14,158,1,,,,,,,,,,,,,,,,,,,,,,,,main,2,2,1,neutral,neutral,k,k,1,0.9717371999868192,477.7661248000222,478.7714075999975,478.73638180000125,None,477.7661248000222,None,477.7661248000222,None,477.7661248000222,None,479.7218935500161,None,479.7218935500161,None,479.7218935500161,None,,,,,,,,,,,114,20,Female,2022-05-04_14h12.32.515,Boat,2022.1.1,59.89828073563919,
positive,neutral,1,l,j,,,,,,,,,8,15,159,8,,,,,,,,,,,,,,,,,,,,,,,,main,2,2,1,neutral,positive,l,l,1,0.9215640999900643,479.7379693000112,480.7519810000085,480.7334643000213,None,479.7379693000112,None,479.7379693000112,None,479.7379693000112,None,481.6450386500248,None,481.6450386500248,None,481.6450386500248,None,,,,,,,,,,,114,20,Female,2022-05-04_14h12.32.515,Boat,2022.1.1,59.89828073563919,
negative,negative,2,j,l,,,,,,,,,8,16,160,9,,,,,,,,,,,,,,,,,,,,,,,,main,2,2,2,negative,negative,j,j,1,0.8067671000026166,481.66204120000475,482.6734714000195,482.6398302000016,None,481.66204120000475,None,481.66204120000475,None,481.66204120000475,None,483.4552160500054,None,483.4552160500054,None,483.4552160500054,None,,,,,,,,,,,114,20,Female,2022-05-04_14h12.32.515,Boat,2022.1.1,59.89828073563919,
neutral,negative,1,k,k,,,,,,,,,8,17,161,7,,,,,,,,,,,,,,,,,,,,,,,,main,1,1,1,negative,neutral,k,k,1,0.9822531999961939,483.47452720001456,484.4884910999972,484.45220540001174,None,483.47452720001456,None,483.47452720001456,None,483.47452720001456,None,485.4399620500073,None,485.4399620500073,None,485.4399620500073,None,,,,,,,,,,,114,20,Female,2022-05-04_14h12.32.515,Boat,2022.1.1,59.89828073563919,
negative,positive,2,j,l,,,,,,,,,9,0,162,15,,,,,,,,,,,,,,,,,,,,,,,,main,2,2,2,positive,negative,j,j,1,0.8405564000131562,485.4584967000119,486.4715980000037,486.4350545000052,None,485.4584967000119,None,485.4584967000119,None,485.4584967000119,None,487.28525134999944,None,487.28525134999944,None,487.28525134999944,None,,,,,,,,,,,114,20,Female,2022-05-04_14h12.32.515,Boat,2022.1.1,59.89828073563919,
neutral,neutral,1,k,k,,,,,,,,,9,1,163,1,,,,,,,,,,,,,,,,,,,,,,,,main,1,1,1,neutral,neutral,k,k,1,0.8439096000220161,487.3051644000225,488.32179280000855,488.2849640000204,None,487.3051644000225,None,487.3051644000225,None,487.3051644000225,None,489.13193765000614,None,489.13193765000614,None,489.13193765000614,None,,,,,,,,,,,114,20,Female,2022-05-04_14h12.32.515,Boat,2022.1.1,59.89828073563919,
negative,positive,1,j,l,,,,,,,,,9,2,164,6,,,,,,,,,,,,,,,,,,,,,,,,main,1,1,1,positive,negative,j,j,1,1.1074924999848008,489.1494191000238,490.16902480000863,490.1315417000151,None,489.1494191000238,None,489.1494191000238,None,489.1494191000238,None,491.24147765001106,None,491.24147765001106,None,491.24147765001106,None,,,,,,,,,,,114,20,Female,2022-05-04_14h12.32.515,Boat,2022.1.1,59.89828073563919,
neutral,negative,1,k,k,,,,,,,,,9,3,165,7,,,,,,,,,,,,,,,,,,,,,,,,main,2,2,1,negative,neutral,k,k,1,0.8600315999938175,491.25869800001965,492.28189770001336,492.2383878000255,None,491.25869800001965,None,491.25869800001965,None,491.25869800001965,None,493.10523395001945,None,493.10523395001945,None,493.10523395001945,None,,,,,,,,,,,114,20,Female,2022-05-04_14h12.32.515,Boat,2022.1.1,59.89828073563919,
neutral,positive,1,k,k,,,,,,,,,9,4,166,4,,,,,,,,,,,,,,,,,,,,,,,,main,2,2,1,positive,neutral,k,k,1,0.9042412000126205,493.1220125000109,494.1386343000049,494.1035880999989,None,493.1220125000109,None,493.1220125000109,None,493.1220125000109,None,495.0109449500189,None,495.0109449500189,None,495.0109449500189,None,,,,,,,,,,,114,20,Female,2022-05-04_14h12.32.515,Boat,2022.1.1,59.89828073563919,
negative,negative,2,j,l,,,,,,,,,9,5,167,9,,,,,,,,,,,,,,,,,,,,,,,,main,2,2,2,negative,negative,j,j,1,1.1190528000006452,495.0275127000059,496.03387100002146,496.0148681999999,None,495.0275127000059,None,495.0275127000059,None,495.0275127000059,None,497.133830650014,None,497.133830650014,None,497.133830650014,None,,,,,,,,,,,114,20,Female,2022-05-04_14h12.32.515,Boat,2022.1.1,59.89828073563919,
positive,negative,2,l,j,,,,,,,,,9,6,168,14,,,,,,,,,,,,,,,,,,,,,,,,main,2,2,2,negative,positive,l,,0,1.4634579000121448,497.1554430000251,498.1718607000075,498.13711209999747,None,497.1554430000251,None,497.1554430000251,None,497.1554430000251,None,499.60615840001265,None,499.60615840001265,None,499.60615840001265,None,,,,,,,,,,,114,20,Female,2022-05-04_14h12.32.515,Boat,2022.1.1,59.89828073563919,
positive,negative,1,l,j,,,,,,,,,9,7,169,5,,,,,,,,,,,,,,,,,,,,,,,,main,2,2,1,negative,positive,l,l,1,0.9471714000101201,500.62547230001655,501.6384184000199,501.6201481000171,None,500.62547230001655,None,500.62547230001655,None,500.62547230001655,None,502.55701045002496,None,502.55701045002496,None,502.55701045002496,None,,,,,,,,,,,114,20,Female,2022-05-04_14h12.32.515,Boat,2022.1.1,59.89828073563919,
positive,neutral,1,l,j,,,,,,,,,9,8,170,8,,,,,,,,,,,,,,,,,,,,,,,,main,1,1,1,neutral,positive,l,l,1,0.9322313999873586,502.5736894000147,503.5987426000065,503.55552409999655,None,502.5736894000147,None,502.5736894000147,None,502.5736894000147,None,504.4920628500142,None,504.4920628500142,None,504.4920628500142,None,,,,,,,,,,,114,20,Female,2022-05-04_14h12.32.515,Boat,2022.1.1,59.89828073563919,
positive,neutral,2,l,j,,,,,,,,,9,9,171,17,,,,,,,,,,,,,,,,,,,,,,,,main,2,2,2,neutral,positive,l,l,1,0.7727069999964442,504.5108730000211,505.52206070002285,505.4887601000082,None,504.5108730000211,None,504.5108730000211,None,504.5108730000211,None,506.2679933500214,None,506.2679933500214,None,506.2679933500214,None,,,,,,,,,,,114,20,Female,2022-05-04_14h12.32.515,Boat,2022.1.1,59.89828073563919,
negative,neutral,1,j,l,,,,,,,,,9,10,172,3,,,,,,,,,,,,,,,,,,,,,,,,main,1,1,1,neutral,negative,j,j,1,1.0083328000037,506.28849420000915,507.3030394000234,507.267038400023,None,506.28849420000915,None,506.28849420000915,None,506.28849420000915,None,508.2780213500111,None,508.2780213500111,None,508.2780213500111,None,,,,,,,,,,,114,20,Female,2022-05-04_14h12.32.515,Boat,2022.1.1,59.89828073563919,
positive,positive,2,l,j,,,,,,,,,9,11,173,11,,,,,,,,,,,,,,,,,,,,,,,,main,2,2,2,positive,positive,l,l,1,0.7637458000099286,508.2963133000012,509.3168155000021,509.27223580001737,None,508.2963133000012,None,508.2963133000012,None,508.2963133000012,None,510.04464725000724,None,510.04464725000724,None,510.04464725000724,None,,,,,,,,,,,114,20,Female,2022-05-04_14h12.32.515,Boat,2022.1.1,59.89828073563919,
neutral,neutral,2,k,k,,,,,,,,,9,12,174,10,,,,,,,,,,,,,,,,,,,,,,,,main,1,1,2,neutral,neutral,k,k,1,0.689904300001217,510.0627461000113,511.07056000002194,511.03502520002075,None,510.0627461000113,None,510.0627461000113,None,510.0627461000113,None,511.7387898500048,None,511.7387898500048,None,511.7387898500048,None,,,,,,,,,,,114,20,Female,2022-05-04_14h12.32.515,Boat,2022.1.1,59.89828073563919,
positive,positive,1,l,j,,,,,,,,,9,13,175,2,,,,,,,,,,,,,,,,,,,,,,,,main,1,1,1,positive,positive,l,l,1,0.7186359000043012,511.7569874000037,512.7822444000049,512.7390320000122,None,511.7569874000037,None,511.7569874000037,None,511.7569874000037,None,513.4600928500033,None,513.4600928500033,None,513.4600928500033,None,,,,,,,,,,,114,20,Female,2022-05-04_14h12.32.515,Boat,2022.1.1,59.89828073563919,
neutral,negative,2,k,k,,,,,,,,,9,14,176,16,,,,,,,,,,,,,,,,,,,,,,,,main,1,1,2,negative,neutral,k,k,1,0.678432899992913,513.477205800009,514.4866976000194,514.4502616000245,None,513.477205800009,None,513.477205800009,None,513.477205800009,None,515.1417118500133,None,515.1417118500133,None,515.1417118500133,None,,,,,,,,,,,114,20,Female,2022-05-04_14h12.32.515,Boat,2022.1.1,59.89828073563919,
neutral,positive,2,k,k,,,,,,,,,9,15,177,13,,,,,,,,,,,,,,,,,,,,,,,,main,2,2,2,positive,neutral,k,k,1,1.5899466999981087,515.1584874000109,516.1727820000087,516.1390352000017,None,515.1584874000109,None,515.1584874000109,None,515.1584874000109,None,517.7389818000083,None,517.7389818000083,None,517.7389818000083,None,,,,,,,,,,,114,20,Female,2022-05-04_14h12.32.515,Boat,2022.1.1,59.89828073563919,
negative,neutral,2,j,l,,,,,,,,,9,16,178,12,,,,,,,,,,,,,,,,,,,,,,,,main,1,1,2,neutral,negative,j,k,0,-0.7377654000010807,518.7585110000218,None,None,None,518.7585110000218,None,518.7585110000218,None,518.7585110000218,None,519.0188343000191,None,519.0188343000191,None,519.0188343000191,None,,,,,,,,,,,114,20,Female,2022-05-04_14h12.32.515,Boat,2022.1.1,59.89828073563919,
negative,negative,1,j,l,,,,,,,,,9,17,179,0,,,,,,,,,,,,,,,,,,,,,,,,main,2,2,1,negative,negative,j,j,1,0.9510031999961939,522.0246093000169,523.0402971000003,523.0056764000037,None,522.0246093000169,None,522.0246093000169,None,522.0246093000169,None,523.9614846500074,None,523.9614846500074,None,523.9614846500074,None,,,,,,,,,,,114,20,Female,2022-05-04_14h12.32.515,Boat,2022.1.1,59.89828073563919,
positive,negative,2,l,j,,,,,,,,,10,0,180,14,,,,,,,,,,,,,,,,,,,,,,,,main,2,2,2,negative,positive,l,l,1,0.7998270000098273,523.9789685000142,524.9859489000228,524.9678465000179,None,523.9789685000142,None,523.9789685000142,None,523.9789685000142,None,525.7653593500174,None,525.7653593500174,None,525.7653593500174,None,,,,,,,,,,,114,20,Female,2022-05-04_14h12.32.515,Boat,2022.1.1,59.89828073563919,
neutral,positive,1,k,k,,,,,,,,,10,1,181,4,,,,,,,,,,,,,,,,,,,,,,,,main,1,1,1,positive,neutral,k,k,1,0.6901895999908447,525.7830085000023,526.7891680000175,526.7560803000233,None,525.7830085000023,None,525.7830085000023,None,525.7830085000023,None,527.4573183500063,None,527.4573183500063,None,527.4573183500063,None,,,,,,,,,,,114,20,Female,2022-05-04_14h12.32.515,Boat,2022.1.1,59.89828073563919,
positive,negative,1,l,j,,,,,,,,,10,2,182,5,,,,,,,,,,,,,,,,,,,,,,,,main,2,2,1,negative,positive,l,l,1,0.9027702999883331,527.4751200000173,528.4751429000171,528.45743520002,None,527.4751200000173,None,527.4751200000173,None,527.4751200000173,None,529.3615058500175,None,529.3615058500175,None,529.3615058500175,None,,,,,,,,,,,114,20,Female,2022-05-04_14h12.32.515,Boat,2022.1.1,59.89828073563919,
neutral,neutral,2,k,k,,,,,,,,,10,3,183,10,,,,,,,,,,,,,,,,,,,,,,,,main,2,2,2,neutral,neutral,k,k,1,0.6525387000001501,529.3803402000049,530.4013459999987,530.3559084000008,None,529.3803402000049,None,529.3803402000049,None,529.3803402000049,None,531.0188206500054,None,531.0188206500054,None,531.0188206500054,None,,,,,,,,,,,114,20,Female,2022-05-04_14h12.32.515,Boat,2022.1.1,59.89828073563919,
negative,negative,1,j,l,,,,,,,,,10,4,184,0,,,,,,,,,,,,,,,,,,,,,,,,main,1,1,1,negative,negative,j,j,1,0.9256409000081476,531.0367282000079,532.0378810999973,532.019575400016,None,531.0367282000079,None,531.0367282000079,None,531.0367282000079,None,532.9470987500129,None,532.9470987500129,None,532.9470987500129,None,,,,,,,,,,,114,20,Female,2022-05-04_14h12.32.515,Boat,2022.1.1,59.89828073563919,
negative,positive,1,j,l,,,,,,,,,10,5,185,6,,,,,,,,,,,,,,,,,,,,,,,,main,1,1,1,positive,negative,j,j,1,0.6729900999926031,532.9637700000021,533.9684908000054,533.9509149000223,None,532.9637700000021,None,532.9637700000021,None,532.9637700000021,None,534.623028950012,None,534.623028950012,None,534.623028950012,None,,,,,,,,,,,114,20,Female,2022-05-04_14h12.32.515,Boat,2022.1.1,59.89828073563919,
negative,positive,2,j,l,,,,,,,,,10,6,186,15,,,,,,,,,,,,,,,,,,,,,,,,main,2,2,2,positive,negative,j,j,1,0.9750666999898385,534.6400156000163,535.6562874000228,535.6176554000122,None,534.6400156000163,None,534.6400156000163,None,534.6400156000163,None,536.6010841499985,None,536.6010841499985,None,536.6010841499985,None,,,,,,,,,,,114,20,Female,2022-05-04_14h12.32.515,Boat,2022.1.1,59.89828073563919,
positive,positive,2,l,j,,,,,,,,,10,7,187,11,,,,,,,,,,,,,,,,,,,,,,,,main,2,2,2,positive,positive,l,l,1,0.9614415999967605,536.6214024000219,537.6229136000038,537.6060056000133,None,536.6214024000219,None,536.6214024000219,None,536.6214024000219,None,538.5636015500088,None,538.5636015500088,None,538.5636015500088,None,,,,,,,,,,,114,20,Female,2022-05-04_14h12.32.515,Boat,2022.1.1,59.89828073563919,
neutral,negative,1,k,k,,,,,,,,,10,8,188,7,,,,,,,,,,,,,,,,,,,,,,,,main,1,1,1,negative,neutral,k,k,1,0.8648592999961693,538.5842915000103,539.5860798000067,539.5675541000091,None,538.5842915000103,None,538.5842915000103,None,538.5842915000103,None,540.4323868500098,None,540.4323868500098,None,540.4323868500098,None,,,,,,,,,,,114,20,Female,2022-05-04_14h12.32.515,Boat,2022.1.1,59.89828073563919,
positive,neutral,1,l,j,,,,,,,,,10,9,189,8,,,,,,,,,,,,,,,,,,,,,,,,main,2,2,1,neutral,positive,l,l,1,1.3557166999962647,540.4524902999983,541.4562005000189,541.420937500021,None,540.4524902999983,None,540.4524902999983,None,540.4524902999983,None,542.789954250012,None,542.789954250012,None,542.789954250012,None,,,,,,,,,,,114,20,Female,2022-05-04_14h12.32.515,Boat,2022.1.1,59.89828073563919,
neutral,negative,2,k,k,,,,,,,,,10,10,190,16,,,,,,,,,,,,,,,,,,,,,,,,main,1,1,2,negative,neutral,k,k,1,0.8005916000111029,542.8084323000221,543.8230385000061,543.7866123999993,None,542.8084323000221,None,542.8084323000221,None,542.8084323000221,None,544.5927499500133,None,544.5927499500133,None,544.5927499500133,None,,,,,,,,,,,114,20,Female,2022-05-04_14h12.32.515,Boat,2022.1.1,59.89828073563919,
negative,neutral,1,j,l,,,,,,,,,10,11,191,3,,,,,,,,,,,,,,,,,,,,,,,,main,2,2,1,neutral,negative,j,j,1,0.9187294000003021,544.6102405000129,545.6328448000131,545.5895699000102,None,544.6102405000129,None,544.6102405000129,None,544.6102405000129,None,546.5133549500054,None,546.5133549500054,None,546.5133549500054,None,,,,,,,,,,,114,20,Female,2022-05-04_14h12.32.515,Boat,2022.1.1,59.89828073563919,
positive,positive,1,l,j,,,,,,,,,10,12,192,2,,,,,,,,,,,,,,,,,,,,,,,,main,2,2,1,positive,positive,l,l,1,1.0127941999817267,546.5316982000077,547.5396553000028,547.5049089000095,None,546.5316982000077,None,546.5316982000077,None,546.5316982000077,None,548.5301417500043,None,548.5301417500043,None,548.5301417500043,None,,,,,,,,,,,114,20,Female,2022-05-04_14h12.32.515,Boat,2022.1.1,59.89828073563919,
positive,neutral,2,l,j,,,,,,,,,10,13,193,17,,,,,,,,,,,,,,,,,,,,,,,,main,2,2,2,neutral,positive,l,l,1,1.2841479000053369,548.547046200023,549.5659704999998,549.5230857999995,None,548.547046200023,None,548.547046200023,None,548.547046200023,None,550.8174756500259,None,550.8174756500259,None,550.8174756500259,None,,,,,,,,,,,114,20,Female,2022-05-04_14h12.32.515,Boat,2022.1.1,59.89828073563919,
negative,neutral,2,j,l,,,,,,,,,10,14,194,12,,,,,,,,,,,,,,,,,,,,,,,,main,1,1,2,neutral,negative,j,j,1,1.3579464000067674,550.837399800017,551.842291900015,551.8079628999985,None,550.837399800017,None,550.837399800017,None,550.837399800017,None,553.1772908500018,None,553.1772908500018,None,553.1772908500018,None,,,,,,,,,,,114,20,Female,2022-05-04_14h12.32.515,Boat,2022.1.1,59.89828073563919,
negative,negative,2,j,l,,,,,,,,,10,15,195,9,,,,,,,,,,,,,,,,,,,,,,,,main,2,2,2,negative,negative,j,,0,2.0738658999907784,553.1951846000156,554.2062154000159,554.1697547000076,None,553.1951846000156,None,553.1951846000156,None,553.1951846000156,None,556.2604930000089,None,556.2604930000089,None,556.2604930000089,None,,,,,,,,,,,114,20,Female,2022-05-04_14h12.32.515,Boat,2022.1.1,59.89828073563919,
neutral,positive,2,k,k,,,,,,,,,10,16,196,13,,,,,,,,,,,,,,,,,,,,,,,,main,2,2,2,positive,neutral,k,k,1,1.1910193999938201,557.2765092000191,558.2898400000122,558.2536233999999,None,557.2765092000191,None,557.2765092000191,None,557.2765092000191,None,559.4531611500163,None,559.4531611500163,None,559.4531611500163,None,,,,,,,,,,,114,20,Female,2022-05-04_14h12.32.515,Boat,2022.1.1,59.89828073563919,
neutral,neutral,1,k,k,,,,,,,,,10,17,197,1,,,,,,,,,,,,,,,,,,,,,,,,main,2,2,1,neutral,neutral,k,k,1,0.8527613000187557,559.4723682000185,560.4734428000229,560.4568443000026,None,559.4723682000185,None,559.4723682000185,None,559.4723682000185,None,561.3072895500256,None,561.3072895500256,None,561.3072895500256,None,,,,,,,,,,,114,20,Female,2022-05-04_14h12.32.515,Boat,2022.1.1,59.89828073563919,
negative,negative,1,j,l,,,,,,,,,11,0,198,0,,,,,,,,,,,,,,,,,,,,,,,,main,1,1,1,negative,negative,j,j,1,0.7972328999894671,561.3277562000148,562.3516675000137,562.3065454000025,None,561.3277562000148,None,561.3277562000148,None,561.3277562000148,None,563.1081301500119,None,563.1081301500119,None,563.1081301500119,None,,,,,,,,,,,114,20,Female,2022-05-04_14h12.32.515,Boat,2022.1.1,59.89828073563919,
positive,positive,1,l,j,,,,,,,,,11,1,199,2,,,,,,,,,,,,,,,,,,,,,,,,main,2,2,1,positive,positive,l,l,1,0.8645648999954574,563.1261375000176,564.1401157000219,564.106743100012,None,563.1261375000176,None,563.1261375000176,None,563.1261375000176,None,564.9756759500044,None,564.9756759500044,None,564.9756759500044,None,,,,,,,,,,,114,20,Female,2022-05-04_14h12.32.515,Boat,2022.1.1,59.89828073563919,
negative,neutral,1,j,l,,,,,,,,,11,2,200,3,,,,,,,,,,,,,,,,,,,,,,,,main,2,2,1,neutral,negative,j,j,1,0.913273800018942,564.9943809000251,566.0069422000088,565.9731412999972,None,564.9943809000251,None,564.9943809000251,None,564.9943809000251,None,566.8919827500097,None,566.8919827500097,None,566.8919827500097,None,,,,,,,,,,,114,20,Female,2022-05-04_14h12.32.515,Boat,2022.1.1,59.89828073563919,
neutral,neutral,1,k,k,,,,,,,,,11,3,201,1,,,,,,,,,,,,,,,,,,,,,,,,main,2,2,1,neutral,neutral,k,k,1,1.013991799991345,566.9075317000097,567.9067454000178,567.8901873000141,None,566.9075317000097,None,566.9075317000097,None,566.9075317000097,None,568.9081707500184,None,568.9081707500184,None,568.9081707500184,None,,,,,,,,,,,114,20,Female,2022-05-04_14h12.32.515,Boat,2022.1.1,59.89828073563919,
neutral,negative,2,k,k,,,,,,,,,11,4,202,16,,,,,,,,,,,,,,,,,,,,,,,,main,1,1,2,negative,neutral,k,k,1,0.6867231999931391,568.9248772000137,569.9516834000242,569.9070975000213,None,568.9248772000137,None,568.9248772000137,None,568.9248772000137,None,570.5975334499992,None,570.5975334499992,None,570.5975334499992,None,,,,,,,,,,,114,20,Female,2022-05-04_14h12.32.515,Boat,2022.1.1,59.89828073563919,
positive,neutral,2,l,j,,,,,,,,,11,5,203,17,,,,,,,,,,,,,,,,,,,,,,,,main,1,1,2,neutral,positive,l,l,1,0.9090622000221629,570.6151439000096,571.6242344000202,571.5901603000239,None,570.6151439000096,None,570.6151439000096,None,570.6151439000096,None,572.5095676500089,None,572.5095676500089,None,572.5095676500089,None,,,,,,,,,,,114,20,Female,2022-05-04_14h12.32.515,Boat,2022.1.1,59.89828073563919,
neutral,neutral,2,k,k,,,,,,,,,11,6,204,10,,,,,,,,,,,,,,,,,,,,,,,,main,2,2,2,neutral,neutral,k,k,1,1.0714864000037778,572.5268238999997,573.5443494000065,573.508528300008,None,572.5268238999997,None,572.5268238999997,None,572.5268238999997,None,574.5847242500197,None,574.5847242500197,None,574.5847242500197,None,,,,,,,,,,,114,20,Female,2022-05-04_14h12.32.515,Boat,2022.1.1,59.89828073563919,
negative,neutral,2,j,l,,,,,,,,,11,7,205,12,,,,,,,,,,,,,,,,,,,,,,,,main,1,1,2,neutral,negative,j,j,1,0.9439844000153244,574.6062373000022,575.6192047000222,575.5835647000058,None,574.6062373000022,None,574.6062373000022,None,574.6062373000022,None,576.5289482500259,None,576.5289482500259,None,576.5289482500259,None,,,,,,,,,,,114,20,Female,2022-05-04_14h12.32.515,Boat,2022.1.1,59.89828073563919,
positive,neutral,1,l,j,,,,,,,,,11,8,206,8,,,,,,,,,,,,,,,,,,,,,,,,main,2,2,1,neutral,positive,l,l,1,0.9959995000099298,576.5477325000102,577.556897500006,577.5237978000077,None,576.5477325000102,None,576.5477325000102,None,576.5477325000102,None,578.5290237500187,None,578.5290237500187,None,578.5290237500187,None,,,,,,,,,,,114,20,Female,2022-05-04_14h12.32.515,Boat,2022.1.1,59.89828073563919,
positive,negative,1,l,j,,,,,,,,,11,9,207,5,,,,,,,,,,,,,,,,,,,,,,,,main,2,2,1,negative,positive,l,l,1,0.9743874999985565,578.5456267000118,579.5570456999994,579.521114800009,None,578.5456267000118,None,578.5456267000118,None,578.5456267000118,None,580.5063621500187,None,580.5063621500187,None,580.5063621500187,None,,,,,,,,,,,114,20,Female,2022-05-04_14h12.32.515,Boat,2022.1.1,59.89828073563919,
negative,positive,1,j,l,,,,,,,,,11,10,208,6,,,,,,,,,,,,,,,,,,,,,,,,main,1,1,1,positive,negative,j,j,1,0.9934990000037942,580.5253192000091,581.5367607000226,581.5186482999998,None,580.5253192000091,None,580.5253192000091,None,580.5253192000091,None,582.5037909500272,None,582.5037909500272,None,582.5037909500272,None,,,,,,,,,,,114,20,Female,2022-05-04_14h12.32.515,Boat,2022.1.1,59.89828073563919,
