target,distractor,set,ans1,ans2,rep_loop2.thisRepN,rep_loop2.thisTrialN,rep_loop2.thisN,rep_loop2.thisIndex,flanker_prac_loop.thisRepN,flanker_prac_loop.thisTrialN,flanker_prac_loop.thisN,flanker_prac_loop.thisIndex,flanker_main_loop.thisRepN,flanker_main_loop.thisTrialN,flanker_main_loop.thisN,flanker_main_loop.thisIndex,fl_inst_resp.keys,mouse.x,mouse.y,mouse.leftButton,mouse.midButton,mouse.rightButton,mouse.started,mouse.stopped,sound_1.started,sound_1.stopped,no_text.started,no_text.stopped,yes_text.started,yes_text.stopped,mouse_2.x,mouse_2.y,mouse_2.leftButton,mouse_2.midButton,mouse_2.rightButton,mouse_2.started,mouse_2.stopped,mouse_2.clicked_name,back_2.started,back_2.stopped,main_prac,fl_cold,fl_colt,fl_set,fl_dcond,fl_tcond,fl_ans,fl_res,fl_corr,fl_rt,fix_fl.started,fix_fl.stopped,targ.started,targ.stopped,j_button.started,j_button.stopped,k_button.started,k_button.stopped,l_button.started,l_button.stopped,j_button2.started,j_button2.stopped,k_button2.started,k_button2.stopped,l_button2.started,l_button2.stopped,mainback.started,mainback.stopped,key_resp.keys,mouse_6.x,mouse_6.y,mouse_6.leftButton,mouse_6.midButton,mouse_6.rightButton,mouse_6.started,mouse_6.stopped,id*,age*,gender*,date,expName,psychopyVersion,frameRate,
,,,,,0,0,0,0,,,,,,,,,None,-0.41944444,0.15,0,0,0,None,None,None,None,32.19303279998712,None,32.19303279998712,None,0.04537037,-0.05185185,0,0,0,0.013396329974057153,None,,,,,,,,,,,,,,,,,,,,,,,,,,,,,,,,,,,,,,,,115,21,Female,2022-05-05_09h34.56.869,Boat,2022.1.1,60.00387625547299,
,,,,,1,0,1,0,,,,,,,,,None,0.094444446,-0.11481482,0,0,0,None,None,None,None,33.74079419998452,None,33.74079419998452,None,0.094444446,-0.11203704,1,0,0,0.014230229979148135,None,no_area,,,,,,,,,,,,,,,,,,,,,,,,,,,,,,,,,,,,,,,115,21,Female,2022-05-05_09h34.56.869,Boat,2022.1.1,60.00387625547299,
,,,,,2,0,2,0,,,,,,,,,None,0.094444446,-0.08981481,0,0,0,None,None,None,None,34.857591399981175,None,34.857591399981175,None,0.06944445,-0.03425926,0,0,0,0.013186829979531467,None,,,,,,,,,,,,,,,,,,,,,,,,,,,,,,,,,,,,,,,,115,21,Female,2022-05-05_09h34.56.869,Boat,2022.1.1,60.00387625547299,
,,,,,3,0,3,0,,,,,,,,,None,0.06759259,-0.049074072,0,0,0,None,None,None,None,35.75703459998476,None,35.75703459998476,None,0.06666667,-0.053703703,0,0,0,0.013399129966273904,None,,,,,,,,,,,,,,,,,,,,,,,,,,,,,,,,,,,,,,,,115,21,Female,2022-05-05_09h34.56.869,Boat,2022.1.1,60.00387625547299,
,,,,,4,0,4,0,,,,,,,,,None,-0.30833334,-0.41296297,0,0,0,1.0251853500085417,None,37.024230730001,None,111.89219369998318,None,111.89219369998318,None,-0.10185185,-0.094444446,0,0,0,0.0138162299990654,None,,,,,,,,,,,,,,,,,,,,,,,,,,,,,,,,,,,,,,,,115,21,Female,2022-05-05_09h34.56.869,Boat,2022.1.1,60.00387625547299,
positive,positive,2,l,j,,,,,0,0,0,11,,,,,,,,,,,,,,,,,,,,,,,,,,,115.97606660000747,None,prac,2,2,2,positive,positive,j,j,1,1.650315100006992,118.01920049998444,119.04063390000374,118.99742460000562,None,118.01920049998444,None,118.01920049998444,None,118.01920049998444,None,120.65892499999609,None,120.65892499999609,None,120.65892499999609,None,,,,,,,,,,,115,21,Female,2022-05-05_09h34.56.869,Boat,2022.1.1,60.00387625547299,
negative,positive,1,j,l,,,,,0,1,1,6,,,,,,,,,,,,,,,,,,,,,,,,,,,,,prac,1,1,1,positive,negative,l,l,1,1.1834053999918979,121.67126159998588,122.68091900000582,122.66377959999954,None,121.67126159998588,None,121.67126159998588,None,121.67126159998588,None,123.83509203000867,None,123.83509203000867,None,123.83509203000867,None,,,,,,,,,,,115,21,Female,2022-05-05_09h34.56.869,Boat,2022.1.1,60.00387625547299,
negative,negative,1,j,l,,,,,0,2,2,0,,,,,,,,,,,,,,,,,,,,,,,,,,,,,prac,2,2,1,negative,negative,l,l,1,0.951624700013781,123.85511109998333,124.86574219999602,124.8310829999973,None,123.85511109998333,None,123.85511109998333,None,123.85511109998333,None,125.79097233000502,None,125.79097233000502,None,125.79097233000502,None,,,,,,,,,,,115,21,Female,2022-05-05_09h34.56.869,Boat,2022.1.1,60.00387625547299,
neutral,positive,2,k,k,,,,,0,3,3,13,,,,,,,,,,,,,,,,,,,,,,,,,,,,,prac,1,1,2,positive,neutral,k,k,1,0.7351066000119317,125.81643740000436,126.82071719999658,126.8020617000002,None,125.81643740000436,None,125.81643740000436,None,125.81643740000436,None,127.52693013000825,None,127.52693013000825,None,127.52693013000825,None,,,,,,,,,,,115,21,Female,2022-05-05_09h34.56.869,Boat,2022.1.1,60.00387625547299,
positive,neutral,1,l,j,,,,,0,4,4,8,,,,,,,,,,,,,,,,,,,,,,,,,,,,,prac,1,1,1,neutral,positive,j,j,1,0.9214232999947853,127.55396329998621,128.5744166999939,128.54765459999908,None,127.55396329998621,None,127.55396329998621,None,127.55396329998621,None,129.45168062998854,None,129.45168062998854,None,129.45168062998854,None,,,,,,,,,,,115,21,Female,2022-05-05_09h34.56.869,Boat,2022.1.1,60.00387625547299,
neutral,positive,1,k,k,,,,,0,5,5,4,,,,,,,,,,,,,,,,,,,,,,,,,,,,,prac,2,2,1,positive,neutral,k,l,0,1.2184572000114713,129.4705696000019,130.4809755999886,130.445670599991,None,129.4705696000019,None,129.4705696000019,None,129.4705696000019,None,131.689060899982,None,131.689060899982,None,131.689060899982,None,,,,,,,,,,,115,21,Female,2022-05-05_09h34.56.869,Boat,2022.1.1,60.00387625547299,
negative,negative,2,j,l,,,,,0,6,6,9,,,,,,,,,,,,,,,,,,,,,,,,,,,,,prac,1,1,2,negative,negative,l,l,1,0.860038299986627,132.70178079998004,133.7089103999897,133.69095739998738,None,132.70178079998004,None,132.70178079998004,None,132.70178079998004,None,134.54771952998416,None,134.54771952998416,None,134.54771952998416,None,,,,,,,,,,,115,21,Female,2022-05-05_09h34.56.869,Boat,2022.1.1,60.00387625547299,
neutral,neutral,1,k,k,,,,,0,7,7,1,,,,,,,,,,,,,,,,,,,,,,,,,,,,,prac,2,2,1,neutral,neutral,k,k,1,0.8296914999955334,134.57579319999786,135.58115980000002,135.56496399999014,None,134.57579319999786,None,134.57579319999786,None,134.57579319999786,None,136.37976833000138,None,136.37976833000138,None,136.37976833000138,None,,,,,,,,,,,115,21,Female,2022-05-05_09h34.56.869,Boat,2022.1.1,60.00387625547299,
negative,neutral,2,j,l,,,,,0,8,8,12,,,,,,,,,,,,,,,,,,,,,,,,,,,,,prac,1,1,2,neutral,negative,l,l,1,0.8388867999892682,136.4051133999892,137.41443279999658,137.39790340000764,None,136.4051133999892,None,136.4051133999892,None,136.4051133999892,None,138.22019222999515,None,138.22019222999515,None,138.22019222999515,None,,,,,,,,,,,115,21,Female,2022-05-05_09h34.56.869,Boat,2022.1.1,60.00387625547299,
neutral,neutral,2,k,k,,,,,0,9,9,10,,,,,,,,,,,,,,,,,,,,,,,,,,,,,prac,1,1,2,neutral,neutral,k,k,1,0.7648171999899205,138.23865129999467,139.2478320999944,139.21257430000696,None,138.23865129999467,None,138.23865129999467,None,138.23865129999467,None,139.98781383000605,None,139.98781383000605,None,139.98781383000605,None,,,,,,,,,,,115,21,Female,2022-05-05_09h34.56.869,Boat,2022.1.1,60.00387625547299,
negative,positive,2,j,l,,,,,0,10,10,15,,,,,,,,,,,,,,,,,,,,,,,,,,,,,prac,1,1,2,positive,negative,l,l,1,0.725207000010414,140.00585489999503,141.0240943999961,140.97783250000793,None,140.00585489999503,None,140.00585489999503,None,140.00585489999503,None,141.71465963000955,None,141.71465963000955,None,141.71465963000955,None,,,,,,,,,,,115,21,Female,2022-05-05_09h34.56.869,Boat,2022.1.1,60.00387625547299,
positive,negative,2,l,j,,,,,0,11,11,14,,,,,,,,,,,,,,,,,,,,,,,,,,,,,prac,2,2,2,negative,positive,j,j,1,0.8417646000161767,141.74377470000763,142.74485590000404,142.72734219999984,None,141.74377470000763,None,141.74377470000763,None,141.74377470000763,None,143.56107212999777,None,143.56107212999777,None,143.56107212999777,None,,,,,,,,,,,115,21,Female,2022-05-05_09h34.56.869,Boat,2022.1.1,60.00387625547299,
neutral,negative,2,k,k,,,,,0,12,12,16,,,,,,,,,,,,,,,,,,,,,,,,,,,,,prac,2,2,2,negative,neutral,k,k,1,0.8881433000206016,143.58178760000737,144.59136359998956,144.5646993999835,None,143.58178760000737,None,143.58178760000737,None,143.58178760000737,None,145.45050593000778,None,145.45050593000778,None,145.45050593000778,None,,,,,,,,,,,115,21,Female,2022-05-05_09h34.56.869,Boat,2022.1.1,60.00387625547299,
positive,negative,1,l,j,,,,,0,13,13,5,,,,,,,,,,,,,,,,,,,,,,,,,,,,,prac,2,2,1,negative,positive,j,j,1,1.0989480999996886,145.46693029999733,146.47610800000257,146.45746810000855,None,145.46693029999733,None,145.46693029999733,None,145.46693029999733,None,147.55135723000566,None,147.55135723000566,None,147.55135723000566,None,,,,,,,,,,,115,21,Female,2022-05-05_09h34.56.869,Boat,2022.1.1,60.00387625547299,
negative,neutral,1,j,l,,,,,0,14,14,3,,,,,,,,,,,,,,,,,,,,,,,,,,,,,prac,1,1,1,neutral,negative,l,l,1,0.7978195000032429,147.56857989999116,148.58213619998423,148.5451342999877,None,147.56857989999116,None,147.56857989999116,None,147.56857989999116,None,149.35214912999945,None,149.35214912999945,None,149.35214912999945,None,,,,,,,,,,,115,21,Female,2022-05-05_09h34.56.869,Boat,2022.1.1,60.00387625547299,
positive,positive,1,l,j,,,,,0,15,15,2,,,,,,,,,,,,,,,,,,,,,,,,,,,,,prac,2,2,1,positive,positive,j,j,1,0.7170585000130814,149.36854259998654,150.38151099998504,150.34784370000125,None,149.36854259998654,None,149.36854259998654,None,149.36854259998654,None,151.0713546300045,None,151.0713546300045,None,151.0713546300045,None,,,,,,,,,,,115,21,Female,2022-05-05_09h34.56.869,Boat,2022.1.1,60.00387625547299,
positive,neutral,2,l,j,,,,,0,16,16,17,,,,,,,,,,,,,,,,,,,,,,,,,,,,,prac,2,2,2,neutral,positive,j,j,1,0.9265690000029281,151.09936249998282,152.1148555999971,152.0815331999911,None,151.09936249998282,None,151.09936249998282,None,151.09936249998282,None,153.0001262299862,None,153.0001262299862,None,153.0001262299862,None,,,,,,,,,,,115,21,Female,2022-05-05_09h34.56.869,Boat,2022.1.1,60.00387625547299,
neutral,negative,1,k,k,,,,,0,17,17,7,,,,,,,,,,,,,,,,,,,,,,,,,,,,,prac,2,2,1,negative,neutral,k,k,1,0.7503197999903932,153.01765180000803,154.04144219998852,153.99764260000666,None,153.01765180000803,None,153.01765180000803,None,153.01765180000803,None,154.7527336299914,None,154.7527336299914,None,154.7527336299914,None,,,,,,,,,,,115,21,Female,2022-05-05_09h34.56.869,Boat,2022.1.1,60.00387625547299,
positive,negative,1,l,j,,,,,1,0,18,5,,,,,,,,,,,,,,,,,,,,,,,,,,,,,prac,1,1,1,negative,positive,j,j,1,1.0310158000211231,154.77781709999545,155.79125350000686,155.76415899998392,None,154.77781709999545,None,154.77781709999545,None,154.77781709999545,None,156.78631822998577,None,156.78631822998577,None,156.78631822998577,None,,,,,,,,,,,115,21,Female,2022-05-05_09h34.56.869,Boat,2022.1.1,60.00387625547299,
positive,negative,2,l,j,,,,,1,1,19,14,,,,,,,,,,,,,,,,,,,,,,,,,,,,,prac,2,2,2,negative,positive,j,j,1,0.7419017000065651,156.8045509000076,157.81506130000344,157.77807810000377,None,156.8045509000076,None,156.8045509000076,None,156.8045509000076,None,158.53157562999112,None,158.53157562999112,None,158.53157562999112,None,,,,,,,,,,,115,21,Female,2022-05-05_09h34.56.869,Boat,2022.1.1,60.00387625547299,
negative,positive,2,j,l,,,,,1,2,20,15,,,,,,,,,,,,,,,,,,,,,,,,,,,,,prac,1,1,2,positive,negative,l,l,1,0.7717810999893118,158.5491351999808,159.54827669999213,159.5317778000026,None,158.5491351999808,None,158.5491351999808,None,158.5491351999808,None,160.30597403000283,None,160.30597403000283,None,160.30597403000283,None,,,,,,,,,,,115,21,Female,2022-05-05_09h34.56.869,Boat,2022.1.1,60.00387625547299,
negative,neutral,2,j,l,,,,,1,3,21,12,,,,,,,,,,,,,,,,,,,,,,,,,,,,,prac,1,1,2,neutral,negative,l,l,1,0.8398459999880288,160.32032529998105,161.33114880000358,161.3126828999957,None,160.32032529998105,None,160.32032529998105,None,160.32032529998105,None,162.1479681299912,None,162.1479681299912,None,162.1479681299912,None,,,,,,,,,,,115,21,Female,2022-05-05_09h34.56.869,Boat,2022.1.1,60.00387625547299,
neutral,negative,1,k,k,,,,,1,4,22,7,,,,,,,,,,,,,,,,,,,,,,,,,,,,,prac,2,2,1,negative,neutral,k,k,1,0.686535000015283,162.16482380000525,163.18149590000394,163.14646560000256,None,162.16482380000525,None,162.16482380000525,None,162.16482380000525,None,163.83706172998936,None,163.83706172998936,None,163.83706172998936,None,,,,,,,,,,,115,21,Female,2022-05-05_09h34.56.869,Boat,2022.1.1,60.00387625547299,
neutral,positive,2,k,k,,,,,1,5,23,13,,,,,,,,,,,,,,,,,,,,,,,,,,,,,prac,1,1,2,positive,neutral,k,k,1,0.7664650000224356,163.85369910000009,164.87475620000623,164.83168649999425,None,163.85369910000009,None,163.85369910000009,None,163.85369910000009,None,165.60554793000628,None,165.60554793000628,None,165.60554793000628,None,,,,,,,,,,,115,21,Female,2022-05-05_09h34.56.869,Boat,2022.1.1,60.00387625547299,
negative,negative,1,j,l,,,,,1,6,24,0,,,,,,,,,,,,,,,,,,,,,,,,,,,,,prac,1,1,1,negative,negative,l,l,1,0.8480849000043236,165.62223360000644,166.63424339998164,166.60016000000178,None,165.62223360000644,None,165.62223360000644,None,165.62223360000644,None,167.4554188299895,None,167.4554188299895,None,167.4554188299895,None,,,,,,,,,,,115,21,Female,2022-05-05_09h34.56.869,Boat,2022.1.1,60.00387625547299,
negative,neutral,1,j,l,,,,,1,7,25,3,,,,,,,,,,,,,,,,,,,,,,,,,,,,,prac,2,2,1,neutral,negative,l,l,1,0.8086108000134118,167.47276740000234,168.48168719999376,168.44677360000787,None,167.47276740000234,None,167.47276740000234,None,167.47276740000234,None,169.26706073000386,None,169.26706073000386,None,169.26706073000386,None,,,,,,,,,,,115,21,Female,2022-05-05_09h34.56.869,Boat,2022.1.1,60.00387625547299,
positive,neutral,2,l,j,,,,,1,8,26,17,,,,,,,,,,,,,,,,,,,,,,,,,,,,,prac,2,2,2,neutral,positive,j,j,1,0.8034165999852121,169.28321359999245,170.30855769998743,170.26230339999893,None,169.28321359999245,None,169.28321359999245,None,169.28321359999245,None,171.07360203000425,None,171.07360203000425,None,171.07360203000425,None,,,,,,,,,,,115,21,Female,2022-05-05_09h34.56.869,Boat,2022.1.1,60.00387625547299,
positive,positive,1,l,j,,,,,1,9,27,2,,,,,,,,,,,,,,,,,,,,,,,,,,,,,prac,1,1,1,positive,positive,j,j,1,1.8243484000267927,171.0898434999981,172.09335859998828,172.07511179998983,None,171.0898434999981,None,171.0898434999981,None,171.0898434999981,None,173.90395099998568,None,173.90395099998568,None,173.90395099998568,None,,,,,,,,,,,115,21,Female,2022-05-05_09h34.56.869,Boat,2022.1.1,60.00387625547299,
negative,positive,1,j,l,,,,,1,10,28,6,,,,,,,,,,,,,,,,,,,,,,,,,,,,,prac,2,2,1,positive,negative,l,l,1,0.8898208999889903,174.9172239000036,175.94339729999774,175.8977293999924,None,174.9172239000036,None,174.9172239000036,None,174.9172239000036,None,176.7936331300094,None,176.7936331300094,None,176.7936331300094,None,,,,,,,,,,,115,21,Female,2022-05-05_09h34.56.869,Boat,2022.1.1,60.00387625547299,
neutral,negative,2,k,k,,,,,1,11,29,16,,,,,,,,,,,,,,,,,,,,,,,,,,,,,prac,1,1,2,negative,neutral,k,k,1,0.7680127000203356,176.81206830000156,177.81556789999013,177.79817389999516,None,176.81206830000156,None,176.81206830000156,None,176.81206830000156,None,178.5656256300077,None,178.5656256300077,None,178.5656256300077,None,,,,,,,,,,,115,21,Female,2022-05-05_09h34.56.869,Boat,2022.1.1,60.00387625547299,
neutral,positive,1,k,k,,,,,1,12,30,4,,,,,,,,,,,,,,,,,,,,,,,,,,,,,prac,1,1,1,positive,neutral,k,k,1,0.8527083000226412,178.58221480000066,179.6085661999823,179.56371260000742,None,178.58221480000066,None,178.58221480000066,None,178.58221480000066,None,180.42066292998206,None,180.42066292998206,None,180.42066292998206,None,,,,,,,,,,,115,21,Female,2022-05-05_09h34.56.869,Boat,2022.1.1,60.00387625547299,
neutral,neutral,2,k,k,,,,,1,13,31,10,,,,,,,,,,,,,,,,,,,,,,,,,,,,,prac,2,2,2,neutral,neutral,k,k,1,0.8490355999965686,180.43742840000778,181.44756020000204,181.41145549999783,None,180.43742840000778,None,180.43742840000778,None,180.43742840000778,None,182.27312643000332,None,182.27312643000332,None,182.27312643000332,None,,,,,,,,,,,115,21,Female,2022-05-05_09h34.56.869,Boat,2022.1.1,60.00387625547299,
positive,positive,2,l,j,,,,,1,14,32,11,,,,,,,,,,,,,,,,,,,,,,,,,,,,,prac,2,2,2,positive,positive,j,j,1,0.7101589999801945,182.28963260000455,183.29382059999625,183.2753965999873,None,182.28963260000455,None,182.28963260000455,None,182.28963260000455,None,183.98458932998764,None,183.98458932998764,None,183.98458932998764,None,,,,,,,,,,,115,21,Female,2022-05-05_09h34.56.869,Boat,2022.1.1,60.00387625547299,
positive,neutral,1,l,j,,,,,1,15,33,8,,,,,,,,,,,,,,,,,,,,,,,,,,,,,prac,2,2,1,neutral,positive,j,j,1,1.0203490999992937,184.0007515999896,185.01541209997959,184.9784207000048,None,184.0007515999896,None,184.0007515999896,None,184.0007515999896,None,186.00813392998825,None,186.00813392998825,None,186.00813392998825,None,,,,,,,,,,,115,21,Female,2022-05-05_09h34.56.869,Boat,2022.1.1,60.00387625547299,
neutral,neutral,1,k,k,,,,,1,16,34,1,,,,,,,,,,,,,,,,,,,,,,,,,,,,,prac,2,2,1,neutral,neutral,k,k,1,0.7930218999972567,186.02933379999013,187.03188339999178,186.9982742999855,None,186.02933379999013,None,186.02933379999013,None,186.02933379999013,None,187.80375703000172,None,187.80375703000172,None,187.80375703000172,None,,,,,,,,,,,115,21,Female,2022-05-05_09h34.56.869,Boat,2022.1.1,60.00387625547299,
negative,negative,2,j,l,,,,,1,17,35,9,,,,,,,,,,,,,,,,,,,,,,,,,,,,,prac,2,2,2,negative,negative,l,l,1,0.7479771999933291,187.8186541000032,188.83239520000643,188.7980040999828,None,187.8186541000032,None,187.8186541000032,None,187.8186541000032,None,189.55391312999708,None,189.55391312999708,None,189.55391312999708,None,,,,,,,,,,,115,21,Female,2022-05-05_09h34.56.869,Boat,2022.1.1,60.00387625547299,
,,,,,,,,,,,,,,,,,,,,,,,,,,,,,,,,,,,,,,,,,,,,,,,,,,,,,,,,,,,,,,,,,,,189.56501839999692,None,None,,,,,,,,115,21,Female,2022-05-05_09h34.56.869,Boat,2022.1.1,60.00387625547299,
,,,,,,,,,,,,,,,,,,,,,,,,,,,,,,,,,,,,,,,,,,,,,,,,,,,,,,,,,,,,,,,,,,,,,,0.5537037,-0.32222223,1,0,0,0.006629229988902807,None,115,21,Female,2022-05-05_09h34.56.869,Boat,2022.1.1,60.00387625547299,
positive,negative,2,l,j,,,,,,,,,0,0,0,14,,,,,,,,,,,,,,,,,,,,,,,217.89443339998252,None,main,2,2,2,negative,positive,j,j,1,0.7558938000001945,219.91203839998343,220.92775899998378,220.88282060000347,None,219.91203839998343,None,219.91203839998343,None,219.91203839998343,None,221.65147222998493,None,221.65147222998493,None,221.65147222998493,None,,,,,,,,,,,115,21,Female,2022-05-05_09h34.56.869,Boat,2022.1.1,60.00387625547299,
negative,neutral,2,j,l,,,,,,,,,0,1,1,12,,,,,,,,,,,,,,,,,,,,,,,,,main,1,1,2,neutral,negative,l,l,1,0.7687603000085801,221.67006589999073,222.6831244000059,222.6482591999811,None,221.67006589999073,None,221.67006589999073,None,221.67006589999073,None,223.42428412999433,None,223.42428412999433,None,223.42428412999433,None,,,,,,,,,,,115,21,Female,2022-05-05_09h34.56.869,Boat,2022.1.1,60.00387625547299,
negative,negative,2,j,l,,,,,,,,,0,2,2,9,,,,,,,,,,,,,,,,,,,,,,,,,main,1,1,2,negative,negative,l,l,1,0.7548582000017632,223.44442280000658,224.4471545999986,224.42905119998613,None,223.44442280000658,None,223.44442280000658,None,223.44442280000658,None,225.18307892999437,None,225.18307892999437,None,225.18307892999437,None,,,,,,,,,,,115,21,Female,2022-05-05_09h34.56.869,Boat,2022.1.1,60.00387625547299,
neutral,positive,1,k,k,,,,,,,,,0,3,3,4,,,,,,,,,,,,,,,,,,,,,,,,,main,2,2,1,positive,neutral,k,k,1,0.6288973999908194,225.19826099998318,226.19967699999688,226.18311169999652,None,225.19826099998318,None,225.19826099998318,None,225.19826099998318,None,226.81396942999854,None,226.81396942999854,None,226.81396942999854,None,,,,,,,,,,,115,21,Female,2022-05-05_09h34.56.869,Boat,2022.1.1,60.00387625547299,
negative,positive,2,j,l,,,,,,,,,0,4,4,15,,,,,,,,,,,,,,,,,,,,,,,,,main,1,1,2,positive,negative,l,l,1,0.7366454000002705,226.83300709998002,227.8445376000018,227.82590289998916,None,226.83300709998002,None,226.83300709998002,None,226.83300709998002,None,228.55289433001016,None,228.55289433001016,None,228.55289433001016,None,,,,,,,,,,,115,21,Female,2022-05-05_09h34.56.869,Boat,2022.1.1,60.00387625547299,
neutral,neutral,2,k,k,,,,,,,,,0,5,5,10,,,,,,,,,,,,,,,,,,,,,,,,,main,1,1,2,neutral,neutral,k,k,1,0.7553808999946341,228.57005209999625,229.59537199998158,229.54963339999085,None,228.57005209999625,None,228.57005209999625,None,228.57005209999625,None,230.3117747299926,None,230.3117747299926,None,230.3117747299926,None,,,,,,,,,,,115,21,Female,2022-05-05_09h34.56.869,Boat,2022.1.1,60.00387625547299,
negative,negative,1,j,l,,,,,,,,,0,6,6,0,,,,,,,,,,,,,,,,,,,,,,,,,main,2,2,1,negative,negative,l,l,1,0.9410459999926388,230.3329870000016,231.3596781999804,231.31501859999844,None,230.3329870000016,None,230.3329870000016,None,230.3329870000016,None,232.2548122299864,None,232.2548122299864,None,232.2548122299864,None,,,,,,,,,,,115,21,Female,2022-05-05_09h34.56.869,Boat,2022.1.1,60.00387625547299,
neutral,negative,2,k,k,,,,,,,,,0,7,7,16,,,,,,,,,,,,,,,,,,,,,,,,,main,1,1,2,negative,neutral,k,k,1,0.6828041000117082,232.2708711999876,233.2779959999898,233.2598985999939,None,232.2708711999876,None,232.2708711999876,None,232.2708711999876,None,233.94052512999914,None,233.94052512999914,None,233.94052512999914,None,,,,,,,,,,,115,21,Female,2022-05-05_09h34.56.869,Boat,2022.1.1,60.00387625547299,
positive,positive,1,l,j,,,,,,,,,0,8,8,2,,,,,,,,,,,,,,,,,,,,,,,,,main,1,1,1,positive,positive,j,j,1,0.6388834999816027,233.9568985000078,234.96674559998792,234.93323029999738,None,233.9568985000078,None,233.9568985000078,None,233.9568985000078,None,235.5834490299836,None,235.5834490299836,None,235.5834490299836,None,,,,,,,,,,,115,21,Female,2022-05-05_09h34.56.869,Boat,2022.1.1,60.00387625547299,
positive,neutral,2,l,j,,,,,,,,,0,9,9,17,,,,,,,,,,,,,,,,,,,,,,,,,main,1,1,2,neutral,positive,j,j,1,0.6524001999932807,235.60029850000865,236.59991530000116,236.5832531999913,None,235.60029850000865,None,235.60029850000865,None,235.60029850000865,None,237.23777832999767,None,237.23777832999767,None,237.23777832999767,None,,,,,,,,,,,115,21,Female,2022-05-05_09h34.56.869,Boat,2022.1.1,60.00387625547299,
neutral,neutral,1,k,k,,,,,,,,,0,10,10,1,,,,,,,,,,,,,,,,,,,,,,,,,main,1,1,1,neutral,neutral,k,k,1,0.6819327999837697,237.25529129998176,238.26673319999827,238.2320391999965,None,237.25529129998176,None,237.25529129998176,None,237.25529129998176,None,238.9220718299999,None,238.9220718299999,None,238.9220718299999,None,,,,,,,,,,,115,21,Female,2022-05-05_09h34.56.869,Boat,2022.1.1,60.00387625547299,
positive,neutral,1,l,j,,,,,,,,,0,11,11,8,,,,,,,,,,,,,,,,,,,,,,,,,main,1,1,1,neutral,positive,j,j,1,0.7321426000271458,238.93932309999946,239.96152859998983,239.91673559998162,None,238.93932309999946,None,238.93932309999946,None,238.93932309999946,None,240.65730822998157,None,240.65730822998157,None,240.65730822998157,None,,,,,,,,,,,115,21,Female,2022-05-05_09h34.56.869,Boat,2022.1.1,60.00387625547299,
negative,positive,1,j,l,,,,,,,,,0,12,12,6,,,,,,,,,,,,,,,,,,,,,,,,,main,2,2,1,positive,negative,l,l,1,0.6443460000155028,240.67321479998645,241.683406199998,241.6473369000014,None,240.67321479998645,None,240.67321479998645,None,240.67321479998645,None,242.3029498299962,None,242.3029498299962,None,242.3029498299962,None,,,,,,,,,,,115,21,Female,2022-05-05_09h34.56.869,Boat,2022.1.1,60.00387625547299,
negative,neutral,1,j,l,,,,,,,,,0,13,13,3,,,,,,,,,,,,,,,,,,,,,,,,,main,2,2,1,neutral,negative,l,l,1,0.9159907000139356,242.3210441999836,243.327879199991,243.30983270000434,None,242.3210441999836,None,242.3210441999836,None,242.3210441999836,None,244.22327602998993,None,244.22327602998993,None,244.22327602998993,None,,,,,,,,,,,115,21,Female,2022-05-05_09h34.56.869,Boat,2022.1.1,60.00387625547299,
positive,positive,2,l,j,,,,,,,,,0,14,14,11,,,,,,,,,,,,,,,,,,,,,,,,,main,1,1,2,positive,positive,j,j,1,0.6464972000103444,244.23954439998488,245.26150469999993,245.2160983000067,None,244.23954439998488,None,244.23954439998488,None,244.23954439998488,None,245.87190983000036,None,245.87190983000036,None,245.87190983000036,None,,,,,,,,,,,115,21,Female,2022-05-05_09h34.56.869,Boat,2022.1.1,60.00387625547299,
neutral,negative,1,k,k,,,,,,,,,0,15,15,7,,,,,,,,,,,,,,,,,,,,,,,,,main,2,2,1,negative,neutral,k,k,1,0.6152083000051789,245.88849949999712,246.9100105999969,246.8644498999929,None,245.88849949999712,None,245.88849949999712,None,245.88849949999712,None,247.489436929996,None,247.489436929996,None,247.489436929996,None,,,,,,,,,,,115,21,Female,2022-05-05_09h34.56.869,Boat,2022.1.1,60.00387625547299,
positive,negative,1,l,j,,,,,,,,,0,16,16,5,,,,,,,,,,,,,,,,,,,,,,,,,main,1,1,1,negative,positive,j,j,1,0.7781516999821179,247.51010899999528,248.52846629999112,248.48355489998357,None,247.51010899999528,None,247.51010899999528,None,247.51010899999528,None,249.27254223000782,None,249.27254223000782,None,249.27254223000782,None,,,,,,,,,,,115,21,Female,2022-05-05_09h34.56.869,Boat,2022.1.1,60.00387625547299,
neutral,positive,2,k,k,,,,,,,,,0,17,17,13,,,,,,,,,,,,,,,,,,,,,,,,,main,1,1,2,positive,neutral,k,k,1,0.6435240000137128,249.28774030000204,250.30043979999027,250.26391750000766,None,249.28774030000204,None,249.28774030000204,None,249.28774030000204,None,250.91786982998892,None,250.91786982998892,None,250.91786982998892,None,,,,,,,,,,,115,21,Female,2022-05-05_09h34.56.869,Boat,2022.1.1,60.00387625547299,
positive,neutral,1,l,j,,,,,,,,,1,0,18,8,,,,,,,,,,,,,,,,,,,,,,,,,main,2,2,1,neutral,positive,j,j,1,0.8144040000042878,250.93630669999402,251.95045609999215,251.91649469998083,None,250.93630669999402,None,250.93630669999402,None,250.93630669999402,None,252.73539532998402,None,252.73539532998402,None,252.73539532998402,None,,,,,,,,,,,115,21,Female,2022-05-05_09h34.56.869,Boat,2022.1.1,60.00387625547299,
positive,neutral,2,l,j,,,,,,,,,1,1,19,17,,,,,,,,,,,,,,,,,,,,,,,,,main,1,1,2,neutral,positive,j,j,1,0.763977700000396,252.75305239998852,253.77703100000508,253.7336687000061,None,252.75305239998852,None,252.75305239998852,None,252.75305239998852,None,254.50248902999155,None,254.50248902999155,None,254.50248902999155,None,,,,,,,,,,,115,21,Female,2022-05-05_09h34.56.869,Boat,2022.1.1,60.00387625547299,
neutral,neutral,1,k,k,,,,,,,,,1,2,20,1,,,,,,,,,,,,,,,,,,,,,,,,,main,1,1,1,neutral,neutral,k,k,1,0.7322100999881513,254.51893789999303,255.5434592999809,255.50036069998168,None,254.51893789999303,None,254.51893789999303,None,254.51893789999303,None,256.237066529991,None,256.237066529991,None,256.237066529991,None,,,,,,,,,,,115,21,Female,2022-05-05_09h34.56.869,Boat,2022.1.1,60.00387625547299,
positive,positive,2,l,j,,,,,,,,,1,3,21,11,,,,,,,,,,,,,,,,,,,,,,,,,main,1,1,2,positive,positive,j,j,1,0.7207252999942284,256.25493219998316,257.26693949999753,257.23358909998205,None,256.25493219998316,None,256.25493219998316,None,256.25493219998316,None,257.9614345299866,None,257.9614345299866,None,257.9614345299866,None,,,,,,,,,,,115,21,Female,2022-05-05_09h34.56.869,Boat,2022.1.1,60.00387625547299,
negative,neutral,2,j,l,,,,,,,,,1,4,22,12,,,,,,,,,,,,,,,,,,,,,,,,,main,2,2,2,neutral,negative,l,l,1,0.8019397000025492,257.98186259999056,259.0004360000021,258.9633912999998,None,257.98186259999056,None,257.98186259999056,None,257.98186259999056,None,259.7636002299929,None,259.7636002299929,None,259.7636002299929,None,,,,,,,,,,,115,21,Female,2022-05-05_09h34.56.869,Boat,2022.1.1,60.00387625547299,
neutral,positive,2,k,k,,,,,,,,,1,5,23,13,,,,,,,,,,,,,,,,,,,,,,,,,main,1,1,2,positive,neutral,k,k,1,0.7207686000037938,259.78950819998863,260.79785259999335,260.7797840999847,None,259.78950819998863,None,259.78950819998863,None,259.78950819998863,None,261.4907793300023,None,261.4907793300023,None,261.4907793300023,None,,,,,,,,,,,115,21,Female,2022-05-05_09h34.56.869,Boat,2022.1.1,60.00387625547299,
neutral,positive,1,k,k,,,,,,,,,1,6,24,4,,,,,,,,,,,,,,,,,,,,,,,,,main,1,1,1,positive,neutral,k,k,1,0.9099248999846168,261.5088740999927,262.51438839998445,262.495571699983,None,261.5088740999927,None,261.5088740999927,None,261.5088740999927,None,263.4040713299852,None,263.4040713299852,None,263.4040713299852,None,,,,,,,,,,,115,21,Female,2022-05-05_09h34.56.869,Boat,2022.1.1,60.00387625547299,
neutral,negative,1,k,k,,,,,,,,,1,7,25,7,,,,,,,,,,,,,,,,,,,,,,,,,main,2,2,1,negative,neutral,k,k,1,0.8655091999971773,263.42240189999575,264.4453453999886,264.4003691999824,None,263.42240189999575,None,263.42240189999575,None,263.42240189999575,None,265.27256473000455,None,265.27256473000455,None,265.27256473000455,None,,,,,,,,,,,115,21,Female,2022-05-05_09h34.56.869,Boat,2022.1.1,60.00387625547299,
negative,positive,2,j,l,,,,,,,,,1,8,26,15,,,,,,,,,,,,,,,,,,,,,,,,,main,1,1,2,positive,negative,l,l,1,1.0498423999815714,265.2893235000083,266.301000699983,266.2671917999978,None,265.2893235000083,None,265.2893235000083,None,265.2893235000083,None,267.3243197299977,None,267.3243197299977,None,267.3243197299977,None,,,,,,,,,,,115,21,Female,2022-05-05_09h34.56.869,Boat,2022.1.1,60.00387625547299,
positive,negative,2,l,j,,,,,,,,,1,9,27,14,,,,,,,,,,,,,,,,,,,,,,,,,main,1,1,2,negative,positive,j,j,1,0.6278688999882434,267.3421774999879,268.35087339999154,268.3140854999947,None,267.3421774999879,None,267.3421774999879,None,267.3421774999879,None,268.9554835299874,None,268.9554835299874,None,268.9554835299874,None,,,,,,,,,,,115,21,Female,2022-05-05_09h34.56.869,Boat,2022.1.1,60.00387625547299,
neutral,negative,2,k,k,,,,,,,,,1,10,28,16,,,,,,,,,,,,,,,,,,,,,,,,,main,1,1,2,negative,neutral,k,k,1,0.6913550999888685,268.97195629999624,269.98402509998414,269.9480740999861,None,268.97195629999624,None,268.97195629999624,None,268.97195629999624,None,270.6507596300013,None,270.6507596300013,None,270.6507596300013,None,,,,,,,,,,,115,21,Female,2022-05-05_09h34.56.869,Boat,2022.1.1,60.00387625547299,
positive,negative,1,l,j,,,,,,,,,1,11,29,5,,,,,,,,,,,,,,,,,,,,,,,,,main,1,1,1,negative,positive,j,j,1,0.763430499995593,270.6684442999831,271.6786831000063,271.66049449998536,None,270.6684442999831,None,270.6684442999831,None,270.6684442999831,None,272.41736713000284,None,272.41736713000284,None,272.41736713000284,None,,,,,,,,,,,115,21,Female,2022-05-05_09h34.56.869,Boat,2022.1.1,60.00387625547299,
negative,negative,1,j,l,,,,,,,,,1,12,30,0,,,,,,,,,,,,,,,,,,,,,,,,,main,2,2,1,negative,negative,l,l,1,0.785972399986349,272.43681549999746,273.44580389998737,273.42713480000384,None,272.43681549999746,None,272.43681549999746,None,272.43681549999746,None,274.2058150300087,None,274.2058150300087,None,274.2058150300087,None,,,,,,,,,,,115,21,Female,2022-05-05_09h34.56.869,Boat,2022.1.1,60.00387625547299,
negative,negative,2,j,l,,,,,,,,,1,13,31,9,,,,,,,,,,,,,,,,,,,,,,,,,main,1,1,2,negative,negative,l,l,1,0.8465027999773156,274.2227912999806,275.23385920000146,275.1974610000034,None,274.2227912999806,None,274.2227912999806,None,274.2227912999806,None,276.0557196299866,None,276.0557196299866,None,276.0557196299866,None,,,,,,,,,,,115,21,Female,2022-05-05_09h34.56.869,Boat,2022.1.1,60.00387625547299,
positive,positive,1,l,j,,,,,,,,,1,14,32,2,,,,,,,,,,,,,,,,,,,,,,,,,main,1,1,1,positive,positive,j,j,1,0.7969444000045769,276.07270140000037,277.08433069998864,277.0505159999884,None,276.07270140000037,None,276.07270140000037,None,276.07270140000037,None,277.8556507300033,None,277.8556507300033,None,277.8556507300033,None,,,,,,,,,,,115,21,Female,2022-05-05_09h34.56.869,Boat,2022.1.1,60.00387625547299,
negative,positive,1,j,l,,,,,,,,,1,15,33,6,,,,,,,,,,,,,,,,,,,,,,,,,main,2,2,1,positive,negative,l,l,1,0.8619541999942157,277.87201669998467,278.8852435000008,278.85001930000726,None,277.87201669998467,None,277.87201669998467,None,277.87201669998467,None,279.71983473000876,None,279.71983473000876,None,279.71983473000876,None,,,,,,,,,,,115,21,Female,2022-05-05_09h34.56.869,Boat,2022.1.1,60.00387625547299,
negative,neutral,1,j,l,,,,,,,,,1,16,34,3,,,,,,,,,,,,,,,,,,,,,,,,,main,2,2,1,neutral,negative,l,l,1,0.7104822000255808,279.7371282999811,280.7608767999918,280.71770700000343,None,279.7371282999811,None,279.7371282999811,None,279.7371282999811,None,281.4342111300008,None,281.4342111300008,None,281.4342111300008,None,,,,,,,,,,,115,21,Female,2022-05-05_09h34.56.869,Boat,2022.1.1,60.00387625547299,
neutral,neutral,2,k,k,,,,,,,,,1,17,35,10,,,,,,,,,,,,,,,,,,,,,,,,,main,1,1,2,neutral,neutral,k,k,1,0.7581669999926817,281.4507983000076,282.4676951000001,282.43094679998467,None,281.4507983000076,None,281.4507983000076,None,281.4507983000076,None,283.1955753300077,None,283.1955753300077,None,283.1955753300077,None,,,,,,,,,,,115,21,Female,2022-05-05_09h34.56.869,Boat,2022.1.1,60.00387625547299,
positive,negative,2,l,j,,,,,,,,,2,0,36,14,,,,,,,,,,,,,,,,,,,,,,,,,main,1,1,2,negative,positive,j,j,1,0.7586479000165127,283.21539420000045,284.23430479998933,284.1975040999823,None,283.21539420000045,None,283.21539420000045,None,283.21539420000045,None,284.9556370299921,None,284.9556370299921,None,284.9556370299921,None,,,,,,,,,,,115,21,Female,2022-05-05_09h34.56.869,Boat,2022.1.1,60.00387625547299,
negative,neutral,2,j,l,,,,,,,,,2,1,37,12,,,,,,,,,,,,,,,,,,,,,,,,,main,2,2,2,neutral,negative,l,l,1,0.7950336000067182,284.97203800000716,285.9848584999854,285.9474959000072,None,284.97203800000716,None,284.97203800000716,None,284.97203800000716,None,286.7529614300089,None,286.7529614300089,None,286.7529614300089,None,,,,,,,,,,,115,21,Female,2022-05-05_09h34.56.869,Boat,2022.1.1,60.00387625547299,
positive,negative,1,l,j,,,,,,,,,2,2,38,5,,,,,,,,,,,,,,,,,,,,,,,,,main,1,1,1,negative,positive,j,j,1,0.7775683999934699,286.7703731000074,287.79414189999807,287.75125050000497,None,286.7703731000074,None,286.7703731000074,None,286.7703731000074,None,288.5345317300031,None,288.5345317300031,None,288.5345317300031,None,,,,,,,,,,,115,21,Female,2022-05-05_09h34.56.869,Boat,2022.1.1,60.00387625547299,
negative,neutral,1,j,l,,,,,,,,,2,3,39,3,,,,,,,,,,,,,,,,,,,,,,,,,main,2,2,1,neutral,negative,l,l,1,0.9822429999767337,288.55196559999604,289.5678920999926,289.5327944000019,None,288.55196559999604,None,288.55196559999604,None,288.55196559999604,None,290.51938622998716,None,290.51938622998716,None,290.51938622998716,None,,,,,,,,,,,115,21,Female,2022-05-05_09h34.56.869,Boat,2022.1.1,60.00387625547299,
negative,negative,2,j,l,,,,,,,,,2,4,40,9,,,,,,,,,,,,,,,,,,,,,,,,,main,1,1,2,negative,negative,l,l,1,0.9868944000045303,290.53634449999663,291.5609836000076,291.5181322999997,None,290.53634449999663,None,290.53634449999663,None,290.53634449999663,None,292.5088516299817,None,292.5088516299817,None,292.5088516299817,None,,,,,,,,,,,115,21,Female,2022-05-05_09h34.56.869,Boat,2022.1.1,60.00387625547299,
positive,neutral,1,l,j,,,,,,,,,2,5,41,8,,,,,,,,,,,,,,,,,,,,,,,,,main,1,1,1,neutral,positive,j,j,1,0.7848780000058468,292.52613119999296,293.54623549999087,293.5009252000018,None,292.52613119999296,None,292.52613119999296,None,292.52613119999296,None,294.2977456300083,None,294.2977456300083,None,294.2977456300083,None,,,,,,,,,,,115,21,Female,2022-05-05_09h34.56.869,Boat,2022.1.1,60.00387625547299,
negative,positive,1,j,l,,,,,,,,,2,6,42,6,,,,,,,,,,,,,,,,,,,,,,,,,main,2,2,1,positive,negative,l,l,1,0.7543969000107609,294.3178878999897,295.3184139000077,295.3009850999806,None,294.3178878999897,None,294.3178878999897,None,294.3178878999897,None,296.050613929992,None,296.050613929992,None,296.050613929992,None,,,,,,,,,,,115,21,Female,2022-05-05_09h34.56.869,Boat,2022.1.1,60.00387625547299,
neutral,neutral,1,k,k,,,,,,,,,2,7,43,1,,,,,,,,,,,,,,,,,,,,,,,,,main,1,1,1,neutral,neutral,k,k,1,0.7152354999852832,296.0758285000047,297.09462439999334,297.05144889999065,None,296.0758285000047,None,296.0758285000047,None,296.0758285000047,None,297.773140229992,None,297.773140229992,None,297.773140229992,None,,,,,,,,,,,115,21,Female,2022-05-05_09h34.56.869,Boat,2022.1.1,60.00387625547299,
neutral,negative,2,k,k,,,,,,,,,2,8,44,16,,,,,,,,,,,,,,,,,,,,,,,,,main,1,1,2,negative,neutral,k,k,1,0.8468019999854732,297.7913288999989,298.8015832999954,298.7670816000027,None,297.7913288999989,None,297.7913288999989,None,297.7913288999989,None,299.6230287299928,None,299.6230287299928,None,299.6230287299928,None,,,,,,,,,,,115,21,Female,2022-05-05_09h34.56.869,Boat,2022.1.1,60.00387625547299,
negative,negative,1,j,l,,,,,,,,,2,9,45,0,,,,,,,,,,,,,,,,,,,,,,,,,main,2,2,1,negative,negative,l,l,1,1.1255468000017572,299.63883839998743,300.66127739998046,300.61810329998843,None,299.63883839998743,None,299.63883839998743,None,299.63883839998743,None,301.75166012999546,None,301.75166012999546,None,301.75166012999546,None,,,,,,,,,,,115,21,Female,2022-05-05_09h34.56.869,Boat,2022.1.1,60.00387625547299,
positive,neutral,2,l,j,,,,,,,,,2,10,46,17,,,,,,,,,,,,,,,,,,,,,,,,,main,1,1,2,neutral,positive,j,j,1,0.7018697000166867,301.7685205999878,302.7821740999934,302.7634801999957,None,301.7685205999878,None,301.7685205999878,None,301.7685205999878,None,303.4562879300007,None,303.4562879300007,None,303.4562879300007,None,,,,,,,,,,,115,21,Female,2022-05-05_09h34.56.869,Boat,2022.1.1,60.00387625547299,
negative,positive,2,j,l,,,,,,,,,2,11,47,15,,,,,,,,,,,,,,,,,,,,,,,,,main,1,1,2,positive,negative,l,l,1,0.6987921000109054,303.47340019998956,304.49475630000234,304.4515422999975,None,303.47340019998956,None,303.47340019998956,None,303.47340019998956,None,305.1574893299927,None,305.1574893299927,None,305.1574893299927,None,,,,,,,,,,,115,21,Female,2022-05-05_09h34.56.869,Boat,2022.1.1,60.00387625547299,
positive,positive,2,l,j,,,,,,,,,2,12,48,11,,,,,,,,,,,,,,,,,,,,,,,,,main,2,2,2,positive,positive,j,j,1,0.7011352999834344,305.17598969998653,306.1947569999902,306.151641799981,None,305.17598969998653,None,305.17598969998653,None,305.17598969998653,None,306.85986902999286,None,306.85986902999286,None,306.85986902999286,None,,,,,,,,,,,115,21,Female,2022-05-05_09h34.56.869,Boat,2022.1.1,60.00387625547299,
positive,positive,1,l,j,,,,,,,,,2,13,49,2,,,,,,,,,,,,,,,,,,,,,,,,,main,1,1,1,positive,positive,j,j,1,0.8070188999990933,306.8840343999909,307.89822569998796,307.8800970999873,None,306.8840343999909,None,306.8840343999909,None,306.8840343999909,None,308.6709472299932,None,308.6709472299932,None,308.6709472299932,None,,,,,,,,,,,115,21,Female,2022-05-05_09h34.56.869,Boat,2022.1.1,60.00387625547299,
neutral,negative,1,k,k,,,,,,,,,2,14,50,7,,,,,,,,,,,,,,,,,,,,,,,,,main,1,1,1,negative,neutral,k,k,1,0.7583219000080135,308.69028320000507,309.7015890000039,309.6658996999904,None,308.69028320000507,None,308.69028320000507,None,308.69028320000507,None,310.43398462999323,None,310.43398462999323,None,310.43398462999323,None,,,,,,,,,,,115,21,Female,2022-05-05_09h34.56.869,Boat,2022.1.1,60.00387625547299,
neutral,positive,2,k,k,,,,,,,,,2,15,51,13,,,,,,,,,,,,,,,,,,,,,,,,,main,1,1,2,positive,neutral,k,k,1,0.8026685999939218,310.4532582999964,311.46659669998917,311.43118799998774,None,310.4532582999964,None,310.4532582999964,None,310.4532582999964,None,312.2397508299997,None,312.2397508299997,None,312.2397508299997,None,,,,,,,,,,,115,21,Female,2022-05-05_09h34.56.869,Boat,2022.1.1,60.00387625547299,
neutral,neutral,2,k,k,,,,,,,,,2,16,52,10,,,,,,,,,,,,,,,,,,,,,,,,,main,2,2,2,neutral,neutral,k,k,1,0.9436551999824587,312.2572208000056,313.2782477999863,313.23219019998214,None,312.2572208000056,None,312.2572208000056,None,312.2572208000056,None,314.18604633000507,None,314.18604633000507,None,314.18604633000507,None,,,,,,,,,,,115,21,Female,2022-05-05_09h34.56.869,Boat,2022.1.1,60.00387625547299,
neutral,positive,1,k,k,,,,,,,,,2,17,53,4,,,,,,,,,,,,,,,,,,,,,,,,,main,2,2,1,positive,neutral,k,k,1,1.0865979999944102,314.20437609998044,315.2283792999806,315.18514549999963,None,314.20437609998044,None,314.20437609998044,None,314.20437609998044,None,316.2769813299907,None,316.2769813299907,None,316.2769813299907,None,,,,,,,,,,,115,21,Female,2022-05-05_09h34.56.869,Boat,2022.1.1,60.00387625547299,
positive,positive,2,l,j,,,,,,,,,3,0,54,11,,,,,,,,,,,,,,,,,,,,,,,,,main,1,1,2,positive,positive,j,j,1,0.7329836999997497,316.2938639000058,317.30198570000357,317.2683699000045,None,316.2938639000058,None,316.2938639000058,None,316.2938639000058,None,318.0124615299952,None,318.0124615299952,None,318.0124615299952,None,,,,,,,,,,,115,21,Female,2022-05-05_09h34.56.869,Boat,2022.1.1,60.00387625547299,
negative,positive,1,j,l,,,,,,,,,3,1,55,6,,,,,,,,,,,,,,,,,,,,,,,,,main,1,1,1,positive,negative,l,l,1,0.6096547000051942,318.02884990000166,319.04624749999493,319.0019379000005,None,318.02884990000166,None,318.02884990000166,None,318.02884990000166,None,319.6227718299866,None,319.6227718299866,None,319.6227718299866,None,,,,,,,,,,,115,21,Female,2022-05-05_09h34.56.869,Boat,2022.1.1,60.00387625547299,
negative,neutral,2,j,l,,,,,,,,,3,2,56,12,,,,,,,,,,,,,,,,,,,,,,,,,main,2,2,2,neutral,negative,l,l,1,0.946065299998736,319.64018630000646,320.6468538999907,320.62829779999447,None,319.64018630000646,None,319.64018630000646,None,319.64018630000646,None,321.57215552999116,None,321.57215552999116,None,321.57215552999116,None,,,,,,,,,,,115,21,Female,2022-05-05_09h34.56.869,Boat,2022.1.1,60.00387625547299,
negative,negative,2,j,l,,,,,,,,,3,3,57,9,,,,,,,,,,,,,,,,,,,,,,,,,main,2,2,2,negative,negative,l,l,1,0.6663961000158451,321.5895891999826,322.6080641000008,322.5682678000012,None,321.5895891999826,None,321.5895891999826,None,321.5895891999826,None,323.24134863000074,None,323.24134863000074,None,323.24134863000074,None,,,,,,,,,,,115,21,Female,2022-05-05_09h34.56.869,Boat,2022.1.1,60.00387625547299,
positive,negative,1,l,j,,,,,,,,,3,4,58,5,,,,,,,,,,,,,,,,,,,,,,,,,main,2,2,1,negative,positive,j,j,1,0.7771046999841928,323.25734539999394,324.27095800000825,324.23556840000674,None,323.25734539999394,None,323.25734539999394,None,323.25734539999394,None,325.02001232998157,None,325.02001232998157,None,325.02001232998157,None,,,,,,,,,,,115,21,Female,2022-05-05_09h34.56.869,Boat,2022.1.1,60.00387625547299,
positive,negative,2,l,j,,,,,,,,,3,5,59,14,,,,,,,,,,,,,,,,,,,,,,,,,main,2,2,2,negative,positive,j,j,1,0.7266340000205673,325.03742799998145,326.05172829999356,326.01539929999853,None,325.03742799998145,None,325.03742799998145,None,325.03742799998145,None,326.75133643000447,None,326.75133643000447,None,326.75133643000447,None,,,,,,,,,,,115,21,Female,2022-05-05_09h34.56.869,Boat,2022.1.1,60.00387625547299,
positive,neutral,1,l,j,,,,,,,,,3,6,60,8,,,,,,,,,,,,,,,,,,,,,,,,,main,2,2,1,neutral,positive,j,j,1,0.8206033000024036,326.768954500003,327.7689977999835,327.7519835999992,None,326.768954500003,None,326.768954500003,None,326.768954500003,None,328.5737557299814,None,328.5737557299814,None,328.5737557299814,None,,,,,,,,,,,115,21,Female,2022-05-05_09h34.56.869,Boat,2022.1.1,60.00387625547299,
negative,negative,1,j,l,,,,,,,,,3,7,61,0,,,,,,,,,,,,,,,,,,,,,,,,,main,2,2,1,negative,negative,l,l,1,1.2317483999941032,328.5909524000017,329.60119859999395,329.56487030000426,None,328.5909524000017,None,328.5909524000017,None,328.5909524000017,None,330.80766142998766,None,330.80766142998766,None,330.80766142998766,None,,,,,,,,,,,115,21,Female,2022-05-05_09h34.56.869,Boat,2022.1.1,60.00387625547299,
negative,positive,2,j,l,,,,,,,,,3,8,62,15,,,,,,,,,,,,,,,,,,,,,,,,,main,1,1,2,positive,negative,l,l,1,0.8567657000094187,330.8250052999938,331.8348937999981,331.79888719998416,None,330.8250052999938,None,330.8250052999938,None,330.8250052999938,None,332.669004229983,None,332.669004229983,None,332.669004229983,None,,,,,,,,,,,115,21,Female,2022-05-05_09h34.56.869,Boat,2022.1.1,60.00387625547299,
neutral,neutral,1,k,k,,,,,,,,,3,9,63,1,,,,,,,,,,,,,,,,,,,,,,,,,main,2,2,1,neutral,neutral,k,k,1,0.7105191999871749,332.68581789999735,333.7115922999801,333.6656188000052,None,332.68581789999735,None,332.68581789999735,None,332.68581789999735,None,334.3824743300007,None,334.3824743300007,None,334.3824743300007,None,,,,,,,,,,,115,21,Female,2022-05-05_09h34.56.869,Boat,2022.1.1,60.00387625547299,
neutral,negative,2,k,k,,,,,,,,,3,10,64,16,,,,,,,,,,,,,,,,,,,,,,,,,main,2,2,2,negative,neutral,k,k,1,0.6895564000005834,334.39944169999217,335.413446999999,335.3686357999977,None,334.39944169999217,None,334.39944169999217,None,334.39944169999217,None,336.0741540299874,None,336.0741540299874,None,336.0741540299874,None,,,,,,,,,,,115,21,Female,2022-05-05_09h34.56.869,Boat,2022.1.1,60.00387625547299,
neutral,negative,1,k,k,,,,,,,,,3,11,65,7,,,,,,,,,,,,,,,,,,,,,,,,,main,2,2,1,negative,neutral,k,k,1,0.5842395999934524,336.09004519999144,337.1118471999944,337.0688081999833,None,336.09004519999144,None,336.09004519999144,None,336.09004519999144,None,337.6610732299829,None,337.6610732299829,None,337.6610732299829,None,,,,,,,,,,,115,21,Female,2022-05-05_09h34.56.869,Boat,2022.1.1,60.00387625547299,
positive,neutral,2,l,j,,,,,,,,,3,12,66,17,,,,,,,,,,,,,,,,,,,,,,,,,main,2,2,2,neutral,positive,j,j,1,0.7102832999953534,337.68280609999783,338.6988049999927,338.6617338999931,None,337.68280609999783,None,337.68280609999783,None,337.68280609999783,None,339.3739216299815,None,339.3739216299815,None,339.3739216299815,None,,,,,,,,,,,115,21,Female,2022-05-05_09h34.56.869,Boat,2022.1.1,60.00387625547299,
neutral,positive,1,k,k,,,,,,,,,3,13,67,4,,,,,,,,,,,,,,,,,,,,,,,,,main,2,2,1,positive,neutral,k,k,1,0.6486495000135619,339.3908279000025,340.4135050000041,340.3683228000009,None,339.3908279000025,None,339.3908279000025,None,339.3908279000025,None,341.02522103000376,None,341.02522103000376,None,341.02522103000376,None,,,,,,,,,,,115,21,Female,2022-05-05_09h34.56.869,Boat,2022.1.1,60.00387625547299,
negative,neutral,1,j,l,,,,,,,,,3,14,68,3,,,,,,,,,,,,,,,,,,,,,,,,,main,2,2,1,neutral,negative,l,l,1,0.6962996000074781,341.0414833999821,342.0621406999999,342.01891230000183,None,341.0414833999821,None,341.0414833999821,None,341.0414833999821,None,342.724078429988,None,342.724078429988,None,342.724078429988,None,,,,,,,,,,,115,21,Female,2022-05-05_09h34.56.869,Boat,2022.1.1,60.00387625547299,
positive,positive,1,l,j,,,,,,,,,3,15,69,2,,,,,,,,,,,,,,,,,,,,,,,,,main,2,2,1,positive,positive,j,j,1,0.8636383000120986,342.7433741999848,343.7617590999871,343.7190273999877,None,342.7433741999848,None,342.7433741999848,None,342.7433741999848,None,344.5905059299927,None,344.5905059299927,None,344.5905059299927,None,,,,,,,,,,,115,21,Female,2022-05-05_09h34.56.869,Boat,2022.1.1,60.00387625547299,
neutral,positive,2,k,k,,,,,,,,,3,16,70,13,,,,,,,,,,,,,,,,,,,,,,,,,main,1,1,2,positive,neutral,k,k,1,0.7305976999923587,344.6061916000035,345.62885899998946,345.5856780000031,None,344.6061916000035,None,344.6061916000035,None,344.6061916000035,None,346.32339332998674,None,346.32339332998674,None,346.32339332998674,None,,,,,,,,,,,115,21,Female,2022-05-05_09h34.56.869,Boat,2022.1.1,60.00387625547299,
neutral,neutral,2,k,k,,,,,,,,,3,17,71,10,,,,,,,,,,,,,,,,,,,,,,,,,main,1,1,2,neutral,neutral,k,k,1,0.6966334999888204,346.3394344999979,347.36232459999155,347.31930070000817,None,346.3394344999979,None,346.3394344999979,None,346.3394344999979,None,348.0229377299926,None,348.0229377299926,None,348.0229377299926,None,,,,,,,,,,,115,21,Female,2022-05-05_09h34.56.869,Boat,2022.1.1,60.00387625547299,
positive,positive,1,l,j,,,,,,,,,4,0,72,2,,,,,,,,,,,,,,,,,,,,,,,,,main,1,1,1,positive,positive,j,j,1,0.8155461999995168,348.03878350000014,349.0623357000004,349.01929279998876,None,348.03878350000014,None,348.03878350000014,None,348.03878350000014,None,349.84058932998744,None,349.84058932998744,None,349.84058932998744,None,,,,,,,,,,,115,21,Female,2022-05-05_09h34.56.869,Boat,2022.1.1,60.00387625547299,
negative,negative,1,j,l,,,,,,,,,4,1,73,0,,,,,,,,,,,,,,,,,,,,,,,,,main,2,2,1,negative,negative,l,l,1,0.7740536000055727,349.8578922000015,350.8692672000034,350.8357667999808,None,349.8578922000015,None,349.8578922000015,None,349.8578922000015,None,351.61919122999245,None,351.61919122999245,None,351.61919122999245,None,,,,,,,,,,,115,21,Female,2022-05-05_09h34.56.869,Boat,2022.1.1,60.00387625547299,
positive,positive,2,l,j,,,,,,,,,4,2,74,11,,,,,,,,,,,,,,,,,,,,,,,,,main,2,2,2,positive,positive,j,j,1,0.8050371999852359,351.6348762999987,352.6526595999894,352.6165013999853,None,351.6348762999987,None,351.6348762999987,None,351.6348762999987,None,353.42692032998605,None,353.42692032998605,None,353.42692032998605,None,,,,,,,,,,,115,21,Female,2022-05-05_09h34.56.869,Boat,2022.1.1,60.00387625547299,
positive,neutral,1,l,j,,,,,,,,,4,3,75,8,,,,,,,,,,,,,,,,,,,,,,,,,main,2,2,1,neutral,positive,j,j,1,0.8550612000108231,353.44649219998973,354.45148269998026,354.4328402999963,None,353.44649219998973,None,353.44649219998973,None,353.44649219998973,None,355.28568862999384,None,355.28568862999384,None,355.28568862999384,None,,,,,,,,,,,115,21,Female,2022-05-05_09h34.56.869,Boat,2022.1.1,60.00387625547299,
positive,neutral,2,l,j,,,,,,,,,4,4,76,17,,,,,,,,,,,,,,,,,,,,,,,,,main,2,2,2,neutral,positive,j,j,1,0.7569827999977861,355.301956899988,356.3027272000036,356.2860844999959,None,355.301956899988,None,355.301956899988,None,355.301956899988,None,357.04513682999243,None,357.04513682999243,None,357.04513682999243,None,,,,,,,,,,,115,21,Female,2022-05-05_09h34.56.869,Boat,2022.1.1,60.00387625547299,
negative,negative,2,j,l,,,,,,,,,4,5,77,9,,,,,,,,,,,,,,,,,,,,,,,,,main,2,2,2,negative,negative,l,l,1,0.8246204000024591,357.0636239000014,358.0695192999847,358.03417810000246,None,357.0636239000014,None,357.0636239000014,None,357.0636239000014,None,358.87152982998816,None,358.87152982998816,None,358.87152982998816,None,,,,,,,,,,,115,21,Female,2022-05-05_09h34.56.869,Boat,2022.1.1,60.00387625547299,
neutral,neutral,1,k,k,,,,,,,,,4,6,78,1,,,,,,,,,,,,,,,,,,,,,,,,,main,1,1,1,neutral,neutral,k,k,1,0.8000130000000354,358.88932550000027,359.902668499999,359.86940900000627,None,358.88932550000027,None,358.88932550000027,None,358.88932550000027,None,360.6740429299913,None,360.6740429299913,None,360.6740429299913,None,,,,,,,,,,,115,21,Female,2022-05-05_09h34.56.869,Boat,2022.1.1,60.00387625547299,
neutral,positive,1,k,k,,,,,,,,,4,7,79,4,,,,,,,,,,,,,,,,,,,,,,,,,main,1,1,1,positive,neutral,k,k,1,0.7755437000014354,360.69005479998305,361.7024112000072,361.6691279000079,None,360.69005479998305,None,360.69005479998305,None,360.69005479998305,None,362.4527331299993,None,362.4527331299993,None,362.4527331299993,None,,,,,,,,,,,115,21,Female,2022-05-05_09h34.56.869,Boat,2022.1.1,60.00387625547299,
negative,neutral,2,j,l,,,,,,,,,4,8,80,12,,,,,,,,,,,,,,,,,,,,,,,,,main,2,2,2,neutral,negative,l,l,1,1.125037699996028,362.469857899996,363.4694080000045,363.4528300999955,None,362.469857899996,None,362.469857899996,None,362.469857899996,None,364.5816191299906,None,364.5816191299906,None,364.5816191299906,None,,,,,,,,,,,115,21,Female,2022-05-05_09h34.56.869,Boat,2022.1.1,60.00387625547299,
positive,negative,2,l,j,,,,,,,,,4,9,81,14,,,,,,,,,,,,,,,,,,,,,,,,,main,2,2,2,negative,positive,j,j,1,1.2193075999966823,364.59926489999634,365.6015270999924,365.58346940000774,None,364.59926489999634,None,364.59926489999634,None,364.59926489999634,None,366.8025201299839,None,366.8025201299839,None,366.8025201299839,None,,,,,,,,,,,115,21,Female,2022-05-05_09h34.56.869,Boat,2022.1.1,60.00387625547299,
neutral,neutral,2,k,k,,,,,,,,,4,10,82,10,,,,,,,,,,,,,,,,,,,,,,,,,main,1,1,2,neutral,neutral,k,k,1,0.6667474999849219,366.82054600000265,367.83103109998046,367.81286539998837,None,366.82054600000265,None,366.82054600000265,None,366.82054600000265,None,368.47267712999894,None,368.47267712999894,None,368.47267712999894,None,,,,,,,,,,,115,21,Female,2022-05-05_09h34.56.869,Boat,2022.1.1,60.00387625547299,
negative,positive,2,j,l,,,,,,,,,4,11,83,15,,,,,,,,,,,,,,,,,,,,,,,,,main,1,1,2,positive,negative,l,l,1,0.7584258999850135,368.48863189999247,369.5152981999854,369.46953949998715,None,368.48863189999247,None,368.48863189999247,None,368.48863189999247,None,370.234051629997,None,370.234051629997,None,370.234051629997,None,,,,,,,,,,,115,21,Female,2022-05-05_09h34.56.869,Boat,2022.1.1,60.00387625547299,
negative,neutral,1,j,l,,,,,,,,,4,12,84,3,,,,,,,,,,,,,,,,,,,,,,,,,main,1,1,1,neutral,negative,l,l,1,0.7028523999906611,370.2536509000056,371.26272919998155,371.23633600000176,None,370.2536509000056,None,370.2536509000056,None,370.2536509000056,None,371.9391227300017,None,371.9391227300017,None,371.9391227300017,None,,,,,,,,,,,115,21,Female,2022-05-05_09h34.56.869,Boat,2022.1.1,60.00387625547299,
positive,negative,1,l,j,,,,,,,,,4,13,85,5,,,,,,,,,,,,,,,,,,,,,,,,,main,2,2,1,negative,positive,j,j,1,0.749640800000634,371.95611189998453,372.96977569998126,372.9335888999922,None,371.95611189998453,None,371.95611189998453,None,371.95611189998453,None,373.6911868300027,None,373.6911868300027,None,373.6911868300027,None,,,,,,,,,,,115,21,Female,2022-05-05_09h34.56.869,Boat,2022.1.1,60.00387625547299,
neutral,negative,1,k,k,,,,,,,,,4,14,86,7,,,,,,,,,,,,,,,,,,,,,,,,,main,2,2,1,negative,neutral,k,k,1,0.7144845000002533,373.7069607999874,374.7319798999815,374.68655859999126,None,373.7069607999874,None,373.7069607999874,None,373.7069607999874,None,375.407747829982,None,375.407747829982,None,375.407747829982,None,,,,,,,,,,,115,21,Female,2022-05-05_09h34.56.869,Boat,2022.1.1,60.00387625547299,
negative,positive,1,j,l,,,,,,,,,4,15,87,6,,,,,,,,,,,,,,,,,,,,,,,,,main,2,2,1,positive,negative,l,l,1,0.814846099994611,375.4246816000086,376.44812270000693,376.4031110999931,None,375.4246816000086,None,375.4246816000086,None,375.4246816000086,None,377.2251814300049,None,377.2251814300049,None,377.2251814300049,None,,,,,,,,,,,115,21,Female,2022-05-05_09h34.56.869,Boat,2022.1.1,60.00387625547299,
neutral,negative,2,k,k,,,,,,,,,4,16,88,16,,,,,,,,,,,,,,,,,,,,,,,,,main,1,1,2,negative,neutral,k,k,1,0.7789089999860153,377.2431519999809,378.264420099993,378.2197441000026,None,377.2431519999809,None,377.2431519999809,None,377.2431519999809,None,379.007841029999,None,379.007841029999,None,379.007841029999,None,,,,,,,,,,,115,21,Female,2022-05-05_09h34.56.869,Boat,2022.1.1,60.00387625547299,
neutral,positive,2,k,k,,,,,,,,,4,17,89,13,,,,,,,,,,,,,,,,,,,,,,,,,main,2,2,2,positive,neutral,k,k,1,0.9221890000044368,379.02464489999693,380.03143750000163,380.0131442999991,None,379.02464489999693,None,379.02464489999693,None,379.02464489999693,None,380.9336887300102,None,380.9336887300102,None,380.9336887300102,None,,,,,,,,,,,115,21,Female,2022-05-05_09h34.56.869,Boat,2022.1.1,60.00387625547299,
negative,positive,2,j,l,,,,,,,,,5,0,90,15,,,,,,,,,,,,,,,,,,,,,,,,,main,2,2,2,positive,negative,l,l,1,0.8119099000177812,380.94998649999616,381.96280509998905,381.9199457000068,None,380.94998649999616,None,380.94998649999616,None,380.94998649999616,None,382.7472485299892,None,382.7472485299892,None,382.7472485299892,None,,,,,,,,,,,115,21,Female,2022-05-05_09h34.56.869,Boat,2022.1.1,60.00387625547299,
negative,negative,2,j,l,,,,,,,,,5,1,91,9,,,,,,,,,,,,,,,,,,,,,,,,,main,2,2,2,negative,negative,l,l,1,0.9715904999757186,382.7658681999892,383.7698107000033,383.75150569999823,None,382.7658681999892,None,382.7658681999892,None,382.7658681999892,None,384.7214335299883,None,384.7214335299883,None,384.7214335299883,None,,,,,,,,,,,115,21,Female,2022-05-05_09h34.56.869,Boat,2022.1.1,60.00387625547299,
positive,positive,1,l,j,,,,,,,,,5,2,92,2,,,,,,,,,,,,,,,,,,,,,,,,,main,1,1,1,positive,positive,j,j,1,0.8022119000088423,384.73795229999814,385.74815830000443,385.7294968999922,None,384.73795229999814,None,384.73795229999814,None,384.73795229999814,None,386.5265697299998,None,386.5265697299998,None,386.5265697299998,None,,,,,,,,,,,115,21,Female,2022-05-05_09h34.56.869,Boat,2022.1.1,60.00387625547299,
positive,negative,2,l,j,,,,,,,,,5,3,93,14,,,,,,,,,,,,,,,,,,,,,,,,,main,2,2,2,negative,positive,j,j,1,0.7567446000175551,386.5442172999901,387.5538709999819,387.5175069999823,None,386.5442172999901,None,386.5442172999901,None,386.5442172999901,None,388.2866835300025,None,388.2866835300025,None,388.2866835300025,None,,,,,,,,,,,115,21,Female,2022-05-05_09h34.56.869,Boat,2022.1.1,60.00387625547299,
positive,positive,2,l,j,,,,,,,,,5,4,94,11,,,,,,,,,,,,,,,,,,,,,,,,,main,1,1,2,positive,positive,j,j,1,0.7183254999981727,388.30323769999086,389.3199794999964,389.285011400003,None,388.30323769999086,None,388.30323769999086,None,388.30323769999086,None,390.00752883000825,None,390.00752883000825,None,390.00752883000825,None,,,,,,,,,,,115,21,Female,2022-05-05_09h34.56.869,Boat,2022.1.1,60.00387625547299,
positive,negative,1,l,j,,,,,,,,,5,5,95,5,,,,,,,,,,,,,,,,,,,,,,,,,main,2,2,1,negative,positive,j,j,1,0.8330946000060067,390.02337029998307,391.0464129000029,391.00333899998805,None,390.02337029998307,None,390.02337029998307,None,390.02337029998307,None,391.8427694299986,None,391.8427694299986,None,391.8427694299986,None,,,,,,,,,,,115,21,Female,2022-05-05_09h34.56.869,Boat,2022.1.1,60.00387625547299,
neutral,positive,2,k,k,,,,,,,,,5,6,96,13,,,,,,,,,,,,,,,,,,,,,,,,,main,2,2,2,positive,neutral,k,k,1,0.90482019999763,391.8595682999876,392.87019299998065,392.83495759998914,None,391.8595682999876,None,391.8595682999876,None,391.8595682999876,None,393.75107492999234,None,393.75107492999234,None,393.75107492999234,None,,,,,,,,,,,115,21,Female,2022-05-05_09h34.56.869,Boat,2022.1.1,60.00387625547299,
neutral,negative,1,k,k,,,,,,,,,5,7,97,7,,,,,,,,,,,,,,,,,,,,,,,,,main,2,2,1,negative,neutral,k,k,1,0.9061030999873765,393.7705032999802,394.78714599998784,394.7499966000032,None,393.7705032999802,None,393.7705032999802,None,393.7705032999802,None,395.65902552999034,None,395.65902552999034,None,395.65902552999034,None,,,,,,,,,,,115,21,Female,2022-05-05_09h34.56.869,Boat,2022.1.1,60.00387625547299,
neutral,neutral,1,k,k,,,,,,,,,5,8,98,1,,,,,,,,,,,,,,,,,,,,,,,,,main,1,1,1,neutral,neutral,k,k,1,0.8259793999895919,395.6766753999982,396.6784767000063,396.66011890000664,None,395.6766753999982,None,395.6766753999982,None,395.6766753999982,None,397.4887372299942,None,397.4887372299942,None,397.4887372299942,None,,,,,,,,,,,115,21,Female,2022-05-05_09h34.56.869,Boat,2022.1.1,60.00387625547299,
negative,neutral,2,j,l,,,,,,,,,5,9,99,12,,,,,,,,,,,,,,,,,,,,,,,,,main,2,2,2,neutral,negative,l,l,1,1.5273510000261012,397.505977599998,398.52069069998106,398.4840500999999,None,397.505977599998,None,397.505977599998,None,397.505977599998,None,400.02386919999844,None,400.02386919999844,None,400.02386919999844,None,,,,,,,,,,,115,21,Female,2022-05-05_09h34.56.869,Boat,2022.1.1,60.00387625547299,
neutral,neutral,2,k,k,,,,,,,,,5,10,100,10,,,,,,,,,,,,,,,,,,,,,,,,,main,1,1,2,neutral,neutral,k,k,1,0.7791834000090603,401.0400153999799,402.0632188000018,402.02031120000174,None,401.0400153999799,None,401.0400153999799,None,401.0400153999799,None,402.80426382998996,None,402.80426382998996,None,402.80426382998996,None,,,,,,,,,,,115,21,Female,2022-05-05_09h34.56.869,Boat,2022.1.1,60.00387625547299,
negative,negative,1,j,l,,,,,,,,,5,11,101,0,,,,,,,,,,,,,,,,,,,,,,,,,main,1,1,1,negative,negative,l,l,1,0.8956593000038993,402.8234909999883,403.84874119999586,403.80349409999326,None,402.8234909999883,None,402.8234909999883,None,402.8234909999883,None,404.7039310299821,None,404.7039310299821,None,404.7039310299821,None,,,,,,,,,,,115,21,Female,2022-05-05_09h34.56.869,Boat,2022.1.1,60.00387625547299,
negative,positive,1,j,l,,,,,,,,,5,12,102,6,,,,,,,,,,,,,,,,,,,,,,,,,main,1,1,1,positive,negative,l,l,1,0.6684974999807309,404.72202149999794,405.74868630000856,405.7036212999956,None,404.72202149999794,None,404.72202149999794,None,404.72202149999794,None,406.3749964299874,None,406.3749964299874,None,406.3749964299874,None,,,,,,,,,,,115,21,Female,2022-05-05_09h34.56.869,Boat,2022.1.1,60.00387625547299,
positive,neutral,2,l,j,,,,,,,,,5,13,103,17,,,,,,,,,,,,,,,,,,,,,,,,,main,2,2,2,neutral,positive,j,j,1,0.7408143999928143,406.39221679998445,407.4015333999996,407.3655290000024,None,406.39221679998445,None,406.39221679998445,None,406.39221679998445,None,408.11962562998235,None,408.11962562998235,None,408.11962562998235,None,,,,,,,,,,,115,21,Female,2022-05-05_09h34.56.869,Boat,2022.1.1,60.00387625547299,
negative,neutral,1,j,l,,,,,,,,,5,14,104,3,,,,,,,,,,,,,,,,,,,,,,,,,main,1,1,1,neutral,negative,l,l,1,0.755274900002405,408.1377098999801,409.1372059999849,409.1206184999901,None,408.1377098999801,None,408.1377098999801,None,408.1377098999801,None,409.87696202999507,None,409.87696202999507,None,409.87696202999507,None,,,,,,,,,,,115,21,Female,2022-05-05_09h34.56.869,Boat,2022.1.1,60.00387625547299,
neutral,negative,2,k,k,,,,,,,,,5,15,105,16,,,,,,,,,,,,,,,,,,,,,,,,,main,1,1,2,negative,neutral,k,k,1,0.840588499995647,409.89391789998626,410.8986187999835,410.8801447000005,None,409.89391789998626,None,409.89391789998626,None,409.89391789998626,None,411.7203689300019,None,411.7203689300019,None,411.7203689300019,None,,,,,,,,,,,115,21,Female,2022-05-05_09h34.56.869,Boat,2022.1.1,60.00387625547299,
positive,neutral,1,l,j,,,,,,,,,5,16,106,8,,,,,,,,,,,,,,,,,,,,,,,,,main,1,1,1,neutral,positive,j,j,1,0.9537644000083674,411.7382925999991,412.75389319998794,412.7174387999985,None,411.7382925999991,None,411.7382925999991,None,411.7382925999991,None,413.67851512999334,None,413.67851512999334,None,413.67851512999334,None,,,,,,,,,,,115,21,Female,2022-05-05_09h34.56.869,Boat,2022.1.1,60.00387625547299,
neutral,positive,1,k,k,,,,,,,,,5,17,107,4,,,,,,,,,,,,,,,,,,,,,,,,,main,2,2,1,positive,neutral,k,k,1,0.6951195999863558,413.69500350000453,414.70553979999386,414.6705588999903,None,413.69500350000453,None,413.69500350000453,None,413.69500350000453,None,415.37514112998326,None,415.37514112998326,None,415.37514112998326,None,,,,,,,,,,,115,21,Female,2022-05-05_09h34.56.869,Boat,2022.1.1,60.00387625547299,
neutral,neutral,1,k,k,,,,,,,,,6,0,108,1,,,,,,,,,,,,,,,,,,,,,,,,,main,1,1,1,neutral,neutral,k,k,1,0.8334602999966592,415.3917417000048,416.4038983999926,416.3707876999979,None,415.3917417000048,None,415.3917417000048,None,415.3917417000048,None,417.2104032299918,None,417.2104032299918,None,417.2104032299918,None,,,,,,,,,,,115,21,Female,2022-05-05_09h34.56.869,Boat,2022.1.1,60.00387625547299,
positive,positive,2,l,j,,,,,,,,,6,1,109,11,,,,,,,,,,,,,,,,,,,,,,,,,main,2,2,2,positive,positive,j,j,1,0.701296800019918,417.22806530000526,418.2473159999936,418.20408759999555,None,417.22806530000526,None,417.22806530000526,None,417.22806530000526,None,418.9161714300077,None,418.9161714300077,None,418.9161714300077,None,,,,,,,,,,,115,21,Female,2022-05-05_09h34.56.869,Boat,2022.1.1,60.00387625547299,
positive,negative,1,l,j,,,,,,,,,6,2,110,5,,,,,,,,,,,,,,,,,,,,,,,,,main,1,1,1,negative,positive,j,j,1,0.7521263000089675,418.9359794000047,419.9490732999984,419.90480259998003,None,418.9359794000047,None,418.9359794000047,None,418.9359794000047,None,420.67142442998886,None,420.67142442998886,None,420.67142442998886,None,,,,,,,,,,,115,21,Female,2022-05-05_09h34.56.869,Boat,2022.1.1,60.00387625547299,
negative,negative,2,j,l,,,,,,,,,6,3,111,9,,,,,,,,,,,,,,,,,,,,,,,,,main,1,1,2,negative,negative,l,l,1,0.8169473000161815,420.6874394000042,421.7042768999818,421.66848609998124,None,420.6874394000042,None,420.6874394000042,None,420.6874394000042,None,422.4904600299866,None,422.4904600299866,None,422.4904600299866,None,,,,,,,,,,,115,21,Female,2022-05-05_09h34.56.869,Boat,2022.1.1,60.00387625547299,
neutral,negative,2,k,k,,,,,,,,,6,4,112,16,,,,,,,,,,,,,,,,,,,,,,,,,main,2,2,2,negative,neutral,k,k,1,0.6972889000026044,422.50726849999046,423.53065639999113,423.4875834999839,None,422.50726849999046,None,422.50726849999046,None,422.50726849999046,None,424.19042613000204,None,424.19042613000204,None,424.19042613000204,None,,,,,,,,,,,115,21,Female,2022-05-05_09h34.56.869,Boat,2022.1.1,60.00387625547299,
positive,neutral,2,l,j,,,,,,,,,6,5,113,17,,,,,,,,,,,,,,,,,,,,,,,,,main,2,2,2,neutral,positive,j,j,1,0.7843671999871731,424.206454500003,425.21778249999625,425.1991524999903,None,424.206454500003,None,424.206454500003,None,424.206454500003,None,425.9757581300015,None,425.9757581300015,None,425.9757581300015,None,,,,,,,,,,,115,21,Female,2022-05-05_09h34.56.869,Boat,2022.1.1,60.00387625547299,
negative,neutral,2,j,l,,,,,,,,,6,6,114,12,,,,,,,,,,,,,,,,,,,,,,,,,main,2,2,2,neutral,negative,l,l,1,0.7304706999857444,425.99445639998885,427.00923480000347,426.9749875999987,None,425.99445639998885,None,425.99445639998885,None,425.99445639998885,None,427.70941242998526,None,427.70941242998526,None,427.70941242998526,None,,,,,,,,,,,115,21,Female,2022-05-05_09h34.56.869,Boat,2022.1.1,60.00387625547299,
neutral,positive,1,k,k,,,,,,,,,6,7,115,4,,,,,,,,,,,,,,,,,,,,,,,,,main,2,2,1,positive,neutral,k,k,1,0.7135068000061437,427.7275896999927,428.73238030000357,428.71415569999954,None,427.7275896999927,None,427.7275896999927,None,427.7275896999927,None,429.4259983300086,None,429.4259983300086,None,429.4259983300086,None,,,,,,,,,,,115,21,Female,2022-05-05_09h34.56.869,Boat,2022.1.1,60.00387625547299,
negative,neutral,1,j,l,,,,,,,,,6,8,116,3,,,,,,,,,,,,,,,,,,,,,,,,,main,2,2,1,neutral,negative,l,,0,1.20259959998657,429.44300759999896,430.46393989998614,430.4211352999846,None,429.44300759999896,None,429.44300759999896,None,429.44300759999896,None,431.63834370000404,None,431.63834370000404,None,431.63834370000404,None,,,,,,,,,,,115,21,Female,2022-05-05_09h34.56.869,Boat,2022.1.1,60.00387625547299,
positive,positive,1,l,j,,,,,,,,,6,9,117,2,,,,,,,,,,,,,,,,,,,,,,,,,main,1,1,1,positive,positive,j,j,1,0.8176426000136416,432.6563989999995,433.6822747999977,433.637510200002,None,432.6563989999995,None,432.6563989999995,None,432.6563989999995,None,434.4592711299862,None,434.4592711299862,None,434.4592711299862,None,,,,,,,,,,,115,21,Female,2022-05-05_09h34.56.869,Boat,2022.1.1,60.00387625547299,
negative,negative,1,j,l,,,,,,,,,6,10,118,0,,,,,,,,,,,,,,,,,,,,,,,,,main,2,2,1,negative,negative,l,l,1,1.1075016000249889,434.47704949998297,435.4891730999807,435.4547054999857,None,434.47704949998297,None,434.47704949998297,None,434.47704949998297,None,436.5711334300082,None,436.5711334300082,None,436.5711334300082,None,,,,,,,,,,,115,21,Female,2022-05-05_09h34.56.869,Boat,2022.1.1,60.00387625547299,
positive,negative,2,l,j,,,,,,,,,6,11,119,14,,,,,,,,,,,,,,,,,,,,,,,,,main,2,2,2,negative,positive,j,j,1,0.7374125999922398,436.5886243999994,437.60309560000314,437.56711219999124,None,436.5886243999994,None,436.5886243999994,None,436.5886243999994,None,438.31049223000593,None,438.31049223000593,None,438.31049223000593,None,,,,,,,,,,,115,21,Female,2022-05-05_09h34.56.869,Boat,2022.1.1,60.00387625547299,
neutral,negative,1,k,k,,,,,,,,,6,12,120,7,,,,,,,,,,,,,,,,,,,,,,,,,main,2,2,1,negative,neutral,k,k,1,0.7618396000179928,438.32940839999355,439.34057400000165,439.3058987999975,None,438.32940839999355,None,438.32940839999355,None,438.32940839999355,None,440.07607962998156,None,440.07607962998156,None,440.07607962998156,None,,,,,,,,,,,115,21,Female,2022-05-05_09h34.56.869,Boat,2022.1.1,60.00387625547299,
positive,neutral,1,l,j,,,,,,,,,6,13,121,8,,,,,,,,,,,,,,,,,,,,,,,,,main,2,2,1,neutral,positive,j,j,1,0.8078173999965657,440.0925672999874,441.1144571999903,441.07126890000654,None,440.0925672999874,None,440.0925672999874,None,440.0925672999874,None,441.8871211299935,None,441.8871211299935,None,441.8871211299935,None,,,,,,,,,,,115,21,Female,2022-05-05_09h34.56.869,Boat,2022.1.1,60.00387625547299,
negative,positive,2,j,l,,,,,,,,,6,14,122,15,,,,,,,,,,,,,,,,,,,,,,,,,main,1,1,2,positive,negative,l,l,1,0.789548200002173,441.9048776999989,442.9045843000058,442.88798040000256,None,441.9048776999989,None,441.9048776999989,None,441.9048776999989,None,443.678476729992,None,443.678476729992,None,443.678476729992,None,,,,,,,,,,,115,21,Female,2022-05-05_09h34.56.869,Boat,2022.1.1,60.00387625547299,
neutral,neutral,2,k,k,,,,,,,,,6,15,123,10,,,,,,,,,,,,,,,,,,,,,,,,,main,2,2,2,neutral,neutral,k,k,1,0.7610700000077486,443.6954848000023,444.7046776000061,444.67124120000517,None,443.6954848000023,None,443.6954848000023,None,443.6954848000023,None,445.44267212999114,None,445.44267212999114,None,445.44267212999114,None,,,,,,,,,,,115,21,Female,2022-05-05_09h34.56.869,Boat,2022.1.1,60.00387625547299,
neutral,positive,2,k,k,,,,,,,,,6,16,124,13,,,,,,,,,,,,,,,,,,,,,,,,,main,2,2,2,positive,neutral,k,k,1,0.8741505999932997,445.4598177000007,446.47131130000344,446.4355527999869,None,445.4598177000007,None,445.4598177000007,None,445.4598177000007,None,447.31978462998234,None,447.31978462998234,None,447.31978462998234,None,,,,,,,,,,,115,21,Female,2022-05-05_09h34.56.869,Boat,2022.1.1,60.00387625547299,
negative,positive,1,j,l,,,,,,,,,6,17,125,6,,,,,,,,,,,,,,,,,,,,,,,,,main,1,1,1,positive,negative,l,l,1,0.9194082999892998,447.3394550999801,448.35370899998816,448.3334125999827,None,447.3394550999801,None,447.3394550999801,None,447.3394550999801,None,449.2422351299989,None,449.2422351299989,None,449.2422351299989,None,,,,,,,,,,,115,21,Female,2022-05-05_09h34.56.869,Boat,2022.1.1,60.00387625547299,
neutral,positive,2,k,k,,,,,,,,,7,0,126,13,,,,,,,,,,,,,,,,,,,,,,,,,main,1,1,2,positive,neutral,k,k,1,0.6990686999924947,449.25927939999383,450.28317379998043,450.238114399981,None,449.25927939999383,None,449.25927939999383,None,449.25927939999383,None,450.9457842299977,None,450.9457842299977,None,450.9457842299977,None,,,,,,,,,,,115,21,Female,2022-05-05_09h34.56.869,Boat,2022.1.1,60.00387625547299,
negative,neutral,1,j,l,,,,,,,,,7,1,127,3,,,,,,,,,,,,,,,,,,,,,,,,,main,1,1,1,neutral,negative,l,l,1,0.9799936999916099,450.96062040000106,451.98154179999256,451.95436830000835,None,450.96062040000106,None,450.96062040000106,None,450.96062040000106,None,452.92628172998377,None,452.92628172998377,None,452.92628172998377,None,,,,,,,,,,,115,21,Female,2022-05-05_09h34.56.869,Boat,2022.1.1,60.00387625547299,
negative,negative,2,j,l,,,,,,,,,7,2,128,9,,,,,,,,,,,,,,,,,,,,,,,,,main,2,2,2,negative,negative,l,l,1,0.8933698000037111,452.94571259999066,453.964779300004,453.9216310000047,None,452.94571259999066,None,452.94571259999066,None,452.94571259999066,None,454.82251832998884,None,454.82251832998884,None,454.82251832998884,None,,,,,,,,,,,115,21,Female,2022-05-05_09h34.56.869,Boat,2022.1.1,60.00387625547299,
negative,neutral,2,j,l,,,,,,,,,7,3,129,12,,,,,,,,,,,,,,,,,,,,,,,,,main,2,2,2,neutral,negative,l,l,1,0.7357738999999128,454.84210409998195,455.85486239998136,455.82033329998376,None,454.84210409998195,None,454.84210409998195,None,454.84210409998195,None,456.5616066299932,None,456.5616066299932,None,456.5616066299932,None,,,,,,,,,,,115,21,Female,2022-05-05_09h34.56.869,Boat,2022.1.1,60.00387625547299,
negative,positive,1,j,l,,,,,,,,,7,4,130,6,,,,,,,,,,,,,,,,,,,,,,,,,main,1,1,1,positive,negative,l,l,1,0.6817270000174176,456.57713729998795,457.58825189998606,457.552363099996,None,456.57713729998795,None,456.57713729998795,None,456.57713729998795,None,458.2447691299982,None,458.2447691299982,None,458.2447691299982,None,,,,,,,,,,,115,21,Female,2022-05-05_09h34.56.869,Boat,2022.1.1,60.00387625547299,
negative,positive,2,j,l,,,,,,,,,7,5,131,15,,,,,,,,,,,,,,,,,,,,,,,,,main,2,2,2,positive,negative,l,l,1,0.7644355999946129,458.26363939998555,459.2816008999944,459.2383043000009,None,458.26363939998555,None,458.26363939998555,None,458.26363939998555,None,460.01175672998363,None,460.01175672998363,None,460.01175672998363,None,,,,,,,,,,,115,21,Female,2022-05-05_09h34.56.869,Boat,2022.1.1,60.00387625547299,
negative,negative,1,j,l,,,,,,,,,7,6,132,0,,,,,,,,,,,,,,,,,,,,,,,,,main,1,1,1,negative,negative,l,l,1,0.6797231999807991,460.0339003999834,461.04829969999264,461.0051881999825,None,460.0339003999834,None,460.0339003999834,None,460.0339003999834,None,461.69636852999395,None,461.69636852999395,None,461.69636852999395,None,,,,,,,,,,,115,21,Female,2022-05-05_09h34.56.869,Boat,2022.1.1,60.00387625547299,
positive,negative,2,l,j,,,,,,,,,7,7,133,14,,,,,,,,,,,,,,,,,,,,,,,,,main,2,2,2,negative,positive,j,j,1,0.8099745000072289,461.7135073999816,462.73123010000563,462.68535479999264,None,461.7135073999816,None,461.7135073999816,None,461.7135073999816,None,463.50764442998627,None,463.50764442998627,None,463.50764442998627,None,,,,,,,,,,,115,21,Female,2022-05-05_09h34.56.869,Boat,2022.1.1,60.00387625547299,
positive,neutral,1,l,j,,,,,,,,,7,8,134,8,,,,,,,,,,,,,,,,,,,,,,,,,main,2,2,1,neutral,positive,j,j,1,0.7629032000259031,463.525017100008,464.53449659998296,464.5165755999915,None,463.525017100008,None,463.525017100008,None,463.525017100008,None,465.27426692998563,None,465.27426692998563,None,465.27426692998563,None,,,,,,,,,,,115,21,Female,2022-05-05_09h34.56.869,Boat,2022.1.1,60.00387625547299,
neutral,positive,1,k,k,,,,,,,,,7,9,135,4,,,,,,,,,,,,,,,,,,,,,,,,,main,2,2,1,positive,neutral,k,k,1,0.7792294999817386,465.2919128999929,466.3062028999848,466.2689257999882,None,465.2919128999929,None,465.2919128999929,None,465.2919128999929,None,467.0556298300013,None,467.0556298300013,None,467.0556298300013,None,,,,,,,,,,,115,21,Female,2022-05-05_09h34.56.869,Boat,2022.1.1,60.00387625547299,
neutral,negative,1,k,k,,,,,,,,,7,10,136,7,,,,,,,,,,,,,,,,,,,,,,,,,main,2,2,1,negative,neutral,k,k,1,0.8015838999999687,467.0732882999873,468.0884143000003,468.0550139999832,None,467.0732882999873,None,467.0732882999873,None,467.0732882999873,None,468.85996613000464,None,468.85996613000464,None,468.85996613000464,None,,,,,,,,,,,115,21,Female,2022-05-05_09h34.56.869,Boat,2022.1.1,60.00387625547299,
neutral,negative,2,k,k,,,,,,,,,7,11,137,16,,,,,,,,,,,,,,,,,,,,,,,,,main,1,1,2,negative,neutral,k,k,1,0.7430878999875858,468.8787647999998,469.89790849998826,469.85526009998284,None,468.8787647999998,None,468.8787647999998,None,468.8787647999998,None,470.60730973000466,None,470.60730973000466,None,470.60730973000466,None,,,,,,,,,,,115,21,Female,2022-05-05_09h34.56.869,Boat,2022.1.1,60.00387625547299,
positive,positive,1,l,j,,,,,,,,,7,12,138,2,,,,,,,,,,,,,,,,,,,,,,,,,main,2,2,1,positive,positive,j,j,1,0.814544199994998,470.6237306999974,471.63642369999434,471.59994919999735,None,470.6237306999974,None,470.6237306999974,None,470.6237306999974,None,472.4248250300094,None,472.4248250300094,None,472.4248250300094,None,,,,,,,,,,,115,21,Female,2022-05-05_09h34.56.869,Boat,2022.1.1,60.00387625547299,
positive,positive,2,l,j,,,,,,,,,7,13,139,11,,,,,,,,,,,,,,,,,,,,,,,,,main,2,2,2,positive,positive,j,j,1,0.7176642999984324,472.44175279999035,473.46483149999403,473.421929300006,None,472.44175279999035,None,472.44175279999035,None,472.44175279999035,None,474.14526132998583,None,474.14526132998583,None,474.14526132998583,None,,,,,,,,,,,115,21,Female,2022-05-05_09h34.56.869,Boat,2022.1.1,60.00387625547299,
neutral,neutral,1,k,k,,,,,,,,,7,14,140,1,,,,,,,,,,,,,,,,,,,,,,,,,main,1,1,1,neutral,neutral,k,k,1,0.7633042999950703,474.16105179997976,475.1817994999874,475.13736570000765,None,474.16105179997976,None,474.16105179997976,None,474.16105179997976,None,475.91136392998453,None,475.91136392998453,None,475.91136392998453,None,,,,,,,,,,,115,21,Female,2022-05-05_09h34.56.869,Boat,2022.1.1,60.00387625547299,
positive,neutral,2,l,j,,,,,,,,,7,15,141,17,,,,,,,,,,,,,,,,,,,,,,,,,main,2,2,2,neutral,positive,j,j,1,0.7323412999976426,475.9275808999955,476.9384857999976,476.90354880000814,None,475.9275808999955,None,475.9275808999955,None,475.9275808999955,None,477.64469803000395,None,477.64469803000395,None,477.64469803000395,None,,,,,,,,,,,115,21,Female,2022-05-05_09h34.56.869,Boat,2022.1.1,60.00387625547299,
positive,negative,1,l,j,,,,,,,,,7,16,142,5,,,,,,,,,,,,,,,,,,,,,,,,,main,1,1,1,negative,positive,j,j,1,0.6783701000094879,477.6621525999799,478.6718474999943,478.6358934000018,None,477.6621525999799,None,477.6621525999799,None,477.6621525999799,None,479.32658522998975,None,479.32658522998975,None,479.32658522998975,None,,,,,,,,,,,115,21,Female,2022-05-05_09h34.56.869,Boat,2022.1.1,60.00387625547299,
neutral,neutral,2,k,k,,,,,,,,,7,17,143,10,,,,,,,,,,,,,,,,,,,,,,,,,main,2,2,2,neutral,neutral,k,k,1,0.781215399998473,479.3438504000078,480.3652998000034,480.3220803999866,None,479.3438504000078,None,479.3438504000078,None,479.3438504000078,None,481.1106541300047,None,481.1106541300047,None,481.1106541300047,None,,,,,,,,,,,115,21,Female,2022-05-05_09h34.56.869,Boat,2022.1.1,60.00387625547299,
neutral,negative,1,k,k,,,,,,,,,8,0,144,7,,,,,,,,,,,,,,,,,,,,,,,,,main,1,1,1,negative,neutral,k,k,1,0.6738487999828067,481.1270231999806,482.1487755999842,482.10536180000054,None,481.1270231999806,None,481.1270231999806,None,481.1270231999806,None,482.7887380299886,None,482.7887380299886,None,482.7887380299886,None,,,,,,,,,,,115,21,Female,2022-05-05_09h34.56.869,Boat,2022.1.1,60.00387625547299,
negative,negative,1,j,l,,,,,,,,,8,1,145,0,,,,,,,,,,,,,,,,,,,,,,,,,main,2,2,1,negative,negative,l,l,1,1.0688548000180162,482.8037086999975,483.8154746000073,483.7722193999798,None,482.8037086999975,None,482.8037086999975,None,482.8037086999975,None,484.8597170299996,None,484.8597170299996,None,484.8597170299996,None,,,,,,,,,,,115,21,Female,2022-05-05_09h34.56.869,Boat,2022.1.1,60.00387625547299,
negative,positive,1,j,l,,,,,,,,,8,2,146,6,,,,,,,,,,,,,,,,,,,,,,,,,main,1,1,1,positive,negative,l,l,1,1.0743007000128273,484.8762444999884,485.89882129998296,485.85549479999463,None,484.8762444999884,None,484.8762444999884,None,484.8762444999884,None,486.9368144300039,None,486.9368144300039,None,486.9368144300039,None,,,,,,,,,,,115,21,Female,2022-05-05_09h34.56.869,Boat,2022.1.1,60.00387625547299,
positive,positive,1,l,j,,,,,,,,,8,3,147,2,,,,,,,,,,,,,,,,,,,,,,,,,main,2,2,1,positive,positive,j,j,1,0.7224553999840282,486.9600464999967,487.98211310000625,487.93900179999764,None,486.9600464999967,None,486.9600464999967,None,486.9600464999967,None,488.66275862998157,None,488.66275862998157,None,488.66275862998157,None,,,,,,,,,,,115,21,Female,2022-05-05_09h34.56.869,Boat,2022.1.1,60.00387625547299,
negative,neutral,2,j,l,,,,,,,,,8,4,148,12,,,,,,,,,,,,,,,,,,,,,,,,,main,2,2,2,neutral,negative,l,l,1,0.8821356999978889,488.6811798999843,489.68898780000745,489.65545869999914,None,488.6811798999843,None,488.6811798999843,None,488.6811798999843,None,490.5491430299968,None,490.5491430299968,None,490.5491430299968,None,,,,,,,,,,,115,21,Female,2022-05-05_09h34.56.869,Boat,2022.1.1,60.00387625547299,
neutral,negative,2,k,k,,,,,,,,,8,5,149,16,,,,,,,,,,,,,,,,,,,,,,,,,main,1,1,2,negative,neutral,k,k,1,0.8475077000039164,490.5657423999801,491.5725747999968,491.53628669999307,None,490.5657423999801,None,490.5657423999801,None,490.5657423999801,None,492.3992165300093,None,492.3992165300093,None,492.3992165300093,None,,,,,,,,,,,115,21,Female,2022-05-05_09h34.56.869,Boat,2022.1.1,60.00387625547299,
neutral,positive,1,k,k,,,,,,,,,8,6,150,4,,,,,,,,,,,,,,,,,,,,,,,,,main,1,1,1,positive,neutral,k,k,1,0.7926815999962855,492.41615179998917,493.42474409998977,493.3889613999927,None,492.41615179998917,None,492.41615179998917,None,492.41615179998917,None,494.19290263000005,None,494.19290263000005,None,494.19290263000005,None,,,,,,,,,,,115,21,Female,2022-05-05_09h34.56.869,Boat,2022.1.1,60.00387625547299,
positive,negative,1,l,j,,,,,,,,,8,7,151,5,,,,,,,,,,,,,,,,,,,,,,,,,main,2,2,1,negative,positive,j,j,1,0.8163578000094276,494.21048849998624,495.22250790000544,495.1882411999977,None,494.21048849998624,None,494.21048849998624,None,494.21048849998624,None,496.01325112998313,None,496.01325112998313,None,496.01325112998313,None,,,,,,,,,,,115,21,Female,2022-05-05_09h34.56.869,Boat,2022.1.1,60.00387625547299,
neutral,neutral,1,k,k,,,,,,,,,8,8,152,1,,,,,,,,,,,,,,,,,,,,,,,,,main,2,2,1,neutral,neutral,k,k,1,0.7949886999849696,496.03052749999915,497.05045489998884,497.00561059999745,None,496.03052749999915,None,496.03052749999915,None,496.03052749999915,None,497.8103062299866,None,497.8103062299866,None,497.8103062299866,None,,,,,,,,,,,115,21,Female,2022-05-05_09h34.56.869,Boat,2022.1.1,60.00387625547299,
positive,negative,2,l,j,,,,,,,,,8,9,153,14,,,,,,,,,,,,,,,,,,,,,,,,,main,1,1,2,negative,positive,j,j,1,0.7267428000050131,497.826104799984,498.8490784000023,498.80585010000505,None,497.826104799984,None,497.826104799984,None,497.826104799984,None,499.5401659300056,None,499.5401659300056,None,499.5401659300056,None,,,,,,,,,,,115,21,Female,2022-05-05_09h34.56.869,Boat,2022.1.1,60.00387625547299,
negative,negative,2,j,l,,,,,,,,,8,10,154,9,,,,,,,,,,,,,,,,,,,,,,,,,main,1,1,2,negative,negative,l,l,1,0.8835934999806341,499.55647310000495,500.56555129998014,500.5398800999974,None,499.55647310000495,None,499.55647310000495,None,499.55647310000495,None,501.42578733000266,None,501.42578733000266,None,501.42578733000266,None,,,,,,,,,,,115,21,Female,2022-05-05_09h34.56.869,Boat,2022.1.1,60.00387625547299,
positive,neutral,1,l,j,,,,,,,,,8,11,155,8,,,,,,,,,,,,,,,,,,,,,,,,,main,1,1,1,neutral,positive,j,j,1,0.7979316999844741,501.4432858999935,502.45542179999757,502.41891380000743,None,501.4432858999935,None,501.4432858999935,None,501.4432858999935,None,503.22609153000815,None,503.22609153000815,None,503.22609153000815,None,,,,,,,,,,,115,21,Female,2022-05-05_09h34.56.869,Boat,2022.1.1,60.00387625547299,
positive,positive,2,l,j,,,,,,,,,8,12,156,11,,,,,,,,,,,,,,,,,,,,,,,,,main,2,2,2,positive,positive,j,j,1,0.6965439999767113,503.2433122000075,504.2656413000077,504.21905339998193,None,503.2433122000075,None,503.2433122000075,None,503.2433122000075,None,504.9245363299939,None,504.9245363299939,None,504.9245363299939,None,,,,,,,,,,,115,21,Female,2022-05-05_09h34.56.869,Boat,2022.1.1,60.00387625547299,
neutral,positive,2,k,k,,,,,,,,,8,13,157,13,,,,,,,,,,,,,,,,,,,,,,,,,main,1,1,2,positive,neutral,k,k,1,0.7708404999866616,504.9419612000056,505.9529634999926,505.93409239998437,None,504.9419612000056,None,504.9419612000056,None,504.9419612000056,None,506.69971612998927,None,506.69971612998927,None,506.69971612998927,None,,,,,,,,,,,115,21,Female,2022-05-05_09h34.56.869,Boat,2022.1.1,60.00387625547299,
positive,neutral,2,l,j,,,,,,,,,8,14,158,17,,,,,,,,,,,,,,,,,,,,,,,,,main,1,1,2,neutral,positive,j,j,1,0.7564055999973789,506.7203648999857,507.7229806999967,507.689435999986,None,506.7203648999857,None,506.7203648999857,None,506.7203648999857,None,508.45832042999393,None,508.45832042999393,None,508.45832042999393,None,,,,,,,,,,,115,21,Female,2022-05-05_09h34.56.869,Boat,2022.1.1,60.00387625547299,
negative,positive,2,j,l,,,,,,,,,8,15,159,15,,,,,,,,,,,,,,,,,,,,,,,,,main,1,1,2,positive,negative,l,l,1,0.7476846000063233,508.4773661000072,509.50091469998006,509.455719199992,None,508.4773661000072,None,508.4773661000072,None,508.4773661000072,None,510.2095528300066,None,510.2095528300066,None,510.2095528300066,None,,,,,,,,,,,115,21,Female,2022-05-05_09h34.56.869,Boat,2022.1.1,60.00387625547299,
neutral,neutral,2,k,k,,,,,,,,,8,16,160,10,,,,,,,,,,,,,,,,,,,,,,,,,main,1,1,2,neutral,neutral,k,k,1,0.7313813999935519,510.2265702000004,511.25072690000525,511.20608129998436,None,510.2265702000004,None,510.2265702000004,None,510.2265702000004,None,511.943970729984,None,511.943970729984,None,511.943970729984,None,,,,,,,,,,,115,21,Female,2022-05-05_09h34.56.869,Boat,2022.1.1,60.00387625547299,
negative,neutral,1,j,l,,,,,,,,,8,17,161,3,,,,,,,,,,,,,,,,,,,,,,,,,main,1,1,1,neutral,negative,l,l,1,1.0154445999942254,511.96074149999185,512.98278999998,512.9395580999844,None,511.96074149999185,None,511.96074149999185,None,511.96074149999185,None,513.9614234299894,None,513.9614234299894,None,513.9614234299894,None,,,,,,,,,,,115,21,Female,2022-05-05_09h34.56.869,Boat,2022.1.1,60.00387625547299,
neutral,neutral,1,k,k,,,,,,,,,9,0,162,1,,,,,,,,,,,,,,,,,,,,,,,,,main,2,2,1,neutral,neutral,k,k,1,1.1924250000156462,513.9792831999948,514.9893778999976,514.9536595999962,None,513.9792831999948,None,513.9792831999948,None,513.9792831999948,None,516.1576194299938,None,516.1576194299938,None,516.1576194299938,None,,,,,,,,,,,115,21,Female,2022-05-05_09h34.56.869,Boat,2022.1.1,60.00387625547299,
neutral,positive,2,k,k,,,,,,,,,9,1,163,13,,,,,,,,,,,,,,,,,,,,,,,,,main,2,2,2,positive,neutral,k,k,1,0.929029899998568,516.1738121999952,517.188075699989,517.1511566999834,None,516.1738121999952,None,516.1738121999952,None,516.1738121999952,None,518.08996282999,None,518.08996282999,None,518.08996282999,None,,,,,,,,,,,115,21,Female,2022-05-05_09h34.56.869,Boat,2022.1.1,60.00387625547299,
neutral,negative,1,k,k,,,,,,,,,9,2,164,7,,,,,,,,,,,,,,,,,,,,,,,,,main,2,2,1,negative,neutral,k,k,1,0.6420146999880672,518.106281299988,519.1226336999971,519.0881307999953,None,518.106281299988,None,518.106281299988,None,518.106281299988,None,519.7348019300058,None,519.7348019300058,None,519.7348019300058,None,,,,,,,,,,,115,21,Female,2022-05-05_09h34.56.869,Boat,2022.1.1,60.00387625547299,
negative,positive,2,j,l,,,,,,,,,9,3,165,15,,,,,,,,,,,,,,,,,,,,,,,,,main,1,1,2,positive,negative,l,l,1,0.9062761000241153,519.7519617000071,520.7566062999831,520.7383629999822,None,519.7519617000071,None,519.7519617000071,None,519.7519617000071,None,521.6424514299812,None,521.6424514299812,None,521.6424514299812,None,,,,,,,,,,,115,21,Female,2022-05-05_09h34.56.869,Boat,2022.1.1,60.00387625547299,
neutral,positive,1,k,k,,,,,,,,,9,4,166,4,,,,,,,,,,,,,,,,,,,,,,,,,main,2,2,1,positive,neutral,k,k,1,1.1136934999958612,521.6597720999853,522.6751475000056,522.6402500999975,None,521.6597720999853,None,521.6597720999853,None,521.6597720999853,None,523.7591750299995,None,523.7591750299995,None,523.7591750299995,None,,,,,,,,,,,115,21,Female,2022-05-05_09h34.56.869,Boat,2022.1.1,60.00387625547299,
positive,neutral,1,l,j,,,,,,,,,9,5,167,8,,,,,,,,,,,,,,,,,,,,,,,,,main,1,1,1,neutral,positive,j,j,1,0.7797883999883197,523.7774127000012,524.7863851999864,524.7680164999911,None,523.7774127000012,None,523.7774127000012,None,523.7774127000012,None,525.5418582299986,None,525.5418582299986,None,525.5418582299986,None,,,,,,,,,,,115,21,Female,2022-05-05_09h34.56.869,Boat,2022.1.1,60.00387625547299,
positive,positive,2,l,j,,,,,,,,,9,6,168,11,,,,,,,,,,,,,,,,,,,,,,,,,main,1,1,2,positive,positive,j,j,1,0.6992037000018172,525.5582862999872,526.5830322999973,526.5398892000085,None,525.5582862999872,None,525.5582862999872,None,525.5582862999872,None,527.2437821299915,None,527.2437821299915,None,527.2437821299915,None,,,,,,,,,,,115,21,Female,2022-05-05_09h34.56.869,Boat,2022.1.1,60.00387625547299,
positive,neutral,2,l,j,,,,,,,,,9,7,169,17,,,,,,,,,,,,,,,,,,,,,,,,,main,2,2,2,neutral,positive,j,j,1,0.6509597999975085,527.2596230999916,528.271951600007,528.2359277000069,None,527.2596230999916,None,527.2596230999916,None,527.2596230999916,None,528.8966942299827,None,528.8966942299827,None,528.8966942299827,None,,,,,,,,,,,115,21,Female,2022-05-05_09h34.56.869,Boat,2022.1.1,60.00387625547299,
positive,negative,2,l,j,,,,,,,,,9,8,170,14,,,,,,,,,,,,,,,,,,,,,,,,,main,2,2,2,negative,positive,j,j,1,0.6466622999869287,528.9131890999852,529.9231145000085,529.8883939000079,None,528.9131890999852,None,528.9131890999852,None,528.9131890999852,None,530.5460530299839,None,530.5460530299839,None,530.5460530299839,None,,,,,,,,,,,115,21,Female,2022-05-05_09h34.56.869,Boat,2022.1.1,60.00387625547299,
positive,negative,1,l,j,,,,,,,,,9,9,171,5,,,,,,,,,,,,,,,,,,,,,,,,,main,1,1,1,negative,positive,j,j,1,0.7490097999980208,530.5622750000039,531.5829657999857,531.5399163999828,None,530.5622750000039,None,530.5622750000039,None,530.5622750000039,None,532.2986212299817,None,532.2986212299817,None,532.2986212299817,None,,,,,,,,,,,115,21,Female,2022-05-05_09h34.56.869,Boat,2022.1.1,60.00387625547299,
negative,negative,1,j,l,,,,,,,,,9,10,172,0,,,,,,,,,,,,,,,,,,,,,,,,,main,1,1,1,negative,negative,l,l,1,0.9724062999885064,532.316462799994,533.3183068000071,533.2997702999855,None,532.316462799994,None,532.316462799994,None,532.316462799994,None,534.2738940299984,None,534.2738940299984,None,534.2738940299984,None,,,,,,,,,,,115,21,Female,2022-05-05_09h34.56.869,Boat,2022.1.1,60.00387625547299,
negative,positive,1,j,l,,,,,,,,,9,11,173,6,,,,,,,,,,,,,,,,,,,,,,,,,main,2,2,1,positive,negative,l,l,1,1.0159828999894671,534.2901739999943,535.2899537000048,535.272982399998,None,534.2901739999943,None,534.2901739999943,None,534.2901739999943,None,536.2923531299836,None,536.2923531299836,None,536.2923531299836,None,,,,,,,,,,,115,21,Female,2022-05-05_09h34.56.869,Boat,2022.1.1,60.00387625547299,
negative,neutral,2,j,l,,,,,,,,,9,12,174,12,,,,,,,,,,,,,,,,,,,,,,,,,main,1,1,2,neutral,negative,l,l,1,0.9513759999827016,536.3092239999969,537.3333051000081,537.2902230999898,None,536.3092239999969,None,536.3092239999969,None,536.3092239999969,None,538.244938730009,None,538.244938730009,None,538.244938730009,None,,,,,,,,,,,115,21,Female,2022-05-05_09h34.56.869,Boat,2022.1.1,60.00387625547299,
neutral,neutral,2,k,k,,,,,,,,,9,13,175,10,,,,,,,,,,,,,,,,,,,,,,,,,main,2,2,2,neutral,neutral,k,k,1,0.7853876999870408,538.2620105999813,539.2831724999996,539.2399509999959,None,538.2620105999813,None,538.2620105999813,None,538.2620105999813,None,540.03493132999,None,540.03493132999,None,540.03493132999,None,,,,,,,,,,,115,21,Female,2022-05-05_09h34.56.869,Boat,2022.1.1,60.00387625547299,
negative,negative,2,j,l,,,,,,,,,9,14,176,9,,,,,,,,,,,,,,,,,,,,,,,,,main,2,2,2,negative,negative,l,l,1,1.0187920999887865,540.0543399000017,541.057074899989,541.0233387000044,None,540.0543399000017,None,540.0543399000017,None,540.0543399000017,None,542.0568462300085,None,542.0568462300085,None,542.0568462300085,None,,,,,,,,,,,115,21,Female,2022-05-05_09h34.56.869,Boat,2022.1.1,60.00387625547299,
positive,positive,1,l,j,,,,,,,,,9,15,177,2,,,,,,,,,,,,,,,,,,,,,,,,,main,2,2,1,positive,positive,j,j,1,0.913656999997329,542.0737828999991,543.0833543000044,543.0567143999797,None,542.0737828999991,None,542.0737828999991,None,542.0737828999991,None,543.9737312299927,None,543.9737312299927,None,543.9737312299927,None,,,,,,,,,,,115,21,Female,2022-05-05_09h34.56.869,Boat,2022.1.1,60.00387625547299,
negative,neutral,1,j,l,,,,,,,,,9,16,178,3,,,,,,,,,,,,,,,,,,,,,,,,,main,2,2,1,neutral,negative,l,l,1,1.2723476000246592,543.9904346999829,545.0061471000081,544.9697065000073,None,543.9904346999829,None,543.9904346999829,None,543.9904346999829,None,546.2471906299849,None,546.2471906299849,None,546.2471906299849,None,,,,,,,,,,,115,21,Female,2022-05-05_09h34.56.869,Boat,2022.1.1,60.00387625547299,
neutral,negative,2,k,k,,,,,,,,,9,17,179,16,,,,,,,,,,,,,,,,,,,,,,,,,main,1,1,2,negative,neutral,k,k,1,1.3950523999810684,546.2648060999927,547.2702147999953,547.251814999996,None,546.2648060999927,None,546.2648060999927,None,546.2648060999927,None,548.6435549300019,None,548.6435549300019,None,548.6435549300019,None,,,,,,,,,,,115,21,Female,2022-05-05_09h34.56.869,Boat,2022.1.1,60.00387625547299,
neutral,negative,1,k,k,,,,,,,,,10,0,180,7,,,,,,,,,,,,,,,,,,,,,,,,,main,2,2,1,negative,neutral,k,k,1,0.9434941000072286,548.6639986000082,549.6835116999864,549.6403732000035,None,548.6639986000082,None,548.6639986000082,None,548.6639986000082,None,550.590832830008,None,550.590832830008,None,550.590832830008,None,,,,,,,,,,,115,21,Female,2022-05-05_09h34.56.869,Boat,2022.1.1,60.00387625547299,
negative,neutral,1,j,l,,,,,,,,,10,1,181,3,,,,,,,,,,,,,,,,,,,,,,,,,main,1,1,1,neutral,negative,l,l,1,0.9014254999929108,550.6086860999931,551.6247450999799,551.5903739999922,None,550.6086860999931,None,550.6086860999931,None,550.6086860999931,None,552.4960208299832,None,552.4960208299832,None,552.4960208299832,None,,,,,,,,,,,115,21,Female,2022-05-05_09h34.56.869,Boat,2022.1.1,60.00387625547299,
neutral,positive,2,k,k,,,,,,,,,10,2,182,13,,,,,,,,,,,,,,,,,,,,,,,,,main,2,2,2,positive,neutral,k,k,1,0.8408174999931362,552.5133872999868,553.5240200999833,553.4875343999884,None,552.5133872999868,None,552.5133872999868,None,552.5133872999868,None,554.3410652300023,None,554.3410652300023,None,554.3410652300023,None,,,,,,,,,,,115,21,Female,2022-05-05_09h34.56.869,Boat,2022.1.1,60.00387625547299,
neutral,neutral,1,k,k,,,,,,,,,10,3,183,1,,,,,,,,,,,,,,,,,,,,,,,,,main,1,1,1,neutral,neutral,k,k,1,0.6857128000119701,554.3573423000053,555.3566141999909,555.3404425999906,None,554.3573423000053,None,554.3573423000053,None,554.3573423000053,None,556.0278022299841,None,556.0278022299841,None,556.0278022299841,None,,,,,,,,,,,115,21,Female,2022-05-05_09h34.56.869,Boat,2022.1.1,60.00387625547299,
negative,negative,2,j,l,,,,,,,,,10,4,184,9,,,,,,,,,,,,,,,,,,,,,,,,,main,2,2,2,negative,negative,l,l,1,0.951395699987188,556.0458803999936,557.0575246999797,557.0210369999986,None,556.0458803999936,None,556.0458803999936,None,556.0458803999936,None,557.9841426299914,None,557.9841426299914,None,557.9841426299914,None,,,,,,,,,,,115,21,Female,2022-05-05_09h34.56.869,Boat,2022.1.1,60.00387625547299,
negative,neutral,2,j,l,,,,,,,,,10,5,185,12,,,,,,,,,,,,,,,,,,,,,,,,,main,2,2,2,neutral,negative,l,l,1,0.9543606000079308,558.0031365999894,559.0103097999818,558.975483199989,None,558.0031365999894,None,558.0031365999894,None,558.0031365999894,None,559.9405713300017,None,559.9405713300017,None,559.9405713300017,None,,,,,,,,,,,115,21,Female,2022-05-05_09h34.56.869,Boat,2022.1.1,60.00387625547299,
negative,positive,2,j,l,,,,,,,,,10,6,186,15,,,,,,,,,,,,,,,,,,,,,,,,,main,1,1,2,positive,negative,l,l,1,0.7822352999937721,559.9587600000086,560.9835753999942,560.9402807999868,None,559.9587600000086,None,559.9587600000086,None,559.9587600000086,None,561.7260789299995,None,561.7260789299995,None,561.7260789299995,None,,,,,,,,,,,115,21,Female,2022-05-05_09h34.56.869,Boat,2022.1.1,60.00387625547299,
positive,positive,2,l,j,,,,,,,,,10,7,187,11,,,,,,,,,,,,,,,,,,,,,,,,,main,2,2,2,positive,positive,j,j,1,1.0977347000152804,561.7432880999986,562.7671689999988,562.7239259000053,None,561.7432880999986,None,561.7432880999986,None,561.7432880999986,None,563.8255401300063,None,563.8255401300063,None,563.8255401300063,None,,,,,,,,,,,115,21,Female,2022-05-05_09h34.56.869,Boat,2022.1.1,60.00387625547299,
positive,negative,2,l,j,,,,,,,,,10,8,188,14,,,,,,,,,,,,,,,,,,,,,,,,,main,2,2,2,negative,positive,j,j,1,0.7312459000095259,563.844122599985,564.8558296999836,564.8200993000064,None,563.844122599985,None,563.844122599985,None,563.844122599985,None,565.5600874300086,None,565.5600874300086,None,565.5600874300086,None,,,,,,,,,,,115,21,Female,2022-05-05_09h34.56.869,Boat,2022.1.1,60.00387625547299,
positive,negative,1,l,j,,,,,,,,,10,9,189,5,,,,,,,,,,,,,,,,,,,,,,,,,main,2,2,1,negative,positive,j,j,1,1.4956185999908485,565.5788248000026,566.6002715000068,566.557625299989,None,565.5788248000026,None,565.5788248000026,None,565.5788248000026,None,568.0602564299858,None,568.0602564299858,None,568.0602564299858,None,,,,,,,,,,,115,21,Female,2022-05-05_09h34.56.869,Boat,2022.1.1,60.00387625547299,
negative,positive,1,j,l,,,,,,,,,10,10,190,6,,,,,,,,,,,,,,,,,,,,,,,,,main,2,2,1,positive,negative,l,l,1,1.0515316000091843,568.0767264000024,569.0855164999957,569.0672030999849,None,568.0767264000024,None,568.0767264000024,None,568.0767264000024,None,570.11151863001,None,570.11151863001,None,570.11151863001,None,,,,,,,,,,,115,21,Female,2022-05-05_09h34.56.869,Boat,2022.1.1,60.00387625547299,
positive,positive,1,l,j,,,,,,,,,10,11,191,2,,,,,,,,,,,,,,,,,,,,,,,,,main,2,2,1,positive,positive,j,j,1,0.944513199996436,570.1363353999914,571.1506263999909,571.1074462999823,None,570.1363353999914,None,570.1363353999914,None,570.1363353999914,None,572.0610360299848,None,572.0610360299848,None,572.0610360299848,None,,,,,,,,,,,115,21,Female,2022-05-05_09h34.56.869,Boat,2022.1.1,60.00387625547299,
positive,neutral,1,l,j,,,,,,,,,10,12,192,8,,,,,,,,,,,,,,,,,,,,,,,,,main,2,2,1,neutral,positive,j,j,1,0.7427245000144467,572.0782325000037,573.0911861000059,573.0573669000005,None,572.0782325000037,None,572.0782325000037,None,572.0782325000037,None,573.8073976299871,None,573.8073976299871,None,573.8073976299871,None,,,,,,,,,,,115,21,Female,2022-05-05_09h34.56.869,Boat,2022.1.1,60.00387625547299,
neutral,negative,2,k,k,,,,,,,,,10,13,193,16,,,,,,,,,,,,,,,,,,,,,,,,,main,2,2,2,negative,neutral,k,k,1,1.0356117000046652,573.8247060999856,574.8409126999904,574.80430779999,None,573.8247060999856,None,573.8247060999856,None,573.8247060999856,None,575.8452096299822,None,575.8452096299822,None,575.8452096299822,None,,,,,,,,,,,115,21,Female,2022-05-05_09h34.56.869,Boat,2022.1.1,60.00387625547299,
positive,neutral,2,l,j,,,,,,,,,10,14,194,17,,,,,,,,,,,,,,,,,,,,,,,,,main,1,1,2,neutral,positive,j,j,1,0.9138994000095408,575.8626257999858,576.8858790999802,576.8409208999947,None,575.8626257999858,None,575.8626257999858,None,575.8626257999858,None,577.7618449299858,None,577.7618449299858,None,577.7618449299858,None,,,,,,,,,,,115,21,Female,2022-05-05_09h34.56.869,Boat,2022.1.1,60.00387625547299,
neutral,neutral,2,k,k,,,,,,,,,10,15,195,10,,,,,,,,,,,,,,,,,,,,,,,,,main,2,2,2,neutral,neutral,k,k,1,1.2364064000139479,577.7792960999941,578.7908509999979,578.7548336999898,None,577.7792960999941,None,577.7792960999941,None,577.7792960999941,None,580.0016319299845,None,580.0016319299845,None,580.0016319299845,None,,,,,,,,,,,115,21,Female,2022-05-05_09h34.56.869,Boat,2022.1.1,60.00387625547299,
neutral,positive,1,k,k,,,,,,,,,10,16,196,4,,,,,,,,,,,,,,,,,,,,,,,,,main,2,2,1,positive,neutral,k,k,1,0.8730734999990091,580.022257500008,581.0223985000048,581.0046603999799,None,580.022257500008,None,580.022257500008,None,580.022257500008,None,581.8773709299945,None,581.8773709299945,None,581.8773709299945,None,,,,,,,,,,,115,21,Female,2022-05-05_09h34.56.869,Boat,2022.1.1,60.00387625547299,
negative,negative,1,j,l,,,,,,,,,10,17,197,0,,,,,,,,,,,,,,,,,,,,,,,,,main,2,2,1,negative,negative,l,l,1,1.139306700002635,581.8942524000013,582.917575600004,582.8744880000013,None,581.8942524000013,None,581.8942524000013,None,581.8942524000013,None,584.0197178300092,None,584.0197178300092,None,584.0197178300092,None,,,,,,,,,,,115,21,Female,2022-05-05_09h34.56.869,Boat,2022.1.1,60.00387625547299,
positive,negative,2,l,j,,,,,,,,,11,0,198,14,,,,,,,,,,,,,,,,,,,,,,,,,main,1,1,2,negative,positive,j,j,1,0.9152098000049591,584.0402589000005,585.0416159000015,585.0244685999933,None,584.0402589000005,None,584.0402589000005,None,584.0402589000005,None,585.9379020299908,None,585.9379020299908,None,585.9379020299908,None,,,,,,,,,,,115,21,Female,2022-05-05_09h34.56.869,Boat,2022.1.1,60.00387625547299,
neutral,negative,1,k,k,,,,,,,,,11,1,199,7,,,,,,,,,,,,,,,,,,,,,,,,,main,1,1,1,negative,neutral,k,k,1,0.8369053000060376,585.9581907999818,586.9732944999996,586.9373112999892,None,585.9581907999818,None,585.9581907999818,None,585.9581907999818,None,587.7759899300087,None,587.7759899300087,None,587.7759899300087,None,,,,,,,,,,,115,21,Female,2022-05-05_09h34.56.869,Boat,2022.1.1,60.00387625547299,
neutral,positive,1,k,k,,,,,,,,,11,2,200,4,,,,,,,,,,,,,,,,,,,,,,,,,main,2,2,1,positive,neutral,k,k,1,0.7841645000153221,587.794444500003,588.8075627000071,588.7744973999797,None,587.794444500003,None,587.794444500003,None,587.794444500003,None,589.5625045299909,None,589.5625045299909,None,589.5625045299909,None,,,,,,,,,,,115,21,Female,2022-05-05_09h34.56.869,Boat,2022.1.1,60.00387625547299,
negative,negative,1,j,l,,,,,,,,,11,3,201,0,,,,,,,,,,,,,,,,,,,,,,,,,main,1,1,1,negative,negative,l,l,1,0.8112784999830183,589.579882399994,590.5891226999811,590.5525618999964,None,589.579882399994,None,589.579882399994,None,589.579882399994,None,591.3771995299991,None,591.3771995299991,None,591.3771995299991,None,,,,,,,,,,,115,21,Female,2022-05-05_09h34.56.869,Boat,2022.1.1,60.00387625547299,
positive,positive,2,l,j,,,,,,,,,11,4,202,11,,,,,,,,,,,,,,,,,,,,,,,,,main,2,2,2,positive,positive,j,j,1,0.8164113000093494,591.3942324999953,592.4079507999995,592.3743067999894,None,591.3942324999953,None,591.3942324999953,None,591.3942324999953,None,593.1963068299898,None,593.1963068299898,None,593.1963068299898,None,,,,,,,,,,,115,21,Female,2022-05-05_09h34.56.869,Boat,2022.1.1,60.00387625547299,
neutral,negative,2,k,k,,,,,,,,,11,5,203,16,,,,,,,,,,,,,,,,,,,,,,,,,main,1,1,2,negative,neutral,k,k,1,0.7292378999991342,593.2124267999898,594.2243993000011,594.1874162000022,None,593.2124267999898,None,593.2124267999898,None,593.2124267999898,None,594.927927530001,None,594.927927530001,None,594.927927530001,None,,,,,,,,,,,115,21,Female,2022-05-05_09h34.56.869,Boat,2022.1.1,60.00387625547299,
positive,negative,1,l,j,,,,,,,,,11,6,204,5,,,,,,,,,,,,,,,,,,,,,,,,,main,1,1,1,negative,positive,j,j,1,0.7995565999881364,594.9458692999906,595.9580218000046,595.9245883999974,None,594.9458692999906,None,594.9458692999906,None,594.9458692999906,None,596.7303510299913,None,596.7303510299913,None,596.7303510299913,None,,,,,,,,,,,115,21,Female,2022-05-05_09h34.56.869,Boat,2022.1.1,60.00387625547299,
neutral,neutral,1,k,k,,,,,,,,,11,7,205,1,,,,,,,,,,,,,,,,,,,,,,,,,main,1,1,1,neutral,neutral,k,k,1,0.7618742000195198,596.7461775999982,597.7525201999815,597.7346002999984,None,596.7461775999982,None,596.7461775999982,None,596.7461775999982,None,598.4948320299824,None,598.4948320299824,None,598.4948320299824,None,,,,,,,,,,,115,21,Female,2022-05-05_09h34.56.869,Boat,2022.1.1,60.00387625547299,
