target,distractor,set,ans1,ans2,rep_loop2.thisRepN,rep_loop2.thisTrialN,rep_loop2.thisN,rep_loop2.thisIndex,flanker_prac_loop.thisRepN,flanker_prac_loop.thisTrialN,flanker_prac_loop.thisN,flanker_prac_loop.thisIndex,flanker_main_loop.thisRepN,flanker_main_loop.thisTrialN,flanker_main_loop.thisN,flanker_main_loop.thisIndex,fl_inst_resp.keys,mouse.x,mouse.y,mouse.leftButton,mouse.midButton,mouse.rightButton,mouse.started,mouse.stopped,sound_1.started,sound_1.stopped,no_text.started,no_text.stopped,yes_text.started,yes_text.stopped,mouse_2.x,mouse_2.y,mouse_2.leftButton,mouse_2.midButton,mouse_2.rightButton,mouse_2.started,mouse_2.stopped,back_2.started,back_2.stopped,main_prac,fl_cold,fl_colt,fl_set,fl_dcond,fl_tcond,fl_ans,fl_res,fl_corr,fl_rt,fix_fl.started,fix_fl.stopped,targ.started,targ.stopped,j_button.started,j_button.stopped,k_button.started,k_button.stopped,l_button.started,l_button.stopped,j_button2.started,j_button2.stopped,k_button2.started,k_button2.stopped,l_button2.started,l_button2.stopped,mainback.started,mainback.stopped,key_resp.keys,mouse_6.x,mouse_6.y,mouse_6.leftButton,mouse_6.midButton,mouse_6.rightButton,mouse_6.started,mouse_6.stopped,id*,age*,gender*,date,expName,psychopyVersion,frameRate,
,,,,,0,0,0,0,,,,,,,,,None,0.0055555557,0.41296297,0,0,0,1.0333273600263055,None,27.254553519989713,None,28.423302899987902,None,28.423302899987902,None,0.075925924,-0.050925925,0,0,0,0.012287720019230619,None,,,,,,,,,,,,,,,,,,,,,,,,,,,,,,,,,,,,,,,116,24,Female,2022-05-05_11h13.01.300,Boat,2022.1.1,59.902801713026754,
,,,,,1,0,1,0,,,,,,,,,None,0.07962963,-0.09074074,0,0,0,None,None,None,None,30.10463349998463,None,30.10463349998463,None,0.11111111,-0.087037034,0,0,0,0.013349520013434812,None,,,,,,,,,,,,,,,,,,,,,,,,,,,,,,,,,,,,,,,116,24,Female,2022-05-05_11h13.01.300,Boat,2022.1.1,59.902801713026754,
,,,,,2,0,2,0,,,,,,,,,None,-0.21851853,-0.41574073,0,0,0,1.000024620007025,None,32.80435072000546,None,84.93913680000696,None,84.93913680000696,None,-0.11481482,-0.09907407,0,0,0,0.013796019979054108,None,,,,,,,,,,,,,,,,,,,,,,,,,,,,,,,,,,,,,,,116,24,Female,2022-05-05_11h13.01.300,Boat,2022.1.1,59.902801713026754,
positive,positive,2,l,j,,,,,0,0,0,11,,,,,,,,,,,,,,,,,,,,,,,,,,90.92236560001038,None,prac,1,1,2,positive,positive,l,l,1,1.9870133000076748,92.9539317000017,93.97353610000573,93.92883329998585,None,92.9539317000017,None,92.9539317000017,None,92.9539317000017,None,95.93257889998495,None,95.93257889998495,None,95.93257889998495,None,,,,,,,,,,,116,24,Female,2022-05-05_11h13.01.300,Boat,2022.1.1,59.902801713026754,
negative,positive,2,j,l,,,,,0,1,1,15,,,,,,,,,,,,,,,,,,,,,,,,,,,,prac,2,2,2,positive,negative,j,j,1,1.0510506000136957,96.94657000000007,97.97199849999743,97.92704109998886,None,96.94657000000007,None,96.94657000000007,None,96.94657000000007,None,98.98269961999904,None,98.98269961999904,None,98.98269961999904,None,,,,,,,,,,,116,24,Female,2022-05-05_11h13.01.300,Boat,2022.1.1,59.902801713026754,
positive,negative,1,l,j,,,,,0,2,2,5,,,,,,,,,,,,,,,,,,,,,,,,,,,,prac,2,2,1,negative,positive,l,l,1,0.986332600004971,98.99998950000736,100.01092229998903,99.9757399999944,None,98.99998950000736,None,98.99998950000736,None,98.99998950000736,None,100.97200202000386,None,100.97200202000386,None,100.97200202000386,None,,,,,,,,,,,116,24,Female,2022-05-05_11h13.01.300,Boat,2022.1.1,59.902801713026754,
positive,negative,2,l,j,,,,,0,3,3,14,,,,,,,,,,,,,,,,,,,,,,,,,,,,prac,2,2,2,negative,positive,l,l,1,0.7801529999997001,100.99289659998612,102.00691080000252,101.98933209999814,None,100.99289659998612,None,100.99289659998612,None,100.99289659998612,None,102.75554401999398,None,102.75554401999398,None,102.75554401999398,None,,,,,,,,,,,116,24,Female,2022-05-05_11h13.01.300,Boat,2022.1.1,59.902801713026754,
positive,neutral,2,l,j,,,,,0,4,4,17,,,,,,,,,,,,,,,,,,,,,,,,,,,,prac,2,2,2,neutral,positive,l,l,1,0.7265019999758806,102.77387899998575,103.78690179999103,103.74202780000633,None,102.77387899998575,None,102.77387899998575,None,102.77387899998575,None,104.48287421998975,None,104.48287421998975,None,104.48287421998975,None,,,,,,,,,,,116,24,Female,2022-05-05_11h13.01.300,Boat,2022.1.1,59.902801713026754,
neutral,positive,1,k,k,,,,,0,5,5,4,,,,,,,,,,,,,,,,,,,,,,,,,,,,prac,2,2,1,positive,neutral,k,k,1,0.8153160999936517,104.49766729999101,105.51010509999469,105.49214970000321,None,104.49766729999101,None,104.49766729999101,None,104.49766729999101,None,106.29972672001168,None,106.29972672001168,None,106.29972672001168,None,,,,,,,,,,,116,24,Female,2022-05-05_11h13.01.300,Boat,2022.1.1,59.902801713026754,
negative,negative,1,j,l,,,,,0,6,6,0,,,,,,,,,,,,,,,,,,,,,,,,,,,,prac,2,2,1,negative,negative,j,j,1,0.7301975000009406,106.31551990000298,107.33763980001095,107.29423269999097,None,106.31551990000298,None,106.31551990000298,None,106.31551990000298,None,108.0324062199943,None,108.0324062199943,None,108.0324062199943,None,,,,,,,,,,,116,24,Female,2022-05-05_11h13.01.300,Boat,2022.1.1,59.902801713026754,
neutral,neutral,2,k,k,,,,,0,7,7,10,,,,,,,,,,,,,,,,,,,,,,,,,,,,prac,1,1,2,neutral,neutral,k,k,1,0.8566576000011992,108.0463621999952,109.05915620000451,109.04144709999673,None,108.0463621999952,None,108.0463621999952,None,108.0463621999952,None,109.89208012000017,None,109.89208012000017,None,109.89208012000017,None,,,,,,,,,,,116,24,Female,2022-05-05_11h13.01.300,Boat,2022.1.1,59.902801713026754,
negative,negative,2,j,l,,,,,0,8,8,9,,,,,,,,,,,,,,,,,,,,,,,,,,,,prac,2,2,2,negative,negative,j,l,0,0.8923757999727968,109.90981979999924,110.91067539999494,110.89262389999931,None,109.90981979999924,None,109.90981979999924,None,109.90981979999924,None,111.79277689999435,None,111.79277689999435,None,111.79277689999435,None,,,,,,,,,,,116,24,Female,2022-05-05_11h13.01.300,Boat,2022.1.1,59.902801713026754,
neutral,neutral,1,k,k,,,,,0,9,9,1,,,,,,,,,,,,,,,,,,,,,,,,,,,,prac,1,1,1,neutral,neutral,k,k,1,0.848909399996046,112.8122929999954,113.83796639999491,113.79288659998565,None,112.8122929999954,None,112.8122929999954,None,112.8122929999954,None,114.64808361999167,None,114.64808361999167,None,114.64808361999167,None,,,,,,,,,,,116,24,Female,2022-05-05_11h13.01.300,Boat,2022.1.1,59.902801713026754,
neutral,positive,2,k,k,,,,,0,10,10,13,,,,,,,,,,,,,,,,,,,,,,,,,,,,prac,2,2,2,positive,neutral,k,k,1,0.9168009999848437,114.6638743999938,115.67836890000035,115.64030440000352,None,114.6638743999938,None,114.6638743999938,None,114.6638743999938,None,116.5674437199923,None,116.5674437199923,None,116.5674437199923,None,,,,,,,,,,,116,24,Female,2022-05-05_11h13.01.300,Boat,2022.1.1,59.902801713026754,
negative,neutral,2,j,l,,,,,0,11,11,12,,,,,,,,,,,,,,,,,,,,,,,,,,,,prac,2,2,2,neutral,negative,j,j,1,0.6572726999875158,116.58244180001202,117.59295409999322,117.57493339999928,None,116.58244180001202,None,116.58244180001202,None,116.58244180001202,None,118.22810662000848,None,118.22810662000848,None,118.22810662000848,None,,,,,,,,,,,116,24,Female,2022-05-05_11h13.01.300,Boat,2022.1.1,59.902801713026754,
neutral,negative,1,k,k,,,,,0,12,12,7,,,,,,,,,,,,,,,,,,,,,,,,,,,,prac,1,1,1,negative,neutral,k,k,1,0.8461090000055265,118.2431791999843,119.26086790001136,119.22439729998587,None,118.2431791999843,None,118.2431791999843,None,118.2431791999843,None,120.07761302001018,None,120.07761302001018,None,120.07761302001018,None,,,,,,,,,,,116,24,Female,2022-05-05_11h13.01.300,Boat,2022.1.1,59.902801713026754,
positive,positive,1,l,j,,,,,0,13,13,2,,,,,,,,,,,,,,,,,,,,,,,,,,,,prac,2,2,1,positive,positive,l,l,1,0.7691918000055011,120.09502670000074,121.10737250000238,121.07143029998406,None,120.09502670000074,None,120.09502670000074,None,120.09502670000074,None,121.84863281999424,None,121.84863281999424,None,121.84863281999424,None,,,,,,,,,,,116,24,Female,2022-05-05_11h13.01.300,Boat,2022.1.1,59.902801713026754,
positive,neutral,1,l,j,,,,,0,14,14,8,,,,,,,,,,,,,,,,,,,,,,,,,,,,prac,1,1,1,neutral,positive,l,l,1,0.8156240000098478,121.8633925000031,122.88793249998707,122.8613320000004,None,121.8633925000031,None,121.8633925000031,None,121.8633925000031,None,123.66587782000715,None,123.66587782000715,None,123.66587782000715,None,,,,,,,,,,,116,24,Female,2022-05-05_11h13.01.300,Boat,2022.1.1,59.902801713026754,
neutral,negative,2,k,k,,,,,0,15,15,16,,,,,,,,,,,,,,,,,,,,,,,,,,,,prac,1,1,2,negative,neutral,k,k,1,1.0121718999871518,123.68145549998735,124.69507580000209,124.65787289998843,None,123.68145549998735,None,123.68145549998735,None,123.68145549998735,None,125.67974782000238,None,125.67974782000238,None,125.67974782000238,None,,,,,,,,,,,116,24,Female,2022-05-05_11h13.01.300,Boat,2022.1.1,59.902801713026754,
negative,positive,1,j,l,,,,,0,16,16,6,,,,,,,,,,,,,,,,,,,,,,,,,,,,prac,2,2,1,positive,negative,j,j,1,0.8464793000021018,125.69677290000254,126.71175539999967,126.67646889999742,None,125.69677290000254,None,125.69677290000254,None,125.69677290000254,None,127.53002921999723,None,127.53002921999723,None,127.53002921999723,None,,,,,,,,,,,116,24,Female,2022-05-05_11h13.01.300,Boat,2022.1.1,59.902801713026754,
negative,neutral,1,j,l,,,,,0,17,17,3,,,,,,,,,,,,,,,,,,,,,,,,,,,,prac,2,2,1,neutral,negative,j,j,1,0.6822692999849096,127.54462729999796,128.56134019998717,128.52552329999162,None,127.54462729999796,None,127.54462729999796,None,127.54462729999796,None,129.21317951999663,None,129.21317951999663,None,129.21317951999663,None,,,,,,,,,,,116,24,Female,2022-05-05_11h13.01.300,Boat,2022.1.1,59.902801713026754,
neutral,neutral,2,k,k,,,,,1,0,18,10,,,,,,,,,,,,,,,,,,,,,,,,,,,,prac,1,1,2,neutral,neutral,k,k,1,0.7939046999963466,129.22897239998565,130.2297058000113,130.21158080000896,None,129.22897239998565,None,129.22897239998565,None,129.22897239998565,None,131.01171132001036,None,131.01171132001036,None,131.01171132001036,None,,,,,,,,,,,116,24,Female,2022-05-05_11h13.01.300,Boat,2022.1.1,59.902801713026754,
negative,negative,2,j,l,,,,,1,1,19,9,,,,,,,,,,,,,,,,,,,,,,,,,,,,prac,1,1,2,negative,negative,j,j,1,0.9005504000233486,131.02890629999456,132.04435219999868,132.02635269999155,None,131.02890629999456,None,131.02890629999456,None,131.02890629999456,None,132.9140309200011,None,132.9140309200011,None,132.9140309200011,None,,,,,,,,,,,116,24,Female,2022-05-05_11h13.01.300,Boat,2022.1.1,59.902801713026754,
neutral,positive,1,k,k,,,,,1,2,20,4,,,,,,,,,,,,,,,,,,,,,,,,,,,,prac,2,2,1,positive,neutral,k,k,1,0.8840871000138577,132.92972489999374,133.94577910000226,133.9287648999889,None,132.92972489999374,None,132.92972489999374,None,132.92972489999374,None,134.7998689199885,None,134.7998689199885,None,134.7998689199885,None,,,,,,,,,,,116,24,Female,2022-05-05_11h13.01.300,Boat,2022.1.1,59.902801713026754,
negative,negative,1,j,l,,,,,1,3,21,0,,,,,,,,,,,,,,,,,,,,,,,,,,,,prac,2,2,1,negative,negative,j,j,1,0.8089925000094809,134.8156054999854,135.83804229999078,135.81141870000283,None,134.8156054999854,None,134.8156054999854,None,134.8156054999854,None,136.6117079199903,None,136.6117079199903,None,136.6117079199903,None,,,,,,,,,,,116,24,Female,2022-05-05_11h13.01.300,Boat,2022.1.1,59.902801713026754,
positive,negative,1,l,j,,,,,1,4,22,5,,,,,,,,,,,,,,,,,,,,,,,,,,,,prac,2,2,1,negative,positive,l,l,1,0.9027114000055008,136.62974989999202,137.6452877999982,137.60925559999305,None,136.62974989999202,None,136.62974989999202,None,136.62974989999202,None,138.51625011999568,None,138.51625011999568,None,138.51625011999568,None,,,,,,,,,,,116,24,Female,2022-05-05_11h13.01.300,Boat,2022.1.1,59.902801713026754,
positive,positive,2,l,j,,,,,1,5,23,11,,,,,,,,,,,,,,,,,,,,,,,,,,,,prac,2,2,2,positive,positive,l,l,1,0.8116692999901716,138.5315671999997,139.54499659998692,139.51148439999088,None,138.5315671999997,None,138.5315671999997,None,138.5315671999997,None,140.33023321999644,None,140.33023321999644,None,140.33023321999644,None,,,,,,,,,,,116,24,Female,2022-05-05_11h13.01.300,Boat,2022.1.1,59.902801713026754,
negative,positive,1,j,l,,,,,1,6,24,6,,,,,,,,,,,,,,,,,,,,,,,,,,,,prac,1,1,1,positive,negative,j,j,1,0.7521378999808803,140.34863739999128,141.36202810000395,141.32465249998495,None,140.34863739999128,None,140.34863739999128,None,140.34863739999128,None,142.0840829200024,None,142.0840829200024,None,142.0840829200024,None,,,,,,,,,,,116,24,Female,2022-05-05_11h13.01.300,Boat,2022.1.1,59.902801713026754,
positive,neutral,1,l,j,,,,,1,7,25,8,,,,,,,,,,,,,,,,,,,,,,,,,,,,prac,2,2,1,neutral,positive,l,l,1,1.0162171999982093,142.0988531000039,143.11051689999294,143.07542740000645,None,142.0988531000039,None,142.0988531000039,None,142.0988531000039,None,144.10230002000753,None,144.10230002000753,None,144.10230002000753,None,,,,,,,,,,,116,24,Female,2022-05-05_11h13.01.300,Boat,2022.1.1,59.902801713026754,
positive,neutral,2,l,j,,,,,1,8,26,17,,,,,,,,,,,,,,,,,,,,,,,,,,,,prac,2,2,2,neutral,positive,l,l,1,0.8118586000055075,144.11733619999723,145.13014110000222,145.091454599984,None,144.11733619999723,None,144.11733619999723,None,144.11733619999723,None,145.916976219989,None,145.916976219989,None,145.916976219989,None,,,,,,,,,,,116,24,Female,2022-05-05_11h13.01.300,Boat,2022.1.1,59.902801713026754,
neutral,neutral,1,k,k,,,,,1,9,27,1,,,,,,,,,,,,,,,,,,,,,,,,,,,,prac,2,2,1,neutral,neutral,k,k,1,1.3256083999876864,145.93214290001197,146.94554730001255,146.92863350000698,None,145.93214290001197,None,145.93214290001197,None,145.93214290001197,None,148.24543441999413,None,148.24543441999413,None,148.24543441999413,None,,,,,,,,,,,116,24,Female,2022-05-05_11h13.01.300,Boat,2022.1.1,59.902801713026754,
positive,positive,1,l,j,,,,,1,10,28,2,,,,,,,,,,,,,,,,,,,,,,,,,,,,prac,2,2,1,positive,positive,l,l,1,0.8359122000110801,148.25993540001218,149.27923949999968,149.24217129999306,None,148.25993540001218,None,148.25993540001218,None,148.25993540001218,None,150.08297852000396,None,150.08297852000396,None,150.08297852000396,None,,,,,,,,,,,116,24,Female,2022-05-05_11h13.01.300,Boat,2022.1.1,59.902801713026754,
neutral,negative,2,k,k,,,,,1,11,29,16,,,,,,,,,,,,,,,,,,,,,,,,,,,,prac,1,1,2,negative,neutral,k,k,1,0.880734600010328,150.09781800000928,151.11215020000236,151.07682739998563,None,150.09781800000928,None,150.09781800000928,None,150.09781800000928,None,151.9660975200095,None,151.9660975200095,None,151.9660975200095,None,,,,,,,,,,,116,24,Female,2022-05-05_11h13.01.300,Boat,2022.1.1,59.902801713026754,
negative,neutral,2,j,l,,,,,1,12,30,12,,,,,,,,,,,,,,,,,,,,,,,,,,,,prac,1,1,2,neutral,negative,j,j,1,0.7833665999933146,151.98105589998886,152.99530519999098,152.97856960000354,None,151.98105589998886,None,151.98105589998886,None,151.98105589998886,None,153.7506307200092,None,153.7506307200092,None,153.7506307200092,None,,,,,,,,,,,116,24,Female,2022-05-05_11h13.01.300,Boat,2022.1.1,59.902801713026754,
positive,negative,2,l,j,,,,,1,13,31,14,,,,,,,,,,,,,,,,,,,,,,,,,,,,prac,2,2,2,negative,positive,l,l,1,0.7293453000020236,153.76595440000528,154.78889180000988,154.7426495999971,None,153.76595440000528,None,153.76595440000528,None,153.76595440000528,None,155.4828156200092,None,155.4828156200092,None,155.4828156200092,None,,,,,,,,,,,116,24,Female,2022-05-05_11h13.01.300,Boat,2022.1.1,59.902801713026754,
negative,neutral,1,j,l,,,,,1,14,32,3,,,,,,,,,,,,,,,,,,,,,,,,,,,,prac,2,2,1,neutral,negative,j,j,1,0.7318191999802366,155.4977768000099,156.5121877999918,156.47793620001175,None,155.4977768000099,None,155.4977768000099,None,155.4977768000099,None,157.2165653199918,None,157.2165653199918,None,157.2165653199918,None,,,,,,,,,,,116,24,Female,2022-05-05_11h13.01.300,Boat,2022.1.1,59.902801713026754,
neutral,negative,1,k,k,,,,,1,15,33,7,,,,,,,,,,,,,,,,,,,,,,,,,,,,prac,1,1,1,negative,neutral,k,k,1,0.8321278000075836,157.23267639998812,158.2456688999955,158.20926619999227,None,157.23267639998812,None,157.23267639998812,None,157.23267639998812,None,159.05057442000543,None,159.05057442000543,None,159.05057442000543,None,,,,,,,,,,,116,24,Female,2022-05-05_11h13.01.300,Boat,2022.1.1,59.902801713026754,
negative,positive,2,j,l,,,,,1,16,34,15,,,,,,,,,,,,,,,,,,,,,,,,,,,,prac,2,2,2,positive,negative,j,j,1,0.7912726999784354,159.06658740001149,160.09019980000448,160.04557600000408,None,159.06658740001149,None,159.06658740001149,None,159.06658740001149,None,160.84556021999742,None,160.84556021999742,None,160.84556021999742,None,,,,,,,,,,,116,24,Female,2022-05-05_11h13.01.300,Boat,2022.1.1,59.902801713026754,
neutral,positive,2,k,k,,,,,1,17,35,13,,,,,,,,,,,,,,,,,,,,,,,,,,,,prac,2,2,2,positive,neutral,k,k,1,0.796884899988072,160.86248139999225,161.87409530000878,161.82925730000716,None,160.86248139999225,None,160.86248139999225,None,160.86248139999225,None,162.6457462200051,None,162.6457462200051,None,162.6457462200051,None,,,,,,,,,,,116,24,Female,2022-05-05_11h13.01.300,Boat,2022.1.1,59.902801713026754,
,,,,,,,,,,,,,,,,,,,,,,,,,,,,,,,,,,,,,,,,,,,,,,,,,,,,,,,,,,,,,,,,,,162.6569043000054,None,None,,,,,,,,116,24,Female,2022-05-05_11h13.01.300,Boat,2022.1.1,59.902801713026754,
,,,,,,,,,,,,,,,,,,,,,,,,,,,,,,,,,,,,,,,,,,,,,,,,,,,,,,,,,,,,,,,,,,,,,0.25,-0.07037037,1,0,0,0.005939019989455119,None,116,24,Female,2022-05-05_11h13.01.300,Boat,2022.1.1,59.902801713026754,
positive,negative,2,l,j,,,,,,,,,0,0,0,14,,,,,,,,,,,,,,,,,,,,,,181.1574261999922,None,main,2,2,2,negative,positive,l,l,1,0.8089188000012655,183.17775400000392,184.1937215999933,184.15794919998734,None,183.17775400000392,None,183.17775400000392,None,183.17775400000392,None,184.9677298200113,None,184.9677298200113,None,184.9677298200113,None,,,,,,,,,,,116,24,Female,2022-05-05_11h13.01.300,Boat,2022.1.1,59.902801713026754,
negative,neutral,1,j,l,,,,,,,,,0,1,1,3,,,,,,,,,,,,,,,,,,,,,,,,main,1,1,1,neutral,negative,j,j,1,0.7279228999977931,184.99220889998833,185.99630569998408,185.96272859998862,None,184.99220889998833,None,184.99220889998833,None,184.99220889998833,None,186.69989932001045,None,186.69989932001045,None,186.69989932001045,None,,,,,,,,,,,116,24,Female,2022-05-05_11h13.01.300,Boat,2022.1.1,59.902801713026754,
positive,neutral,1,l,j,,,,,,,,,0,2,2,8,,,,,,,,,,,,,,,,,,,,,,,,main,1,1,1,neutral,positive,l,l,1,0.8433814999880269,186.71475300000748,187.73901540000224,187.69593459999305,None,186.71475300000748,None,186.71475300000748,None,186.71475300000748,None,188.546779220007,None,188.546779220007,None,188.546779220007,None,,,,,,,,,,,116,24,Female,2022-05-05_11h13.01.300,Boat,2022.1.1,59.902801713026754,
neutral,neutral,2,k,k,,,,,,,,,0,3,3,10,,,,,,,,,,,,,,,,,,,,,,,,main,2,2,2,neutral,neutral,k,k,1,0.7153755000035744,188.563304899988,189.56264990000636,189.54625290000695,None,188.563304899988,None,188.563304899988,None,188.563304899988,None,190.26306491998548,None,190.26306491998548,None,190.26306491998548,None,,,,,,,,,,,116,24,Female,2022-05-05_11h13.01.300,Boat,2022.1.1,59.902801713026754,
positive,negative,1,l,j,,,,,,,,,0,4,4,5,,,,,,,,,,,,,,,,,,,,,,,,main,2,2,1,negative,positive,l,l,1,0.6138608999899589,190.28115540000726,191.3063428000023,191.26311800000258,None,190.28115540000726,None,190.28115540000726,None,190.28115540000726,None,191.88112242000352,None,191.88112242000352,None,191.88112242000352,None,,,,,,,,,,,116,24,Female,2022-05-05_11h13.01.300,Boat,2022.1.1,59.902801713026754,
negative,negative,2,j,l,,,,,,,,,0,5,5,9,,,,,,,,,,,,,,,,,,,,,,,,main,2,2,2,negative,negative,j,j,1,0.5843803000170738,191.8960090999899,192.89636439998867,192.87957240000833,None,191.8960090999899,None,191.8960090999899,None,191.8960090999899,None,193.46748251999088,None,193.46748251999088,None,193.46748251999088,None,,,,,,,,,,,116,24,Female,2022-05-05_11h13.01.300,Boat,2022.1.1,59.902801713026754,
positive,positive,1,l,j,,,,,,,,,0,6,6,2,,,,,,,,,,,,,,,,,,,,,,,,main,2,2,1,positive,positive,l,l,1,0.6642615999735426,193.4845185999875,194.50619929999812,194.4631323000067,None,193.4845185999875,None,193.4845185999875,None,193.4845185999875,None,195.13434892000805,None,195.13434892000805,None,195.13434892000805,None,,,,,,,,,,,116,24,Female,2022-05-05_11h13.01.300,Boat,2022.1.1,59.902801713026754,
neutral,negative,1,k,k,,,,,,,,,0,7,7,7,,,,,,,,,,,,,,,,,,,,,,,,main,2,2,1,negative,neutral,k,k,1,0.5997410000127275,195.15113389998442,196.1623866999871,196.12645239999983,None,195.15113389998442,None,195.15113389998442,None,195.15113389998442,None,196.73764662000758,None,196.73764662000758,None,196.73764662000758,None,,,,,,,,,,,116,24,Female,2022-05-05_11h13.01.300,Boat,2022.1.1,59.902801713026754,
neutral,positive,1,k,k,,,,,,,,,0,8,8,4,,,,,,,,,,,,,,,,,,,,,,,,main,1,1,1,positive,neutral,k,k,1,0.7121781000168994,196.75367740000365,197.76246540001011,197.74358159999247,None,196.75367740000365,None,196.75367740000365,None,196.75367740000365,None,198.45186802001263,None,198.45186802001263,None,198.45186802001263,None,,,,,,,,,,,116,24,Female,2022-05-05_11h13.01.300,Boat,2022.1.1,59.902801713026754,
negative,positive,1,j,l,,,,,,,,,0,9,9,6,,,,,,,,,,,,,,,,,,,,,,,,main,1,1,1,positive,negative,j,j,1,0.730587199999718,198.466285100003,199.48964200000046,199.4633588999859,None,198.466285100003,None,198.466285100003,None,198.466285100003,None,200.1843730200053,None,200.1843730200053,None,200.1843730200053,None,,,,,,,,,,,116,24,Female,2022-05-05_11h13.01.300,Boat,2022.1.1,59.902801713026754,
neutral,negative,2,k,k,,,,,,,,,0,10,10,16,,,,,,,,,,,,,,,,,,,,,,,,main,2,2,2,negative,neutral,k,k,1,0.7332881000183988,200.20022140000947,201.22479010000825,201.1797045999847,None,200.20022140000947,None,200.20022140000947,None,200.20022140000947,None,201.91973022000457,None,201.91973022000457,None,201.91973022000457,None,,,,,,,,,,,116,24,Female,2022-05-05_11h13.01.300,Boat,2022.1.1,59.902801713026754,
negative,negative,1,j,l,,,,,,,,,0,11,11,0,,,,,,,,,,,,,,,,,,,,,,,,main,2,2,1,negative,negative,j,j,1,0.7888156000117306,201.93581510000513,202.95644310000353,202.91282900000806,None,201.93581510000513,None,201.93581510000513,None,201.93581510000513,None,203.71295572000963,None,203.71295572000963,None,203.71295572000963,None,,,,,,,,,,,116,24,Female,2022-05-05_11h13.01.300,Boat,2022.1.1,59.902801713026754,
positive,neutral,2,l,j,,,,,,,,,0,12,12,17,,,,,,,,,,,,,,,,,,,,,,,,main,1,1,2,neutral,positive,l,l,1,0.6038275999890175,203.73029420000967,204.74639419998857,204.70997850000276,None,203.73029420000967,None,203.73029420000967,None,203.73029420000967,None,205.31899002000864,None,205.31899002000864,None,205.31899002000864,None,,,,,,,,,,,116,24,Female,2022-05-05_11h13.01.300,Boat,2022.1.1,59.902801713026754,
neutral,neutral,1,k,k,,,,,,,,,0,13,13,1,,,,,,,,,,,,,,,,,,,,,,,,main,2,2,1,neutral,neutral,k,k,1,0.9955289000063203,205.3350528999872,206.34684809998726,206.31357309999294,None,205.3350528999872,None,205.3350528999872,None,205.3350528999872,None,207.31669511999644,None,207.31669511999644,None,207.31669511999644,None,,,,,,,,,,,116,24,Female,2022-05-05_11h13.01.300,Boat,2022.1.1,59.902801713026754,
neutral,positive,2,k,k,,,,,,,,,0,14,14,13,,,,,,,,,,,,,,,,,,,,,,,,main,2,2,2,positive,neutral,k,k,1,0.716502000024775,207.33229039999424,208.34670970001025,208.31227560000843,None,207.33229039999424,None,207.33229039999424,None,207.33229039999424,None,209.03641762000916,None,209.03641762000916,None,209.03641762000916,None,,,,,,,,,,,116,24,Female,2022-05-05_11h13.01.300,Boat,2022.1.1,59.902801713026754,
negative,positive,2,j,l,,,,,,,,,0,15,15,15,,,,,,,,,,,,,,,,,,,,,,,,main,1,1,2,positive,negative,j,j,1,0.8009156999760307,209.05124599998817,210.0750534000108,210.05647780001163,None,209.05124599998817,None,209.05124599998817,None,209.05124599998817,None,210.84010282000236,None,210.84010282000236,None,210.84010282000236,None,,,,,,,,,,,116,24,Female,2022-05-05_11h13.01.300,Boat,2022.1.1,59.902801713026754,
positive,positive,2,l,j,,,,,,,,,0,16,16,11,,,,,,,,,,,,,,,,,,,,,,,,main,1,1,2,positive,positive,l,j,0,0.6897590000007767,210.85937980000745,211.87290290000965,211.83030199998757,None,210.85937980000745,None,210.85937980000745,None,210.85937980000745,None,212.53467600001022,None,212.53467600001022,None,212.53467600001022,None,,,,,,,,,,,116,24,Female,2022-05-05_11h13.01.300,Boat,2022.1.1,59.902801713026754,
negative,neutral,2,j,l,,,,,,,,,0,17,17,12,,,,,,,,,,,,,,,,,,,,,,,,main,2,2,2,neutral,negative,j,j,1,0.7176538000057917,213.54866219998803,214.56342900000163,214.53017849999014,None,213.54866219998803,None,213.54866219998803,None,213.54866219998803,None,215.25235271999554,None,215.25235271999554,None,215.25235271999554,None,,,,,,,,,,,116,24,Female,2022-05-05_11h13.01.300,Boat,2022.1.1,59.902801713026754,
negative,negative,2,j,l,,,,,,,,,1,0,18,9,,,,,,,,,,,,,,,,,,,,,,,,main,2,2,2,negative,negative,j,j,1,0.7238301000033971,215.27006300000357,216.29190599999856,216.24684629999683,None,215.27006300000357,None,215.27006300000357,None,215.27006300000357,None,216.98050372001308,None,216.98050372001308,None,216.98050372001308,None,,,,,,,,,,,116,24,Female,2022-05-05_11h13.01.300,Boat,2022.1.1,59.902801713026754,
negative,neutral,2,j,l,,,,,,,,,1,1,19,12,,,,,,,,,,,,,,,,,,,,,,,,main,2,2,2,neutral,negative,j,j,1,0.6259576999873389,216.99715419998392,218.0095306999865,217.97328040000866,None,216.99715419998392,None,216.99715419998392,None,216.99715419998392,None,218.609923719996,None,218.609923719996,None,218.609923719996,None,,,,,,,,,,,116,24,Female,2022-05-05_11h13.01.300,Boat,2022.1.1,59.902801713026754,
negative,positive,2,j,l,,,,,,,,,1,2,20,15,,,,,,,,,,,,,,,,,,,,,,,,main,2,2,2,positive,negative,j,j,1,0.7764564999961294,218.62804630000028,219.63992690001032,219.59711719999905,None,218.62804630000028,None,218.62804630000028,None,218.62804630000028,None,220.38608591999218,None,220.38608591999218,None,220.38608591999218,None,,,,,,,,,,,116,24,Female,2022-05-05_11h13.01.300,Boat,2022.1.1,59.902801713026754,
neutral,neutral,1,k,k,,,,,,,,,1,3,21,1,,,,,,,,,,,,,,,,,,,,,,,,main,1,1,1,neutral,neutral,k,k,1,1.013002600026084,220.40264499999466,221.4139845999889,221.37642320001032,None,220.40264499999466,None,220.40264499999466,None,220.40264499999466,None,222.40311152000504,None,222.40311152000504,None,222.40311152000504,None,,,,,,,,,,,116,24,Female,2022-05-05_11h13.01.300,Boat,2022.1.1,59.902801713026754,
neutral,positive,1,k,k,,,,,,,,,1,4,22,4,,,,,,,,,,,,,,,,,,,,,,,,main,2,2,1,positive,neutral,k,k,1,0.7114595999883022,222.41689910000423,223.43021240000962,223.41336460001185,None,222.41689910000423,None,222.41689910000423,None,222.41689910000423,None,224.11682752000343,None,224.11682752000343,None,224.11682752000343,None,,,,,,,,,,,116,24,Female,2022-05-05_11h13.01.300,Boat,2022.1.1,59.902801713026754,
positive,positive,1,l,j,,,,,,,,,1,5,23,2,,,,,,,,,,,,,,,,,,,,,,,,main,1,1,1,positive,positive,l,l,1,0.7931129999924451,224.13287890001084,225.14471150000463,225.10889319999842,None,224.13287890001084,None,224.13287890001084,None,224.13287890001084,None,225.91284732001077,None,225.91284732001077,None,225.91284732001077,None,,,,,,,,,,,116,24,Female,2022-05-05_11h13.01.300,Boat,2022.1.1,59.902801713026754,
positive,negative,2,l,j,,,,,,,,,1,6,24,14,,,,,,,,,,,,,,,,,,,,,,,,main,2,2,2,negative,positive,l,l,1,0.8046576000051573,225.93097250000574,226.9303832000005,226.91436759999488,None,225.93097250000574,None,225.93097250000574,None,225.93097250000574,None,227.7195978200034,None,227.7195978200034,None,227.7195978200034,None,,,,,,,,,,,116,24,Female,2022-05-05_11h13.01.300,Boat,2022.1.1,59.902801713026754,
neutral,negative,2,k,k,,,,,,,,,1,7,25,16,,,,,,,,,,,,,,,,,,,,,,,,main,1,1,2,negative,neutral,k,k,1,0.9301789000164717,227.7345716000127,228.7474887999997,228.73020839999663,None,227.7345716000127,None,227.7345716000127,None,227.7345716000127,None,229.65201221998723,None,229.65201221998723,None,229.65201221998723,None,,,,,,,,,,,116,24,Female,2022-05-05_11h13.01.300,Boat,2022.1.1,59.902801713026754,
negative,positive,1,j,l,,,,,,,,,1,8,26,6,,,,,,,,,,,,,,,,,,,,,,,,main,2,2,1,positive,negative,j,j,1,0.7646141999866813,229.6670577999903,230.67855409998447,230.64209099998698,None,229.6670577999903,None,229.6670577999903,None,229.6670577999903,None,231.41892631999508,None,231.41892631999508,None,231.41892631999508,None,,,,,,,,,,,116,24,Female,2022-05-05_11h13.01.300,Boat,2022.1.1,59.902801713026754,
neutral,positive,2,k,k,,,,,,,,,1,9,27,13,,,,,,,,,,,,,,,,,,,,,,,,main,2,2,2,positive,neutral,k,k,1,0.9159727999940515,231.43398480000906,232.4566736999841,232.41393219999736,None,231.43398480000906,None,231.43398480000906,None,231.43398480000906,None,233.33696031999716,None,233.33696031999716,None,233.33696031999716,None,,,,,,,,,,,116,24,Female,2022-05-05_11h13.01.300,Boat,2022.1.1,59.902801713026754,
positive,negative,1,l,j,,,,,,,,,1,10,28,5,,,,,,,,,,,,,,,,,,,,,,,,main,2,2,1,negative,positive,l,l,1,0.9755823999876156,233.3537614000088,234.3622430000105,234.32627319998574,None,233.3537614000088,None,233.3537614000088,None,233.3537614000088,None,235.31546182000602,None,235.31546182000602,None,235.31546182000602,None,,,,,,,,,,,116,24,Female,2022-05-05_11h13.01.300,Boat,2022.1.1,59.902801713026754,
neutral,negative,1,k,k,,,,,,,,,1,11,29,7,,,,,,,,,,,,,,,,,,,,,,,,main,1,1,1,negative,neutral,k,k,1,0.7993842999858316,235.3308856000076,236.3307083999971,236.31441029999405,None,235.3308856000076,None,235.3308856000076,None,235.3308856000076,None,237.1175556199887,None,237.1175556199887,None,237.1175556199887,None,,,,,,,,,,,116,24,Female,2022-05-05_11h13.01.300,Boat,2022.1.1,59.902801713026754,
negative,negative,1,j,l,,,,,,,,,1,12,30,0,,,,,,,,,,,,,,,,,,,,,,,,main,1,1,1,negative,negative,j,j,1,0.7490686000091955,237.13250740000512,238.14743449998787,238.1142423999845,None,237.13250740000512,None,237.13250740000512,None,237.13250740000512,None,238.86930142001074,None,238.86930142001074,None,238.86930142001074,None,,,,,,,,,,,116,24,Female,2022-05-05_11h13.01.300,Boat,2022.1.1,59.902801713026754,
positive,neutral,1,l,j,,,,,,,,,1,13,31,8,,,,,,,,,,,,,,,,,,,,,,,,main,1,1,1,neutral,positive,l,l,1,1.644677199976286,238.88413140000193,239.8977384000027,239.880559000012,None,238.88413140000193,None,238.88413140000193,None,238.88413140000193,None,241.5203146999993,None,241.5203146999993,None,241.5203146999993,None,,,,,,,,,,,116,24,Female,2022-05-05_11h13.01.300,Boat,2022.1.1,59.902801713026754,
positive,positive,2,l,j,,,,,,,,,1,14,32,11,,,,,,,,,,,,,,,,,,,,,,,,main,1,1,2,positive,positive,l,l,1,1.0003558000025805,242.53291559999343,243.55713770000148,243.5145760999876,None,242.53291559999343,None,242.53291559999343,None,242.53291559999343,None,244.5195097199903,None,244.5195097199903,None,244.5195097199903,None,,,,,,,,,,,116,24,Female,2022-05-05_11h13.01.300,Boat,2022.1.1,59.902801713026754,
neutral,neutral,2,k,k,,,,,,,,,1,15,33,10,,,,,,,,,,,,,,,,,,,,,,,,main,2,2,2,neutral,neutral,k,k,1,0.7579327000130434,244.53470180000295,245.54559269998572,245.50947469999664,None,244.53470180000295,None,244.53470180000295,None,244.53470180000295,None,246.281366419993,None,246.281366419993,None,246.281366419993,None,,,,,,,,,,,116,24,Female,2022-05-05_11h13.01.300,Boat,2022.1.1,59.902801713026754,
positive,neutral,2,l,j,,,,,,,,,1,16,34,17,,,,,,,,,,,,,,,,,,,,,,,,main,2,2,2,neutral,positive,l,l,1,0.7836040000256617,246.29791669998667,247.30723109998507,247.28077069998835,None,246.29791669998667,None,246.29791669998667,None,246.29791669998667,None,248.06707072000427,None,248.06707072000427,None,248.06707072000427,None,,,,,,,,,,,116,24,Female,2022-05-05_11h13.01.300,Boat,2022.1.1,59.902801713026754,
negative,neutral,1,j,l,,,,,,,,,1,17,35,3,,,,,,,,,,,,,,,,,,,,,,,,main,1,1,1,neutral,negative,j,j,1,0.7262269000057131,248.08212139998795,249.09440400000312,249.05949990000227,None,248.08212139998795,None,248.08212139998795,None,248.08212139998795,None,249.79759211999772,None,249.79759211999772,None,249.79759211999772,None,,,,,,,,,,,116,24,Female,2022-05-05_11h13.01.300,Boat,2022.1.1,59.902801713026754,
neutral,positive,2,k,k,,,,,,,,,2,0,36,13,,,,,,,,,,,,,,,,,,,,,,,,main,1,1,2,positive,neutral,k,k,1,0.9674926000006963,249.81475879999925,250.8144362999883,250.7974120999861,None,249.81475879999925,None,249.81475879999925,None,249.81475879999925,None,251.76641041999392,None,251.76641041999392,None,251.76641041999392,None,,,,,,,,,,,116,24,Female,2022-05-05_11h13.01.300,Boat,2022.1.1,59.902801713026754,
negative,neutral,2,j,l,,,,,,,,,2,1,37,12,,,,,,,,,,,,,,,,,,,,,,,,main,2,2,2,neutral,negative,j,j,1,0.9680134000082035,251.781321699993,252.78077670000494,252.76442110000062,None,251.781321699993,None,251.781321699993,None,251.781321699993,None,253.73708751999948,None,253.73708751999948,None,253.73708751999948,None,,,,,,,,,,,116,24,Female,2022-05-05_11h13.01.300,Boat,2022.1.1,59.902801713026754,
negative,neutral,1,j,l,,,,,,,,,2,2,38,3,,,,,,,,,,,,,,,,,,,,,,,,main,1,1,1,neutral,negative,j,j,1,0.7282238000188954,253.75308850000147,254.77546629999415,254.73107899999013,None,253.75308850000147,None,253.75308850000147,None,253.75308850000147,None,255.46802911999112,None,255.46802911999112,None,255.46802911999112,None,,,,,,,,,,,116,24,Female,2022-05-05_11h13.01.300,Boat,2022.1.1,59.902801713026754,
positive,negative,1,l,j,,,,,,,,,2,3,39,5,,,,,,,,,,,,,,,,,,,,,,,,main,1,1,1,negative,positive,l,l,1,0.8848681999952532,255.48413450000226,256.4957299999951,256.46047660001204,None,255.48413450000226,None,255.48413450000226,None,255.48413450000226,None,257.3546900199872,None,257.3546900199872,None,257.3546900199872,None,,,,,,,,,,,116,24,Female,2022-05-05_11h13.01.300,Boat,2022.1.1,59.902801713026754,
positive,positive,2,l,j,,,,,,,,,2,4,40,11,,,,,,,,,,,,,,,,,,,,,,,,main,2,2,2,positive,positive,l,l,1,0.8232515999989118,257.36973760000546,258.3810523999855,258.3457221999997,None,257.36973760000546,None,257.36973760000546,None,257.36973760000546,None,259.1817298199894,None,259.1817298199894,None,259.1817298199894,None,,,,,,,,,,,116,24,Female,2022-05-05_11h13.01.300,Boat,2022.1.1,59.902801713026754,
positive,neutral,2,l,j,,,,,,,,,2,5,41,17,,,,,,,,,,,,,,,,,,,,,,,,main,2,2,2,neutral,positive,l,l,1,0.651983099989593,259.1983794000116,260.21396110000205,260.17732029999024,None,259.1983794000116,None,259.1983794000116,None,259.1983794000116,None,260.83500152001216,None,260.83500152001216,None,260.83500152001216,None,,,,,,,,,,,116,24,Female,2022-05-05_11h13.01.300,Boat,2022.1.1,59.902801713026754,
negative,negative,1,j,l,,,,,,,,,2,6,42,0,,,,,,,,,,,,,,,,,,,,,,,,main,2,2,1,negative,negative,j,j,1,0.7846363999997266,260.8509478000051,261.86454350000713,261.83109970000805,None,260.8509478000051,None,260.8509478000051,None,260.8509478000051,None,262.6222944200126,None,262.6222944200126,None,262.6222944200126,None,,,,,,,,,,,116,24,Female,2022-05-05_11h13.01.300,Boat,2022.1.1,59.902801713026754,
neutral,negative,2,k,k,,,,,,,,,2,7,43,16,,,,,,,,,,,,,,,,,,,,,,,,main,1,1,2,negative,neutral,k,k,1,0.7947043999738526,262.6375396999938,263.64652740000747,263.61039429999073,None,262.6375396999938,None,262.6375396999938,None,262.6375396999938,None,264.4194016200054,None,264.4194016200054,None,264.4194016200054,None,,,,,,,,,,,116,24,Female,2022-05-05_11h13.01.300,Boat,2022.1.1,59.902801713026754,
neutral,negative,1,k,k,,,,,,,,,2,8,44,7,,,,,,,,,,,,,,,,,,,,,,,,main,2,2,1,negative,neutral,k,k,1,0.7974047000170685,264.436503600009,265.4577975999855,265.412250399997,None,264.436503600009,None,264.436503600009,None,264.436503600009,None,266.2196726199909,None,266.2196726199909,None,266.2196726199909,None,,,,,,,,,,,116,24,Female,2022-05-05_11h13.01.300,Boat,2022.1.1,59.902801713026754,
positive,positive,1,l,j,,,,,,,,,2,9,45,2,,,,,,,,,,,,,,,,,,,,,,,,main,1,1,1,positive,positive,l,l,1,0.7374142999760807,266.234578100004,267.2482062999916,267.2117059000011,None,266.234578100004,None,266.234578100004,None,266.234578100004,None,267.9603354199935,None,267.9603354199935,None,267.9603354199935,None,,,,,,,,,,,116,24,Female,2022-05-05_11h13.01.300,Boat,2022.1.1,59.902801713026754,
neutral,neutral,1,k,k,,,,,,,,,2,10,46,1,,,,,,,,,,,,,,,,,,,,,,,,main,2,2,1,neutral,neutral,k,k,1,1.3731171999825165,267.98006709999754,268.9965266000072,268.9597164999868,None,267.98006709999754,None,267.98006709999754,None,267.98006709999754,None,270.33590761998494,None,270.33590761998494,None,270.33590761998494,None,,,,,,,,,,,116,24,Female,2022-05-05_11h13.01.300,Boat,2022.1.1,59.902801713026754,
negative,negative,2,j,l,,,,,,,,,2,11,47,9,,,,,,,,,,,,,,,,,,,,,,,,main,2,2,2,negative,negative,j,j,1,0.6677291999803856,270.35176079999655,271.362779099989,271.3446336000052,None,270.35176079999655,None,270.35176079999655,None,270.35176079999655,None,272.00613551998686,None,272.00613551998686,None,272.00613551998686,None,,,,,,,,,,,116,24,Female,2022-05-05_11h13.01.300,Boat,2022.1.1,59.902801713026754,
neutral,neutral,2,k,k,,,,,,,,,2,12,48,10,,,,,,,,,,,,,,,,,,,,,,,,main,2,2,2,neutral,neutral,k,k,1,0.6769617999962065,272.02172670001164,273.0309077000129,272.9959392999881,None,272.02172670001164,None,272.02172670001164,None,272.02172670001164,None,273.6854956199968,None,273.6854956199968,None,273.6854956199968,None,,,,,,,,,,,116,24,Female,2022-05-05_11h13.01.300,Boat,2022.1.1,59.902801713026754,
positive,negative,2,l,j,,,,,,,,,2,13,49,14,,,,,,,,,,,,,,,,,,,,,,,,main,2,2,2,negative,positive,l,l,1,0.6832749999884982,273.7014840999909,274.7128083999851,274.69541399998707,None,273.7014840999909,None,273.7014840999909,None,273.7014840999909,None,275.3705110199953,None,275.3705110199953,None,275.3705110199953,None,,,,,,,,,,,116,24,Female,2022-05-05_11h13.01.300,Boat,2022.1.1,59.902801713026754,
negative,positive,1,j,l,,,,,,,,,2,14,50,6,,,,,,,,,,,,,,,,,,,,,,,,main,1,1,1,positive,negative,j,j,1,0.7067679000028875,275.38641800000914,276.4095956000092,276.3647467000119,None,275.38641800000914,None,275.38641800000914,None,275.38641800000914,None,277.0819950199948,None,277.0819950199948,None,277.0819950199948,None,,,,,,,,,,,116,24,Female,2022-05-05_11h13.01.300,Boat,2022.1.1,59.902801713026754,
neutral,positive,1,k,k,,,,,,,,,2,15,51,4,,,,,,,,,,,,,,,,,,,,,,,,main,2,2,1,positive,neutral,k,k,1,0.7387693999917246,277.0989347999857,278.10799789999146,278.08295300000464,None,277.0989347999857,None,277.0989347999857,None,277.0989347999857,None,278.8225284200016,None,278.8225284200016,None,278.8225284200016,None,,,,,,,,,,,116,24,Female,2022-05-05_11h13.01.300,Boat,2022.1.1,59.902801713026754,
positive,neutral,1,l,j,,,,,,,,,2,16,52,8,,,,,,,,,,,,,,,,,,,,,,,,main,2,2,1,neutral,positive,l,l,1,0.7847299999848474,278.8375506000011,279.85937739998917,279.8145913000044,None,278.8375506000011,None,278.8375506000011,None,278.8375506000011,None,280.6096947199985,None,280.6096947199985,None,280.6096947199985,None,,,,,,,,,,,116,24,Female,2022-05-05_11h13.01.300,Boat,2022.1.1,59.902801713026754,
negative,positive,2,j,l,,,,,,,,,2,17,53,15,,,,,,,,,,,,,,,,,,,,,,,,main,2,2,2,positive,negative,j,j,1,0.774944200005848,280.629583300004,281.63163910000003,281.5982847000123,None,280.629583300004,None,280.629583300004,None,280.629583300004,None,282.38687641998695,None,282.38687641998695,None,282.38687641998695,None,,,,,,,,,,,116,24,Female,2022-05-05_11h13.01.300,Boat,2022.1.1,59.902801713026754,
positive,negative,2,l,j,,,,,,,,,3,0,54,14,,,,,,,,,,,,,,,,,,,,,,,,main,1,1,2,negative,positive,l,l,1,0.8652050000091549,282.4021791999985,283.42470400000457,283.38158990000375,None,282.4021791999985,None,282.4021791999985,None,282.4021791999985,None,284.2540889200027,None,284.2540889200027,None,284.2540889200027,None,,,,,,,,,,,116,24,Female,2022-05-05_11h13.01.300,Boat,2022.1.1,59.902801713026754,
neutral,neutral,2,k,k,,,,,,,,,3,1,55,10,,,,,,,,,,,,,,,,,,,,,,,,main,2,2,2,neutral,neutral,k,k,1,1.9706122000061441,284.27034149999963,285.28144049999537,285.24460979999276,None,284.27034149999963,None,284.27034149999963,None,284.27034149999963,None,287.2323434999853,None,287.2323434999853,None,287.2323434999853,None,,,,,,,,,,,116,24,Female,2022-05-05_11h13.01.300,Boat,2022.1.1,59.902801713026754,
neutral,positive,1,k,k,,,,,,,,,3,2,56,4,,,,,,,,,,,,,,,,,,,,,,,,main,1,1,1,positive,neutral,k,k,1,0.7495708999922499,288.2517286000075,289.2745646999974,289.2314991999883,None,288.2517286000075,None,288.2517286000075,None,288.2517286000075,None,289.9861790200084,None,289.9861790200084,None,289.9861790200084,None,,,,,,,,,,,116,24,Female,2022-05-05_11h13.01.300,Boat,2022.1.1,59.902801713026754,
neutral,neutral,1,k,k,,,,,,,,,3,3,57,1,,,,,,,,,,,,,,,,,,,,,,,,main,2,2,1,neutral,neutral,k,j,0,0.6914135999977589,290.0034786000033,291.0100916000083,290.9913929000031,None,290.0034786000033,None,290.0034786000033,None,290.0034786000033,None,291.6849396000034,None,291.6849396000034,None,291.6849396000034,None,,,,,,,,,,,116,24,Female,2022-05-05_11h13.01.300,Boat,2022.1.1,59.902801713026754,
negative,negative,2,j,l,,,,,,,,,3,4,58,9,,,,,,,,,,,,,,,,,,,,,,,,main,1,1,2,negative,negative,j,j,1,0.7111099000030663,292.6997496999975,293.7145276000083,293.6778908999986,None,292.6997496999975,None,292.6997496999975,None,292.6997496999975,None,294.39953641999455,None,294.39953641999455,None,294.39953641999455,None,,,,,,,,,,,116,24,Female,2022-05-05_11h13.01.300,Boat,2022.1.1,59.902801713026754,
negative,neutral,1,j,l,,,,,,,,,3,5,59,3,,,,,,,,,,,,,,,,,,,,,,,,main,1,1,1,neutral,negative,j,j,1,0.7945899000042118,294.4155471000122,295.4316293000011,295.39585289999377,None,294.4155471000122,None,294.4155471000122,None,294.4155471000122,None,296.19844401998853,None,296.19844401998853,None,296.19844401998853,None,,,,,,,,,,,116,24,Female,2022-05-05_11h13.01.300,Boat,2022.1.1,59.902801713026754,
neutral,negative,1,k,k,,,,,,,,,3,6,60,7,,,,,,,,,,,,,,,,,,,,,,,,main,2,2,1,negative,neutral,k,k,1,0.8293658999900799,296.21571759998915,297.23199979998753,297.1966648999951,None,296.21571759998915,None,296.21571759998915,None,296.21571759998915,None,298.0311116200028,None,298.0311116200028,None,298.0311116200028,None,,,,,,,,,,,116,24,Female,2022-05-05_11h13.01.300,Boat,2022.1.1,59.902801713026754,
negative,positive,2,j,l,,,,,,,,,3,7,61,15,,,,,,,,,,,,,,,,,,,,,,,,main,1,1,2,positive,negative,j,j,1,0.8545016999996733,298.04931470000884,299.06558029999724,299.0303682000085,None,298.04931470000884,None,298.04931470000884,None,298.04931470000884,None,299.8896066199959,None,299.8896066199959,None,299.8896066199959,None,,,,,,,,,,,116,24,Female,2022-05-05_11h13.01.300,Boat,2022.1.1,59.902801713026754,
negative,neutral,2,j,l,,,,,,,,,3,8,62,12,,,,,,,,,,,,,,,,,,,,,,,,main,2,2,2,neutral,negative,j,j,1,1.4121408000064548,299.90441240000655,300.91526229999727,300.89877090000664,None,299.90441240000655,None,299.90441240000655,None,299.90441240000655,None,302.3023062200082,None,302.3023062200082,None,302.3023062200082,None,,,,,,,,,,,116,24,Female,2022-05-05_11h13.01.300,Boat,2022.1.1,59.902801713026754,
positive,neutral,1,l,j,,,,,,,,,3,9,63,8,,,,,,,,,,,,,,,,,,,,,,,,main,1,1,1,neutral,positive,l,l,1,0.8175342000031378,302.3185474000056,303.3283128000039,303.31046599999536,None,302.3185474000056,None,302.3185474000056,None,302.3185474000056,None,304.1225689200073,None,304.1225689200073,None,304.1225689200073,None,,,,,,,,,,,116,24,Female,2022-05-05_11h13.01.300,Boat,2022.1.1,59.902801713026754,
negative,negative,1,j,l,,,,,,,,,3,10,64,0,,,,,,,,,,,,,,,,,,,,,,,,main,2,2,1,negative,negative,j,j,1,0.7621874999895226,304.13834139998653,305.1600696000096,305.11717990000034,None,304.13834139998653,None,304.13834139998653,None,304.13834139998653,None,305.8865549200127,None,305.8865549200127,None,305.8865549200127,None,,,,,,,,,,,116,24,Female,2022-05-05_11h13.01.300,Boat,2022.1.1,59.902801713026754,
neutral,negative,2,k,k,,,,,,,,,3,11,65,16,,,,,,,,,,,,,,,,,,,,,,,,main,1,1,2,negative,neutral,k,k,1,0.7619187999807764,305.9027719000005,306.92708789999597,306.8823434000078,None,305.9027719000005,None,305.9027719000005,None,305.9027719000005,None,307.65190681999957,None,307.65190681999957,None,307.65190681999957,None,,,,,,,,,,,116,24,Female,2022-05-05_11h13.01.300,Boat,2022.1.1,59.902801713026754,
positive,positive,2,l,j,,,,,,,,,3,12,66,11,,,,,,,,,,,,,,,,,,,,,,,,main,1,1,2,positive,positive,l,l,1,0.885345699993195,307.6670884999912,308.6918195000035,308.64926919998834,None,307.6670884999912,None,307.6670884999912,None,307.6670884999912,None,309.5403059199889,None,309.5403059199889,None,309.5403059199889,None,,,,,,,,,,,116,24,Female,2022-05-05_11h13.01.300,Boat,2022.1.1,59.902801713026754,
neutral,positive,2,k,k,,,,,,,,,3,13,67,13,,,,,,,,,,,,,,,,,,,,,,,,main,1,1,2,positive,neutral,k,k,1,0.8136920999968424,309.5556668000063,310.5628857999982,310.54507699998794,None,309.5556668000063,None,309.5556668000063,None,309.5556668000063,None,311.35369912000897,None,311.35369912000897,None,311.35369912000897,None,,,,,,,,,,,116,24,Female,2022-05-05_11h13.01.300,Boat,2022.1.1,59.902801713026754,
negative,positive,1,j,l,,,,,,,,,3,14,68,6,,,,,,,,,,,,,,,,,,,,,,,,main,1,1,1,positive,negative,j,j,1,0.785076600004686,311.37117329999455,312.39205100000254,312.3488604000013,None,311.37117329999455,None,311.37117329999455,None,311.37117329999455,None,313.14437892001297,None,313.14437892001297,None,313.14437892001297,None,,,,,,,,,,,116,24,Female,2022-05-05_11h13.01.300,Boat,2022.1.1,59.902801713026754,
positive,neutral,2,l,j,,,,,,,,,3,15,69,17,,,,,,,,,,,,,,,,,,,,,,,,main,1,1,2,neutral,positive,l,l,1,0.8091844999871682,313.16157860000385,314.1646719999844,314.128280200006,None,313.16157860000385,None,313.16157860000385,None,313.16157860000385,None,314.95403321999765,None,314.95403321999765,None,314.95403321999765,None,,,,,,,,,,,116,24,Female,2022-05-05_11h13.01.300,Boat,2022.1.1,59.902801713026754,
positive,positive,1,l,j,,,,,,,,,3,16,70,2,,,,,,,,,,,,,,,,,,,,,,,,main,2,2,1,positive,positive,l,l,1,0.8975157999957446,314.97010249999585,315.99216359999264,315.9490477000072,None,314.97010249999585,None,314.97010249999585,None,314.97010249999585,None,316.85400132001087,None,316.85400132001087,None,316.85400132001087,None,,,,,,,,,,,116,24,Female,2022-05-05_11h13.01.300,Boat,2022.1.1,59.902801713026754,
positive,negative,1,l,j,,,,,,,,,3,17,71,5,,,,,,,,,,,,,,,,,,,,,,,,main,2,2,1,negative,positive,l,l,1,0.7839436000213027,316.8693384999933,317.8824985999963,317.8480200000049,None,316.8693384999933,None,316.8693384999933,None,316.8693384999933,None,318.6386876200122,None,318.6386876200122,None,318.6386876200122,None,,,,,,,,,,,116,24,Female,2022-05-05_11h13.01.300,Boat,2022.1.1,59.902801713026754,
neutral,neutral,2,k,k,,,,,,,,,4,0,72,10,,,,,,,,,,,,,,,,,,,,,,,,main,2,2,2,neutral,neutral,k,k,1,0.902219600015087,318.65573170001153,319.66618450000533,319.62852629998815,None,318.65573170001153,None,318.65573170001153,None,318.65573170001153,None,320.546080420012,None,320.546080420012,None,320.546080420012,None,,,,,,,,,,,116,24,Female,2022-05-05_11h13.01.300,Boat,2022.1.1,59.902801713026754,
positive,negative,2,l,j,,,,,,,,,4,1,73,14,,,,,,,,,,,,,,,,,,,,,,,,main,1,1,2,negative,positive,l,l,1,1.2405397999973502,320.5644861999899,321.5659600000072,321.5479739999864,None,320.5644861999899,None,320.5644861999899,None,320.5644861999899,None,322.78766211999755,None,322.78766211999755,None,322.78766211999755,None,,,,,,,,,,,116,24,Female,2022-05-05_11h13.01.300,Boat,2022.1.1,59.902801713026754,
positive,negative,1,l,j,,,,,,,,,4,2,74,5,,,,,,,,,,,,,,,,,,,,,,,,main,2,2,1,negative,positive,l,l,1,0.8163499000074808,322.80298619999667,323.81604830001015,323.7821033000073,None,322.80298619999667,None,322.80298619999667,None,322.80298619999667,None,324.60648671998933,None,324.60648671998933,None,324.60648671998933,None,,,,,,,,,,,116,24,Female,2022-05-05_11h13.01.300,Boat,2022.1.1,59.902801713026754,
neutral,positive,1,k,k,,,,,,,,,4,3,75,4,,,,,,,,,,,,,,,,,,,,,,,,main,1,1,1,positive,neutral,k,k,1,0.7788735999783967,324.62193809999735,325.64210170001024,325.60021649999544,None,324.62193809999735,None,324.62193809999735,None,324.62193809999735,None,326.3879293200007,None,326.3879293200007,None,326.3879293200007,None,,,,,,,,,,,116,24,Female,2022-05-05_11h13.01.300,Boat,2022.1.1,59.902801713026754,
negative,neutral,2,j,l,,,,,,,,,4,4,76,12,,,,,,,,,,,,,,,,,,,,,,,,main,2,2,2,neutral,negative,j,j,1,0.791772900003707,326.4034066000022,327.41639840000425,327.37966989999404,None,326.4034066000022,None,326.4034066000022,None,326.4034066000022,None,328.1828626200004,None,328.1828626200004,None,328.1828626200004,None,,,,,,,,,,,116,24,Female,2022-05-05_11h13.01.300,Boat,2022.1.1,59.902801713026754,
neutral,neutral,1,k,k,,,,,,,,,4,5,77,1,,,,,,,,,,,,,,,,,,,,,,,,main,1,1,1,neutral,neutral,k,k,1,0.8358760999981314,328.19997359998524,329.21586009999737,329.18200400000205,None,328.19997359998524,None,328.19997359998524,None,328.19997359998524,None,330.0213438199862,None,330.0213438199862,None,330.0213438199862,None,,,,,,,,,,,116,24,Female,2022-05-05_11h13.01.300,Boat,2022.1.1,59.902801713026754,
negative,positive,1,j,l,,,,,,,,,4,6,78,6,,,,,,,,,,,,,,,,,,,,,,,,main,2,2,1,positive,negative,j,j,1,1.132396000000881,330.03600449999794,331.04914489999646,331.03260070001124,None,330.03600449999794,None,330.03600449999794,None,330.03600449999794,None,332.1556764200068,None,332.1556764200068,None,332.1556764200068,None,,,,,,,,,,,116,24,Female,2022-05-05_11h13.01.300,Boat,2022.1.1,59.902801713026754,
neutral,positive,2,k,k,,,,,,,,,4,7,79,13,,,,,,,,,,,,,,,,,,,,,,,,main,1,1,2,positive,neutral,k,k,1,0.8129322000022512,332.1707235999929,333.18042550000246,333.1441884000087,None,332.1707235999929,None,332.1707235999929,None,332.1707235999929,None,333.97069801999896,None,333.97069801999896,None,333.97069801999896,None,,,,,,,,,,,116,24,Female,2022-05-05_11h13.01.300,Boat,2022.1.1,59.902801713026754,
negative,negative,2,j,l,,,,,,,,,4,8,80,9,,,,,,,,,,,,,,,,,,,,,,,,main,2,2,2,negative,negative,j,j,1,1.2493168000073638,333.98639810000896,334.9992454999883,334.9822706999839,None,333.98639810000896,None,333.98639810000896,None,333.98639810000896,None,336.22221501999593,None,336.22221501999593,None,336.22221501999593,None,,,,,,,,,,,116,24,Female,2022-05-05_11h13.01.300,Boat,2022.1.1,59.902801713026754,
neutral,negative,1,k,k,,,,,,,,,4,9,81,7,,,,,,,,,,,,,,,,,,,,,,,,main,2,2,1,negative,neutral,k,k,1,0.815723200008506,336.23766720001004,337.24860789999366,337.2113866999862,None,336.23766720001004,None,336.23766720001004,None,336.23766720001004,None,338.03981832000136,None,338.03981832000136,None,338.03981832000136,None,,,,,,,,,,,116,24,Female,2022-05-05_11h13.01.300,Boat,2022.1.1,59.902801713026754,
negative,neutral,1,j,l,,,,,,,,,4,10,82,3,,,,,,,,,,,,,,,,,,,,,,,,main,1,1,1,neutral,negative,j,j,1,0.7570492000086233,338.0558962000068,339.07739759999095,339.0332502000092,None,338.0558962000068,None,338.0558962000068,None,338.0558962000068,None,339.8006676199875,None,339.8006676199875,None,339.8006676199875,None,,,,,,,,,,,116,24,Female,2022-05-05_11h13.01.300,Boat,2022.1.1,59.902801713026754,
positive,positive,1,l,j,,,,,,,,,4,11,83,2,,,,,,,,,,,,,,,,,,,,,,,,main,1,1,1,positive,positive,l,l,1,0.9175763999810442,339.81646820000606,340.8261353999842,340.79945849999785,None,339.81646820000606,None,339.81646820000606,None,339.81646820000606,None,341.7196226199885,None,341.7196226199885,None,341.7196226199885,None,,,,,,,,,,,116,24,Female,2022-05-05_11h13.01.300,Boat,2022.1.1,59.902801713026754,
negative,negative,1,j,l,,,,,,,,,4,12,84,0,,,,,,,,,,,,,,,,,,,,,,,,main,2,2,1,negative,negative,j,j,1,0.7136704000004102,341.735794600012,342.74781000000075,342.7121516999905,None,341.735794600012,None,341.735794600012,None,341.735794600012,None,343.43643782001163,None,343.43643782001163,None,343.43643782001163,None,,,,,,,,,,,116,24,Female,2022-05-05_11h13.01.300,Boat,2022.1.1,59.902801713026754,
neutral,negative,2,k,k,,,,,,,,,4,13,85,16,,,,,,,,,,,,,,,,,,,,,,,,main,1,1,2,negative,neutral,k,k,1,0.6704673999920487,343.452707199991,344.4668376999907,344.4329927999934,None,343.452707199991,None,343.452707199991,None,343.452707199991,None,345.1106525199866,None,345.1106525199866,None,345.1106525199866,None,,,,,,,,,,,116,24,Female,2022-05-05_11h13.01.300,Boat,2022.1.1,59.902801713026754,
negative,positive,2,j,l,,,,,,,,,4,14,86,15,,,,,,,,,,,,,,,,,,,,,,,,main,1,1,2,positive,negative,j,j,1,0.7701859000080731,345.1282726000063,346.1369757000066,346.1004014000064,None,345.1282726000063,None,345.1282726000063,None,345.1282726000063,None,346.88320371999,None,346.88320371999,None,346.88320371999,None,,,,,,,,,,,116,24,Female,2022-05-05_11h13.01.300,Boat,2022.1.1,59.902801713026754,
positive,neutral,2,l,j,,,,,,,,,4,15,87,17,,,,,,,,,,,,,,,,,,,,,,,,main,1,1,2,neutral,positive,l,l,1,0.8028618000098504,346.89995560000534,347.90075969998725,347.88287989998935,None,346.89995560000534,None,346.89995560000534,None,346.89995560000534,None,348.6893366199947,None,348.6893366199947,None,348.6893366199947,None,,,,,,,,,,,116,24,Female,2022-05-05_11h13.01.300,Boat,2022.1.1,59.902801713026754,
positive,neutral,1,l,j,,,,,,,,,4,16,88,8,,,,,,,,,,,,,,,,,,,,,,,,main,1,1,1,neutral,positive,l,l,1,0.8955608000105713,348.704169500008,349.7165176999988,349.6996979000105,None,348.704169500008,None,348.704169500008,None,348.704169500008,None,350.5870707199938,None,350.5870707199938,None,350.5870707199938,None,,,,,,,,,,,116,24,Female,2022-05-05_11h13.01.300,Boat,2022.1.1,59.902801713026754,
positive,positive,2,l,j,,,,,,,,,4,17,89,11,,,,,,,,,,,,,,,,,,,,,,,,main,2,2,2,positive,positive,l,l,1,0.8809382999897934,350.6040888999996,351.626171299984,351.58326939999824,None,350.6040888999996,None,350.6040888999996,None,350.6040888999996,None,352.47107601999596,None,352.47107601999596,None,352.47107601999596,None,,,,,,,,,,,116,24,Female,2022-05-05_11h13.01.300,Boat,2022.1.1,59.902801713026754,
neutral,positive,1,k,k,,,,,,,,,5,0,90,4,,,,,,,,,,,,,,,,,,,,,,,,main,1,1,1,positive,neutral,k,k,1,1.0403016000054777,352.48696959999506,353.5091656000004,353.46647569999914,None,352.48696959999506,None,352.48696959999506,None,352.48696959999506,None,354.5151394200075,None,354.5151394200075,None,354.5151394200075,None,,,,,,,,,,,116,24,Female,2022-05-05_11h13.01.300,Boat,2022.1.1,59.902801713026754,
neutral,positive,2,k,k,,,,,,,,,5,1,91,13,,,,,,,,,,,,,,,,,,,,,,,,main,1,1,2,positive,neutral,k,k,1,0.7381240999966394,354.5335114999907,355.54730539998855,355.5110513000109,None,354.5335114999907,None,354.5335114999907,None,354.5335114999907,None,356.2548689200048,None,356.2548689200048,None,356.2548689200048,None,,,,,,,,,,,116,24,Female,2022-05-05_11h13.01.300,Boat,2022.1.1,59.902801713026754,
negative,negative,1,j,l,,,,,,,,,5,2,92,0,,,,,,,,,,,,,,,,,,,,,,,,main,2,2,1,negative,negative,j,j,1,0.7661102999991272,356.2700717000116,357.2834198999917,357.2499506000022,None,356.2700717000116,None,356.2700717000116,None,356.2700717000116,None,358.023262519986,None,358.023262519986,None,358.023262519986,None,,,,,,,,,,,116,24,Female,2022-05-05_11h13.01.300,Boat,2022.1.1,59.902801713026754,
positive,positive,2,l,j,,,,,,,,,5,3,93,11,,,,,,,,,,,,,,,,,,,,,,,,main,1,1,2,positive,positive,l,l,1,0.8325783000036608,358.03856119999546,359.04469429998426,359.0261879999889,None,358.03856119999546,None,358.03856119999546,None,358.03856119999546,None,359.8573087199911,None,359.8573087199911,None,359.8573087199911,None,,,,,,,,,,,116,24,Female,2022-05-05_11h13.01.300,Boat,2022.1.1,59.902801713026754,
neutral,neutral,1,k,k,,,,,,,,,5,4,94,1,,,,,,,,,,,,,,,,,,,,,,,,main,2,2,1,neutral,neutral,k,k,1,0.8586340000038035,359.8747269999876,360.89328379998915,360.85024050000357,None,359.8747269999876,None,359.8747269999876,None,359.8747269999876,None,361.7170470199926,None,361.7170470199926,None,361.7170470199926,None,,,,,,,,,,,116,24,Female,2022-05-05_11h13.01.300,Boat,2022.1.1,59.902801713026754,
positive,negative,1,l,j,,,,,,,,,5,5,95,5,,,,,,,,,,,,,,,,,,,,,,,,main,2,2,1,negative,positive,l,l,1,0.8305934999953024,361.73555959999794,362.7603450999886,362.71675719998893,None,361.73555959999794,None,361.73555959999794,None,361.73555959999794,None,363.5524575199961,None,363.5524575199961,None,363.5524575199961,None,,,,,,,,,,,116,24,Female,2022-05-05_11h13.01.300,Boat,2022.1.1,59.902801713026754,
positive,positive,1,l,j,,,,,,,,,5,6,96,2,,,,,,,,,,,,,,,,,,,,,,,,main,2,2,1,positive,positive,l,l,1,1.0054857999784872,363.5691208000062,364.57833809999283,364.5597793000052,None,363.5691208000062,None,363.5691208000062,None,363.5691208000062,None,365.5610496199952,None,365.5610496199952,None,365.5610496199952,None,,,,,,,,,,,116,24,Female,2022-05-05_11h13.01.300,Boat,2022.1.1,59.902801713026754,
negative,positive,2,j,l,,,,,,,,,5,7,97,15,,,,,,,,,,,,,,,,,,,,,,,,main,2,2,2,positive,negative,j,j,1,0.9540552999824286,365.5768182000029,366.59336949998396,366.5502659000049,None,365.5768182000029,None,365.5768182000029,None,365.5768182000029,None,367.5182003200025,None,367.5182003200025,None,367.5182003200025,None,,,,,,,,,,,116,24,Female,2022-05-05_11h13.01.300,Boat,2022.1.1,59.902801713026754,
positive,neutral,2,l,j,,,,,,,,,5,8,98,17,,,,,,,,,,,,,,,,,,,,,,,,main,2,2,2,neutral,positive,l,l,1,0.8901921999931801,367.53377680000267,368.54981659998884,368.5334742999985,None,367.53377680000267,None,367.53377680000267,None,367.53377680000267,None,369.41115272000025,None,369.41115272000025,None,369.41115272000025,None,,,,,,,,,,,116,24,Female,2022-05-05_11h13.01.300,Boat,2022.1.1,59.902801713026754,
positive,negative,2,l,j,,,,,,,,,5,9,99,14,,,,,,,,,,,,,,,,,,,,,,,,main,2,2,2,negative,positive,l,l,1,0.8093878999934532,369.4302056999877,370.43234450000455,370.41429419998894,None,369.4302056999877,None,369.4302056999877,None,369.4302056999877,None,371.2218314199854,None,371.2218314199854,None,371.2218314199854,None,,,,,,,,,,,116,24,Female,2022-05-05_11h13.01.300,Boat,2022.1.1,59.902801713026754,
negative,negative,2,j,l,,,,,,,,,5,10,100,9,,,,,,,,,,,,,,,,,,,,,,,,main,1,1,2,negative,negative,j,l,0,-0.636718199995812,371.2381222000113,None,None,None,371.2381222000113,None,371.2381222000113,None,371.2381222000113,None,371.59764600000926,None,371.59764600000926,None,371.59764600000926,None,,,,,,,,,,,116,24,Female,2022-05-05_11h13.01.300,Boat,2022.1.1,59.902801713026754,
negative,positive,1,j,l,,,,,,,,,5,11,101,6,,,,,,,,,,,,,,,,,,,,,,,,main,2,2,1,positive,negative,j,j,1,1.0132888999942224,374.6186095000012,375.6313097999955,375.6132699000009,None,374.6186095000012,None,374.6186095000012,None,374.6186095000012,None,376.6176293199969,None,376.6176293199969,None,376.6176293199969,None,,,,,,,,,,,116,24,Female,2022-05-05_11h13.01.300,Boat,2022.1.1,59.902801713026754,
positive,neutral,1,l,j,,,,,,,,,5,12,102,8,,,,,,,,,,,,,,,,,,,,,,,,main,2,2,1,neutral,positive,l,l,1,0.8851718000078108,376.6353977000108,377.65014730000985,377.61436360000516,None,376.6353977000108,None,376.6353977000108,None,376.6353977000108,None,378.504807920006,None,378.504807920006,None,378.504807920006,None,,,,,,,,,,,116,24,Female,2022-05-05_11h13.01.300,Boat,2022.1.1,59.902801713026754,
neutral,neutral,2,k,k,,,,,,,,,5,13,103,10,,,,,,,,,,,,,,,,,,,,,,,,main,1,1,2,neutral,neutral,k,k,1,0.959594299987657,378.5233619000064,379.5437169999932,379.50051139999414,None,378.5233619000064,None,378.5233619000064,None,378.5233619000064,None,380.46938961998967,None,380.46938961998967,None,380.46938961998967,None,,,,,,,,,,,116,24,Female,2022-05-05_11h13.01.300,Boat,2022.1.1,59.902801713026754,
negative,neutral,2,j,l,,,,,,,,,5,14,104,12,,,,,,,,,,,,,,,,,,,,,,,,main,1,1,2,neutral,negative,j,j,1,1.2859008999948855,380.48462840000866,381.5003202999942,381.46400169999106,None,380.48462840000866,None,380.48462840000866,None,380.48462840000866,None,382.7574578199856,None,382.7574578199856,None,382.7574578199856,None,,,,,,,,,,,116,24,Female,2022-05-05_11h13.01.300,Boat,2022.1.1,59.902801713026754,
negative,neutral,1,j,l,,,,,,,,,5,15,105,3,,,,,,,,,,,,,,,,,,,,,,,,main,2,2,1,neutral,negative,j,j,1,0.7759753999998793,382.7732512000075,383.79342219998944,383.7504460999917,None,382.7732512000075,None,382.7732512000075,None,382.7732512000075,None,384.535984119997,None,384.535984119997,None,384.535984119997,None,,,,,,,,,,,116,24,Female,2022-05-05_11h13.01.300,Boat,2022.1.1,59.902801713026754,
neutral,negative,1,k,k,,,,,,,,,5,16,106,7,,,,,,,,,,,,,,,,,,,,,,,,main,1,1,1,negative,neutral,k,k,1,0.8637867999786977,384.5511036000098,385.5507379999908,385.5342391000013,None,384.5511036000098,None,384.5511036000098,None,384.5511036000098,None,386.4024366199883,None,386.4024366199883,None,386.4024366199883,None,,,,,,,,,,,116,24,Female,2022-05-05_11h13.01.300,Boat,2022.1.1,59.902801713026754,
neutral,negative,2,k,k,,,,,,,,,5,17,107,16,,,,,,,,,,,,,,,,,,,,,,,,main,2,2,2,negative,neutral,k,k,1,1.0944349000055809,386.4181307000108,387.42721319998964,387.42721319998964,None,386.4181307000108,None,386.4181307000108,None,386.4181307000108,None,388.5004993199982,None,388.5004993199982,None,388.5004993199982,None,,,,,,,,,,,116,24,Female,2022-05-05_11h13.01.300,Boat,2022.1.1,59.902801713026754,
positive,positive,1,l,j,,,,,,,,,6,0,108,2,,,,,,,,,,,,,,,,,,,,,,,,main,1,1,1,positive,positive,l,l,1,0.9016180000035092,388.51737069999217,389.5174823999987,389.50117860001046,None,388.51737069999217,None,388.51737069999217,None,388.51737069999217,None,390.40290631998505,None,390.40290631998505,None,390.40290631998505,None,,,,,,,,,,,116,24,Female,2022-05-05_11h13.01.300,Boat,2022.1.1,59.902801713026754,
neutral,negative,1,k,k,,,,,,,,,6,1,109,7,,,,,,,,,,,,,,,,,,,,,,,,main,2,2,1,negative,neutral,k,k,1,0.9754170999804046,390.42448590000276,391.44561950000934,391.40062770000077,None,390.42448590000276,None,390.42448590000276,None,390.42448590000276,None,392.38269251999736,None,392.38269251999736,None,392.38269251999736,None,,,,,,,,,,,116,24,Female,2022-05-05_11h13.01.300,Boat,2022.1.1,59.902801713026754,
neutral,neutral,1,k,k,,,,,,,,,6,2,110,1,,,,,,,,,,,,,,,,,,,,,,,,main,1,1,1,neutral,neutral,k,k,1,0.8243403999949805,392.4017815999978,393.427314200002,393.384035199997,None,392.4017815999978,None,392.4017815999978,None,392.4017815999978,None,394.21215381998627,None,394.21215381998627,None,394.21215381998627,None,,,,,,,,,,,116,24,Female,2022-05-05_11h13.01.300,Boat,2022.1.1,59.902801713026754,
neutral,neutral,2,k,k,,,,,,,,,6,3,111,10,,,,,,,,,,,,,,,,,,,,,,,,main,2,2,2,neutral,neutral,k,k,1,0.8227690999920014,394.23236039999756,395.2484625999932,395.2133526999969,None,394.23236039999756,None,394.23236039999756,None,394.23236039999756,None,396.0367986199999,None,396.0367986199999,None,396.0367986199999,None,,,,,,,,,,,116,24,Female,2022-05-05_11h13.01.300,Boat,2022.1.1,59.902801713026754,
positive,neutral,1,l,j,,,,,,,,,6,4,112,8,,,,,,,,,,,,,,,,,,,,,,,,main,2,2,1,neutral,positive,l,l,1,0.8968357999983709,396.05213500000536,397.0678587000002,397.03388339999947,None,396.05213500000536,None,396.05213500000536,None,396.05213500000536,None,397.93637801999284,None,397.93637801999284,None,397.93637801999284,None,,,,,,,,,,,116,24,Female,2022-05-05_11h13.01.300,Boat,2022.1.1,59.902801713026754,
negative,negative,2,j,l,,,,,,,,,6,5,113,9,,,,,,,,,,,,,,,,,,,,,,,,main,1,1,2,negative,negative,j,j,1,1.0616325999726541,397.9518026000005,398.9674381999939,398.9324280000001,None,397.9518026000005,None,397.9518026000005,None,397.9518026000005,None,400.0017671199894,None,400.0017671199894,None,400.0017671199894,None,,,,,,,,,,,116,24,Female,2022-05-05_11h13.01.300,Boat,2022.1.1,59.902801713026754,
neutral,positive,2,k,k,,,,,,,,,6,6,114,13,,,,,,,,,,,,,,,,,,,,,,,,main,1,1,2,positive,neutral,k,k,1,0.9011311000213027,400.0181112999853,401.03199660000973,400.9964958000055,None,400.0181112999853,None,400.0181112999853,None,400.0181112999853,None,401.90559272000974,None,401.90559272000974,None,401.90559272000974,None,,,,,,,,,,,116,24,Female,2022-05-05_11h13.01.300,Boat,2022.1.1,59.902801713026754,
negative,neutral,1,j,l,,,,,,,,,6,7,115,3,,,,,,,,,,,,,,,,,,,,,,,,main,2,2,1,neutral,negative,j,j,1,0.7465304000070319,401.9222238000075,402.9331722999923,402.8968782000011,None,401.9222238000075,None,401.9222238000075,None,401.9222238000075,None,403.65490032000525,None,403.65490032000525,None,403.65490032000525,None,,,,,,,,,,,116,24,Female,2022-05-05_11h13.01.300,Boat,2022.1.1,59.902801713026754,
positive,negative,2,l,j,,,,,,,,,6,8,116,14,,,,,,,,,,,,,,,,,,,,,,,,main,1,1,2,negative,positive,l,l,1,0.9489948999835178,403.669987900008,404.69417470000917,404.64957499998854,None,403.669987900008,None,403.669987900008,None,403.669987900008,None,405.6058715199906,None,405.6058715199906,None,405.6058715199906,None,,,,,,,,,,,116,24,Female,2022-05-05_11h13.01.300,Boat,2022.1.1,59.902801713026754,
negative,neutral,2,j,l,,,,,,,,,6,9,117,12,,,,,,,,,,,,,,,,,,,,,,,,main,1,1,2,neutral,negative,j,j,1,0.8144202000112273,405.62041289999615,406.63095729998895,406.61314969998784,None,405.62041289999615,None,405.62041289999615,None,405.62041289999615,None,407.42261531999975,None,407.42261531999975,None,407.42261531999975,None,,,,,,,,,,,116,24,Female,2022-05-05_11h13.01.300,Boat,2022.1.1,59.902801713026754,
positive,positive,2,l,j,,,,,,,,,6,10,118,11,,,,,,,,,,,,,,,,,,,,,,,,main,2,2,2,positive,positive,l,l,1,0.7987575999868568,407.4385404000059,408.46078319998924,408.41775389999384,None,407.4385404000059,None,407.4385404000059,None,407.4385404000059,None,409.22282531998644,None,409.22282531998644,None,409.22282531998644,None,,,,,,,,,,,116,24,Female,2022-05-05_11h13.01.300,Boat,2022.1.1,59.902801713026754,
negative,negative,1,j,l,,,,,,,,,6,11,119,0,,,,,,,,,,,,,,,,,,,,,,,,main,2,2,1,negative,negative,j,j,1,0.7749125999980606,409.24119589998736,410.2611406999931,410.21801330000744,None,409.24119589998736,None,409.24119589998736,None,409.24119589998736,None,411.00244892000046,None,411.00244892000046,None,411.00244892000046,None,,,,,,,,,,,116,24,Female,2022-05-05_11h13.01.300,Boat,2022.1.1,59.902801713026754,
negative,positive,1,j,l,,,,,,,,,6,12,120,6,,,,,,,,,,,,,,,,,,,,,,,,main,2,2,1,positive,negative,j,j,1,1.672063399979379,411.0174681000062,412.0308451000019,412.0126077999885,None,411.0174681000062,None,411.0174681000062,None,411.0174681000062,None,413.68360600000597,None,413.68360600000597,None,413.68360600000597,None,,,,,,,,,,,116,24,Female,2022-05-05_11h13.01.300,Boat,2022.1.1,59.902801713026754,
neutral,positive,1,k,k,,,,,,,,,6,13,121,4,,,,,,,,,,,,,,,,,,,,,,,,main,2,2,1,positive,neutral,k,k,1,0.9666328000021167,414.7045233999961,415.7187401000119,415.68236050000996,None,414.7045233999961,None,414.7045233999961,None,414.7045233999961,None,416.656397519997,None,416.656397519997,None,416.656397519997,None,,,,,,,,,,,116,24,Female,2022-05-05_11h13.01.300,Boat,2022.1.1,59.902801713026754,
positive,neutral,2,l,j,,,,,,,,,6,14,122,17,,,,,,,,,,,,,,,,,,,,,,,,main,2,2,2,neutral,positive,l,l,1,0.9305212999752257,416.67279330000747,417.69426560000284,417.6512509000022,None,416.67279330000747,None,416.67279330000747,None,416.67279330000747,None,418.5894114200055,None,418.5894114200055,None,418.5894114200055,None,,,,,,,,,,,116,24,Female,2022-05-05_11h13.01.300,Boat,2022.1.1,59.902801713026754,
positive,negative,1,l,j,,,,,,,,,6,15,123,5,,,,,,,,,,,,,,,,,,,,,,,,main,1,1,1,negative,positive,l,l,1,0.9128677000117023,418.60450429999037,419.6297033999872,419.5848826000001,None,418.60450429999037,None,418.60450429999037,None,418.60450429999037,None,420.50437831999443,None,420.50437831999443,None,420.50437831999443,None,,,,,,,,,,,116,24,Female,2022-05-05_11h13.01.300,Boat,2022.1.1,59.902801713026754,
negative,positive,2,j,l,,,,,,,,,6,16,124,15,,,,,,,,,,,,,,,,,,,,,,,,main,2,2,2,positive,negative,j,j,1,0.8353301000024658,420.5206532999873,421.5344882000063,421.49837169999955,None,420.5206532999873,None,420.5206532999873,None,420.5206532999873,None,422.3417958200007,None,422.3417958200007,None,422.3417958200007,None,,,,,,,,,,,116,24,Female,2022-05-05_11h13.01.300,Boat,2022.1.1,59.902801713026754,
neutral,negative,2,k,k,,,,,,,,,6,17,125,16,,,,,,,,,,,,,,,,,,,,,,,,main,2,2,2,negative,neutral,k,k,1,0.7940522000135388,422.3616105999972,423.3780785999843,423.3350468999997,None,422.3616105999972,None,422.3616105999972,None,422.3616105999972,None,424.1397419200075,None,424.1397419200075,None,424.1397419200075,None,,,,,,,,,,,116,24,Female,2022-05-05_11h13.01.300,Boat,2022.1.1,59.902801713026754,
neutral,negative,1,k,k,,,,,,,,,7,0,126,7,,,,,,,,,,,,,,,,,,,,,,,,main,2,2,1,negative,neutral,k,k,1,1.1135782999917865,424.15626250000787,425.1677483000094,425.13124190000235,None,424.15626250000787,None,424.15626250000787,None,424.15626250000787,None,426.2560568199988,None,426.2560568199988,None,426.2560568199988,None,,,,,,,,,,,116,24,Female,2022-05-05_11h13.01.300,Boat,2022.1.1,59.902801713026754,
negative,positive,1,j,l,,,,,,,,,7,1,127,6,,,,,,,,,,,,,,,,,,,,,,,,main,2,2,1,positive,negative,j,j,1,0.8252171000058297,426.2722109000024,427.2845818999922,427.24912200000836,None,426.2722109000024,None,426.2722109000024,None,426.2722109000024,None,428.0846819199942,None,428.0846819199942,None,428.0846819199942,None,,,,,,,,,,,116,24,Female,2022-05-05_11h13.01.300,Boat,2022.1.1,59.902801713026754,
neutral,positive,2,k,k,,,,,,,,,7,2,128,13,,,,,,,,,,,,,,,,,,,,,,,,main,2,2,2,positive,neutral,k,k,1,0.7363603999838233,428.1000427000108,429.1115542000043,429.0847885000112,None,428.1000427000108,None,428.1000427000108,None,428.1000427000108,None,429.8213808199944,None,429.8213808199944,None,429.8213808199944,None,,,,,,,,,,,116,24,Female,2022-05-05_11h13.01.300,Boat,2022.1.1,59.902801713026754,
positive,negative,1,l,j,,,,,,,,,7,3,129,5,,,,,,,,,,,,,,,,,,,,,,,,main,2,2,1,negative,positive,l,l,1,0.8315300999965984,429.8386833000113,430.8610086000117,430.82005360000767,None,429.8386833000113,None,429.8386833000113,None,429.8386833000113,None,431.65698752000753,None,431.65698752000753,None,431.65698752000753,None,,,,,,,,,,,116,24,Female,2022-05-05_11h13.01.300,Boat,2022.1.1,59.902801713026754,
positive,positive,1,l,j,,,,,,,,,7,4,130,2,,,,,,,,,,,,,,,,,,,,,,,,main,1,1,1,positive,positive,l,l,1,0.8405953999899793,431.6740964000055,432.68491730000824,432.6516711000004,None,431.6740964000055,None,431.6740964000055,None,431.6740964000055,None,433.50184142000217,None,433.50184142000217,None,433.50184142000217,None,,,,,,,,,,,116,24,Female,2022-05-05_11h13.01.300,Boat,2022.1.1,59.902801713026754,
positive,neutral,1,l,j,,,,,,,,,7,5,131,8,,,,,,,,,,,,,,,,,,,,,,,,main,1,1,1,neutral,positive,l,l,1,0.7700480000057723,433.51896009998745,434.53367879998405,434.5160314000095,None,433.51896009998745,None,433.51896009998745,None,433.51896009998745,None,435.27293901999656,None,435.27293901999656,None,435.27293901999656,None,,,,,,,,,,,116,24,Female,2022-05-05_11h13.01.300,Boat,2022.1.1,59.902801713026754,
negative,neutral,1,j,l,,,,,,,,,7,6,132,3,,,,,,,,,,,,,,,,,,,,,,,,main,2,2,1,neutral,negative,j,j,1,0.8480841999989934,435.2894618999853,436.29823449999094,436.26302569999825,None,435.2894618999853,None,435.2894618999853,None,435.2894618999853,None,437.1238600200013,None,437.1238600200013,None,437.1238600200013,None,,,,,,,,,,,116,24,Female,2022-05-05_11h13.01.300,Boat,2022.1.1,59.902801713026754,
neutral,negative,2,k,k,,,,,,,,,7,7,133,16,,,,,,,,,,,,,,,,,,,,,,,,main,2,2,2,negative,neutral,k,k,1,0.6436332000012044,437.13969189999625,438.1512592000072,438.115764999995,None,437.13969189999625,None,437.13969189999625,None,437.13969189999625,None,438.7704463199916,None,438.7704463199916,None,438.7704463199916,None,,,,,,,,,,,116,24,Female,2022-05-05_11h13.01.300,Boat,2022.1.1,59.902801713026754,
negative,neutral,2,j,l,,,,,,,,,7,8,134,12,,,,,,,,,,,,,,,,,,,,,,,,main,1,1,2,neutral,negative,j,l,0,0.7499675999861211,438.78641169998446,439.8014288000122,439.76536150000175,None,438.78641169998446,None,438.78641169998446,None,438.78641169998446,None,440.52634829998715,None,440.52634829998715,None,440.52634829998715,None,,,,,,,,,,,116,24,Female,2022-05-05_11h13.01.300,Boat,2022.1.1,59.902801713026754,
negative,negative,1,j,l,,,,,,,,,7,9,135,0,,,,,,,,,,,,,,,,,,,,,,,,main,1,1,1,negative,negative,j,j,1,0.7511402999807615,441.5370971999946,442.53704870000365,442.52018799999496,None,441.5370971999946,None,441.5370971999946,None,441.5370971999946,None,443.2737906199909,None,443.2737906199909,None,443.2737906199909,None,,,,,,,,,,,116,24,Female,2022-05-05_11h13.01.300,Boat,2022.1.1,59.902801713026754,
positive,negative,2,l,j,,,,,,,,,7,10,136,14,,,,,,,,,,,,,,,,,,,,,,,,main,1,1,2,negative,positive,l,l,1,0.6959686000191141,443.29083829998854,444.300914499996,444.26473689998966,None,443.29083829998854,None,443.29083829998854,None,443.29083829998854,None,444.9738417199842,None,444.9738417199842,None,444.9738417199842,None,,,,,,,,,,,116,24,Female,2022-05-05_11h13.01.300,Boat,2022.1.1,59.902801713026754,
neutral,neutral,2,k,k,,,,,,,,,7,11,137,10,,,,,,,,,,,,,,,,,,,,,,,,main,1,1,2,neutral,neutral,k,k,1,0.8642847000155598,444.98908629998914,446.01200630000676,445.96876180000254,None,444.98908629998914,None,444.98908629998914,None,444.98908629998914,None,446.840960120011,None,446.840960120011,None,446.840960120011,None,,,,,,,,,,,116,24,Female,2022-05-05_11h13.01.300,Boat,2022.1.1,59.902801713026754,
negative,positive,2,j,l,,,,,,,,,7,12,138,15,,,,,,,,,,,,,,,,,,,,,,,,main,2,2,2,positive,negative,j,j,1,1.0750355999916792,446.8573861999903,447.87984680000227,447.83521140000084,None,446.8573861999903,None,446.8573861999903,None,446.8573861999903,None,448.9191089199885,None,448.9191089199885,None,448.9191089199885,None,,,,,,,,,,,116,24,Female,2022-05-05_11h13.01.300,Boat,2022.1.1,59.902801713026754,
neutral,neutral,1,k,k,,,,,,,,,7,13,139,1,,,,,,,,,,,,,,,,,,,,,,,,main,1,1,1,neutral,neutral,k,k,1,0.8009472999838181,448.93708309999784,449.9620691000018,449.91897450000397,None,448.93708309999784,None,448.93708309999784,None,448.93708309999784,None,450.723664420002,None,450.723664420002,None,450.723664420002,None,,,,,,,,,,,116,24,Female,2022-05-05_11h13.01.300,Boat,2022.1.1,59.902801713026754,
neutral,positive,1,k,k,,,,,,,,,7,14,140,4,,,,,,,,,,,,,,,,,,,,,,,,main,1,1,1,positive,neutral,k,k,1,0.9653757000050973,450.7384231000033,451.7496516999963,451.7318617000128,None,450.7384231000033,None,450.7384231000033,None,450.7384231000033,None,452.69130851999216,None,452.69130851999216,None,452.69130851999216,None,,,,,,,,,,,116,24,Female,2022-05-05_11h13.01.300,Boat,2022.1.1,59.902801713026754,
positive,neutral,2,l,j,,,,,,,,,7,15,141,17,,,,,,,,,,,,,,,,,,,,,,,,main,1,1,2,neutral,positive,l,l,1,0.9970680999977048,452.70648029999575,453.719101900002,453.68478660000255,None,452.70648029999575,None,452.70648029999575,None,452.70648029999575,None,454.6906900199974,None,454.6906900199974,None,454.6906900199974,None,,,,,,,,,,,116,24,Female,2022-05-05_11h13.01.300,Boat,2022.1.1,59.902801713026754,
positive,positive,2,l,j,,,,,,,,,7,16,142,11,,,,,,,,,,,,,,,,,,,,,,,,main,2,2,2,positive,positive,l,l,1,1.0289317999850027,454.70803569999407,455.71905539999716,455.68563469999935,None,454.70803569999407,None,454.70803569999407,None,454.70803569999407,None,456.72178032000375,None,456.72178032000375,None,456.72178032000375,None,,,,,,,,,,,116,24,Female,2022-05-05_11h13.01.300,Boat,2022.1.1,59.902801713026754,
negative,negative,2,j,l,,,,,,,,,7,17,143,9,,,,,,,,,,,,,,,,,,,,,,,,main,1,1,2,negative,negative,j,j,1,0.9159711000102106,456.736846099986,457.76221119999536,457.7186876999913,None,456.736846099986,None,456.736846099986,None,456.736846099986,None,458.64035032001266,None,458.64035032001266,None,458.64035032001266,None,,,,,,,,,,,116,24,Female,2022-05-05_11h13.01.300,Boat,2022.1.1,59.902801713026754,
neutral,neutral,1,k,k,,,,,,,,,8,0,144,1,,,,,,,,,,,,,,,,,,,,,,,,main,2,2,1,neutral,neutral,k,k,1,0.8473288000095636,458.6559863000002,459.6788699000026,459.634224599984,None,458.6559863000002,None,458.6559863000002,None,458.6559863000002,None,460.49025622000045,None,460.49025622000045,None,460.49025622000045,None,,,,,,,,,,,116,24,Female,2022-05-05_11h13.01.300,Boat,2022.1.1,59.902801713026754,
positive,negative,1,l,j,,,,,,,,,8,1,145,5,,,,,,,,,,,,,,,,,,,,,,,,main,2,2,1,negative,positive,l,l,1,0.9678533999831416,460.50556590000633,461.51880590000656,461.48192729998846,None,460.50556590000633,None,460.50556590000633,None,460.50556590000633,None,462.4602255200007,None,462.4602255200007,None,462.4602255200007,None,,,,,,,,,,,116,24,Female,2022-05-05_11h13.01.300,Boat,2022.1.1,59.902801713026754,
positive,negative,2,l,j,,,,,,,,,8,2,146,14,,,,,,,,,,,,,,,,,,,,,,,,main,1,1,2,negative,positive,l,l,1,0.773976099997526,462.47984670000733,463.4842241999868,463.44852569999057,None,462.47984670000733,None,462.47984670000733,None,462.47984670000733,None,464.2369112199958,None,464.2369112199958,None,464.2369112199958,None,,,,,,,,,,,116,24,Female,2022-05-05_11h13.01.300,Boat,2022.1.1,59.902801713026754,
neutral,neutral,2,k,k,,,,,,,,,8,3,147,10,,,,,,,,,,,,,,,,,,,,,,,,main,1,1,2,neutral,neutral,k,j,0,0.8614672999829054,464.2527246999962,465.26881469998625,465.232992300007,None,464.2527246999962,None,464.2527246999962,None,464.2527246999962,None,466.1052112999896,None,466.1052112999896,None,466.1052112999896,None,,,,,,,,,,,116,24,Female,2022-05-05_11h13.01.300,Boat,2022.1.1,59.902801713026754,
positive,positive,2,l,j,,,,,,,,,8,4,148,11,,,,,,,,,,,,,,,,,,,,,,,,main,2,2,2,positive,positive,l,l,1,1.0355597999878228,467.1207426000037,468.13591270000325,468.10207150000497,None,467.1207426000037,None,467.1207426000037,None,467.1207426000037,None,469.14169341999514,None,469.14169341999514,None,469.14169341999514,None,,,,,,,,,,,116,24,Female,2022-05-05_11h13.01.300,Boat,2022.1.1,59.902801713026754,
negative,negative,2,j,l,,,,,,,,,8,5,149,9,,,,,,,,,,,,,,,,,,,,,,,,main,1,1,2,negative,negative,j,j,1,0.691533300006995,469.1577835000062,470.18017479998525,470.1359288000094,None,469.1577835000062,None,469.1577835000062,None,469.1577835000062,None,470.8375281199842,None,470.8375281199842,None,470.8375281199842,None,,,,,,,,,,,116,24,Female,2022-05-05_11h13.01.300,Boat,2022.1.1,59.902801713026754,
positive,neutral,1,l,j,,,,,,,,,8,6,150,8,,,,,,,,,,,,,,,,,,,,,,,,main,2,2,1,neutral,positive,l,l,1,1.0336508999753278,470.8538389999885,471.87056710000616,471.8360099999991,None,470.8538389999885,None,470.8538389999885,None,470.8538389999885,None,472.8740163199982,None,472.8740163199982,None,472.8740163199982,None,,,,,,,,,,,116,24,Female,2022-05-05_11h13.01.300,Boat,2022.1.1,59.902801713026754,
neutral,negative,2,k,k,,,,,,,,,8,7,151,16,,,,,,,,,,,,,,,,,,,,,,,,main,2,2,2,negative,neutral,k,k,1,0.7971194999990985,472.8888689999876,473.90280989999883,473.8680150999862,None,472.8888689999876,None,472.8888689999876,None,472.8888689999876,None,474.6731332199852,None,474.6731332199852,None,474.6731332199852,None,,,,,,,,,,,116,24,Female,2022-05-05_11h13.01.300,Boat,2022.1.1,59.902801713026754,
negative,neutral,2,j,l,,,,,,,,,8,8,152,12,,,,,,,,,,,,,,,,,,,,,,,,main,2,2,2,neutral,negative,j,j,1,0.7919362999964505,474.68901959998766,475.7126505000051,475.6677079999936,None,474.68901959998766,None,474.68901959998766,None,474.68901959998766,None,476.4693005200097,None,476.4693005200097,None,476.4693005200097,None,,,,,,,,,,,116,24,Female,2022-05-05_11h13.01.300,Boat,2022.1.1,59.902801713026754,
negative,positive,2,j,l,,,,,,,,,8,9,153,15,,,,,,,,,,,,,,,,,,,,,,,,main,1,1,2,positive,negative,j,j,1,0.7414256999909412,476.48593220001203,477.4858559999848,477.469131299993,None,476.48593220001203,None,476.48593220001203,None,476.48593220001203,None,478.2144028199982,None,478.2144028199982,None,478.2144028199982,None,,,,,,,,,,,116,24,Female,2022-05-05_11h13.01.300,Boat,2022.1.1,59.902801713026754,
neutral,positive,2,k,k,,,,,,,,,8,10,154,13,,,,,,,,,,,,,,,,,,,,,,,,main,1,1,2,positive,neutral,k,k,1,0.974970300012501,478.2320141000091,479.2361508999893,479.2017412999994,None,478.2320141000091,None,478.2320141000091,None,478.2320141000091,None,480.18972231999214,None,480.18972231999214,None,480.18972231999214,None,,,,,,,,,,,116,24,Female,2022-05-05_11h13.01.300,Boat,2022.1.1,59.902801713026754,
positive,positive,1,l,j,,,,,,,,,8,11,155,2,,,,,,,,,,,,,,,,,,,,,,,,main,2,2,1,positive,positive,l,l,1,0.8672835000033956,480.20487539999885,481.23087530001067,481.18587789998855,None,480.20487539999885,None,480.20487539999885,None,480.20487539999885,None,482.05912991998775,None,482.05912991998775,None,482.05912991998775,None,,,,,,,,,,,116,24,Female,2022-05-05_11h13.01.300,Boat,2022.1.1,59.902801713026754,
negative,neutral,1,j,l,,,,,,,,,8,12,156,3,,,,,,,,,,,,,,,,,,,,,,,,main,1,1,1,neutral,negative,j,j,1,0.9788828000018839,482.075153999991,483.0956583000079,483.05297150000115,None,482.075153999991,None,482.075153999991,None,482.075153999991,None,484.040320420012,None,484.040320420012,None,484.040320420012,None,,,,,,,,,,,116,24,Female,2022-05-05_11h13.01.300,Boat,2022.1.1,59.902801713026754,
neutral,positive,1,k,k,,,,,,,,,8,13,157,4,,,,,,,,,,,,,,,,,,,,,,,,main,1,1,1,positive,neutral,k,j,0,0.697748300008243,484.0570240000088,485.07003729999997,485.036354699987,None,484.0570240000088,None,484.0570240000088,None,484.0570240000088,None,485.74837769998703,None,485.74837769998703,None,485.74837769998703,None,,,,,,,,,,,116,24,Female,2022-05-05_11h13.01.300,Boat,2022.1.1,59.902801713026754,
negative,positive,1,j,l,,,,,,,,,8,14,158,6,,,,,,,,,,,,,,,,,,,,,,,,main,1,1,1,positive,negative,j,j,1,0.9523193000059109,486.7545220000029,487.76951220000046,487.7330365999951,None,486.7545220000029,None,486.7545220000029,None,486.7545220000029,None,488.69426291999116,None,488.69426291999116,None,488.69426291999116,None,,,,,,,,,,,116,24,Female,2022-05-05_11h13.01.300,Boat,2022.1.1,59.902801713026754,
neutral,negative,1,k,k,,,,,,,,,8,15,159,7,,,,,,,,,,,,,,,,,,,,,,,,main,1,1,1,negative,neutral,k,k,1,0.8484634000051301,488.7094686999917,489.7309577999986,489.7130012999987,None,488.7094686999917,None,488.7094686999917,None,488.7094686999917,None,490.5428016199876,None,490.5428016199876,None,490.5428016199876,None,,,,,,,,,,,116,24,Female,2022-05-05_11h13.01.300,Boat,2022.1.1,59.902801713026754,
positive,neutral,2,l,j,,,,,,,,,8,16,160,17,,,,,,,,,,,,,,,,,,,,,,,,main,1,1,2,neutral,positive,l,l,1,0.9458099999756087,490.5596964999859,491.5793648000108,491.5361746000126,None,490.5596964999859,None,490.5596964999859,None,490.5596964999859,None,492.49225871999806,None,492.49225871999806,None,492.49225871999806,None,,,,,,,,,,,116,24,Female,2022-05-05_11h13.01.300,Boat,2022.1.1,59.902801713026754,
negative,negative,1,j,l,,,,,,,,,8,17,161,0,,,,,,,,,,,,,,,,,,,,,,,,main,1,1,1,negative,negative,j,j,1,1.2809105000051204,492.50792519998504,493.51649059998454,493.48088519999874,None,492.50792519998504,None,492.50792519998504,None,492.50792519998504,None,494.77584972001205,None,494.77584972001205,None,494.77584972001205,None,,,,,,,,,,,116,24,Female,2022-05-05_11h13.01.300,Boat,2022.1.1,59.902801713026754,
negative,positive,2,j,l,,,,,,,,,9,0,162,15,,,,,,,,,,,,,,,,,,,,,,,,main,1,1,2,positive,negative,j,j,1,0.8289821000071242,494.79105949998484,495.80329829998664,495.7675518000033,None,494.79105949998484,None,494.79105949998484,None,494.79105949998484,None,496.60712732000684,None,496.60712732000684,None,496.60712732000684,None,,,,,,,,,,,116,24,Female,2022-05-05_11h13.01.300,Boat,2022.1.1,59.902801713026754,
positive,neutral,2,l,j,,,,,,,,,9,1,163,17,,,,,,,,,,,,,,,,,,,,,,,,main,2,2,2,neutral,positive,l,l,1,0.9708051000197884,496.62204339998425,497.6363440999994,497.6026417000103,None,496.62204339998425,None,496.62204339998425,None,496.62204339998425,None,498.58125331999327,None,498.58125331999327,None,498.58125331999327,None,,,,,,,,,,,116,24,Female,2022-05-05_11h13.01.300,Boat,2022.1.1,59.902801713026754,
negative,neutral,2,j,l,,,,,,,,,9,2,164,12,,,,,,,,,,,,,,,,,,,,,,,,main,2,2,2,neutral,negative,j,j,1,1.3287196999881417,498.5998617000005,499.60281119999127,499.56813080000575,None,498.5998617000005,None,498.5998617000005,None,498.5998617000005,None,500.9097596199863,None,500.9097596199863,None,500.9097596199863,None,,,,,,,,,,,116,24,Female,2022-05-05_11h13.01.300,Boat,2022.1.1,59.902801713026754,
neutral,neutral,1,k,k,,,,,,,,,9,3,165,1,,,,,,,,,,,,,,,,,,,,,,,,main,1,1,1,neutral,neutral,k,k,1,1.012396300007822,500.9259357000119,501.94638139999006,501.90330179999,None,500.9259357000119,None,500.9259357000119,None,500.9259357000119,None,502.92609882001125,None,502.92609882001125,None,502.92609882001125,None,,,,,,,,,,,116,24,Female,2022-05-05_11h13.01.300,Boat,2022.1.1,59.902801713026754,
neutral,negative,1,k,k,,,,,,,,,9,4,166,7,,,,,,,,,,,,,,,,,,,,,,,,main,2,2,1,negative,neutral,k,k,1,0.9484916999936104,502.94191399999545,503.9528752999904,503.9161907999951,None,502.94191399999545,None,502.94191399999545,None,502.94191399999545,None,504.87779072001285,None,504.87779072001285,None,504.87779072001285,None,,,,,,,,,,,116,24,Female,2022-05-05_11h13.01.300,Boat,2022.1.1,59.902801713026754,
positive,neutral,1,l,j,,,,,,,,,9,5,167,8,,,,,,,,,,,,,,,,,,,,,,,,main,2,2,1,neutral,positive,l,l,1,0.928465499979211,504.8929033000022,505.914583100006,505.8961491000082,None,504.8929033000022,None,504.8929033000022,None,504.8929033000022,None,506.8081381200027,None,506.8081381200027,None,506.8081381200027,None,,,,,,,,,,,116,24,Female,2022-05-05_11h13.01.300,Boat,2022.1.1,59.902801713026754,
neutral,positive,2,k,k,,,,,,,,,9,6,168,13,,,,,,,,,,,,,,,,,,,,,,,,main,2,2,2,positive,neutral,k,k,1,1.017574599973159,506.8253415999934,507.8464759000053,507.8032096000097,None,506.8253415999934,None,506.8253415999934,None,506.8253415999934,None,508.8286577199906,None,508.8286577199906,None,508.8286577199906,None,,,,,,,,,,,116,24,Female,2022-05-05_11h13.01.300,Boat,2022.1.1,59.902801713026754,
positive,negative,1,l,j,,,,,,,,,9,7,169,5,,,,,,,,,,,,,,,,,,,,,,,,main,2,2,1,negative,positive,l,l,1,0.9943796999868937,508.84756349999225,509.8536369999929,509.8172396000009,None,508.84756349999225,None,508.84756349999225,None,508.84756349999225,None,510.8244458199915,None,510.8244458199915,None,510.8244458199915,None,,,,,,,,,,,116,24,Female,2022-05-05_11h13.01.300,Boat,2022.1.1,59.902801713026754,
neutral,positive,1,k,k,,,,,,,,,9,8,170,4,,,,,,,,,,,,,,,,,,,,,,,,main,2,2,1,positive,neutral,k,k,1,0.7306090999918524,510.8408042000083,511.8649642000091,511.8190340999863,None,510.8408042000083,None,510.8408042000083,None,510.8408042000083,None,512.557833719984,None,512.557833719984,None,512.557833719984,None,,,,,,,,,,,116,24,Female,2022-05-05_11h13.01.300,Boat,2022.1.1,59.902801713026754,
negative,positive,1,j,l,,,,,,,,,9,9,171,6,,,,,,,,,,,,,,,,,,,,,,,,main,2,2,1,positive,negative,j,j,1,0.7255270000023302,512.5733033999859,513.5878246999928,513.5537006999948,None,512.5733033999859,None,512.5733033999859,None,512.5733033999859,None,514.2874995200109,None,514.2874995200109,None,514.2874995200109,None,,,,,,,,,,,116,24,Female,2022-05-05_11h13.01.300,Boat,2022.1.1,59.902801713026754,
negative,negative,1,j,l,,,,,,,,,9,10,172,0,,,,,,,,,,,,,,,,,,,,,,,,main,2,2,1,negative,negative,j,j,1,0.7535368999815546,514.303906199988,515.313750500005,515.2700626000005,None,514.303906199988,None,514.303906199988,None,514.303906199988,None,516.043295519994,None,516.043295519994,None,516.043295519994,None,,,,,,,,,,,116,24,Female,2022-05-05_11h13.01.300,Boat,2022.1.1,59.902801713026754,
negative,negative,2,j,l,,,,,,,,,9,11,173,9,,,,,,,,,,,,,,,,,,,,,,,,main,2,2,2,negative,negative,j,j,1,1.0466848999785725,516.057718600001,517.070570299984,517.036826399999,None,516.057718600001,None,516.057718600001,None,516.057718600001,None,518.0922319200035,None,518.0922319200035,None,518.0922319200035,None,,,,,,,,,,,116,24,Female,2022-05-05_11h13.01.300,Boat,2022.1.1,59.902801713026754,
neutral,neutral,2,k,k,,,,,,,,,9,12,174,10,,,,,,,,,,,,,,,,,,,,,,,,main,1,1,2,neutral,neutral,k,k,1,0.6972308000258636,518.107276900002,519.1199617999955,519.0842559000012,None,518.107276900002,None,518.107276900002,None,518.107276900002,None,519.7917301200068,None,519.7917301200068,None,519.7917301200068,None,,,,,,,,,,,116,24,Female,2022-05-05_11h13.01.300,Boat,2022.1.1,59.902801713026754,
negative,neutral,1,j,l,,,,,,,,,9,13,175,3,,,,,,,,,,,,,,,,,,,,,,,,main,2,2,1,neutral,negative,j,j,1,0.7662529999797698,519.8067495999858,520.830303099996,520.7870962999878,None,519.8067495999858,None,519.8067495999858,None,519.8067495999858,None,521.5607089199912,None,521.5607089199912,None,521.5607089199912,None,,,,,,,,,,,116,24,Female,2022-05-05_11h13.01.300,Boat,2022.1.1,59.902801713026754,
positive,negative,2,l,j,,,,,,,,,9,14,176,14,,,,,,,,,,,,,,,,,,,,,,,,main,2,2,2,negative,positive,l,l,1,1.3658845000027213,521.5756914000085,522.5864763999998,522.56850329999,None,521.5756914000085,None,521.5756914000085,None,521.5756914000085,None,523.926849119991,None,523.926849119991,None,523.926849119991,None,,,,,,,,,,,116,24,Female,2022-05-05_11h13.01.300,Boat,2022.1.1,59.902801713026754,
positive,positive,1,l,j,,,,,,,,,9,15,177,2,,,,,,,,,,,,,,,,,,,,,,,,main,2,2,1,positive,positive,l,l,1,1.810566900006961,523.9461523999926,524.9539560000121,524.9345758999989,None,523.9461523999926,None,523.9461523999926,None,523.9461523999926,None,526.7482192000025,None,526.7482192000025,None,526.7482192000025,None,,,,,,,,,,,116,24,Female,2022-05-05_11h13.01.300,Boat,2022.1.1,59.902801713026754,
positive,positive,2,l,j,,,,,,,,,9,16,178,11,,,,,,,,,,,,,,,,,,,,,,,,main,1,1,2,positive,positive,l,l,1,0.6435147000011057,527.7551518999971,528.7798257000104,528.7370063999842,None,527.7551518999971,None,527.7551518999971,None,527.7551518999971,None,529.3871182199946,None,529.3871182199946,None,529.3871182199946,None,,,,,,,,,,,116,24,Female,2022-05-05_11h13.01.300,Boat,2022.1.1,59.902801713026754,
neutral,negative,2,k,k,,,,,,,,,9,17,179,16,,,,,,,,,,,,,,,,,,,,,,,,main,2,2,2,negative,neutral,k,k,1,0.763180400012061,529.4038184999954,530.4034664999926,530.3872876999958,None,529.4038184999954,None,529.4038184999954,None,529.4038184999954,None,531.1542213199864,None,531.1542213199864,None,531.1542213199864,None,,,,,,,,,,,116,24,Female,2022-05-05_11h13.01.300,Boat,2022.1.1,59.902801713026754,
negative,positive,1,j,l,,,,,,,,,10,0,180,6,,,,,,,,,,,,,,,,,,,,,,,,main,2,2,1,positive,negative,j,j,1,0.7676530000171624,531.1712862999993,532.1875062999898,532.169214900001,None,531.1712862999993,None,531.1712862999993,None,531.1712862999993,None,532.923442120009,None,532.923442120009,None,532.923442120009,None,,,,,,,,,,,116,24,Female,2022-05-05_11h13.01.300,Boat,2022.1.1,59.902801713026754,
positive,positive,1,l,j,,,,,,,,,10,1,181,2,,,,,,,,,,,,,,,,,,,,,,,,main,1,1,1,positive,positive,l,l,1,1.0668351000058465,532.940920699999,533.9524550999922,533.9161107999971,None,532.940920699999,None,532.940920699999,None,532.940920699999,None,534.9927548199921,None,534.9927548199921,None,534.9927548199921,None,,,,,,,,,,,116,24,Female,2022-05-05_11h13.01.300,Boat,2022.1.1,59.902801713026754,
negative,neutral,1,j,l,,,,,,,,,10,2,182,3,,,,,,,,,,,,,,,,,,,,,,,,main,2,2,1,neutral,negative,j,j,1,0.8134232000156771,535.0086275000067,536.0302117000101,535.9874625999946,None,535.0086275000067,None,535.0086275000067,None,535.0086275000067,None,536.8078450200119,None,536.8078450200119,None,536.8078450200119,None,,,,,,,,,,,116,24,Female,2022-05-05_11h13.01.300,Boat,2022.1.1,59.902801713026754,
neutral,neutral,2,k,k,,,,,,,,,10,3,183,10,,,,,,,,,,,,,,,,,,,,,,,,main,2,2,2,neutral,neutral,k,k,1,0.6828831000020728,536.8244070000073,537.8346799999999,537.7984793999931,None,536.8244070000073,None,536.8244070000073,None,536.8244070000073,None,538.494946220002,None,538.494946220002,None,538.494946220002,None,,,,,,,,,,,116,24,Female,2022-05-05_11h13.01.300,Boat,2022.1.1,59.902801713026754,
positive,neutral,1,l,j,,,,,,,,,10,4,184,8,,,,,,,,,,,,,,,,,,,,,,,,main,1,1,1,neutral,positive,l,l,1,0.944447299989406,538.509874499985,539.5307513999869,539.5038995000068,None,538.509874499985,None,538.509874499985,None,538.509874499985,None,540.4409549200063,None,540.4409549200063,None,540.4409549200063,None,,,,,,,,,,,116,24,Female,2022-05-05_11h13.01.300,Boat,2022.1.1,59.902801713026754,
negative,negative,1,j,l,,,,,,,,,10,5,185,0,,,,,,,,,,,,,,,,,,,,,,,,main,1,1,1,negative,negative,j,j,1,0.9002806999778841,540.4552618000016,541.4707299000002,541.4539884999976,None,540.4552618000016,None,540.4552618000016,None,540.4552618000016,None,542.3433153199876,None,542.3433153199876,None,542.3433153199876,None,,,,,,,,,,,116,24,Female,2022-05-05_11h13.01.300,Boat,2022.1.1,59.902801713026754,
neutral,negative,2,k,k,,,,,,,,,10,6,186,16,,,,,,,,,,,,,,,,,,,,,,,,main,2,2,2,negative,neutral,k,k,1,0.7458497999759857,542.3600069000095,543.3821428999945,543.3370952999976,None,542.3600069000095,None,542.3600069000095,None,542.3600069000095,None,544.0914791200048,None,544.0914791200048,None,544.0914791200048,None,,,,,,,,,,,116,24,Female,2022-05-05_11h13.01.300,Boat,2022.1.1,59.902801713026754,
neutral,positive,2,k,k,,,,,,,,,10,7,187,13,,,,,,,,,,,,,,,,,,,,,,,,main,2,2,2,positive,neutral,k,,0,1.7978917999716941,544.1062721000053,545.1208213999926,545.0851656000013,None,544.1062721000053,None,544.1062721000053,None,544.1062721000053,None,546.8991957000108,None,546.8991957000108,None,546.8991957000108,None,,,,,,,,,,,116,24,Female,2022-05-05_11h13.01.300,Boat,2022.1.1,59.902801713026754,
positive,positive,2,l,j,,,,,,,,,10,8,188,11,,,,,,,,,,,,,,,,,,,,,,,,main,1,1,2,positive,positive,l,l,1,0.8678944999992382,547.9056736000057,548.9304058999987,548.8873634999909,None,547.9056736000057,None,547.9056736000057,None,547.9056736000057,None,549.7581474199978,None,549.7581474199978,None,549.7581474199978,None,,,,,,,,,,,116,24,Female,2022-05-05_11h13.01.300,Boat,2022.1.1,59.902801713026754,
neutral,negative,1,k,k,,,,,,,,,10,9,189,7,,,,,,,,,,,,,,,,,,,,,,,,main,2,2,1,negative,neutral,k,k,1,0.7278211000084411,549.7772154000122,550.7875350000104,550.7512929000077,None,549.7772154000122,None,549.7772154000122,None,549.7772154000122,None,551.4910065200093,None,551.4910065200093,None,551.4910065200093,None,,,,,,,,,,,116,24,Female,2022-05-05_11h13.01.300,Boat,2022.1.1,59.902801713026754,
negative,neutral,2,j,l,,,,,,,,,10,10,190,12,,,,,,,,,,,,,,,,,,,,,,,,main,1,1,2,neutral,negative,j,j,1,0.8491952999902423,551.5071931999992,552.5203166999854,552.4845092000032,None,551.5071931999992,None,551.5071931999992,None,551.5071931999992,None,553.3416774200014,None,553.3416774200014,None,553.3416774200014,None,,,,,,,,,,,116,24,Female,2022-05-05_11h13.01.300,Boat,2022.1.1,59.902801713026754,
negative,negative,2,j,l,,,,,,,,,10,11,191,9,,,,,,,,,,,,,,,,,,,,,,,,main,2,2,2,negative,negative,j,j,1,0.6629068000183906,553.3578238000046,554.3805920000013,554.3374629000027,None,553.3578238000046,None,553.3578238000046,None,553.3578238000046,None,555.0068375200062,None,555.0068375200062,None,555.0068375200062,None,,,,,,,,,,,116,24,Female,2022-05-05_11h13.01.300,Boat,2022.1.1,59.902801713026754,
negative,positive,2,j,l,,,,,,,,,10,12,192,15,,,,,,,,,,,,,,,,,,,,,,,,main,1,1,2,positive,negative,j,j,1,0.6501996999722905,555.0236739999964,556.0350943999947,555.9999931000057,None,555.0236739999964,None,555.0236739999964,None,555.0236739999964,None,556.6607179200073,None,556.6607179200073,None,556.6607179200073,None,,,,,,,,,,,116,24,Female,2022-05-05_11h13.01.300,Boat,2022.1.1,59.902801713026754,
neutral,neutral,1,k,k,,,,,,,,,10,13,193,1,,,,,,,,,,,,,,,,,,,,,,,,main,2,2,1,neutral,neutral,k,k,1,0.6981535000086296,556.6754038000072,557.6989687999885,557.6543228999944,None,556.6754038000072,None,556.6754038000072,None,556.6754038000072,None,558.3607588200102,None,558.3607588200102,None,558.3607588200102,None,,,,,,,,,,,116,24,Female,2022-05-05_11h13.01.300,Boat,2022.1.1,59.902801713026754,
positive,negative,1,l,j,,,,,,,,,10,14,194,5,,,,,,,,,,,,,,,,,,,,,,,,main,2,2,1,negative,positive,l,l,1,0.8779655999969691,558.3763524999958,559.3893720000051,559.3527655999933,None,558.3763524999958,None,558.3763524999958,None,558.3763524999958,None,560.2407758199988,None,560.2407758199988,None,560.2407758199988,None,,,,,,,,,,,116,24,Female,2022-05-05_11h13.01.300,Boat,2022.1.1,59.902801713026754,
neutral,positive,1,k,k,,,,,,,,,10,15,195,4,,,,,,,,,,,,,,,,,,,,,,,,main,2,2,1,positive,neutral,k,k,1,0.9145122999907471,560.2568417000002,561.2807570000004,561.2381874999846,None,560.2568417000002,None,560.2568417000002,None,560.2568417000002,None,562.1581940199976,None,562.1581940199976,None,562.1581940199976,None,,,,,,,,,,,116,24,Female,2022-05-05_11h13.01.300,Boat,2022.1.1,59.902801713026754,
positive,neutral,2,l,j,,,,,,,,,10,16,196,17,,,,,,,,,,,,,,,,,,,,,,,,main,2,2,2,neutral,positive,l,l,1,0.7439103999931831,562.173218699987,563.1854904000065,563.1494726999954,None,562.173218699987,None,562.173218699987,None,562.173218699987,None,563.9044795200025,None,563.9044795200025,None,563.9044795200025,None,,,,,,,,,,,116,24,Female,2022-05-05_11h13.01.300,Boat,2022.1.1,59.902801713026754,
positive,negative,2,l,j,,,,,,,,,10,17,197,14,,,,,,,,,,,,,,,,,,,,,,,,main,2,2,2,negative,positive,l,l,1,1.2494656999770086,563.9213391999947,564.937606499996,564.9018313999986,None,563.9213391999947,None,563.9213391999947,None,563.9213391999947,None,566.1563626199932,None,566.1563626199932,None,566.1563626199932,None,,,,,,,,,,,116,24,Female,2022-05-05_11h13.01.300,Boat,2022.1.1,59.902801713026754,
negative,negative,1,j,l,,,,,,,,,11,0,198,0,,,,,,,,,,,,,,,,,,,,,,,,main,1,1,1,negative,negative,j,j,1,0.8811423000006471,566.172638899996,567.1988546999928,567.1539308000065,None,566.172638899996,None,566.172638899996,None,566.172638899996,None,568.0407314199983,None,568.0407314199983,None,568.0407314199983,None,,,,,,,,,,,116,24,Female,2022-05-05_11h13.01.300,Boat,2022.1.1,59.902801713026754,
positive,negative,2,l,j,,,,,,,,,11,1,199,14,,,,,,,,,,,,,,,,,,,,,,,,main,2,2,2,negative,positive,l,l,1,0.8671176999923773,568.0565762000042,569.0717942999909,569.0356246999872,None,568.0565762000042,None,568.0565762000042,None,568.0565762000042,None,569.9091748199862,None,569.9091748199862,None,569.9091748199862,None,,,,,,,,,,,116,24,Female,2022-05-05_11h13.01.300,Boat,2022.1.1,59.902801713026754,
neutral,neutral,2,k,k,,,,,,,,,11,2,200,10,,,,,,,,,,,,,,,,,,,,,,,,main,1,1,2,neutral,neutral,k,k,1,0.7903448000142816,569.9286507999932,570.9327072000015,570.9144935999939,None,569.9286507999932,None,569.9286507999932,None,569.9286507999932,None,571.7048750200047,None,571.7048750200047,None,571.7048750200047,None,,,,,,,,,,,116,24,Female,2022-05-05_11h13.01.300,Boat,2022.1.1,59.902801713026754,
positive,positive,1,l,j,,,,,,,,,11,3,201,2,,,,,,,,,,,,,,,,,,,,,,,,main,1,1,1,positive,positive,l,l,1,0.8678732999833301,571.721566799999,572.7213763000036,572.7049209999968,None,571.721566799999,None,571.721566799999,None,571.721566799999,None,573.5747354199848,None,573.5747354199848,None,573.5747354199848,None,,,,,,,,,,,116,24,Female,2022-05-05_11h13.01.300,Boat,2022.1.1,59.902801713026754,
neutral,positive,1,k,k,,,,,,,,,11,4,202,4,,,,,,,,,,,,,,,,,,,,,,,,main,1,1,1,positive,neutral,k,k,1,1.083663900004467,573.5911345999921,574.6019858999935,574.5843347999908,None,573.5911345999921,None,573.5911345999921,None,573.5911345999921,None,575.6604858199862,None,575.6604858199862,None,575.6604858199862,None,,,,,,,,,,,116,24,Female,2022-05-05_11h13.01.300,Boat,2022.1.1,59.902801713026754,
positive,positive,2,l,j,,,,,,,,,11,5,203,11,,,,,,,,,,,,,,,,,,,,,,,,main,1,1,2,positive,positive,l,l,1,0.864354400022421,575.675422100001,576.6977597000077,576.6713136000035,None,575.675422100001,None,575.675422100001,None,575.675422100001,None,577.526771919991,None,577.526771919991,None,577.526771919991,None,,,,,,,,,,,116,24,Female,2022-05-05_11h13.01.300,Boat,2022.1.1,59.902801713026754,
negative,neutral,1,j,l,,,,,,,,,11,6,204,3,,,,,,,,,,,,,,,,,,,,,,,,main,1,1,1,neutral,negative,j,j,1,0.9786719999974594,577.5422820000094,578.5547165999888,578.52143600001,None,577.5422820000094,None,577.5422820000094,None,577.5422820000094,None,579.5087038199854,None,579.5087038199854,None,579.5087038199854,None,,,,,,,,,,,116,24,Female,2022-05-05_11h13.01.300,Boat,2022.1.1,59.902801713026754,
neutral,negative,2,k,k,,,,,,,,,11,7,205,16,,,,,,,,,,,,,,,,,,,,,,,,main,2,2,2,negative,neutral,k,k,1,0.7598064000194427,579.5230723999848,580.5383913000114,580.5216928999871,None,579.5230723999848,None,579.5230723999848,None,579.5230723999848,None,581.2717736199993,None,581.2717736199993,None,581.2717736199993,None,,,,,,,,,,,116,24,Female,2022-05-05_11h13.01.300,Boat,2022.1.1,59.902801713026754,
positive,negative,1,l,j,,,,,,,,,11,8,206,5,,,,,,,,,,,,,,,,,,,,,,,,main,1,1,1,negative,positive,l,l,1,0.8957491999899503,581.2884833999851,582.2981765999866,582.2551467999874,None,581.2884833999851,None,581.2884833999851,None,581.2884833999851,None,583.1702353200089,None,583.1702353200089,None,583.1702353200089,None,,,,,,,,,,,116,24,Female,2022-05-05_11h13.01.300,Boat,2022.1.1,59.902801713026754,
