target,distractor,set,ans1,ans2,rep_loop2.thisRepN,rep_loop2.thisTrialN,rep_loop2.thisN,rep_loop2.thisIndex,flanker_prac_loop.thisRepN,flanker_prac_loop.thisTrialN,flanker_prac_loop.thisN,flanker_prac_loop.thisIndex,flanker_main_loop.thisRepN,flanker_main_loop.thisTrialN,flanker_main_loop.thisN,flanker_main_loop.thisIndex,fl_inst_resp.keys,mouse.x,mouse.y,mouse.leftButton,mouse.midButton,mouse.rightButton,mouse.started,mouse.stopped,sound_1.started,sound_1.stopped,no_text.started,no_text.stopped,yes_text.started,yes_text.stopped,mouse_2.x,mouse_2.y,mouse_2.leftButton,mouse_2.midButton,mouse_2.rightButton,mouse_2.started,mouse_2.stopped,back_2.started,back_2.stopped,main_prac,fl_cold,fl_colt,fl_set,fl_dcond,fl_tcond,fl_ans,fl_res,fl_corr,fl_rt,fix_fl.started,fix_fl.stopped,targ.started,targ.stopped,j_button.started,j_button.stopped,k_button.started,k_button.stopped,l_button.started,l_button.stopped,j_button2.started,j_button2.stopped,k_button2.started,k_button2.stopped,l_button2.started,l_button2.stopped,mainback.started,mainback.stopped,key_resp.keys,mouse_6.x,mouse_6.y,mouse_6.leftButton,mouse_6.midButton,mouse_6.rightButton,mouse_6.started,mouse_6.stopped,id*,age*,gender*,date,expName,psychopyVersion,frameRate,
,,,,,0,0,0,0,,,,,,,,,None,-0.039814815,-0.4148148,0,0,0,1.0176160506671295,None,28.29755589000415,None,78.55081169999903,None,78.55081169999903,None,-0.11296296,-0.08611111,0,0,0,0.013391889980994165,None,,,,,,,,,,,,,,,,,,,,,,,,,,,,,,,,,,,,,,,117,22,Female,2022-05-05_14h08.08.084,Boat,2022.1.1,59.87848260921227,
positive,negative,2,l,j,,,,,0,0,0,14,,,,,,,,,,,,,,,,,,,,,,,,,,86.38148390001152,None,prac,1,1,2,negative,positive,j,j,1,1.8396778000169434,88.41129280001041,89.43018230001326,89.38911109999754,None,88.41129280001041,None,88.41129280001041,None,88.41129280001041,None,91.24220169999171,None,91.24220169999171,None,91.24220169999171,None,,,,,,,,,,,117,22,Female,2022-05-05_14h08.08.084,Boat,2022.1.1,59.87848260921227,
positive,positive,2,l,j,,,,,0,1,1,11,,,,,,,,,,,,,,,,,,,,,,,,,,,,prac,2,2,2,positive,positive,j,j,1,0.8341120000113733,92.25536229999852,93.2798696999962,93.23478769999929,None,92.25536229999852,None,92.25536229999852,None,92.25536229999852,None,94.07647909001098,None,94.07647909001098,None,94.07647909001098,None,,,,,,,,,,,117,22,Female,2022-05-05_14h08.08.084,Boat,2022.1.1,59.87848260921227,
neutral,negative,1,k,k,,,,,0,2,2,7,,,,,,,,,,,,,,,,,,,,,,,,,,,,prac,1,1,1,negative,neutral,k,k,1,0.7615631000080612,94.09177240001736,95.11387669999385,95.06967779999832,None,94.09177240001736,None,94.09177240001736,None,94.09177240001736,None,95.84036579001695,None,95.84036579001695,None,95.84036579001695,None,,,,,,,,,,,117,22,Female,2022-05-05_14h08.08.084,Boat,2022.1.1,59.87848260921227,
neutral,neutral,1,k,k,,,,,0,3,3,1,,,,,,,,,,,,,,,,,,,,,,,,,,,,prac,1,1,1,neutral,neutral,k,k,1,0.7435117999848444,95.85662700000103,96.87065680001979,96.83475660000113,None,95.85662700000103,None,95.85662700000103,None,95.85662700000103,None,97.58680048999376,None,97.58680048999376,None,97.58680048999376,None,,,,,,,,,,,117,22,Female,2022-05-05_14h08.08.084,Boat,2022.1.1,59.87848260921227,
negative,neutral,1,j,l,,,,,0,4,4,3,,,,,,,,,,,,,,,,,,,,,,,,,,,,prac,2,2,1,neutral,negative,l,l,1,0.8196191999886651,97.60405080000055,98.6202639999974,98.5829474000202,None,97.60405080000055,None,97.60405080000055,None,97.60405080000055,None,99.40803329001646,None,99.40803329001646,None,99.40803329001646,None,,,,,,,,,,,117,22,Female,2022-05-05_14h08.08.084,Boat,2022.1.1,59.87848260921227,
negative,negative,2,j,l,,,,,0,5,5,9,,,,,,,,,,,,,,,,,,,,,,,,,,,,prac,2,2,2,negative,negative,l,l,1,0.8497512999747414,99.42389530001674,100.43565470000613,100.40040840001893,None,99.42389530001674,None,99.42389530001674,None,99.42389530001674,None,101.25869929000037,None,101.25869929000037,None,101.25869929000037,None,,,,,,,,,,,117,22,Female,2022-05-05_14h08.08.084,Boat,2022.1.1,59.87848260921227,
positive,positive,1,l,j,,,,,0,6,6,2,,,,,,,,,,,,,,,,,,,,,,,,,,,,prac,2,2,1,positive,positive,j,j,1,0.9399745000118855,101.27839950000634,102.29712580001797,102.25428330001887,None,101.27839950000634,None,101.27839950000634,None,101.27839950000634,None,103.20426698999363,None,103.20426698999363,None,103.20426698999363,None,,,,,,,,,,,117,22,Female,2022-05-05_14h08.08.084,Boat,2022.1.1,59.87848260921227,
neutral,neutral,2,k,k,,,,,0,7,7,10,,,,,,,,,,,,,,,,,,,,,,,,,,,,prac,2,2,2,neutral,neutral,k,k,1,0.6886136000102852,103.21875659999205,104.23233280002023,104.21412439999403,None,103.21875659999205,None,103.21875659999205,None,103.21875659999205,None,104.89395378999761,None,104.89395378999761,None,104.89395378999761,None,,,,,,,,,,,117,22,Female,2022-05-05_14h08.08.084,Boat,2022.1.1,59.87848260921227,
neutral,positive,2,k,k,,,,,0,8,8,13,,,,,,,,,,,,,,,,,,,,,,,,,,,,prac,2,2,2,positive,neutral,k,k,1,0.6730592000239994,104.90951270001824,105.93013079999946,105.88769500001217,None,104.90951270001824,None,104.90951270001824,None,104.90951270001824,None,106.57080379001563,None,106.57080379001563,None,106.57080379001563,None,,,,,,,,,,,117,22,Female,2022-05-05_14h08.08.084,Boat,2022.1.1,59.87848260921227,
neutral,positive,1,k,k,,,,,0,9,9,4,,,,,,,,,,,,,,,,,,,,,,,,,,,,prac,2,2,1,positive,neutral,k,k,1,1.146777199988719,106.58839170000283,107.61373750001076,107.57058020000113,None,106.58839170000283,None,106.58839170000283,None,106.58839170000283,None,108.7211856900074,None,108.7211856900074,None,108.7211856900074,None,,,,,,,,,,,117,22,Female,2022-05-05_14h08.08.084,Boat,2022.1.1,59.87848260921227,
negative,positive,1,j,l,,,,,0,10,10,6,,,,,,,,,,,,,,,,,,,,,,,,,,,,prac,1,1,1,positive,negative,l,l,1,0.7836046000011265,108.73787440001615,109.74900460001663,109.73018840001896,None,108.73787440001615,None,108.73787440001615,None,108.73787440001615,None,110.50686499000294,None,110.50686499000294,None,110.50686499000294,None,,,,,,,,,,,117,22,Female,2022-05-05_14h08.08.084,Boat,2022.1.1,59.87848260921227,
neutral,negative,2,k,k,,,,,0,11,11,16,,,,,,,,,,,,,,,,,,,,,,,,,,,,prac,2,2,2,negative,neutral,k,k,1,1.183453899982851,110.52271839999594,111.54915090001305,111.50429430001532,None,110.52271839999594,None,110.52271839999594,None,110.52271839999594,None,112.69195198999368,None,112.69195198999368,None,112.69195198999368,None,,,,,,,,,,,117,22,Female,2022-05-05_14h08.08.084,Boat,2022.1.1,59.87848260921227,
negative,negative,1,j,l,,,,,0,12,12,0,,,,,,,,,,,,,,,,,,,,,,,,,,,,prac,1,1,1,negative,negative,l,l,1,0.8458999999857042,112.70838610001374,113.72107860000688,113.68506650000927,None,112.70838610001374,None,112.70838610001374,None,112.70838610001374,None,114.54067999000544,None,114.54067999000544,None,114.54067999000544,None,,,,,,,,,,,117,22,Female,2022-05-05_14h08.08.084,Boat,2022.1.1,59.87848260921227,
negative,neutral,2,j,l,,,,,0,13,13,12,,,,,,,,,,,,,,,,,,,,,,,,,,,,prac,1,1,2,neutral,negative,l,l,1,0.7621989000181202,114.55572140001459,115.56674929999281,115.5491919000051,None,114.55572140001459,None,114.55572140001459,None,114.55572140001459,None,116.30538389000576,None,116.30538389000576,None,116.30538389000576,None,,,,,,,,,,,117,22,Female,2022-05-05_14h08.08.084,Boat,2022.1.1,59.87848260921227,
positive,negative,1,l,j,,,,,0,14,14,5,,,,,,,,,,,,,,,,,,,,,,,,,,,,prac,2,2,1,negative,positive,j,j,1,0.6615167999989353,116.32166710001184,117.33770490001189,117.30229330001748,None,116.32166710001184,None,116.32166710001184,None,116.32166710001184,None,117.9707758900011,None,117.9707758900011,None,117.9707758900011,None,,,,,,,,,,,117,22,Female,2022-05-05_14h08.08.084,Boat,2022.1.1,59.87848260921227,
positive,neutral,2,l,j,,,,,0,15,15,17,,,,,,,,,,,,,,,,,,,,,,,,,,,,prac,2,2,2,neutral,positive,j,j,1,1.2956754000042565,117.98617720001494,118.98827100000926,118.97163929999806,None,117.98617720001494,None,117.98617720001494,None,117.98617720001494,None,120.2702585900086,None,120.2702585900086,None,120.2702585900086,None,,,,,,,,,,,117,22,Female,2022-05-05_14h08.08.084,Boat,2022.1.1,59.87848260921227,
negative,positive,2,j,l,,,,,0,16,16,15,,,,,,,,,,,,,,,,,,,,,,,,,,,,prac,1,1,2,positive,negative,l,l,1,0.8812860999896657,120.28821580001386,121.31604629999492,121.27032660000259,None,120.28821580001386,None,120.28821580001386,None,120.28821580001386,None,122.15447238999768,None,122.15447238999768,None,122.15447238999768,None,,,,,,,,,,,117,22,Female,2022-05-05_14h08.08.084,Boat,2022.1.1,59.87848260921227,
positive,neutral,1,l,j,,,,,0,17,17,8,,,,,,,,,,,,,,,,,,,,,,,,,,,,prac,2,2,1,neutral,positive,j,j,1,1.213391600002069,122.17194269999163,123.1823207999987,123.16408410001895,None,122.17194269999163,None,122.17194269999163,None,122.17194269999163,None,124.3710655900184,None,124.3710655900184,None,124.3710655900184,None,,,,,,,,,,,117,22,Female,2022-05-05_14h08.08.084,Boat,2022.1.1,59.87848260921227,
negative,negative,1,j,l,,,,,1,0,18,0,,,,,,,,,,,,,,,,,,,,,,,,,,,,prac,2,2,1,negative,negative,l,l,1,0.7869836000027135,124.38812610000605,125.40431700000772,125.3682752000168,None,124.38812610000605,None,124.38812610000605,None,124.38812610000605,None,126.15981109002023,None,126.15981109002023,None,126.15981109002023,None,,,,,,,,,,,117,22,Female,2022-05-05_14h08.08.084,Boat,2022.1.1,59.87848260921227,
positive,positive,2,l,j,,,,,1,1,19,11,,,,,,,,,,,,,,,,,,,,,,,,,,,,prac,2,2,2,positive,positive,j,j,1,0.6481333000119776,126.17671960001462,127.19932350001181,127.15492220001761,None,126.17671960001462,None,126.17671960001462,None,126.17671960001462,None,127.81040769001702,None,127.81040769001702,None,127.81040769001702,None,,,,,,,,,,,117,22,Female,2022-05-05_14h08.08.084,Boat,2022.1.1,59.87848260921227,
neutral,negative,2,k,k,,,,,1,2,20,16,,,,,,,,,,,,,,,,,,,,,,,,,,,,prac,2,2,2,negative,neutral,k,k,1,1.2291815000062343,127.82546600000933,128.83793239999795,128.80432210001163,None,127.82546600000933,None,127.82546600000933,None,127.82546600000933,None,130.0420684900135,None,130.0420684900135,None,130.0420684900135,None,,,,,,,,,,,117,22,Female,2022-05-05_14h08.08.084,Boat,2022.1.1,59.87848260921227,
negative,negative,2,j,l,,,,,1,3,21,9,,,,,,,,,,,,,,,,,,,,,,,,,,,,prac,2,2,2,negative,negative,l,l,1,0.8798375999904238,130.05620630001067,131.0679824000108,131.05040939999162,None,130.05620630001067,None,130.05620630001067,None,130.05620630001067,None,131.92383399001557,None,131.92383399001557,None,131.92383399001557,None,,,,,,,,,,,117,22,Female,2022-05-05_14h08.08.084,Boat,2022.1.1,59.87848260921227,
neutral,negative,1,k,k,,,,,1,4,22,7,,,,,,,,,,,,,,,,,,,,,,,,,,,,prac,1,1,1,negative,neutral,k,k,1,0.7046816000074614,131.9393388000026,132.96404620000976,132.9210885000066,None,131.9393388000026,None,131.9393388000026,None,131.9393388000026,None,133.63270148999874,None,133.63270148999874,None,133.63270148999874,None,,,,,,,,,,,117,22,Female,2022-05-05_14h08.08.084,Boat,2022.1.1,59.87848260921227,
neutral,positive,1,k,k,,,,,1,5,23,4,,,,,,,,,,,,,,,,,,,,,,,,,,,,prac,1,1,1,positive,neutral,k,k,1,0.5628608000115491,133.65185310001834,134.6704241000116,134.6340399000037,None,133.65185310001834,None,133.65185310001834,None,133.65185310001834,None,135.19487839001232,None,135.19487839001232,None,135.19487839001232,None,,,,,,,,,,,117,22,Female,2022-05-05_14h08.08.084,Boat,2022.1.1,59.87848260921227,
positive,neutral,1,l,j,,,,,1,6,24,8,,,,,,,,,,,,,,,,,,,,,,,,,,,,prac,1,1,1,neutral,positive,j,j,1,0.7665566999930888,135.21262860001298,136.23135950000142,136.1881507000071,None,135.21262860001298,None,135.21262860001298,None,135.21262860001298,None,136.965198289993,None,136.965198289993,None,136.965198289993,None,,,,,,,,,,,117,22,Female,2022-05-05_14h08.08.084,Boat,2022.1.1,59.87848260921227,
negative,neutral,2,j,l,,,,,1,7,25,12,,,,,,,,,,,,,,,,,,,,,,,,,,,,prac,2,2,2,neutral,negative,l,l,1,1.2928696000017226,136.9814879000187,137.9995338000008,137.95453960000305,None,136.9814879000187,None,136.9814879000187,None,136.9814879000187,None,139.25933799000342,None,139.25933799000342,None,139.25933799000342,None,,,,,,,,,,,117,22,Female,2022-05-05_14h08.08.084,Boat,2022.1.1,59.87848260921227,
positive,positive,1,l,j,,,,,1,8,26,2,,,,,,,,,,,,,,,,,,,,,,,,,,,,prac,2,2,1,positive,positive,j,j,1,0.7842824999825098,139.27357419999316,140.28850690001855,140.27131040001404,None,139.27357419999316,None,139.27357419999316,None,139.27357419999316,None,141.04564889000613,None,141.04564889000613,None,141.04564889000613,None,,,,,,,,,,,117,22,Female,2022-05-05_14h08.08.084,Boat,2022.1.1,59.87848260921227,
negative,neutral,1,j,l,,,,,1,9,27,3,,,,,,,,,,,,,,,,,,,,,,,,,,,,prac,2,2,1,neutral,negative,l,l,1,0.7943971999920905,141.0600708000129,142.0713619000162,142.0546852000116,None,141.0600708000129,None,141.0600708000129,None,141.0600708000129,None,142.84130879000878,None,142.84130879000878,None,142.84130879000878,None,,,,,,,,,,,117,22,Female,2022-05-05_14h08.08.084,Boat,2022.1.1,59.87848260921227,
neutral,neutral,1,k,k,,,,,1,10,28,1,,,,,,,,,,,,,,,,,,,,,,,,,,,,prac,2,2,1,neutral,neutral,k,k,1,1.235136799979955,142.858584600006,143.87190190001274,143.8371560999949,None,142.858584600006,None,142.858584600006,None,142.858584600006,None,145.07974789001747,None,145.07974789001747,None,145.07974789001747,None,,,,,,,,,,,117,22,Female,2022-05-05_14h08.08.084,Boat,2022.1.1,59.87848260921227,
positive,negative,1,l,j,,,,,1,11,29,5,,,,,,,,,,,,,,,,,,,,,,,,,,,,prac,2,2,1,negative,positive,j,j,1,0.7123737999936566,145.096437900007,146.1043614000082,146.0686468000058,None,145.096437900007,None,145.096437900007,None,145.096437900007,None,146.7934544900025,None,146.7934544900025,None,146.7934544900025,None,,,,,,,,,,,117,22,Female,2022-05-05_14h08.08.084,Boat,2022.1.1,59.87848260921227,
neutral,neutral,2,k,k,,,,,1,12,30,10,,,,,,,,,,,,,,,,,,,,,,,,,,,,prac,1,1,2,neutral,neutral,k,k,1,0.7699234999890905,146.8101554000168,147.8204636000155,147.7831123000069,None,146.8101554000168,None,146.8101554000168,None,146.8101554000168,None,148.5668401900155,None,148.5668401900155,None,148.5668401900155,None,,,,,,,,,,,117,22,Female,2022-05-05_14h08.08.084,Boat,2022.1.1,59.87848260921227,
positive,negative,2,l,j,,,,,1,13,31,14,,,,,,,,,,,,,,,,,,,,,,,,,,,,prac,1,1,2,negative,positive,j,j,1,0.7202256000018679,148.58514490001835,149.60105970001314,149.5650658000086,None,148.58514490001835,None,148.58514490001835,None,148.58514490001835,None,150.28942799001817,None,150.28942799001817,None,150.28942799001817,None,,,,,,,,,,,117,22,Female,2022-05-05_14h08.08.084,Boat,2022.1.1,59.87848260921227,
negative,positive,1,j,l,,,,,1,14,32,6,,,,,,,,,,,,,,,,,,,,,,,,,,,,prac,2,2,1,positive,negative,l,l,1,0.7219924999808427,150.30522510001902,151.3151468000142,151.28844380000373,None,150.30522510001902,None,150.30522510001902,None,150.30522510001902,None,152.01095569001046,None,152.01095569001046,None,152.01095569001046,None,,,,,,,,,,,117,22,Female,2022-05-05_14h08.08.084,Boat,2022.1.1,59.87848260921227,
negative,positive,2,j,l,,,,,1,15,33,15,,,,,,,,,,,,,,,,,,,,,,,,,,,,prac,1,1,2,positive,negative,l,l,1,0.7794130999827757,152.02981670000008,153.03411710000364,153.01673020000453,None,152.02981670000008,None,152.02981670000008,None,152.02981670000008,None,153.79442068999634,None,153.79442068999634,None,153.79442068999634,None,,,,,,,,,,,117,22,Female,2022-05-05_14h08.08.084,Boat,2022.1.1,59.87848260921227,
neutral,positive,2,k,k,,,,,1,16,34,13,,,,,,,,,,,,,,,,,,,,,,,,,,,,prac,2,2,2,positive,neutral,k,k,1,0.727584400010528,153.81155129999388,154.82132790001924,154.78450070001418,None,153.81155129999388,None,153.81155129999388,None,153.81155129999388,None,155.52466839000118,None,155.52466839000118,None,155.52466839000118,None,,,,,,,,,,,117,22,Female,2022-05-05_14h08.08.084,Boat,2022.1.1,59.87848260921227,
positive,neutral,2,l,j,,,,,1,17,35,17,,,,,,,,,,,,,,,,,,,,,,,,,,,,prac,1,1,2,neutral,positive,j,j,1,0.6650322999921627,155.53962690001936,156.5544761000201,156.5182521000097,None,155.53962690001936,None,155.53962690001936,None,155.53962690001936,None,157.19188799000113,None,157.19188799000113,None,157.19188799000113,None,,,,,,,,,,,117,22,Female,2022-05-05_14h08.08.084,Boat,2022.1.1,59.87848260921227,
,,,,,,,,,,,,,,,,,,,,,,,,,,,,,,,,,,,,,,,,,,,,,,,,,,,,,,,,,,,,,,,,,,157.20715319999726,None,None,,,,,,,,117,22,Female,2022-05-05_14h08.08.084,Boat,2022.1.1,59.87848260921227,
,,,,,,,,,,,,,,,,,,,,,,,,,,,,,,,,,,,,,,,,,,,,,,,,,,,,,,,,,,,,,,,,,,,,,0.22777778,-0.087037034,1,0,0,0.0071139899955596775,None,117,22,Female,2022-05-05_14h08.08.084,Boat,2022.1.1,59.87848260921227,
positive,positive,1,l,j,,,,,,,,,0,0,0,2,,,,,,,,,,,,,,,,,,,,,,175.700424700015,None,main,2,2,1,positive,positive,j,j,1,0.6924370999913663,177.72264039999573,178.7389461999992,178.70246130001033,None,177.72264039999573,None,177.72264039999573,None,177.72264039999573,None,179.39363658999793,None,179.39363658999793,None,179.39363658999793,None,,,,,,,,,,,117,22,Female,2022-05-05_14h08.08.084,Boat,2022.1.1,59.87848260921227,
negative,neutral,2,j,l,,,,,,,,,0,1,1,12,,,,,,,,,,,,,,,,,,,,,,,,main,2,2,2,neutral,negative,l,l,1,0.7404425999848172,179.41866019999725,180.42215640001814,180.3869301000086,None,179.41866019999725,None,179.41866019999725,None,179.41866019999725,None,181.13937149000122,None,181.13937149000122,None,181.13937149000122,None,,,,,,,,,,,117,22,Female,2022-05-05_14h08.08.084,Boat,2022.1.1,59.87848260921227,
neutral,neutral,2,k,k,,,,,,,,,0,2,2,10,,,,,,,,,,,,,,,,,,,,,,,,main,1,1,2,neutral,neutral,k,k,1,0.7209657999919727,181.15590320000774,182.16563329999917,182.13851220000652,None,181.15590320000774,None,181.15590320000774,None,181.15590320000774,None,182.86186909001555,None,182.86186909001555,None,182.86186909001555,None,,,,,,,,,,,117,22,Female,2022-05-05_14h08.08.084,Boat,2022.1.1,59.87848260921227,
neutral,negative,2,k,k,,,,,,,,,0,3,3,16,,,,,,,,,,,,,,,,,,,,,,,,main,2,2,2,negative,neutral,k,k,1,0.7971341999946162,182.87967070000013,183.8903748000157,183.8555636999954,None,182.87967070000013,None,182.87967070000013,None,182.87967070000013,None,184.6626894899935,None,184.6626894899935,None,184.6626894899935,None,,,,,,,,,,,117,22,Female,2022-05-05_14h08.08.084,Boat,2022.1.1,59.87848260921227,
positive,positive,2,l,j,,,,,,,,,0,4,4,11,,,,,,,,,,,,,,,,,,,,,,,,main,1,1,2,positive,positive,j,j,1,0.6631142000260297,184.67756350000855,185.68837509999867,185.6519083000021,None,184.67756350000855,None,184.67756350000855,None,184.67756350000855,None,186.32753608999775,None,186.32753608999775,None,186.32753608999775,None,,,,,,,,,,,117,22,Female,2022-05-05_14h08.08.084,Boat,2022.1.1,59.87848260921227,
neutral,positive,1,k,k,,,,,,,,,0,5,5,4,,,,,,,,,,,,,,,,,,,,,,,,main,2,2,1,positive,neutral,k,k,1,0.6800366999814287,186.34397370001534,187.3558178000094,187.31988060000003,None,186.34397370001534,None,186.34397370001534,None,186.34397370001534,None,188.01023729001173,None,188.01023729001173,None,188.01023729001173,None,,,,,,,,,,,117,22,Female,2022-05-05_14h08.08.084,Boat,2022.1.1,59.87848260921227,
negative,negative,1,j,l,,,,,,,,,0,6,6,0,,,,,,,,,,,,,,,,,,,,,,,,main,2,2,1,negative,negative,l,l,1,0.5970859999943059,188.03009600000223,189.0363223000022,189.01779760001227,None,188.03009600000223,None,188.03009600000223,None,188.03009600000223,None,189.60976398999338,None,189.60976398999338,None,189.60976398999338,None,,,,,,,,,,,117,22,Female,2022-05-05_14h08.08.084,Boat,2022.1.1,59.87848260921227,
negative,positive,2,j,l,,,,,,,,,0,7,7,15,,,,,,,,,,,,,,,,,,,,,,,,main,2,2,2,positive,negative,l,l,1,0.7804327000048943,189.6265648000117,190.63976819999516,190.6044988000067,None,189.6265648000117,None,189.6265648000117,None,189.6265648000117,None,191.39257398999763,None,191.39257398999763,None,191.39257398999763,None,,,,,,,,,,,117,22,Female,2022-05-05_14h08.08.084,Boat,2022.1.1,59.87848260921227,
negative,neutral,1,j,l,,,,,,,,,0,8,8,3,,,,,,,,,,,,,,,,,,,,,,,,main,1,1,1,neutral,negative,l,l,1,0.6928908000118099,191.40821100000176,192.43246850001742,192.38920490001328,None,191.40821100000176,None,191.40821100000176,None,191.40821100000176,None,193.08916869001115,None,193.08916869001115,None,193.08916869001115,None,,,,,,,,,,,117,22,Female,2022-05-05_14h08.08.084,Boat,2022.1.1,59.87848260921227,
positive,neutral,1,l,j,,,,,,,,,0,9,9,8,,,,,,,,,,,,,,,,,,,,,,,,main,1,1,1,neutral,positive,j,j,1,0.7047353999805637,193.10613010000088,194.1057584999944,194.08912750001764,None,193.10613010000088,None,193.10613010000088,None,193.10613010000088,None,194.79425069001155,None,194.79425069001155,None,194.79425069001155,None,,,,,,,,,,,117,22,Female,2022-05-05_14h08.08.084,Boat,2022.1.1,59.87848260921227,
negative,positive,1,j,l,,,,,,,,,0,10,10,6,,,,,,,,,,,,,,,,,,,,,,,,main,1,1,1,positive,negative,l,l,1,1.222690299997339,194.8112405000138,195.82272650001687,195.78582230000757,None,194.8112405000138,None,194.8112405000138,None,194.8112405000138,None,197.02243208999863,None,197.02243208999863,None,197.02243208999863,None,,,,,,,,,,,117,22,Female,2022-05-05_14h08.08.084,Boat,2022.1.1,59.87848260921227,
positive,neutral,2,l,j,,,,,,,,,0,11,11,17,,,,,,,,,,,,,,,,,,,,,,,,main,2,2,2,neutral,positive,j,j,1,0.7132052000088152,197.0393287000188,198.03914460001397,198.02241249999497,None,197.0393287000188,None,197.0393287000188,None,197.0393287000188,None,198.73942989001517,None,198.73942989001517,None,198.73942989001517,None,,,,,,,,,,,117,22,Female,2022-05-05_14h08.08.084,Boat,2022.1.1,59.87848260921227,
neutral,neutral,1,k,k,,,,,,,,,0,12,12,1,,,,,,,,,,,,,,,,,,,,,,,,main,1,1,1,neutral,neutral,k,k,1,0.7699998999887612,198.75675230001798,199.76784479999333,199.749489800015,None,198.75675230001798,None,198.75675230001798,None,198.75675230001798,None,200.51017689001748,None,200.51017689001748,None,200.51017689001748,None,,,,,,,,,,,117,22,Female,2022-05-05_14h08.08.084,Boat,2022.1.1,59.87848260921227,
negative,negative,2,j,l,,,,,,,,,0,13,13,9,,,,,,,,,,,,,,,,,,,,,,,,main,2,2,2,negative,negative,l,l,1,0.7165335000026971,200.52882750000572,201.5397379999922,201.50387710001087,None,200.52882750000572,None,200.52882750000572,None,200.52882750000572,None,202.23124359002105,None,202.23124359002105,None,202.23124359002105,None,,,,,,,,,,,117,22,Female,2022-05-05_14h08.08.084,Boat,2022.1.1,59.87848260921227,
positive,negative,1,l,j,,,,,,,,,0,14,14,5,,,,,,,,,,,,,,,,,,,,,,,,main,1,1,1,negative,positive,j,j,1,0.728619700006675,202.250784200005,203.26745450001908,203.22232550001354,None,202.250784200005,None,202.250784200005,None,202.250784200005,None,203.96174899000908,None,203.96174899000908,None,203.96174899000908,None,,,,,,,,,,,117,22,Female,2022-05-05_14h08.08.084,Boat,2022.1.1,59.87848260921227,
positive,negative,2,l,j,,,,,,,,,0,15,15,14,,,,,,,,,,,,,,,,,,,,,,,,main,2,2,2,negative,positive,j,j,1,0.7291927999758627,203.97758350000367,204.9993223999918,204.95626189999166,None,203.97758350000367,None,203.97758350000367,None,203.97758350000367,None,205.69357619002113,None,205.69357619002113,None,205.69357619002113,None,,,,,,,,,,,117,22,Female,2022-05-05_14h08.08.084,Boat,2022.1.1,59.87848260921227,
neutral,negative,1,k,k,,,,,,,,,0,16,16,7,,,,,,,,,,,,,,,,,,,,,,,,main,2,2,1,negative,neutral,k,k,1,1.5330793000175618,205.7087148000137,206.73262840000098,206.68541999999434,None,205.7087148000137,None,205.7087148000137,None,205.7087148000137,None,208.23611920000985,None,208.23611920000985,None,208.23611920000985,None,,,,,,,,,,,117,22,Female,2022-05-05_14h08.08.084,Boat,2022.1.1,59.87848260921227,
neutral,positive,2,k,k,,,,,,,,,0,17,17,13,,,,,,,,,,,,,,,,,,,,,,,,main,2,2,2,positive,neutral,k,k,1,0.7608602999825962,209.2591767999984,210.27307150000706,210.23722120001912,None,209.2591767999984,None,209.2591767999984,None,209.2591767999984,None,211.00642989000772,None,211.00642989000772,None,211.00642989000772,None,,,,,,,,,,,117,22,Female,2022-05-05_14h08.08.084,Boat,2022.1.1,59.87848260921227,
positive,negative,2,l,j,,,,,,,,,1,0,18,14,,,,,,,,,,,,,,,,,,,,,,,,main,2,2,2,negative,positive,j,j,1,0.715496200020425,211.02329610000015,212.02337640000042,212.00665749999462,None,211.02329610000015,None,211.02329610000015,None,211.02329610000015,None,212.7228751900082,None,212.7228751900082,None,212.7228751900082,None,,,,,,,,,,,117,22,Female,2022-05-05_14h08.08.084,Boat,2022.1.1,59.87848260921227,
positive,neutral,1,l,j,,,,,,,,,1,1,19,8,,,,,,,,,,,,,,,,,,,,,,,,main,2,2,1,neutral,positive,j,j,1,0.764139199978672,212.74125130000175,213.76582220001728,213.72336950001772,None,212.74125130000175,None,212.74125130000175,None,212.74125130000175,None,214.49197819000693,None,214.49197819000693,None,214.49197819000693,None,,,,,,,,,,,117,22,Female,2022-05-05_14h08.08.084,Boat,2022.1.1,59.87848260921227,
negative,positive,1,j,l,,,,,,,,,1,2,20,6,,,,,,,,,,,,,,,,,,,,,,,,main,2,2,1,positive,negative,l,l,1,0.7984354000072926,214.5076587999938,215.5225860000064,215.48573139999644,None,214.5076587999938,None,214.5076587999938,None,214.5076587999938,None,216.29267788999715,None,216.29267788999715,None,216.29267788999715,None,,,,,,,,,,,117,22,Female,2022-05-05_14h08.08.084,Boat,2022.1.1,59.87848260921227,
negative,positive,2,j,l,,,,,,,,,1,3,21,15,,,,,,,,,,,,,,,,,,,,,,,,main,1,1,2,positive,negative,l,l,1,0.8274418000073638,216.30814920002013,217.32297209999524,217.28623070000322,None,216.30814920002013,None,216.30814920002013,None,216.30814920002013,None,218.1231511900085,None,218.1231511900085,None,218.1231511900085,None,,,,,,,,,,,117,22,Female,2022-05-05_14h08.08.084,Boat,2022.1.1,59.87848260921227,
neutral,neutral,2,k,k,,,,,,,,,1,4,22,10,,,,,,,,,,,,,,,,,,,,,,,,main,2,2,2,neutral,neutral,k,k,1,0.7023148000007495,218.14020809999784,219.1410509000125,219.12370460000238,None,218.14020809999784,None,218.14020809999784,None,218.14020809999784,None,219.82791279001395,None,219.82791279001395,None,219.82791279001395,None,,,,,,,,,,,117,22,Female,2022-05-05_14h08.08.084,Boat,2022.1.1,59.87848260921227,
neutral,positive,1,k,k,,,,,,,,,1,5,23,4,,,,,,,,,,,,,,,,,,,,,,,,main,2,2,1,positive,neutral,k,k,1,0.829541999992216,219.8456528999959,220.86780830001226,220.82342440000502,None,219.8456528999959,None,219.8456528999959,None,219.8456528999959,None,221.659882890014,None,221.659882890014,None,221.659882890014,None,,,,,,,,,,,117,22,Female,2022-05-05_14h08.08.084,Boat,2022.1.1,59.87848260921227,
neutral,positive,2,k,k,,,,,,,,,1,6,24,13,,,,,,,,,,,,,,,,,,,,,,,,main,2,2,2,positive,neutral,k,k,1,0.6643874000001233,221.67524589999812,222.70118679999723,222.65644849999808,None,221.67524589999812,None,221.67524589999812,None,221.67524589999812,None,223.3262909900048,None,223.3262909900048,None,223.3262909900048,None,,,,,,,,,,,117,22,Female,2022-05-05_14h08.08.084,Boat,2022.1.1,59.87848260921227,
neutral,neutral,1,k,k,,,,,,,,,1,7,25,1,,,,,,,,,,,,,,,,,,,,,,,,main,2,2,1,neutral,neutral,k,k,1,1.3739923000102863,223.34262800001306,224.35680770000909,224.31980810000096,None,223.34262800001306,None,223.34262800001306,None,223.34262800001306,None,225.70413469000488,None,225.70413469000488,None,225.70413469000488,None,,,,,,,,,,,117,22,Female,2022-05-05_14h08.08.084,Boat,2022.1.1,59.87848260921227,
neutral,negative,1,k,k,,,,,,,,,1,8,26,7,,,,,,,,,,,,,,,,,,,,,,,,main,1,1,1,negative,neutral,k,k,1,-0.7876117000123486,225.72365940001328,None,None,None,225.72365940001328,None,225.72365940001328,None,225.72365940001328,None,225.92945530000725,None,225.92945530000725,None,225.92945530000725,None,,,,,,,,,,,117,22,Female,2022-05-05_14h08.08.084,Boat,2022.1.1,59.87848260921227,
negative,neutral,2,j,l,,,,,,,,,1,9,27,12,,,,,,,,,,,,,,,,,,,,,,,,main,1,1,2,neutral,negative,l,l,1,0.8169728000066243,228.9425659000117,229.95151300000725,229.9329735999927,None,228.9425659000117,None,228.9425659000117,None,228.9425659000117,None,230.7447054899938,None,230.7447054899938,None,230.7447054899938,None,,,,,,,,,,,117,22,Female,2022-05-05_14h08.08.084,Boat,2022.1.1,59.87848260921227,
positive,neutral,2,l,j,,,,,,,,,1,10,28,17,,,,,,,,,,,,,,,,,,,,,,,,main,2,2,2,neutral,positive,j,j,1,0.898791399988113,230.7618106000009,231.77324040001258,231.74000690001412,None,230.7618106000009,None,230.7618106000009,None,230.7618106000009,None,232.64521239000607,None,232.64521239000607,None,232.64521239000607,None,,,,,,,,,,,117,22,Female,2022-05-05_14h08.08.084,Boat,2022.1.1,59.87848260921227,
negative,negative,2,j,l,,,,,,,,,1,11,29,9,,,,,,,,,,,,,,,,,,,,,,,,main,2,2,2,negative,negative,l,l,1,0.7166073999833316,232.66282980001415,233.67225269999471,233.63583740001195,None,232.66282980001415,None,232.66282980001415,None,232.66282980001415,None,234.3635987900023,None,234.3635987900023,None,234.3635987900023,None,,,,,,,,,,,117,22,Female,2022-05-05_14h08.08.084,Boat,2022.1.1,59.87848260921227,
negative,neutral,1,j,l,,,,,,,,,1,12,30,3,,,,,,,,,,,,,,,,,,,,,,,,main,2,2,1,neutral,negative,l,l,1,1.643314199987799,234.38220610001008,235.38502690001042,235.3664636000176,None,234.38220610001008,None,234.38220610001008,None,234.38220610001008,None,237.018180700019,None,237.018180700019,None,237.018180700019,None,,,,,,,,,,,117,22,Female,2022-05-05_14h08.08.084,Boat,2022.1.1,59.87848260921227,
positive,positive,2,l,j,,,,,,,,,1,13,31,11,,,,,,,,,,,,,,,,,,,,,,,,main,1,1,2,positive,positive,j,j,1,0.7849375999940094,238.02579420001712,239.04972569999518,239.00677020000876,None,238.02579420001712,None,238.02579420001712,None,238.02579420001712,None,239.79872619000963,None,239.79872619000963,None,239.79872619000963,None,,,,,,,,,,,117,22,Female,2022-05-05_14h08.08.084,Boat,2022.1.1,59.87848260921227,
positive,negative,1,l,j,,,,,,,,,1,14,32,5,,,,,,,,,,,,,,,,,,,,,,,,main,2,2,1,negative,positive,j,j,1,1.1647713999846019,239.81467809999594,240.8201057999977,240.8019794000138,None,239.81467809999594,None,239.81467809999594,None,239.81467809999594,None,241.96620929000784,None,241.96620929000784,None,241.96620929000784,None,,,,,,,,,,,117,22,Female,2022-05-05_14h08.08.084,Boat,2022.1.1,59.87848260921227,
positive,positive,1,l,j,,,,,,,,,1,15,33,2,,,,,,,,,,,,,,,,,,,,,,,,main,2,2,1,positive,positive,j,j,1,0.6721279000048526,241.9808946000121,243.00184270000318,242.98370760001126,None,241.9808946000121,None,241.9808946000121,None,241.9808946000121,None,243.63984599000543,None,243.63984599000543,None,243.63984599000543,None,,,,,,,,,,,117,22,Female,2022-05-05_14h08.08.084,Boat,2022.1.1,59.87848260921227,
negative,negative,1,j,l,,,,,,,,,1,16,34,0,,,,,,,,,,,,,,,,,,,,,,,,main,1,1,1,negative,negative,l,l,1,0.7002372000133619,243.65699190000305,244.6743548999948,244.63803790000384,None,243.65699190000305,None,243.65699190000305,None,243.65699190000305,None,245.34304759000662,None,245.34304759000662,None,245.34304759000662,None,,,,,,,,,,,117,22,Female,2022-05-05_14h08.08.084,Boat,2022.1.1,59.87848260921227,
neutral,negative,2,k,k,,,,,,,,,1,17,35,16,,,,,,,,,,,,,,,,,,,,,,,,main,2,2,2,negative,neutral,k,k,1,1.3162252999900375,245.35976660001324,246.37365029999637,246.33764519999386,None,245.35976660001324,None,245.35976660001324,None,245.35976660001324,None,247.66234019001132,None,247.66234019001132,None,247.66234019001132,None,,,,,,,,,,,117,22,Female,2022-05-05_14h08.08.084,Boat,2022.1.1,59.87848260921227,
negative,positive,2,j,l,,,,,,,,,2,0,36,15,,,,,,,,,,,,,,,,,,,,,,,,main,1,1,2,positive,negative,l,l,1,0.7967989000026137,247.6776521000138,248.70191669999622,248.65783979999833,None,247.6776521000138,None,247.6776521000138,None,247.6776521000138,None,249.45971748999438,None,249.45971748999438,None,249.45971748999438,None,,,,,,,,,,,117,22,Female,2022-05-05_14h08.08.084,Boat,2022.1.1,59.87848260921227,
negative,negative,2,j,l,,,,,,,,,2,1,37,9,,,,,,,,,,,,,,,,,,,,,,,,main,2,2,2,negative,negative,l,l,1,0.6626439000247046,249.4796129000024,250.4899120000191,250.45420659999945,None,249.4796129000024,None,249.4796129000024,None,249.4796129000024,None,251.12548309001141,None,251.12548309001141,None,251.12548309001141,None,,,,,,,,,,,117,22,Female,2022-05-05_14h08.08.084,Boat,2022.1.1,59.87848260921227,
positive,negative,2,l,j,,,,,,,,,2,2,38,14,,,,,,,,,,,,,,,,,,,,,,,,main,2,2,2,negative,positive,j,j,1,0.7504742000019178,251.1467987000069,252.15718259999994,252.12217040001997,None,251.1467987000069,None,251.1467987000069,None,251.1467987000069,None,252.88007928999724,None,252.88007928999724,None,252.88007928999724,None,,,,,,,,,,,117,22,Female,2022-05-05_14h08.08.084,Boat,2022.1.1,59.87848260921227,
neutral,positive,2,k,k,,,,,,,,,2,3,39,13,,,,,,,,,,,,,,,,,,,,,,,,main,2,2,2,positive,neutral,k,k,1,0.7642786999931559,252.89654730001348,253.91871870000614,253.8747130999982,None,252.89654730001348,None,252.89654730001348,None,252.89654730001348,None,254.64609669001658,None,254.64609669001658,None,254.64609669001658,None,,,,,,,,,,,117,22,Female,2022-05-05_14h08.08.084,Boat,2022.1.1,59.87848260921227,
negative,negative,1,j,l,,,,,,,,,2,4,40,0,,,,,,,,,,,,,,,,,,,,,,,,main,2,2,1,negative,negative,l,l,1,0.7906308000092395,254.66306300001452,255.6837754000153,255.64056800000253,None,254.66306300001452,None,254.66306300001452,None,254.66306300001452,None,256.44102768999875,None,256.44102768999875,None,256.44102768999875,None,,,,,,,,,,,117,22,Female,2022-05-05_14h08.08.084,Boat,2022.1.1,59.87848260921227,
positive,positive,1,l,j,,,,,,,,,2,5,41,2,,,,,,,,,,,,,,,,,,,,,,,,main,1,1,1,positive,positive,j,j,1,0.6805271999910474,256.45748310000636,257.4732686000061,257.4365521,None,256.45748310000636,None,256.45748310000636,None,256.45748310000636,None,258.1248290900083,None,258.1248290900083,None,258.1248290900083,None,,,,,,,,,,,117,22,Female,2022-05-05_14h08.08.084,Boat,2022.1.1,59.87848260921227,
negative,positive,1,j,l,,,,,,,,,2,6,42,6,,,,,,,,,,,,,,,,,,,,,,,,main,2,2,1,positive,negative,l,l,1,0.6349648000032175,258.1426344999927,259.16690710000694,259.12401309999404,None,258.1426344999927,None,258.1426344999927,None,258.1426344999927,None,259.76170029000497,None,259.76170029000497,None,259.76170029000497,None,,,,,,,,,,,117,22,Female,2022-05-05_14h08.08.084,Boat,2022.1.1,59.87848260921227,
positive,negative,1,l,j,,,,,,,,,2,7,43,5,,,,,,,,,,,,,,,,,,,,,,,,main,2,2,1,negative,positive,j,j,1,0.7340595000132453,259.77768130000914,260.790811200015,260.75445770000806,None,259.77768130000914,None,259.77768130000914,None,259.77768130000914,None,261.49799919001526,None,261.49799919001526,None,261.49799919001526,None,,,,,,,,,,,117,22,Female,2022-05-05_14h08.08.084,Boat,2022.1.1,59.87848260921227,
neutral,negative,2,k,k,,,,,,,,,2,8,44,16,,,,,,,,,,,,,,,,,,,,,,,,main,1,1,2,negative,neutral,k,k,1,2.7084846000070684,261.5165627000097,262.52655939999386,262.4926761999959,None,261.5165627000097,None,261.5165627000097,None,261.5165627000097,None,265.21449070001836,None,265.21449070001836,None,265.21449070001836,None,,,,,,,,,,,117,22,Female,2022-05-05_14h08.08.084,Boat,2022.1.1,59.87848260921227,
neutral,negative,1,k,k,,,,,,,,,2,9,45,7,,,,,,,,,,,,,,,,,,,,,,,,main,2,2,1,negative,neutral,k,k,1,0.6902923999878112,266.2264117000159,267.25070440000854,267.2040927000053,None,266.2264117000159,None,266.2264117000159,None,266.2264117000159,None,267.90383348999313,None,267.90383348999313,None,267.90383348999313,None,,,,,,,,,,,117,22,Female,2022-05-05_14h08.08.084,Boat,2022.1.1,59.87848260921227,
negative,neutral,1,j,l,,,,,,,,,2,10,46,3,,,,,,,,,,,,,,,,,,,,,,,,main,1,1,1,neutral,negative,l,l,1,0.8173951999924611,267.9231642000086,268.93546340000466,268.89098220001324,None,267.9231642000086,None,267.9231642000086,None,267.9231642000086,None,269.7244337900018,None,269.7244337900018,None,269.7244337900018,None,,,,,,,,,,,117,22,Female,2022-05-05_14h08.08.084,Boat,2022.1.1,59.87848260921227,
positive,neutral,1,l,j,,,,,,,,,2,11,47,8,,,,,,,,,,,,,,,,,,,,,,,,main,1,1,1,neutral,positive,j,j,1,0.8346623000106774,269.74140970001463,270.750904799992,270.72459610001533,None,269.74140970001463,None,269.74140970001463,None,269.74140970001463,None,271.56133229001426,None,271.56133229001426,None,271.56133229001426,None,,,,,,,,,,,117,22,Female,2022-05-05_14h08.08.084,Boat,2022.1.1,59.87848260921227,
neutral,neutral,2,k,k,,,,,,,,,2,12,48,10,,,,,,,,,,,,,,,,,,,,,,,,main,2,2,2,neutral,neutral,k,k,1,1.2811392000003252,271.57659290000447,272.5906513000082,272.55438909999793,None,271.57659290000447,None,271.57659290000447,None,271.57659290000447,None,273.84466278999463,None,273.84466278999463,None,273.84466278999463,None,,,,,,,,,,,117,22,Female,2022-05-05_14h08.08.084,Boat,2022.1.1,59.87848260921227,
positive,neutral,2,l,j,,,,,,,,,2,13,49,17,,,,,,,,,,,,,,,,,,,,,,,,main,1,1,2,neutral,positive,j,j,1,0.8251122999936342,273.86415430001216,274.87371859999257,274.83749770000577,None,273.86415430001216,None,273.86415430001216,None,273.86415430001216,None,275.67385448999704,None,275.67385448999704,None,275.67385448999704,None,,,,,,,,,,,117,22,Female,2022-05-05_14h08.08.084,Boat,2022.1.1,59.87848260921227,
neutral,positive,1,k,k,,,,,,,,,2,14,50,4,,,,,,,,,,,,,,,,,,,,,,,,main,2,2,1,positive,neutral,k,k,1,0.7712770999933127,275.69192310000653,276.70777649999945,276.67261040001176,None,275.69192310000653,None,275.69192310000653,None,275.69192310000653,None,277.4464538900182,None,277.4464538900182,None,277.4464538900182,None,,,,,,,,,,,117,22,Female,2022-05-05_14h08.08.084,Boat,2022.1.1,59.87848260921227,
positive,positive,2,l,j,,,,,,,,,2,15,51,11,,,,,,,,,,,,,,,,,,,,,,,,main,2,2,2,positive,positive,j,j,1,0.7141972999961581,277.4636257000093,278.4844008999935,278.44100120000076,None,277.4636257000093,None,277.4636257000093,None,277.4636257000093,None,279.1635865900142,None,279.1635865900142,None,279.1635865900142,None,,,,,,,,,,,117,22,Female,2022-05-05_14h08.08.084,Boat,2022.1.1,59.87848260921227,
neutral,neutral,1,k,k,,,,,,,,,2,16,52,1,,,,,,,,,,,,,,,,,,,,,,,,main,1,1,1,neutral,neutral,k,k,1,0.7077451999939512,279.17882400000235,280.1912968000106,280.1550748000154,None,279.17882400000235,None,279.17882400000235,None,279.17882400000235,None,280.87428359001643,None,280.87428359001643,None,280.87428359001643,None,,,,,,,,,,,117,22,Female,2022-05-05_14h08.08.084,Boat,2022.1.1,59.87848260921227,
negative,neutral,2,j,l,,,,,,,,,2,17,53,12,,,,,,,,,,,,,,,,,,,,,,,,main,2,2,2,neutral,negative,l,l,1,0.783534399990458,280.8925060000038,281.90720869999495,281.8710391999921,None,280.8925060000038,None,280.8925060000038,None,280.8925060000038,None,282.66003489000724,None,282.66003489000724,None,282.66003489000724,None,,,,,,,,,,,117,22,Female,2022-05-05_14h08.08.084,Boat,2022.1.1,59.87848260921227,
neutral,positive,1,k,k,,,,,,,,,3,0,54,4,,,,,,,,,,,,,,,,,,,,,,,,main,2,2,1,positive,neutral,k,k,1,0.6666771000018343,282.6784301000007,283.7010220999946,283.65803720001713,None,282.6784301000007,None,282.6784301000007,None,282.6784301000007,None,284.3301221900154,None,284.3301221900154,None,284.3301221900154,None,,,,,,,,,,,117,22,Female,2022-05-05_14h08.08.084,Boat,2022.1.1,59.87848260921227,
neutral,positive,2,k,k,,,,,,,,,3,1,55,13,,,,,,,,,,,,,,,,,,,,,,,,main,1,1,2,positive,neutral,k,k,1,0.8277566999895498,284.3452091999934,285.35771280000336,285.32385559999966,None,284.3452091999934,None,284.3452091999934,None,284.3452091999934,None,286.1602980900032,None,286.1602980900032,None,286.1602980900032,None,,,,,,,,,,,117,22,Female,2022-05-05_14h08.08.084,Boat,2022.1.1,59.87848260921227,
positive,negative,1,l,j,,,,,,,,,3,2,56,5,,,,,,,,,,,,,,,,,,,,,,,,main,2,2,1,negative,positive,j,j,1,0.6832283999829087,286.1778267000045,287.2026839000173,287.1575318000105,None,286.1778267000045,None,286.1778267000045,None,286.1778267000045,None,287.84535409001984,None,287.84535409001984,None,287.84535409001984,None,,,,,,,,,,,117,22,Female,2022-05-05_14h08.08.084,Boat,2022.1.1,59.87848260921227,
positive,positive,1,l,j,,,,,,,,,3,3,57,2,,,,,,,,,,,,,,,,,,,,,,,,main,1,1,1,positive,positive,j,j,1,0.7301723999844398,287.86259370000334,288.8751329999941,288.84125759999733,None,287.86259370000334,None,287.86259370000334,None,287.86259370000334,None,289.5788862900052,None,289.5788862900052,None,289.5788862900052,None,,,,,,,,,,,117,22,Female,2022-05-05_14h08.08.084,Boat,2022.1.1,59.87848260921227,
neutral,neutral,2,k,k,,,,,,,,,3,4,58,10,,,,,,,,,,,,,,,,,,,,,,,,main,2,2,2,neutral,neutral,k,k,1,0.8318281000247225,289.5961024000135,290.60803390000365,290.5741646999959,None,289.5961024000135,None,289.5961024000135,None,289.5961024000135,None,291.41339469000815,None,291.41339469000815,None,291.41339469000815,None,,,,,,,,,,,117,22,Female,2022-05-05_14h08.08.084,Boat,2022.1.1,59.87848260921227,
positive,neutral,2,l,j,,,,,,,,,3,5,59,17,,,,,,,,,,,,,,,,,,,,,,,,main,1,1,2,neutral,positive,j,j,1,0.8530568999995012,291.42975130002014,292.45127760001924,292.40941819999716,None,291.42975130002014,None,291.42975130002014,None,291.42975130002014,None,293.2664524900145,None,293.2664524900145,None,293.2664524900145,None,,,,,,,,,,,117,22,Female,2022-05-05_14h08.08.084,Boat,2022.1.1,59.87848260921227,
neutral,negative,1,k,k,,,,,,,,,3,6,60,7,,,,,,,,,,,,,,,,,,,,,,,,main,1,1,1,negative,neutral,k,k,1,1.2361138999985997,293.29127680000965,294.3080103000102,294.27221850000205,None,293.29127680000965,None,293.29127680000965,None,293.29127680000965,None,295.50817599000294,None,295.50817599000294,None,295.50817599000294,None,,,,,,,,,,,117,22,Female,2022-05-05_14h08.08.084,Boat,2022.1.1,59.87848260921227,
positive,negative,2,l,j,,,,,,,,,3,7,61,14,,,,,,,,,,,,,,,,,,,,,,,,main,1,1,2,negative,positive,j,k,0,-0.6657474000239745,295.52675610000733,None,None,None,295.52675610000733,None,295.52675610000733,None,295.52675610000733,None,295.851461800019,None,295.851461800019,None,295.851461800019,None,,,,,,,,,,,117,22,Female,2022-05-05_14h08.08.084,Boat,2022.1.1,59.87848260921227,
positive,positive,2,l,j,,,,,,,,,3,8,62,11,,,,,,,,,,,,,,,,,,,,,,,,main,1,1,2,positive,positive,j,j,1,0.6815783000201918,298.86002890000236,299.8747772999923,299.83802970001125,None,298.86002890000236,None,298.86002890000236,None,298.86002890000236,None,300.52786559001544,None,300.52786559001544,None,300.52786559001544,None,,,,,,,,,,,117,22,Female,2022-05-05_14h08.08.084,Boat,2022.1.1,59.87848260921227,
negative,negative,1,j,l,,,,,,,,,3,9,63,0,,,,,,,,,,,,,,,,,,,,,,,,main,2,2,1,negative,negative,l,l,1,1.6431341000134125,300.54557580000255,301.55891419999534,301.52471729999525,None,300.54557580000255,None,300.54557580000255,None,300.54557580000255,None,303.17983360000653,None,303.17983360000653,None,303.17983360000653,None,,,,,,,,,,,117,22,Female,2022-05-05_14h08.08.084,Boat,2022.1.1,59.87848260921227,
negative,neutral,1,j,l,,,,,,,,,3,10,64,3,,,,,,,,,,,,,,,,,,,,,,,,main,2,2,1,neutral,negative,l,l,1,0.9132510000199545,304.1939743999974,305.20872029999737,305.1720861000067,None,304.1939743999974,None,304.1939743999974,None,304.1939743999974,None,306.0925966900075,None,306.0925966900075,None,306.0925966900075,None,,,,,,,,,,,117,22,Female,2022-05-05_14h08.08.084,Boat,2022.1.1,59.87848260921227,
neutral,negative,2,k,k,,,,,,,,,3,11,65,16,,,,,,,,,,,,,,,,,,,,,,,,main,1,1,2,negative,neutral,k,k,1,0.7996141000185162,306.1105579000141,307.1245998000086,307.08907829999225,None,306.1105579000141,None,306.1105579000141,None,306.1105579000141,None,307.8944086899981,None,307.8944086899981,None,307.8944086899981,None,,,,,,,,,,,117,22,Female,2022-05-05_14h08.08.084,Boat,2022.1.1,59.87848260921227,
negative,positive,1,j,l,,,,,,,,,3,12,66,6,,,,,,,,,,,,,,,,,,,,,,,,main,2,2,1,positive,negative,l,l,1,0.849357200000668,307.91523470001994,308.92064749999554,308.9031157999998,None,307.91523470001994,None,307.91523470001994,None,307.91523470001994,None,309.74653799000663,None,309.74653799000663,None,309.74653799000663,None,,,,,,,,,,,117,22,Female,2022-05-05_14h08.08.084,Boat,2022.1.1,59.87848260921227,
negative,positive,2,j,l,,,,,,,,,3,13,67,15,,,,,,,,,,,,,,,,,,,,,,,,main,2,2,2,positive,negative,l,l,1,0.8783101000008173,309.76480750000337,310.7751414999948,310.73949530001846,None,309.76480750000337,None,309.76480750000337,None,309.76480750000337,None,311.6283339900081,None,311.6283339900081,None,311.6283339900081,None,,,,,,,,,,,117,22,Female,2022-05-05_14h08.08.084,Boat,2022.1.1,59.87848260921227,
negative,negative,2,j,l,,,,,,,,,3,14,68,9,,,,,,,,,,,,,,,,,,,,,,,,main,1,1,2,negative,negative,l,l,1,1.095490100007737,311.64885570001206,312.6587918000005,312.62505960001727,None,311.64885570001206,None,311.64885570001206,None,311.64885570001206,None,313.7277785900049,None,313.7277785900049,None,313.7277785900049,None,,,,,,,,,,,117,22,Female,2022-05-05_14h08.08.084,Boat,2022.1.1,59.87848260921227,
negative,neutral,2,j,l,,,,,,,,,3,15,69,12,,,,,,,,,,,,,,,,,,,,,,,,main,1,1,2,neutral,negative,l,l,1,0.665074899996398,313.74269939999795,314.7698897999944,314.7244944999984,None,313.74269939999795,None,313.74269939999795,None,313.74269939999795,None,315.3950503899949,None,315.3950503899949,None,315.3950503899949,None,,,,,,,,,,,117,22,Female,2022-05-05_14h08.08.084,Boat,2022.1.1,59.87848260921227,
positive,neutral,1,l,j,,,,,,,,,3,16,70,8,,,,,,,,,,,,,,,,,,,,,,,,main,2,2,1,neutral,positive,j,j,1,0.5601168000139296,315.41226760001155,316.4249789000023,316.3890054000076,None,315.41226760001155,None,315.41226760001155,None,315.41226760001155,None,316.95860168999644,None,316.95860168999644,None,316.95860168999644,None,,,,,,,,,,,117,22,Female,2022-05-05_14h08.08.084,Boat,2022.1.1,59.87848260921227,
neutral,neutral,1,k,k,,,,,,,,,3,17,71,1,,,,,,,,,,,,,,,,,,,,,,,,main,2,2,1,neutral,neutral,k,k,1,0.6034235999977682,316.97541159999673,317.9907314000011,317.9545372000139,None,316.97541159999673,None,316.97541159999673,None,316.97541159999673,None,318.5636849900009,None,318.5636849900009,None,318.5636849900009,None,,,,,,,,,,,117,22,Female,2022-05-05_14h08.08.084,Boat,2022.1.1,59.87848260921227,
positive,neutral,1,l,j,,,,,,,,,4,0,72,8,,,,,,,,,,,,,,,,,,,,,,,,main,1,1,1,neutral,positive,j,l,0,0.6424239999905694,318.5829084000143,319.601382199995,319.55873230000725,None,318.5829084000143,None,318.5829084000143,None,318.5829084000143,None,320.21694579999894,None,320.21694579999894,None,320.21694579999894,None,,,,,,,,,,,117,22,Female,2022-05-05_14h08.08.084,Boat,2022.1.1,59.87848260921227,
positive,negative,1,l,j,,,,,,,,,4,1,73,5,,,,,,,,,,,,,,,,,,,,,,,,main,2,2,1,negative,positive,j,j,1,0.7875241000147071,321.22722010000143,322.2353382000001,322.2098066000035,None,321.22722010000143,None,321.22722010000143,None,321.22722010000143,None,323.00170859000065,None,323.00170859000065,None,323.00170859000065,None,,,,,,,,,,,117,22,Female,2022-05-05_14h08.08.084,Boat,2022.1.1,59.87848260921227,
negative,positive,2,j,l,,,,,,,,,4,2,74,15,,,,,,,,,,,,,,,,,,,,,,,,main,2,2,2,positive,negative,l,l,1,0.6917836000211537,323.0199002000154,324.0351650000084,323.9922552999924,None,323.0199002000154,None,323.0199002000154,None,323.0199002000154,None,324.6953647900198,None,324.6953647900198,None,324.6953647900198,None,,,,,,,,,,,117,22,Female,2022-05-05_14h08.08.084,Boat,2022.1.1,59.87848260921227,
neutral,negative,1,k,k,,,,,,,,,4,3,75,7,,,,,,,,,,,,,,,,,,,,,,,,main,2,2,1,negative,neutral,k,k,1,1.6459965000103693,324.7153446000011,325.7353720999963,325.6922409000108,None,324.7153446000011,None,324.7153446000011,None,324.7153446000011,None,327.3536628000147,None,327.3536628000147,None,327.3536628000147,None,,,,,,,,,,,117,22,Female,2022-05-05_14h08.08.084,Boat,2022.1.1,59.87848260921227,
neutral,neutral,1,k,k,,,,,,,,,4,4,76,1,,,,,,,,,,,,,,,,,,,,,,,,main,2,2,1,neutral,neutral,k,k,1,0.6344546000182163,328.3614363000088,329.3762783000129,329.3421171999944,None,328.3614363000088,None,328.3614363000088,None,328.3614363000088,None,329.98194728999516,None,329.98194728999516,None,329.98194728999516,None,,,,,,,,,,,117,22,Female,2022-05-05_14h08.08.084,Boat,2022.1.1,59.87848260921227,
neutral,negative,2,k,k,,,,,,,,,4,5,77,16,,,,,,,,,,,,,,,,,,,,,,,,main,1,1,2,negative,neutral,k,k,1,0.7265666000021156,329.99841210001614,331.0102957000199,330.97575770001276,None,329.99841210001614,None,329.99841210001614,None,329.99841210001614,None,331.7116464900144,None,331.7116464900144,None,331.7116464900144,None,,,,,,,,,,,117,22,Female,2022-05-05_14h08.08.084,Boat,2022.1.1,59.87848260921227,
negative,negative,2,j,l,,,,,,,,,4,6,78,9,,,,,,,,,,,,,,,,,,,,,,,,main,2,2,2,negative,negative,l,l,1,0.666097199980868,331.72761800000444,332.7537774000084,332.7085541000124,None,331.72761800000444,None,331.72761800000444,None,331.72761800000444,None,333.3800547900144,None,333.3800547900144,None,333.3800547900144,None,,,,,,,,,,,117,22,Female,2022-05-05_14h08.08.084,Boat,2022.1.1,59.87848260921227,
neutral,neutral,2,k,k,,,,,,,,,4,7,79,10,,,,,,,,,,,,,,,,,,,,,,,,main,1,1,2,neutral,neutral,k,k,1,0.7007489000097848,333.39564930001507,334.4090056999994,334.3723649000167,None,333.39564930001507,None,333.39564930001507,None,333.39564930001507,None,335.0830799900112,None,335.0830799900112,None,335.0830799900112,None,,,,,,,,,,,117,22,Female,2022-05-05_14h08.08.084,Boat,2022.1.1,59.87848260921227,
neutral,positive,2,k,k,,,,,,,,,4,8,80,13,,,,,,,,,,,,,,,,,,,,,,,,main,1,1,2,positive,neutral,k,k,1,0.5619990000268444,335.10358250001445,336.10745280000265,336.0889964000089,None,335.10358250001445,None,335.10358250001445,None,335.10358250001445,None,336.64901129000356,None,336.64901129000356,None,336.64901129000356,None,,,,,,,,,,,117,22,Female,2022-05-05_14h08.08.084,Boat,2022.1.1,59.87848260921227,
positive,neutral,2,l,j,,,,,,,,,4,9,81,17,,,,,,,,,,,,,,,,,,,,,,,,main,2,2,2,neutral,positive,j,j,1,0.6430372000031639,336.6656337000022,337.687374000001,337.64199770000414,None,336.6656337000022,None,336.6656337000022,None,336.6656337000022,None,338.29491919000867,None,338.29491919000867,None,338.29491919000867,None,,,,,,,,,,,117,22,Female,2022-05-05_14h08.08.084,Boat,2022.1.1,59.87848260921227,
negative,neutral,2,j,l,,,,,,,,,4,10,82,12,,,,,,,,,,,,,,,,,,,,,,,,main,2,2,2,neutral,negative,l,j,0,0.77789609998581,338.31159560001106,339.32548980001593,339.28984969999874,None,338.31159560001106,None,338.31159560001106,None,338.31159560001106,None,340.0793542000174,None,340.0793542000174,None,340.0793542000174,None,,,,,,,,,,,117,22,Female,2022-05-05_14h08.08.084,Boat,2022.1.1,59.87848260921227,
positive,positive,2,l,j,,,,,,,,,4,11,83,11,,,,,,,,,,,,,,,,,,,,,,,,main,2,2,2,positive,positive,j,j,1,0.7001456000143662,341.0944428000075,342.118988000002,342.0758418000187,None,341.0944428000075,None,341.0944428000075,None,341.0944428000075,None,342.7800076899992,None,342.7800076899992,None,342.7800076899992,None,,,,,,,,,,,117,22,Female,2022-05-05_14h08.08.084,Boat,2022.1.1,59.87848260921227,
negative,negative,1,j,l,,,,,,,,,4,12,84,0,,,,,,,,,,,,,,,,,,,,,,,,main,2,2,1,negative,negative,l,l,1,0.8494595999945886,342.80129860001034,343.80899590000627,343.77343220001785,None,342.80129860001034,None,342.80129860001034,None,342.80129860001034,None,344.63405509000296,None,344.63405509000296,None,344.63405509000296,None,,,,,,,,,,,117,22,Female,2022-05-05_14h08.08.084,Boat,2022.1.1,59.87848260921227,
negative,positive,1,j,l,,,,,,,,,4,13,85,6,,,,,,,,,,,,,,,,,,,,,,,,main,1,1,1,positive,negative,l,l,1,0.7973065999976825,344.6506917999941,345.65899440000067,345.622363100003,None,344.6506917999941,None,344.6506917999941,None,344.6506917999941,None,346.43326769002016,None,346.43326769002016,None,346.43326769002016,None,,,,,,,,,,,117,22,Female,2022-05-05_14h08.08.084,Boat,2022.1.1,59.87848260921227,
positive,positive,1,l,j,,,,,,,,,4,14,86,2,,,,,,,,,,,,,,,,,,,,,,,,main,2,2,1,positive,positive,j,j,1,0.7721249000169337,346.449251300015,347.454141299997,347.4361162999994,None,346.449251300015,None,346.449251300015,None,346.449251300015,None,348.2097473900183,None,348.2097473900183,None,348.2097473900183,None,,,,,,,,,,,117,22,Female,2022-05-05_14h08.08.084,Boat,2022.1.1,59.87848260921227,
neutral,positive,1,k,k,,,,,,,,,4,15,87,4,,,,,,,,,,,,,,,,,,,,,,,,main,1,1,1,positive,neutral,k,k,1,1.3877289000083692,348.2266554000089,349.24104100000113,349.2230294000183,None,348.2266554000089,None,348.2266554000089,None,348.2266554000089,None,350.5991665900045,None,350.5991665900045,None,350.5991665900045,None,,,,,,,,,,,117,22,Female,2022-05-05_14h08.08.084,Boat,2022.1.1,59.87848260921227,
positive,negative,2,l,j,,,,,,,,,4,16,88,14,,,,,,,,,,,,,,,,,,,,,,,,main,2,2,2,negative,positive,j,j,1,0.7302873999869917,350.61417060001986,351.6247099000029,351.58903070000815,None,350.61417060001986,None,350.61417060001986,None,350.61417060001986,None,352.3315216900199,None,352.3315216900199,None,352.3315216900199,None,,,,,,,,,,,117,22,Female,2022-05-05_14h08.08.084,Boat,2022.1.1,59.87848260921227,
negative,neutral,1,j,l,,,,,,,,,4,17,89,3,,,,,,,,,,,,,,,,,,,,,,,,main,2,2,1,neutral,negative,l,l,1,0.808350999985123,352.34711870001047,353.3584150999959,353.3215616999951,None,352.34711870001047,None,352.34711870001047,None,352.34711870001047,None,354.1437183900096,None,354.1437183900096,None,354.1437183900096,None,,,,,,,,,,,117,22,Female,2022-05-05_14h08.08.084,Boat,2022.1.1,59.87848260921227,
neutral,positive,2,k,k,,,,,,,,,5,0,90,13,,,,,,,,,,,,,,,,,,,,,,,,main,2,2,2,positive,neutral,k,k,1,0.7370371999859344,354.1598532999924,355.1594385000062,355.1424074000097,None,354.1598532999924,None,354.1598532999924,None,354.1598532999924,None,355.8822518900095,None,355.8822518900095,None,355.8822518900095,None,,,,,,,,,,,117,22,Female,2022-05-05_14h08.08.084,Boat,2022.1.1,59.87848260921227,
neutral,neutral,1,k,k,,,,,,,,,5,1,91,1,,,,,,,,,,,,,,,,,,,,,,,,main,2,2,1,neutral,neutral,k,k,1,0.6397253000177443,355.8991381000087,356.9208171000064,356.87685960001545,None,355.8991381000087,None,355.8991381000087,None,355.8991381000087,None,357.52596809000244,None,357.52596809000244,None,357.52596809000244,None,,,,,,,,,,,117,22,Female,2022-05-05_14h08.08.084,Boat,2022.1.1,59.87848260921227,
positive,neutral,2,l,j,,,,,,,,,5,2,92,17,,,,,,,,,,,,,,,,,,,,,,,,main,2,2,2,neutral,positive,j,j,1,0.7486920999945141,357.5429424000031,358.5427449000126,358.5266249999986,None,357.5429424000031,None,357.5429424000031,None,357.5429424000031,None,359.2776666900143,None,359.2776666900143,None,359.2776666900143,None,,,,,,,,,,,117,22,Female,2022-05-05_14h08.08.084,Boat,2022.1.1,59.87848260921227,
negative,positive,1,j,l,,,,,,,,,5,3,93,6,,,,,,,,,,,,,,,,,,,,,,,,main,2,2,1,positive,negative,l,l,1,0.8815281999995932,359.29328270000406,360.30830770000466,360.28968879999593,None,359.29328270000406,None,359.29328270000406,None,359.29328270000406,None,361.16041029001354,None,361.16041029001354,None,361.16041029001354,None,,,,,,,,,,,117,22,Female,2022-05-05_14h08.08.084,Boat,2022.1.1,59.87848260921227,
positive,neutral,1,l,j,,,,,,,,,5,4,94,8,,,,,,,,,,,,,,,,,,,,,,,,main,2,2,1,neutral,positive,j,j,1,0.7962140000017826,361.1784794999985,362.2028155000007,362.159656600008,None,361.1784794999985,None,361.1784794999985,None,361.1784794999985,None,362.9604123900179,None,362.9604123900179,None,362.9604123900179,None,,,,,,,,,,,117,22,Female,2022-05-05_14h08.08.084,Boat,2022.1.1,59.87848260921227,
negative,neutral,1,j,l,,,,,,,,,5,5,95,3,,,,,,,,,,,,,,,,,,,,,,,,main,1,1,1,neutral,negative,l,l,1,0.8681189999915659,362.9769666999928,363.99260910000885,363.9593004999915,None,362.9769666999928,None,362.9769666999928,None,362.9769666999928,None,364.830936390016,None,364.830936390016,None,364.830936390016,None,,,,,,,,,,,117,22,Female,2022-05-05_14h08.08.084,Boat,2022.1.1,59.87848260921227,
positive,positive,1,l,j,,,,,,,,,5,6,96,2,,,,,,,,,,,,,,,,,,,,,,,,main,1,1,1,positive,positive,j,j,1,0.6326145000057295,364.8468247000128,365.8543394000153,365.83573869999964,None,364.8468247000128,None,364.8468247000128,None,364.8468247000128,None,366.4663058900158,None,366.4663058900158,None,366.4663058900158,None,,,,,,,,,,,117,22,Female,2022-05-05_14h08.08.084,Boat,2022.1.1,59.87848260921227,
neutral,negative,2,k,k,,,,,,,,,5,7,97,16,,,,,,,,,,,,,,,,,,,,,,,,main,1,1,2,negative,neutral,k,k,1,1.2298561000206973,366.4805008000112,367.4923712000018,367.4739160000172,None,366.4805008000112,None,366.4805008000112,None,366.4805008000112,None,368.6983924899949,None,368.6983924899949,None,368.6983924899949,None,,,,,,,,,,,117,22,Female,2022-05-05_14h08.08.084,Boat,2022.1.1,59.87848260921227,
neutral,negative,1,k,k,,,,,,,,,5,8,98,7,,,,,,,,,,,,,,,,,,,,,,,,main,2,2,1,negative,neutral,k,k,1,0.7996485999901779,368.7148279999965,369.73603299999377,369.6932655000128,None,368.7148279999965,None,368.7148279999965,None,368.7148279999965,None,370.5016501900216,None,370.5016501900216,None,370.5016501900216,None,,,,,,,,,,,117,22,Female,2022-05-05_14h08.08.084,Boat,2022.1.1,59.87848260921227,
negative,neutral,2,j,l,,,,,,,,,5,9,99,12,,,,,,,,,,,,,,,,,,,,,,,,main,2,2,2,neutral,negative,l,l,1,1.4651289000175893,370.5171404000139,371.5379979000136,371.51962870001444,None,370.5171404000139,None,370.5171404000139,None,370.5171404000139,None,372.9680276900006,None,372.9680276900006,None,372.9680276900006,None,,,,,,,,,,,117,22,Female,2022-05-05_14h08.08.084,Boat,2022.1.1,59.87848260921227,
neutral,positive,1,k,k,,,,,,,,,5,10,100,4,,,,,,,,,,,,,,,,,,,,,,,,main,2,2,1,positive,neutral,k,l,0,-0.6200859999808017,372.9884277000092,None,None,None,372.9884277000092,None,372.9884277000092,None,372.9884277000092,None,373.3554933000123,None,373.3554933000123,None,373.3554933000123,None,,,,,,,,,,,117,22,Female,2022-05-05_14h08.08.084,Boat,2022.1.1,59.87848260921227,
negative,negative,1,j,l,,,,,,,,,5,11,101,0,,,,,,,,,,,,,,,,,,,,,,,,main,1,1,1,negative,negative,l,l,1,0.8159659999946598,376.3617273000127,377.3864378000144,377.3432915000012,None,376.3617273000127,None,376.3617273000127,None,376.3617273000127,None,378.16316259001616,None,378.16316259001616,None,378.16316259001616,None,,,,,,,,,,,117,22,Female,2022-05-05_14h08.08.084,Boat,2022.1.1,59.87848260921227,
positive,positive,2,l,j,,,,,,,,,5,12,102,11,,,,,,,,,,,,,,,,,,,,,,,,main,1,1,2,positive,positive,j,j,1,0.6832361999840941,378.18023820000235,379.193459800008,379.1597846999939,None,378.18023820000235,None,378.18023820000235,None,378.18023820000235,None,379.85012908999926,None,379.85012908999926,None,379.85012908999926,None,,,,,,,,,,,117,22,Female,2022-05-05_14h08.08.084,Boat,2022.1.1,59.87848260921227,
negative,negative,2,j,l,,,,,,,,,5,13,103,9,,,,,,,,,,,,,,,,,,,,,,,,main,2,2,2,negative,negative,l,l,1,0.8118385999987368,379.86694649999845,380.8866310000012,380.84341430000495,None,379.86694649999845,None,379.86694649999845,None,379.86694649999845,None,381.665236690006,None,381.665236690006,None,381.665236690006,None,,,,,,,,,,,117,22,Female,2022-05-05_14h08.08.084,Boat,2022.1.1,59.87848260921227,
negative,positive,2,j,l,,,,,,,,,5,14,104,15,,,,,,,,,,,,,,,,,,,,,,,,main,1,1,2,positive,negative,l,l,1,0.6778976999921724,381.6812300000165,382.6931184999994,382.65702660000534,None,381.6812300000165,None,381.6812300000165,None,381.6812300000165,None,383.3452196900151,None,383.3452196900151,None,383.3452196900151,None,,,,,,,,,,,117,22,Female,2022-05-05_14h08.08.084,Boat,2022.1.1,59.87848260921227,
positive,negative,2,l,j,,,,,,,,,5,15,105,14,,,,,,,,,,,,,,,,,,,,,,,,main,2,2,2,negative,positive,j,j,1,0.6641119999985676,383.3626292000117,384.3883463999955,384.34355200000573,None,383.3626292000117,None,383.3626292000117,None,383.3626292000117,None,385.0133534900204,None,385.0133534900204,None,385.0133534900204,None,,,,,,,,,,,117,22,Female,2022-05-05_14h08.08.084,Boat,2022.1.1,59.87848260921227,
positive,negative,1,l,j,,,,,,,,,5,16,106,5,,,,,,,,,,,,,,,,,,,,,,,,main,1,1,1,negative,positive,j,j,1,0.7517530999903101,385.02877279999666,386.0432545999938,386.0082548999926,None,385.02877279999666,None,385.02877279999666,None,385.02877279999666,None,386.76699209001964,None,386.76699209001964,None,386.76699209001964,None,,,,,,,,,,,117,22,Female,2022-05-05_14h08.08.084,Boat,2022.1.1,59.87848260921227,
neutral,neutral,2,k,k,,,,,,,,,5,17,107,10,,,,,,,,,,,,,,,,,,,,,,,,main,2,2,2,neutral,neutral,k,k,1,1.3136367999832146,386.7839399999939,387.7941076999996,387.7577377000125,None,386.7839399999939,None,386.7839399999939,None,386.7839399999939,None,389.08454089001754,None,389.08454089001754,None,389.08454089001754,None,,,,,,,,,,,117,22,Female,2022-05-05_14h08.08.084,Boat,2022.1.1,59.87848260921227,
positive,negative,2,l,j,,,,,,,,,6,0,108,14,,,,,,,,,,,,,,,,,,,,,,,,main,2,2,2,negative,positive,j,j,1,0.7616237000038382,389.0998366000131,390.12019040001906,390.09333470001,None,389.0998366000131,None,389.0998366000131,None,389.0998366000131,None,390.84691159000505,None,390.84691159000505,None,390.84691159000505,None,,,,,,,,,,,117,22,Female,2022-05-05_14h08.08.084,Boat,2022.1.1,59.87848260921227,
negative,positive,1,j,l,,,,,,,,,6,1,109,6,,,,,,,,,,,,,,,,,,,,,,,,main,1,1,1,positive,negative,l,l,1,0.7987040000152774,390.86364640001557,391.87683009999455,391.8404359999986,None,390.86364640001557,None,390.86364640001557,None,390.86364640001557,None,392.64844989000704,None,392.64844989000704,None,392.64844989000704,None,,,,,,,,,,,117,22,Female,2022-05-05_14h08.08.084,Boat,2022.1.1,59.87848260921227,
negative,negative,1,j,l,,,,,,,,,6,2,110,0,,,,,,,,,,,,,,,,,,,,,,,,main,2,2,1,negative,negative,l,l,1,1.080842199997278,392.6655447999947,393.686746899999,393.64358470001025,None,392.6655447999947,None,392.6655447999947,None,392.6655447999947,None,394.7310384900018,None,394.7310384900018,None,394.7310384900018,None,,,,,,,,,,,117,22,Female,2022-05-05_14h08.08.084,Boat,2022.1.1,59.87848260921227,
neutral,negative,2,k,k,,,,,,,,,6,3,111,16,,,,,,,,,,,,,,,,,,,,,,,,main,2,2,2,negative,neutral,k,k,1,1.030522800021572,394.7472275000182,395.770597499999,395.7239876000094,None,394.7472275000182,None,394.7472275000182,None,394.7472275000182,None,396.7647096900153,None,396.7647096900153,None,396.7647096900153,None,,,,,,,,,,,117,22,Female,2022-05-05_14h08.08.084,Boat,2022.1.1,59.87848260921227,
neutral,negative,1,k,k,,,,,,,,,6,4,112,7,,,,,,,,,,,,,,,,,,,,,,,,main,2,2,1,negative,neutral,k,k,1,0.8965218999946956,396.7813378999999,397.805465500016,397.76044149999507,None,396.7813378999999,None,396.7813378999999,None,396.7813378999999,None,398.66354419001146,None,398.66354419001146,None,398.66354419001146,None,,,,,,,,,,,117,22,Female,2022-05-05_14h08.08.084,Boat,2022.1.1,59.87848260921227,
negative,positive,2,j,l,,,,,,,,,6,5,113,15,,,,,,,,,,,,,,,,,,,,,,,,main,1,1,2,positive,negative,l,l,1,1.1178118000098038,398.6800603000156,399.691092699999,399.6555282000045,None,398.6800603000156,None,398.6800603000156,None,398.6800603000156,None,400.78484499001644,None,400.78484499001644,None,400.78484499001644,None,,,,,,,,,,,117,22,Female,2022-05-05_14h08.08.084,Boat,2022.1.1,59.87848260921227,
negative,neutral,1,j,l,,,,,,,,,6,6,114,3,,,,,,,,,,,,,,,,,,,,,,,,main,2,2,1,neutral,negative,l,l,1,0.8116646000125911,400.7984737000079,401.8117857000034,401.79364129999885,None,400.7984737000079,None,400.7984737000079,None,400.7984737000079,None,402.59840729001445,None,402.59840729001445,None,402.59840729001445,None,,,,,,,,,,,117,22,Female,2022-05-05_14h08.08.084,Boat,2022.1.1,59.87848260921227,
neutral,neutral,1,k,k,,,,,,,,,6,7,115,1,,,,,,,,,,,,,,,,,,,,,,,,main,1,1,1,neutral,neutral,k,k,1,0.9969376000226475,402.6134171000158,403.6277565000055,403.59136389999185,None,402.6134171000158,None,402.6134171000158,None,402.6134171000158,None,404.59764659001377,None,404.59764659001377,None,404.59764659001377,None,,,,,,,,,,,117,22,Female,2022-05-05_14h08.08.084,Boat,2022.1.1,59.87848260921227,
positive,neutral,1,l,j,,,,,,,,,6,8,116,8,,,,,,,,,,,,,,,,,,,,,,,,main,1,1,1,neutral,positive,j,j,1,0.7657632000045851,404.6132861000078,405.6263845000067,405.5900859000103,None,404.6132861000078,None,404.6132861000078,None,404.6132861000078,None,406.36526929000394,None,406.36526929000394,None,406.36526929000394,None,,,,,,,,,,,117,22,Female,2022-05-05_14h08.08.084,Boat,2022.1.1,59.87848260921227,
neutral,positive,1,k,k,,,,,,,,,6,9,117,4,,,,,,,,,,,,,,,,,,,,,,,,main,1,1,1,positive,neutral,k,k,1,1.0048136000114027,406.3827729000186,407.40529080000124,407.36045609999564,None,406.3827729000186,None,406.3827729000186,None,406.3827729000186,None,408.3738748900185,None,408.3738748900185,None,408.3738748900185,None,,,,,,,,,,,117,22,Female,2022-05-05_14h08.08.084,Boat,2022.1.1,59.87848260921227,
positive,positive,1,l,j,,,,,,,,,6,10,118,2,,,,,,,,,,,,,,,,,,,,,,,,main,1,1,1,positive,positive,j,j,1,0.7236771999741904,408.3938951000164,409.39409539999906,409.361207000009,None,408.3938951000164,None,408.3938951000164,None,408.3938951000164,None,410.09856099002064,None,410.09856099002064,None,410.09856099002064,None,,,,,,,,,,,117,22,Female,2022-05-05_14h08.08.084,Boat,2022.1.1,59.87848260921227,
positive,positive,2,l,j,,,,,,,,,6,11,119,11,,,,,,,,,,,,,,,,,,,,,,,,main,2,2,2,positive,positive,j,j,1,1.2281425000110175,410.11502260001726,411.127226600016,411.09392350001144,None,410.11502260001726,None,410.11502260001726,None,410.11502260001726,None,412.32973919000943,None,412.32973919000943,None,412.32973919000943,None,,,,,,,,,,,117,22,Female,2022-05-05_14h08.08.084,Boat,2022.1.1,59.87848260921227,
positive,neutral,2,l,j,,,,,,,,,6,12,120,17,,,,,,,,,,,,,,,,,,,,,,,,main,1,1,2,neutral,positive,j,j,1,0.6690773000009358,412.34598810001626,413.3590449000185,413.3232171999989,None,412.34598810001626,None,412.34598810001626,None,412.34598810001626,None,414.00200409000973,None,414.00200409000973,None,414.00200409000973,None,,,,,,,,,,,117,22,Female,2022-05-05_14h08.08.084,Boat,2022.1.1,59.87848260921227,
neutral,neutral,2,k,k,,,,,,,,,6,13,121,10,,,,,,,,,,,,,,,,,,,,,,,,main,2,2,2,neutral,neutral,k,k,1,0.9448540000012144,414.0177443000139,415.03913900000043,414.99426520001725,None,414.0177443000139,None,414.0177443000139,None,414.0177443000139,None,415.9484345899953,None,415.9484345899953,None,415.9484345899953,None,,,,,,,,,,,117,22,Female,2022-05-05_14h08.08.084,Boat,2022.1.1,59.87848260921227,
negative,negative,2,j,l,,,,,,,,,6,14,122,9,,,,,,,,,,,,,,,,,,,,,,,,main,2,2,2,negative,negative,l,l,1,0.8698931999970227,415.9641811000183,416.972436400014,416.9539333000139,None,415.9641811000183,None,415.9641811000183,None,415.9641811000183,None,417.82234039001634,None,417.82234039001634,None,417.82234039001634,None,,,,,,,,,,,117,22,Female,2022-05-05_14h08.08.084,Boat,2022.1.1,59.87848260921227,
positive,negative,1,l,j,,,,,,,,,6,15,123,5,,,,,,,,,,,,,,,,,,,,,,,,main,2,2,1,negative,positive,j,j,1,0.7759365000238176,417.8396386000095,418.85388750000857,418.8114266000048,None,417.8396386000095,None,417.8396386000095,None,417.8396386000095,None,419.59936199000805,None,419.59936199000805,None,419.59936199000805,None,,,,,,,,,,,117,22,Female,2022-05-05_14h08.08.084,Boat,2022.1.1,59.87848260921227,
neutral,positive,2,k,k,,,,,,,,,6,16,124,13,,,,,,,,,,,,,,,,,,,,,,,,main,2,2,2,positive,neutral,k,k,1,0.7797236000187695,419.61427079999703,420.6236731999961,420.60606600000756,None,419.61427079999703,None,419.61427079999703,None,419.61427079999703,None,421.379796289996,None,421.379796289996,None,421.379796289996,None,,,,,,,,,,,117,22,Female,2022-05-05_14h08.08.084,Boat,2022.1.1,59.87848260921227,
negative,neutral,2,j,l,,,,,,,,,6,17,125,12,,,,,,,,,,,,,,,,,,,,,,,,main,2,2,2,neutral,negative,l,l,1,0.798938799998723,421.39661440000054,422.4108481000003,422.3743622000038,None,421.39661440000054,None,421.39661440000054,None,421.39661440000054,None,423.1819522900158,None,423.1819522900158,None,423.1819522900158,None,,,,,,,,,,,117,22,Female,2022-05-05_14h08.08.084,Boat,2022.1.1,59.87848260921227,
neutral,positive,2,k,k,,,,,,,,,7,0,126,13,,,,,,,,,,,,,,,,,,,,,,,,main,2,2,2,positive,neutral,k,k,1,0.840296300011687,423.1991634000151,424.22074590000557,424.1776882999984,None,423.1991634000151,None,423.1991634000151,None,423.1991634000151,None,425.02625709002024,None,425.02625709002024,None,425.02625709002024,None,,,,,,,,,,,117,22,Female,2022-05-05_14h08.08.084,Boat,2022.1.1,59.87848260921227,
positive,positive,1,l,j,,,,,,,,,7,1,127,2,,,,,,,,,,,,,,,,,,,,,,,,main,2,2,1,positive,positive,j,j,1,0.8558994999912102,425.0451374000113,426.0626173999917,426.0265375000017,None,425.0451374000113,None,425.0451374000113,None,425.0451374000113,None,426.88329579001294,None,426.88329579001294,None,426.88329579001294,None,,,,,,,,,,,117,22,Female,2022-05-05_14h08.08.084,Boat,2022.1.1,59.87848260921227,
neutral,negative,1,k,k,,,,,,,,,7,2,128,7,,,,,,,,,,,,,,,,,,,,,,,,main,2,2,1,negative,neutral,k,k,1,1.2756852000020444,426.90152919999673,427.9107401999936,427.8741537000169,None,426.90152919999673,None,426.90152919999673,None,426.90152919999673,None,429.1619684900041,None,429.1619684900041,None,429.1619684900041,None,,,,,,,,,,,117,22,Female,2022-05-05_14h08.08.084,Boat,2022.1.1,59.87848260921227,
neutral,negative,2,k,k,,,,,,,,,7,3,129,16,,,,,,,,,,,,,,,,,,,,,,,,main,1,1,2,negative,neutral,k,k,1,0.9716622999985702,429.17958230001386,430.19392900000094,430.1571100000001,None,429.17958230001386,None,429.17958230001386,None,429.17958230001386,None,431.1454001800099,None,431.1454001800099,None,431.1454001800099,None,,,,,,,,,,,117,22,Female,2022-05-05_14h08.08.084,Boat,2022.1.1,59.87848260921227,
positive,negative,2,l,j,,,,,,,,,7,4,130,14,,,,,,,,,,,,,,,,,,,,,,,,main,1,1,2,negative,positive,j,j,1,0.870610999991186,431.16419850001694,432.17684990001726,432.1583892000199,None,431.16419850001694,None,431.16419850001694,None,431.16419850001694,None,433.01360529001687,None,433.01360529001687,None,433.01360529001687,None,,,,,,,,,,,117,22,Female,2022-05-05_14h08.08.084,Boat,2022.1.1,59.87848260921227,
positive,neutral,2,l,j,,,,,,,,,7,5,131,17,,,,,,,,,,,,,,,,,,,,,,,,main,1,1,2,neutral,positive,j,j,1,0.6693222000030801,433.0287085000018,434.0286272999947,434.01225810000324,None,433.0287085000018,None,433.0287085000018,None,433.0287085000018,None,434.68516859000084,None,434.68516859000084,None,434.68516859000084,None,,,,,,,,,,,117,22,Female,2022-05-05_14h08.08.084,Boat,2022.1.1,59.87848260921227,
negative,positive,1,j,l,,,,,,,,,7,6,132,6,,,,,,,,,,,,,,,,,,,,,,,,main,2,2,1,positive,negative,l,l,1,0.747893199993996,434.7005810000119,435.7110798000067,435.67505099999835,None,434.7005810000119,None,434.7005810000119,None,434.7005810000119,None,436.4348972900014,None,436.4348972900014,None,436.4348972900014,None,,,,,,,,,,,117,22,Female,2022-05-05_14h08.08.084,Boat,2022.1.1,59.87848260921227,
negative,positive,2,j,l,,,,,,,,,7,7,133,15,,,,,,,,,,,,,,,,,,,,,,,,main,1,1,2,positive,negative,l,l,1,0.8634582000086084,436.4511940999946,437.47311170000467,437.42822950001573,None,436.4511940999946,None,436.4511940999946,None,436.4511940999946,None,438.30133669000935,None,438.30133669000935,None,438.30133669000935,None,,,,,,,,,,,117,22,Female,2022-05-05_14h08.08.084,Boat,2022.1.1,59.87848260921227,
negative,negative,2,j,l,,,,,,,,,7,8,134,9,,,,,,,,,,,,,,,,,,,,,,,,main,2,2,2,negative,negative,l,l,1,0.8432550999859814,438.31702839999343,439.32699659999344,439.2911823000177,None,438.31702839999343,None,438.31702839999343,None,438.31702839999343,None,440.1474033900129,None,440.1474033900129,None,440.1474033900129,None,,,,,,,,,,,117,22,Female,2022-05-05_14h08.08.084,Boat,2022.1.1,59.87848260921227,
negative,neutral,1,j,l,,,,,,,,,7,9,135,3,,,,,,,,,,,,,,,,,,,,,,,,main,1,1,1,neutral,negative,l,l,1,1.0002562000008766,440.1626423000125,441.18955860001734,441.144240499998,None,440.1626423000125,None,440.1626423000125,None,440.1626423000125,None,442.1496708900202,None,442.1496708900202,None,442.1496708900202,None,,,,,,,,,,,117,22,Female,2022-05-05_14h08.08.084,Boat,2022.1.1,59.87848260921227,
neutral,neutral,2,k,k,,,,,,,,,7,10,136,10,,,,,,,,,,,,,,,,,,,,,,,,main,2,2,2,neutral,neutral,k,k,1,0.6955121000064537,442.16540590001387,443.1769947000139,443.1409709000145,None,442.16540590001387,None,442.16540590001387,None,442.16540590001387,None,443.84775478999364,None,443.84775478999364,None,443.84775478999364,None,,,,,,,,,,,117,22,Female,2022-05-05_14h08.08.084,Boat,2022.1.1,59.87848260921227,
neutral,positive,1,k,k,,,,,,,,,7,11,137,4,,,,,,,,,,,,,,,,,,,,,,,,main,1,1,1,positive,neutral,k,k,1,0.918848600005731,443.8633410000184,444.8733634999953,444.8547959999996,None,443.8633410000184,None,443.8633410000184,None,443.8633410000184,None,445.76936049000943,None,445.76936049000943,None,445.76936049000943,None,,,,,,,,,,,117,22,Female,2022-05-05_14h08.08.084,Boat,2022.1.1,59.87848260921227,
negative,neutral,2,j,l,,,,,,,,,7,12,138,12,,,,,,,,,,,,,,,,,,,,,,,,main,1,1,2,neutral,negative,l,k,0,0.5772141999914311,445.78529140001046,446.80615360001684,446.76223449999816,None,445.78529140001046,None,445.78529140001046,None,445.78529140001046,None,447.3529419999977,None,447.3529419999977,None,447.3529419999977,None,,,,,,,,,,,117,22,Female,2022-05-05_14h08.08.084,Boat,2022.1.1,59.87848260921227,
neutral,neutral,1,k,k,,,,,,,,,7,13,139,1,,,,,,,,,,,,,,,,,,,,,,,,main,1,1,1,neutral,neutral,k,k,1,0.8895151000178885,448.3625956000178,449.3782792999991,449.3432337999984,None,448.3625956000178,None,448.3625956000178,None,448.3625956000178,None,450.24022729000427,None,450.24022729000427,None,450.24022729000427,None,,,,,,,,,,,117,22,Female,2022-05-05_14h08.08.084,Boat,2022.1.1,59.87848260921227,
positive,positive,2,l,j,,,,,,,,,7,14,140,11,,,,,,,,,,,,,,,,,,,,,,,,main,2,2,2,positive,positive,j,j,1,0.8250872999778949,450.2592297999945,451.2602448000107,451.2419870000158,None,450.2592297999945,None,450.2592297999945,None,450.2592297999945,None,452.0668166900112,None,452.0668166900112,None,452.0668166900112,None,,,,,,,,,,,117,22,Female,2022-05-05_14h08.08.084,Boat,2022.1.1,59.87848260921227,
negative,negative,1,j,l,,,,,,,,,7,15,141,0,,,,,,,,,,,,,,,,,,,,,,,,main,1,1,1,negative,negative,l,l,1,0.7920421999879181,452.0824739999953,453.10635839999304,453.0618000999966,None,452.0824739999953,None,452.0824739999953,None,452.0824739999953,None,453.8617804900103,None,453.8617804900103,None,453.8617804900103,None,,,,,,,,,,,117,22,Female,2022-05-05_14h08.08.084,Boat,2022.1.1,59.87848260921227,
positive,negative,1,l,j,,,,,,,,,7,16,142,5,,,,,,,,,,,,,,,,,,,,,,,,main,2,2,1,negative,positive,j,j,1,1.389352499973029,453.87871730001643,454.90464140000404,454.85950920000323,None,453.87871730001643,None,453.87871730001643,None,453.87871730001643,None,456.2548940900131,None,456.2548940900131,None,456.2548940900131,None,,,,,,,,,,,117,22,Female,2022-05-05_14h08.08.084,Boat,2022.1.1,59.87848260921227,
positive,neutral,1,l,j,,,,,,,,,7,17,143,8,,,,,,,,,,,,,,,,,,,,,,,,main,1,1,1,neutral,positive,j,j,1,0.6778601999976672,456.27060230000643,457.2779010999948,457.24498700001277,None,456.27060230000643,None,456.27060230000643,None,456.27060230000643,None,457.93438979000786,None,457.93438979000786,None,457.93438979000786,None,,,,,,,,,,,117,22,Female,2022-05-05_14h08.08.084,Boat,2022.1.1,59.87848260921227,
neutral,neutral,1,k,k,,,,,,,,,8,0,144,1,,,,,,,,,,,,,,,,,,,,,,,,main,1,1,1,neutral,neutral,k,k,1,0.7116090999916196,457.9504334999947,458.97395050001796,458.9283920000016,None,457.9504334999947,None,457.9504334999947,None,457.9504334999947,None,459.6490902899939,None,459.6490902899939,None,459.6490902899939,None,,,,,,,,,,,117,22,Female,2022-05-05_14h08.08.084,Boat,2022.1.1,59.87848260921227,
neutral,neutral,2,k,k,,,,,,,,,8,1,145,10,,,,,,,,,,,,,,,,,,,,,,,,main,1,1,2,neutral,neutral,k,k,1,0.7949349000118673,459.66614770001615,460.67974510000204,460.6439292000141,None,459.66614770001615,None,459.66614770001615,None,459.66614770001615,None,461.4463181900035,None,461.4463181900035,None,461.4463181900035,None,,,,,,,,,,,117,22,Female,2022-05-05_14h08.08.084,Boat,2022.1.1,59.87848260921227,
neutral,positive,1,k,k,,,,,,,,,8,2,146,4,,,,,,,,,,,,,,,,,,,,,,,,main,2,2,1,positive,neutral,k,k,1,0.6837853000033647,461.4661340000166,462.4882995999942,462.44266739999875,None,461.4661340000166,None,461.4661340000166,None,461.4661340000166,None,463.1330935900158,None,463.1330935900158,None,463.1330935900158,None,,,,,,,,,,,117,22,Female,2022-05-05_14h08.08.084,Boat,2022.1.1,59.87848260921227,
positive,positive,1,l,j,,,,,,,,,8,3,147,2,,,,,,,,,,,,,,,,,,,,,,,,main,1,1,1,positive,positive,j,j,1,0.6467022999713663,463.15032320001046,464.1616431000002,464.1265291000018,None,463.15032320001046,None,463.15032320001046,None,463.15032320001046,None,464.78236509002164,None,464.78236509002164,None,464.78236509002164,None,,,,,,,,,,,117,22,Female,2022-05-05_14h08.08.084,Boat,2022.1.1,59.87848260921227,
neutral,negative,2,k,k,,,,,,,,,8,4,148,16,,,,,,,,,,,,,,,,,,,,,,,,main,2,2,2,negative,neutral,k,k,1,0.6834622999886051,464.7999287999992,465.8115763000096,465.775149299996,None,464.7999287999992,None,464.7999287999992,None,464.7999287999992,None,466.46877479001415,None,466.46877479001415,None,466.46877479001415,None,,,,,,,,,,,117,22,Female,2022-05-05_14h08.08.084,Boat,2022.1.1,59.87848260921227,
positive,negative,2,l,j,,,,,,,,,8,5,149,14,,,,,,,,,,,,,,,,,,,,,,,,main,2,2,2,negative,positive,j,j,1,0.6933951999817509,466.4861740000197,467.5068749000202,467.46138890000293,None,466.4861740000197,None,466.4861740000197,None,466.4861740000197,None,468.1651937899995,None,468.1651937899995,None,468.1651937899995,None,,,,,,,,,,,117,22,Female,2022-05-05_14h08.08.084,Boat,2022.1.1,59.87848260921227,
neutral,negative,1,k,k,,,,,,,,,8,6,150,7,,,,,,,,,,,,,,,,,,,,,,,,main,2,2,1,negative,neutral,k,k,1,0.6091143999947235,468.1810853999923,469.20531960000517,469.1624012000102,None,468.1810853999923,None,468.1810853999923,None,468.1810853999923,None,469.77760999001913,None,469.77760999001913,None,469.77760999001913,None,,,,,,,,,,,117,22,Female,2022-05-05_14h08.08.084,Boat,2022.1.1,59.87848260921227,
negative,negative,2,j,l,,,,,,,,,8,7,151,9,,,,,,,,,,,,,,,,,,,,,,,,main,2,2,2,negative,negative,l,l,1,0.7880011999804992,469.79569200001424,470.80799210001715,470.79003730000113,None,469.79569200001424,None,469.79569200001424,None,469.79569200001424,None,471.5675226900028,None,471.5675226900028,None,471.5675226900028,None,,,,,,,,,,,117,22,Female,2022-05-05_14h08.08.084,Boat,2022.1.1,59.87848260921227,
positive,neutral,1,l,j,,,,,,,,,8,8,152,8,,,,,,,,,,,,,,,,,,,,,,,,main,2,2,1,neutral,positive,j,j,1,0.6992464000068139,471.58646700001555,472.6051903000043,472.5619394000096,None,471.58646700001555,None,471.58646700001555,None,471.58646700001555,None,473.27115239000415,None,473.27115239000415,None,473.27115239000415,None,,,,,,,,,,,117,22,Female,2022-05-05_14h08.08.084,Boat,2022.1.1,59.87848260921227,
negative,negative,1,j,l,,,,,,,,,8,9,153,0,,,,,,,,,,,,,,,,,,,,,,,,main,1,1,1,negative,negative,l,l,1,0.8855397000152152,473.28686089999974,474.30669250001665,474.26271450001514,None,473.28686089999974,None,473.28686089999974,None,473.28686089999974,None,475.1587400900142,None,475.1587400900142,None,475.1587400900142,None,,,,,,,,,,,117,22,Female,2022-05-05_14h08.08.084,Boat,2022.1.1,59.87848260921227,
negative,positive,1,j,l,,,,,,,,,8,10,154,6,,,,,,,,,,,,,,,,,,,,,,,,main,2,2,1,positive,negative,l,l,1,0.8256183000048622,475.178499200003,476.2051560000109,476.1582844000077,None,475.178499200003,None,475.178499200003,None,475.178499200003,None,476.9856736899936,None,476.9856736899936,None,476.9856736899936,None,,,,,,,,,,,117,22,Female,2022-05-05_14h08.08.084,Boat,2022.1.1,59.87848260921227,
negative,neutral,1,j,l,,,,,,,,,8,11,155,3,,,,,,,,,,,,,,,,,,,,,,,,main,2,2,1,neutral,negative,l,l,1,0.7945554000034463,477.0025277000095,478.02176420000615,477.97902080000495,None,477.0025277000095,None,477.0025277000095,None,477.0025277000095,None,478.7818106900202,None,478.7818106900202,None,478.7818106900202,None,,,,,,,,,,,117,22,Female,2022-05-05_14h08.08.084,Boat,2022.1.1,59.87848260921227,
positive,positive,2,l,j,,,,,,,,,8,12,156,11,,,,,,,,,,,,,,,,,,,,,,,,main,1,1,2,positive,positive,j,k,0,0.7465077000088058,478.8005981000024,479.8123737999995,479.77549709999585,None,478.8005981000024,None,478.8005981000024,None,478.8005981000024,None,480.5352600000042,None,480.5352600000042,None,480.5352600000042,None,,,,,,,,,,,117,22,Female,2022-05-05_14h08.08.084,Boat,2022.1.1,59.87848260921227,
positive,negative,1,l,j,,,,,,,,,8,13,157,5,,,,,,,,,,,,,,,,,,,,,,,,main,1,1,1,negative,positive,j,j,1,0.6987489000021014,481.5491846000077,482.56064400001196,482.542420200014,None,481.5491846000077,None,481.5491846000077,None,481.5491846000077,None,483.23254829000217,None,483.23254829000217,None,483.23254829000217,None,,,,,,,,,,,117,22,Female,2022-05-05_14h08.08.084,Boat,2022.1.1,59.87848260921227,
neutral,positive,2,k,k,,,,,,,,,8,14,158,13,,,,,,,,,,,,,,,,,,,,,,,,main,2,2,2,positive,neutral,k,k,1,0.6808578000054695,483.24834170000395,484.26476770002046,484.22652950001066,None,483.24834170000395,None,483.24834170000395,None,483.24834170000395,None,484.91606908999967,None,484.91606908999967,None,484.91606908999967,None,,,,,,,,,,,117,22,Female,2022-05-05_14h08.08.084,Boat,2022.1.1,59.87848260921227,
negative,neutral,2,j,l,,,,,,,,,8,15,159,12,,,,,,,,,,,,,,,,,,,,,,,,main,2,2,2,neutral,negative,l,k,0,0.6995864000055008,484.9315099999949,485.9556683000119,485.912536799995,None,484.9315099999949,None,484.9315099999949,None,484.9315099999949,None,486.62185429999954,None,486.62185429999954,None,486.62185429999954,None,,,,,,,,,,,117,22,Female,2022-05-05_14h08.08.084,Boat,2022.1.1,59.87848260921227,
negative,positive,2,j,l,,,,,,,,,8,16,160,15,,,,,,,,,,,,,,,,,,,,,,,,main,2,2,2,positive,negative,l,l,1,0.7681231000169646,487.6304814000032,488.6456451000122,488.61091400001897,None,487.6304814000032,None,487.6304814000032,None,487.6304814000032,None,489.38390969000176,None,489.38390969000176,None,489.38390969000176,None,,,,,,,,,,,117,22,Female,2022-05-05_14h08.08.084,Boat,2022.1.1,59.87848260921227,
positive,neutral,2,l,j,,,,,,,,,8,17,161,17,,,,,,,,,,,,,,,,,,,,,,,,main,2,2,2,neutral,positive,j,j,1,1.1903141000075266,489.40170640000724,490.4128113000188,490.37587640000856,None,489.40170640000724,None,489.40170640000724,None,489.40170640000724,None,491.5788614900201,None,491.5788614900201,None,491.5788614900201,None,,,,,,,,,,,117,22,Female,2022-05-05_14h08.08.084,Boat,2022.1.1,59.87848260921227,
positive,positive,1,l,j,,,,,,,,,9,0,162,2,,,,,,,,,,,,,,,,,,,,,,,,main,2,2,1,positive,positive,j,j,1,0.8022827999957372,491.5971414000087,492.60853870000574,492.5904283999989,None,491.5971414000087,None,491.5971414000087,None,491.5971414000087,None,493.3840873900161,None,493.3840873900161,None,493.3840873900161,None,,,,,,,,,,,117,22,Female,2022-05-05_14h08.08.084,Boat,2022.1.1,59.87848260921227,
negative,positive,2,j,l,,,,,,,,,9,1,163,15,,,,,,,,,,,,,,,,,,,,,,,,main,1,1,2,positive,negative,l,l,1,0.8130873000191059,493.40277590000187,494.4238964999968,494.37905200000387,None,493.40277590000187,None,493.40277590000187,None,493.40277590000187,None,495.19958528999706,None,495.19958528999706,None,495.19958528999706,None,,,,,,,,,,,117,22,Female,2022-05-05_14h08.08.084,Boat,2022.1.1,59.87848260921227,
negative,neutral,2,j,l,,,,,,,,,9,2,164,12,,,,,,,,,,,,,,,,,,,,,,,,main,1,1,2,neutral,negative,l,l,1,0.7258470999950077,495.21585269999923,496.2391513000184,496.19413150000037,None,495.21585269999923,None,495.21585269999923,None,495.21585269999923,None,496.92927398999456,None,496.92927398999456,None,496.92927398999456,None,,,,,,,,,,,117,22,Female,2022-05-05_14h08.08.084,Boat,2022.1.1,59.87848260921227,
positive,neutral,2,l,j,,,,,,,,,9,3,165,17,,,,,,,,,,,,,,,,,,,,,,,,main,2,2,2,neutral,positive,j,j,1,0.705383200023789,496.9472386999987,497.94603270001244,497.92963640001835,None,496.9472386999987,None,496.9472386999987,None,496.9472386999987,None,498.6372770900023,None,498.6372770900023,None,498.6372770900023,None,,,,,,,,,,,117,22,Female,2022-05-05_14h08.08.084,Boat,2022.1.1,59.87848260921227,
negative,positive,1,j,l,,,,,,,,,9,4,166,6,,,,,,,,,,,,,,,,,,,,,,,,main,1,1,1,positive,negative,l,l,1,0.7415393999835942,498.65752820001217,499.6627031000098,499.6254727000196,None,498.65752820001217,None,498.65752820001217,None,498.65752820001217,None,500.3814412900072,None,500.3814412900072,None,500.3814412900072,None,,,,,,,,,,,117,22,Female,2022-05-05_14h08.08.084,Boat,2022.1.1,59.87848260921227,
neutral,neutral,2,k,k,,,,,,,,,9,5,167,10,,,,,,,,,,,,,,,,,,,,,,,,main,2,2,2,neutral,neutral,k,k,1,0.6697907000198029,500.3969997999957,501.41280730001745,501.3793352000066,None,500.3969997999957,None,500.3969997999957,None,500.3969997999957,None,502.05345309000114,None,502.05345309000114,None,502.05345309000114,None,,,,,,,,,,,117,22,Female,2022-05-05_14h08.08.084,Boat,2022.1.1,59.87848260921227,
negative,negative,1,j,l,,,,,,,,,9,6,168,0,,,,,,,,,,,,,,,,,,,,,,,,main,2,2,1,negative,negative,l,l,1,0.7475642999925185,502.06971760001034,503.07935479999287,503.04446170001756,None,502.06971760001034,None,502.06971760001034,None,502.06971760001034,None,503.8043801900174,None,503.8043801900174,None,503.8043801900174,None,,,,,,,,,,,117,22,Female,2022-05-05_14h08.08.084,Boat,2022.1.1,59.87848260921227,
negative,neutral,1,j,l,,,,,,,,,9,7,169,3,,,,,,,,,,,,,,,,,,,,,,,,main,2,2,1,neutral,negative,l,l,1,0.828191800013883,503.8203343000205,504.83946250000736,504.7961682000023,None,503.8203343000205,None,503.8203343000205,None,503.8203343000205,None,505.63382619000623,None,505.63382619000623,None,505.63382619000623,None,,,,,,,,,,,117,22,Female,2022-05-05_14h08.08.084,Boat,2022.1.1,59.87848260921227,
positive,negative,2,l,j,,,,,,,,,9,8,170,14,,,,,,,,,,,,,,,,,,,,,,,,main,1,1,2,negative,positive,j,j,1,1.0599748000095133,505.65237850000267,506.6617378999945,506.6257646000013,None,505.65237850000267,None,505.65237850000267,None,505.65237850000267,None,507.6973808900046,None,507.6973808900046,None,507.6973808900046,None,,,,,,,,,,,117,22,Female,2022-05-05_14h08.08.084,Boat,2022.1.1,59.87848260921227,
neutral,neutral,1,k,k,,,,,,,,,9,9,171,1,,,,,,,,,,,,,,,,,,,,,,,,main,2,2,1,neutral,neutral,k,k,1,0.6957473999937065,507.71278289999464,508.7127382000035,508.6960067000182,None,507.71278289999464,None,507.71278289999464,None,507.71278289999464,None,509.39609259001446,None,509.39609259001446,None,509.39609259001446,None,,,,,,,,,,,117,22,Female,2022-05-05_14h08.08.084,Boat,2022.1.1,59.87848260921227,
neutral,positive,1,k,k,,,,,,,,,9,10,172,4,,,,,,,,,,,,,,,,,,,,,,,,main,2,2,1,positive,neutral,k,k,1,0.6973410999926273,509.41336540001794,510.413069000002,510.39636270000483,None,509.41336540001794,None,509.41336540001794,None,509.41336540001794,None,511.0966610900185,None,511.0966610900185,None,511.0966610900185,None,,,,,,,,,,,117,22,Female,2022-05-05_14h08.08.084,Boat,2022.1.1,59.87848260921227,
positive,negative,1,l,j,,,,,,,,,9,11,173,5,,,,,,,,,,,,,,,,,,,,,,,,main,1,1,1,negative,positive,j,j,1,1.4208455000189133,511.1138822000066,512.1154616000131,512.0981067999965,None,511.1138822000066,None,511.1138822000066,None,511.1138822000066,None,513.5200429899967,None,513.5200429899967,None,513.5200429899967,None,,,,,,,,,,,117,22,Female,2022-05-05_14h08.08.084,Boat,2022.1.1,59.87848260921227,
negative,negative,2,j,l,,,,,,,,,9,12,174,9,,,,,,,,,,,,,,,,,,,,,,,,main,2,2,2,negative,negative,l,l,1,0.7892131000116933,513.5355689999997,514.5462976999988,514.5122307999991,None,513.5355689999997,None,513.5355689999997,None,513.5355689999997,None,515.3129552900034,None,515.3129552900034,None,515.3129552900034,None,,,,,,,,,,,117,22,Female,2022-05-05_14h08.08.084,Boat,2022.1.1,59.87848260921227,
neutral,positive,2,k,k,,,,,,,,,9,13,175,13,,,,,,,,,,,,,,,,,,,,,,,,main,1,1,2,positive,neutral,k,k,1,1.7332865000062156,515.3299618000165,516.3433767000097,516.3080050999997,None,515.3299618000165,None,515.3299618000165,None,515.3299618000165,None,518.0526946000173,None,518.0526946000173,None,518.0526946000173,None,,,,,,,,,,,117,22,Female,2022-05-05_14h08.08.084,Boat,2022.1.1,59.87848260921227,
neutral,negative,2,k,k,,,,,,,,,9,14,176,16,,,,,,,,,,,,,,,,,,,,,,,,main,1,1,2,negative,neutral,k,k,1,1.3342650000122376,519.0649458999978,520.0898817999987,520.0465286000108,None,519.0649458999978,None,519.0649458999978,None,519.0649458999978,None,521.3841003899986,None,521.3841003899986,None,521.3841003899986,None,,,,,,,,,,,117,22,Female,2022-05-05_14h08.08.084,Boat,2022.1.1,59.87848260921227,
positive,positive,2,l,j,,,,,,,,,9,15,177,11,,,,,,,,,,,,,,,,,,,,,,,,main,2,2,2,positive,positive,j,j,1,0.6826452999957837,521.40266230001,522.4249153000128,522.3797039999918,None,521.40266230001,None,521.40266230001,None,521.40266230001,None,523.0703253900108,None,523.0703253900108,None,523.0703253900108,None,,,,,,,,,,,117,22,Female,2022-05-05_14h08.08.084,Boat,2022.1.1,59.87848260921227,
neutral,negative,1,k,k,,,,,,,,,9,16,178,7,,,,,,,,,,,,,,,,,,,,,,,,main,1,1,1,negative,neutral,k,k,1,0.8138235000078566,523.086318799993,524.0911572000186,524.073009100015,None,523.086318799993,None,523.086318799993,None,523.086318799993,None,524.8878734900034,None,524.8878734900034,None,524.8878734900034,None,,,,,,,,,,,117,22,Female,2022-05-05_14h08.08.084,Boat,2022.1.1,59.87848260921227,
positive,neutral,1,l,j,,,,,,,,,9,17,179,8,,,,,,,,,,,,,,,,,,,,,,,,main,1,1,1,neutral,positive,j,j,1,0.7948291999928188,524.907635600015,525.927093300008,525.889633600018,None,524.907635600015,None,524.907635600015,None,524.907635600015,None,526.6843987900181,None,526.6843987900181,None,526.6843987900181,None,,,,,,,,,,,117,22,Female,2022-05-05_14h08.08.084,Boat,2022.1.1,59.87848260921227,
positive,negative,1,l,j,,,,,,,,,10,0,180,5,,,,,,,,,,,,,,,,,,,,,,,,main,2,2,1,negative,positive,j,j,1,0.7300036999804433,526.6997944000177,527.7247422999935,527.6799071000132,None,526.6997944000177,None,526.6997944000177,None,526.6997944000177,None,528.4152520900068,None,528.4152520900068,None,528.4152520900068,None,,,,,,,,,,,117,22,Female,2022-05-05_14h08.08.084,Boat,2022.1.1,59.87848260921227,
neutral,neutral,2,k,k,,,,,,,,,10,1,181,10,,,,,,,,,,,,,,,,,,,,,,,,main,1,1,2,neutral,neutral,k,k,1,0.782827700022608,528.4317573000153,529.4564544000023,529.4136105999933,None,528.4317573000153,None,528.4317573000153,None,528.4317573000153,None,530.20193249,None,530.20193249,None,530.20193249,None,,,,,,,,,,,117,22,Female,2022-05-05_14h08.08.084,Boat,2022.1.1,59.87848260921227,
neutral,negative,2,k,k,,,,,,,,,10,2,182,16,,,,,,,,,,,,,,,,,,,,,,,,main,1,1,2,negative,neutral,k,k,1,1.1141229000058956,530.2176969000138,531.2306189000083,531.1937480000197,None,530.2176969000138,None,530.2176969000138,None,530.2176969000138,None,532.3185093900072,None,532.3185093900072,None,532.3185093900072,None,,,,,,,,,,,117,22,Female,2022-05-05_14h08.08.084,Boat,2022.1.1,59.87848260921227,
positive,neutral,1,l,j,,,,,,,,,10,3,183,8,,,,,,,,,,,,,,,,,,,,,,,,main,2,2,1,neutral,positive,j,j,1,0.7824888000031933,532.3337863000052,533.3563380000123,533.3136268999951,None,532.3337863000052,None,532.3337863000052,None,532.3337863000052,None,534.103069090005,None,534.103069090005,None,534.103069090005,None,,,,,,,,,,,117,22,Female,2022-05-05_14h08.08.084,Boat,2022.1.1,59.87848260921227,
negative,neutral,2,j,l,,,,,,,,,10,4,184,12,,,,,,,,,,,,,,,,,,,,,,,,main,1,1,2,neutral,negative,l,l,1,1.706718900008127,534.1204344000143,535.1417815000168,535.0980312000029,None,534.1204344000143,None,534.1204344000143,None,534.1204344000143,None,536.8166363000055,None,536.8166363000055,None,536.8166363000055,None,,,,,,,,,,,117,22,Female,2022-05-05_14h08.08.084,Boat,2022.1.1,59.87848260921227,
positive,positive,1,l,j,,,,,,,,,10,5,185,2,,,,,,,,,,,,,,,,,,,,,,,,main,1,1,1,positive,positive,j,j,1,1.0632386999786831,537.8318343000137,538.8326381999941,538.8151862999948,None,537.8318343000137,None,537.8318343000137,None,537.8318343000137,None,539.8815895900013,None,539.8815895900013,None,539.8815895900013,None,,,,,,,,,,,117,22,Female,2022-05-05_14h08.08.084,Boat,2022.1.1,59.87848260921227,
negative,negative,2,j,l,,,,,,,,,10,6,186,9,,,,,,,,,,,,,,,,,,,,,,,,main,1,1,2,negative,negative,l,l,1,0.8799716999928933,539.8976746000117,540.9070051000162,540.8800652000064,None,539.8976746000117,None,539.8976746000117,None,539.8976746000117,None,541.7644200899929,None,541.7644200899929,None,541.7644200899929,None,,,,,,,,,,,117,22,Female,2022-05-05_14h08.08.084,Boat,2022.1.1,59.87848260921227,
neutral,neutral,1,k,k,,,,,,,,,10,7,187,1,,,,,,,,,,,,,,,,,,,,,,,,main,1,1,1,neutral,neutral,k,k,1,0.900016500003403,541.7822893999983,542.7949515999935,542.7592392000079,None,541.7822893999983,None,541.7822893999983,None,541.7822893999983,None,543.6672358900075,None,543.6672358900075,None,543.6672358900075,None,,,,,,,,,,,117,22,Female,2022-05-05_14h08.08.084,Boat,2022.1.1,59.87848260921227,
neutral,positive,1,k,k,,,,,,,,,10,8,188,4,,,,,,,,,,,,,,,,,,,,,,,,main,2,2,1,positive,neutral,k,k,1,0.718056899990188,543.6841460000142,544.6970097000012,544.6635941000131,None,543.6841460000142,None,543.6841460000142,None,543.6841460000142,None,545.38976119,None,545.38976119,None,545.38976119,None,,,,,,,,,,,117,22,Female,2022-05-05_14h08.08.084,Boat,2022.1.1,59.87848260921227,
negative,neutral,1,j,l,,,,,,,,,10,9,189,3,,,,,,,,,,,,,,,,,,,,,,,,main,2,2,1,neutral,negative,l,l,1,0.8620234999980312,545.4036388999957,546.4136490999954,546.396800699993,None,545.4036388999957,None,545.4036388999957,None,545.4036388999957,None,547.2521602900058,None,547.2521602900058,None,547.2521602900058,None,,,,,,,,,,,117,22,Female,2022-05-05_14h08.08.084,Boat,2022.1.1,59.87848260921227,
negative,positive,1,j,l,,,,,,,,,10,10,190,6,,,,,,,,,,,,,,,,,,,,,,,,main,2,2,1,positive,negative,l,l,1,0.6975095999951009,547.2673021999944,548.2901202999929,548.247569500003,None,547.2673021999944,None,547.2673021999944,None,547.2673021999944,None,548.9521004899987,None,548.9521004899987,None,548.9521004899987,None,,,,,,,,,,,117,22,Female,2022-05-05_14h08.08.084,Boat,2022.1.1,59.87848260921227,
positive,negative,2,l,j,,,,,,,,,10,11,191,14,,,,,,,,,,,,,,,,,,,,,,,,main,2,2,2,negative,positive,j,j,1,0.7788842000009026,548.9688858000154,549.9900191000197,549.9471728999924,None,548.9688858000154,None,548.9688858000154,None,548.9688858000154,None,550.7336376900028,None,550.7336376900028,None,550.7336376900028,None,,,,,,,,,,,117,22,Female,2022-05-05_14h08.08.084,Boat,2022.1.1,59.87848260921227,
neutral,negative,1,k,k,,,,,,,,,10,12,192,7,,,,,,,,,,,,,,,,,,,,,,,,main,2,2,1,negative,neutral,k,k,1,0.7597795999899972,550.7494046000065,551.7601498000149,551.7420834999939,None,550.7494046000065,None,550.7494046000065,None,550.7494046000065,None,552.4967882900207,None,552.4967882900207,None,552.4967882900207,None,,,,,,,,,,,117,22,Female,2022-05-05_14h08.08.084,Boat,2022.1.1,59.87848260921227,
positive,positive,2,l,j,,,,,,,,,10,13,193,11,,,,,,,,,,,,,,,,,,,,,,,,main,1,1,2,positive,positive,j,j,1,0.8018826000043191,552.514110499993,553.5305780000053,553.494470900012,None,552.514110499993,None,552.514110499993,None,552.514110499993,None,554.300521089998,None,554.300521089998,None,554.300521089998,None,,,,,,,,,,,117,22,Female,2022-05-05_14h08.08.084,Boat,2022.1.1,59.87848260921227,
negative,positive,2,j,l,,,,,,,,,10,14,194,15,,,,,,,,,,,,,,,,,,,,,,,,main,2,2,2,positive,negative,l,l,1,0.6789614999725018,554.3178263000154,555.3308569999936,555.2945089999994,None,554.3178263000154,None,554.3178263000154,None,554.3178263000154,None,555.9825455900107,None,555.9825455900107,None,555.9825455900107,None,,,,,,,,,,,117,22,Female,2022-05-05_14h08.08.084,Boat,2022.1.1,59.87848260921227,
negative,negative,1,j,l,,,,,,,,,10,15,195,0,,,,,,,,,,,,,,,,,,,,,,,,main,2,2,1,negative,negative,l,l,1,0.7809565000061411,555.9993961,557.0234644000011,556.9807382000145,None,555.9993961,None,555.9993961,None,555.9993961,None,557.76568879002,None,557.76568879002,None,557.76568879002,None,,,,,,,,,,,117,22,Female,2022-05-05_14h08.08.084,Boat,2022.1.1,59.87848260921227,
positive,neutral,2,l,j,,,,,,,,,10,16,196,17,,,,,,,,,,,,,,,,,,,,,,,,main,2,2,2,neutral,positive,j,j,1,0.8192791999899782,557.782626900007,558.7919204999926,558.7739350000047,None,557.782626900007,None,557.782626900007,None,557.782626900007,None,559.587213189993,None,559.587213189993,None,559.587213189993,None,,,,,,,,,,,117,22,Female,2022-05-05_14h08.08.084,Boat,2022.1.1,59.87848260921227,
neutral,positive,2,k,k,,,,,,,,,10,17,197,13,,,,,,,,,,,,,,,,,,,,,,,,main,2,2,2,positive,neutral,k,k,1,0.8462800999986939,559.6035453999939,560.6139343999967,560.5774269000103,None,559.6035453999939,None,559.6035453999939,None,559.6035453999939,None,561.4353684900095,None,561.4353684900095,None,561.4353684900095,None,,,,,,,,,,,117,22,Female,2022-05-05_14h08.08.084,Boat,2022.1.1,59.87848260921227,
positive,neutral,2,l,j,,,,,,,,,11,0,198,17,,,,,,,,,,,,,,,,,,,,,,,,main,2,2,2,neutral,positive,j,k,0,0.8309169000131078,561.4527211000095,562.4758277999936,562.4305357999983,None,561.4527211000095,None,561.4527211000095,None,561.4527211000095,None,563.2757162000053,None,563.2757162000053,None,563.2757162000053,None,,,,,,,,,,,117,22,Female,2022-05-05_14h08.08.084,Boat,2022.1.1,59.87848260921227,
negative,positive,2,j,l,,,,,,,,,11,1,199,15,,,,,,,,,,,,,,,,,,,,,,,,main,2,2,2,positive,negative,l,l,1,0.860903299995698,564.285457799997,565.2976393999998,565.2790087000176,None,564.285457799997,None,564.285457799997,None,564.285457799997,None,566.1313174899958,None,566.1313174899958,None,566.1313174899958,None,,,,,,,,,,,117,22,Female,2022-05-05_14h08.08.084,Boat,2022.1.1,59.87848260921227,
neutral,neutral,2,k,k,,,,,,,,,11,2,200,10,,,,,,,,,,,,,,,,,,,,,,,,main,1,1,2,neutral,neutral,k,k,1,0.7575154999794904,566.1508808000071,567.1634472000005,567.1270222000021,None,566.1508808000071,None,566.1508808000071,None,566.1508808000071,None,567.8926767899945,None,567.8926767899945,None,567.8926767899945,None,,,,,,,,,,,117,22,Female,2022-05-05_14h08.08.084,Boat,2022.1.1,59.87848260921227,
negative,negative,1,j,l,,,,,,,,,11,3,201,0,,,,,,,,,,,,,,,,,,,,,,,,main,2,2,1,negative,negative,l,l,1,0.8691621999896597,567.9117777000065,568.9140084999963,568.8976707000111,None,567.9117777000065,None,567.9117777000065,None,567.9117777000065,None,569.7643850900174,None,569.7643850900174,None,569.7643850900174,None,,,,,,,,,,,117,22,Female,2022-05-05_14h08.08.084,Boat,2022.1.1,59.87848260921227,
neutral,neutral,1,k,k,,,,,,,,,11,4,202,1,,,,,,,,,,,,,,,,,,,,,,,,main,1,1,1,neutral,neutral,k,k,1,1.0348991999926511,569.78257760001,570.7973187000025,570.762398299994,None,569.78257760001,None,569.78257760001,None,569.78257760001,None,571.8023913900076,None,571.8023913900076,None,571.8023913900076,None,,,,,,,,,,,117,22,Female,2022-05-05_14h08.08.084,Boat,2022.1.1,59.87848260921227,
negative,negative,2,j,l,,,,,,,,,11,5,203,9,,,,,,,,,,,,,,,,,,,,,,,,main,1,1,2,negative,negative,l,l,1,0.8365540000086185,571.8197800999915,572.8421115000092,572.7972427000059,None,571.8197800999915,None,571.8197800999915,None,571.8197800999915,None,573.6435186900023,None,573.6435186900023,None,573.6435186900023,None,,,,,,,,,,,117,22,Female,2022-05-05_14h08.08.084,Boat,2022.1.1,59.87848260921227,
positive,positive,2,l,j,,,,,,,,,11,6,204,11,,,,,,,,,,,,,,,,,,,,,,,,main,2,2,2,positive,positive,j,j,1,1.318791700003203,573.6615724000148,574.6754288999946,574.6306057000184,None,573.6615724000148,None,573.6615724000148,None,573.6615724000148,None,575.9644650899979,None,575.9644650899979,None,575.9644650899979,None,,,,,,,,,,,117,22,Female,2022-05-05_14h08.08.084,Boat,2022.1.1,59.87848260921227,
neutral,negative,1,k,k,,,,,,,,,11,7,205,7,,,,,,,,,,,,,,,,,,,,,,,,main,2,2,1,negative,neutral,k,k,1,1.3094035999965854,575.9790469,576.9972241999931,576.9608562999929,None,575.9790469,None,575.9790469,None,575.9790469,None,578.2763277900056,None,578.2763277900056,None,578.2763277900056,None,,,,,,,,,,,117,22,Female,2022-05-05_14h08.08.084,Boat,2022.1.1,59.87848260921227,
neutral,positive,1,k,k,,,,,,,,,11,8,206,4,,,,,,,,,,,,,,,,,,,,,,,,main,1,1,1,positive,neutral,k,k,1,0.951390000001993,578.2957204999984,579.2966905999929,579.2783929000143,None,578.2957204999984,None,578.2957204999984,None,578.2957204999984,None,580.2311113900039,None,580.2311113900039,None,580.2311113900039,None,,,,,,,,,,,117,22,Female,2022-05-05_14h08.08.084,Boat,2022.1.1,59.87848260921227,
positive,neutral,1,l,j,,,,,,,,,11,9,207,8,,,,,,,,,,,,,,,,,,,,,,,,main,2,2,1,neutral,positive,j,j,1,1.1628882999939378,580.2477881000086,581.2767272999918,581.2292191000015,None,580.2477881000086,None,580.2477881000086,None,580.2477881000086,None,582.3977795899962,None,582.3977795899962,None,582.3977795899962,None,,,,,,,,,,,117,22,Female,2022-05-05_14h08.08.084,Boat,2022.1.1,59.87848260921227,
negative,positive,1,j,l,,,,,,,,,11,10,208,6,,,,,,,,,,,,,,,,,,,,,,,,main,1,1,1,positive,negative,l,l,1,0.9518425999849569,582.4132596999989,583.4167516000161,583.3824910999974,None,582.4132596999989,None,582.4132596999989,None,582.4132596999989,None,584.3511984899931,None,584.3511984899931,None,584.3511984899931,None,,,,,,,,,,,117,22,Female,2022-05-05_14h08.08.084,Boat,2022.1.1,59.87848260921227,
