target,distractor,set,ans1,ans2,rep_loop2.thisRepN,rep_loop2.thisTrialN,rep_loop2.thisN,rep_loop2.thisIndex,flanker_prac_loop.thisRepN,flanker_prac_loop.thisTrialN,flanker_prac_loop.thisN,flanker_prac_loop.thisIndex,flanker_main_loop.thisRepN,flanker_main_loop.thisTrialN,flanker_main_loop.thisN,flanker_main_loop.thisIndex,fl_inst_resp.keys,mouse.x,mouse.y,mouse.leftButton,mouse.midButton,mouse.rightButton,mouse.started,mouse.stopped,sound_1.started,sound_1.stopped,no_text.started,no_text.stopped,yes_text.started,yes_text.stopped,mouse_2.x,mouse_2.y,mouse_2.leftButton,mouse_2.midButton,mouse_2.rightButton,mouse_2.started,mouse_2.stopped,back_2.started,back_2.stopped,main_prac,fl_cold,fl_colt,fl_set,fl_dcond,fl_tcond,fl_ans,fl_res,fl_corr,fl_rt,fix_fl.started,fix_fl.stopped,targ.started,targ.stopped,j_button.started,j_button.stopped,k_button.started,k_button.stopped,l_button.started,l_button.stopped,j_button2.started,j_button2.stopped,k_button2.started,k_button2.stopped,l_button2.started,l_button2.stopped,mainback.started,mainback.stopped,key_resp.keys,mouse_6.x,mouse_6.y,mouse_6.leftButton,mouse_6.midButton,mouse_6.rightButton,mouse_6.started,mouse_6.stopped,id*,age*,gender*,date,expName,psychopyVersion,frameRate,
,,,,,0,0,0,0,,,,,,,,,None,-0.2787037,-0.40462962,0,0,0,1.0298496576142497,None,27.969512959977145,None,83.2393321999698,None,83.2393321999698,None,-0.15,-0.09351852,0,0,0,0.01303246000315994,None,,,,,,,,,,,,,,,,,,,,,,,,,,,,,,,,,,,,,,,118,24,Female,2022-05-06_12h42.01.761,Boat,2022.1.1,60.008161116167564,
positive,neutral,1,l,j,,,,,0,0,0,8,,,,,,,,,,,,,,,,,,,,,,,,,,86.68856789998244,None,prac,2,2,1,neutral,positive,l,l,1,1.2228390999953263,88.72770079999464,89.74494449998019,89.72619349998422,None,88.72770079999464,None,88.72770079999464,None,88.72770079999464,None,90.92154955995503,None,90.92154955995503,None,90.92154955995503,None,,,,,,,,,,,118,24,Female,2022-05-06_12h42.01.761,Boat,2022.1.1,60.008161116167564,
negative,negative,1,j,l,,,,,0,1,1,0,,,,,,,,,,,,,,,,,,,,,,,,,,,,prac,2,2,1,negative,negative,j,j,1,1.2818134999834,90.95199400000274,91.9541885999497,91.9541885999497,None,90.95199400000274,None,90.95199400000274,None,90.95199400000274,None,93.20806205997943,None,93.20806205997943,None,93.20806205997943,None,,,,,,,,,,,118,24,Female,2022-05-06_12h42.01.761,Boat,2022.1.1,60.008161116167564,
negative,neutral,1,j,l,,,,,0,2,2,3,,,,,,,,,,,,,,,,,,,,,,,,,,,,prac,2,2,1,neutral,negative,j,j,1,0.8525223999749869,93.22655779996421,94.22760599997127,94.20962749997852,None,93.22655779996421,None,93.22655779996421,None,93.22655779996421,None,95.06279725998175,None,95.06279725998175,None,95.06279725998175,None,,,,,,,,,,,118,24,Female,2022-05-06_12h42.01.761,Boat,2022.1.1,60.008161116167564,
neutral,neutral,1,k,k,,,,,0,3,3,1,,,,,,,,,,,,,,,,,,,,,,,,,,,,prac,1,1,1,neutral,neutral,k,k,1,0.8717749000061303,95.08906129997922,96.10997170000337,96.09192529995926,None,95.08906129997922,None,95.08906129997922,None,95.08906129997922,None,96.93621275996557,None,96.93621275996557,None,96.93621275996557,None,,,,,,,,,,,118,24,Female,2022-05-06_12h42.01.761,Boat,2022.1.1,60.008161116167564,
neutral,negative,1,k,k,,,,,0,4,4,7,,,,,,,,,,,,,,,,,,,,,,,,,,,,prac,1,1,1,negative,neutral,k,k,1,0.7034663000376895,96.96507759997621,97.97139869997045,97.95145539997611,None,96.96507759997621,None,96.96507759997621,None,96.96507759997621,None,98.64176105996594,None,98.64176105996594,None,98.64176105996594,None,,,,,,,,,,,118,24,Female,2022-05-06_12h42.01.761,Boat,2022.1.1,60.008161116167564,
positive,negative,1,l,j,,,,,0,5,5,5,,,,,,,,,,,,,,,,,,,,,,,,,,,,prac,1,1,1,negative,positive,l,l,1,0.709355200000573,98.67328509996878,99.68132340000011,99.66312469996046,None,98.67328509996878,None,98.67328509996878,None,98.67328509996878,None,100.35616995997262,None,100.35616995997262,None,100.35616995997262,None,,,,,,,,,,,118,24,Female,2022-05-06_12h42.01.761,Boat,2022.1.1,60.008161116167564,
neutral,negative,2,k,k,,,,,0,6,6,16,,,,,,,,,,,,,,,,,,,,,,,,,,,,prac,1,1,2,negative,neutral,k,k,1,0.8233235999941826,100.3823768000002,101.39401809999254,101.37648639996769,None,100.3823768000002,None,100.3823768000002,None,100.3823768000002,None,102.18042765997816,None,102.18042765997816,None,102.18042765997816,None,,,,,,,,,,,118,24,Female,2022-05-06_12h42.01.761,Boat,2022.1.1,60.008161116167564,
neutral,neutral,2,k,k,,,,,0,7,7,10,,,,,,,,,,,,,,,,,,,,,,,,,,,,prac,1,1,2,neutral,neutral,k,k,1,0.652805800025817,102.20875869999873,103.22637899999972,103.18850389996078,None,102.20875869999873,None,102.20875869999873,None,102.20875869999873,None,103.83675195996184,None,103.83675195996184,None,103.83675195996184,None,,,,,,,,,,,118,24,Female,2022-05-06_12h42.01.761,Boat,2022.1.1,60.008161116167564,
neutral,positive,1,k,k,,,,,0,8,8,4,,,,,,,,,,,,,,,,,,,,,,,,,,,,prac,2,2,1,positive,neutral,k,,0,1.116081000014674,103.86317509994842,104.87839949998306,104.85993079998298,None,103.86317509994842,None,103.86317509994842,None,103.86317509994842,None,105.97776129998965,None,105.97776129998965,None,105.97776129998965,None,,,,,,,,,,,118,24,Female,2022-05-06_12h42.01.761,Boat,2022.1.1,60.008161116167564,
positive,negative,2,l,j,,,,,0,9,9,14,,,,,,,,,,,,,,,,,,,,,,,,,,,,prac,2,2,2,negative,positive,l,l,1,0.7670600999845192,107.00779020000482,108.00988579995465,107.99318239995046,None,107.00779020000482,None,107.00779020000482,None,107.00779020000482,None,108.74665695996956,None,108.74665695996956,None,108.74665695996956,None,,,,,,,,,,,118,24,Female,2022-05-06_12h42.01.761,Boat,2022.1.1,60.008161116167564,
neutral,positive,2,k,k,,,,,0,10,10,13,,,,,,,,,,,,,,,,,,,,,,,,,,,,prac,2,2,2,positive,neutral,k,k,1,0.8911081000114791,108.77487099997234,109.77960989996791,109.76057279994711,None,108.77487099997234,None,108.77487099997234,None,108.77487099997234,None,110.64214055994526,None,110.64214055994526,None,110.64214055994526,None,,,,,,,,,,,118,24,Female,2022-05-06_12h42.01.761,Boat,2022.1.1,60.008161116167564,
positive,positive,2,l,j,,,,,0,11,11,11,,,,,,,,,,,,,,,,,,,,,,,,,,,,prac,1,1,2,positive,positive,l,l,1,0.8042905000038445,110.67301729996689,111.69208799995249,111.67168669996317,None,110.67301729996689,None,110.67301729996689,None,110.67301729996689,None,112.44982855997515,None,112.44982855997515,None,112.44982855997515,None,,,,,,,,,,,118,24,Female,2022-05-06_12h42.01.761,Boat,2022.1.1,60.008161116167564,
negative,neutral,2,j,l,,,,,0,12,12,12,,,,,,,,,,,,,,,,,,,,,,,,,,,,prac,1,1,2,neutral,negative,j,j,1,0.8229112999979407,112.47209679998923,113.47903950000182,113.44400449999375,None,112.47209679998923,None,112.47209679998923,None,112.47209679998923,None,114.27547395995353,None,114.27547395995353,None,114.27547395995353,None,,,,,,,,,,,118,24,Female,2022-05-06_12h42.01.761,Boat,2022.1.1,60.008161116167564,
positive,neutral,2,l,j,,,,,0,13,13,17,,,,,,,,,,,,,,,,,,,,,,,,,,,,prac,1,1,2,neutral,positive,l,l,1,0.8736432999721728,114.29390749998856,115.29534709994914,115.27662869996857,None,114.29390749998856,None,114.29390749998856,None,114.29390749998856,None,116.1530884599546,None,116.1530884599546,None,116.1530884599546,None,,,,,,,,,,,118,24,Female,2022-05-06_12h42.01.761,Boat,2022.1.1,60.008161116167564,
positive,positive,1,l,j,,,,,0,14,14,2,,,,,,,,,,,,,,,,,,,,,,,,,,,,prac,1,1,1,positive,positive,l,l,1,0.8240291000111029,116.17898819997208,117.19394069997361,117.16005239996593,None,116.17898819997208,None,116.17898819997208,None,116.17898819997208,None,117.97857225998305,None,117.97857225998305,None,117.97857225998305,None,,,,,,,,,,,118,24,Female,2022-05-06_12h42.01.761,Boat,2022.1.1,60.008161116167564,
negative,positive,2,j,l,,,,,0,15,15,15,,,,,,,,,,,,,,,,,,,,,,,,,,,,prac,2,2,2,positive,negative,j,j,1,0.7343464000150561,117.99837449996267,119.01623219996691,118.97684299998218,None,117.99837449996267,None,117.99837449996267,None,117.99837449996267,None,119.71483785994351,None,119.71483785994351,None,119.71483785994351,None,,,,,,,,,,,118,24,Female,2022-05-06_12h42.01.761,Boat,2022.1.1,60.008161116167564,
negative,positive,1,j,l,,,,,0,16,16,6,,,,,,,,,,,,,,,,,,,,,,,,,,,,prac,1,1,1,positive,negative,j,j,1,0.6953365000081249,119.73863609996624,120.74865609995322,120.71029819996329,None,119.73863609996624,None,119.73863609996624,None,119.73863609996624,None,121.41249425997958,None,121.41249425997958,None,121.41249425997958,None,,,,,,,,,,,118,24,Female,2022-05-06_12h42.01.761,Boat,2022.1.1,60.008161116167564,
negative,negative,2,j,l,,,,,0,17,17,9,,,,,,,,,,,,,,,,,,,,,,,,,,,,prac,2,2,2,negative,negative,j,j,1,0.7494599000201561,121.43289989995537,122.44343709998066,122.41012289997889,None,121.43289989995537,None,121.43289989995537,None,121.43289989995537,None,123.16695855997969,None,123.16695855997969,None,123.16695855997969,None,,,,,,,,,,,118,24,Female,2022-05-06_12h42.01.761,Boat,2022.1.1,60.008161116167564,
positive,neutral,1,l,j,,,,,1,0,18,8,,,,,,,,,,,,,,,,,,,,,,,,,,,,prac,2,2,1,neutral,positive,l,l,1,0.6994527999777347,123.1847530999803,124.20047479995992,124.16395369998645,None,123.1847530999803,None,123.1847530999803,None,123.1847530999803,None,124.86733035997023,None,124.86733035997023,None,124.86733035997023,None,,,,,,,,,,,118,24,Female,2022-05-06_12h42.01.761,Boat,2022.1.1,60.008161116167564,
negative,positive,2,j,l,,,,,1,1,19,15,,,,,,,,,,,,,,,,,,,,,,,,,,,,prac,1,1,2,positive,negative,j,j,1,0.7784561999724247,124.88951909996103,125.90582809998887,125.86661689996254,None,124.88951909996103,None,124.88951909996103,None,124.88951909996103,None,126.64783985997784,None,126.64783985997784,None,126.64783985997784,None,,,,,,,,,,,118,24,Female,2022-05-06_12h42.01.761,Boat,2022.1.1,60.008161116167564,
negative,neutral,2,j,l,,,,,1,2,20,12,,,,,,,,,,,,,,,,,,,,,,,,,,,,prac,1,1,2,neutral,negative,j,j,1,1.259379800001625,126.66699349996634,127.68195389996981,127.64441319997422,None,126.66699349996634,None,126.66699349996634,None,126.66699349996634,None,128.91033295999515,None,128.91033295999515,None,128.91033295999515,None,,,,,,,,,,,118,24,Female,2022-05-06_12h42.01.761,Boat,2022.1.1,60.008161116167564,
positive,negative,2,l,j,,,,,1,3,21,14,,,,,,,,,,,,,,,,,,,,,,,,,,,,prac,1,1,2,negative,positive,l,l,1,0.7644521999754943,128.93028479994973,129.93200559995603,129.91297949996078,None,128.93028479994973,None,128.93028479994973,None,128.93028479994973,None,130.67781535999384,None,130.67781535999384,None,130.67781535999384,None,,,,,,,,,,,118,24,Female,2022-05-06_12h42.01.761,Boat,2022.1.1,60.008161116167564,
neutral,negative,2,k,k,,,,,1,4,22,16,,,,,,,,,,,,,,,,,,,,,,,,,,,,prac,2,2,2,negative,neutral,k,k,1,0.6581637000199407,130.6991853999789,131.713197199977,131.6769392999704,None,130.6991853999789,None,130.6991853999789,None,130.6991853999789,None,132.33951685994398,None,132.33951685994398,None,132.33951685994398,None,,,,,,,,,,,118,24,Female,2022-05-06_12h42.01.761,Boat,2022.1.1,60.008161116167564,
positive,negative,1,l,j,,,,,1,5,23,5,,,,,,,,,,,,,,,,,,,,,,,,,,,,prac,2,2,1,negative,positive,l,l,1,0.6960749999852851,132.35935779998545,133.36038519995054,133.3431222999934,None,132.35935779998545,None,132.35935779998545,None,132.35935779998545,None,134.03823745999253,None,134.03823745999253,None,134.03823745999253,None,,,,,,,,,,,118,24,Female,2022-05-06_12h42.01.761,Boat,2022.1.1,60.008161116167564,
neutral,negative,1,k,k,,,,,1,6,24,7,,,,,,,,,,,,,,,,,,,,,,,,,,,,prac,2,2,1,negative,neutral,k,k,1,0.6855420999927446,134.05602829996496,135.07246349996421,135.0329210999771,None,134.05602829996496,None,134.05602829996496,None,134.05602829996496,None,135.72573175994913,None,135.72573175994913,None,135.72573175994913,None,,,,,,,,,,,118,24,Female,2022-05-06_12h42.01.761,Boat,2022.1.1,60.008161116167564,
neutral,neutral,1,k,k,,,,,1,7,25,1,,,,,,,,,,,,,,,,,,,,,,,,,,,,prac,2,2,1,neutral,neutral,k,k,1,0.5879050000221469,135.74488569999812,136.76112399995327,136.72210199997062,None,135.74488569999812,None,135.74488569999812,None,135.74488569999812,None,137.31743335995125,None,137.31743335995125,None,137.31743335995125,None,,,,,,,,,,,118,24,Female,2022-05-06_12h42.01.761,Boat,2022.1.1,60.008161116167564,
neutral,positive,2,k,k,,,,,1,8,26,13,,,,,,,,,,,,,,,,,,,,,,,,,,,,prac,2,2,2,positive,neutral,k,k,1,0.5770645000156946,137.33866329997545,138.34652209997876,138.31052249995992,None,137.33866329997545,None,137.33866329997545,None,137.33866329997545,None,138.8951476599672,None,138.8951476599672,None,138.8951476599672,None,,,,,,,,,,,118,24,Female,2022-05-06_12h42.01.761,Boat,2022.1.1,60.008161116167564,
positive,positive,2,l,j,,,,,1,9,27,11,,,,,,,,,,,,,,,,,,,,,,,,,,,,prac,1,1,2,positive,positive,l,l,1,0.7727870000526309,138.9149454999715,139.9317329999758,139.89518409996526,None,138.9149454999715,None,138.9149454999715,None,138.9149454999715,None,140.6717294599861,None,140.6717294599861,None,140.6717294599861,None,,,,,,,,,,,118,24,Female,2022-05-06_12h42.01.761,Boat,2022.1.1,60.008161116167564,
positive,neutral,2,l,j,,,,,1,10,28,17,,,,,,,,,,,,,,,,,,,,,,,,,,,,prac,2,2,2,neutral,positive,l,l,1,0.6673215000191703,140.69949899998028,141.7071165999514,141.68539779999992,None,140.69949899998028,None,140.69949899998028,None,140.69949899998028,None,142.3425410599797,None,142.3425410599797,None,142.3425410599797,None,,,,,,,,,,,118,24,Female,2022-05-06_12h42.01.761,Boat,2022.1.1,60.008161116167564,
negative,negative,1,j,l,,,,,1,11,29,0,,,,,,,,,,,,,,,,,,,,,,,,,,,,prac,2,2,1,negative,negative,j,j,1,0.7892743999836966,142.36080169997877,143.37748460000148,143.33912589994725,None,142.36080169997877,None,142.36080169997877,None,142.36080169997877,None,144.1334899599664,None,144.1334899599664,None,144.1334899599664,None,,,,,,,,,,,118,24,Female,2022-05-06_12h42.01.761,Boat,2022.1.1,60.008161116167564,
neutral,positive,1,k,k,,,,,1,12,30,4,,,,,,,,,,,,,,,,,,,,,,,,,,,,prac,2,2,1,positive,neutral,k,k,1,0.7410791000002064,144.15546959999483,145.1607846999541,145.13849659997504,None,144.15546959999483,None,144.15546959999483,None,144.15546959999483,None,145.8773371599731,None,145.8773371599731,None,145.8773371599731,None,,,,,,,,,,,118,24,Female,2022-05-06_12h42.01.761,Boat,2022.1.1,60.008161116167564,
neutral,neutral,2,k,k,,,,,1,13,31,10,,,,,,,,,,,,,,,,,,,,,,,,,,,,prac,1,1,2,neutral,neutral,k,k,1,0.596875999995973,145.89572049997514,146.91084409999894,146.87534039997263,None,145.89572049997514,None,145.89572049997514,None,145.89572049997514,None,147.47750005996787,None,147.47750005996787,None,147.47750005996787,None,,,,,,,,,,,118,24,Female,2022-05-06_12h42.01.761,Boat,2022.1.1,60.008161116167564,
negative,positive,1,j,l,,,,,1,14,32,6,,,,,,,,,,,,,,,,,,,,,,,,,,,,prac,2,2,1,positive,negative,j,j,1,0.7443812999990769,147.49490369996056,148.51158769999165,148.47655819996726,None,147.49490369996056,None,147.49490369996056,None,147.49490369996056,None,149.22530435995432,None,149.22530435995432,None,149.22530435995432,None,,,,,,,,,,,118,24,Female,2022-05-06_12h42.01.761,Boat,2022.1.1,60.008161116167564,
negative,negative,2,j,l,,,,,1,15,33,9,,,,,,,,,,,,,,,,,,,,,,,,,,,,prac,2,2,2,negative,negative,j,j,1,1.2064462000271305,149.24480819999008,150.24557349999668,150.2275313999853,None,149.24480819999008,None,149.24480819999008,None,149.24480819999008,None,151.43331905999221,None,151.43331905999221,None,151.43331905999221,None,,,,,,,,,,,118,24,Female,2022-05-06_12h42.01.761,Boat,2022.1.1,60.008161116167564,
negative,neutral,1,j,l,,,,,1,16,34,3,,,,,,,,,,,,,,,,,,,,,,,,,,,,prac,1,1,1,neutral,negative,j,j,1,0.649807800014969,151.45267179998336,152.46477089996915,152.42903649999062,None,151.45267179998336,None,151.45267179998336,None,151.45267179998336,None,153.0874198599835,None,153.0874198599835,None,153.0874198599835,None,,,,,,,,,,,118,24,Female,2022-05-06_12h42.01.761,Boat,2022.1.1,60.008161116167564,
positive,positive,1,l,j,,,,,1,17,35,2,,,,,,,,,,,,,,,,,,,,,,,,,,,,prac,2,2,1,positive,positive,l,l,1,0.7232967999880202,153.10926810000092,154.11469419999048,154.07821700000204,None,153.10926810000092,None,153.10926810000092,None,153.10926810000092,None,154.81096255998128,None,154.81096255998128,None,154.81096255998128,None,,,,,,,,,,,118,24,Female,2022-05-06_12h42.01.761,Boat,2022.1.1,60.008161116167564,
,,,,,,,,,,,,,,,,,,,,,,,,,,,,,,,,,,,,,,,,,,,,,,,,,,,,,,,,,,,,,,,,,,154.82141659996705,None,None,,,,,,,,118,24,Female,2022-05-06_12h42.01.761,Boat,2022.1.1,60.008161116167564,
,,,,,,,,,,,,,,,,,,,,,,,,,,,,,,,,,,,,,,,,,,,,,,,,,,,,,,,,,,,,,,,,,,,,,0.12592593,-0.075,1,0,0,0.004552959988359362,None,118,24,Female,2022-05-06_12h42.01.761,Boat,2022.1.1,60.008161116167564,
negative,negative,1,j,l,,,,,,,,,0,0,0,0,,,,,,,,,,,,,,,,,,,,,,161.28918549994705,None,main,2,2,1,negative,negative,j,j,1,0.7692863999982364,163.3068282000022,164.31342679995578,164.29495619999943,None,163.3068282000022,None,163.3068282000022,None,163.3068282000022,None,165.05988225996262,None,165.05988225996262,None,165.05988225996262,None,,,,,,,,,,,118,24,Female,2022-05-06_12h42.01.761,Boat,2022.1.1,60.008161116167564,
neutral,negative,2,k,k,,,,,,,,,0,1,1,16,,,,,,,,,,,,,,,,,,,,,,,,main,2,2,2,negative,neutral,k,k,1,0.7474025000119582,165.08160119998502,166.0947041999898,166.061017,None,165.08160119998502,None,165.08160119998502,None,165.08160119998502,None,166.8101609599893,None,166.8101609599893,None,166.8101609599893,None,,,,,,,,,,,118,24,Female,2022-05-06_12h42.01.761,Boat,2022.1.1,60.008161116167564,
positive,neutral,2,l,j,,,,,,,,,0,2,2,17,,,,,,,,,,,,,,,,,,,,,,,,main,2,2,2,neutral,positive,l,l,1,0.8132164999842644,166.8350083999685,167.83980689995224,167.81971079995856,None,166.8350083999685,None,166.8350083999685,None,166.8350083999685,None,168.62416961994023,None,168.62416961994023,None,168.62416961994023,None,,,,,,,,,,,118,24,Female,2022-05-06_12h42.01.761,Boat,2022.1.1,60.008161116167564,
negative,neutral,1,j,l,,,,,,,,,0,3,3,3,,,,,,,,,,,,,,,,,,,,,,,,main,2,2,1,neutral,negative,j,j,1,0.7837819000124,168.64698279998265,169.65762630000245,169.63506790000247,None,168.64698279998265,None,168.64698279998265,None,168.64698279998265,None,170.41449035998667,None,170.41449035998667,None,170.41449035998667,None,,,,,,,,,,,118,24,Female,2022-05-06_12h42.01.761,Boat,2022.1.1,60.008161116167564,
neutral,neutral,2,k,k,,,,,,,,,0,4,4,10,,,,,,,,,,,,,,,,,,,,,,,,main,2,2,2,neutral,neutral,k,k,1,0.6760925000417046,170.43457189999754,171.44458449998638,171.42729439999675,None,170.43457189999754,None,170.43457189999754,None,170.43457189999754,None,172.09349055999192,None,172.09349055999192,None,172.09349055999192,None,,,,,,,,,,,118,24,Female,2022-05-06_12h42.01.761,Boat,2022.1.1,60.008161116167564,
positive,neutral,1,l,j,,,,,,,,,0,5,5,8,,,,,,,,,,,,,,,,,,,,,,,,main,1,1,1,neutral,positive,l,l,1,0.7239734000177123,172.11376279999968,173.12699149997206,173.10678549995646,None,172.11376279999968,None,172.11376279999968,None,172.11376279999968,None,173.82215335997753,None,173.82215335997753,None,173.82215335997753,None,,,,,,,,,,,118,24,Female,2022-05-06_12h42.01.761,Boat,2022.1.1,60.008161116167564,
neutral,negative,1,k,k,,,,,,,,,0,6,6,7,,,,,,,,,,,,,,,,,,,,,,,,main,2,2,1,negative,neutral,k,k,1,0.8233297999831848,173.84357799997088,174.84532679995755,174.82745909999358,None,173.84357799997088,None,173.84357799997088,None,173.84357799997088,None,175.64579815997277,None,175.64579815997277,None,175.64579815997277,None,,,,,,,,,,,118,24,Female,2022-05-06_12h42.01.761,Boat,2022.1.1,60.008161116167564,
positive,positive,1,l,j,,,,,,,,,0,7,7,2,,,,,,,,,,,,,,,,,,,,,,,,main,1,1,1,positive,positive,l,l,1,1.1775465999962762,175.67356949998066,176.67828579997877,176.64331329998095,None,175.67356949998066,None,175.67356949998066,None,175.67356949998066,None,177.82790295998566,None,177.82790295998566,None,177.82790295998566,None,,,,,,,,,,,118,24,Female,2022-05-06_12h42.01.761,Boat,2022.1.1,60.008161116167564,
positive,negative,1,l,j,,,,,,,,,0,8,8,5,,,,,,,,,,,,,,,,,,,,,,,,main,1,1,1,negative,positive,l,l,1,0.5819489999557845,177.84770439995918,178.86073879996547,178.83757949998835,None,177.84770439995918,None,177.84770439995918,None,177.84770439995918,None,179.41211635995424,None,179.41211635995424,None,179.41211635995424,None,,,,,,,,,,,118,24,Female,2022-05-06_12h42.01.761,Boat,2022.1.1,60.008161116167564,
negative,positive,2,j,l,,,,,,,,,0,9,9,15,,,,,,,,,,,,,,,,,,,,,,,,main,1,1,2,positive,negative,j,j,1,1.5025772999506444,179.43266890000086,180.44465779996244,180.41031059995294,None,179.43266890000086,None,179.43266890000086,None,179.43266890000086,None,181.93520009994972,None,181.93520009994972,None,181.93520009994972,None,,,,,,,,,,,118,24,Female,2022-05-06_12h42.01.761,Boat,2022.1.1,60.008161116167564,
negative,negative,2,j,l,,,,,,,,,0,10,10,9,,,,,,,,,,,,,,,,,,,,,,,,main,1,1,2,negative,negative,j,j,1,0.7239565000054426,182.94809339998756,183.96155399997951,183.94327069999417,None,182.94809339998756,None,182.94809339998756,None,182.94809339998756,None,184.65763915997232,None,184.65763915997232,None,184.65763915997232,None,,,,,,,,,,,118,24,Female,2022-05-06_12h42.01.761,Boat,2022.1.1,60.008161116167564,
positive,negative,2,l,j,,,,,,,,,0,11,11,14,,,,,,,,,,,,,,,,,,,,,,,,main,1,1,2,negative,positive,l,l,1,0.7556554000475444,184.6778921999503,185.6796592999599,185.66160729998956,None,184.6778921999503,None,184.6778921999503,None,184.6778921999503,None,186.41596985996003,None,186.41596985996003,None,186.41596985996003,None,,,,,,,,,,,118,24,Female,2022-05-06_12h42.01.761,Boat,2022.1.1,60.008161116167564,
negative,positive,1,j,l,,,,,,,,,0,12,12,6,,,,,,,,,,,,,,,,,,,,,,,,main,1,1,1,positive,negative,j,j,1,1.5306170000112616,186.43789079994895,187.45646889996715,187.41153719997965,None,186.43789079994895,None,186.43789079994895,None,186.43789079994895,None,188.9594008999993,None,188.9594008999993,None,188.9594008999993,None,,,,,,,,,,,118,24,Female,2022-05-06_12h42.01.761,Boat,2022.1.1,60.008161116167564,
neutral,positive,2,k,k,,,,,,,,,0,13,13,13,,,,,,,,,,,,,,,,,,,,,,,,main,1,1,2,positive,neutral,k,k,1,0.6842028999817558,189.9817046999815,190.99690450000344,190.96216689998982,None,189.9817046999815,None,189.9817046999815,None,189.9817046999815,None,191.64985715997173,None,191.64985715997173,None,191.64985715997173,None,,,,,,,,,,,118,24,Female,2022-05-06_12h42.01.761,Boat,2022.1.1,60.008161116167564,
neutral,positive,1,k,k,,,,,,,,,0,14,14,4,,,,,,,,,,,,,,,,,,,,,,,,main,1,1,1,positive,neutral,k,k,1,0.7855605999939144,191.66829839994898,192.6812718999572,192.64486409997335,None,191.66829839994898,None,191.66829839994898,None,191.66829839994898,None,193.43980645997217,None,193.43980645997217,None,193.43980645997217,None,,,,,,,,,,,118,24,Female,2022-05-06_12h42.01.761,Boat,2022.1.1,60.008161116167564,
negative,neutral,2,j,l,,,,,,,,,0,15,15,12,,,,,,,,,,,,,,,,,,,,,,,,main,1,1,2,neutral,negative,j,j,1,0.6574461999698542,193.4605428999639,194.4644649999682,194.4465486999834,None,193.4605428999639,None,193.4605428999639,None,193.4605428999639,None,195.0975448599551,None,195.0975448599551,None,195.0975448599551,None,,,,,,,,,,,118,24,Female,2022-05-06_12h42.01.761,Boat,2022.1.1,60.008161116167564,
positive,positive,2,l,j,,,,,,,,,0,16,16,11,,,,,,,,,,,,,,,,,,,,,,,,main,1,1,2,positive,positive,l,l,1,0.6437661999952979,195.12307449994842,196.1319379999768,196.09610819997033,None,195.12307449994842,None,195.12307449994842,None,195.12307449994842,None,196.74442575997674,None,196.74442575997674,None,196.74442575997674,None,,,,,,,,,,,118,24,Female,2022-05-06_12h42.01.761,Boat,2022.1.1,60.008161116167564,
neutral,neutral,1,k,k,,,,,,,,,0,17,17,1,,,,,,,,,,,,,,,,,,,,,,,,main,1,1,1,neutral,neutral,k,k,1,0.6009605000144802,196.76421009999467,197.77866049995646,197.74430989997927,None,196.76421009999467,None,196.76421009999467,None,196.76421009999467,None,198.3494288599817,None,198.3494288599817,None,198.3494288599817,None,,,,,,,,,,,118,24,Female,2022-05-06_12h42.01.761,Boat,2022.1.1,60.008161116167564,
neutral,positive,2,k,k,,,,,,,,,1,0,18,13,,,,,,,,,,,,,,,,,,,,,,,,main,1,1,2,positive,neutral,k,k,1,0.564390400017146,198.36794409999857,199.3704746000003,199.3513691999833,None,198.36794409999857,None,198.36794409999857,None,198.36794409999857,None,199.915680159966,None,199.915680159966,None,199.915680159966,None,,,,,,,,,,,118,24,Female,2022-05-06_12h42.01.761,Boat,2022.1.1,60.008161116167564,
positive,positive,1,l,j,,,,,,,,,1,1,19,2,,,,,,,,,,,,,,,,,,,,,,,,main,2,2,1,positive,positive,l,l,1,0.741215199988801,199.93874069995945,200.95919849997154,200.9178732999717,None,199.93874069995945,None,199.93874069995945,None,199.93874069995945,None,201.66078345999122,None,201.66078345999122,None,201.66078345999122,None,,,,,,,,,,,118,24,Female,2022-05-06_12h42.01.761,Boat,2022.1.1,60.008161116167564,
neutral,negative,1,k,k,,,,,,,,,1,2,20,7,,,,,,,,,,,,,,,,,,,,,,,,main,1,1,1,negative,neutral,k,k,1,0.6621262999833561,201.6818467999692,202.70365909999236,202.66196559998207,None,201.6818467999692,None,201.6818467999692,None,201.6818467999692,None,203.32701055994258,None,203.32701055994258,None,203.32701055994258,None,,,,,,,,,,,118,24,Female,2022-05-06_12h42.01.761,Boat,2022.1.1,60.008161116167564,
neutral,negative,2,k,k,,,,,,,,,1,3,21,16,,,,,,,,,,,,,,,,,,,,,,,,main,2,2,2,negative,neutral,k,k,1,0.6628681999864057,203.34643629996572,204.34998780000024,204.33132969995495,None,203.34643629996572,None,203.34643629996572,None,203.34643629996572,None,204.9942791599664,None,204.9942791599664,None,204.9942791599664,None,,,,,,,,,,,118,24,Female,2022-05-06_12h42.01.761,Boat,2022.1.1,60.008161116167564,
negative,negative,2,j,l,,,,,,,,,1,4,22,9,,,,,,,,,,,,,,,,,,,,,,,,main,1,1,2,negative,negative,j,j,1,0.6314310999587178,205.01335249998374,206.0195014999481,205.98346369998762,None,205.01335249998374,None,205.01335249998374,None,205.01335249998374,None,206.62791265998968,None,206.62791265998968,None,206.62791265998968,None,,,,,,,,,,,118,24,Female,2022-05-06_12h42.01.761,Boat,2022.1.1,60.008161116167564,
negative,neutral,2,j,l,,,,,,,,,1,5,23,12,,,,,,,,,,,,,,,,,,,,,,,,main,2,2,2,neutral,negative,j,j,1,0.5765980999567546,206.64937699999427,207.6704972999869,207.6235523999785,None,206.64937699999427,None,206.64937699999427,None,206.64937699999427,None,208.2094302599784,None,208.2094302599784,None,208.2094302599784,None,,,,,,,,,,,118,24,Female,2022-05-06_12h42.01.761,Boat,2022.1.1,60.008161116167564,
positive,negative,2,l,j,,,,,,,,,1,6,24,14,,,,,,,,,,,,,,,,,,,,,,,,main,2,2,2,negative,positive,l,l,1,0.717736300022807,208.22756909998134,209.22936820000177,209.2122191999806,None,208.22756909998134,None,208.22756909998134,None,208.22756909998134,None,209.92882145997137,None,209.92882145997137,None,209.92882145997137,None,,,,,,,,,,,118,24,Female,2022-05-06_12h42.01.761,Boat,2022.1.1,60.008161116167564,
negative,neutral,1,j,l,,,,,,,,,1,7,25,3,,,,,,,,,,,,,,,,,,,,,,,,main,1,1,1,neutral,negative,j,j,1,0.7598214999889024,209.94855879998067,210.96225509996293,210.92365489999065,None,209.94855879998067,None,209.94855879998067,None,209.94855879998067,None,211.69320465994534,None,211.69320465994534,None,211.69320465994534,None,,,,,,,,,,,118,24,Female,2022-05-06_12h42.01.761,Boat,2022.1.1,60.008161116167564,
neutral,neutral,1,k,k,,,,,,,,,1,8,26,1,,,,,,,,,,,,,,,,,,,,,,,,main,1,1,1,neutral,neutral,k,k,1,0.5486163000459783,211.71360399998957,212.72894969995832,212.69030289998045,None,211.71360399998957,None,211.71360399998957,None,211.71360399998957,None,213.24424565994414,None,213.24424565994414,None,213.24424565994414,None,,,,,,,,,,,118,24,Female,2022-05-06_12h42.01.761,Boat,2022.1.1,60.008161116167564,
negative,positive,2,j,l,,,,,,,,,1,9,27,15,,,,,,,,,,,,,,,,,,,,,,,,main,2,2,2,positive,negative,j,j,1,0.7237511000130326,213.26389509998262,214.2639225999592,214.24641899997368,None,213.26389509998262,None,213.26389509998262,None,213.26389509998262,None,214.9734488599701,None,214.9734488599701,None,214.9734488599701,None,,,,,,,,,,,118,24,Female,2022-05-06_12h42.01.761,Boat,2022.1.1,60.008161116167564,
negative,positive,1,j,l,,,,,,,,,1,10,28,6,,,,,,,,,,,,,,,,,,,,,,,,main,2,2,1,positive,negative,j,j,1,0.6857275999500416,214.9944722999935,215.99554079998052,215.977766099968,None,214.9944722999935,None,214.9944722999935,None,214.9944722999935,None,216.66139885996236,None,216.66139885996236,None,216.66139885996236,None,,,,,,,,,,,118,24,Female,2022-05-06_12h42.01.761,Boat,2022.1.1,60.008161116167564,
positive,neutral,1,l,j,,,,,,,,,1,11,29,8,,,,,,,,,,,,,,,,,,,,,,,,main,2,2,1,neutral,positive,l,l,1,0.812193300051149,216.68107469996903,217.69412839994766,217.67411719996016,None,216.68107469996903,None,216.68107469996903,None,216.68107469996903,None,218.47849955995335,None,218.47849955995335,None,218.47849955995335,None,,,,,,,,,,,118,24,Female,2022-05-06_12h42.01.761,Boat,2022.1.1,60.008161116167564,
negative,negative,1,j,l,,,,,,,,,1,12,30,0,,,,,,,,,,,,,,,,,,,,,,,,main,2,2,1,negative,negative,j,j,1,0.7209812999935821,218.4958204999566,219.49664349999512,219.47919869999168,None,218.4958204999566,None,218.4958204999566,None,218.4958204999566,None,220.2006902599591,None,220.2006902599591,None,220.2006902599591,None,,,,,,,,,,,118,24,Female,2022-05-06_12h42.01.761,Boat,2022.1.1,60.008161116167564,
neutral,positive,1,k,k,,,,,,,,,1,13,31,4,,,,,,,,,,,,,,,,,,,,,,,,main,2,2,1,positive,neutral,k,k,1,0.6303656999953091,220.223615099967,221.22915019997163,221.21145760000218,None,220.223615099967,None,220.223615099967,None,220.223615099967,None,221.83542755994714,None,221.83542755994714,None,221.83542755994714,None,,,,,,,,,,,118,24,Female,2022-05-06_12h42.01.761,Boat,2022.1.1,60.008161116167564,
neutral,neutral,2,k,k,,,,,,,,,1,14,32,10,,,,,,,,,,,,,,,,,,,,,,,,main,2,2,2,neutral,neutral,k,k,1,0.607165299996268,221.85679379996145,222.86388489999808,222.82912379998015,None,221.85679379996145,None,221.85679379996145,None,221.85679379996145,None,223.44503645998194,None,223.44503645998194,None,223.44503645998194,None,,,,,,,,,,,118,24,Female,2022-05-06_12h42.01.761,Boat,2022.1.1,60.008161116167564,
positive,neutral,2,l,j,,,,,,,,,1,15,33,17,,,,,,,,,,,,,,,,,,,,,,,,main,2,2,2,neutral,positive,l,l,1,0.7067943000001833,223.4646043999819,224.47825409995858,224.4577675999608,None,223.4646043999819,None,223.4646043999819,None,223.4646043999819,None,225.15574165995932,None,225.15574165995932,None,225.15574165995932,None,,,,,,,,,,,118,24,Female,2022-05-06_12h42.01.761,Boat,2022.1.1,60.008161116167564,
positive,positive,2,l,j,,,,,,,,,1,16,34,11,,,,,,,,,,,,,,,,,,,,,,,,main,2,2,2,positive,positive,l,l,1,0.7363853999995627,225.17825299996184,226.18977179995272,226.15066250000382,None,225.17825299996184,None,225.17825299996184,None,225.17825299996184,None,226.8950418599765,None,226.8950418599765,None,226.8950418599765,None,,,,,,,,,,,118,24,Female,2022-05-06_12h42.01.761,Boat,2022.1.1,60.008161116167564,
positive,negative,1,l,j,,,,,,,,,1,17,35,5,,,,,,,,,,,,,,,,,,,,,,,,main,1,1,1,negative,positive,l,l,1,0.7110025999718346,226.91278590000002,227.9273296999745,227.90733969997382,None,226.91278590000002,None,226.91278590000002,None,226.91278590000002,None,228.6098687599646,None,228.6098687599646,None,228.6098687599646,None,,,,,,,,,,,118,24,Female,2022-05-06_12h42.01.761,Boat,2022.1.1,60.008161116167564,
positive,negative,1,l,j,,,,,,,,,2,0,36,5,,,,,,,,,,,,,,,,,,,,,,,,main,2,2,1,negative,positive,l,l,1,0.6685954999993555,228.62807719997363,229.64476969995303,229.624508399982,None,228.62807719997363,None,228.62807719997363,None,228.62807719997363,None,230.27936885998352,None,230.27936885998352,None,230.27936885998352,None,,,,,,,,,,,118,24,Female,2022-05-06_12h42.01.761,Boat,2022.1.1,60.008161116167564,
positive,positive,2,l,j,,,,,,,,,2,1,37,11,,,,,,,,,,,,,,,,,,,,,,,,main,1,1,2,positive,positive,l,l,1,0.7628638000460342,230.3014770000009,231.30928369995672,231.2865874999552,None,230.3014770000009,None,230.3014770000009,None,230.3014770000009,None,232.04616035996006,None,232.04616035996006,None,232.04616035996006,None,,,,,,,,,,,118,24,Female,2022-05-06_12h42.01.761,Boat,2022.1.1,60.008161116167564,
neutral,negative,2,k,k,,,,,,,,,2,2,38,16,,,,,,,,,,,,,,,,,,,,,,,,main,1,1,2,negative,neutral,k,k,1,0.5653498999890871,232.06507479998982,233.08424599998398,233.04677999997512,None,232.06507479998982,None,232.06507479998982,None,232.06507479998982,None,233.61479655994336,None,233.61479655994336,None,233.61479655994336,None,,,,,,,,,,,118,24,Female,2022-05-06_12h42.01.761,Boat,2022.1.1,60.008161116167564,
positive,neutral,2,l,j,,,,,,,,,2,3,39,17,,,,,,,,,,,,,,,,,,,,,,,,main,1,1,2,neutral,positive,l,l,1,0.5754463000339456,233.6343267999473,234.64784749998944,234.61255249998067,None,233.6343267999473,None,233.6343267999473,None,233.6343267999473,None,235.19455726000015,None,235.19455726000015,None,235.19455726000015,None,,,,,,,,,,,118,24,Female,2022-05-06_12h42.01.761,Boat,2022.1.1,60.008161116167564,
negative,positive,1,j,l,,,,,,,,,2,4,40,6,,,,,,,,,,,,,,,,,,,,,,,,main,2,2,1,positive,negative,j,j,1,0.6645300999516621,235.21433399996022,236.22897659998853,236.20814809994772,None,235.21433399996022,None,235.21433399996022,None,235.21433399996022,None,236.86200965996832,None,236.86200965996832,None,236.86200965996832,None,,,,,,,,,,,118,24,Female,2022-05-06_12h42.01.761,Boat,2022.1.1,60.008161116167564,
negative,negative,2,j,l,,,,,,,,,2,5,41,9,,,,,,,,,,,,,,,,,,,,,,,,main,1,1,2,negative,negative,j,j,1,1.1913185000303201,236.88236629997846,237.88469049998093,237.86589199997252,None,236.88236629997846,None,236.88236629997846,None,236.88236629997846,None,239.05791905997322,None,239.05791905997322,None,239.05791905997322,None,,,,,,,,,,,118,24,Female,2022-05-06_12h42.01.761,Boat,2022.1.1,60.008161116167564,
positive,positive,1,l,j,,,,,,,,,2,6,42,2,,,,,,,,,,,,,,,,,,,,,,,,main,1,1,1,positive,positive,l,l,1,0.7840862000011839,239.0784962999751,240.09124159999192,240.0524657999631,None,239.0784962999751,None,239.0784962999751,None,239.0784962999751,None,240.8446564599639,None,240.8446564599639,None,240.8446564599639,None,,,,,,,,,,,118,24,Female,2022-05-06_12h42.01.761,Boat,2022.1.1,60.008161116167564,
neutral,positive,2,k,k,,,,,,,,,2,7,43,13,,,,,,,,,,,,,,,,,,,,,,,,main,1,1,2,positive,neutral,k,k,1,0.6487775999703445,240.86298649996752,241.86981309996918,241.85121169994818,None,240.86298649996752,None,240.86298649996752,None,240.86298649996752,None,242.49491465997417,None,242.49491465997417,None,242.49491465997417,None,,,,,,,,,,,118,24,Female,2022-05-06_12h42.01.761,Boat,2022.1.1,60.008161116167564,
negative,positive,2,j,l,,,,,,,,,2,8,44,15,,,,,,,,,,,,,,,,,,,,,,,,main,1,1,2,positive,negative,j,j,1,0.7594925999874249,242.5166013999842,243.5299801999936,243.49191509996308,None,242.5166013999842,None,242.5166013999842,None,242.5166013999842,None,244.25949515999528,None,244.25949515999528,None,244.25949515999528,None,,,,,,,,,,,118,24,Female,2022-05-06_12h42.01.761,Boat,2022.1.1,60.008161116167564,
neutral,neutral,1,k,k,,,,,,,,,2,9,45,1,,,,,,,,,,,,,,,,,,,,,,,,main,2,2,1,neutral,neutral,k,k,1,0.6601923999842256,244.27836820000084,245.29543399997056,245.25325739994878,None,244.27836820000084,None,244.27836820000084,None,244.27836820000084,None,245.92351535996423,None,245.92351535996423,None,245.92351535996423,None,,,,,,,,,,,118,24,Female,2022-05-06_12h42.01.761,Boat,2022.1.1,60.008161116167564,
positive,negative,2,l,j,,,,,,,,,2,10,46,14,,,,,,,,,,,,,,,,,,,,,,,,main,1,1,2,negative,positive,l,l,1,0.674608800036367,245.94530919997487,246.95174809999298,246.91430579998996,None,245.94530919997487,None,245.94530919997487,None,245.94530919997487,None,247.5988304599654,None,247.5988304599654,None,247.5988304599654,None,,,,,,,,,,,118,24,Female,2022-05-06_12h42.01.761,Boat,2022.1.1,60.008161116167564,
neutral,negative,1,k,k,,,,,,,,,2,11,47,7,,,,,,,,,,,,,,,,,,,,,,,,main,2,2,1,negative,neutral,k,k,1,0.7280563000240363,247.61889529996552,248.62964659999125,248.61134419997688,None,247.61889529996552,None,247.61889529996552,None,247.61889529996552,None,249.33025015998865,None,249.33025015998865,None,249.33025015998865,None,,,,,,,,,,,118,24,Female,2022-05-06_12h42.01.761,Boat,2022.1.1,60.008161116167564,
negative,neutral,1,j,l,,,,,,,,,2,12,48,3,,,,,,,,,,,,,,,,,,,,,,,,main,1,1,1,neutral,negative,j,j,1,0.8103149000089616,249.34965910000028,250.3664966999786,250.3305715000024,None,249.34965910000028,None,249.34965910000028,None,249.34965910000028,None,251.14497285997496,None,251.14497285997496,None,251.14497285997496,None,,,,,,,,,,,118,24,Female,2022-05-06_12h42.01.761,Boat,2022.1.1,60.008161116167564,
negative,negative,1,j,l,,,,,,,,,2,13,49,0,,,,,,,,,,,,,,,,,,,,,,,,main,1,1,1,negative,negative,j,j,1,0.6976778999669477,251.164866099949,252.1748515999643,252.15403729997342,None,251.164866099949,None,251.164866099949,None,251.164866099949,None,252.84651116000023,None,252.84651116000023,None,252.84651116000023,None,,,,,,,,,,,118,24,Female,2022-05-06_12h42.01.761,Boat,2022.1.1,60.008161116167564,
neutral,neutral,2,k,k,,,,,,,,,2,14,50,10,,,,,,,,,,,,,,,,,,,,,,,,main,2,2,2,neutral,neutral,k,k,1,0.7121832999982871,252.8644935999764,253.88080799998716,253.8462399999844,None,252.8644935999764,None,252.8644935999764,None,252.8644935999764,None,254.561674759991,None,254.561674759991,None,254.561674759991,None,,,,,,,,,,,118,24,Female,2022-05-06_12h42.01.761,Boat,2022.1.1,60.008161116167564,
negative,neutral,2,j,l,,,,,,,,,2,15,51,12,,,,,,,,,,,,,,,,,,,,,,,,main,2,2,2,neutral,negative,j,j,1,0.6489621000364423,254.58177829999477,255.58306529995752,255.56520489999093,None,254.58177829999477,None,254.58177829999477,None,254.58177829999477,None,256.21340025999814,None,256.21340025999814,None,256.21340025999814,None,,,,,,,,,,,118,24,Female,2022-05-06_12h42.01.761,Boat,2022.1.1,60.008161116167564,
neutral,positive,1,k,k,,,,,,,,,2,16,52,4,,,,,,,,,,,,,,,,,,,,,,,,main,2,2,1,positive,neutral,k,k,1,0.7122471999609843,256.2336166999885,257.2467136999476,257.22894879995147,None,256.2336166999885,None,256.2336166999885,None,256.2336166999885,None,257.9295967599959,None,257.9295967599959,None,257.9295967599959,None,,,,,,,,,,,118,24,Female,2022-05-06_12h42.01.761,Boat,2022.1.1,60.008161116167564,
positive,neutral,1,l,j,,,,,,,,,2,17,53,8,,,,,,,,,,,,,,,,,,,,,,,,main,1,1,1,neutral,positive,l,l,1,0.8475171999889426,257.9472758999909,258.9632176999585,258.9288697000011,None,257.9472758999909,None,257.9472758999909,None,257.9472758999909,None,259.7798195599811,None,259.7798195599811,None,259.7798195599811,None,,,,,,,,,,,118,24,Female,2022-05-06_12h42.01.761,Boat,2022.1.1,60.008161116167564,
negative,positive,1,j,l,,,,,,,,,3,0,54,6,,,,,,,,,,,,,,,,,,,,,,,,main,1,1,1,positive,negative,j,j,1,0.734906800033059,259.799476199958,260.8131984999636,260.79128559998935,None,259.799476199958,None,259.799476199958,None,259.799476199958,None,261.51828775994943,None,261.51828775994943,None,261.51828775994943,None,,,,,,,,,,,118,24,Female,2022-05-06_12h42.01.761,Boat,2022.1.1,60.008161116167564,
neutral,negative,1,k,k,,,,,,,,,3,1,55,7,,,,,,,,,,,,,,,,,,,,,,,,main,2,2,1,negative,neutral,k,k,1,0.5849431999959052,261.5356635999633,262.54965569998603,262.51398449996486,None,261.5356635999633,None,261.5356635999633,None,261.5356635999633,None,263.1067652599653,None,263.1067652599653,None,263.1067652599653,None,,,,,,,,,,,118,24,Female,2022-05-06_12h42.01.761,Boat,2022.1.1,60.008161116167564,
negative,neutral,1,j,l,,,,,,,,,3,2,56,3,,,,,,,,,,,,,,,,,,,,,,,,main,1,1,1,neutral,negative,j,j,1,0.7440254000248387,263.1278667000006,264.1416113000014,264.1216908999486,None,263.1278667000006,None,263.1278667000006,None,263.1278667000006,None,264.85291785994775,None,264.85291785994775,None,264.85291785994775,None,,,,,,,,,,,118,24,Female,2022-05-06_12h42.01.761,Boat,2022.1.1,60.008161116167564,
negative,negative,1,j,l,,,,,,,,,3,3,57,0,,,,,,,,,,,,,,,,,,,,,,,,main,1,1,1,negative,negative,j,j,1,0.634768099989742,264.8758126999601,265.8822440999793,265.8638501999667,None,264.8758126999601,None,264.8758126999601,None,264.8758126999601,None,266.4912074599764,None,266.4912074599764,None,266.4912074599764,None,,,,,,,,,,,118,24,Female,2022-05-06_12h42.01.761,Boat,2022.1.1,60.008161116167564,
positive,neutral,2,l,j,,,,,,,,,3,4,58,17,,,,,,,,,,,,,,,,,,,,,,,,main,2,2,2,neutral,positive,l,l,1,0.7678271000040695,266.5126964999945,267.5155908999732,267.48003649996826,None,266.5126964999945,None,266.5126964999945,None,266.5126964999945,None,268.26147385998627,None,268.26147385998627,None,268.26147385998627,None,,,,,,,,,,,118,24,Female,2022-05-06_12h42.01.761,Boat,2022.1.1,60.008161116167564,
positive,negative,2,l,j,,,,,,,,,3,5,59,14,,,,,,,,,,,,,,,,,,,,,,,,main,2,2,2,negative,positive,l,l,1,0.7745671999873593,268.2804116999614,269.28056599997217,269.2635013999534,None,268.2804116999614,None,268.2804116999614,None,268.2804116999614,None,270.0399230599636,None,270.0399230599636,None,270.0399230599636,None,,,,,,,,,,,118,24,Female,2022-05-06_12h42.01.761,Boat,2022.1.1,60.008161116167564,
neutral,positive,2,k,k,,,,,,,,,3,6,60,13,,,,,,,,,,,,,,,,,,,,,,,,main,1,1,2,positive,neutral,k,k,1,0.6741259999689646,270.0624267999665,271.06665599998087,271.0307407999644,None,270.0624267999665,None,270.0624267999665,None,270.0624267999665,None,271.7153791599907,None,271.7153791599907,None,271.7153791599907,None,,,,,,,,,,,118,24,Female,2022-05-06_12h42.01.761,Boat,2022.1.1,60.008161116167564,
negative,neutral,2,j,l,,,,,,,,,3,7,61,12,,,,,,,,,,,,,,,,,,,,,,,,main,1,1,2,neutral,negative,j,j,1,0.7068411000072956,271.7352703999495,272.7419194999966,272.7197000999586,None,271.7352703999495,None,271.7352703999495,None,271.7352703999495,None,273.42646945999,None,273.42646945999,None,273.42646945999,None,,,,,,,,,,,118,24,Female,2022-05-06_12h42.01.761,Boat,2022.1.1,60.008161116167564,
neutral,neutral,1,k,k,,,,,,,,,3,8,62,1,,,,,,,,,,,,,,,,,,,,,,,,main,2,2,1,neutral,neutral,k,k,1,0.6959430999704637,273.447636900004,274.4621407999657,274.4415927999653,None,273.447636900004,None,273.447636900004,None,273.447636900004,None,275.1264517599833,None,275.1264517599833,None,275.1264517599833,None,,,,,,,,,,,118,24,Female,2022-05-06_12h42.01.761,Boat,2022.1.1,60.008161116167564,
positive,negative,1,l,j,,,,,,,,,3,9,63,5,,,,,,,,,,,,,,,,,,,,,,,,main,2,2,1,negative,positive,l,j,0,0.9501049999962561,275.1458389000036,276.1475727999932,276.1302336999797,None,275.1458389000036,None,275.1458389000036,None,275.1458389000036,None,277.08398919994943,None,277.08398919994943,None,277.08398919994943,None,,,,,,,,,,,118,24,Female,2022-05-06_12h42.01.761,Boat,2022.1.1,60.008161116167564,
neutral,negative,2,k,k,,,,,,,,,3,10,64,16,,,,,,,,,,,,,,,,,,,,,,,,main,1,1,2,negative,neutral,k,k,1,0.7813268000027165,278.09981990000233,279.11453929997515,279.08025649999036,None,278.09981990000233,None,278.09981990000233,None,278.09981990000233,None,279.8639381599845,None,279.8639381599845,None,279.8639381599845,None,,,,,,,,,,,118,24,Female,2022-05-06_12h42.01.761,Boat,2022.1.1,60.008161116167564,
positive,positive,2,l,j,,,,,,,,,3,11,65,11,,,,,,,,,,,,,,,,,,,,,,,,main,1,1,2,positive,positive,l,l,1,0.7752847999799997,279.88711319997674,280.9032748999889,280.86568879999686,None,279.88711319997674,None,279.88711319997674,None,279.88711319997674,None,281.64584005994254,None,281.64584005994254,None,281.64584005994254,None,,,,,,,,,,,118,24,Female,2022-05-06_12h42.01.761,Boat,2022.1.1,60.008161116167564,
positive,positive,1,l,j,,,,,,,,,3,12,66,2,,,,,,,,,,,,,,,,,,,,,,,,main,1,1,1,positive,positive,l,l,1,0.8162050999817438,281.6653617999982,282.68215720000444,282.6472385999514,None,281.6653617999982,None,281.6653617999982,None,281.6653617999982,None,283.46392285996114,None,283.46392285996114,None,283.46392285996114,None,,,,,,,,,,,118,24,Female,2022-05-06_12h42.01.761,Boat,2022.1.1,60.008161116167564,
positive,neutral,1,l,j,,,,,,,,,3,13,67,8,,,,,,,,,,,,,,,,,,,,,,,,main,1,1,1,neutral,positive,l,l,1,0.6924366999883205,283.4849762999802,284.49727829999756,284.47864429996116,None,283.4849762999802,None,283.4849762999802,None,283.4849762999802,None,285.16131135999456,None,285.16131135999456,None,285.16131135999456,None,,,,,,,,,,,118,24,Female,2022-05-06_12h42.01.761,Boat,2022.1.1,60.008161116167564,
negative,negative,2,j,l,,,,,,,,,3,14,68,9,,,,,,,,,,,,,,,,,,,,,,,,main,2,2,2,negative,negative,j,j,1,0.7657569000148214,285.1793296999531,286.19328549999045,286.15311319998,None,285.1793296999531,None,285.1793296999531,None,285.1793296999531,None,286.9298169599846,None,286.9298169599846,None,286.9298169599846,None,,,,,,,,,,,118,24,Female,2022-05-06_12h42.01.761,Boat,2022.1.1,60.008161116167564,
neutral,positive,1,k,k,,,,,,,,,3,15,69,4,,,,,,,,,,,,,,,,,,,,,,,,main,2,2,1,positive,neutral,k,k,1,0.6419649999588728,286.95081109995954,287.9637911999598,287.92934709996916,None,286.95081109995954,None,286.95081109995954,None,286.95081109995954,None,288.5773679599864,None,288.5773679599864,None,288.5773679599864,None,,,,,,,,,,,118,24,Female,2022-05-06_12h42.01.761,Boat,2022.1.1,60.008161116167564,
negative,positive,2,j,l,,,,,,,,,3,16,70,15,,,,,,,,,,,,,,,,,,,,,,,,main,1,1,2,positive,negative,j,j,1,0.7998073999769986,288.59612419997575,289.598230100004,289.5811109999777,None,288.59612419997575,None,288.59612419997575,None,288.59612419997575,None,290.37920915996654,None,290.37920915996654,None,290.37920915996654,None,,,,,,,,,,,118,24,Female,2022-05-06_12h42.01.761,Boat,2022.1.1,60.008161116167564,
neutral,neutral,2,k,k,,,,,,,,,3,17,71,10,,,,,,,,,,,,,,,,,,,,,,,,main,2,2,2,neutral,neutral,k,k,1,0.6381590000237338,290.39892740000505,291.41332089999923,291.3925604999531,None,290.39892740000505,None,290.39892740000505,None,290.39892740000505,None,292.0194203599589,None,292.0194203599589,None,292.0194203599589,None,,,,,,,,,,,118,24,Female,2022-05-06_12h42.01.761,Boat,2022.1.1,60.008161116167564,
positive,positive,2,l,j,,,,,,,,,4,0,72,11,,,,,,,,,,,,,,,,,,,,,,,,main,1,1,2,positive,positive,l,l,1,0.8006480999756604,292.0445683999569,293.05314899998484,293.01701269997284,None,292.0445683999569,None,292.0445683999569,None,292.0445683999569,None,293.82413865996057,None,293.82413865996057,None,293.82413865996057,None,,,,,,,,,,,118,24,Female,2022-05-06_12h42.01.761,Boat,2022.1.1,60.008161116167564,
negative,negative,2,j,l,,,,,,,,,4,1,73,9,,,,,,,,,,,,,,,,,,,,,,,,main,1,1,2,negative,negative,j,j,1,0.7721416000276804,293.8464272999554,294.8640305000008,294.82540869998047,None,293.8464272999554,None,293.8464272999554,None,293.8464272999554,None,295.5972671599942,None,295.5972671599942,None,295.5972671599942,None,,,,,,,,,,,118,24,Female,2022-05-06_12h42.01.761,Boat,2022.1.1,60.008161116167564,
positive,negative,2,l,j,,,,,,,,,4,2,74,14,,,,,,,,,,,,,,,,,,,,,,,,main,2,2,2,negative,positive,l,l,1,0.8004014999605715,295.61812319996534,296.6306645000004,296.59558729996206,None,295.61812319996534,None,295.61812319996534,None,295.61812319996534,None,297.4013274599914,None,297.4013274599914,None,297.4013274599914,None,,,,,,,,,,,118,24,Female,2022-05-06_12h42.01.761,Boat,2022.1.1,60.008161116167564,
negative,neutral,1,j,l,,,,,,,,,4,3,75,3,,,,,,,,,,,,,,,,,,,,,,,,main,1,1,1,neutral,negative,j,j,1,0.7723318999633193,297.42015299998457,298.43771689996356,298.40110219997587,None,297.42015299998457,None,297.42015299998457,None,297.42015299998457,None,299.1781181599712,None,299.1781181599712,None,299.1781181599712,None,,,,,,,,,,,118,24,Female,2022-05-06_12h42.01.761,Boat,2022.1.1,60.008161116167564,
positive,positive,1,l,j,,,,,,,,,4,4,76,2,,,,,,,,,,,,,,,,,,,,,,,,main,2,2,1,positive,positive,l,l,1,0.7352059000404552,299.19811080000363,300.21405159996357,300.17596999998204,None,299.19811080000363,None,299.19811080000363,None,299.19811080000363,None,300.91433815999187,None,300.91433815999187,None,300.91433815999187,None,,,,,,,,,,,118,24,Female,2022-05-06_12h42.01.761,Boat,2022.1.1,60.008161116167564,
negative,negative,1,j,l,,,,,,,,,4,5,77,0,,,,,,,,,,,,,,,,,,,,,,,,main,1,1,1,negative,negative,j,j,1,0.83153530000709,300.936752199952,301.93754849996185,301.92057560000103,None,300.936752199952,None,300.936752199952,None,300.936752199952,None,302.74977345995137,None,302.74977345995137,None,302.74977345995137,None,,,,,,,,,,,118,24,Female,2022-05-06_12h42.01.761,Boat,2022.1.1,60.008161116167564,
negative,neutral,2,j,l,,,,,,,,,4,6,78,12,,,,,,,,,,,,,,,,,,,,,,,,main,1,1,2,neutral,negative,j,j,1,0.8921058000414632,302.7680324999965,303.7808021999663,303.7423367999727,None,302.7680324999965,None,302.7680324999965,None,302.7680324999965,None,304.6454497599974,None,304.6454497599974,None,304.6454497599974,None,,,,,,,,,,,118,24,Female,2022-05-06_12h42.01.761,Boat,2022.1.1,60.008161116167564,
positive,negative,1,l,j,,,,,,,,,4,7,79,5,,,,,,,,,,,,,,,,,,,,,,,,main,2,2,1,negative,positive,l,l,1,0.9542612999794073,304.6645542999613,305.68101179995574,305.64243489998626,None,304.6645542999613,None,304.6645542999613,None,304.6645542999613,None,306.6011097599752,None,306.6011097599752,None,306.6011097599752,None,,,,,,,,,,,118,24,Female,2022-05-06_12h42.01.761,Boat,2022.1.1,60.008161116167564,
neutral,neutral,2,k,k,,,,,,,,,4,8,80,10,,,,,,,,,,,,,,,,,,,,,,,,main,2,2,2,neutral,neutral,k,k,1,0.6719010999659076,306.62187239999184,307.63058339996496,307.6095482999808,None,306.62187239999184,None,306.62187239999184,None,306.62187239999184,None,308.2781636599451,None,308.2781636599451,None,308.2781636599451,None,,,,,,,,,,,118,24,Female,2022-05-06_12h42.01.761,Boat,2022.1.1,60.008161116167564,
neutral,positive,2,k,k,,,,,,,,,4,9,81,13,,,,,,,,,,,,,,,,,,,,,,,,main,2,2,2,positive,neutral,k,k,1,0.7646660000318661,308.29743659996893,309.2989515999798,309.2808369999984,None,308.29743659996893,None,308.29743659996893,None,308.29743659996893,None,310.04500305999534,None,310.04500305999534,None,310.04500305999534,None,,,,,,,,,,,118,24,Female,2022-05-06_12h42.01.761,Boat,2022.1.1,60.008161116167564,
neutral,negative,2,k,k,,,,,,,,,4,10,82,16,,,,,,,,,,,,,,,,,,,,,,,,main,2,2,2,negative,neutral,k,k,1,0.683121400012169,310.0649510999792,311.0706604999723,311.05202770000324,None,310.0649510999792,None,310.0649510999792,None,310.0649510999792,None,311.73185485994907,None,311.73185485994907,None,311.73185485994907,None,,,,,,,,,,,118,24,Female,2022-05-06_12h42.01.761,Boat,2022.1.1,60.008161116167564,
positive,neutral,2,l,j,,,,,,,,,4,11,83,17,,,,,,,,,,,,,,,,,,,,,,,,main,2,2,2,neutral,positive,l,l,1,0.7600476000225171,311.7507445999654,312.7548287999816,312.73684599995613,None,311.7507445999654,None,311.7507445999654,None,311.7507445999654,None,313.49422715997787,None,313.49422715997787,None,313.49422715997787,None,,,,,,,,,,,118,24,Female,2022-05-06_12h42.01.761,Boat,2022.1.1,60.008161116167564,
negative,positive,2,j,l,,,,,,,,,4,12,84,15,,,,,,,,,,,,,,,,,,,,,,,,main,1,1,2,positive,negative,j,j,1,0.6968368000234477,313.5155452999752,314.5319551999564,314.4968745999504,None,313.5155452999752,None,313.5155452999752,None,313.5155452999752,None,315.1964548599557,None,315.1964548599557,None,315.1964548599557,None,,,,,,,,,,,118,24,Female,2022-05-06_12h42.01.761,Boat,2022.1.1,60.008161116167564,
neutral,negative,1,k,k,,,,,,,,,4,13,85,7,,,,,,,,,,,,,,,,,,,,,,,,main,2,2,1,negative,neutral,k,k,1,0.666037300019525,315.2162199000013,316.23417069995776,316.19811249995837,None,315.2162199000013,None,315.2162199000013,None,315.2162199000013,None,316.86329025999873,None,316.86329025999873,None,316.86329025999873,None,,,,,,,,,,,118,24,Female,2022-05-06_12h42.01.761,Boat,2022.1.1,60.008161116167564,
neutral,positive,1,k,k,,,,,,,,,4,14,86,4,,,,,,,,,,,,,,,,,,,,,,,,main,2,2,1,positive,neutral,k,k,1,0.7606371999718249,316.88598329998786,317.8883338999585,317.87020769994706,None,316.88598329998786,None,316.88598329998786,None,316.88598329998786,None,318.6298490599496,None,318.6298490599496,None,318.6298490599496,None,,,,,,,,,,,118,24,Female,2022-05-06_12h42.01.761,Boat,2022.1.1,60.008161116167564,
positive,neutral,1,l,j,,,,,,,,,4,15,87,8,,,,,,,,,,,,,,,,,,,,,,,,main,2,2,1,neutral,positive,l,l,1,0.9631206000340171,318.64962599996943,319.65246369998204,319.6336067999946,None,318.64962599996943,None,318.64962599996943,None,318.64962599996943,None,320.59709055998826,None,320.59709055998826,None,320.59709055998826,None,,,,,,,,,,,118,24,Female,2022-05-06_12h42.01.761,Boat,2022.1.1,60.008161116167564,
neutral,neutral,1,k,k,,,,,,,,,4,16,88,1,,,,,,,,,,,,,,,,,,,,,,,,main,2,2,1,neutral,neutral,k,k,1,0.6414080999675207,320.61502989998553,321.6315226999577,321.6095733999973,None,320.61502989998553,None,320.61502989998553,None,320.61502989998553,None,322.24075745998414,None,322.24075745998414,None,322.24075745998414,None,,,,,,,,,,,118,24,Female,2022-05-06_12h42.01.761,Boat,2022.1.1,60.008161116167564,
negative,positive,1,j,l,,,,,,,,,4,17,89,6,,,,,,,,,,,,,,,,,,,,,,,,main,2,2,1,positive,negative,j,j,1,0.8399325999780558,322.26350559998536,323.2814090999891,323.2431734999991,None,322.26350559998536,None,322.26350559998536,None,322.26350559998536,None,324.08371695996027,None,324.08371695996027,None,324.08371695996027,None,,,,,,,,,,,118,24,Female,2022-05-06_12h42.01.761,Boat,2022.1.1,60.008161116167564,
negative,positive,1,j,l,,,,,,,,,5,0,90,6,,,,,,,,,,,,,,,,,,,,,,,,main,1,1,1,positive,negative,j,j,1,0.7929330000188202,324.10311569995247,325.1220660999534,325.0848562999745,None,324.10311569995247,None,324.10311569995247,None,324.10311569995247,None,325.880268759944,None,325.880268759944,None,325.880268759944,None,,,,,,,,,,,118,24,Female,2022-05-06_12h42.01.761,Boat,2022.1.1,60.008161116167564,
positive,negative,1,l,j,,,,,,,,,5,1,91,5,,,,,,,,,,,,,,,,,,,,,,,,main,2,2,1,negative,positive,l,l,1,0.6610656999982893,325.9028456999804,326.9097833999549,326.88956459995825,None,325.9028456999804,None,325.9028456999804,None,325.9028456999804,None,327.5451788599952,None,327.5451788599952,None,327.5451788599952,None,,,,,,,,,,,118,24,Female,2022-05-06_12h42.01.761,Boat,2022.1.1,60.008161116167564,
negative,neutral,1,j,l,,,,,,,,,5,2,92,3,,,,,,,,,,,,,,,,,,,,,,,,main,2,2,1,neutral,negative,j,j,1,0.7572485000127926,327.5649940999574,328.56559399998514,328.5481735999929,None,327.5649940999574,None,327.5649940999574,None,327.5649940999574,None,329.3049447599682,None,329.3049447599682,None,329.3049447599682,None,,,,,,,,,,,118,24,Female,2022-05-06_12h42.01.761,Boat,2022.1.1,60.008161116167564,
negative,negative,1,j,l,,,,,,,,,5,3,93,0,,,,,,,,,,,,,,,,,,,,,,,,main,2,2,1,negative,negative,j,j,1,0.6462748000049032,329.3280542999855,330.3427862999961,330.30293479998363,None,329.3280542999855,None,329.3280542999855,None,329.3280542999855,None,330.95498205998445,None,330.95498205998445,None,330.95498205998445,None,,,,,,,,,,,118,24,Female,2022-05-06_12h42.01.761,Boat,2022.1.1,60.008161116167564,
negative,neutral,2,j,l,,,,,,,,,5,4,94,12,,,,,,,,,,,,,,,,,,,,,,,,main,2,2,2,neutral,negative,j,l,0,0.936160099983681,330.97977569996146,331.98146729997825,331.96349299995927,None,330.97977569996146,None,330.97977569996146,None,330.97977569996146,None,332.89895589998923,None,332.89895589998923,None,332.89895589998923,None,,,,,,,,,,,118,24,Female,2022-05-06_12h42.01.761,Boat,2022.1.1,60.008161116167564,
neutral,neutral,2,k,k,,,,,,,,,5,5,95,10,,,,,,,,,,,,,,,,,,,,,,,,main,2,2,2,neutral,neutral,k,k,1,0.7470107999979518,333.91758649999974,334.93448279995937,334.89822549995733,None,333.91758649999974,None,333.91758649999974,None,333.91758649999974,None,335.6490954599925,None,335.6490954599925,None,335.6490954599925,None,,,,,,,,,,,118,24,Female,2022-05-06_12h42.01.761,Boat,2022.1.1,60.008161116167564,
positive,positive,2,l,j,,,,,,,,,5,6,96,11,,,,,,,,,,,,,,,,,,,,,,,,main,1,1,2,positive,positive,l,l,1,0.688426700013224,335.66822609998053,336.66968989995075,336.651344599959,None,335.66822609998053,None,335.66822609998053,None,335.66822609998053,None,337.34148245995164,None,337.34148245995164,None,337.34148245995164,None,,,,,,,,,,,118,24,Female,2022-05-06_12h42.01.761,Boat,2022.1.1,60.008161116167564,
positive,positive,1,l,j,,,,,,,,,5,7,97,2,,,,,,,,,,,,,,,,,,,,,,,,main,1,1,1,positive,positive,l,l,1,0.7098122999886982,337.36400919995504,338.3664759999956,338.3487161999801,None,337.36400919995504,None,337.36400919995504,None,337.36400919995504,None,339.05316665999123,None,339.05316665999123,None,339.05316665999123,None,,,,,,,,,,,118,24,Female,2022-05-06_12h42.01.761,Boat,2022.1.1,60.008161116167564,
positive,neutral,2,l,j,,,,,,,,,5,8,98,17,,,,,,,,,,,,,,,,,,,,,,,,main,2,2,2,neutral,positive,l,l,1,0.6285203999723308,339.0754512999556,340.09433609998086,340.0542913999525,None,339.0754512999556,None,339.0754512999556,None,339.0754512999556,None,340.6842219599988,None,340.6842219599988,None,340.6842219599988,None,,,,,,,,,,,118,24,Female,2022-05-06_12h42.01.761,Boat,2022.1.1,60.008161116167564,
neutral,positive,2,k,k,,,,,,,,,5,9,99,13,,,,,,,,,,,,,,,,,,,,,,,,main,2,2,2,positive,neutral,k,k,1,0.7204106000135653,340.7038529999554,341.71867360000033,341.68175539997173,None,340.7038529999554,None,340.7038529999554,None,340.7038529999554,None,342.40828705995807,None,342.40828705995807,None,342.40828705995807,None,,,,,,,,,,,118,24,Female,2022-05-06_12h42.01.761,Boat,2022.1.1,60.008161116167564,
neutral,positive,1,k,k,,,,,,,,,5,10,100,4,,,,,,,,,,,,,,,,,,,,,,,,main,2,2,1,positive,neutral,k,k,1,0.6912000000011176,342.43041359999916,343.43182749999687,343.41287069994723,None,342.43041359999916,None,342.43041359999916,None,342.43041359999916,None,344.10226585998896,None,344.10226585998896,None,344.10226585998896,None,,,,,,,,,,,118,24,Female,2022-05-06_12h42.01.761,Boat,2022.1.1,60.008161116167564,
neutral,negative,2,k,k,,,,,,,,,5,11,101,16,,,,,,,,,,,,,,,,,,,,,,,,main,2,2,2,negative,neutral,k,k,1,0.7607741000247188,344.1208849999821,345.1276120999828,345.1055225000018,None,344.1208849999821,None,344.1208849999821,None,344.1208849999821,None,345.86596155996665,None,345.86596155996665,None,345.86596155996665,None,,,,,,,,,,,118,24,Female,2022-05-06_12h42.01.761,Boat,2022.1.1,60.008161116167564,
positive,neutral,1,l,j,,,,,,,,,5,12,102,8,,,,,,,,,,,,,,,,,,,,,,,,main,2,2,1,neutral,positive,l,l,1,0.6838531999965198,345.88470289995894,346.89834289997816,346.86390339996433,None,345.88470289995894,None,345.88470289995894,None,345.88470289995894,None,347.5514355599647,None,347.5514355599647,None,347.5514355599647,None,,,,,,,,,,,118,24,Female,2022-05-06_12h42.01.761,Boat,2022.1.1,60.008161116167564,
neutral,neutral,1,k,k,,,,,,,,,5,13,103,1,,,,,,,,,,,,,,,,,,,,,,,,main,1,1,1,neutral,neutral,k,k,1,0.6745464000268839,347.5756450999761,348.5820611999952,348.56139849999454,None,347.5756450999761,None,347.5756450999761,None,347.5756450999761,None,349.2303140599746,None,349.2303140599746,None,349.2303140599746,None,,,,,,,,,,,118,24,Female,2022-05-06_12h42.01.761,Boat,2022.1.1,60.008161116167564,
neutral,negative,1,k,k,,,,,,,,,5,14,104,7,,,,,,,,,,,,,,,,,,,,,,,,main,1,1,1,negative,neutral,k,k,1,0.6647986000170931,349.25035559997195,350.25909099995624,350.23826039995765,None,349.25035559997195,None,349.25035559997195,None,349.25035559997195,None,350.8986333599663,None,350.8986333599663,None,350.8986333599663,None,,,,,,,,,,,118,24,Female,2022-05-06_12h42.01.761,Boat,2022.1.1,60.008161116167564,
negative,negative,2,j,l,,,,,,,,,5,15,105,9,,,,,,,,,,,,,,,,,,,,,,,,main,1,1,2,negative,negative,j,j,1,0.840069699974265,350.91715649998514,351.93234289996326,351.893434699974,None,350.91715649998514,None,350.91715649998514,None,350.91715649998514,None,352.74296405996427,None,352.74296405996427,None,352.74296405996427,None,,,,,,,,,,,118,24,Female,2022-05-06_12h42.01.761,Boat,2022.1.1,60.008161116167564,
positive,negative,2,l,j,,,,,,,,,5,16,106,14,,,,,,,,,,,,,,,,,,,,,,,,main,1,1,2,negative,positive,l,l,1,0.8337511999998242,352.7644159999909,353.7654388999799,353.74810549995163,None,352.7644159999909,None,352.7644159999909,None,352.7644159999909,None,354.5793889599503,None,354.5793889599503,None,354.5793889599503,None,,,,,,,,,,,118,24,Female,2022-05-06_12h42.01.761,Boat,2022.1.1,60.008161116167564,
negative,positive,2,j,l,,,,,,,,,5,17,107,15,,,,,,,,,,,,,,,,,,,,,,,,main,2,2,2,positive,negative,j,j,1,0.8095881000044756,354.5994476999622,355.59873089997564,355.5818997999886,None,354.5994476999622,None,354.5994476999622,None,354.5994476999622,None,356.3925543599529,None,356.3925543599529,None,356.3925543599529,None,,,,,,,,,,,118,24,Female,2022-05-06_12h42.01.761,Boat,2022.1.1,60.008161116167564,
positive,positive,1,l,j,,,,,,,,,6,0,108,2,,,,,,,,,,,,,,,,,,,,,,,,main,1,1,1,positive,positive,l,l,1,0.7478612000122666,356.41414409998106,357.4167385000037,357.3990344000049,None,356.41414409998106,None,356.41414409998106,None,356.41414409998106,None,358.14384685995753,None,358.14384685995753,None,358.14384685995753,None,,,,,,,,,,,118,24,Female,2022-05-06_12h42.01.761,Boat,2022.1.1,60.008161116167564,
negative,negative,1,j,l,,,,,,,,,6,1,109,0,,,,,,,,,,,,,,,,,,,,,,,,main,1,1,1,negative,negative,j,j,1,0.8088706000125967,358.16494639997836,359.16666019998956,359.1321426999639,None,358.16494639997836,None,358.16494639997836,None,358.16494639997836,None,359.955003359972,None,359.955003359972,None,359.955003359972,None,,,,,,,,,,,118,24,Female,2022-05-06_12h42.01.761,Boat,2022.1.1,60.008161116167564,
neutral,positive,2,k,k,,,,,,,,,6,2,110,13,,,,,,,,,,,,,,,,,,,,,,,,main,1,1,2,positive,neutral,k,k,1,0.6888937000185251,359.97910019999836,360.98424809996504,360.9659357999917,None,359.97910019999836,None,359.97910019999836,None,359.97910019999836,None,361.6473493599682,None,361.6473493599682,None,361.6473493599682,None,,,,,,,,,,,118,24,Female,2022-05-06_12h42.01.761,Boat,2022.1.1,60.008161116167564,
neutral,neutral,2,k,k,,,,,,,,,6,3,111,10,,,,,,,,,,,,,,,,,,,,,,,,main,1,1,2,neutral,neutral,k,k,1,0.5771477000089362,361.6700395999942,362.68409159994917,362.64900789997773,None,361.6700395999942,None,361.6700395999942,None,361.6700395999942,None,363.22930925994876,None,363.22930925994876,None,363.22930925994876,None,,,,,,,,,,,118,24,Female,2022-05-06_12h42.01.761,Boat,2022.1.1,60.008161116167564,
neutral,positive,1,k,k,,,,,,,,,6,4,112,4,,,,,,,,,,,,,,,,,,,,,,,,main,2,2,1,positive,neutral,k,k,1,0.6514833999681287,363.2486038999632,364.24942730000475,364.23202899994794,None,363.2486038999632,None,363.2486038999632,None,363.2486038999632,None,364.88295625997705,None,364.88295625997705,None,364.88295625997705,None,,,,,,,,,,,118,24,Female,2022-05-06_12h42.01.761,Boat,2022.1.1,60.008161116167564,
neutral,negative,1,k,k,,,,,,,,,6,5,113,7,,,,,,,,,,,,,,,,,,,,,,,,main,2,2,1,negative,neutral,k,k,1,0.677362099988386,364.90180979995057,365.91565869998885,365.8957986999885,None,364.90180979995057,None,364.90180979995057,None,364.90180979995057,None,366.5641962599824,None,366.5641962599824,None,366.5641962599824,None,,,,,,,,,,,118,24,Female,2022-05-06_12h42.01.761,Boat,2022.1.1,60.008161116167564,
negative,negative,2,j,l,,,,,,,,,6,6,114,9,,,,,,,,,,,,,,,,,,,,,,,,main,2,2,2,negative,negative,j,j,1,0.8243306999793276,366.5836780999671,367.60396199999377,367.5655086999759,None,366.5836780999671,None,366.5836780999671,None,366.5836780999671,None,368.39278165999565,None,368.39278165999565,None,368.39278165999565,None,,,,,,,,,,,118,24,Female,2022-05-06_12h42.01.761,Boat,2022.1.1,60.008161116167564,
neutral,neutral,1,k,k,,,,,,,,,6,7,115,1,,,,,,,,,,,,,,,,,,,,,,,,main,1,1,1,neutral,neutral,k,k,1,0.7485027000075206,368.414137499989,369.4172479999834,369.38235909998184,None,368.414137499989,None,368.414137499989,None,368.414137499989,None,370.143911359983,None,370.143911359983,None,370.143911359983,None,,,,,,,,,,,118,24,Female,2022-05-06_12h42.01.761,Boat,2022.1.1,60.008161116167564,
negative,neutral,2,j,l,,,,,,,,,6,8,116,12,,,,,,,,,,,,,,,,,,,,,,,,main,2,2,2,neutral,negative,j,j,1,0.8395188000285998,370.16442299995106,371.1842951999861,371.14572199998656,None,370.16442299995106,None,370.16442299995106,None,370.16442299995106,None,371.9847315599676,None,371.9847315599676,None,371.9847315599676,None,,,,,,,,,,,118,24,Female,2022-05-06_12h42.01.761,Boat,2022.1.1,60.008161116167564,
positive,negative,1,l,j,,,,,,,,,6,9,117,5,,,,,,,,,,,,,,,,,,,,,,,,main,2,2,1,negative,positive,l,l,1,0.8579454999999143,372.00402569997823,373.0186691999552,372.9825741999666,None,372.00402569997823,None,372.00402569997823,None,372.00402569997823,None,373.8462979599484,None,373.8462979599484,None,373.8462979599484,None,,,,,,,,,,,118,24,Female,2022-05-06_12h42.01.761,Boat,2022.1.1,60.008161116167564,
positive,neutral,2,l,j,,,,,,,,,6,10,118,17,,,,,,,,,,,,,,,,,,,,,,,,main,1,1,2,neutral,positive,l,l,1,0.8294082999927923,373.8648055999656,374.8824572999729,374.8388639999903,None,373.8648055999656,None,373.8648055999656,None,373.8648055999656,None,375.679628559947,None,375.679628559947,None,375.679628559947,None,,,,,,,,,,,118,24,Female,2022-05-06_12h42.01.761,Boat,2022.1.1,60.008161116167564,
negative,positive,1,j,l,,,,,,,,,6,11,119,6,,,,,,,,,,,,,,,,,,,,,,,,main,2,2,1,positive,negative,j,j,1,0.942883100011386,375.6984883999685,376.7142136999755,376.6941447999561,None,375.6984883999685,None,375.6984883999685,None,375.6984883999685,None,377.62564805997533,None,377.62564805997533,None,377.62564805997533,None,,,,,,,,,,,118,24,Female,2022-05-06_12h42.01.761,Boat,2022.1.1,60.008161116167564,
negative,positive,2,j,l,,,,,,,,,6,12,120,15,,,,,,,,,,,,,,,,,,,,,,,,main,2,2,2,positive,negative,j,j,1,0.7372395999846049,377.64863369998056,378.6502997999778,378.6326985999476,None,377.64863369998056,None,377.64863369998056,None,377.64863369998056,None,379.36578275994395,None,379.36578275994395,None,379.36578275994395,None,,,,,,,,,,,118,24,Female,2022-05-06_12h42.01.761,Boat,2022.1.1,60.008161116167564,
negative,neutral,1,j,l,,,,,,,,,6,13,121,3,,,,,,,,,,,,,,,,,,,,,,,,main,2,2,1,neutral,negative,j,j,1,0.7332351999939419,379.3849246999598,380.40282379998825,380.3657111999928,None,379.3849246999598,None,379.3849246999598,None,379.3849246999598,None,381.09994845998006,None,381.09994845998006,None,381.09994845998006,None,,,,,,,,,,,118,24,Female,2022-05-06_12h42.01.761,Boat,2022.1.1,60.008161116167564,
positive,neutral,1,l,j,,,,,,,,,6,14,122,8,,,,,,,,,,,,,,,,,,,,,,,,main,2,2,1,neutral,positive,l,l,1,0.8798128999769688,381.1228138000006,382.1225125999772,382.10554359998787,None,381.1228138000006,None,381.1228138000006,None,381.1228138000006,None,382.9837740599527,None,382.9837740599527,None,382.9837740599527,None,,,,,,,,,,,118,24,Female,2022-05-06_12h42.01.761,Boat,2022.1.1,60.008161116167564,
positive,negative,2,l,j,,,,,,,,,6,15,123,14,,,,,,,,,,,,,,,,,,,,,,,,main,2,2,2,negative,positive,l,l,1,0.7734077000059187,383.0053622999694,384.0168355999631,383.981523800001,None,383.0053622999694,None,383.0053622999694,None,383.0053622999694,None,384.76216655996393,None,384.76216655996393,None,384.76216655996393,None,,,,,,,,,,,118,24,Female,2022-05-06_12h42.01.761,Boat,2022.1.1,60.008161116167564,
neutral,negative,2,k,k,,,,,,,,,6,16,124,16,,,,,,,,,,,,,,,,,,,,,,,,main,1,1,2,negative,neutral,k,k,1,0.8097554999985732,384.7837715999922,385.80225999996765,385.7660886999802,None,384.7837715999922,None,384.7837715999922,None,384.7837715999922,None,386.5721888599568,None,386.5721888599568,None,386.5721888599568,None,,,,,,,,,,,118,24,Female,2022-05-06_12h42.01.761,Boat,2022.1.1,60.008161116167564,
positive,positive,2,l,j,,,,,,,,,6,17,125,11,,,,,,,,,,,,,,,,,,,,,,,,main,2,2,2,positive,positive,l,l,1,0.6762000999879092,386.6003120999667,387.6088525999803,387.5877048999537,None,386.6003120999667,None,386.6003120999667,None,386.6003120999667,None,388.25309195995794,None,388.25309195995794,None,388.25309195995794,None,,,,,,,,,,,118,24,Female,2022-05-06_12h42.01.761,Boat,2022.1.1,60.008161116167564,
neutral,neutral,1,k,k,,,,,,,,,7,0,126,1,,,,,,,,,,,,,,,,,,,,,,,,main,2,2,1,neutral,neutral,k,k,1,0.7102701999829151,388.2801922999788,389.2981193999876,389.2554650999955,None,388.2801922999788,None,388.2801922999788,None,388.2801922999788,None,389.9664170599775,None,389.9664170599775,None,389.9664170599775,None,,,,,,,,,,,118,24,Female,2022-05-06_12h42.01.761,Boat,2022.1.1,60.008161116167564,
positive,negative,2,l,j,,,,,,,,,7,1,127,14,,,,,,,,,,,,,,,,,,,,,,,,main,1,1,2,negative,positive,l,l,1,0.6485975999967195,389.99258319998626,391.0024733999744,390.9793807999813,None,389.99258319998626,None,389.99258319998626,None,389.99258319998626,None,391.61832635998724,None,391.61832635998724,None,391.61832635998724,None,,,,,,,,,,,118,24,Female,2022-05-06_12h42.01.761,Boat,2022.1.1,60.008161116167564,
negative,neutral,2,j,l,,,,,,,,,7,2,128,12,,,,,,,,,,,,,,,,,,,,,,,,main,1,1,2,neutral,negative,j,j,1,0.8455505999736488,391.64671629999066,392.6551123999525,392.63645549997455,None,391.64671629999066,None,391.64671629999066,None,391.64671629999066,None,393.46872465997,None,393.46872465997,None,393.46872465997,None,,,,,,,,,,,118,24,Female,2022-05-06_12h42.01.761,Boat,2022.1.1,60.008161116167564,
negative,positive,2,j,l,,,,,,,,,7,3,129,15,,,,,,,,,,,,,,,,,,,,,,,,main,2,2,2,positive,negative,j,j,1,0.7250284000183456,393.4873974999646,394.49966119998135,394.46153189998586,None,393.4873974999646,None,393.4873974999646,None,393.4873974999646,None,395.1972964599612,None,395.1972964599612,None,395.1972964599612,None,,,,,,,,,,,118,24,Female,2022-05-06_12h42.01.761,Boat,2022.1.1,60.008161116167564,
positive,positive,2,l,j,,,,,,,,,7,4,130,11,,,,,,,,,,,,,,,,,,,,,,,,main,1,1,2,positive,positive,l,l,1,0.7892920000012964,395.21669119998114,396.22526099998504,396.2045014000032,None,395.21669119998114,None,395.21669119998114,None,395.21669119998114,None,396.98911735995205,None,396.98911735995205,None,396.98911735995205,None,,,,,,,,,,,118,24,Female,2022-05-06_12h42.01.761,Boat,2022.1.1,60.008161116167564,
negative,negative,2,j,l,,,,,,,,,7,5,131,9,,,,,,,,,,,,,,,,,,,,,,,,main,2,2,2,negative,negative,j,j,1,0.8149408000172116,397.0141737999511,398.03276420000475,397.99023009999655,None,397.0141737999511,None,397.0141737999511,None,397.0141737999511,None,398.80656725998267,None,398.80656725998267,None,398.80656725998267,None,,,,,,,,,,,118,24,Female,2022-05-06_12h42.01.761,Boat,2022.1.1,60.008161116167564,
negative,positive,1,j,l,,,,,,,,,7,6,132,6,,,,,,,,,,,,,,,,,,,,,,,,main,1,1,1,positive,negative,j,j,1,1.028201499953866,398.8311512999935,399.84844209998846,399.80710029997863,None,398.8311512999935,None,398.8311512999935,None,398.8311512999935,None,400.83710785999426,None,400.83710785999426,None,400.83710785999426,None,,,,,,,,,,,118,24,Female,2022-05-06_12h42.01.761,Boat,2022.1.1,60.008161116167564,
positive,neutral,2,l,j,,,,,,,,,7,7,133,17,,,,,,,,,,,,,,,,,,,,,,,,main,2,2,2,neutral,positive,l,l,1,0.7569182000006549,400.86108529998455,401.8687592999777,401.8497014999739,None,400.86108529998455,None,400.86108529998455,None,400.86108529998455,None,402.5986534599564,None,402.5986534599564,None,402.5986534599564,None,,,,,,,,,,,118,24,Female,2022-05-06_12h42.01.761,Boat,2022.1.1,60.008161116167564,
neutral,negative,1,k,k,,,,,,,,,7,8,134,7,,,,,,,,,,,,,,,,,,,,,,,,main,2,2,1,negative,neutral,k,k,1,0.6263705000164919,402.618553599983,403.63367989996914,403.5898367999471,None,402.618553599983,None,402.618553599983,None,402.618553599983,None,404.22918095996135,None,404.22918095996135,None,404.22918095996135,None,,,,,,,,,,,118,24,Female,2022-05-06_12h42.01.761,Boat,2022.1.1,60.008161116167564,
positive,positive,1,l,j,,,,,,,,,7,9,135,2,,,,,,,,,,,,,,,,,,,,,,,,main,2,2,1,positive,positive,l,l,1,0.7447845000424422,404.24905029998627,405.2498131999746,405.23191279999446,None,404.24905029998627,None,404.24905029998627,None,404.24905029998627,None,405.9763879599981,None,405.9763879599981,None,405.9763879599981,None,,,,,,,,,,,118,24,Female,2022-05-06_12h42.01.761,Boat,2022.1.1,60.008161116167564,
neutral,positive,1,k,k,,,,,,,,,7,10,136,4,,,,,,,,,,,,,,,,,,,,,,,,main,1,1,1,positive,neutral,k,k,1,0.6851076000020839,405.9997191999573,407.02497939998284,406.9955590000027,None,405.9997191999573,None,405.9997191999573,None,405.9997191999573,None,407.6640586599591,None,407.6640586599591,None,407.6640586599591,None,,,,,,,,,,,118,24,Female,2022-05-06_12h42.01.761,Boat,2022.1.1,60.008161116167564,
neutral,positive,2,k,k,,,,,,,,,7,11,137,13,,,,,,,,,,,,,,,,,,,,,,,,main,1,1,2,positive,neutral,k,k,1,0.6653233999968506,407.6853403999703,408.7080868999474,408.6669454999501,None,407.6853403999703,None,407.6853403999703,None,407.6853403999703,None,409.3321790599497,None,409.3321790599497,None,409.3321790599497,None,,,,,,,,,,,118,24,Female,2022-05-06_12h42.01.761,Boat,2022.1.1,60.008161116167564,
neutral,negative,2,k,k,,,,,,,,,7,12,138,16,,,,,,,,,,,,,,,,,,,,,,,,main,1,1,2,negative,neutral,k,k,1,0.6575341999996454,409.3509776999708,410.36757569998736,410.33297160000075,None,409.3509776999708,None,409.3509776999708,None,409.3509776999708,None,410.9943818599917,None,410.9943818599917,None,410.9943818599917,None,,,,,,,,,,,118,24,Female,2022-05-06_12h42.01.761,Boat,2022.1.1,60.008161116167564,
negative,neutral,1,j,l,,,,,,,,,7,13,139,3,,,,,,,,,,,,,,,,,,,,,,,,main,1,1,1,neutral,negative,j,j,1,0.8711133999750018,411.01555419998476,412.0338064999669,411.9913258999586,None,411.01555419998476,None,411.01555419998476,None,411.01555419998476,None,412.86682105999205,None,412.86682105999205,None,412.86682105999205,None,,,,,,,,,,,118,24,Female,2022-05-06_12h42.01.761,Boat,2022.1.1,60.008161116167564,
negative,negative,1,j,l,,,,,,,,,7,14,140,0,,,,,,,,,,,,,,,,,,,,,,,,main,2,2,1,negative,negative,j,j,1,0.7961808000109158,412.8887258999748,413.90069549996406,413.8834988999879,None,412.8887258999748,None,412.8887258999748,None,412.8887258999748,None,414.66676735997896,None,414.66676735997896,None,414.66676735997896,None,,,,,,,,,,,118,24,Female,2022-05-06_12h42.01.761,Boat,2022.1.1,60.008161116167564,
neutral,neutral,2,k,k,,,,,,,,,7,15,141,10,,,,,,,,,,,,,,,,,,,,,,,,main,2,2,2,neutral,neutral,k,k,1,0.7509285999694839,414.6872863000026,415.7001461999607,415.67825709999306,None,414.6872863000026,None,414.6872863000026,None,414.6872863000026,None,416.4190500599565,None,416.4190500599565,None,416.4190500599565,None,,,,,,,,,,,118,24,Female,2022-05-06_12h42.01.761,Boat,2022.1.1,60.008161116167564,
positive,negative,1,l,j,,,,,,,,,7,16,142,5,,,,,,,,,,,,,,,,,,,,,,,,main,1,1,1,negative,positive,l,l,1,0.861884200014174,416.4459489999572,417.4626308999723,417.4223305999767,None,416.4459489999572,None,416.4459489999572,None,416.4459489999572,None,418.2848810599884,None,418.2848810599884,None,418.2848810599884,None,,,,,,,,,,,118,24,Female,2022-05-06_12h42.01.761,Boat,2022.1.1,60.008161116167564,
positive,neutral,1,l,j,,,,,,,,,7,17,143,8,,,,,,,,,,,,,,,,,,,,,,,,main,2,2,1,neutral,positive,l,l,1,0.7268731000367552,418.30565449997084,419.31163569999626,419.29120159999,None,418.30565449997084,None,418.30565449997084,None,418.30565449997084,None,420.01595685995414,None,420.01595685995414,None,420.01595685995414,None,,,,,,,,,,,118,24,Female,2022-05-06_12h42.01.761,Boat,2022.1.1,60.008161116167564,
positive,negative,2,l,j,,,,,,,,,8,0,144,14,,,,,,,,,,,,,,,,,,,,,,,,main,2,2,2,negative,positive,l,l,1,0.8772763999877498,420.03594829997746,421.0621900999686,421.01210829999764,None,420.03594829997746,None,420.03594829997746,None,420.03594829997746,None,421.8968469599844,None,421.8968469599844,None,421.8968469599844,None,,,,,,,,,,,118,24,Female,2022-05-06_12h42.01.761,Boat,2022.1.1,60.008161116167564,
neutral,positive,2,k,k,,,,,,,,,8,1,145,13,,,,,,,,,,,,,,,,,,,,,,,,main,2,2,2,positive,neutral,k,k,1,0.8208453999832273,421.91665999998804,422.918117299967,422.90022079995833,None,421.91665999998804,None,421.91665999998804,None,421.91665999998804,None,423.7201341599924,None,423.7201341599924,None,423.7201341599924,None,,,,,,,,,,,118,24,Female,2022-05-06_12h42.01.761,Boat,2022.1.1,60.008161116167564,
negative,neutral,1,j,l,,,,,,,,,8,2,146,3,,,,,,,,,,,,,,,,,,,,,,,,main,1,1,1,neutral,negative,j,j,1,0.7742651000153273,423.7389411999611,424.75645739998436,424.7197959999903,None,423.7389411999611,None,423.7389411999611,None,423.7389411999611,None,425.4990693599451,None,425.4990693599451,None,425.4990693599451,None,,,,,,,,,,,118,24,Female,2022-05-06_12h42.01.761,Boat,2022.1.1,60.008161116167564,
positive,neutral,2,l,j,,,,,,,,,8,3,147,17,,,,,,,,,,,,,,,,,,,,,,,,main,1,1,2,neutral,positive,l,l,1,0.8170847999863327,425.51919429999543,426.53716639999766,426.5003495999845,None,425.51919429999543,None,425.51919429999543,None,425.51919429999543,None,427.3180693599628,None,427.3180693599628,None,427.3180693599628,None,,,,,,,,,,,118,24,Female,2022-05-06_12h42.01.761,Boat,2022.1.1,60.008161116167564,
negative,positive,2,j,l,,,,,,,,,8,4,148,15,,,,,,,,,,,,,,,,,,,,,,,,main,2,2,2,positive,negative,j,j,1,0.7678584000095725,427.3380307999905,428.3509397999733,428.3119928999804,None,427.3380307999905,None,427.3380307999905,None,427.3380307999905,None,429.08904525996184,None,429.08904525996184,None,429.08904525996184,None,,,,,,,,,,,118,24,Female,2022-05-06_12h42.01.761,Boat,2022.1.1,60.008161116167564,
negative,neutral,2,j,l,,,,,,,,,8,5,149,12,,,,,,,,,,,,,,,,,,,,,,,,main,2,2,2,neutral,negative,j,j,1,0.7238384999800473,429.1100647999556,430.13178809999954,430.0921443999978,None,429.1100647999556,None,429.1100647999556,None,429.1100647999556,None,430.81654195997396,None,430.81654195997396,None,430.81654195997396,None,,,,,,,,,,,118,24,Female,2022-05-06_12h42.01.761,Boat,2022.1.1,60.008161116167564,
neutral,positive,1,k,k,,,,,,,,,8,6,150,4,,,,,,,,,,,,,,,,,,,,,,,,main,1,1,1,positive,neutral,k,k,1,0.7163022999884561,430.8348988999496,431.85228239995195,431.8165606999537,None,430.8348988999496,None,430.8348988999496,None,430.8348988999496,None,432.53500095997003,None,432.53500095997003,None,432.53500095997003,None,,,,,,,,,,,118,24,Female,2022-05-06_12h42.01.761,Boat,2022.1.1,60.008161116167564,
negative,negative,2,j,l,,,,,,,,,8,7,151,9,,,,,,,,,,,,,,,,,,,,,,,,main,1,1,2,negative,negative,j,j,1,0.7493950999923982,432.55518829997163,433.5677594000008,433.533918000001,None,432.55518829997163,None,432.55518829997163,None,432.55518829997163,None,434.2870886599761,None,434.2870886599761,None,434.2870886599761,None,,,,,,,,,,,118,24,Female,2022-05-06_12h42.01.761,Boat,2022.1.1,60.008161116167564,
neutral,negative,2,k,k,,,,,,,,,8,8,152,16,,,,,,,,,,,,,,,,,,,,,,,,main,1,1,2,negative,neutral,k,k,1,0.6996938000083901,434.3066514999955,435.31818539998494,435.28407850000076,None,434.3066514999955,None,434.3066514999955,None,434.3066514999955,None,435.98925805997567,None,435.98925805997567,None,435.98925805997567,None,,,,,,,,,,,118,24,Female,2022-05-06_12h42.01.761,Boat,2022.1.1,60.008161116167564,
neutral,neutral,1,k,k,,,,,,,,,8,9,153,1,,,,,,,,,,,,,,,,,,,,,,,,main,1,1,1,neutral,neutral,k,k,1,0.7053404999896884,436.01243139995495,437.0338679999695,436.9943729999941,None,436.01243139995495,None,436.01243139995495,None,436.01243139995495,None,437.69928405996177,None,437.69928405996177,None,437.69928405996177,None,,,,,,,,,,,118,24,Female,2022-05-06_12h42.01.761,Boat,2022.1.1,60.008161116167564,
negative,positive,1,j,l,,,,,,,,,8,10,154,6,,,,,,,,,,,,,,,,,,,,,,,,main,2,2,1,positive,negative,j,j,1,0.7438533000531606,437.7178118999582,438.71742259996245,438.7007868999499,None,437.7178118999582,None,437.7178118999582,None,437.7178118999582,None,439.446582859999,None,439.446582859999,None,439.446582859999,None,,,,,,,,,,,118,24,Female,2022-05-06_12h42.01.761,Boat,2022.1.1,60.008161116167564,
positive,negative,1,l,j,,,,,,,,,8,11,155,5,,,,,,,,,,,,,,,,,,,,,,,,main,1,1,1,negative,positive,l,l,1,0.6994975000270642,439.4665481999982,440.46721659996547,440.45029670000076,None,439.4665481999982,None,439.4665481999982,None,439.4665481999982,None,441.14939205998087,None,441.14939205998087,None,441.14939205998087,None,,,,,,,,,,,118,24,Female,2022-05-06_12h42.01.761,Boat,2022.1.1,60.008161116167564,
neutral,neutral,2,k,k,,,,,,,,,8,12,156,10,,,,,,,,,,,,,,,,,,,,,,,,main,1,1,2,neutral,neutral,k,k,1,0.6315477000316605,441.1676230999874,442.18465619999915,442.14538459997857,None,441.1676230999874,None,441.1676230999874,None,441.1676230999874,None,442.78338436000047,None,442.78338436000047,None,442.78338436000047,None,,,,,,,,,,,118,24,Female,2022-05-06_12h42.01.761,Boat,2022.1.1,60.008161116167564,
positive,neutral,1,l,j,,,,,,,,,8,13,157,8,,,,,,,,,,,,,,,,,,,,,,,,main,2,2,1,neutral,positive,l,l,1,0.8116044999915175,442.8035164999892,443.819027199992,443.78420090000145,None,442.8035164999892,None,442.8035164999892,None,442.8035164999892,None,444.5993222599849,None,444.5993222599849,None,444.5993222599849,None,,,,,,,,,,,118,24,Female,2022-05-06_12h42.01.761,Boat,2022.1.1,60.008161116167564,
positive,positive,1,l,j,,,,,,,,,8,14,158,2,,,,,,,,,,,,,,,,,,,,,,,,main,1,1,1,positive,positive,l,l,1,0.7270880999858491,444.6189310000045,445.63420430000406,445.6136942000012,None,444.6189310000045,None,444.6189310000045,None,444.6189310000045,None,446.33024025997145,None,446.33024025997145,None,446.33024025997145,None,,,,,,,,,,,118,24,Female,2022-05-06_12h42.01.761,Boat,2022.1.1,60.008161116167564,
neutral,negative,1,k,k,,,,,,,,,8,15,159,7,,,,,,,,,,,,,,,,,,,,,,,,main,1,1,1,negative,neutral,k,k,1,0.8827348999911919,446.34958459995687,447.36575999995694,447.34556299995165,None,446.34958459995687,None,446.34958459995687,None,446.34958459995687,None,448.2157930599991,None,448.2157930599991,None,448.2157930599991,None,,,,,,,,,,,118,24,Female,2022-05-06_12h42.01.761,Boat,2022.1.1,60.008161116167564,
positive,positive,2,l,j,,,,,,,,,8,16,160,11,,,,,,,,,,,,,,,,,,,,,,,,main,1,1,2,positive,positive,l,l,1,0.763777999964077,448.23533139994834,449.25120319996495,449.2156063999864,None,448.23533139994834,None,448.23533139994834,None,448.23533139994834,None,449.9829140599817,None,449.9829140599817,None,449.9829140599817,None,,,,,,,,,,,118,24,Female,2022-05-06_12h42.01.761,Boat,2022.1.1,60.008161116167564,
negative,negative,1,j,l,,,,,,,,,8,17,161,0,,,,,,,,,,,,,,,,,,,,,,,,main,2,2,1,negative,negative,j,j,1,1.2541175000369549,450.0031462999759,451.0197857999592,450.9798855999834,None,450.0031462999759,None,450.0031462999759,None,450.0031462999759,None,452.2408294599503,None,452.2408294599503,None,452.2408294599503,None,,,,,,,,,,,118,24,Female,2022-05-06_12h42.01.761,Boat,2022.1.1,60.008161116167564,
negative,neutral,1,j,l,,,,,,,,,9,0,162,3,,,,,,,,,,,,,,,,,,,,,,,,main,1,1,1,neutral,negative,j,j,1,1.255390499951318,452.2635636999621,453.26996209996287,453.234335599991,None,452.2635636999621,None,452.2635636999621,None,452.2635636999621,None,454.4998426599544,None,454.4998426599544,None,454.4998426599544,None,,,,,,,,,,,118,24,Female,2022-05-06_12h42.01.761,Boat,2022.1.1,60.008161116167564,
neutral,negative,2,k,k,,,,,,,,,9,1,163,16,,,,,,,,,,,,,,,,,,,,,,,,main,1,1,2,negative,neutral,k,k,1,0.6841379999532364,454.517347099958,455.5188098999788,455.50103889999446,None,454.517347099958,None,454.517347099958,None,454.517347099958,None,456.1854314599535,None,456.1854314599535,None,456.1854314599535,None,,,,,,,,,,,118,24,Female,2022-05-06_12h42.01.761,Boat,2022.1.1,60.008161116167564,
positive,negative,1,l,j,,,,,,,,,9,2,164,5,,,,,,,,,,,,,,,,,,,,,,,,main,2,2,1,negative,positive,l,l,1,0.6432007999974303,456.20606009999756,457.22370469995076,457.1862759999931,None,456.20606009999756,None,456.20606009999756,None,456.20606009999756,None,457.83295425997346,None,457.83295425997346,None,457.83295425997346,None,,,,,,,,,,,118,24,Female,2022-05-06_12h42.01.761,Boat,2022.1.1,60.008161116167564,
neutral,neutral,1,k,k,,,,,,,,,9,3,165,1,,,,,,,,,,,,,,,,,,,,,,,,main,2,2,1,neutral,neutral,k,k,1,0.6975060000550002,457.8547508000047,458.87027759995544,458.8346344999736,None,457.8547508000047,None,457.8547508000047,None,457.8547508000047,None,459.5344434599741,None,459.5344434599741,None,459.5344434599741,None,,,,,,,,,,,118,24,Female,2022-05-06_12h42.01.761,Boat,2022.1.1,60.008161116167564,
positive,neutral,2,l,j,,,,,,,,,9,4,166,17,,,,,,,,,,,,,,,,,,,,,,,,main,2,2,2,neutral,positive,l,l,1,0.6437127999961376,459.55372649995843,460.5710764999967,460.53492559998995,None,459.55372649995843,None,459.55372649995843,None,459.55372649995843,None,461.18126405994406,None,461.18126405994406,None,461.18126405994406,None,,,,,,,,,,,118,24,Female,2022-05-06_12h42.01.761,Boat,2022.1.1,60.008161116167564,
negative,negative,2,j,l,,,,,,,,,9,5,167,9,,,,,,,,,,,,,,,,,,,,,,,,main,2,2,2,negative,negative,j,j,1,0.7803537999861874,461.2007736999658,462.21768419997534,462.175763199979,None,461.2007736999658,None,461.2007736999658,None,461.2007736999658,None,462.9652249599807,None,462.9652249599807,None,462.9652249599807,None,,,,,,,,,,,118,24,Female,2022-05-06_12h42.01.761,Boat,2022.1.1,60.008161116167564,
negative,positive,1,j,l,,,,,,,,,9,6,168,6,,,,,,,,,,,,,,,,,,,,,,,,main,1,1,1,positive,negative,j,j,1,0.6966434000059962,462.98734069999773,464.00288599997293,463.96789739996893,None,462.98734069999773,None,462.98734069999773,None,462.98734069999773,None,464.6664516599616,None,464.6664516599616,None,464.6664516599616,None,,,,,,,,,,,118,24,Female,2022-05-06_12h42.01.761,Boat,2022.1.1,60.008161116167564,
neutral,positive,1,k,k,,,,,,,,,9,7,169,4,,,,,,,,,,,,,,,,,,,,,,,,main,1,1,1,positive,neutral,k,k,1,0.6560738999978639,464.686041799956,465.7012545999605,465.66569909994723,None,464.686041799956,None,464.686041799956,None,464.686041799956,None,466.32457305995047,None,466.32457305995047,None,466.32457305995047,None,,,,,,,,,,,118,24,Female,2022-05-06_12h42.01.761,Boat,2022.1.1,60.008161116167564,
neutral,positive,2,k,k,,,,,,,,,9,8,170,13,,,,,,,,,,,,,,,,,,,,,,,,main,2,2,2,positive,neutral,k,k,1,0.642745700024534,466.3505109999678,467.36236469994765,467.323536699987,None,466.3505109999678,None,466.3505109999678,None,466.3505109999678,None,467.9699691599584,None,467.9699691599584,None,467.9699691599584,None,,,,,,,,,,,118,24,Female,2022-05-06_12h42.01.761,Boat,2022.1.1,60.008161116167564,
positive,positive,1,l,j,,,,,,,,,9,9,171,2,,,,,,,,,,,,,,,,,,,,,,,,main,1,1,1,positive,positive,l,l,1,0.7935469999792986,467.9902492999681,469.004558799963,468.96806349995313,None,467.9902492999681,None,467.9902492999681,None,467.9902492999681,None,469.7665072599542,None,469.7665072599542,None,469.7665072599542,None,,,,,,,,,,,118,24,Female,2022-05-06_12h42.01.761,Boat,2022.1.1,60.008161116167564,
negative,neutral,2,j,l,,,,,,,,,9,10,172,12,,,,,,,,,,,,,,,,,,,,,,,,main,1,1,2,neutral,negative,j,j,1,0.8613123000250198,469.7850881999475,470.7851518999669,470.7681374999811,None,469.7850881999475,None,469.7850881999475,None,469.7850881999475,None,471.6317548599676,None,471.6317548599676,None,471.6317548599676,None,,,,,,,,,,,118,24,Female,2022-05-06_12h42.01.761,Boat,2022.1.1,60.008161116167564,
neutral,negative,1,k,k,,,,,,,,,9,11,173,7,,,,,,,,,,,,,,,,,,,,,,,,main,1,1,1,negative,neutral,k,k,1,0.7243415000266396,471.6530585999717,472.6633605999523,472.642268399999,None,471.6530585999717,None,471.6530585999717,None,471.6530585999717,None,473.36073815994894,None,473.36073815994894,None,473.36073815994894,None,,,,,,,,,,,118,24,Female,2022-05-06_12h42.01.761,Boat,2022.1.1,60.008161116167564,
positive,negative,2,l,j,,,,,,,,,9,12,174,14,,,,,,,,,,,,,,,,,,,,,,,,main,2,2,2,negative,positive,l,l,1,0.7499924000003375,473.3831640999997,474.38797339994926,474.3529034999665,None,473.3831640999997,None,473.3831640999997,None,473.3831640999997,None,475.11296785998854,None,475.11296785998854,None,475.11296785998854,None,,,,,,,,,,,118,24,Female,2022-05-06_12h42.01.761,Boat,2022.1.1,60.008161116167564,
neutral,neutral,2,k,k,,,,,,,,,9,13,175,10,,,,,,,,,,,,,,,,,,,,,,,,main,1,1,2,neutral,neutral,k,k,1,0.7873256000457332,475.1336530999979,476.14135209994856,476.1229367000051,None,475.1336530999979,None,475.1336530999979,None,475.1336530999979,None,476.9023249599617,None,476.9023249599617,None,476.9023249599617,None,,,,,,,,,,,118,24,Female,2022-05-06_12h42.01.761,Boat,2022.1.1,60.008161116167564,
negative,positive,2,j,l,,,,,,,,,9,14,176,15,,,,,,,,,,,,,,,,,,,,,,,,main,2,2,2,positive,negative,j,j,1,0.7937669000239111,476.9231466999627,477.9340746999951,477.9133863999741,None,476.9231466999627,None,476.9231466999627,None,476.9231466999627,None,478.6993476599804,None,478.6993476599804,None,478.6993476599804,None,,,,,,,,,,,118,24,Female,2022-05-06_12h42.01.761,Boat,2022.1.1,60.008161116167564,
positive,neutral,1,l,j,,,,,,,,,9,15,177,8,,,,,,,,,,,,,,,,,,,,,,,,main,2,2,1,neutral,positive,l,j,0,0.7319896999979392,478.7221074999543,479.73914579994744,479.7015662000049,None,478.7221074999543,None,478.7221074999543,None,478.7221074999543,None,480.4404015999753,None,480.4404015999753,None,480.4404015999753,None,,,,,,,,,,,118,24,Female,2022-05-06_12h42.01.761,Boat,2022.1.1,60.008161116167564,
negative,negative,1,j,l,,,,,,,,,9,16,178,0,,,,,,,,,,,,,,,,,,,,,,,,main,2,2,1,negative,negative,j,j,1,0.87961639999412,481.4545712999534,482.463949099998,482.4419035000028,None,481.4545712999534,None,481.4545712999534,None,481.4545712999534,None,483.3183803599444,None,483.3183803599444,None,483.3183803599444,None,,,,,,,,,,,118,24,Female,2022-05-06_12h42.01.761,Boat,2022.1.1,60.008161116167564,
positive,positive,2,l,j,,,,,,,,,9,17,179,11,,,,,,,,,,,,,,,,,,,,,,,,main,1,1,2,positive,positive,l,l,1,0.6805291000055149,483.33898199995747,484.35608769999817,484.3195704999962,None,483.33898199995747,None,483.33898199995747,None,483.33898199995747,None,485.0019725599908,None,485.0019725599908,None,485.0019725599908,None,,,,,,,,,,,118,24,Female,2022-05-06_12h42.01.761,Boat,2022.1.1,60.008161116167564,
neutral,positive,2,k,k,,,,,,,,,10,0,180,13,,,,,,,,,,,,,,,,,,,,,,,,main,2,2,2,positive,neutral,k,k,1,0.6646275999955833,485.0246025999659,486.0367942999583,486.00183649995597,None,485.0246025999659,None,485.0246025999659,None,485.0246025999659,None,486.6689307599794,None,486.6689307599794,None,486.6689307599794,None,,,,,,,,,,,118,24,Female,2022-05-06_12h42.01.761,Boat,2022.1.1,60.008161116167564,
negative,neutral,1,j,l,,,,,,,,,10,1,181,3,,,,,,,,,,,,,,,,,,,,,,,,main,2,2,1,neutral,negative,j,j,1,0.7614354999968782,486.69108580000466,487.7016113999998,487.6837515999796,None,486.69108580000466,None,486.69108580000466,None,486.69108580000466,None,488.43499055997233,None,488.43499055997233,None,488.43499055997233,None,,,,,,,,,,,118,24,Female,2022-05-06_12h42.01.761,Boat,2022.1.1,60.008161116167564,
positive,neutral,2,l,j,,,,,,,,,10,2,182,17,,,,,,,,,,,,,,,,,,,,,,,,main,1,1,2,neutral,positive,l,l,1,0.8267668000189587,488.4553747999598,489.46788369998103,489.4298659999622,None,488.4553747999598,None,488.4553747999598,None,488.4553747999598,None,490.26632315994937,None,490.26632315994937,None,490.26632315994937,None,,,,,,,,,,,118,24,Female,2022-05-06_12h42.01.761,Boat,2022.1.1,60.008161116167564,
positive,negative,1,l,j,,,,,,,,,10,3,183,5,,,,,,,,,,,,,,,,,,,,,,,,main,2,2,1,negative,positive,l,l,1,0.7727552999858744,490.2867010999471,491.29848050000146,491.25768429995514,None,490.2867010999471,None,490.2867010999471,None,490.2867010999471,None,492.0412614599685,None,492.0412614599685,None,492.0412614599685,None,,,,,,,,,,,118,24,Female,2022-05-06_12h42.01.761,Boat,2022.1.1,60.008161116167564,
negative,neutral,2,j,l,,,,,,,,,10,4,184,12,,,,,,,,,,,,,,,,,,,,,,,,main,2,2,2,neutral,negative,j,j,1,0.8839884999906644,492.0672910999856,493.0718076999765,493.0543370999512,None,492.0672910999856,None,492.0672910999856,None,492.0672910999856,None,493.93048035997197,None,493.93048035997197,None,493.93048035997197,None,,,,,,,,,,,118,24,Female,2022-05-06_12h42.01.761,Boat,2022.1.1,60.008161116167564,
positive,neutral,1,l,j,,,,,,,,,10,5,185,8,,,,,,,,,,,,,,,,,,,,,,,,main,1,1,1,neutral,positive,l,l,1,0.86288929998409,493.95036659995094,494.969066599966,494.9301606999943,None,493.95036659995094,None,493.95036659995094,None,493.95036659995094,None,495.796397459961,None,495.796397459961,None,495.796397459961,None,,,,,,,,,,,118,24,Female,2022-05-06_12h42.01.761,Boat,2022.1.1,60.008161116167564,
positive,negative,2,l,j,,,,,,,,,10,6,186,14,,,,,,,,,,,,,,,,,,,,,,,,main,2,2,2,negative,positive,l,l,1,0.7977938000112772,495.8174829999916,496.83101039996836,496.7899641999975,None,495.8174829999916,None,495.8174829999916,None,495.8174829999916,None,497.59575015996813,None,497.59575015996813,None,497.59575015996813,None,,,,,,,,,,,118,24,Female,2022-05-06_12h42.01.761,Boat,2022.1.1,60.008161116167564,
negative,positive,1,j,l,,,,,,,,,10,7,187,6,,,,,,,,,,,,,,,,,,,,,,,,main,2,2,1,positive,negative,j,j,1,0.8199518999899738,497.6174939000048,498.6192746000015,498.60182809998514,None,497.6174939000048,None,497.6174939000048,None,497.6174939000048,None,499.41854715996885,None,499.41854715996885,None,499.41854715996885,None,,,,,,,,,,,118,24,Female,2022-05-06_12h42.01.761,Boat,2022.1.1,60.008161116167564,
neutral,positive,1,k,k,,,,,,,,,10,8,188,4,,,,,,,,,,,,,,,,,,,,,,,,main,2,2,1,positive,neutral,k,k,1,0.7531974000157788,499.4375565999653,500.45469709997997,500.41921490000095,None,499.4375565999653,None,499.4375565999653,None,499.4375565999653,None,501.1755137599888,None,501.1755137599888,None,501.1755137599888,None,,,,,,,,,,,118,24,Female,2022-05-06_12h42.01.761,Boat,2022.1.1,60.008161116167564,
negative,positive,2,j,l,,,,,,,,,10,9,189,15,,,,,,,,,,,,,,,,,,,,,,,,main,1,1,2,positive,negative,j,j,1,0.8417399000027217,501.19784529996105,502.2183000999503,502.17783149995375,None,501.19784529996105,None,501.19784529996105,None,501.19784529996105,None,503.01943805997723,None,503.01943805997723,None,503.01943805997723,None,,,,,,,,,,,118,24,Female,2022-05-06_12h42.01.761,Boat,2022.1.1,60.008161116167564,
negative,negative,2,j,l,,,,,,,,,10,10,190,9,,,,,,,,,,,,,,,,,,,,,,,,main,1,1,2,negative,negative,j,j,1,0.7731605000444688,503.0400277999579,504.05317559995456,504.0187146999524,None,503.0400277999579,None,503.0400277999579,None,503.0400277999579,None,504.796824359952,None,504.796824359952,None,504.796824359952,None,,,,,,,,,,,118,24,Female,2022-05-06_12h42.01.761,Boat,2022.1.1,60.008161116167564,
neutral,neutral,1,k,k,,,,,,,,,10,11,191,1,,,,,,,,,,,,,,,,,,,,,,,,main,2,2,1,neutral,neutral,k,k,1,0.8675222999881953,504.817937899963,505.8188298000023,505.80039479996776,None,504.817937899963,None,504.817937899963,None,504.817937899963,None,506.6661856599734,None,506.6661856599734,None,506.6661856599734,None,,,,,,,,,,,118,24,Female,2022-05-06_12h42.01.761,Boat,2022.1.1,60.008161116167564,
neutral,negative,2,k,k,,,,,,,,,10,12,192,16,,,,,,,,,,,,,,,,,,,,,,,,main,2,2,2,negative,neutral,k,k,1,0.6673089999821968,506.6857788999914,507.70219579996774,507.66350329999113,None,506.6857788999914,None,506.6857788999914,None,506.6857788999914,None,508.3355396599858,None,508.3355396599858,None,508.3355396599858,None,,,,,,,,,,,118,24,Female,2022-05-06_12h42.01.761,Boat,2022.1.1,60.008161116167564,
negative,negative,1,j,l,,,,,,,,,10,13,193,0,,,,,,,,,,,,,,,,,,,,,,,,main,2,2,1,negative,negative,j,j,1,0.8467734000296332,508.35719979996793,509.36704769998323,509.3468748999876,None,508.35719979996793,None,508.35719979996793,None,508.35719979996793,None,510.1857535599614,None,510.1857535599614,None,510.1857535599614,None,,,,,,,,,,,118,24,Female,2022-05-06_12h42.01.761,Boat,2022.1.1,60.008161116167564,
neutral,neutral,2,k,k,,,,,,,,,10,14,194,10,,,,,,,,,,,,,,,,,,,,,,,,main,1,1,2,neutral,neutral,k,k,1,0.7131809000275098,510.20576749998145,511.2084575999761,511.1890652999864,None,510.20576749998145,None,510.20576749998145,None,510.20576749998145,None,511.9019409599481,None,511.9019409599481,None,511.9019409599481,None,,,,,,,,,,,118,24,Female,2022-05-06_12h42.01.761,Boat,2022.1.1,60.008161116167564,
positive,positive,1,l,j,,,,,,,,,10,15,195,2,,,,,,,,,,,,,,,,,,,,,,,,main,2,2,1,positive,positive,l,l,1,0.69437000004109,511.92299329995876,512.9342481999774,512.9142010999494,None,511.92299329995876,None,511.92299329995876,None,511.92299329995876,None,513.5988697599736,None,513.5988697599736,None,513.5988697599736,None,,,,,,,,,,,118,24,Female,2022-05-06_12h42.01.761,Boat,2022.1.1,60.008161116167564,
neutral,negative,1,k,k,,,,,,,,,10,16,196,7,,,,,,,,,,,,,,,,,,,,,,,,main,1,1,1,negative,neutral,k,k,1,0.7168869000161067,513.6202225000015,514.6360421999707,514.6001156999846,None,513.6202225000015,None,513.6202225000015,None,513.6202225000015,None,515.3190662599867,None,515.3190662599867,None,515.3190662599867,None,,,,,,,,,,,118,24,Female,2022-05-06_12h42.01.761,Boat,2022.1.1,60.008161116167564,
positive,positive,2,l,j,,,,,,,,,10,17,197,11,,,,,,,,,,,,,,,,,,,,,,,,main,2,2,2,positive,positive,l,l,1,0.718451599997934,515.3392395999981,516.3529099999578,516.3188784999656,None,515.3392395999981,None,515.3392395999981,None,515.3392395999981,None,517.0419745599851,None,517.0419745599851,None,517.0419745599851,None,,,,,,,,,,,118,24,Female,2022-05-06_12h42.01.761,Boat,2022.1.1,60.008161116167564,
positive,negative,2,l,j,,,,,,,,,11,0,198,14,,,,,,,,,,,,,,,,,,,,,,,,main,1,1,2,negative,positive,l,l,1,0.6873989999876358,517.0661328999558,518.0727101999801,518.0361931999796,None,517.0661328999558,None,517.0661328999558,None,517.0661328999558,None,518.7319039599737,None,518.7319039599737,None,518.7319039599737,None,,,,,,,,,,,118,24,Female,2022-05-06_12h42.01.761,Boat,2022.1.1,60.008161116167564,
neutral,neutral,1,k,k,,,,,,,,,11,1,199,1,,,,,,,,,,,,,,,,,,,,,,,,main,2,2,1,neutral,neutral,k,k,1,0.8778232999611646,518.7529129000031,519.7670779000036,519.7471393999876,None,518.7529129000031,None,518.7529129000031,None,518.7529129000031,None,520.6147944599855,None,520.6147944599855,None,520.6147944599855,None,,,,,,,,,,,118,24,Female,2022-05-06_12h42.01.761,Boat,2022.1.1,60.008161116167564,
positive,positive,1,l,j,,,,,,,,,11,2,200,2,,,,,,,,,,,,,,,,,,,,,,,,main,2,2,1,positive,positive,l,l,1,0.9086451000184752,520.6346495999605,521.6375126999919,521.6191001999541,None,520.6346495999605,None,520.6346495999605,None,520.6346495999605,None,522.5240874599898,None,522.5240874599898,None,522.5240874599898,None,,,,,,,,,,,118,24,Female,2022-05-06_12h42.01.761,Boat,2022.1.1,60.008161116167564,
positive,neutral,2,l,j,,,,,,,,,11,3,201,17,,,,,,,,,,,,,,,,,,,,,,,,main,1,1,2,neutral,positive,l,l,1,0.8070621000370011,522.5463784000021,523.5648045999696,523.524578499957,None,522.5463784000021,None,522.5463784000021,None,522.5463784000021,None,524.3360275599756,None,524.3360275599756,None,524.3360275599756,None,,,,,,,,,,,118,24,Female,2022-05-06_12h42.01.761,Boat,2022.1.1,60.008161116167564,
negative,neutral,1,j,l,,,,,,,,,11,4,202,3,,,,,,,,,,,,,,,,,,,,,,,,main,1,1,1,neutral,negative,j,j,1,0.9119907999993302,524.3538676999742,525.3692327999743,525.3303897999576,None,524.3538676999742,None,524.3538676999742,None,524.3538676999742,None,526.2506361599429,None,526.2506361599429,None,526.2506361599429,None,,,,,,,,,,,118,24,Female,2022-05-06_12h42.01.761,Boat,2022.1.1,60.008161116167564,
neutral,neutral,2,k,k,,,,,,,,,11,5,203,10,,,,,,,,,,,,,,,,,,,,,,,,main,2,2,2,neutral,neutral,k,k,1,1.0801401999779046,526.2703581999522,527.285883399949,527.2446259999997,None,526.2703581999522,None,526.2703581999522,None,526.2703581999522,None,528.3344156599836,None,528.3344156599836,None,528.3344156599836,None,,,,,,,,,,,118,24,Female,2022-05-06_12h42.01.761,Boat,2022.1.1,60.008161116167564,
positive,neutral,1,l,j,,,,,,,,,11,6,204,8,,,,,,,,,,,,,,,,,,,,,,,,main,2,2,1,neutral,positive,l,l,1,0.7322731000022031,528.3541415999644,529.3711663999711,529.335964399972,None,528.3541415999644,None,528.3541415999644,None,528.3541415999644,None,530.0699140599812,None,530.0699140599812,None,530.0699140599812,None,,,,,,,,,,,118,24,Female,2022-05-06_12h42.01.761,Boat,2022.1.1,60.008161116167564,
negative,negative,2,j,l,,,,,,,,,11,7,205,9,,,,,,,,,,,,,,,,,,,,,,,,main,2,2,2,negative,negative,j,j,1,0.8164613000117242,530.0906347999698,531.103897199966,531.0692736999481,None,530.0906347999698,None,530.0906347999698,None,530.0906347999698,None,531.8891368599492,None,531.8891368599492,None,531.8891368599492,None,,,,,,,,,,,118,24,Female,2022-05-06_12h42.01.761,Boat,2022.1.1,60.008161116167564,
neutral,positive,2,k,k,,,,,,,,,11,8,206,13,,,,,,,,,,,,,,,,,,,,,,,,main,2,2,2,positive,neutral,k,k,1,0.7718913999851793,531.915122699982,532.9206794999773,532.8858253999497,None,531.915122699982,None,531.915122699982,None,531.915122699982,None,533.6659471599618,None,533.6659471599618,None,533.6659471599618,None,,,,,,,,,,,118,24,Female,2022-05-06_12h42.01.761,Boat,2022.1.1,60.008161116167564,
neutral,negative,2,k,k,,,,,,,,,11,9,207,16,,,,,,,,,,,,,,,,,,,,,,,,main,2,2,2,negative,neutral,k,k,1,0.9016396999941207,533.6854988999548,534.6861917999922,534.6692790999659,None,533.6854988999548,None,533.6854988999548,None,533.6854988999548,None,535.569534859946,None,535.569534859946,None,535.569534859946,None,,,,,,,,,,,118,24,Female,2022-05-06_12h42.01.761,Boat,2022.1.1,60.008161116167564,
