target,distractor,set,ans1,ans2,rep_loop2.thisRepN,rep_loop2.thisTrialN,rep_loop2.thisN,rep_loop2.thisIndex,flanker_prac_loop.thisRepN,flanker_prac_loop.thisTrialN,flanker_prac_loop.thisN,flanker_prac_loop.thisIndex,flanker_main_loop.thisRepN,flanker_main_loop.thisTrialN,flanker_main_loop.thisN,flanker_main_loop.thisIndex,fl_inst_resp.keys,mouse.x,mouse.y,mouse.leftButton,mouse.midButton,mouse.rightButton,mouse.started,mouse.stopped,sound_1.started,sound_1.stopped,no_text.started,no_text.stopped,yes_text.started,yes_text.stopped,mouse_2.x,mouse_2.y,mouse_2.leftButton,mouse_2.midButton,mouse_2.rightButton,mouse_2.started,mouse_2.stopped,back_2.started,back_2.stopped,main_prac,fl_cold,fl_colt,fl_set,fl_dcond,fl_tcond,fl_ans,fl_res,fl_corr,fl_rt,fix_fl.started,fix_fl.stopped,targ.started,targ.stopped,j_button.started,j_button.stopped,k_button.started,k_button.stopped,l_button.started,l_button.stopped,j_button2.started,j_button2.stopped,k_button2.started,k_button2.stopped,l_button2.started,l_button2.stopped,mainback.started,mainback.stopped,key_resp.keys,mouse_6.x,mouse_6.y,mouse_6.leftButton,mouse_6.midButton,mouse_6.rightButton,mouse_6.started,mouse_6.stopped,id*,age*,gender*,date,expName,psychopyVersion,frameRate,
,,,,,0,0,0,0,,,,,,,,,None,0.037037037,-0.4,0,0,0,1.0225310396635905,None,30.534161939972545,None,70.86887289996957,None,70.86887289996957,None,0.11851852,-0.062962964,0,0,0,0.013106840022373945,None,,,,,,,,,,,,,,,,,,,,,,,,,,,,,,,,,,,,,,,119,26,Female,2022-05-06_14h07.02.007,Boat,2022.1.1,60.07405930475167,
,,,,,1,0,1,0,,,,,,,,,None,0.14537036,-0.32314816,0,0,0,1.0056668400065973,None,78.18494773998391,None,130.40256000001682,None,130.40256000001682,None,-0.11018518,-0.075,0,0,0,0.013753940060269088,None,,,,,,,,,,,,,,,,,,,,,,,,,,,,,,,,,,,,,,,119,26,Female,2022-05-06_14h07.02.007,Boat,2022.1.1,60.07405930475167,
neutral,positive,2,k,k,,,,,0,0,0,13,,,,,,,,,,,,,,,,,,,,,,,,,,139.074961300008,None,prac,2,2,2,positive,neutral,k,k,1,1.4915044999797828,141.1011844999739,142.11413629999151,142.07814240001608,None,141.1011844999739,None,141.1011844999739,None,141.1011844999739,None,143.5612708399887,None,143.5612708399887,None,143.5612708399887,None,,,,,,,,,,,119,26,Female,2022-05-06_14h07.02.007,Boat,2022.1.1,60.07405930475167,
positive,negative,2,l,j,,,,,0,1,1,14,,,,,,,,,,,,,,,,,,,,,,,,,,,,prac,2,2,2,negative,positive,j,j,1,1.265990599989891,143.58079510001699,144.59289630001877,144.55853919999208,None,143.58079510001699,None,143.58079510001699,None,143.58079510001699,None,145.83119584001832,None,145.83119584001832,None,145.83119584001832,None,,,,,,,,,,,119,26,Female,2022-05-06_14h07.02.007,Boat,2022.1.1,60.07405930475167,
neutral,negative,1,k,k,,,,,0,2,2,7,,,,,,,,,,,,,,,,,,,,,,,,,,,,prac,1,1,1,negative,neutral,k,k,1,1.0636204999755137,145.85069180000573,146.87351950001903,146.8320333000156,None,145.85069180000573,None,145.85069180000573,None,145.85069180000573,None,147.89591633998788,None,147.89591633998788,None,147.89591633998788,None,,,,,,,,,,,119,26,Female,2022-05-06_14h07.02.007,Boat,2022.1.1,60.07405930475167,
neutral,neutral,2,k,k,,,,,0,3,3,10,,,,,,,,,,,,,,,,,,,,,,,,,,,,prac,1,1,2,neutral,neutral,k,k,1,0.8136905999854207,147.9159687999636,148.9301505999756,148.894438599993,None,147.9159687999636,None,147.9159687999636,None,147.9159687999636,None,149.71163774001178,None,149.71163774001178,None,149.71163774001178,None,,,,,,,,,,,119,26,Female,2022-05-06_14h07.02.007,Boat,2022.1.1,60.07405930475167,
negative,negative,1,j,l,,,,,0,4,4,0,,,,,,,,,,,,,,,,,,,,,,,,,,,,prac,2,2,1,negative,negative,l,l,1,1.0779993000323884,149.7333260999876,150.7425155999954,150.70870479999576,None,149.7333260999876,None,149.7333260999876,None,149.7333260999876,None,151.79342953999293,None,151.79342953999293,None,151.79342953999293,None,,,,,,,,,,,119,26,Female,2022-05-06_14h07.02.007,Boat,2022.1.1,60.07405930475167,
neutral,positive,1,k,k,,,,,0,5,5,4,,,,,,,,,,,,,,,,,,,,,,,,,,,,prac,1,1,1,positive,neutral,k,k,1,1.078655900026206,151.81123399996432,152.8191794999875,152.79884679999668,None,151.81123399996432,None,151.81123399996432,None,151.81123399996432,None,153.87555223999078,None,153.87555223999078,None,153.87555223999078,None,,,,,,,,,,,119,26,Female,2022-05-06_14h07.02.007,Boat,2022.1.1,60.07405930475167,
neutral,neutral,1,k,k,,,,,0,6,6,1,,,,,,,,,,,,,,,,,,,,,,,,,,,,prac,2,2,1,neutral,neutral,k,k,1,0.9203546000062488,153.8947410999681,154.915274399973,154.87697529996512,None,153.8947410999681,None,153.8947410999681,None,153.8947410999681,None,155.7984005400096,None,155.7984005400096,None,155.7984005400096,None,,,,,,,,,,,119,26,Female,2022-05-06_14h07.02.007,Boat,2022.1.1,60.07405930475167,
negative,negative,2,j,l,,,,,0,7,7,9,,,,,,,,,,,,,,,,,,,,,,,,,,,,prac,1,1,2,negative,negative,l,l,1,1.272935300017707,155.81971010001143,156.8234130999772,156.802893999964,None,155.81971010001143,None,155.81971010001143,None,155.81971010001143,None,158.0735862399917,None,158.0735862399917,None,158.0735862399917,None,,,,,,,,,,,119,26,Female,2022-05-06_14h07.02.007,Boat,2022.1.1,60.07405930475167,
positive,positive,1,l,j,,,,,0,8,8,2,,,,,,,,,,,,,,,,,,,,,,,,,,,,prac,1,1,1,positive,positive,j,j,1,1.137861100025475,158.0917793000117,159.09364019997884,159.07512519997545,None,158.0917793000117,None,158.0917793000117,None,158.0917793000117,None,160.2156412399956,None,160.2156412399956,None,160.2156412399956,None,,,,,,,,,,,119,26,Female,2022-05-06_14h07.02.007,Boat,2022.1.1,60.07405930475167,
negative,positive,1,j,l,,,,,0,9,9,6,,,,,,,,,,,,,,,,,,,,,,,,,,,,prac,1,1,1,positive,negative,l,l,1,1.21854460000759,160.2335320999846,161.24206610000692,161.20591929997317,None,160.2335320999846,None,160.2335320999846,None,160.2335320999846,None,162.43629913997137,None,162.43629913997137,None,162.43629913997137,None,,,,,,,,,,,119,26,Female,2022-05-06_14h07.02.007,Boat,2022.1.1,60.07405930475167,
positive,positive,2,l,j,,,,,0,10,10,11,,,,,,,,,,,,,,,,,,,,,,,,,,,,prac,2,2,2,positive,positive,j,j,1,1.021906099980697,162.45377069996903,163.4628002999816,163.42707470001187,None,162.45377069996903,None,162.45377069996903,None,162.45377069996903,None,164.4588535399991,None,164.4588535399991,None,164.4588535399991,None,,,,,,,,,,,119,26,Female,2022-05-06_14h07.02.007,Boat,2022.1.1,60.07405930475167,
negative,neutral,2,j,l,,,,,0,11,11,12,,,,,,,,,,,,,,,,,,,,,,,,,,,,prac,1,1,2,neutral,negative,l,l,1,0.8867858999874443,164.4775613999809,165.50002099998528,165.45326410001144,None,164.4775613999809,None,164.4775613999809,None,164.4775613999809,None,166.34957533997948,None,166.34957533997948,None,166.34957533997948,None,,,,,,,,,,,119,26,Female,2022-05-06_14h07.02.007,Boat,2022.1.1,60.07405930475167,
negative,positive,2,j,l,,,,,0,12,12,15,,,,,,,,,,,,,,,,,,,,,,,,,,,,prac,2,2,2,positive,negative,l,l,1,1.0543439000030048,166.3705964999972,167.37845149997156,167.34213309996994,None,166.3705964999972,None,166.3705964999972,None,166.3705964999972,None,168.40646824000868,None,168.40646824000868,None,168.40646824000868,None,,,,,,,,,,,119,26,Female,2022-05-06_14h07.02.007,Boat,2022.1.1,60.07405930475167,
positive,negative,1,l,j,,,,,0,13,13,5,,,,,,,,,,,,,,,,,,,,,,,,,,,,prac,1,1,1,negative,positive,j,j,1,1.033223900012672,168.4245941999834,169.44169979996514,169.42176619998645,None,168.4245941999834,None,168.4245941999834,None,168.4245941999834,None,170.44197193997678,None,170.44197193997678,None,170.44197193997678,None,,,,,,,,,,,119,26,Female,2022-05-06_14h07.02.007,Boat,2022.1.1,60.07405930475167,
positive,neutral,1,l,j,,,,,0,14,14,8,,,,,,,,,,,,,,,,,,,,,,,,,,,,prac,2,2,1,neutral,positive,j,j,1,0.9396624999935739,170.45938600000227,171.47017230000347,171.43088699999498,None,170.45938600000227,None,170.45938600000227,None,170.45938600000227,None,172.38573664000722,None,172.38573664000722,None,172.38573664000722,None,,,,,,,,,,,119,26,Female,2022-05-06_14h07.02.007,Boat,2022.1.1,60.07405930475167,
positive,neutral,2,l,j,,,,,0,15,15,17,,,,,,,,,,,,,,,,,,,,,,,,,,,,prac,2,2,2,neutral,positive,j,j,1,0.8779569999896921,172.40237179998076,173.40947690000758,173.3753299000091,None,172.40237179998076,None,172.40237179998076,None,172.40237179998076,None,174.26509943999116,None,174.26509943999116,None,174.26509943999116,None,,,,,,,,,,,119,26,Female,2022-05-06_14h07.02.007,Boat,2022.1.1,60.07405930475167,
negative,neutral,1,j,l,,,,,0,16,16,3,,,,,,,,,,,,,,,,,,,,,,,,,,,,prac,1,1,1,neutral,negative,l,l,1,0.8650189000181854,174.28314790001605,175.28973429999314,175.27026119997026,None,174.28314790001605,None,174.28314790001605,None,174.28314790001605,None,176.13285043997456,None,176.13285043997456,None,176.13285043997456,None,,,,,,,,,,,119,26,Female,2022-05-06_14h07.02.007,Boat,2022.1.1,60.07405930475167,
neutral,negative,2,k,k,,,,,0,17,17,16,,,,,,,,,,,,,,,,,,,,,,,,,,,,prac,1,1,2,negative,neutral,k,k,1,0.8669895000057295,176.15262999996776,177.16278319997946,177.12780000001658,None,176.15262999996776,None,176.15262999996776,None,176.15262999996776,None,178.00035743996267,None,178.00035743996267,None,178.00035743996267,None,,,,,,,,,,,119,26,Female,2022-05-06_14h07.02.007,Boat,2022.1.1,60.07405930475167,
positive,negative,1,l,j,,,,,1,0,18,5,,,,,,,,,,,,,,,,,,,,,,,,,,,,prac,2,2,1,negative,positive,j,j,1,0.8689560999628156,178.019594900019,179.02422859997023,179.00374849996297,None,178.019594900019,None,178.019594900019,None,178.019594900019,None,179.87266263999044,None,179.87266263999044,None,179.87266263999044,None,,,,,,,,,,,119,26,Female,2022-05-06_14h07.02.007,Boat,2022.1.1,60.07405930475167,
negative,negative,1,j,l,,,,,1,1,19,0,,,,,,,,,,,,,,,,,,,,,,,,,,,,prac,2,2,1,negative,negative,l,l,1,1.0368446999927983,179.89173450000817,180.90971709997393,180.87143850000575,None,179.89173450000817,None,179.89173450000817,None,179.89173450000817,None,181.91144514001206,None,181.91144514001206,None,181.91144514001206,None,,,,,,,,,,,119,26,Female,2022-05-06_14h07.02.007,Boat,2022.1.1,60.07405930475167,
negative,neutral,1,j,l,,,,,1,2,20,3,,,,,,,,,,,,,,,,,,,,,,,,,,,,prac,2,2,1,neutral,negative,l,l,1,0.9870859000366181,181.9307456999668,182.94350809999742,182.9089278000174,None,181.9307456999668,None,181.9307456999668,None,181.9307456999668,None,183.90242213999153,None,183.90242213999153,None,183.90242213999153,None,,,,,,,,,,,119,26,Female,2022-05-06_14h07.02.007,Boat,2022.1.1,60.07405930475167,
positive,neutral,1,l,j,,,,,1,3,21,8,,,,,,,,,,,,,,,,,,,,,,,,,,,,prac,2,2,1,neutral,positive,j,j,1,0.959771899972111,183.9248716000002,184.9428022999782,184.9030410000123,None,183.9248716000002,None,183.9248716000002,None,183.9248716000002,None,185.86342304000863,None,185.86342304000863,None,185.86342304000863,None,,,,,,,,,,,119,26,Female,2022-05-06_14h07.02.007,Boat,2022.1.1,60.07405930475167,
positive,positive,2,l,j,,,,,1,4,22,11,,,,,,,,,,,,,,,,,,,,,,,,,,,,prac,1,1,2,positive,positive,j,j,1,0.9424187000258826,185.88090910000028,186.88237840001239,186.86421229998814,None,185.88090910000028,None,185.88090910000028,None,185.88090910000028,None,187.80894503997405,None,187.80894503997405,None,187.80894503997405,None,,,,,,,,,,,119,26,Female,2022-05-06_14h07.02.007,Boat,2022.1.1,60.07405930475167,
neutral,neutral,2,k,k,,,,,1,5,23,10,,,,,,,,,,,,,,,,,,,,,,,,,,,,prac,1,1,2,neutral,neutral,k,k,1,0.9223137999651954,187.82647159998305,188.84216619998915,188.80366279999726,None,187.82647159998305,None,187.82647159998305,None,187.82647159998305,None,189.73428884001913,None,189.73428884001913,None,189.73428884001913,None,,,,,,,,,,,119,26,Female,2022-05-06_14h07.02.007,Boat,2022.1.1,60.07405930475167,
negative,neutral,2,j,l,,,,,1,6,24,12,,,,,,,,,,,,,,,,,,,,,,,,,,,,prac,2,2,2,neutral,negative,l,l,1,0.8977524000220001,189.7541764000198,190.76370780001162,190.74590959999477,None,189.7541764000198,None,189.7541764000198,None,189.7541764000198,None,191.63465333996572,None,191.63465333996572,None,191.63465333996572,None,,,,,,,,,,,119,26,Female,2022-05-06_14h07.02.007,Boat,2022.1.1,60.07405930475167,
positive,neutral,2,l,j,,,,,1,7,25,17,,,,,,,,,,,,,,,,,,,,,,,,,,,,prac,2,2,2,neutral,positive,j,j,1,0.8225306999520399,191.65694419998908,192.66360759997042,192.62720180000179,None,191.65694419998908,None,191.65694419998908,None,191.65694419998908,None,193.45924983998992,None,193.45924983998992,None,193.45924983998992,None,,,,,,,,,,,119,26,Female,2022-05-06_14h07.02.007,Boat,2022.1.1,60.07405930475167,
neutral,negative,1,k,k,,,,,1,8,26,7,,,,,,,,,,,,,,,,,,,,,,,,,,,,prac,2,2,1,negative,neutral,k,k,1,0.8731371000176296,193.47669559996575,194.48038949997863,194.46210730000166,None,193.47669559996575,None,193.47669559996575,None,193.47669559996575,None,195.33523734000045,None,195.33523734000045,None,195.33523734000045,None,,,,,,,,,,,119,26,Female,2022-05-06_14h07.02.007,Boat,2022.1.1,60.07405930475167,
positive,positive,1,l,j,,,,,1,9,27,2,,,,,,,,,,,,,,,,,,,,,,,,,,,,prac,1,1,1,positive,positive,j,j,1,0.9014434000127949,195.35750529996585,196.36241559998598,196.32673789997352,None,195.35750529996585,None,195.35750529996585,None,195.35750529996585,None,197.23952923999167,None,197.23952923999167,None,197.23952923999167,None,,,,,,,,,,,119,26,Female,2022-05-06_14h07.02.007,Boat,2022.1.1,60.07405930475167,
negative,positive,2,j,l,,,,,1,10,28,15,,,,,,,,,,,,,,,,,,,,,,,,,,,,prac,2,2,2,positive,negative,l,l,1,0.8781014999840409,197.25993399997242,198.27484329999425,198.25435339997057,None,197.25993399997242,None,197.25993399997242,None,197.25993399997242,None,199.1202338400064,None,199.1202338400064,None,199.1202338400064,None,,,,,,,,,,,119,26,Female,2022-05-06_14h07.02.007,Boat,2022.1.1,60.07405930475167,
positive,negative,2,l,j,,,,,1,11,29,14,,,,,,,,,,,,,,,,,,,,,,,,,,,,prac,1,1,2,negative,positive,j,j,1,0.8469425999792293,199.1414699999732,200.14668969996274,200.1106357999961,None,199.1414699999732,None,199.1414699999732,None,199.1414699999732,None,200.96789203996303,None,200.96789203996303,None,200.96789203996303,None,,,,,,,,,,,119,26,Female,2022-05-06_14h07.02.007,Boat,2022.1.1,60.07405930475167,
neutral,positive,1,k,k,,,,,1,12,30,4,,,,,,,,,,,,,,,,,,,,,,,,,,,,prac,2,2,1,positive,neutral,k,k,1,1.0194205000298098,200.9888573999633,201.9950287999818,201.97751519997837,None,200.9888573999633,None,200.9888573999633,None,200.9888573999633,None,202.99115723998983,None,202.99115723998983,None,202.99115723998983,None,,,,,,,,,,,119,26,Female,2022-05-06_14h07.02.007,Boat,2022.1.1,60.07405930475167,
neutral,positive,2,k,k,,,,,1,13,31,13,,,,,,,,,,,,,,,,,,,,,,,,,,,,prac,1,1,2,positive,neutral,k,k,1,0.8247317000059411,203.00957459997153,204.02632689999882,203.9884832999669,None,203.00957459997153,None,203.00957459997153,None,203.00957459997153,None,204.8193664399907,None,204.8193664399907,None,204.8193664399907,None,,,,,,,,,,,119,26,Female,2022-05-06_14h07.02.007,Boat,2022.1.1,60.07405930475167,
negative,positive,1,j,l,,,,,1,14,32,6,,,,,,,,,,,,,,,,,,,,,,,,,,,,prac,1,1,1,positive,negative,l,l,1,1.094220699975267,204.83862039999804,205.84904259996256,205.8123542999965,None,204.83862039999804,None,204.83862039999804,None,204.83862039999804,None,206.9147826399887,None,206.9147826399887,None,206.9147826399887,None,,,,,,,,,,,119,26,Female,2022-05-06_14h07.02.007,Boat,2022.1.1,60.07405930475167,
neutral,negative,2,k,k,,,,,1,15,33,16,,,,,,,,,,,,,,,,,,,,,,,,,,,,prac,1,1,2,negative,neutral,k,k,1,0.9925679999869317,206.93442100001266,207.95113170001423,207.90933389996644,None,206.93442100001266,None,206.93442100001266,None,206.93442100001266,None,208.9098756399937,None,208.9098756399937,None,208.9098756399937,None,,,,,,,,,,,119,26,Female,2022-05-06_14h07.02.007,Boat,2022.1.1,60.07405930475167,
neutral,neutral,1,k,k,,,,,1,16,34,1,,,,,,,,,,,,,,,,,,,,,,,,,,,,prac,1,1,1,neutral,neutral,k,k,1,0.6614821999683045,208.92978750000475,209.94434599997476,209.9100054000155,None,208.92978750000475,None,208.92978750000475,None,208.92978750000475,None,210.57523383996448,None,210.57523383996448,None,210.57523383996448,None,,,,,,,,,,,119,26,Female,2022-05-06_14h07.02.007,Boat,2022.1.1,60.07405930475167,
negative,negative,2,j,l,,,,,1,17,35,9,,,,,,,,,,,,,,,,,,,,,,,,,,,,prac,1,1,2,negative,negative,l,l,1,0.9840204999782145,210.59207429998787,211.5935799999861,211.57617399998708,None,210.59207429998787,None,210.59207429998787,None,210.59207429998787,None,212.56103734001516,None,212.56103734001516,None,212.56103734001516,None,,,,,,,,,,,119,26,Female,2022-05-06_14h07.02.007,Boat,2022.1.1,60.07405930475167,
,,,,,,,,,,,,,,,,,,,,,,,,,,,,,,,,,,,,,,,,,,,,,,,,,,,,,,,,,,,,,,,,,,212.57364209997468,None,None,,,,,,,,119,26,Female,2022-05-06_14h07.02.007,Boat,2022.1.1,60.07405930475167,
,,,,,,,,,,,,,,,,,,,,,,,,,,,,,,,,,,,,,,,,,,,,,,,,,,,,,,,,,,,,,,,,,,,,,-0.14166667,-0.2537037,1,0,0,0.005498540063854307,None,119,26,Female,2022-05-06_14h07.02.007,Boat,2022.1.1,60.07405930475167,
negative,positive,2,j,l,,,,,,,,,0,0,0,15,,,,,,,,,,,,,,,,,,,,,,224.37106079998193,None,main,1,1,2,positive,negative,l,l,1,1.0071166999987327,226.39434309996432,227.40448309999192,227.3840887999977,None,226.39434309996432,None,226.39434309996432,None,226.39434309996432,None,228.37900134000228,None,228.37900134000228,None,228.37900134000228,None,,,,,,,,,,,119,26,Female,2022-05-06_14h07.02.007,Boat,2022.1.1,60.07405930475167,
negative,positive,1,j,l,,,,,,,,,0,1,1,6,,,,,,,,,,,,,,,,,,,,,,,,main,1,1,1,positive,negative,l,l,1,0.798332299978938,228.40201269998215,229.40987299999688,229.3917820000206,None,228.40201269998215,None,228.40201269998215,None,228.40201269998215,None,230.1812125400058,None,230.1812125400058,None,230.1812125400058,None,,,,,,,,,,,119,26,Female,2022-05-06_14h07.02.007,Boat,2022.1.1,60.07405930475167,
negative,negative,1,j,l,,,,,,,,,0,2,2,0,,,,,,,,,,,,,,,,,,,,,,,,main,2,2,1,negative,negative,l,l,1,0.6534414999769069,230.20344850001857,231.21080150001217,231.17545869998867,None,230.20344850001857,None,230.20344850001857,None,230.20344850001857,None,231.83826544000766,None,231.83826544000766,None,231.83826544000766,None,,,,,,,,,,,119,26,Female,2022-05-06_14h07.02.007,Boat,2022.1.1,60.07405930475167,
positive,positive,2,l,j,,,,,,,,,0,3,3,11,,,,,,,,,,,,,,,,,,,,,,,,main,1,1,2,positive,positive,j,j,1,0.7858884999877773,231.85900619998574,232.8626806999673,232.8443763999967,None,231.85900619998574,None,231.85900619998574,None,231.85900619998574,None,233.62699813999933,None,233.62699813999933,None,233.62699813999933,None,,,,,,,,,,,119,26,Female,2022-05-06_14h07.02.007,Boat,2022.1.1,60.07405930475167,
neutral,neutral,1,k,k,,,,,,,,,0,4,4,1,,,,,,,,,,,,,,,,,,,,,,,,main,1,1,1,neutral,neutral,k,k,1,0.7006515999673866,233.64531120000174,234.64550980000058,234.62769330001902,None,233.64531120000174,None,233.64531120000174,None,233.64531120000174,None,235.33006483996286,None,235.33006483996286,None,235.33006483996286,None,,,,,,,,,,,119,26,Female,2022-05-06_14h07.02.007,Boat,2022.1.1,60.07405930475167,
neutral,negative,2,k,k,,,,,,,,,0,5,5,16,,,,,,,,,,,,,,,,,,,,,,,,main,2,2,2,negative,neutral,k,k,1,0.8261332999682054,235.34995599999093,236.36547429999337,236.32957900001202,None,235.34995599999093,None,235.34995599999093,None,235.34995599999093,None,237.16000223996815,None,237.16000223996815,None,237.16000223996815,None,,,,,,,,,,,119,26,Female,2022-05-06_14h07.02.007,Boat,2022.1.1,60.07405930475167,
neutral,positive,1,k,k,,,,,,,,,0,6,6,4,,,,,,,,,,,,,,,,,,,,,,,,main,1,1,1,positive,neutral,k,k,1,0.6075935999979265,237.18057319999207,238.1933565000072,238.16014399996493,None,237.18057319999207,None,237.18057319999207,None,237.18057319999207,None,238.7712102400139,None,238.7712102400139,None,238.7712102400139,None,,,,,,,,,,,119,26,Female,2022-05-06_14h07.02.007,Boat,2022.1.1,60.07405930475167,
positive,positive,1,l,j,,,,,,,,,0,7,7,2,,,,,,,,,,,,,,,,,,,,,,,,main,1,1,1,positive,positive,j,j,1,0.6665659000282176,238.79229439998744,239.7969264999847,239.77905499999179,None,238.79229439998744,None,238.79229439998744,None,238.79229439998744,None,240.44108583998167,None,240.44108583998167,None,240.44108583998167,None,,,,,,,,,,,119,26,Female,2022-05-06_14h07.02.007,Boat,2022.1.1,60.07405930475167,
neutral,positive,2,k,k,,,,,,,,,0,8,8,13,,,,,,,,,,,,,,,,,,,,,,,,main,1,1,2,positive,neutral,k,k,1,0.6577478999970481,240.45922530000098,241.4601941999863,241.441750900005,None,240.45922530000098,None,240.45922530000098,None,240.45922530000098,None,242.1008689399925,None,242.1008689399925,None,242.1008689399925,None,,,,,,,,,,,119,26,Female,2022-05-06_14h07.02.007,Boat,2022.1.1,60.07405930475167,
positive,neutral,1,l,j,,,,,,,,,0,9,9,8,,,,,,,,,,,,,,,,,,,,,,,,main,1,1,1,neutral,positive,j,j,1,0.7658120000269264,242.12620030000107,243.12918960000388,243.1114592999802,None,242.12620030000107,None,242.12620030000107,None,242.12620030000107,None,243.87346153996185,None,243.87346153996185,None,243.87346153996185,None,,,,,,,,,,,119,26,Female,2022-05-06_14h07.02.007,Boat,2022.1.1,60.07405930475167,
positive,neutral,2,l,j,,,,,,,,,0,10,10,17,,,,,,,,,,,,,,,,,,,,,,,,main,2,2,2,neutral,positive,j,j,1,0.7224875999963842,243.89226240001153,244.89694840001175,244.87830320000648,None,243.89226240001153,None,243.89226240001153,None,243.89226240001153,None,245.59740814000833,None,245.59740814000833,None,245.59740814000833,None,,,,,,,,,,,119,26,Female,2022-05-06_14h07.02.007,Boat,2022.1.1,60.07405930475167,
positive,negative,1,l,j,,,,,,,,,0,11,11,5,,,,,,,,,,,,,,,,,,,,,,,,main,1,1,1,negative,positive,j,j,1,0.8304392999853007,245.61604019999504,246.6353958999971,246.59372820000863,None,245.61604019999504,None,245.61604019999504,None,245.61604019999504,None,247.43074303998145,None,247.43074303998145,None,247.43074303998145,None,,,,,,,,,,,119,26,Female,2022-05-06_14h07.02.007,Boat,2022.1.1,60.07405930475167,
neutral,negative,1,k,k,,,,,,,,,0,12,12,7,,,,,,,,,,,,,,,,,,,,,,,,main,1,1,1,negative,neutral,k,k,1,0.6854977000039071,247.44885270000668,248.45506289997138,248.43547500000568,None,247.44885270000668,None,247.44885270000668,None,247.44885270000668,None,249.12041144001995,None,249.12041144001995,None,249.12041144001995,None,,,,,,,,,,,119,26,Female,2022-05-06_14h07.02.007,Boat,2022.1.1,60.07405930475167,
negative,neutral,1,j,l,,,,,,,,,0,13,13,3,,,,,,,,,,,,,,,,,,,,,,,,main,1,1,1,neutral,negative,l,l,1,1.0187168000265956,249.1390367000131,250.14866050001,250.1125513999723,None,249.1390367000131,None,249.1390367000131,None,249.1390367000131,None,251.1413901399821,None,251.1413901399821,None,251.1413901399821,None,,,,,,,,,,,119,26,Female,2022-05-06_14h07.02.007,Boat,2022.1.1,60.07405930475167,
negative,neutral,2,j,l,,,,,,,,,0,14,14,12,,,,,,,,,,,,,,,,,,,,,,,,main,1,1,2,neutral,negative,l,l,1,0.7158568999730051,251.16036949999398,252.1634158999659,252.14499339996837,None,251.16036949999398,None,251.16036949999398,None,251.16036949999398,None,252.86037593997315,None,252.86037593997315,None,252.86037593997315,None,,,,,,,,,,,119,26,Female,2022-05-06_14h07.02.007,Boat,2022.1.1,60.07405930475167,
neutral,neutral,2,k,k,,,,,,,,,0,15,15,10,,,,,,,,,,,,,,,,,,,,,,,,main,2,2,2,neutral,neutral,k,k,1,0.7756546000018716,252.87961840000935,253.89881390001392,253.86086959997192,None,252.87961840000935,None,252.87961840000935,None,252.87961840000935,None,254.64012153998482,None,254.64012153998482,None,254.64012153998482,None,,,,,,,,,,,119,26,Female,2022-05-06_14h07.02.007,Boat,2022.1.1,60.07405930475167,
negative,negative,2,j,l,,,,,,,,,0,16,16,9,,,,,,,,,,,,,,,,,,,,,,,,main,2,2,2,negative,negative,l,l,1,0.9137947999988683,254.65863479999825,255.67516230000183,255.6553612999851,None,254.65863479999825,None,254.65863479999825,None,254.65863479999825,None,256.556805539981,None,256.556805539981,None,256.556805539981,None,,,,,,,,,,,119,26,Female,2022-05-06_14h07.02.007,Boat,2022.1.1,60.07405930475167,
positive,negative,2,l,j,,,,,,,,,0,17,17,14,,,,,,,,,,,,,,,,,,,,,,,,main,1,1,2,negative,positive,j,j,1,0.7622442999854684,256.5759684999939,257.5944873999688,257.5552874999703,None,256.5759684999939,None,256.5759684999939,None,256.5759684999939,None,258.3204721399699,None,258.3204721399699,None,258.3204721399699,None,,,,,,,,,,,119,26,Female,2022-05-06_14h07.02.007,Boat,2022.1.1,60.07405930475167,
neutral,positive,1,k,k,,,,,,,,,1,0,18,4,,,,,,,,,,,,,,,,,,,,,,,,main,2,2,1,positive,neutral,k,k,1,0.7621589000336826,258.34043019998353,259.34742219996406,259.3295383999939,None,258.34043019998353,None,258.34043019998353,None,258.34043019998353,None,260.0866146400105,None,260.0866146400105,None,260.0866146400105,None,,,,,,,,,,,119,26,Female,2022-05-06_14h07.02.007,Boat,2022.1.1,60.07405930475167,
negative,neutral,1,j,l,,,,,,,,,1,1,19,3,,,,,,,,,,,,,,,,,,,,,,,,main,2,2,1,neutral,negative,l,l,1,0.8623848999850452,260.10460059996694,261.118737199984,261.0773044999805,None,260.10460059996694,None,260.10460059996694,None,260.10460059996694,None,261.9498473399901,None,261.9498473399901,None,261.9498473399901,None,,,,,,,,,,,119,26,Female,2022-05-06_14h07.02.007,Boat,2022.1.1,60.07405930475167,
negative,neutral,2,j,l,,,,,,,,,1,2,20,12,,,,,,,,,,,,,,,,,,,,,,,,main,2,2,2,neutral,negative,l,l,1,0.6714118999661878,261.96893919998547,262.9818740999908,262.9455805000034,None,261.96893919998547,None,261.96893919998547,None,261.96893919998547,None,263.6254994399962,None,263.6254994399962,None,263.6254994399962,None,,,,,,,,,,,119,26,Female,2022-05-06_14h07.02.007,Boat,2022.1.1,60.07405930475167,
positive,negative,1,l,j,,,,,,,,,1,3,21,5,,,,,,,,,,,,,,,,,,,,,,,,main,1,1,1,negative,positive,j,j,1,0.8135577000211924,263.6444590999745,264.6606077000033,264.6254681000137,None,263.6444590999745,None,263.6444590999745,None,263.6444590999745,None,265.44307473999214,None,265.44307473999214,None,265.44307473999214,None,,,,,,,,,,,119,26,Female,2022-05-06_14h07.02.007,Boat,2022.1.1,60.07405930475167,
neutral,negative,2,k,k,,,,,,,,,1,4,22,16,,,,,,,,,,,,,,,,,,,,,,,,main,1,1,2,negative,neutral,k,k,1,0.738926200021524,265.4624804999912,266.47532670001965,266.4556481000036,None,265.4624804999912,None,265.4624804999912,None,265.4624804999912,None,267.1868261399679,None,267.1868261399679,None,267.1868261399679,None,,,,,,,,,,,119,26,Female,2022-05-06_14h07.02.007,Boat,2022.1.1,60.07405930475167,
positive,neutral,2,l,j,,,,,,,,,1,5,23,17,,,,,,,,,,,,,,,,,,,,,,,,main,2,2,2,neutral,positive,j,j,1,0.7920931999688037,267.205390899966,268.2097246000194,268.1891875999863,None,267.205390899966,None,267.205390899966,None,267.205390899966,None,268.9798975399928,None,268.9798975399928,None,268.9798975399928,None,,,,,,,,,,,119,26,Female,2022-05-06_14h07.02.007,Boat,2022.1.1,60.07405930475167,
negative,positive,1,j,l,,,,,,,,,1,6,24,6,,,,,,,,,,,,,,,,,,,,,,,,main,2,2,1,positive,negative,l,l,1,0.7554158000275493,268.9999116999679,270.0142167999875,269.9776162999915,None,268.9999116999679,None,268.9999116999679,None,268.9999116999679,None,270.73920143999857,None,270.73920143999857,None,270.73920143999857,None,,,,,,,,,,,119,26,Female,2022-05-06_14h07.02.007,Boat,2022.1.1,60.07405930475167,
positive,positive,2,l,j,,,,,,,,,1,7,25,11,,,,,,,,,,,,,,,,,,,,,,,,main,2,2,2,positive,positive,j,j,1,0.7833990000071935,270.7600824999972,271.7638715999783,271.7444230999681,None,270.7600824999972,None,270.7600824999972,None,270.7600824999972,None,272.5263122399803,None,272.5263122399803,None,272.5263122399803,None,,,,,,,,,,,119,26,Female,2022-05-06_14h07.02.007,Boat,2022.1.1,60.07405930475167,
negative,positive,2,j,l,,,,,,,,,1,8,26,15,,,,,,,,,,,,,,,,,,,,,,,,main,1,1,2,positive,negative,l,l,1,0.7315478000091389,272.54503709997516,273.54598639998585,273.52800180000486,None,272.54503709997516,None,272.54503709997516,None,272.54503709997516,None,274.26105924001894,None,274.26105924001894,None,274.26105924001894,None,,,,,,,,,,,119,26,Female,2022-05-06_14h07.02.007,Boat,2022.1.1,60.07405930475167,
negative,negative,2,j,l,,,,,,,,,1,9,27,9,,,,,,,,,,,,,,,,,,,,,,,,main,2,2,2,negative,negative,l,l,1,0.8567322000162676,274.27889600000344,275.2786524000112,275.26136679999763,None,274.27889600000344,None,274.27889600000344,None,274.27889600000344,None,276.1210402399767,None,276.1210402399767,None,276.1210402399767,None,,,,,,,,,,,119,26,Female,2022-05-06_14h07.02.007,Boat,2022.1.1,60.07405930475167,
neutral,neutral,1,k,k,,,,,,,,,1,10,28,1,,,,,,,,,,,,,,,,,,,,,,,,main,2,2,1,neutral,neutral,k,k,1,0.7724089999683201,276.1404657000094,277.155412699969,277.1167070000083,None,276.1404657000094,None,276.1404657000094,None,276.1404657000094,None,277.8953325399663,None,277.8953325399663,None,277.8953325399663,None,,,,,,,,,,,119,26,Female,2022-05-06_14h07.02.007,Boat,2022.1.1,60.07405930475167,
positive,negative,2,l,j,,,,,,,,,1,11,29,14,,,,,,,,,,,,,,,,,,,,,,,,main,1,1,2,negative,positive,j,j,1,0.957396499987226,277.9135526000173,278.93095750000793,278.89449279999826,None,277.9135526000173,None,277.9135526000173,None,277.9135526000173,None,279.85686973999253,None,279.85686973999253,None,279.85686973999253,None,,,,,,,,,,,119,26,Female,2022-05-06_14h07.02.007,Boat,2022.1.1,60.07405930475167,
negative,negative,1,j,l,,,,,,,,,1,12,30,0,,,,,,,,,,,,,,,,,,,,,,,,main,1,1,1,negative,negative,l,l,1,0.7984202999505214,279.8748881999636,280.893557399977,280.8513254999998,None,279.8748881999636,None,279.8748881999636,None,279.8748881999636,None,281.656685239973,None,281.656685239973,None,281.656685239973,None,,,,,,,,,,,119,26,Female,2022-05-06_14h07.02.007,Boat,2022.1.1,60.07405930475167,
neutral,neutral,2,k,k,,,,,,,,,1,13,31,10,,,,,,,,,,,,,,,,,,,,,,,,main,1,1,2,neutral,neutral,k,k,1,0.8009856999851763,281.6798197000171,282.68039419996785,282.6628863000078,None,281.6798197000171,None,281.6798197000171,None,281.6798197000171,None,283.46177803997415,None,283.46177803997415,None,283.46177803997415,None,,,,,,,,,,,119,26,Female,2022-05-06_14h07.02.007,Boat,2022.1.1,60.07405930475167,
neutral,positive,2,k,k,,,,,,,,,1,14,32,13,,,,,,,,,,,,,,,,,,,,,,,,main,1,1,2,positive,neutral,k,k,1,0.6029936000122689,283.48218779999297,284.48306729999604,284.46460559999105,None,283.48218779999297,None,283.48218779999297,None,283.48218779999297,None,285.0689235399943,None,285.0689235399943,None,285.0689235399943,None,,,,,,,,,,,119,26,Female,2022-05-06_14h07.02.007,Boat,2022.1.1,60.07405930475167,
positive,neutral,1,l,j,,,,,,,,,1,15,33,8,,,,,,,,,,,,,,,,,,,,,,,,main,1,1,1,neutral,positive,j,j,1,0.7562855000142008,285.0891731000156,286.0973871999886,286.06168410001555,None,285.0891731000156,None,285.0891731000156,None,285.0891731000156,None,286.82832523998803,None,286.82832523998803,None,286.82832523998803,None,,,,,,,,,,,119,26,Female,2022-05-06_14h07.02.007,Boat,2022.1.1,60.07405930475167,
positive,positive,1,l,j,,,,,,,,,1,16,34,2,,,,,,,,,,,,,,,,,,,,,,,,main,1,1,1,positive,positive,j,j,1,0.944355399988126,286.84799169999314,287.8627684999956,287.8277956999955,None,286.84799169999314,None,286.84799169999314,None,286.84799169999314,None,288.77651003997306,None,288.77651003997306,None,288.77651003997306,None,,,,,,,,,,,119,26,Female,2022-05-06_14h07.02.007,Boat,2022.1.1,60.07405930475167,
neutral,negative,1,k,k,,,,,,,,,1,17,35,7,,,,,,,,,,,,,,,,,,,,,,,,main,1,1,1,negative,neutral,k,k,1,0.7267302999971434,288.7941098000156,289.79469459998654,289.77665640000487,None,288.7941098000156,None,288.7941098000156,None,288.7941098000156,None,290.5070121399942,None,290.5070121399942,None,290.5070121399942,None,,,,,,,,,,,119,26,Female,2022-05-06_14h07.02.007,Boat,2022.1.1,60.07405930475167,
neutral,negative,2,k,k,,,,,,,,,2,0,36,16,,,,,,,,,,,,,,,,,,,,,,,,main,2,2,2,negative,neutral,k,k,1,0.702375499997288,290.52601269999286,291.5290147999767,291.5113848000183,None,290.52601269999286,None,290.52601269999286,None,290.52601269999286,None,292.2113846400054,None,292.2113846400054,None,292.2113846400054,None,,,,,,,,,,,119,26,Female,2022-05-06_14h07.02.007,Boat,2022.1.1,60.07405930475167,
positive,neutral,1,l,j,,,,,,,,,2,1,37,8,,,,,,,,,,,,,,,,,,,,,,,,main,2,2,1,neutral,positive,j,j,1,0.792972799972631,292.2327067999868,293.24496380001074,293.2098319999641,None,292.2327067999868,None,292.2327067999868,None,292.2327067999868,None,294.008922539989,None,294.008922539989,None,294.008922539989,None,,,,,,,,,,,119,26,Female,2022-05-06_14h07.02.007,Boat,2022.1.1,60.07405930475167,
neutral,neutral,2,k,k,,,,,,,,,2,2,38,10,,,,,,,,,,,,,,,,,,,,,,,,main,2,2,2,neutral,neutral,k,k,1,0.6882233999785967,294.02754879998975,295.0432589999982,295.02275639999425,None,294.02754879998975,None,294.02754879998975,None,294.02754879998975,None,295.6990310400026,None,295.6990310400026,None,295.6990310400026,None,,,,,,,,,,,119,26,Female,2022-05-06_14h07.02.007,Boat,2022.1.1,60.07405930475167,
positive,positive,2,l,j,,,,,,,,,2,3,39,11,,,,,,,,,,,,,,,,,,,,,,,,main,2,2,2,positive,positive,j,j,1,0.7870721999788657,295.7180216999841,296.7228783000028,296.7029220999684,None,295.7180216999841,None,295.7180216999841,None,295.7180216999841,None,297.4904261400108,None,297.4904261400108,None,297.4904261400108,None,,,,,,,,,,,119,26,Female,2022-05-06_14h07.02.007,Boat,2022.1.1,60.07405930475167,
negative,negative,2,j,l,,,,,,,,,2,4,40,9,,,,,,,,,,,,,,,,,,,,,,,,main,2,2,2,negative,negative,l,l,1,0.7757657000329345,297.51021569996374,298.51260889996774,298.49481910001487,None,297.51021569996374,None,297.51021569996374,None,297.51021569996374,None,299.2672543399851,None,299.2672543399851,None,299.2672543399851,None,,,,,,,,,,,119,26,Female,2022-05-06_14h07.02.007,Boat,2022.1.1,60.07405930475167,
positive,negative,2,l,j,,,,,,,,,2,5,41,14,,,,,,,,,,,,,,,,,,,,,,,,main,1,1,2,negative,positive,j,j,1,0.7659718000213616,299.2863000999787,300.294544400007,300.27410559996497,None,299.2863000999787,None,299.2863000999787,None,299.2863000999787,None,301.0380346400081,None,301.0380346400081,None,301.0380346400081,None,,,,,,,,,,,119,26,Female,2022-05-06_14h07.02.007,Boat,2022.1.1,60.07405930475167,
negative,positive,1,j,l,,,,,,,,,2,6,42,6,,,,,,,,,,,,,,,,,,,,,,,,main,1,1,1,positive,negative,l,l,1,1.040752800006885,301.0589515999891,302.0625086000073,302.0450732000172,None,301.0589515999891,None,301.0589515999891,None,301.0589515999891,None,303.07809754000044,None,303.07809754000044,None,303.07809754000044,None,,,,,,,,,,,119,26,Female,2022-05-06_14h07.02.007,Boat,2022.1.1,60.07405930475167,
negative,neutral,1,j,l,,,,,,,,,2,7,43,3,,,,,,,,,,,,,,,,,,,,,,,,main,2,2,1,neutral,negative,l,l,1,1.3986508999951184,303.0995607000077,304.10992309998255,304.08962220000103,None,303.0995607000077,None,303.0995607000077,None,303.0995607000077,None,305.48084824001415,None,305.48084824001415,None,305.48084824001415,None,,,,,,,,,,,119,26,Female,2022-05-06_14h07.02.007,Boat,2022.1.1,60.07405930475167,
positive,negative,1,l,j,,,,,,,,,2,8,44,5,,,,,,,,,,,,,,,,,,,,,,,,main,1,1,1,negative,positive,j,j,1,0.7566910999594256,305.4996312999865,306.50976420001825,306.49025420000544,None,305.4996312999865,None,305.4996312999865,None,305.4996312999865,None,307.2415959400125,None,307.2415959400125,None,307.2415959400125,None,,,,,,,,,,,119,26,Female,2022-05-06_14h07.02.007,Boat,2022.1.1,60.07405930475167,
positive,neutral,2,l,j,,,,,,,,,2,9,45,17,,,,,,,,,,,,,,,,,,,,,,,,main,2,2,2,neutral,positive,j,j,1,0.7187342999968678,307.2627055000048,308.2789865999948,308.243408099981,None,307.2627055000048,None,307.2627055000048,None,307.2627055000048,None,308.9620969400159,None,308.9620969400159,None,308.9620969400159,None,,,,,,,,,,,119,26,Female,2022-05-06_14h07.02.007,Boat,2022.1.1,60.07405930475167,
negative,positive,2,j,l,,,,,,,,,2,10,46,15,,,,,,,,,,,,,,,,,,,,,,,,main,2,2,2,positive,negative,l,l,1,0.7704158999840729,308.98380260000704,309.9974094000063,309.95984039996983,None,308.98380260000704,None,308.98380260000704,None,308.98380260000704,None,310.7382176400162,None,310.7382176400162,None,310.7382176400162,None,,,,,,,,,,,119,26,Female,2022-05-06_14h07.02.007,Boat,2022.1.1,60.07405930475167,
neutral,positive,1,k,k,,,,,,,,,2,11,47,4,,,,,,,,,,,,,,,,,,,,,,,,main,2,2,1,positive,neutral,k,k,1,0.6677112000179477,310.75930109998444,311.7783913000021,311.74069940001937,None,310.75930109998444,None,310.75930109998444,None,310.75930109998444,None,312.4073326400132,None,312.4073326400132,None,312.4073326400132,None,,,,,,,,,,,119,26,Female,2022-05-06_14h07.02.007,Boat,2022.1.1,60.07405930475167,
positive,positive,1,l,j,,,,,,,,,2,12,48,2,,,,,,,,,,,,,,,,,,,,,,,,main,1,1,1,positive,positive,j,j,1,0.7073993000085466,312.42844160000095,313.4290088000125,313.41178379999474,None,312.42844160000095,None,312.42844160000095,None,312.42844160000095,None,314.11933154000434,None,314.11933154000434,None,314.11933154000434,None,,,,,,,,,,,119,26,Female,2022-05-06_14h07.02.007,Boat,2022.1.1,60.07405930475167,
neutral,negative,1,k,k,,,,,,,,,2,13,49,7,,,,,,,,,,,,,,,,,,,,,,,,main,1,1,1,negative,neutral,k,k,1,0.7196407000301406,314.13745859998744,315.15363169997,315.1264733999851,None,314.13745859998744,None,314.13745859998744,None,314.13745859998744,None,315.8411907399888,None,315.8411907399888,None,315.8411907399888,None,,,,,,,,,,,119,26,Female,2022-05-06_14h07.02.007,Boat,2022.1.1,60.07405930475167,
negative,negative,1,j,l,,,,,,,,,2,14,50,0,,,,,,,,,,,,,,,,,,,,,,,,main,2,2,1,negative,negative,l,l,1,0.8694689000258222,315.86057149997214,316.87819149997085,316.85792209999636,None,315.86057149997214,None,315.86057149997214,None,315.86057149997214,None,317.71205413998103,None,317.71205413998103,None,317.71205413998103,None,,,,,,,,,,,119,26,Female,2022-05-06_14h07.02.007,Boat,2022.1.1,60.07405930475167,
neutral,neutral,1,k,k,,,,,,,,,2,15,51,1,,,,,,,,,,,,,,,,,,,,,,,,main,1,1,1,neutral,neutral,k,k,1,0.7375834999838844,317.73323389998404,318.7458744000178,318.71053300000494,None,317.73323389998404,None,317.73323389998404,None,317.73323389998404,None,319.45534273998345,None,319.45534273998345,None,319.45534273998345,None,,,,,,,,,,,119,26,Female,2022-05-06_14h07.02.007,Boat,2022.1.1,60.07405930475167,
neutral,positive,2,k,k,,,,,,,,,2,16,52,13,,,,,,,,,,,,,,,,,,,,,,,,main,2,2,2,positive,neutral,k,k,1,0.6670933999703266,319.47572669998044,320.49412109999685,320.45257999998285,None,319.47572669998044,None,319.47572669998044,None,319.47572669998044,None,321.1246978400042,None,321.1246978400042,None,321.1246978400042,None,,,,,,,,,,,119,26,Female,2022-05-06_14h07.02.007,Boat,2022.1.1,60.07405930475167,
negative,neutral,2,j,l,,,,,,,,,2,17,53,12,,,,,,,,,,,,,,,,,,,,,,,,main,1,1,2,neutral,negative,l,l,1,0.7882721000351012,321.1448391000158,322.16180190001614,322.1235505999648,None,321.1448391000158,None,321.1448391000158,None,321.1448391000158,None,322.91546863997354,None,322.91546863997354,None,322.91546863997354,None,,,,,,,,,,,119,26,Female,2022-05-06_14h07.02.007,Boat,2022.1.1,60.07405930475167,
negative,positive,2,j,l,,,,,,,,,3,0,54,15,,,,,,,,,,,,,,,,,,,,,,,,main,2,2,2,positive,negative,l,l,1,0.6710382000310346,322.93540810002014,323.9450921000098,323.91026869998313,None,322.93540810002014,None,322.93540810002014,None,322.93540810002014,None,324.5911455399939,None,324.5911455399939,None,324.5911455399939,None,,,,,,,,,,,119,26,Female,2022-05-06_14h07.02.007,Boat,2022.1.1,60.07405930475167,
negative,negative,2,j,l,,,,,,,,,3,1,55,9,,,,,,,,,,,,,,,,,,,,,,,,main,1,1,2,negative,negative,l,l,1,0.6941603999584913,324.6093980000005,325.61182469996857,325.5950322999852,None,324.6093980000005,None,324.6093980000005,None,324.6093980000005,None,326.28831523999105,None,326.28831523999105,None,326.28831523999105,None,,,,,,,,,,,119,26,Female,2022-05-06_14h07.02.007,Boat,2022.1.1,60.07405930475167,
negative,negative,1,j,l,,,,,,,,,3,2,56,0,,,,,,,,,,,,,,,,,,,,,,,,main,2,2,1,negative,negative,l,l,1,0.8632006000261754,326.3067209000001,327.3102743999916,327.2902753999806,None,326.3067209000001,None,326.3067209000001,None,326.3067209000001,None,328.1543714399915,None,328.1543714399915,None,328.1543714399915,None,,,,,,,,,,,119,26,Female,2022-05-06_14h07.02.007,Boat,2022.1.1,60.07405930475167,
neutral,positive,1,k,k,,,,,,,,,3,3,57,4,,,,,,,,,,,,,,,,,,,,,,,,main,1,1,1,positive,neutral,k,k,1,0.7068213000311516,328.1749455999816,329.18152300000656,329.14674970001215,None,328.1749455999816,None,328.1749455999816,None,328.1749455999816,None,329.86210864001185,None,329.86210864001185,None,329.86210864001185,None,,,,,,,,,,,119,26,Female,2022-05-06_14h07.02.007,Boat,2022.1.1,60.07405930475167,
positive,neutral,2,l,j,,,,,,,,,3,4,58,17,,,,,,,,,,,,,,,,,,,,,,,,main,2,2,2,neutral,positive,j,j,1,0.8978822000208311,329.8814299000078,330.8935198999825,330.8735961000202,None,329.8814299000078,None,329.8814299000078,None,329.8814299000078,None,331.7631891399971,None,331.7631891399971,None,331.7631891399971,None,,,,,,,,,,,119,26,Female,2022-05-06_14h07.02.007,Boat,2022.1.1,60.07405930475167,
neutral,negative,1,k,k,,,,,,,,,3,5,59,7,,,,,,,,,,,,,,,,,,,,,,,,main,1,1,1,negative,neutral,k,k,1,0.9036078999633901,331.78113529999973,332.7949603999732,332.7738255999866,None,331.78113529999973,None,331.78113529999973,None,331.78113529999973,None,333.6704784399946,None,333.6704784399946,None,333.6704784399946,None,,,,,,,,,,,119,26,Female,2022-05-06_14h07.02.007,Boat,2022.1.1,60.07405930475167,
neutral,positive,2,k,k,,,,,,,,,3,6,60,13,,,,,,,,,,,,,,,,,,,,,,,,main,2,2,2,positive,neutral,k,k,1,0.5635805999627337,333.6899481000146,334.695960299985,334.6622343999916,None,333.6899481000146,None,333.6899481000146,None,333.6899481000146,None,335.2370640399633,None,335.2370640399633,None,335.2370640399633,None,,,,,,,,,,,119,26,Female,2022-05-06_14h07.02.007,Boat,2022.1.1,60.07405930475167,
negative,positive,1,j,l,,,,,,,,,3,7,61,6,,,,,,,,,,,,,,,,,,,,,,,,main,1,1,1,positive,negative,l,l,1,0.7743974999757484,335.2547235999955,336.2668453999795,336.2295531000127,None,335.2547235999955,None,335.2547235999955,None,335.2547235999955,None,337.0122561399941,None,337.0122561399941,None,337.0122561399941,None,,,,,,,,,,,119,26,Female,2022-05-06_14h07.02.007,Boat,2022.1.1,60.07405930475167,
positive,negative,2,l,j,,,,,,,,,3,8,62,14,,,,,,,,,,,,,,,,,,,,,,,,main,1,1,2,negative,positive,j,j,1,0.8665827999939211,337.0324098999845,338.04589840001427,338.0102129000006,None,337.0324098999845,None,337.0324098999845,None,337.0324098999845,None,338.8796380400192,None,338.8796380400192,None,338.8796380400192,None,,,,,,,,,,,119,26,Female,2022-05-06_14h07.02.007,Boat,2022.1.1,60.07405930475167,
negative,neutral,1,j,l,,,,,,,,,3,9,63,3,,,,,,,,,,,,,,,,,,,,,,,,main,1,1,1,neutral,negative,l,l,1,0.7633575999643654,338.9109541999642,339.9129589999793,339.8959440999897,None,338.9109541999642,None,338.9109541999642,None,338.9109541999642,None,340.6483234399813,None,340.6483234399813,None,340.6483234399813,None,,,,,,,,,,,119,26,Female,2022-05-06_14h07.02.007,Boat,2022.1.1,60.07405930475167,
positive,neutral,1,l,j,,,,,,,,,3,10,64,8,,,,,,,,,,,,,,,,,,,,,,,,main,2,2,1,neutral,positive,j,j,1,1.0669159999815747,340.6682234000182,341.6870883000083,341.6600002999767,None,340.6682234000182,None,340.6682234000182,None,340.6682234000182,None,342.72037733996984,None,342.72037733996984,None,342.72037733996984,None,,,,,,,,,,,119,26,Female,2022-05-06_14h07.02.007,Boat,2022.1.1,60.07405930475167,
positive,positive,2,l,j,,,,,,,,,3,11,65,11,,,,,,,,,,,,,,,,,,,,,,,,main,2,2,2,positive,positive,j,j,1,0.671985599969048,342.73786039999686,343.7611339999712,343.7188809000072,None,342.73786039999686,None,342.73786039999686,None,342.73786039999686,None,344.3945908399648,None,344.3945908399648,None,344.3945908399648,None,,,,,,,,,,,119,26,Female,2022-05-06_14h07.02.007,Boat,2022.1.1,60.07405930475167,
neutral,neutral,1,k,k,,,,,,,,,3,12,66,1,,,,,,,,,,,,,,,,,,,,,,,,main,1,1,1,neutral,neutral,k,k,1,0.6288827999960631,344.4131241000141,345.42349089996424,345.38363880000543,None,344.4131241000141,None,344.4131241000141,None,344.4131241000141,None,346.02669353997334,None,346.02669353997334,None,346.02669353997334,None,,,,,,,,,,,119,26,Female,2022-05-06_14h07.02.007,Boat,2022.1.1,60.07405930475167,
neutral,neutral,2,k,k,,,,,,,,,3,13,67,10,,,,,,,,,,,,,,,,,,,,,,,,main,2,2,2,neutral,neutral,k,k,1,0.6560327000333928,346.0463407000061,347.0501297999872,347.0318299999926,None,346.0463407000061,None,346.0463407000061,None,346.0463407000061,None,347.68517863999585,None,347.68517863999585,None,347.68517863999585,None,,,,,,,,,,,119,26,Female,2022-05-06_14h07.02.007,Boat,2022.1.1,60.07405930475167,
positive,positive,1,l,j,,,,,,,,,3,14,68,2,,,,,,,,,,,,,,,,,,,,,,,,main,1,1,1,positive,positive,j,j,1,0.735227000026498,347.707425599976,348.7183792999713,348.67971449997276,None,347.707425599976,None,347.707425599976,None,347.707425599976,None,349.42454834001836,None,349.42454834001836,None,349.42454834001836,None,,,,,,,,,,,119,26,Female,2022-05-06_14h07.02.007,Boat,2022.1.1,60.07405930475167,
positive,negative,1,l,j,,,,,,,,,3,15,69,5,,,,,,,,,,,,,,,,,,,,,,,,main,2,2,1,negative,positive,j,j,1,0.6572569999843836,349.4447660999722,350.4570253000129,350.43569010001374,None,349.4447660999722,None,349.4447660999722,None,349.4447660999722,None,351.0832033399958,None,351.0832033399958,None,351.0832033399958,None,,,,,,,,,,,119,26,Female,2022-05-06_14h07.02.007,Boat,2022.1.1,60.07405930475167,
negative,neutral,2,j,l,,,,,,,,,3,16,70,12,,,,,,,,,,,,,,,,,,,,,,,,main,1,1,2,neutral,negative,l,l,1,0.8088951000245288,351.1024491999997,352.11396930000046,352.07937190000666,None,351.1024491999997,None,351.1024491999997,None,351.1024491999997,None,352.8958878400037,None,352.8958878400037,None,352.8958878400037,None,,,,,,,,,,,119,26,Female,2022-05-06_14h07.02.007,Boat,2022.1.1,60.07405930475167,
neutral,negative,2,k,k,,,,,,,,,3,17,71,16,,,,,,,,,,,,,,,,,,,,,,,,main,1,1,2,negative,neutral,k,k,1,0.7440500999800861,352.914057899965,353.9297644000035,353.89315339998575,None,352.914057899965,None,352.914057899965,None,352.914057899965,None,354.6434291399666,None,354.6434291399666,None,354.6434291399666,None,,,,,,,,,,,119,26,Female,2022-05-06_14h07.02.007,Boat,2022.1.1,60.07405930475167,
neutral,positive,1,k,k,,,,,,,,,4,0,72,4,,,,,,,,,,,,,,,,,,,,,,,,main,2,2,1,positive,neutral,k,k,1,0.6304194000549614,354.6639645000105,355.68002319999505,355.64606609998737,None,354.6639645000105,None,354.6639645000105,None,354.6639645000105,None,356.2782371399691,None,356.2782371399691,None,356.2782371399691,None,,,,,,,,,,,119,26,Female,2022-05-06_14h07.02.007,Boat,2022.1.1,60.07405930475167,
positive,positive,2,l,j,,,,,,,,,4,1,73,11,,,,,,,,,,,,,,,,,,,,,,,,main,2,2,2,positive,positive,j,j,1,0.6949162000091746,356.29714679997414,357.31316379999043,357.2909853999736,None,356.29714679997414,None,356.29714679997414,None,356.29714679997414,None,357.97428074000635,None,357.97428074000635,None,357.97428074000635,None,,,,,,,,,,,119,26,Female,2022-05-06_14h07.02.007,Boat,2022.1.1,60.07405930475167,
negative,neutral,2,j,l,,,,,,,,,4,2,74,12,,,,,,,,,,,,,,,,,,,,,,,,main,2,2,2,neutral,negative,l,l,1,0.7747589000500739,358.0005466999719,359.0065475999727,358.9852394000045,None,358.0005466999719,None,358.0005466999719,None,358.0005466999719,None,359.75574133998015,None,359.75574133998015,None,359.75574133998015,None,,,,,,,,,,,119,26,Female,2022-05-06_14h07.02.007,Boat,2022.1.1,60.07405930475167,
negative,negative,2,j,l,,,,,,,,,4,3,75,9,,,,,,,,,,,,,,,,,,,,,,,,main,1,1,2,negative,negative,l,l,1,0.7775904000154696,359.77902299998095,360.78536769998027,360.7655680999742,None,359.77902299998095,None,359.77902299998095,None,359.77902299998095,None,361.5356275400147,None,361.5356275400147,None,361.5356275400147,None,,,,,,,,,,,119,26,Female,2022-05-06_14h07.02.007,Boat,2022.1.1,60.07405930475167,
positive,negative,2,l,j,,,,,,,,,4,4,76,14,,,,,,,,,,,,,,,,,,,,,,,,main,1,1,2,negative,positive,j,j,1,0.7427501999773085,361.55762859998504,362.5677052999963,362.5477544000023,None,361.55762859998504,None,361.55762859998504,None,361.55762859998504,None,363.27940053998026,None,363.27940053998026,None,363.27940053998026,None,,,,,,,,,,,119,26,Female,2022-05-06_14h07.02.007,Boat,2022.1.1,60.07405930475167,
neutral,positive,2,k,k,,,,,,,,,4,5,77,13,,,,,,,,,,,,,,,,,,,,,,,,main,2,2,2,positive,neutral,k,k,1,0.7576246000244282,363.3037949000136,364.32565999997314,364.28484410000965,None,363.3037949000136,None,363.3037949000136,None,363.3037949000136,None,365.0422679399955,None,365.0422679399955,None,365.0422679399955,None,,,,,,,,,,,119,26,Female,2022-05-06_14h07.02.007,Boat,2022.1.1,60.07405930475167,
negative,positive,1,j,l,,,,,,,,,4,6,78,6,,,,,,,,,,,,,,,,,,,,,,,,main,2,2,1,positive,negative,l,l,1,0.9616274000145495,365.06420129997423,366.0679769999697,366.04896669997834,None,365.06420129997423,None,365.06420129997423,None,365.06420129997423,None,367.0077890399727,None,367.0077890399727,None,367.0077890399727,None,,,,,,,,,,,119,26,Female,2022-05-06_14h07.02.007,Boat,2022.1.1,60.07405930475167,
neutral,negative,1,k,k,,,,,,,,,4,7,79,7,,,,,,,,,,,,,,,,,,,,,,,,main,2,2,1,negative,neutral,k,k,1,0.676576700003352,367.0283716999693,368.04490390000865,368.02454989997204,None,367.0283716999693,None,367.0283716999693,None,367.0283716999693,None,368.6855919399997,None,368.6855919399997,None,368.6855919399997,None,,,,,,,,,,,119,26,Female,2022-05-06_14h07.02.007,Boat,2022.1.1,60.07405930475167,
negative,negative,1,j,l,,,,,,,,,4,8,80,0,,,,,,,,,,,,,,,,,,,,,,,,main,2,2,1,negative,negative,l,l,1,0.7614241000264883,368.70965330000035,369.71390699996846,369.69636800000444,None,368.70965330000035,None,368.70965330000035,None,368.70965330000035,None,370.450459139992,None,370.450459139992,None,370.450459139992,None,,,,,,,,,,,119,26,Female,2022-05-06_14h07.02.007,Boat,2022.1.1,60.07405930475167,
positive,negative,1,l,j,,,,,,,,,4,9,81,5,,,,,,,,,,,,,,,,,,,,,,,,main,2,2,1,negative,positive,j,j,1,0.7355017000227235,370.4737365000183,371.4859220999642,371.44866679998813,None,370.4737365000183,None,370.4737365000183,None,370.4737365000183,None,372.19126883997814,None,372.19126883997814,None,372.19126883997814,None,,,,,,,,,,,119,26,Female,2022-05-06_14h07.02.007,Boat,2022.1.1,60.07405930475167,
negative,positive,2,j,l,,,,,,,,,4,10,82,15,,,,,,,,,,,,,,,,,,,,,,,,main,2,2,2,positive,negative,l,l,1,0.7965891999774612,372.21025740000186,373.2131891999743,373.1963771000155,None,372.21025740000186,None,372.21025740000186,None,372.21025740000186,None,373.9900538399699,None,373.9900538399699,None,373.9900538399699,None,,,,,,,,,,,119,26,Female,2022-05-06_14h07.02.007,Boat,2022.1.1,60.07405930475167,
neutral,negative,2,k,k,,,,,,,,,4,11,83,16,,,,,,,,,,,,,,,,,,,,,,,,main,1,1,2,negative,neutral,k,k,1,0.6637112000025809,374.01226089999545,375.02073029999156,374.9839534999919,None,374.01226089999545,None,374.01226089999545,None,374.01226089999545,None,375.6567426400026,None,375.6567426400026,None,375.6567426400026,None,,,,,,,,,,,119,26,Female,2022-05-06_14h07.02.007,Boat,2022.1.1,60.07405930475167,
neutral,neutral,1,k,k,,,,,,,,,4,12,84,1,,,,,,,,,,,,,,,,,,,,,,,,main,1,1,1,neutral,neutral,k,k,1,0.5838003999670036,375.67888759996276,376.6879315999686,376.6630604999955,None,375.67888759996276,None,375.67888759996276,None,375.67888759996276,None,377.2416880400153,None,377.2416880400153,None,377.2416880400153,None,,,,,,,,,,,119,26,Female,2022-05-06_14h07.02.007,Boat,2022.1.1,60.07405930475167,
positive,neutral,2,l,j,,,,,,,,,4,13,85,17,,,,,,,,,,,,,,,,,,,,,,,,main,2,2,2,neutral,positive,j,j,1,1.247983600012958,377.26189349999186,378.2659144999925,378.2481388999731,None,377.26189349999186,None,377.26189349999186,None,377.26189349999186,None,379.49457313998136,None,379.49457313998136,None,379.49457313998136,None,,,,,,,,,,,119,26,Female,2022-05-06_14h07.02.007,Boat,2022.1.1,60.07405930475167,
positive,positive,1,l,j,,,,,,,,,4,14,86,2,,,,,,,,,,,,,,,,,,,,,,,,main,2,2,1,positive,positive,j,j,1,0.759874299983494,379.51496489997953,380.52881779999007,380.5080991999712,None,379.51496489997953,None,379.51496489997953,None,379.51496489997953,None,381.259597740008,None,381.259597740008,None,381.259597740008,None,,,,,,,,,,,119,26,Female,2022-05-06_14h07.02.007,Boat,2022.1.1,60.07405930475167,
neutral,neutral,2,k,k,,,,,,,,,4,15,87,10,,,,,,,,,,,,,,,,,,,,,,,,main,2,2,2,neutral,neutral,k,k,1,0.7052884000004269,381.2786720999866,382.280981399992,382.26318660000106,None,381.2786720999866,None,381.2786720999866,None,381.2786720999866,None,382.96638494001235,None,382.96638494001235,None,382.96638494001235,None,,,,,,,,,,,119,26,Female,2022-05-06_14h07.02.007,Boat,2022.1.1,60.07405930475167,
positive,neutral,1,l,j,,,,,,,,,4,16,88,8,,,,,,,,,,,,,,,,,,,,,,,,main,2,2,1,neutral,positive,j,j,1,0.6841995999566279,382.98515680001583,383.99679060000926,383.96335390000604,None,382.98515680001583,None,382.98515680001583,None,382.98515680001583,None,384.65523373998,None,384.65523373998,None,384.65523373998,None,,,,,,,,,,,119,26,Female,2022-05-06_14h07.02.007,Boat,2022.1.1,60.07405930475167,
negative,neutral,1,j,l,,,,,,,,,4,17,89,3,,,,,,,,,,,,,,,,,,,,,,,,main,2,2,1,neutral,negative,l,l,1,0.715957900043577,384.6732820000034,385.6801015000092,385.6624868999934,None,384.6732820000034,None,384.6732820000034,None,384.6732820000034,None,386.3737331399927,None,386.3737331399927,None,386.3737331399927,None,,,,,,,,,,,119,26,Female,2022-05-06_14h07.02.007,Boat,2022.1.1,60.07405930475167,
neutral,negative,2,k,k,,,,,,,,,5,0,90,16,,,,,,,,,,,,,,,,,,,,,,,,main,2,2,2,negative,neutral,k,k,1,0.697479700029362,386.3921519999858,387.3995259999647,387.38138209999306,None,386.3921519999858,None,386.3921519999858,None,386.3921519999858,None,388.0739686399931,None,388.0739686399931,None,388.0739686399931,None,,,,,,,,,,,119,26,Female,2022-05-06_14h07.02.007,Boat,2022.1.1,60.07405930475167,
negative,positive,1,j,l,,,,,,,,,5,1,91,6,,,,,,,,,,,,,,,,,,,,,,,,main,2,2,1,positive,negative,l,l,1,0.8964528999640606,388.09247069997946,389.10075639997376,389.06417640001746,None,388.09247069997946,None,388.09247069997946,None,388.09247069997946,None,389.96995953998993,None,389.96995953998993,None,389.96995953998993,None,,,,,,,,,,,119,26,Female,2022-05-06_14h07.02.007,Boat,2022.1.1,60.07405930475167,
neutral,negative,1,k,k,,,,,,,,,5,2,92,7,,,,,,,,,,,,,,,,,,,,,,,,main,1,1,1,negative,neutral,k,k,1,0.8821026000077836,389.9964906999958,391.000220899994,390.98223209998105,None,389.9964906999958,None,389.9964906999958,None,389.9964906999958,None,391.85821173996663,None,391.85821173996663,None,391.85821173996663,None,,,,,,,,,,,119,26,Female,2022-05-06_14h07.02.007,Boat,2022.1.1,60.07405930475167,
positive,neutral,2,l,j,,,,,,,,,5,3,93,17,,,,,,,,,,,,,,,,,,,,,,,,main,2,2,2,neutral,positive,j,j,1,0.7498519000364468,391.87906890001614,392.88722799997777,392.84904250002,None,391.87906890001614,None,391.87906890001614,None,391.87906890001614,None,393.6109129399876,None,393.6109129399876,None,393.6109129399876,None,,,,,,,,,,,119,26,Female,2022-05-06_14h07.02.007,Boat,2022.1.1,60.07405930475167,
positive,positive,1,l,j,,,,,,,,,5,4,94,2,,,,,,,,,,,,,,,,,,,,,,,,main,2,2,1,positive,positive,j,j,1,0.771398400014732,393.6295362999663,394.64882110001054,394.6084401999833,None,393.6295362999663,None,393.6295362999663,None,393.6295362999663,None,395.3827615399961,None,395.3827615399961,None,395.3827615399961,None,,,,,,,,,,,119,26,Female,2022-05-06_14h07.02.007,Boat,2022.1.1,60.07405930475167,
negative,neutral,2,j,l,,,,,,,,,5,5,95,12,,,,,,,,,,,,,,,,,,,,,,,,main,1,1,2,neutral,negative,l,l,1,0.8928383000311442,395.4030435999739,396.41496869997354,396.38045100000454,None,395.4030435999739,None,395.4030435999739,None,395.4030435999739,None,397.2800405399641,None,397.2800405399641,None,397.2800405399641,None,,,,,,,,,,,119,26,Female,2022-05-06_14h07.02.007,Boat,2022.1.1,60.07405930475167,
positive,negative,2,l,j,,,,,,,,,5,6,96,14,,,,,,,,,,,,,,,,,,,,,,,,main,2,2,2,negative,positive,j,j,1,1.1423065999988467,397.2982792999828,398.30097649997333,398.2835011999705,None,397.2982792999828,None,397.2982792999828,None,397.2982792999828,None,399.42614963998784,None,399.42614963998784,None,399.42614963998784,None,,,,,,,,,,,119,26,Female,2022-05-06_14h07.02.007,Boat,2022.1.1,60.07405930475167,
neutral,positive,2,k,k,,,,,,,,,5,7,97,13,,,,,,,,,,,,,,,,,,,,,,,,main,2,2,2,positive,neutral,k,k,1,0.7601374000078067,399.44572369998787,400.44748979998985,400.4305152000161,None,399.44572369998787,None,399.44572369998787,None,399.44572369998787,None,401.1896074400167,None,401.1896074400167,None,401.1896074400167,None,,,,,,,,,,,119,26,Female,2022-05-06_14h07.02.007,Boat,2022.1.1,60.07405930475167,
positive,neutral,1,l,j,,,,,,,,,5,8,98,8,,,,,,,,,,,,,,,,,,,,,,,,main,2,2,1,neutral,positive,j,j,1,0.8233108000131324,401.208155100001,402.2136276999954,402.1963006000151,None,401.208155100001,None,401.208155100001,None,401.208155100001,None,403.01395843997597,None,403.01395843997597,None,403.01395843997597,None,,,,,,,,,,,119,26,Female,2022-05-06_14h07.02.007,Boat,2022.1.1,60.07405930475167,
neutral,neutral,2,k,k,,,,,,,,,5,9,99,10,,,,,,,,,,,,,,,,,,,,,,,,main,2,2,2,neutral,neutral,k,k,1,0.8482084000133909,403.03584249998676,404.0584451999748,404.01151779998327,None,403.03584249998676,None,403.03584249998676,None,403.03584249998676,None,404.8647001400124,None,404.8647001400124,None,404.8647001400124,None,,,,,,,,,,,119,26,Female,2022-05-06_14h07.02.007,Boat,2022.1.1,60.07405930475167,
negative,negative,2,j,l,,,,,,,,,5,10,100,9,,,,,,,,,,,,,,,,,,,,,,,,main,1,1,2,negative,negative,l,l,1,0.9516815999522805,404.88288869999815,405.9003417000058,405.85857390001183,None,404.88288869999815,None,404.88288869999815,None,404.88288869999815,None,406.81941053997724,None,406.81941053997724,None,406.81941053997724,None,,,,,,,,,,,119,26,Female,2022-05-06_14h07.02.007,Boat,2022.1.1,60.07405930475167,
negative,positive,2,j,l,,,,,,,,,5,11,101,15,,,,,,,,,,,,,,,,,,,,,,,,main,2,2,2,positive,negative,l,l,1,0.9016740000224672,406.84074479999254,407.847380399995,407.8292545999866,None,406.84074479999254,None,406.84074479999254,None,406.84074479999254,None,408.7253052400076,None,408.7253052400076,None,408.7253052400076,None,,,,,,,,,,,119,26,Female,2022-05-06_14h07.02.007,Boat,2022.1.1,60.07405930475167,
negative,negative,1,j,l,,,,,,,,,5,12,102,0,,,,,,,,,,,,,,,,,,,,,,,,main,2,2,1,negative,negative,l,l,1,0.7851111000054516,408.7470130000147,409.74743899999885,409.73055969999405,None,408.7470130000147,None,408.7470130000147,None,408.7470130000147,None,410.51280633999266,None,410.51280633999266,None,410.51280633999266,None,,,,,,,,,,,119,26,Female,2022-05-06_14h07.02.007,Boat,2022.1.1,60.07405930475167,
positive,negative,1,l,j,,,,,,,,,5,13,103,5,,,,,,,,,,,,,,,,,,,,,,,,main,2,2,1,negative,positive,j,j,1,0.8057817999506369,410.5313884000061,411.54231380001875,411.5033203000203,None,410.5313884000061,None,410.5313884000061,None,410.5313884000061,None,412.3221925399732,None,412.3221925399732,None,412.3221925399732,None,,,,,,,,,,,119,26,Female,2022-05-06_14h07.02.007,Boat,2022.1.1,60.07405930475167,
neutral,positive,1,k,k,,,,,,,,,5,14,104,4,,,,,,,,,,,,,,,,,,,,,,,,main,1,1,1,positive,neutral,k,k,1,0.6964704000274651,412.3409329999704,413.35025429999223,413.3151398000191,None,412.3409329999704,None,412.3409329999704,None,412.3409329999704,None,414.0193354399991,None,414.0193354399991,None,414.0193354399991,None,,,,,,,,,,,119,26,Female,2022-05-06_14h07.02.007,Boat,2022.1.1,60.07405930475167,
negative,neutral,1,j,l,,,,,,,,,5,15,105,3,,,,,,,,,,,,,,,,,,,,,,,,main,1,1,1,neutral,negative,l,l,1,1.0685587999760173,414.0394407999702,415.05290349997813,415.01689289999194,None,414.0394407999702,None,414.0394407999702,None,414.0394407999702,None,416.0926800399786,None,416.0926800399786,None,416.0926800399786,None,,,,,,,,,,,119,26,Female,2022-05-06_14h07.02.007,Boat,2022.1.1,60.07405930475167,
neutral,neutral,1,k,k,,,,,,,,,5,16,106,1,,,,,,,,,,,,,,,,,,,,,,,,main,2,2,1,neutral,neutral,k,k,1,0.7103672999655828,416.11084029998165,417.1255717999884,417.1057298000087,None,416.11084029998165,None,416.11084029998165,None,416.11084029998165,None,417.8052399399923,None,417.8052399399923,None,417.8052399399923,None,,,,,,,,,,,119,26,Female,2022-05-06_14h07.02.007,Boat,2022.1.1,60.07405930475167,
positive,positive,2,l,j,,,,,,,,,5,17,107,11,,,,,,,,,,,,,,,,,,,,,,,,main,1,1,2,positive,positive,j,j,1,0.8137029000208713,417.8273551000166,418.8421887999866,418.82251799997175,None,417.8273551000166,None,417.8273551000166,None,417.8273551000166,None,419.6191257400089,None,419.6191257400089,None,419.6191257400089,None,,,,,,,,,,,119,26,Female,2022-05-06_14h07.02.007,Boat,2022.1.1,60.07405930475167,
positive,neutral,1,l,j,,,,,,,,,6,0,108,8,,,,,,,,,,,,,,,,,,,,,,,,main,2,2,1,neutral,positive,j,j,1,0.8696454000310041,419.643318300019,420.6490451999707,420.6140139999916,None,419.643318300019,None,419.643318300019,None,419.643318300019,None,421.49504663997794,None,421.49504663997794,None,421.49504663997794,None,,,,,,,,,,,119,26,Female,2022-05-06_14h07.02.007,Boat,2022.1.1,60.07405930475167,
negative,neutral,2,j,l,,,,,,,,,6,1,109,12,,,,,,,,,,,,,,,,,,,,,,,,main,2,2,2,neutral,negative,l,l,1,0.9644281000364572,421.5126343999873,422.5313193000038,422.4939525999944,None,421.5126343999873,None,421.5126343999873,None,421.5126343999873,None,423.4619605399668,None,423.4619605399668,None,423.4619605399668,None,,,,,,,,,,,119,26,Female,2022-05-06_14h07.02.007,Boat,2022.1.1,60.07405930475167,
neutral,negative,1,k,k,,,,,,,,,6,2,110,7,,,,,,,,,,,,,,,,,,,,,,,,main,1,1,1,negative,neutral,k,k,1,1.015573799959384,423.4814555000048,424.4812638000003,424.4641692999867,None,423.4814555000048,None,423.4814555000048,None,423.4814555000048,None,425.4811577399843,None,425.4811577399843,None,425.4811577399843,None,,,,,,,,,,,119,26,Female,2022-05-06_14h07.02.007,Boat,2022.1.1,60.07405930475167,
neutral,negative,2,k,k,,,,,,,,,6,3,111,16,,,,,,,,,,,,,,,,,,,,,,,,main,1,1,2,negative,neutral,k,k,1,1.0218267000163905,425.49906850000843,426.5227051000111,426.48090719996253,None,425.49906850000843,None,425.49906850000843,None,425.49906850000843,None,427.50696463998173,None,427.50696463998173,None,427.50696463998173,None,,,,,,,,,,,119,26,Female,2022-05-06_14h07.02.007,Boat,2022.1.1,60.07405930475167,
negative,positive,2,j,l,,,,,,,,,6,4,112,15,,,,,,,,,,,,,,,,,,,,,,,,main,1,1,2,positive,negative,l,l,1,1.100414999993518,427.5271185999736,428.53094399999827,428.5128633999848,None,427.5271185999736,None,427.5271185999736,None,427.5271185999736,None,429.60926053997827,None,429.60926053997827,None,429.60926053997827,None,,,,,,,,,,,119,26,Female,2022-05-06_14h07.02.007,Boat,2022.1.1,60.07405930475167,
neutral,neutral,2,k,k,,,,,,,,,6,5,113,10,,,,,,,,,,,,,,,,,,,,,,,,main,2,2,2,neutral,neutral,k,k,1,1.0863454000209458,429.6284583999659,430.64286079996964,430.60411600000225,None,429.6284583999659,None,429.6284583999659,None,429.6284583999659,None,431.6973883400089,None,431.6973883400089,None,431.6973883400089,None,,,,,,,,,,,119,26,Female,2022-05-06_14h07.02.007,Boat,2022.1.1,60.07405930475167,
neutral,positive,1,k,k,,,,,,,,,6,6,114,4,,,,,,,,,,,,,,,,,,,,,,,,main,1,1,1,positive,neutral,k,k,1,1.0197933000163175,431.7169443999883,432.7309974000091,432.692846299964,None,431.7169443999883,None,431.7169443999883,None,431.7169443999883,None,433.7218084399821,None,433.7218084399821,None,433.7218084399821,None,,,,,,,,,,,119,26,Female,2022-05-06_14h07.02.007,Boat,2022.1.1,60.07405930475167,
negative,neutral,1,j,l,,,,,,,,,6,7,115,3,,,,,,,,,,,,,,,,,,,,,,,,main,2,2,1,neutral,negative,l,l,1,0.9171987000154331,433.74003370001446,434.75296050001634,434.7152424000087,None,433.74003370001446,None,433.74003370001446,None,433.74003370001446,None,435.6404840400093,None,435.6404840400093,None,435.6404840400093,None,,,,,,,,,,,119,26,Female,2022-05-06_14h07.02.007,Boat,2022.1.1,60.07405930475167,
negative,negative,2,j,l,,,,,,,,,6,8,116,9,,,,,,,,,,,,,,,,,,,,,,,,main,1,1,2,negative,negative,l,l,1,0.7918761000037193,435.65924920002,436.66447010001866,436.64643530000467,None,435.65924920002,None,435.65924920002,None,435.65924920002,None,437.4314890400157,None,437.4314890400157,None,437.4314890400157,None,,,,,,,,,,,119,26,Female,2022-05-06_14h07.02.007,Boat,2022.1.1,60.07405930475167,
positive,neutral,2,l,j,,,,,,,,,6,9,117,17,,,,,,,,,,,,,,,,,,,,,,,,main,2,2,2,neutral,positive,j,j,1,0.8783783999970183,437.46306259999983,438.47002690000227,438.4477376000141,None,437.46306259999983,None,437.46306259999983,None,437.46306259999983,None,439.3139168399968,None,439.3139168399968,None,439.3139168399968,None,,,,,,,,,,,119,26,Female,2022-05-06_14h07.02.007,Boat,2022.1.1,60.07405930475167,
negative,positive,1,j,l,,,,,,,,,6,10,118,6,,,,,,,,,,,,,,,,,,,,,,,,main,2,2,1,positive,negative,l,l,1,0.893940600042697,439.34144589997595,440.3641059999936,440.32173899997724,None,439.34144589997595,None,439.34144589997595,None,439.34144589997595,None,441.2137496399693,None,441.2137496399693,None,441.2137496399693,None,,,,,,,,,,,119,26,Female,2022-05-06_14h07.02.007,Boat,2022.1.1,60.07405930475167,
positive,negative,2,l,j,,,,,,,,,6,11,119,14,,,,,,,,,,,,,,,,,,,,,,,,main,2,2,2,negative,positive,j,j,1,0.9908746999572031,441.2337928999914,442.2506876999978,442.21461899997666,None,441.2337928999914,None,441.2337928999914,None,441.2337928999914,None,443.20937554001574,None,443.20937554001574,None,443.20937554001574,None,,,,,,,,,,,119,26,Female,2022-05-06_14h07.02.007,Boat,2022.1.1,60.07405930475167,
positive,positive,2,l,j,,,,,,,,,6,12,120,11,,,,,,,,,,,,,,,,,,,,,,,,main,1,1,2,positive,positive,j,j,1,0.9671518999966793,443.22767100000056,444.2316603999934,444.2146064999979,None,443.22767100000056,None,443.22767100000056,None,443.22767100000056,None,445.1791302399826,None,445.1791302399826,None,445.1791302399826,None,,,,,,,,,,,119,26,Female,2022-05-06_14h07.02.007,Boat,2022.1.1,60.07405930475167,
positive,negative,1,l,j,,,,,,,,,6,13,121,5,,,,,,,,,,,,,,,,,,,,,,,,main,1,1,1,negative,positive,j,j,1,0.8261048999847844,445.19767739996314,446.2021722999634,446.18403940001735,None,445.19767739996314,None,445.19767739996314,None,445.19767739996314,None,447.0088526399806,None,447.0088526399806,None,447.0088526399806,None,,,,,,,,,,,119,26,Female,2022-05-06_14h07.02.007,Boat,2022.1.1,60.07405930475167,
negative,negative,1,j,l,,,,,,,,,6,14,122,0,,,,,,,,,,,,,,,,,,,,,,,,main,2,2,1,negative,negative,l,l,1,0.8608029000461102,447.0293438999797,448.0330399000086,447.99808449996635,None,447.0293438999797,None,447.0293438999797,None,447.0293438999797,None,448.8713111400022,None,448.8713111400022,None,448.8713111400022,None,,,,,,,,,,,119,26,Female,2022-05-06_14h07.02.007,Boat,2022.1.1,60.07405930475167,
neutral,positive,2,k,k,,,,,,,,,6,15,123,13,,,,,,,,,,,,,,,,,,,,,,,,main,1,1,2,positive,neutral,k,k,1,0.8245048000244424,448.89445039996644,449.9048513000016,449.8695432000095,None,448.89445039996644,None,448.89445039996644,None,448.89445039996644,None,450.6982108399854,None,450.6982108399854,None,450.6982108399854,None,,,,,,,,,,,119,26,Female,2022-05-06_14h07.02.007,Boat,2022.1.1,60.07405930475167,
neutral,neutral,1,k,k,,,,,,,,,6,16,124,1,,,,,,,,,,,,,,,,,,,,,,,,main,2,2,1,neutral,neutral,k,k,1,0.7198740000021644,450.71983580000233,451.72604410001077,451.70543370000087,None,450.71983580000233,None,450.71983580000233,None,450.71983580000233,None,452.42201363998464,None,452.42201363998464,None,452.42201363998464,None,,,,,,,,,,,119,26,Female,2022-05-06_14h07.02.007,Boat,2022.1.1,60.07405930475167,
positive,positive,1,l,j,,,,,,,,,6,17,125,2,,,,,,,,,,,,,,,,,,,,,,,,main,1,1,1,positive,positive,j,j,1,0.7574230000027455,452.4473318000091,453.4599616000196,453.4202695999993,None,452.4473318000091,None,452.4473318000091,None,452.4473318000091,None,454.18151794000295,None,454.18151794000295,None,454.18151794000295,None,,,,,,,,,,,119,26,Female,2022-05-06_14h07.02.007,Boat,2022.1.1,60.07405930475167,
positive,positive,1,l,j,,,,,,,,,7,0,126,2,,,,,,,,,,,,,,,,,,,,,,,,main,1,1,1,positive,positive,j,j,1,0.7668956000125036,454.2044797000126,455.20464929996524,455.187851900002,None,454.2044797000126,None,454.2044797000126,None,454.2044797000126,None,455.95271173997315,None,455.95271173997315,None,455.95271173997315,None,,,,,,,,,,,119,26,Female,2022-05-06_14h07.02.007,Boat,2022.1.1,60.07405930475167,
positive,neutral,2,l,j,,,,,,,,,7,1,127,17,,,,,,,,,,,,,,,,,,,,,,,,main,1,1,2,neutral,positive,j,j,1,0.8469733000383712,455.97658489999594,456.98966399999335,456.9629291999736,None,455.97658489999594,None,455.97658489999594,None,455.97658489999594,None,457.80295554000185,None,457.80295554000185,None,457.80295554000185,None,,,,,,,,,,,119,26,Female,2022-05-06_14h07.02.007,Boat,2022.1.1,60.07405930475167,
positive,negative,1,l,j,,,,,,,,,7,2,128,5,,,,,,,,,,,,,,,,,,,,,,,,main,2,2,1,negative,positive,j,j,1,0.7289594000321813,457.8217026999919,458.83328829996753,458.7982792999828,None,457.8217026999919,None,457.8217026999919,None,457.8217026999919,None,459.53475644001736,None,459.53475644001736,None,459.53475644001736,None,,,,,,,,,,,119,26,Female,2022-05-06_14h07.02.007,Boat,2022.1.1,60.07405930475167,
negative,neutral,2,j,l,,,,,,,,,7,3,129,12,,,,,,,,,,,,,,,,,,,,,,,,main,2,2,2,neutral,negative,l,l,1,0.8334383000037633,459.5541265999782,460.5648943000124,460.52985459996853,None,459.5541265999782,None,459.5541265999782,None,459.5541265999782,None,461.37203623999375,None,461.37203623999375,None,461.37203623999375,None,,,,,,,,,,,119,26,Female,2022-05-06_14h07.02.007,Boat,2022.1.1,60.07405930475167,
neutral,neutral,2,k,k,,,,,,,,,7,4,130,10,,,,,,,,,,,,,,,,,,,,,,,,main,2,2,2,neutral,neutral,k,k,1,0.7168680999893695,461.38974229997257,462.39835869998205,462.3798533999943,None,461.38974229997257,None,461.38974229997257,None,461.38974229997257,None,463.0910145399859,None,463.0910145399859,None,463.0910145399859,None,,,,,,,,,,,119,26,Female,2022-05-06_14h07.02.007,Boat,2022.1.1,60.07405930475167,
negative,negative,2,j,l,,,,,,,,,7,5,131,9,,,,,,,,,,,,,,,,,,,,,,,,main,2,2,2,negative,negative,l,l,1,0.8435942999785766,463.11021129996516,464.11404020001646,464.09318329999223,None,463.11021129996516,None,463.11021129996516,None,463.11021129996516,None,464.93841424001147,None,464.93841424001147,None,464.93841424001147,None,,,,,,,,,,,119,26,Female,2022-05-06_14h07.02.007,Boat,2022.1.1,60.07405930475167,
negative,positive,2,j,l,,,,,,,,,7,6,132,15,,,,,,,,,,,,,,,,,,,,,,,,main,2,2,2,positive,negative,l,l,1,0.7045611999928951,464.9573188999784,465.97675049997633,465.9374566000188,None,464.9573188999784,None,464.9573188999784,None,464.9573188999784,None,466.64552753999595,None,466.64552753999595,None,466.64552753999595,None,,,,,,,,,,,119,26,Female,2022-05-06_14h07.02.007,Boat,2022.1.1,60.07405930475167,
neutral,positive,2,k,k,,,,,,,,,7,7,133,13,,,,,,,,,,,,,,,,,,,,,,,,main,1,1,2,positive,neutral,k,k,1,0.7103612999781035,466.66375419998076,467.6661001999746,467.6485769000137,None,466.66375419998076,None,466.66375419998076,None,466.66375419998076,None,468.3584307400044,None,468.3584307400044,None,468.3584307400044,None,,,,,,,,,,,119,26,Female,2022-05-06_14h07.02.007,Boat,2022.1.1,60.07405930475167,
neutral,negative,1,k,k,,,,,,,,,7,8,134,7,,,,,,,,,,,,,,,,,,,,,,,,main,1,1,1,negative,neutral,k,k,1,0.6492683999822475,468.3775225999998,469.3900089999661,469.3632022999809,None,468.3775225999998,None,468.3775225999998,None,468.3775225999998,None,470.01020154000724,None,470.01020154000724,None,470.01020154000724,None,,,,,,,,,,,119,26,Female,2022-05-06_14h07.02.007,Boat,2022.1.1,60.07405930475167,
neutral,neutral,1,k,k,,,,,,,,,7,9,135,1,,,,,,,,,,,,,,,,,,,,,,,,main,1,1,1,neutral,neutral,k,k,1,0.6245514000183903,470.02817180001875,471.03216629999224,470.9985959000187,None,470.02817180001875,None,470.02817180001875,None,470.02817180001875,None,471.63590913998195,None,471.63590913998195,None,471.63590913998195,None,,,,,,,,,,,119,26,Female,2022-05-06_14h07.02.007,Boat,2022.1.1,60.07405930475167,
negative,negative,1,j,l,,,,,,,,,7,10,136,0,,,,,,,,,,,,,,,,,,,,,,,,main,2,2,1,negative,negative,l,l,1,0.7894336999743246,471.65418469998986,472.6670561999781,472.6320665999665,None,471.65418469998986,None,471.65418469998986,None,471.65418469998986,None,473.4287049400038,None,473.4287049400038,None,473.4287049400038,None,,,,,,,,,,,119,26,Female,2022-05-06_14h07.02.007,Boat,2022.1.1,60.07405930475167,
neutral,positive,1,k,k,,,,,,,,,7,11,137,4,,,,,,,,,,,,,,,,,,,,,,,,main,1,1,1,positive,neutral,k,k,1,0.7559020000044256,473.4487170999637,474.4568036000128,474.43202860001475,None,473.4487170999637,None,473.4487170999637,None,473.4487170999637,None,475.18897134000434,None,475.18897134000434,None,475.18897134000434,None,,,,,,,,,,,119,26,Female,2022-05-06_14h07.02.007,Boat,2022.1.1,60.07405930475167,
negative,neutral,1,j,l,,,,,,,,,7,12,138,3,,,,,,,,,,,,,,,,,,,,,,,,main,1,1,1,neutral,negative,l,l,1,0.8196300999843515,475.2080181000056,476.2153688999824,476.19882399996277,None,475.2080181000056,None,475.2080181000056,None,475.2080181000056,None,477.01137924001085,None,477.01137924001085,None,477.01137924001085,None,,,,,,,,,,,119,26,Female,2022-05-06_14h07.02.007,Boat,2022.1.1,60.07405930475167,
positive,negative,2,l,j,,,,,,,,,7,13,139,14,,,,,,,,,,,,,,,,,,,,,,,,main,1,1,2,negative,positive,j,j,1,0.8238927000202239,477.0301338999998,478.0471131000086,478.02727449999657,None,477.0301338999998,None,477.0301338999998,None,477.0301338999998,None,478.8357557399897,None,478.8357557399897,None,478.8357557399897,None,,,,,,,,,,,119,26,Female,2022-05-06_14h07.02.007,Boat,2022.1.1,60.07405930475167,
neutral,negative,2,k,k,,,,,,,,,7,14,140,16,,,,,,,,,,,,,,,,,,,,,,,,main,2,2,2,negative,neutral,k,k,1,0.8476648000068963,478.8564931000001,479.86902869999176,479.83261609997135,None,478.8564931000001,None,478.8564931000001,None,478.8564931000001,None,480.68568913998314,None,480.68568913998314,None,480.68568913998314,None,,,,,,,,,,,119,26,Female,2022-05-06_14h07.02.007,Boat,2022.1.1,60.07405930475167,
positive,positive,2,l,j,,,,,,,,,7,15,141,11,,,,,,,,,,,,,,,,,,,,,,,,main,2,2,2,positive,positive,j,j,1,0.7434410999994725,480.7088742000051,481.71557299996493,481.6976552999695,None,480.7088742000051,None,480.7088742000051,None,480.7088742000051,None,482.43317993996897,None,482.43317993996897,None,482.43317993996897,None,,,,,,,,,,,119,26,Female,2022-05-06_14h07.02.007,Boat,2022.1.1,60.07405930475167,
positive,neutral,1,l,j,,,,,,,,,7,16,142,8,,,,,,,,,,,,,,,,,,,,,,,,main,1,1,1,neutral,positive,j,j,1,0.9043778000050224,482.4531764999847,483.46529590000864,483.44372659997316,None,482.4531764999847,None,482.4531764999847,None,482.4531764999847,None,484.341929639969,None,484.341929639969,None,484.341929639969,None,,,,,,,,,,,119,26,Female,2022-05-06_14h07.02.007,Boat,2022.1.1,60.07405930475167,
negative,positive,1,j,l,,,,,,,,,7,17,143,6,,,,,,,,,,,,,,,,,,,,,,,,main,1,1,1,positive,negative,l,l,1,0.8614131999784149,484.3597199000069,485.3724680999876,485.3366180000012,None,484.3597199000069,None,484.3597199000069,None,484.3597199000069,None,486.20337923999176,None,486.20337923999176,None,486.20337923999176,None,,,,,,,,,,,119,26,Female,2022-05-06_14h07.02.007,Boat,2022.1.1,60.07405930475167,
positive,positive,2,l,j,,,,,,,,,8,0,144,11,,,,,,,,,,,,,,,,,,,,,,,,main,2,2,2,positive,positive,j,j,1,0.7877369000343606,486.2241703000036,487.24007150001125,487.2017550999881,None,486.2241703000036,None,486.2241703000036,None,486.2241703000036,None,487.9955810399726,None,487.9955810399726,None,487.9955810399726,None,,,,,,,,,,,119,26,Female,2022-05-06_14h07.02.007,Boat,2022.1.1,60.07405930475167,
neutral,positive,1,k,k,,,,,,,,,8,1,145,4,,,,,,,,,,,,,,,,,,,,,,,,main,1,1,1,positive,neutral,k,k,1,0.7659013000084087,488.0151172999758,489.03239449998364,488.99424349999754,None,488.0151172999758,None,488.0151172999758,None,488.0151172999758,None,489.7649665399687,None,489.7649665399687,None,489.7649665399687,None,,,,,,,,,,,119,26,Female,2022-05-06_14h07.02.007,Boat,2022.1.1,60.07405930475167,
positive,negative,2,l,j,,,,,,,,,8,2,146,14,,,,,,,,,,,,,,,,,,,,,,,,main,2,2,2,negative,positive,j,j,1,0.8307414000155404,489.78601350000827,490.8011526999762,490.7661340999766,None,489.78601350000827,None,489.78601350000827,None,489.78601350000827,None,491.599115039967,None,491.599115039967,None,491.599115039967,None,,,,,,,,,,,119,26,Female,2022-05-06_14h07.02.007,Boat,2022.1.1,60.07405930475167,
negative,neutral,1,j,l,,,,,,,,,8,3,147,3,,,,,,,,,,,,,,,,,,,,,,,,main,1,1,1,neutral,negative,l,l,1,0.886313599999994,491.61811079998733,492.6405652000103,492.59403159999056,None,491.61811079998733,None,491.61811079998733,None,491.61811079998733,None,493.4878648400074,None,493.4878648400074,None,493.4878648400074,None,,,,,,,,,,,119,26,Female,2022-05-06_14h07.02.007,Boat,2022.1.1,60.07405930475167,
neutral,negative,2,k,k,,,,,,,,,8,4,148,16,,,,,,,,,,,,,,,,,,,,,,,,main,2,2,2,negative,neutral,k,k,1,0.8096760000335053,493.5079400999821,494.5149134999956,494.49408309999853,None,493.5079400999821,None,493.5079400999821,None,493.5079400999821,None,495.30049113997956,None,495.30049113997956,None,495.30049113997956,None,,,,,,,,,,,119,26,Female,2022-05-06_14h07.02.007,Boat,2022.1.1,60.07405930475167,
negative,positive,1,j,l,,,,,,,,,8,5,149,6,,,,,,,,,,,,,,,,,,,,,,,,main,2,2,1,positive,negative,l,l,1,0.9466559000429697,495.3192868999904,496.33755100000417,496.3002575999708,None,495.3192868999904,None,495.3192868999904,None,495.3192868999904,None,497.2498950399924,None,497.2498950399924,None,497.2498950399924,None,,,,,,,,,,,119,26,Female,2022-05-06_14h07.02.007,Boat,2022.1.1,60.07405930475167,
positive,neutral,2,l,j,,,,,,,,,8,6,150,17,,,,,,,,,,,,,,,,,,,,,,,,main,1,1,2,neutral,positive,j,j,1,0.9916813999880105,497.26994329999434,498.283813899965,498.26311549998354,None,497.26994329999434,None,497.26994329999434,None,497.26994329999434,None,499.2459942399757,None,499.2459942399757,None,499.2459942399757,None,,,,,,,,,,,119,26,Female,2022-05-06_14h07.02.007,Boat,2022.1.1,60.07405930475167,
neutral,neutral,1,k,k,,,,,,,,,8,7,151,1,,,,,,,,,,,,,,,,,,,,,,,,main,1,1,1,neutral,neutral,k,k,1,1.8892214999650605,499.2677548999782,500.2828920999891,500.24369129998377,None,499.2677548999782,None,499.2677548999782,None,499.2677548999782,None,502.1670997000183,None,502.1670997000183,None,502.1670997000183,None,,,,,,,,,,,119,26,Female,2022-05-06_14h07.02.007,Boat,2022.1.1,60.07405930475167,
positive,positive,1,l,j,,,,,,,,,8,8,152,2,,,,,,,,,,,,,,,,,,,,,,,,main,2,2,1,positive,positive,j,k,0,-0.6919043000089005,503.1882549999864,None,None,None,503.1882549999864,None,503.1882549999864,None,503.1882549999864,None,503.4922437000205,None,503.4922437000205,None,503.4922437000205,None,,,,,,,,,,,119,26,Female,2022-05-06_14h07.02.007,Boat,2022.1.1,60.07405930475167,
negative,neutral,2,j,l,,,,,,,,,8,9,153,12,,,,,,,,,,,,,,,,,,,,,,,,main,2,2,2,neutral,negative,l,l,1,1.0034791000070982,506.5052902000025,507.5075836000033,507.4877090000082,None,506.5052902000025,None,506.5052902000025,None,506.5052902000025,None,508.48930184000636,None,508.48930184000636,None,508.48930184000636,None,,,,,,,,,,,119,26,Female,2022-05-06_14h07.02.007,Boat,2022.1.1,60.07405930475167,
neutral,neutral,2,k,k,,,,,,,,,8,10,154,10,,,,,,,,,,,,,,,,,,,,,,,,main,2,2,2,neutral,neutral,k,k,1,0.8023787999991328,508.51594030001434,509.53544820001116,509.51262029999634,None,508.51594030001434,None,508.51594030001434,None,508.51594030001434,None,510.2952598400181,None,510.2952598400181,None,510.2952598400181,None,,,,,,,,,,,119,26,Female,2022-05-06_14h07.02.007,Boat,2022.1.1,60.07405930475167,
positive,negative,1,l,j,,,,,,,,,8,11,155,5,,,,,,,,,,,,,,,,,,,,,,,,main,2,2,1,negative,positive,j,j,1,0.8694146000198089,510.32012509997,511.3373276999919,511.30014050001046,None,510.32012509997,None,510.32012509997,None,510.32012509997,None,512.1697050399846,None,512.1697050399846,None,512.1697050399846,None,,,,,,,,,,,119,26,Female,2022-05-06_14h07.02.007,Boat,2022.1.1,60.07405930475167,
negative,negative,1,j,l,,,,,,,,,8,12,156,0,,,,,,,,,,,,,,,,,,,,,,,,main,2,2,1,negative,negative,l,l,1,0.8404939000029117,512.1884746999713,513.1996972999768,513.1608938999707,None,512.1884746999713,None,512.1884746999713,None,512.1884746999713,None,514.0137133399724,None,514.0137133399724,None,514.0137133399724,None,,,,,,,,,,,119,26,Female,2022-05-06_14h07.02.007,Boat,2022.1.1,60.07405930475167,
negative,negative,2,j,l,,,,,,,,,8,13,157,9,,,,,,,,,,,,,,,,,,,,,,,,main,2,2,2,negative,negative,l,l,1,0.6717530000023544,514.0337344,515.0501873000176,515.0291890999652,None,514.0337344,None,514.0337344,None,514.0337344,None,515.6901723400108,None,515.6901723400108,None,515.6901723400108,None,,,,,,,,,,,119,26,Female,2022-05-06_14h07.02.007,Boat,2022.1.1,60.07405930475167,
positive,neutral,1,l,j,,,,,,,,,8,14,158,8,,,,,,,,,,,,,,,,,,,,,,,,main,2,2,1,neutral,positive,j,j,1,0.965131199976895,515.7098327999702,516.7170665999874,516.6964111999841,None,515.7098327999702,None,515.7098327999702,None,515.7098327999702,None,517.6573830399896,None,517.6573830399896,None,517.6573830399896,None,,,,,,,,,,,119,26,Female,2022-05-06_14h07.02.007,Boat,2022.1.1,60.07405930475167,
neutral,negative,1,k,k,,,,,,,,,8,15,159,7,,,,,,,,,,,,,,,,,,,,,,,,main,2,2,1,negative,neutral,k,k,1,0.7488022000179626,517.6772094999906,518.6997345999698,518.6574251999846,None,517.6772094999906,None,517.6772094999906,None,517.6772094999906,None,519.4086033399683,None,519.4086033399683,None,519.4086033399683,None,,,,,,,,,,,119,26,Female,2022-05-06_14h07.02.007,Boat,2022.1.1,60.07405930475167,
negative,positive,2,j,l,,,,,,,,,8,16,160,15,,,,,,,,,,,,,,,,,,,,,,,,main,1,1,2,positive,negative,l,l,1,0.8178180999821052,519.4291070000036,520.433201399981,520.4134040999925,None,519.4291070000036,None,519.4291070000036,None,519.4291070000036,None,521.230130040017,None,521.230130040017,None,521.230130040017,None,,,,,,,,,,,119,26,Female,2022-05-06_14h07.02.007,Boat,2022.1.1,60.07405930475167,
neutral,positive,2,k,k,,,,,,,,,8,17,161,13,,,,,,,,,,,,,,,,,,,,,,,,main,1,1,2,positive,neutral,k,k,1,0.7300652000121772,521.2502616000129,522.2502468000166,522.2331389000174,None,521.2502616000129,None,521.2502616000129,None,521.2502616000129,None,522.963319640013,None,522.963319640013,None,522.963319640013,None,,,,,,,,,,,119,26,Female,2022-05-06_14h07.02.007,Boat,2022.1.1,60.07405930475167,
negative,neutral,1,j,l,,,,,,,,,9,0,162,3,,,,,,,,,,,,,,,,,,,,,,,,main,2,2,1,neutral,negative,l,l,1,0.8088560000178404,522.983083500003,523.9832943999791,523.9665017999941,None,522.983083500003,None,522.983083500003,None,522.983083500003,None,524.7760395399994,None,524.7760395399994,None,524.7760395399994,None,,,,,,,,,,,119,26,Female,2022-05-06_14h07.02.007,Boat,2022.1.1,60.07405930475167,
negative,positive,1,j,l,,,,,,,,,9,1,163,6,,,,,,,,,,,,,,,,,,,,,,,,main,1,1,1,positive,negative,l,l,1,0.7308953999890946,524.7947568999953,525.7999640000053,525.7832780000172,None,524.7947568999953,None,524.7947568999953,None,524.7947568999953,None,526.5092539400096,None,526.5092539400096,None,526.5092539400096,None,,,,,,,,,,,119,26,Female,2022-05-06_14h07.02.007,Boat,2022.1.1,60.07405930475167,
positive,positive,1,l,j,,,,,,,,,9,2,164,2,,,,,,,,,,,,,,,,,,,,,,,,main,2,2,1,positive,positive,j,j,1,0.7484955000109039,526.5287248999812,527.538667100016,527.5017348999972,None,526.5287248999812,None,526.5287248999812,None,526.5287248999812,None,528.2598283400177,None,528.2598283400177,None,528.2598283400177,None,,,,,,,,,,,119,26,Female,2022-05-06_14h07.02.007,Boat,2022.1.1,60.07405930475167,
positive,neutral,2,l,j,,,,,,,,,9,3,165,17,,,,,,,,,,,,,,,,,,,,,,,,main,1,1,2,neutral,positive,j,j,1,0.7334438000107184,528.2816977999755,529.2989278999739,529.2567321999813,None,528.2816977999755,None,528.2816977999755,None,528.2816977999755,None,529.9972958399915,None,529.9972958399915,None,529.9972958399915,None,,,,,,,,,,,119,26,Female,2022-05-06_14h07.02.007,Boat,2022.1.1,60.07405930475167,
negative,positive,2,j,l,,,,,,,,,9,4,166,15,,,,,,,,,,,,,,,,,,,,,,,,main,2,2,2,positive,negative,l,l,1,0.7894796000327915,530.0162120999885,531.020328100014,531.0021438999684,None,530.0162120999885,None,530.0162120999885,None,530.0162120999885,None,531.7887976399973,None,531.7887976399973,None,531.7887976399973,None,,,,,,,,,,,119,26,Female,2022-05-06_14h07.02.007,Boat,2022.1.1,60.07405930475167,
neutral,neutral,1,k,k,,,,,,,,,9,5,167,1,,,,,,,,,,,,,,,,,,,,,,,,main,2,2,1,neutral,neutral,k,k,1,1.4416392000275664,531.8081539999694,532.817088700016,532.7833911000052,None,531.8081539999694,None,531.8081539999694,None,531.8081539999694,None,534.2335763400072,None,534.2335763400072,None,534.2335763400072,None,,,,,,,,,,,119,26,Female,2022-05-06_14h07.02.007,Boat,2022.1.1,60.07405930475167,
negative,negative,1,j,l,,,,,,,,,9,6,168,0,,,,,,,,,,,,,,,,,,,,,,,,main,2,2,1,negative,negative,l,l,1,0.7912829000269994,534.2521238999907,535.2678857999854,535.2282002000138,None,534.2521238999907,None,534.2521238999907,None,534.2521238999907,None,536.0287044399768,None,536.0287044399768,None,536.0287044399768,None,,,,,,,,,,,119,26,Female,2022-05-06_14h07.02.007,Boat,2022.1.1,60.07405930475167,
positive,neutral,1,l,j,,,,,,,,,9,7,169,8,,,,,,,,,,,,,,,,,,,,,,,,main,2,2,1,neutral,positive,j,j,1,0.8470383000094444,536.0469877999858,537.0668322999845,537.0235650999821,None,536.0469877999858,None,536.0469877999858,None,536.0469877999858,None,537.8787147399737,None,537.8787147399737,None,537.8787147399737,None,,,,,,,,,,,119,26,Female,2022-05-06_14h07.02.007,Boat,2022.1.1,60.07405930475167,
neutral,neutral,2,k,k,,,,,,,,,9,8,170,10,,,,,,,,,,,,,,,,,,,,,,,,main,1,1,2,neutral,neutral,k,k,1,0.7429700000211596,537.8988253999851,538.900122699968,538.8833483000053,None,537.8988253999851,None,537.8988253999851,None,537.8988253999851,None,539.6245111399796,None,539.6245111399796,None,539.6245111399796,None,,,,,,,,,,,119,26,Female,2022-05-06_14h07.02.007,Boat,2022.1.1,60.07405930475167,
negative,neutral,2,j,l,,,,,,,,,9,9,171,12,,,,,,,,,,,,,,,,,,,,,,,,main,2,2,2,neutral,negative,l,l,1,0.7148114999872632,539.6459698000108,540.6541623999947,540.6187297999859,None,539.6459698000108,None,539.6459698000108,None,539.6459698000108,None,541.3419584400137,None,541.3419584400137,None,541.3419584400137,None,,,,,,,,,,,119,26,Female,2022-05-06_14h07.02.007,Boat,2022.1.1,60.07405930475167,
neutral,positive,2,k,k,,,,,,,,,9,10,172,13,,,,,,,,,,,,,,,,,,,,,,,,main,2,2,2,positive,neutral,k,k,1,1.281395900005009,541.3606301000109,542.379677799996,542.3386351999943,None,541.3606301000109,None,541.3606301000109,None,541.3606301000109,None,543.6260860399809,None,543.6260860399809,None,543.6260860399809,None,,,,,,,,,,,119,26,Female,2022-05-06_14h07.02.007,Boat,2022.1.1,60.07405930475167,
neutral,positive,1,k,k,,,,,,,,,9,11,173,4,,,,,,,,,,,,,,,,,,,,,,,,main,1,1,1,positive,neutral,k,k,1,0.6945532999816351,543.6439826000133,544.6535274999915,544.6170501000015,None,543.6439826000133,None,543.6439826000133,None,543.6439826000133,None,545.3219513399993,None,545.3219513399993,None,545.3219513399993,None,,,,,,,,,,,119,26,Female,2022-05-06_14h07.02.007,Boat,2022.1.1,60.07405930475167,
positive,negative,2,l,j,,,,,,,,,9,12,174,14,,,,,,,,,,,,,,,,,,,,,,,,main,1,1,2,negative,positive,j,j,1,0.9657161999493837,545.3404300999828,546.3517641999642,546.3171906999778,None,545.3404300999828,None,545.3404300999828,None,545.3404300999828,None,547.2895481400076,None,547.2895481400076,None,547.2895481400076,None,,,,,,,,,,,119,26,Female,2022-05-06_14h07.02.007,Boat,2022.1.1,60.07405930475167,
neutral,negative,1,k,k,,,,,,,,,9,13,175,7,,,,,,,,,,,,,,,,,,,,,,,,main,2,2,1,negative,neutral,k,k,1,0.9232135000056587,547.3135241999989,548.3234216999845,548.2867578999721,None,547.3135241999989,None,547.3135241999989,None,547.3135241999989,None,549.2169390399824,None,549.2169390399824,None,549.2169390399824,None,,,,,,,,,,,119,26,Female,2022-05-06_14h07.02.007,Boat,2022.1.1,60.07405930475167,
negative,negative,2,j,l,,,,,,,,,9,14,176,9,,,,,,,,,,,,,,,,,,,,,,,,main,2,2,2,negative,negative,l,l,1,0.833600900019519,549.2365892999806,550.2539729999844,550.2173320999718,None,549.2365892999806,None,549.2365892999806,None,549.2365892999806,None,551.0528525399743,None,551.0528525399743,None,551.0528525399743,None,,,,,,,,,,,119,26,Female,2022-05-06_14h07.02.007,Boat,2022.1.1,60.07405930475167,
positive,positive,2,l,j,,,,,,,,,9,15,177,11,,,,,,,,,,,,,,,,,,,,,,,,main,1,1,2,positive,positive,j,j,1,0.9531906000338495,551.0725079000113,552.0830517999711,552.0635486000101,None,551.0725079000113,None,551.0725079000113,None,551.0725079000113,None,553.0105869399733,None,553.0105869399733,None,553.0105869399733,None,,,,,,,,,,,119,26,Female,2022-05-06_14h07.02.007,Boat,2022.1.1,60.07405930475167,
positive,negative,1,l,j,,,,,,,,,9,16,178,5,,,,,,,,,,,,,,,,,,,,,,,,main,2,2,1,negative,positive,j,j,1,0.944692200049758,553.0321636999724,554.0502080000006,554.0080803000019,None,553.0321636999724,None,553.0321636999724,None,553.0321636999724,None,554.958282040013,None,554.958282040013,None,554.958282040013,None,,,,,,,,,,,119,26,Female,2022-05-06_14h07.02.007,Boat,2022.1.1,60.07405930475167,
neutral,negative,2,k,k,,,,,,,,,9,17,179,16,,,,,,,,,,,,,,,,,,,,,,,,main,2,2,2,negative,neutral,k,k,1,1.3390708999941126,554.9750328999944,555.9838136999751,555.9504655000055,None,554.9750328999944,None,554.9750328999944,None,554.9750328999944,None,557.2989620399778,None,557.2989620399778,None,557.2989620399778,None,,,,,,,,,,,119,26,Female,2022-05-06_14h07.02.007,Boat,2022.1.1,60.07405930475167,
negative,negative,1,j,l,,,,,,,,,10,0,180,0,,,,,,,,,,,,,,,,,,,,,,,,main,1,1,1,negative,negative,l,l,1,0.8517193999723531,557.3185076999944,558.3338447000133,558.3003940000199,None,557.3185076999944,None,557.3185076999944,None,557.3185076999944,None,559.152819039987,None,559.152819039987,None,559.152819039987,None,,,,,,,,,,,119,26,Female,2022-05-06_14h07.02.007,Boat,2022.1.1,60.07405930475167,
positive,neutral,2,l,j,,,,,,,,,10,1,181,17,,,,,,,,,,,,,,,,,,,,,,,,main,1,1,2,neutral,positive,j,j,1,0.9996645999490283,559.1716488999664,560.184275800013,560.1492690999876,None,559.1716488999664,None,559.1716488999664,None,559.1716488999664,None,561.1568063399639,None,561.1568063399639,None,561.1568063399639,None,,,,,,,,,,,119,26,Female,2022-05-06_14h07.02.007,Boat,2022.1.1,60.07405930475167,
positive,neutral,1,l,j,,,,,,,,,10,2,182,8,,,,,,,,,,,,,,,,,,,,,,,,main,1,1,1,neutral,positive,j,j,1,0.7164844999788329,561.175781900005,562.1891213000054,562.1516244999948,None,561.175781900005,None,561.175781900005,None,561.175781900005,None,562.8764458399849,None,562.8764458399849,None,562.8764458399849,None,,,,,,,,,,,119,26,Female,2022-05-06_14h07.02.007,Boat,2022.1.1,60.07405930475167,
neutral,negative,1,k,k,,,,,,,,,10,3,183,7,,,,,,,,,,,,,,,,,,,,,,,,main,1,1,1,negative,neutral,k,k,1,0.7618552999920212,562.896035599988,563.9023996000178,563.8672702999902,None,562.896035599988,None,562.896035599988,None,562.896035599988,None,564.6408945399919,None,564.6408945399919,None,564.6408945399919,None,,,,,,,,,,,119,26,Female,2022-05-06_14h07.02.007,Boat,2022.1.1,60.07405930475167,
negative,positive,1,j,l,,,,,,,,,10,4,184,6,,,,,,,,,,,,,,,,,,,,,,,,main,2,2,1,positive,negative,l,l,1,0.9118808999774046,564.6597119999933,565.6679424999747,565.6506525999866,None,564.6597119999933,None,564.6597119999933,None,564.6597119999933,None,566.553933239996,None,566.553933239996,None,566.553933239996,None,,,,,,,,,,,119,26,Female,2022-05-06_14h07.02.007,Boat,2022.1.1,60.07405930475167,
negative,neutral,1,j,l,,,,,,,,,10,5,185,3,,,,,,,,,,,,,,,,,,,,,,,,main,2,2,1,neutral,negative,l,l,1,0.6701134000322782,566.5720738999662,567.5851823000121,567.5507336999872,None,566.5720738999662,None,566.5720738999662,None,566.5720738999662,None,568.2261823399924,None,568.2261823399924,None,568.2261823399924,None,,,,,,,,,,,119,26,Female,2022-05-06_14h07.02.007,Boat,2022.1.1,60.07405930475167,
neutral,positive,2,k,k,,,,,,,,,10,6,186,13,,,,,,,,,,,,,,,,,,,,,,,,main,2,2,2,positive,neutral,k,k,1,1.2752800000016578,568.2488604999962,569.2662881999859,569.2459205000196,None,568.2488604999962,None,568.2488604999962,None,568.2488604999962,None,570.5054508399801,None,570.5054508399801,None,570.5054508399801,None,,,,,,,,,,,119,26,Female,2022-05-06_14h07.02.007,Boat,2022.1.1,60.07405930475167,
neutral,positive,1,k,k,,,,,,,,,10,7,187,4,,,,,,,,,,,,,,,,,,,,,,,,main,1,1,1,positive,neutral,k,k,1,0.6658284000004642,570.5250691999681,571.5338169999886,571.5005160999717,None,570.5250691999681,None,570.5250691999681,None,570.5250691999681,None,572.1761205399991,None,572.1761205399991,None,572.1761205399991,None,,,,,,,,,,,119,26,Female,2022-05-06_14h07.02.007,Boat,2022.1.1,60.07405930475167,
positive,negative,2,l,j,,,,,,,,,10,8,188,14,,,,,,,,,,,,,,,,,,,,,,,,main,2,2,2,negative,positive,j,j,1,0.8434184999787249,572.1969502000138,573.2006056999671,573.1841665999964,None,572.1969502000138,None,572.1969502000138,None,572.1969502000138,None,574.0209205400199,None,574.0209205400199,None,574.0209205400199,None,,,,,,,,,,,119,26,Female,2022-05-06_14h07.02.007,Boat,2022.1.1,60.07405930475167,
neutral,neutral,1,k,k,,,,,,,,,10,9,189,1,,,,,,,,,,,,,,,,,,,,,,,,main,2,2,1,neutral,neutral,k,k,1,0.7137386000249535,574.0401663999655,575.0511297999765,575.017357499979,None,574.0401663999655,None,574.0401663999655,None,574.0401663999655,None,575.7368063399801,None,575.7368063399801,None,575.7368063399801,None,,,,,,,,,,,119,26,Female,2022-05-06_14h07.02.007,Boat,2022.1.1,60.07405930475167,
neutral,neutral,2,k,k,,,,,,,,,10,10,190,10,,,,,,,,,,,,,,,,,,,,,,,,main,1,1,2,neutral,neutral,k,k,1,0.6334792000125162,575.7568349000067,576.7759264999768,576.7489553000196,None,575.7568349000067,None,575.7568349000067,None,575.7568349000067,None,577.3755971399835,None,577.3755971399835,None,577.3755971399835,None,,,,,,,,,,,119,26,Female,2022-05-06_14h07.02.007,Boat,2022.1.1,60.07405930475167,
positive,negative,1,l,j,,,,,,,,,10,11,191,5,,,,,,,,,,,,,,,,,,,,,,,,main,1,1,1,negative,positive,j,j,1,0.8439777999883518,577.3952497999999,578.4009931000182,578.3828714999836,None,577.3952497999999,None,577.3952497999999,None,577.3952497999999,None,579.2206521399669,None,579.2206521399669,None,579.2206521399669,None,,,,,,,,,,,119,26,Female,2022-05-06_14h07.02.007,Boat,2022.1.1,60.07405930475167,
neutral,negative,2,k,k,,,,,,,,,10,12,192,16,,,,,,,,,,,,,,,,,,,,,,,,main,1,1,2,negative,neutral,k,k,1,0.8938495999900624,579.239017600019,580.2595024000038,580.2177589000203,None,579.239017600019,None,579.239017600019,None,579.239017600019,None,581.1177949400037,None,581.1177949400037,None,581.1177949400037,None,,,,,,,,,,,119,26,Female,2022-05-06_14h07.02.007,Boat,2022.1.1,60.07405930475167,
negative,neutral,2,j,l,,,,,,,,,10,13,193,12,,,,,,,,,,,,,,,,,,,,,,,,main,2,2,2,neutral,negative,l,l,1,0.9630009000538848,581.1375251999707,582.1553079999867,582.1194735000026,None,581.1375251999707,None,581.1375251999707,None,581.1375251999707,None,583.0843558399822,None,583.0843558399822,None,583.0843558399822,None,,,,,,,,,,,119,26,Female,2022-05-06_14h07.02.007,Boat,2022.1.1,60.07405930475167,
negative,negative,2,j,l,,,,,,,,,10,14,194,9,,,,,,,,,,,,,,,,,,,,,,,,main,1,1,2,negative,negative,l,l,1,0.7039432000019588,583.1027290999773,584.103847499995,584.0858885999769,None,583.1027290999773,None,583.1027290999773,None,583.1027290999773,None,584.7897874399671,None,584.7897874399671,None,584.7897874399671,None,,,,,,,,,,,119,26,Female,2022-05-06_14h07.02.007,Boat,2022.1.1,60.07405930475167,
positive,positive,1,l,j,,,,,,,,,10,15,195,2,,,,,,,,,,,,,,,,,,,,,,,,main,2,2,1,positive,positive,j,j,1,0.7571182000101544,584.8104706999729,585.8245481000049,585.7877011999954,None,584.8104706999729,None,584.8104706999729,None,584.8104706999729,None,586.5511439400027,None,586.5511439400027,None,586.5511439400027,None,,,,,,,,,,,119,26,Female,2022-05-06_14h07.02.007,Boat,2022.1.1,60.07405930475167,
positive,positive,2,l,j,,,,,,,,,10,16,196,11,,,,,,,,,,,,,,,,,,,,,,,,main,2,2,2,positive,positive,j,j,1,0.6622375000151806,586.5714623999665,587.5853390999837,587.5503451999975,None,586.5714623999665,None,586.5714623999665,None,586.5714623999665,None,588.2165109399823,None,588.2165109399823,None,588.2165109399823,None,,,,,,,,,,,119,26,Female,2022-05-06_14h07.02.007,Boat,2022.1.1,60.07405930475167,
negative,positive,2,j,l,,,,,,,,,10,17,197,15,,,,,,,,,,,,,,,,,,,,,,,,main,1,1,2,positive,negative,l,l,1,0.9592600999749266,588.2375415000133,589.250181499985,589.2295695999637,None,588.2375415000133,None,588.2375415000133,None,588.2375415000133,None,590.17953134001,None,590.17953134001,None,590.17953134001,None,,,,,,,,,,,119,26,Female,2022-05-06_14h07.02.007,Boat,2022.1.1,60.07405930475167,
positive,positive,2,l,j,,,,,,,,,11,0,198,11,,,,,,,,,,,,,,,,,,,,,,,,main,2,2,2,positive,positive,j,j,1,0.8640114000299945,590.2000453000073,591.2016921999748,591.1846376999747,None,590.2000453000073,None,590.2000453000073,None,590.2000453000073,None,592.045622939989,None,592.045622939989,None,592.045622939989,None,,,,,,,,,,,119,26,Female,2022-05-06_14h07.02.007,Boat,2022.1.1,60.07405930475167,
neutral,positive,1,k,k,,,,,,,,,11,1,199,4,,,,,,,,,,,,,,,,,,,,,,,,main,2,2,1,positive,neutral,k,k,1,0.8274138999986462,592.066771999991,593.0859535000054,593.0470219000126,None,592.066771999991,None,592.066771999991,None,592.066771999991,None,593.8774316399824,None,593.8774316399824,None,593.8774316399824,None,,,,,,,,,,,119,26,Female,2022-05-06_14h07.02.007,Boat,2022.1.1,60.07405930475167,
positive,negative,1,l,j,,,,,,,,,11,2,200,5,,,,,,,,,,,,,,,,,,,,,,,,main,1,1,1,negative,positive,j,j,1,0.9121098999748938,593.8990059999633,594.9023330999771,594.8680581999943,None,593.8990059999633,None,593.8990059999633,None,593.8990059999633,None,595.7918126399629,None,595.7918126399629,None,595.7918126399629,None,,,,,,,,,,,119,26,Female,2022-05-06_14h07.02.007,Boat,2022.1.1,60.07405930475167,
negative,positive,1,j,l,,,,,,,,,11,3,201,6,,,,,,,,,,,,,,,,,,,,,,,,main,2,2,1,positive,negative,l,l,1,0.9130174000165425,595.8091703999671,596.8180173999863,596.8005871999776,None,595.8091703999671,None,595.8091703999671,None,595.8091703999671,None,597.7055694399635,None,597.7055694399635,None,597.7055694399635,None,,,,,,,,,,,119,26,Female,2022-05-06_14h07.02.007,Boat,2022.1.1,60.07405930475167,
positive,neutral,1,l,j,,,,,,,,,11,4,202,8,,,,,,,,,,,,,,,,,,,,,,,,main,1,1,1,neutral,positive,j,j,1,0.80203070002608,597.72356329998,598.7296574999928,598.7089274000027,None,597.72356329998,None,597.72356329998,None,597.72356329998,None,599.5122533399729,None,599.5122533399729,None,599.5122533399729,None,,,,,,,,,,,119,26,Female,2022-05-06_14h07.02.007,Boat,2022.1.1,60.07405930475167,
negative,negative,1,j,l,,,,,,,,,11,5,203,0,,,,,,,,,,,,,,,,,,,,,,,,main,1,1,1,negative,negative,l,l,1,0.8765595000004396,599.5324873999925,600.5348066000151,600.5161265999777,None,599.5324873999925,None,599.5324873999925,None,599.5324873999925,None,601.390216040006,None,601.390216040006,None,601.390216040006,None,,,,,,,,,,,119,26,Female,2022-05-06_14h07.02.007,Boat,2022.1.1,60.07405930475167,
neutral,neutral,2,k,k,,,,,,,,,11,6,204,10,,,,,,,,,,,,,,,,,,,,,,,,main,2,2,2,neutral,neutral,k,k,1,0.7288165999925695,601.4105771000031,602.4247370999656,602.3847393000033,None,601.4105771000031,None,601.4105771000031,None,601.4105771000031,None,603.1218320400105,None,603.1218320400105,None,603.1218320400105,None,,,,,,,,,,,119,26,Female,2022-05-06_14h07.02.007,Boat,2022.1.1,60.07405930475167,
neutral,negative,2,k,k,,,,,,,,,11,7,205,16,,,,,,,,,,,,,,,,,,,,,,,,main,2,2,2,negative,neutral,k,k,1,0.6100436999695376,603.142007699993,604.1542354999692,604.1182963000028,None,603.142007699993,None,603.142007699993,None,603.142007699993,None,604.7349171399721,None,604.7349171399721,None,604.7349171399721,None,,,,,,,,,,,119,26,Female,2022-05-06_14h07.02.007,Boat,2022.1.1,60.07405930475167,
positive,positive,1,l,j,,,,,,,,,11,8,206,2,,,,,,,,,,,,,,,,,,,,,,,,main,1,1,1,positive,positive,j,j,1,0.8511991000268608,604.755873200018,605.7688410999835,605.734910500003,None,604.755873200018,None,604.755873200018,None,604.755873200018,None,606.5887938400149,None,606.5887938400149,None,606.5887938400149,None,,,,,,,,,,,119,26,Female,2022-05-06_14h07.02.007,Boat,2022.1.1,60.07405930475167,
neutral,neutral,1,k,k,,,,,,,,,11,9,207,1,,,,,,,,,,,,,,,,,,,,,,,,main,2,2,1,neutral,neutral,k,k,1,0.7123785999719985,606.6088545999955,607.6224512999761,607.5860068000038,None,606.6088545999955,None,606.6088545999955,None,606.6088545999955,None,608.3045692400076,None,608.3045692400076,None,608.3045692400076,None,,,,,,,,,,,119,26,Female,2022-05-06_14h07.02.007,Boat,2022.1.1,60.07405930475167,
positive,negative,2,l,j,,,,,,,,,11,10,208,14,,,,,,,,,,,,,,,,,,,,,,,,main,2,2,2,negative,positive,j,j,1,0.7713753000134602,608.3226004000171,609.3247022000141,609.3080845999648,None,608.3226004000171,None,608.3226004000171,None,608.3226004000171,None,610.0803198399838,None,610.0803198399838,None,610.0803198399838,None,,,,,,,,,,,119,26,Female,2022-05-06_14h07.02.007,Boat,2022.1.1,60.07405930475167,
