target,distractor,set,ans1,ans2,rep_loop2.thisRepN,rep_loop2.thisTrialN,rep_loop2.thisN,rep_loop2.thisIndex,flanker_prac_loop.thisRepN,flanker_prac_loop.thisTrialN,flanker_prac_loop.thisN,flanker_prac_loop.thisIndex,flanker_main_loop.thisRepN,flanker_main_loop.thisTrialN,flanker_main_loop.thisN,flanker_main_loop.thisIndex,fl_inst_resp.keys,mouse.x,mouse.y,mouse.leftButton,mouse.midButton,mouse.rightButton,mouse.started,mouse.stopped,sound_1.started,sound_1.stopped,no_text.started,no_text.stopped,yes_text.started,yes_text.stopped,mouse_2.x,mouse_2.y,mouse_2.leftButton,mouse_2.midButton,mouse_2.rightButton,mouse_2.started,mouse_2.stopped,back_2.started,back_2.stopped,main_prac,fl_cold,fl_colt,fl_set,fl_dcond,fl_tcond,fl_ans,fl_res,fl_corr,fl_rt,fix_fl.started,fix_fl.stopped,targ.started,targ.stopped,j_button.started,j_button.stopped,k_button.started,k_button.stopped,l_button.started,l_button.stopped,j_button2.started,j_button2.stopped,k_button2.started,k_button2.stopped,l_button2.started,l_button2.stopped,mainback.started,mainback.stopped,key_resp.keys,mouse_6.x,mouse_6.y,mouse_6.leftButton,mouse_6.midButton,mouse_6.rightButton,mouse_6.started,mouse_6.stopped,id*,age*,gender*,date,expName,psychopyVersion,frameRate,
,,,,,0,0,0,0,,,,,,,,,None,-0.121296294,-0.29907408,0,0,0,1.0224265317665413,None,29.20413412998314,None,78.23925749998307,None,78.23925749998307,None,-0.096296296,-0.08888889,0,0,0,0.012993530021049082,None,,,,,,,,,,,,,,,,,,,,,,,,,,,,,,,,,,,,,,,120,30,Female,2022-05-06_15h28.57.258,Boat,2022.1.1,60.14592602957879,
positive,neutral,2,l,j,,,,,0,0,0,17,,,,,,,,,,,,,,,,,,,,,,,,,,88.64128079998773,None,prac,2,2,2,neutral,positive,l,l,1,1.3841556000406854,90.67113879998215,91.6771344000008,91.64241620001849,None,90.67113879998215,None,90.67113879998215,None,90.67113879998215,None,93.02468282997725,None,93.02468282997725,None,93.02468282997725,None,,,,,,,,,,,120,30,Female,2022-05-06_15h28.57.258,Boat,2022.1.1,60.14592602957879,
negative,neutral,1,j,l,,,,,0,1,1,3,,,,,,,,,,,,,,,,,,,,,,,,,,,,prac,1,1,1,neutral,negative,j,k,0,1.4626381000271067,93.04453549999744,94.05881000001682,94.01751839998178,None,93.04453549999744,None,93.04453549999744,None,93.04453549999744,None,95.51245259999996,None,95.51245259999996,None,95.51245259999996,None,,,,,,,,,,,120,30,Female,2022-05-06_15h28.57.258,Boat,2022.1.1,60.14592602957879,
neutral,negative,1,k,k,,,,,0,2,2,7,,,,,,,,,,,,,,,,,,,,,,,,,,,,prac,2,2,1,negative,neutral,k,k,1,0.8932661999715492,96.5303799000103,97.54414289997658,97.52346449997276,None,96.5303799000103,None,96.5303799000103,None,96.5303799000103,None,98.40766093001585,None,98.40766093001585,None,98.40766093001585,None,,,,,,,,,,,120,30,Female,2022-05-06_15h28.57.258,Boat,2022.1.1,60.14592602957879,
neutral,neutral,2,k,k,,,,,0,3,3,10,,,,,,,,,,,,,,,,,,,,,,,,,,,,prac,1,1,2,neutral,neutral,k,k,1,0.7779976000310853,98.42731649999041,99.44395139999688,99.4054846999934,None,98.42731649999041,None,98.42731649999041,None,98.42731649999041,None,100.19129352999735,None,100.19129352999735,None,100.19129352999735,None,,,,,,,,,,,120,30,Female,2022-05-06_15h28.57.258,Boat,2022.1.1,60.14592602957879,
positive,negative,2,l,j,,,,,0,4,4,14,,,,,,,,,,,,,,,,,,,,,,,,,,,,prac,2,2,2,negative,positive,l,l,1,0.8269202999654226,100.20945820002817,101.21168800001033,101.19430390000343,None,100.20945820002817,None,100.20945820002817,None,100.20945820002817,None,102.02062223002432,None,102.02062223002432,None,102.02062223002432,None,,,,,,,,,,,120,30,Female,2022-05-06_15h28.57.258,Boat,2022.1.1,60.14592602957879,
negative,positive,1,j,l,,,,,0,5,5,6,,,,,,,,,,,,,,,,,,,,,,,,,,,,prac,2,2,1,positive,negative,j,j,1,0.9721777000231668,102.04131569998572,103.04416869999841,103.0272162000183,None,102.04131569998572,None,102.04131569998572,None,102.04131569998572,None,103.99404903001269,None,103.99404903001269,None,103.99404903001269,None,,,,,,,,,,,120,30,Female,2022-05-06_15h28.57.258,Boat,2022.1.1,60.14592602957879,
neutral,positive,2,k,k,,,,,0,6,6,13,,,,,,,,,,,,,,,,,,,,,,,,,,,,prac,1,1,2,positive,neutral,k,k,1,0.7171683000051416,104.01171709998744,105.02758679998806,104.98894569999538,None,104.01171709998744,None,104.01171709998744,None,104.01171709998744,None,105.71380793001154,None,105.71380793001154,None,105.71380793001154,None,,,,,,,,,,,120,30,Female,2022-05-06_15h28.57.258,Boat,2022.1.1,60.14592602957879,
neutral,positive,1,k,k,,,,,0,7,7,4,,,,,,,,,,,,,,,,,,,,,,,,,,,,prac,2,2,1,positive,neutral,k,k,1,0.9527405999833718,105.7306500999839,106.74592519999715,106.71093609998934,None,105.7306500999839,None,105.7306500999839,None,105.7306500999839,None,107.67006693001022,None,107.67006693001022,None,107.67006693001022,None,,,,,,,,,,,120,30,Female,2022-05-06_15h28.57.258,Boat,2022.1.1,60.14592602957879,
negative,positive,2,j,l,,,,,0,8,8,15,,,,,,,,,,,,,,,,,,,,,,,,,,,,prac,2,2,2,positive,negative,j,j,1,0.9235599999665283,107.68789409997407,108.69423289998667,108.67746540001826,None,107.68789409997407,None,107.68789409997407,None,107.68789409997407,None,109.59463132999954,None,109.59463132999954,None,109.59463132999954,None,,,,,,,,,,,120,30,Female,2022-05-06_15h28.57.258,Boat,2022.1.1,60.14592602957879,
neutral,negative,2,k,k,,,,,0,9,9,16,,,,,,,,,,,,,,,,,,,,,,,,,,,,prac,2,2,2,negative,neutral,k,k,1,0.6607812999864109,109.61241689999588,110.63593059999403,110.59397270000773,None,109.61241689999588,None,109.61241689999588,None,109.61241689999588,None,111.25951393001597,None,111.25951393001597,None,111.25951393001597,None,,,,,,,,,,,120,30,Female,2022-05-06_15h28.57.258,Boat,2022.1.1,60.14592602957879,
negative,negative,2,j,l,,,,,0,10,10,9,,,,,,,,,,,,,,,,,,,,,,,,,,,,prac,2,2,2,negative,negative,j,j,1,0.8753569000400603,111.2786625000299,112.29480099998182,112.26083370001288,None,111.2786625000299,None,111.2786625000299,None,111.2786625000299,None,113.1379003300157,None,113.1379003300157,None,113.1379003300157,None,,,,,,,,,,,120,30,Female,2022-05-06_15h28.57.258,Boat,2022.1.1,60.14592602957879,
negative,negative,1,j,l,,,,,0,11,11,0,,,,,,,,,,,,,,,,,,,,,,,,,,,,prac,1,1,1,negative,negative,j,j,1,0.8667145000072196,113.15811140002916,114.17755159997614,114.13898430002155,None,113.15811140002916,None,113.15811140002916,None,113.15811140002916,None,115.00674863003078,None,115.00674863003078,None,115.00674863003078,None,,,,,,,,,,,120,30,Female,2022-05-06_15h28.57.258,Boat,2022.1.1,60.14592602957879,
negative,neutral,2,j,l,,,,,0,12,12,12,,,,,,,,,,,,,,,,,,,,,,,,,,,,prac,1,1,2,neutral,negative,j,j,1,0.8512174000497907,115.02638679998927,116.0278091999935,116.01116140000522,None,115.02638679998927,None,115.02638679998927,None,115.02638679998927,None,116.86049062997918,None,116.86049062997918,None,116.86049062997918,None,,,,,,,,,,,120,30,Female,2022-05-06_15h28.57.258,Boat,2022.1.1,60.14592602957879,
neutral,neutral,1,k,k,,,,,0,13,13,1,,,,,,,,,,,,,,,,,,,,,,,,,,,,prac,2,2,1,neutral,neutral,k,k,1,0.7182457000017166,116.87679940002272,117.87742909998633,117.86108340002829,None,116.87679940002272,None,116.87679940002272,None,116.87679940002272,None,118.57997163001565,None,118.57997163001565,None,118.57997163001565,None,,,,,,,,,,,120,30,Female,2022-05-06_15h28.57.258,Boat,2022.1.1,60.14592602957879,
positive,neutral,1,l,j,,,,,0,14,14,8,,,,,,,,,,,,,,,,,,,,,,,,,,,,prac,2,2,1,neutral,positive,l,l,1,0.759480300010182,118.59731199999806,119.6111164999893,119.57760060002329,None,118.59731199999806,None,118.59731199999806,None,118.59731199999806,None,120.34353662998765,None,120.34353662998765,None,120.34353662998765,None,,,,,,,,,,,120,30,Female,2022-05-06_15h28.57.258,Boat,2022.1.1,60.14592602957879,
positive,negative,1,l,j,,,,,0,15,15,5,,,,,,,,,,,,,,,,,,,,,,,,,,,,prac,1,1,1,negative,positive,l,l,1,0.7608924999949522,120.36052099999506,121.36126139998669,121.34448410000186,None,120.36052099999506,None,120.36052099999506,None,120.36052099999506,None,122.107692230033,None,122.107692230033,None,122.107692230033,None,,,,,,,,,,,120,30,Female,2022-05-06_15h28.57.258,Boat,2022.1.1,60.14592602957879,
positive,positive,2,l,j,,,,,0,16,16,11,,,,,,,,,,,,,,,,,,,,,,,,,,,,prac,1,1,2,positive,positive,l,l,1,0.7238569000037387,122.12531929998659,123.12756609998178,123.11129390000133,None,122.12531929998659,None,122.12531929998659,None,122.12531929998659,None,123.83168353001238,None,123.83168353001238,None,123.83168353001238,None,,,,,,,,,,,120,30,Female,2022-05-06_15h28.57.258,Boat,2022.1.1,60.14592602957879,
positive,positive,1,l,j,,,,,0,17,17,2,,,,,,,,,,,,,,,,,,,,,,,,,,,,prac,1,1,1,positive,positive,l,l,1,2.117740999965463,123.85009349999018,124.86940119997598,124.82768599997507,None,123.85009349999018,None,123.85009349999018,None,123.85009349999018,None,126.96854809997603,None,126.96854809997603,None,126.96854809997603,None,,,,,,,,,,,120,30,Female,2022-05-06_15h28.57.258,Boat,2022.1.1,60.14592602957879,
positive,neutral,2,l,j,,,,,1,0,18,17,,,,,,,,,,,,,,,,,,,,,,,,,,,,prac,2,2,2,neutral,positive,l,l,1,0.6429802000056952,127.98212729999796,128.99347500002477,128.97301130002597,None,127.98212729999796,None,127.98212729999796,None,127.98212729999796,None,129.60930133000366,None,129.60930133000366,None,129.60930133000366,None,,,,,,,,,,,120,30,Female,2022-05-06_15h28.57.258,Boat,2022.1.1,60.14592602957879,
positive,neutral,1,l,j,,,,,1,1,19,8,,,,,,,,,,,,,,,,,,,,,,,,,,,,prac,2,2,1,neutral,positive,l,l,1,0.6288993000052869,129.6277689000126,130.6561602000147,130.60934299998917,None,129.6277689000126,None,129.6277689000126,None,129.6277689000126,None,131.24085363001214,None,131.24085363001214,None,131.24085363001214,None,,,,,,,,,,,120,30,Female,2022-05-06_15h28.57.258,Boat,2022.1.1,60.14592602957879,
positive,positive,2,l,j,,,,,1,2,20,11,,,,,,,,,,,,,,,,,,,,,,,,,,,,prac,2,2,2,positive,positive,l,l,1,0.6346744000329636,131.26078259997303,132.26137840002775,132.24475220002932,None,131.26078259997303,None,131.26078259997303,None,131.26078259997303,None,132.87705363002024,None,132.87705363002024,None,132.87705363002024,None,,,,,,,,,,,120,30,Female,2022-05-06_15h28.57.258,Boat,2022.1.1,60.14592602957879,
positive,positive,1,l,j,,,,,1,3,21,2,,,,,,,,,,,,,,,,,,,,,,,,,,,,prac,2,2,1,positive,positive,l,l,1,0.5604057000018656,132.89826420001918,133.9194598000031,133.87298390001524,None,132.89826420001918,None,132.89826420001918,None,132.89826420001918,None,134.44203563000193,None,134.44203563000193,None,134.44203563000193,None,,,,,,,,,,,120,30,Female,2022-05-06_15h28.57.258,Boat,2022.1.1,60.14592602957879,
positive,negative,1,l,j,,,,,1,4,22,5,,,,,,,,,,,,,,,,,,,,,,,,,,,,prac,2,2,1,negative,positive,l,l,1,0.5227051000110805,134.46019359998172,135.4655991999898,135.44737710000481,None,134.46019359998172,None,134.46019359998172,None,134.46019359998172,None,135.96619772998966,None,135.96619772998966,None,135.96619772998966,None,,,,,,,,,,,120,30,Female,2022-05-06_15h28.57.258,Boat,2022.1.1,60.14592602957879,
neutral,positive,2,k,k,,,,,1,5,23,13,,,,,,,,,,,,,,,,,,,,,,,,,,,,prac,1,1,2,positive,neutral,k,k,1,0.7084340000292286,135.9898092999938,136.99488150002435,136.96128460002365,None,135.9898092999938,None,135.9898092999938,None,135.9898092999938,None,137.67856943002553,None,137.67856943002553,None,137.67856943002553,None,,,,,,,,,,,120,30,Female,2022-05-06_15h28.57.258,Boat,2022.1.1,60.14592602957879,
negative,neutral,1,j,l,,,,,1,6,24,3,,,,,,,,,,,,,,,,,,,,,,,,,,,,prac,2,2,1,neutral,negative,j,j,1,0.7706123999669217,137.70533460000297,138.71359090000624,138.67861649999395,None,137.70533460000297,None,137.70533460000297,None,137.70533460000297,None,139.4505250300339,None,139.4505250300339,None,139.4505250300339,None,,,,,,,,,,,120,30,Female,2022-05-06_15h28.57.258,Boat,2022.1.1,60.14592602957879,
positive,negative,2,l,j,,,,,1,7,25,14,,,,,,,,,,,,,,,,,,,,,,,,,,,,prac,1,1,2,negative,positive,l,l,1,0.7811137999524362,139.47337349998998,140.47827159997541,140.45981299999403,None,139.47337349998998,None,139.47337349998998,None,139.47337349998998,None,141.23740392999608,None,141.23740392999608,None,141.23740392999608,None,,,,,,,,,,,120,30,Female,2022-05-06_15h28.57.258,Boat,2022.1.1,60.14592602957879,
negative,negative,1,j,l,,,,,1,8,26,0,,,,,,,,,,,,,,,,,,,,,,,,,,,,prac,2,2,1,negative,negative,j,j,1,0.909738100017421,141.25698710000142,142.26142539997818,142.22631240001647,None,141.25698710000142,None,141.25698710000142,None,141.25698710000142,None,143.14711913001375,None,143.14711913001375,None,143.14711913001375,None,,,,,,,,,,,120,30,Female,2022-05-06_15h28.57.258,Boat,2022.1.1,60.14592602957879,
negative,neutral,2,j,l,,,,,1,9,27,12,,,,,,,,,,,,,,,,,,,,,,,,,,,,prac,2,2,2,neutral,negative,j,j,1,0.8310060999938287,143.17102030001115,144.17944769997848,144.14472739998018,None,143.17102030001115,None,143.17102030001115,None,143.17102030001115,None,144.98076383001754,None,144.98076383001754,None,144.98076383001754,None,,,,,,,,,,,120,30,Female,2022-05-06_15h28.57.258,Boat,2022.1.1,60.14592602957879,
neutral,negative,2,k,k,,,,,1,10,28,16,,,,,,,,,,,,,,,,,,,,,,,,,,,,prac,2,2,2,negative,neutral,k,k,1,0.6770103999879211,144.99871970003005,146.01162080001086,145.97280129999854,None,144.99871970003005,None,144.99871970003005,None,144.99871970003005,None,146.66105663002818,None,146.66105663002818,None,146.66105663002818,None,,,,,,,,,,,120,30,Female,2022-05-06_15h28.57.258,Boat,2022.1.1,60.14592602957879,
negative,positive,1,j,l,,,,,1,11,29,6,,,,,,,,,,,,,,,,,,,,,,,,,,,,prac,1,1,1,positive,negative,j,j,1,0.8573776999837719,146.67957570002181,147.6956336000003,147.6616804000223,None,146.67957570002181,None,146.67957570002181,None,146.67957570002181,None,148.52257603000035,None,148.52257603000035,None,148.52257603000035,None,,,,,,,,,,,120,30,Female,2022-05-06_15h28.57.258,Boat,2022.1.1,60.14592602957879,
neutral,negative,1,k,k,,,,,1,12,30,7,,,,,,,,,,,,,,,,,,,,,,,,,,,,prac,2,2,1,negative,neutral,k,k,1,0.6952588999993168,148.54229990002932,149.55345970002236,149.5119608999812,None,148.54229990002932,None,148.54229990002932,None,148.54229990002932,None,150.21956032998278,None,150.21956032998278,None,150.21956032998278,None,,,,,,,,,,,120,30,Female,2022-05-06_15h28.57.258,Boat,2022.1.1,60.14592602957879,
negative,negative,2,j,l,,,,,1,13,31,9,,,,,,,,,,,,,,,,,,,,,,,,,,,,prac,2,2,2,negative,negative,j,j,1,0.9910997999832034,150.24022620002506,151.2600879999809,151.2199315999751,None,150.24022620002506,None,150.24022620002506,None,150.24022620002506,None,152.2125604300003,None,152.2125604300003,None,152.2125604300003,None,,,,,,,,,,,120,30,Female,2022-05-06_15h28.57.258,Boat,2022.1.1,60.14592602957879,
neutral,neutral,2,k,k,,,,,1,14,32,10,,,,,,,,,,,,,,,,,,,,,,,,,,,,prac,1,1,2,neutral,neutral,k,k,1,0.7908606000128202,152.2298685000278,153.24577610002598,153.21163819998037,None,152.2298685000278,None,152.2298685000278,None,152.2298685000278,None,154.00730932999286,None,154.00730932999286,None,154.00730932999286,None,,,,,,,,,,,120,30,Female,2022-05-06_15h28.57.258,Boat,2022.1.1,60.14592602957879,
negative,positive,2,j,l,,,,,1,15,33,15,,,,,,,,,,,,,,,,,,,,,,,,,,,,prac,1,1,2,positive,negative,j,j,1,0.8239654000499286,154.0277703999891,155.04561590001686,155.00932309997734,None,154.0277703999891,None,154.0277703999891,None,154.0277703999891,None,155.83166213002406,None,155.83166213002406,None,155.83166213002406,None,,,,,,,,,,,120,30,Female,2022-05-06_15h28.57.258,Boat,2022.1.1,60.14592602957879,
neutral,neutral,1,k,k,,,,,1,16,34,1,,,,,,,,,,,,,,,,,,,,,,,,,,,,prac,2,2,1,neutral,neutral,k,k,1,0.6398790999664925,155.849519099982,156.86090400000103,156.84044820000418,None,155.849519099982,None,155.849519099982,None,155.849519099982,None,157.47514583002194,None,157.47514583002194,None,157.47514583002194,None,,,,,,,,,,,120,30,Female,2022-05-06_15h28.57.258,Boat,2022.1.1,60.14592602957879,
neutral,positive,1,k,k,,,,,1,17,35,4,,,,,,,,,,,,,,,,,,,,,,,,,,,,prac,2,2,1,positive,neutral,k,k,1,0.7182826000498608,157.49415240000235,158.49517150002066,158.4782961999881,None,157.49415240000235,None,157.49415240000235,None,157.49415240000235,None,159.19541483000503,None,159.19541483000503,None,159.19541483000503,None,,,,,,,,,,,120,30,Female,2022-05-06_15h28.57.258,Boat,2022.1.1,60.14592602957879,
,,,,,,,,,,,,,,,,,,,,,,,,,,,,,,,,,,,,,,,,,,,,,,,,,,,,,,,,,,,,,,,,,,159.20730050001293,None,None,,,,,,,,120,30,Female,2022-05-06_15h28.57.258,Boat,2022.1.1,60.14592602957879,
,,,,,,,,,,,,,,,,,,,,,,,,,,,,,,,,,,,,,,,,,,,,,,,,,,,,,,,,,,,,,,,,,,,,,-0.050925925,-0.037037037,1,0,0,0.006159530021250248,None,120,30,Female,2022-05-06_15h28.57.258,Boat,2022.1.1,60.14592602957879,
negative,negative,2,j,l,,,,,,,,,0,0,0,9,,,,,,,,,,,,,,,,,,,,,,164.65757560002385,None,main,2,2,2,negative,negative,j,j,1,0.9681303999968804,166.67478920001304,167.67907930002548,167.66237520001596,None,166.67478920001304,None,166.67478920001304,None,166.67478920001304,None,168.62751153001446,None,168.62751153001446,None,168.62751153001446,None,,,,,,,,,,,120,30,Female,2022-05-06_15h28.57.258,Boat,2022.1.1,60.14592602957879,
neutral,neutral,1,k,k,,,,,,,,,0,1,1,1,,,,,,,,,,,,,,,,,,,,,,,,main,1,1,1,neutral,neutral,k,k,1,0.701327399990987,168.64863449998666,169.65694690000964,169.63692580000497,None,168.64863449998666,None,168.64863449998666,None,168.64863449998666,None,170.33412213001284,None,170.33412213001284,None,170.33412213001284,None,,,,,,,,,,,120,30,Female,2022-05-06_15h28.57.258,Boat,2022.1.1,60.14592602957879,
positive,neutral,1,l,j,,,,,,,,,0,2,2,8,,,,,,,,,,,,,,,,,,,,,,,,main,2,2,1,neutral,positive,l,l,1,0.7907531000091694,170.35256889997981,171.3633379000239,171.3288365000044,None,170.35256889997981,None,170.35256889997981,None,170.35256889997981,None,172.12902353000246,None,172.12902353000246,None,172.12902353000246,None,,,,,,,,,,,120,30,Female,2022-05-06_15h28.57.258,Boat,2022.1.1,60.14592602957879,
negative,negative,1,j,l,,,,,,,,,0,3,3,0,,,,,,,,,,,,,,,,,,,,,,,,main,1,1,1,negative,negative,j,j,1,0.8287079999572597,172.14592929999344,173.1737059999723,173.1268622999778,None,172.14592929999344,None,172.14592929999344,None,172.14592929999344,None,173.96119583002874,None,173.96119583002874,None,173.96119583002874,None,,,,,,,,,,,120,30,Female,2022-05-06_15h28.57.258,Boat,2022.1.1,60.14592602957879,
negative,positive,1,j,l,,,,,,,,,0,4,4,6,,,,,,,,,,,,,,,,,,,,,,,,main,2,2,1,positive,negative,j,j,1,0.8767623000312597,173.97992860001978,174.98322759999428,174.96537450002506,None,173.97992860001978,None,173.97992860001978,None,173.97992860001978,None,175.84181383002434,None,175.84181383002434,None,175.84181383002434,None,,,,,,,,,,,120,30,Female,2022-05-06_15h28.57.258,Boat,2022.1.1,60.14592602957879,
positive,positive,2,l,j,,,,,,,,,0,5,5,11,,,,,,,,,,,,,,,,,,,,,,,,main,1,1,2,positive,positive,l,l,1,0.7107420000247657,175.86111990001518,176.8629267999786,176.82894139998825,None,175.86111990001518,None,175.86111990001518,None,175.86111990001518,None,177.55568912998424,None,177.55568912998424,None,177.55568912998424,None,,,,,,,,,,,120,30,Female,2022-05-06_15h28.57.258,Boat,2022.1.1,60.14592602957879,
neutral,negative,2,k,k,,,,,,,,,0,6,6,16,,,,,,,,,,,,,,,,,,,,,,,,main,2,2,2,negative,neutral,k,k,1,0.8648567000054754,177.57548270002007,178.5801567999879,178.56286930001806,None,177.57548270002007,None,177.57548270002007,None,177.57548270002007,None,179.42293942999677,None,179.42293942999677,None,179.42293942999677,None,,,,,,,,,,,120,30,Female,2022-05-06_15h28.57.258,Boat,2022.1.1,60.14592602957879,
negative,neutral,1,j,l,,,,,,,,,0,7,7,3,,,,,,,,,,,,,,,,,,,,,,,,main,2,2,1,neutral,negative,j,j,1,0.7930493000312708,179.44388729997445,180.44944759999635,180.41433380002854,None,179.44388729997445,None,179.44388729997445,None,179.44388729997445,None,181.2175779300218,None,181.2175779300218,None,181.2175779300218,None,,,,,,,,,,,120,30,Female,2022-05-06_15h28.57.258,Boat,2022.1.1,60.14592602957879,
positive,neutral,2,l,j,,,,,,,,,0,8,8,17,,,,,,,,,,,,,,,,,,,,,,,,main,1,1,2,neutral,positive,l,l,1,0.7756258000154048,181.23537150002085,182.24562300002435,182.21008930000244,None,181.23537150002085,None,181.23537150002085,None,181.23537150002085,None,182.99573582999292,None,182.99573582999292,None,182.99573582999292,None,,,,,,,,,,,120,30,Female,2022-05-06_15h28.57.258,Boat,2022.1.1,60.14592602957879,
neutral,positive,2,k,k,,,,,,,,,0,9,9,13,,,,,,,,,,,,,,,,,,,,,,,,main,1,1,2,positive,neutral,k,k,1,0.7173141000093892,183.01605999999447,184.03751240001293,183.99579499999527,None,183.01605999999447,None,183.01605999999447,None,183.01605999999447,None,184.71560752997758,None,184.71560752997758,None,184.71560752997758,None,,,,,,,,,,,120,30,Female,2022-05-06_15h28.57.258,Boat,2022.1.1,60.14592602957879,
positive,negative,2,l,j,,,,,,,,,0,10,10,14,,,,,,,,,,,,,,,,,,,,,,,,main,1,1,2,negative,positive,l,l,1,0.7952347000245936,184.7346671000123,185.73580840002978,185.7189623999875,None,184.7346671000123,None,184.7346671000123,None,184.7346671000123,None,186.51383463002858,None,186.51383463002858,None,186.51383463002858,None,,,,,,,,,,,120,30,Female,2022-05-06_15h28.57.258,Boat,2022.1.1,60.14592602957879,
negative,positive,2,j,l,,,,,,,,,0,11,11,15,,,,,,,,,,,,,,,,,,,,,,,,main,2,2,2,positive,negative,j,j,1,0.9718767000013031,186.53254350001225,187.54080329998396,187.5206337000127,None,186.53254350001225,None,186.53254350001225,None,186.53254350001225,None,188.48996643000865,None,188.48996643000865,None,188.48996643000865,None,,,,,,,,,,,120,30,Female,2022-05-06_15h28.57.258,Boat,2022.1.1,60.14592602957879,
neutral,negative,1,k,k,,,,,,,,,0,12,12,7,,,,,,,,,,,,,,,,,,,,,,,,main,2,2,1,negative,neutral,k,k,1,0.6777119000325911,188.50826019997476,189.51259539998136,189.49585050001042,None,188.50826019997476,None,188.50826019997476,None,188.50826019997476,None,190.1682530299935,None,190.1682530299935,None,190.1682530299935,None,,,,,,,,,,,120,30,Female,2022-05-06_15h28.57.258,Boat,2022.1.1,60.14592602957879,
negative,neutral,2,j,l,,,,,,,,,0,13,13,12,,,,,,,,,,,,,,,,,,,,,,,,main,1,1,2,neutral,negative,j,j,1,0.8577560000121593,190.1854099999764,191.19366950000403,191.17407250002725,None,190.1854099999764,None,190.1854099999764,None,190.1854099999764,None,192.02862862998737,None,192.02862862998737,None,192.02862862998737,None,,,,,,,,,,,120,30,Female,2022-05-06_15h28.57.258,Boat,2022.1.1,60.14592602957879,
positive,negative,1,l,j,,,,,,,,,0,14,14,5,,,,,,,,,,,,,,,,,,,,,,,,main,2,2,1,negative,positive,l,l,1,0.7062203999958001,192.04678149998654,193.0458440000075,193.02926769998157,None,192.04678149998654,None,192.04678149998654,None,192.04678149998654,None,193.73832862999407,None,193.73832862999407,None,193.73832862999407,None,,,,,,,,,,,120,30,Female,2022-05-06_15h28.57.258,Boat,2022.1.1,60.14592602957879,
positive,positive,1,l,j,,,,,,,,,0,15,15,2,,,,,,,,,,,,,,,,,,,,,,,,main,2,2,1,positive,positive,l,l,1,0.7629278000094928,193.7575891999877,194.76418330002343,194.7462217999855,None,193.7575891999877,None,193.7575891999877,None,193.7575891999877,None,195.5051284300338,None,195.5051284300338,None,195.5051284300338,None,,,,,,,,,,,120,30,Female,2022-05-06_15h28.57.258,Boat,2022.1.1,60.14592602957879,
neutral,positive,1,k,k,,,,,,,,,0,16,16,4,,,,,,,,,,,,,,,,,,,,,,,,main,2,2,1,positive,neutral,k,k,1,0.7678278000093997,195.52540340000996,196.5366288999794,196.5008039000095,None,195.52540340000996,None,195.52540340000996,None,195.52540340000996,None,197.27543033002294,None,197.27543033002294,None,197.27543033002294,None,,,,,,,,,,,120,30,Female,2022-05-06_15h28.57.258,Boat,2022.1.1,60.14592602957879,
neutral,neutral,2,k,k,,,,,,,,,0,17,17,10,,,,,,,,,,,,,,,,,,,,,,,,main,1,1,2,neutral,neutral,k,k,1,0.9630319999996573,197.2950162999914,198.31280050001806,198.27419129997725,None,197.2950162999914,None,197.2950162999914,None,197.2950162999914,None,199.2414118300134,None,199.2414118300134,None,199.2414118300134,None,,,,,,,,,,,120,30,Female,2022-05-06_15h28.57.258,Boat,2022.1.1,60.14592602957879,
negative,neutral,2,j,l,,,,,,,,,1,0,18,12,,,,,,,,,,,,,,,,,,,,,,,,main,1,1,2,neutral,negative,j,j,1,0.7395155999693088,199.26173760002712,200.27720499999123,200.23782520001987,None,199.26173760002712,None,199.26173760002712,None,199.26173760002712,None,200.98148752999842,None,200.98148752999842,None,200.98148752999842,None,,,,,,,,,,,120,30,Female,2022-05-06_15h28.57.258,Boat,2022.1.1,60.14592602957879,
neutral,neutral,2,k,k,,,,,,,,,1,1,19,10,,,,,,,,,,,,,,,,,,,,,,,,main,1,1,2,neutral,neutral,k,k,1,0.7896111999871209,201.00127980002435,202.01381430000765,201.9759267999907,None,201.00127980002435,None,201.00127980002435,None,201.00127980002435,None,202.77594522998552,None,202.77594522998552,None,202.77594522998552,None,,,,,,,,,,,120,30,Female,2022-05-06_15h28.57.258,Boat,2022.1.1,60.14592602957879,
positive,positive,1,l,j,,,,,,,,,1,2,20,2,,,,,,,,,,,,,,,,,,,,,,,,main,1,1,1,positive,positive,l,l,1,0.7632888000225648,202.79506460000994,203.8046140000224,203.76288260001456,None,202.79506460000994,None,202.79506460000994,None,202.79506460000994,None,204.5416538299818,None,204.5416538299818,None,204.5416538299818,None,,,,,,,,,,,120,30,Female,2022-05-06_15h28.57.258,Boat,2022.1.1,60.14592602957879,
neutral,positive,1,k,k,,,,,,,,,1,3,21,4,,,,,,,,,,,,,,,,,,,,,,,,main,2,2,1,positive,neutral,k,k,1,0.6794092999771237,204.55968810000923,205.56801160000032,205.53148920001695,None,204.55968810000923,None,204.55968810000923,None,204.55968810000923,None,206.22418363002944,None,206.22418363002944,None,206.22418363002944,None,,,,,,,,,,,120,30,Female,2022-05-06_15h28.57.258,Boat,2022.1.1,60.14592602957879,
positive,neutral,2,l,j,,,,,,,,,1,4,22,17,,,,,,,,,,,,,,,,,,,,,,,,main,1,1,2,neutral,positive,l,l,1,0.8126512999879196,206.2441258999752,207.24613580002915,207.22986939997645,None,206.2441258999752,None,206.2441258999752,None,206.2441258999752,None,208.03902793001035,None,208.03902793001035,None,208.03902793001035,None,,,,,,,,,,,120,30,Female,2022-05-06_15h28.57.258,Boat,2022.1.1,60.14592602957879,
negative,positive,1,j,l,,,,,,,,,1,5,23,6,,,,,,,,,,,,,,,,,,,,,,,,main,2,2,1,positive,negative,j,j,1,0.7918634000234306,208.05631419998826,209.0653182999813,209.0298666000017,None,208.05631419998826,None,208.05631419998826,None,208.05631419998826,None,209.83212973003393,None,209.83212973003393,None,209.83212973003393,None,,,,,,,,,,,120,30,Female,2022-05-06_15h28.57.258,Boat,2022.1.1,60.14592602957879,
neutral,positive,2,k,k,,,,,,,,,1,6,24,13,,,,,,,,,,,,,,,,,,,,,,,,main,1,1,2,positive,neutral,k,k,1,0.6725220000371337,209.85139660001732,210.86216780001996,210.84162110002944,None,209.85139660001732,None,209.85139660001732,None,209.85139660001732,None,211.50814713002765,None,211.50814713002765,None,211.50814713002765,None,,,,,,,,,,,120,30,Female,2022-05-06_15h28.57.258,Boat,2022.1.1,60.14592602957879,
positive,neutral,1,l,j,,,,,,,,,1,7,25,8,,,,,,,,,,,,,,,,,,,,,,,,main,1,1,1,neutral,positive,l,l,1,0.7503069999511354,211.52945269999327,212.5315847999882,212.49638760002563,None,211.52945269999327,None,211.52945269999327,None,211.52945269999327,None,213.26176693000016,None,213.26176693000016,None,213.26176693000016,None,,,,,,,,,,,120,30,Female,2022-05-06_15h28.57.258,Boat,2022.1.1,60.14592602957879,
positive,negative,2,l,j,,,,,,,,,1,8,26,14,,,,,,,,,,,,,,,,,,,,,,,,main,2,2,2,negative,positive,l,l,1,0.7265789000084624,213.27848949999316,214.2794763999991,214.26120090001496,None,213.27848949999316,None,213.27848949999316,None,213.27848949999316,None,214.992414630024,None,214.992414630024,None,214.992414630024,None,,,,,,,,,,,120,30,Female,2022-05-06_15h28.57.258,Boat,2022.1.1,60.14592602957879,
negative,neutral,1,j,l,,,,,,,,,1,9,27,3,,,,,,,,,,,,,,,,,,,,,,,,main,1,1,1,neutral,negative,j,j,1,0.9795367000042461,215.01205760001903,216.0132601999794,215.99631610000506,None,215.01205760001903,None,215.01205760001903,None,215.01205760001903,None,216.9754101299972,None,216.9754101299972,None,216.9754101299972,None,,,,,,,,,,,120,30,Female,2022-05-06_15h28.57.258,Boat,2022.1.1,60.14592602957879,
negative,negative,2,j,l,,,,,,,,,1,10,28,9,,,,,,,,,,,,,,,,,,,,,,,,main,2,2,2,negative,negative,j,j,1,0.9090029999497347,216.9959134000237,218.0132018000004,217.9746874999837,None,216.9959134000237,None,216.9959134000237,None,216.9959134000237,None,218.8866377300059,None,218.8866377300059,None,218.8866377300059,None,,,,,,,,,,,120,30,Female,2022-05-06_15h28.57.258,Boat,2022.1.1,60.14592602957879,
neutral,negative,2,k,k,,,,,,,,,1,11,29,16,,,,,,,,,,,,,,,,,,,,,,,,main,2,2,2,negative,neutral,k,k,1,0.8414552999893203,218.90678130002925,219.92139420000603,219.87992500001565,None,218.90678130002925,None,218.90678130002925,None,218.90678130002925,None,220.73003673001077,None,220.73003673001077,None,220.73003673001077,None,,,,,,,,,,,120,30,Female,2022-05-06_15h28.57.258,Boat,2022.1.1,60.14592602957879,
negative,positive,2,j,l,,,,,,,,,1,12,30,15,,,,,,,,,,,,,,,,,,,,,,,,main,2,2,2,positive,negative,j,j,1,0.9175956000108272,220.74784959998215,221.76121259998763,221.74121970002307,None,220.74784959998215,None,220.74784959998215,None,220.74784959998215,None,222.649132929981,None,222.649132929981,None,222.649132929981,None,,,,,,,,,,,120,30,Female,2022-05-06_15h28.57.258,Boat,2022.1.1,60.14592602957879,
neutral,negative,1,k,k,,,,,,,,,1,13,31,7,,,,,,,,,,,,,,,,,,,,,,,,main,1,1,1,negative,neutral,k,k,1,0.6937021999619901,222.66935669997474,223.68012219999218,223.66155630000867,None,222.66935669997474,None,222.66935669997474,None,222.66935669997474,None,224.3473310300091,None,224.3473310300091,None,224.3473310300091,None,,,,,,,,,,,120,30,Female,2022-05-06_15h28.57.258,Boat,2022.1.1,60.14592602957879,
negative,negative,1,j,l,,,,,,,,,1,14,32,0,,,,,,,,,,,,,,,,,,,,,,,,main,1,1,1,negative,negative,j,j,1,0.9169134999974631,224.36502079997445,225.41331899998477,225.39340830000583,None,224.36502079997445,None,224.36502079997445,None,224.36502079997445,None,226.26661322999863,None,226.26661322999863,None,226.26661322999863,None,,,,,,,,,,,120,30,Female,2022-05-06_15h28.57.258,Boat,2022.1.1,60.14592602957879,
neutral,neutral,1,k,k,,,,,,,,,1,15,33,1,,,,,,,,,,,,,,,,,,,,,,,,main,1,1,1,neutral,neutral,k,k,1,0.6423239000141621,226.28369870001916,227.29151569999522,227.2719148999895,None,226.28369870001916,None,226.28369870001916,None,226.28369870001916,None,227.91348332999624,None,227.91348332999624,None,227.91348332999624,None,,,,,,,,,,,120,30,Female,2022-05-06_15h28.57.258,Boat,2022.1.1,60.14592602957879,
positive,negative,1,l,j,,,,,,,,,1,16,34,5,,,,,,,,,,,,,,,,,,,,,,,,main,2,2,1,negative,positive,l,l,1,0.7090798999997787,227.93078920000698,228.9468188000028,228.91078690002905,None,227.93078920000698,None,227.93078920000698,None,227.93078920000698,None,229.62510762998718,None,229.62510762998718,None,229.62510762998718,None,,,,,,,,,,,120,30,Female,2022-05-06_15h28.57.258,Boat,2022.1.1,60.14592602957879,
positive,positive,2,l,j,,,,,,,,,1,17,35,11,,,,,,,,,,,,,,,,,,,,,,,,main,2,2,2,positive,positive,l,l,1,0.8758226000354625,229.64647470001364,230.6634597000084,230.62836670002434,None,229.64647470001364,None,229.64647470001364,None,229.64647470001364,None,231.50372392999125,None,231.50372392999125,None,231.50372392999125,None,,,,,,,,,,,120,30,Female,2022-05-06_15h28.57.258,Boat,2022.1.1,60.14592602957879,
negative,positive,2,j,l,,,,,,,,,2,0,36,15,,,,,,,,,,,,,,,,,,,,,,,,main,2,2,2,positive,negative,j,j,1,0.9683591999928467,231.52114099997561,232.5303804000141,232.49534899997525,None,231.52114099997561,None,231.52114099997561,None,231.52114099997561,None,233.4732815300289,None,233.4732815300289,None,233.4732815300289,None,,,,,,,,,,,120,30,Female,2022-05-06_15h28.57.258,Boat,2022.1.1,60.14592602957879,
positive,positive,1,l,j,,,,,,,,,2,1,37,2,,,,,,,,,,,,,,,,,,,,,,,,main,1,1,1,positive,positive,l,l,1,0.7762412000447512,233.49553950002883,234.49771399999736,234.46367030002875,None,233.49553950002883,None,233.49553950002883,None,233.49553950002883,None,235.25204013003386,None,235.25204013003386,None,235.25204013003386,None,,,,,,,,,,,120,30,Female,2022-05-06_15h28.57.258,Boat,2022.1.1,60.14592602957879,
positive,negative,2,l,j,,,,,,,,,2,2,38,14,,,,,,,,,,,,,,,,,,,,,,,,main,2,2,2,negative,positive,l,l,1,0.9882361999480054,235.26993629999924,236.28028810000978,236.24708559998544,None,235.26993629999924,None,235.26993629999924,None,235.26993629999924,None,237.24375263002585,None,237.24375263002585,None,237.24375263002585,None,,,,,,,,,,,120,30,Female,2022-05-06_15h28.57.258,Boat,2022.1.1,60.14592602957879,
negative,negative,1,j,l,,,,,,,,,2,3,39,0,,,,,,,,,,,,,,,,,,,,,,,,main,2,2,1,negative,negative,j,j,1,0.8351720999926329,237.2635014000116,238.26377730001695,238.24722040002234,None,237.2635014000116,None,237.2635014000116,None,237.2635014000116,None,239.08121913002688,None,239.08121913002688,None,239.08121913002688,None,,,,,,,,,,,120,30,Female,2022-05-06_15h28.57.258,Boat,2022.1.1,60.14592602957879,
negative,neutral,2,j,l,,,,,,,,,2,4,40,12,,,,,,,,,,,,,,,,,,,,,,,,main,1,1,2,neutral,negative,j,j,1,0.818596700031776,239.0989411000046,240.1251877999748,240.08039910002844,None,239.0989411000046,None,239.0989411000046,None,239.0989411000046,None,240.90268513002084,None,240.90268513002084,None,240.90268513002084,None,,,,,,,,,,,120,30,Female,2022-05-06_15h28.57.258,Boat,2022.1.1,60.14592602957879,
neutral,neutral,1,k,k,,,,,,,,,2,5,41,1,,,,,,,,,,,,,,,,,,,,,,,,main,1,1,1,neutral,neutral,k,k,1,0.647673900006339,240.92512780003017,241.9320154999732,241.8972346999799,None,240.92512780003017,None,240.92512780003017,None,240.92512780003017,None,242.55391973001534,None,242.55391973001534,None,242.55391973001534,None,,,,,,,,,,,120,30,Female,2022-05-06_15h28.57.258,Boat,2022.1.1,60.14592602957879,
positive,neutral,1,l,j,,,,,,,,,2,6,42,8,,,,,,,,,,,,,,,,,,,,,,,,main,2,2,1,neutral,positive,l,l,1,0.6965135000064038,242.57692149997456,243.58526989998063,243.54934369999683,None,242.57692149997456,None,242.57692149997456,None,242.57692149997456,None,244.25219402998337,None,244.25219402998337,None,244.25219402998337,None,,,,,,,,,,,120,30,Female,2022-05-06_15h28.57.258,Boat,2022.1.1,60.14592602957879,
negative,negative,2,j,l,,,,,,,,,2,7,43,9,,,,,,,,,,,,,,,,,,,,,,,,main,2,2,2,negative,negative,j,j,1,0.8996576999779791,244.2705426000175,245.28035190002993,245.24706790002529,None,244.2705426000175,None,244.2705426000175,None,244.2705426000175,None,246.15641333000386,None,246.15641333000386,None,246.15641333000386,None,,,,,,,,,,,120,30,Female,2022-05-06_15h28.57.258,Boat,2022.1.1,60.14592602957879,
positive,neutral,2,l,j,,,,,,,,,2,8,44,17,,,,,,,,,,,,,,,,,,,,,,,,main,2,2,2,neutral,positive,l,l,1,0.9067594000371173,246.17467380000744,247.17835910001304,247.1586925999727,None,246.17467380000744,None,246.17467380000744,None,246.17467380000744,None,248.06437462999602,None,248.06437462999602,None,248.06437462999602,None,,,,,,,,,,,120,30,Female,2022-05-06_15h28.57.258,Boat,2022.1.1,60.14592602957879,
negative,positive,1,j,l,,,,,,,,,2,9,45,6,,,,,,,,,,,,,,,,,,,,,,,,main,2,2,1,positive,negative,j,j,1,0.7925278000184335,248.08306179998908,249.10099710000213,249.06321480002953,None,248.08306179998908,None,248.08306179998908,None,248.08306179998908,None,249.86126412999002,None,249.86126412999002,None,249.86126412999002,None,,,,,,,,,,,120,30,Female,2022-05-06_15h28.57.258,Boat,2022.1.1,60.14592602957879,
positive,positive,2,l,j,,,,,,,,,2,10,46,11,,,,,,,,,,,,,,,,,,,,,,,,main,1,1,2,positive,positive,l,l,1,0.6263537000049837,249.88034279999556,250.8830368000199,250.86489660001826,None,249.88034279999556,None,249.88034279999556,None,249.88034279999556,None,251.49221972999513,None,251.49221972999513,None,251.49221972999513,None,,,,,,,,,,,120,30,Female,2022-05-06_15h28.57.258,Boat,2022.1.1,60.14592602957879,
positive,negative,1,l,j,,,,,,,,,2,11,47,5,,,,,,,,,,,,,,,,,,,,,,,,main,2,2,1,negative,positive,l,l,1,0.710608699999284,251.5130372000276,252.51649830001406,252.48196040000767,None,251.5130372000276,None,251.5130372000276,None,251.5130372000276,None,253.20589753002278,None,253.20589753002278,None,253.20589753002278,None,,,,,,,,,,,120,30,Female,2022-05-06_15h28.57.258,Boat,2022.1.1,60.14592602957879,
neutral,positive,2,k,k,,,,,,,,,2,12,48,13,,,,,,,,,,,,,,,,,,,,,,,,main,1,1,2,positive,neutral,k,k,1,0.7777639999985695,253.2253461999935,254.23067479999736,254.19489059998887,None,253.2253461999935,None,253.2253461999935,None,253.2253461999935,None,254.98425043002354,None,254.98425043002354,None,254.98425043002354,None,,,,,,,,,,,120,30,Female,2022-05-06_15h28.57.258,Boat,2022.1.1,60.14592602957879,
negative,neutral,1,j,l,,,,,,,,,2,13,49,3,,,,,,,,,,,,,,,,,,,,,,,,main,1,1,1,neutral,negative,j,j,1,0.6835757999797352,255.00255590002052,256.01428619999206,255.97934259998146,None,255.00255590002052,None,255.00255590002052,None,255.00255590002052,None,256.6723946299811,None,256.6723946299811,None,256.6723946299811,None,,,,,,,,,,,120,30,Female,2022-05-06_15h28.57.258,Boat,2022.1.1,60.14592602957879,
neutral,positive,1,k,k,,,,,,,,,2,14,50,4,,,,,,,,,,,,,,,,,,,,,,,,main,1,1,1,positive,neutral,k,k,1,0.7750870000454597,256.6890154000139,257.6972759999917,257.6625633999938,None,256.6890154000139,None,256.6890154000139,None,256.6890154000139,None,258.44773732999454,None,258.44773732999454,None,258.44773732999454,None,,,,,,,,,,,120,30,Female,2022-05-06_15h28.57.258,Boat,2022.1.1,60.14592602957879,
neutral,negative,1,k,k,,,,,,,,,2,15,51,7,,,,,,,,,,,,,,,,,,,,,,,,main,1,1,1,negative,neutral,k,k,1,0.6147922000382096,258.4698522000108,259.4809379000217,259.44746830000076,None,258.4698522000108,None,258.4698522000108,None,258.4698522000108,None,260.0661308299808,None,260.0661308299808,None,260.0661308299808,None,,,,,,,,,,,120,30,Female,2022-05-06_15h28.57.258,Boat,2022.1.1,60.14592602957879,
neutral,negative,2,k,k,,,,,,,,,2,16,52,16,,,,,,,,,,,,,,,,,,,,,,,,main,2,2,2,negative,neutral,k,k,1,0.600841700041201,260.0836167000234,261.0994494999759,261.0590899999952,None,260.0836167000234,None,260.0836167000234,None,260.0836167000234,None,261.66961863003087,None,261.66961863003087,None,261.66961863003087,None,,,,,,,,,,,120,30,Female,2022-05-06_15h28.57.258,Boat,2022.1.1,60.14592602957879,
neutral,neutral,2,k,k,,,,,,,,,2,17,53,10,,,,,,,,,,,,,,,,,,,,,,,,main,2,2,2,neutral,neutral,k,k,1,0.7092392999911681,261.686881600006,262.7021727000247,262.6650761999772,None,261.686881600006,None,261.686881600006,None,261.686881600006,None,263.38118103001614,None,263.38118103001614,None,263.38118103001614,None,,,,,,,,,,,120,30,Female,2022-05-06_15h28.57.258,Boat,2022.1.1,60.14592602957879,
neutral,negative,1,k,k,,,,,,,,,3,0,54,7,,,,,,,,,,,,,,,,,,,,,,,,main,1,1,1,negative,neutral,k,k,1,0.5935002000187524,263.3996483000228,264.41793190001044,264.3811258000205,None,263.3996483000228,None,263.3996483000228,None,263.3996483000228,None,264.9790275300096,None,264.9790275300096,None,264.9790275300096,None,,,,,,,,,,,120,30,Female,2022-05-06_15h28.57.258,Boat,2022.1.1,60.14592602957879,
negative,neutral,2,j,l,,,,,,,,,3,1,55,12,,,,,,,,,,,,,,,,,,,,,,,,main,2,2,2,neutral,negative,j,j,1,0.9770895999972709,264.99873829999706,266.0146057999809,265.9808692000224,None,264.99873829999706,None,264.99873829999706,None,264.99873829999706,None,266.96132702998,None,266.96132702998,None,266.96132702998,None,,,,,,,,,,,120,30,Female,2022-05-06_15h28.57.258,Boat,2022.1.1,60.14592602957879,
negative,positive,1,j,l,,,,,,,,,3,2,56,6,,,,,,,,,,,,,,,,,,,,,,,,main,1,1,1,positive,negative,j,j,1,0.6234344999538735,266.97979080001824,267.9820660999976,267.9647925000172,None,266.97979080001824,None,266.97979080001824,None,266.97979080001824,None,268.587558029982,None,268.587558029982,None,268.587558029982,None,,,,,,,,,,,120,30,Female,2022-05-06_15h28.57.258,Boat,2022.1.1,60.14592602957879,
negative,neutral,1,j,l,,,,,,,,,3,3,57,3,,,,,,,,,,,,,,,,,,,,,,,,main,1,1,1,neutral,negative,j,j,1,0.7801776999840513,268.6054736999795,269.6173181000049,269.58267919998616,None,268.6054736999795,None,268.6054736999795,None,268.6054736999795,None,270.36919052998417,None,270.36919052998417,None,270.36919052998417,None,,,,,,,,,,,120,30,Female,2022-05-06_15h28.57.258,Boat,2022.1.1,60.14592602957879,
neutral,positive,1,k,k,,,,,,,,,3,4,58,4,,,,,,,,,,,,,,,,,,,,,,,,main,2,2,1,positive,neutral,k,k,1,0.588374599989038,270.38710669998545,271.39968500001123,271.36446499999147,None,270.38710669998545,None,270.38710669998545,None,270.38710669998545,None,271.96079883003256,None,271.96079883003256,None,271.96079883003256,None,,,,,,,,,,,120,30,Female,2022-05-06_15h28.57.258,Boat,2022.1.1,60.14592602957879,
neutral,neutral,2,k,k,,,,,,,,,3,5,59,10,,,,,,,,,,,,,,,,,,,,,,,,main,1,1,2,neutral,neutral,k,k,1,0.5657032000017352,271.97997009998653,272.9810392999789,272.9624496999895,None,271.97997009998653,None,271.97997009998653,None,271.97997009998653,None,273.53040033003197,None,273.53040033003197,None,273.53040033003197,None,,,,,,,,,,,120,30,Female,2022-05-06_15h28.57.258,Boat,2022.1.1,60.14592602957879,
positive,neutral,2,l,j,,,,,,,,,3,6,60,17,,,,,,,,,,,,,,,,,,,,,,,,main,2,2,2,neutral,positive,l,l,1,0.9818683000048622,273.5487404000014,274.5485942999949,274.5312626999803,None,273.5487404000014,None,273.5487404000014,None,273.5487404000014,None,275.5144808300014,None,275.5144808300014,None,275.5144808300014,None,,,,,,,,,,,120,30,Female,2022-05-06_15h28.57.258,Boat,2022.1.1,60.14592602957879,
positive,negative,1,l,j,,,,,,,,,3,7,61,5,,,,,,,,,,,,,,,,,,,,,,,,main,2,2,1,negative,positive,l,l,1,0.6869828999624588,275.5323626999743,276.53830150002614,276.5197869000258,None,275.5323626999743,None,275.5323626999743,None,275.5323626999743,None,277.2051354299823,None,277.2051354299823,None,277.2051354299823,None,,,,,,,,,,,120,30,Female,2022-05-06_15h28.57.258,Boat,2022.1.1,60.14592602957879,
negative,negative,2,j,l,,,,,,,,,3,8,62,9,,,,,,,,,,,,,,,,,,,,,,,,main,2,2,2,negative,negative,j,j,1,0.8353367000236176,277.2228064999799,278.23972579999827,278.197830500023,None,277.2228064999799,None,277.2228064999799,None,277.2228064999799,None,279.04364872997974,None,279.04364872997974,None,279.04364872997974,None,,,,,,,,,,,120,30,Female,2022-05-06_15h28.57.258,Boat,2022.1.1,60.14592602957879,
positive,neutral,1,l,j,,,,,,,,,3,9,63,8,,,,,,,,,,,,,,,,,,,,,,,,main,2,2,1,neutral,positive,l,l,1,0.7898682999657467,279.063370399992,280.0728018999798,280.04793880000943,None,279.063370399992,None,279.063370399992,None,279.063370399992,None,280.83643303003043,None,280.83643303003043,None,280.83643303003043,None,,,,,,,,,,,120,30,Female,2022-05-06_15h28.57.258,Boat,2022.1.1,60.14592602957879,
positive,negative,2,l,j,,,,,,,,,3,10,64,14,,,,,,,,,,,,,,,,,,,,,,,,main,1,1,2,negative,positive,l,l,1,0.6664715000079013,280.85344310000073,281.86658169998555,281.8317862999975,None,280.85344310000073,None,280.85344310000073,None,280.85344310000073,None,282.50718923000966,None,282.50718923000966,None,282.50718923000966,None,,,,,,,,,,,120,30,Female,2022-05-06_15h28.57.258,Boat,2022.1.1,60.14592602957879,
negative,positive,2,j,l,,,,,,,,,3,11,65,15,,,,,,,,,,,,,,,,,,,,,,,,main,2,2,2,positive,negative,j,j,1,0.9196254999842495,282.5253960000118,283.53452330001164,283.49829750001663,None,282.5253960000118,None,282.5253960000118,None,282.5253960000118,None,284.4300777299853,None,284.4300777299853,None,284.4300777299853,None,,,,,,,,,,,120,30,Female,2022-05-06_15h28.57.258,Boat,2022.1.1,60.14592602957879,
neutral,positive,2,k,k,,,,,,,,,3,12,66,13,,,,,,,,,,,,,,,,,,,,,,,,main,2,2,2,positive,neutral,k,k,1,0.6911783999530599,284.4488848000183,285.44835650001187,285.4313228999963,None,284.4488848000183,None,284.4488848000183,None,284.4488848000183,None,286.12534153002196,None,286.12534153002196,None,286.12534153002196,None,,,,,,,,,,,120,30,Female,2022-05-06_15h28.57.258,Boat,2022.1.1,60.14592602957879,
positive,positive,1,l,j,,,,,,,,,3,13,67,2,,,,,,,,,,,,,,,,,,,,,,,,main,2,2,1,positive,positive,l,l,1,0.6605685999966227,286.1460444999975,287.1522873999784,287.11494270002004,None,286.1460444999975,None,286.1460444999975,None,286.1460444999975,None,287.7879584300157,None,287.7879584300157,None,287.7879584300157,None,,,,,,,,,,,120,30,Female,2022-05-06_15h28.57.258,Boat,2022.1.1,60.14592602957879,
positive,positive,2,l,j,,,,,,,,,3,14,68,11,,,,,,,,,,,,,,,,,,,,,,,,main,1,1,2,positive,positive,l,l,1,0.7960892000119202,287.8077986999997,288.82032820000313,288.78445079998346,None,287.8077986999997,None,287.8077986999997,None,287.8077986999997,None,289.5855320299801,None,289.5855320299801,None,289.5855320299801,None,,,,,,,,,,,120,30,Female,2022-05-06_15h28.57.258,Boat,2022.1.1,60.14592602957879,
neutral,negative,2,k,k,,,,,,,,,3,15,69,16,,,,,,,,,,,,,,,,,,,,,,,,main,1,1,2,negative,neutral,k,k,1,0.8406877999659628,289.603970199998,290.6095108999871,290.58954509999603,None,289.603970199998,None,289.603970199998,None,289.603970199998,None,291.43027193000887,None,291.43027193000887,None,291.43027193000887,None,,,,,,,,,,,120,30,Female,2022-05-06_15h28.57.258,Boat,2022.1.1,60.14592602957879,
neutral,neutral,1,k,k,,,,,,,,,3,16,70,1,,,,,,,,,,,,,,,,,,,,,,,,main,1,1,1,neutral,neutral,k,k,1,0.6713003999902867,291.4476977000013,292.4764181000064,292.42945870000403,None,291.4476977000013,None,291.4476977000013,None,291.4476977000013,None,293.1051550299802,None,293.1051550299802,None,293.1051550299802,None,,,,,,,,,,,120,30,Female,2022-05-06_15h28.57.258,Boat,2022.1.1,60.14592602957879,
negative,negative,1,j,l,,,,,,,,,3,17,71,0,,,,,,,,,,,,,,,,,,,,,,,,main,1,1,1,negative,negative,j,j,1,0.8935405000229366,293.1276382000069,294.13155190000543,294.1130116999848,None,293.1276382000069,None,293.1276382000069,None,293.1276382000069,None,294.9996545300295,None,294.9996545300295,None,294.9996545300295,None,,,,,,,,,,,120,30,Female,2022-05-06_15h28.57.258,Boat,2022.1.1,60.14592602957879,
positive,positive,2,l,j,,,,,,,,,4,0,72,11,,,,,,,,,,,,,,,,,,,,,,,,main,1,1,2,positive,positive,l,l,1,0.7233029999770224,295.01910059998045,296.03214770002523,295.9957112999982,None,295.01910059998045,None,295.01910059998045,None,295.01910059998045,None,296.7272622300137,None,296.7272622300137,None,296.7272622300137,None,,,,,,,,,,,120,30,Female,2022-05-06_15h28.57.258,Boat,2022.1.1,60.14592602957879,
positive,neutral,1,l,j,,,,,,,,,4,1,73,8,,,,,,,,,,,,,,,,,,,,,,,,main,1,1,1,neutral,positive,l,l,1,0.7402919000014663,296.7471949000028,297.75101980002364,297.73168199998327,None,296.7471949000028,None,296.7471949000028,None,296.7471949000028,None,298.46867113002224,None,298.46867113002224,None,298.46867113002224,None,,,,,,,,,,,120,30,Female,2022-05-06_15h28.57.258,Boat,2022.1.1,60.14592602957879,
positive,positive,1,l,j,,,,,,,,,4,2,74,2,,,,,,,,,,,,,,,,,,,,,,,,main,2,2,1,positive,positive,l,l,1,0.7159472999628633,298.48696090001613,299.5097856000066,299.46511370001826,None,298.48696090001613,None,298.48696090001613,None,298.48696090001613,None,300.18837583001584,None,300.18837583001584,None,300.18837583001584,None,,,,,,,,,,,120,30,Female,2022-05-06_15h28.57.258,Boat,2022.1.1,60.14592602957879,
neutral,positive,1,k,k,,,,,,,,,4,3,75,4,,,,,,,,,,,,,,,,,,,,,,,,main,2,2,1,positive,neutral,k,k,1,0.7142110000131652,300.208592400013,301.21589350001886,301.18198639998445,None,300.208592400013,None,300.208592400013,None,300.208592400013,None,301.9035971299803,None,301.9035971299803,None,301.9035971299803,None,,,,,,,,,,,120,30,Female,2022-05-06_15h28.57.258,Boat,2022.1.1,60.14592602957879,
positive,negative,1,l,j,,,,,,,,,4,4,76,5,,,,,,,,,,,,,,,,,,,,,,,,main,1,1,1,negative,positive,l,l,1,0.6989171999739483,301.92120059998706,302.93155380000826,302.89746790000936,None,301.92120059998706,None,301.92120059998706,None,301.92120059998706,None,303.6063980300154,None,303.6063980300154,None,303.6063980300154,None,,,,,,,,,,,120,30,Female,2022-05-06_15h28.57.258,Boat,2022.1.1,60.14592602957879,
neutral,neutral,1,k,k,,,,,,,,,4,5,77,1,,,,,,,,,,,,,,,,,,,,,,,,main,2,2,1,neutral,neutral,k,k,1,0.6876794999698177,303.6277544000186,304.6317927999771,304.59815470001195,None,303.6277544000186,None,303.6277544000186,None,303.6277544000186,None,305.29719792999674,None,305.29719792999674,None,305.29719792999674,None,,,,,,,,,,,120,30,Female,2022-05-06_15h28.57.258,Boat,2022.1.1,60.14592602957879,
neutral,negative,1,k,k,,,,,,,,,4,6,78,7,,,,,,,,,,,,,,,,,,,,,,,,main,2,2,1,negative,neutral,k,k,1,0.5997726000496186,305.31518849998247,306.34322159999283,306.2962923999876,None,305.31518849998247,None,305.31518849998247,None,305.31518849998247,None,306.89988302998825,None,306.89988302998825,None,306.89988302998825,None,,,,,,,,,,,120,30,Female,2022-05-06_15h28.57.258,Boat,2022.1.1,60.14592602957879,
neutral,neutral,2,k,k,,,,,,,,,4,7,79,10,,,,,,,,,,,,,,,,,,,,,,,,main,2,2,2,neutral,neutral,k,k,1,0.6563795999973081,306.9158161000232,307.91537619999144,307.8986341999844,None,306.9158161000232,None,306.9158161000232,None,306.9158161000232,None,308.5591946300177,None,308.5591946300177,None,308.5591946300177,None,,,,,,,,,,,120,30,Female,2022-05-06_15h28.57.258,Boat,2022.1.1,60.14592602957879,
positive,negative,2,l,j,,,,,,,,,4,8,80,14,,,,,,,,,,,,,,,,,,,,,,,,main,2,2,2,negative,positive,l,l,1,0.7382350999978371,308.5801214000094,309.5994252000237,309.56197310000425,None,308.5801214000094,None,308.5801214000094,None,308.5801214000094,None,310.2991943300061,None,310.2991943300061,None,310.2991943300061,None,,,,,,,,,,,120,30,Female,2022-05-06_15h28.57.258,Boat,2022.1.1,60.14592602957879,
neutral,negative,2,k,k,,,,,,,,,4,9,81,16,,,,,,,,,,,,,,,,,,,,,,,,main,2,2,2,negative,neutral,k,k,1,0.6342551999841817,310.3175182000268,311.33225849998416,311.29845230001956,None,310.3175182000268,None,310.3175182000268,None,310.3175182000268,None,311.93640072999403,None,311.93640072999403,None,311.93640072999403,None,,,,,,,,,,,120,30,Female,2022-05-06_15h28.57.258,Boat,2022.1.1,60.14592602957879,
negative,positive,2,j,l,,,,,,,,,4,10,82,15,,,,,,,,,,,,,,,,,,,,,,,,main,2,2,2,positive,negative,j,j,1,0.9409659000230022,311.9532913999865,312.96650899999077,312.93232429999625,None,311.9532913999865,None,311.9532913999865,None,311.9532913999865,None,313.88098722999564,None,313.88098722999564,None,313.88098722999564,None,,,,,,,,,,,120,30,Female,2022-05-06_15h28.57.258,Boat,2022.1.1,60.14592602957879,
negative,positive,1,j,l,,,,,,,,,4,11,83,6,,,,,,,,,,,,,,,,,,,,,,,,main,2,2,1,positive,negative,j,j,1,0.8536291999625973,313.89863820001483,314.9154217999894,314.89376419998007,None,313.89863820001483,None,313.89863820001483,None,313.89863820001483,None,315.7372778300254,None,315.7372778300254,None,315.7372778300254,None,,,,,,,,,,,120,30,Female,2022-05-06_15h28.57.258,Boat,2022.1.1,60.14592602957879,
positive,neutral,2,l,j,,,,,,,,,4,12,84,17,,,,,,,,,,,,,,,,,,,,,,,,main,1,1,2,neutral,positive,l,l,1,0.7972111999988556,315.75471309997374,316.7654886000091,316.731971399975,None,315.75471309997374,None,315.75471309997374,None,315.75471309997374,None,317.5363154300197,None,317.5363154300197,None,317.5363154300197,None,,,,,,,,,,,120,30,Female,2022-05-06_15h28.57.258,Boat,2022.1.1,60.14592602957879,
negative,neutral,2,j,l,,,,,,,,,4,13,85,12,,,,,,,,,,,,,,,,,,,,,,,,main,2,2,2,neutral,negative,j,j,1,0.912609799997881,317.5541634000256,318.567756799981,318.532393499976,None,317.5541634000256,None,317.5541634000256,None,317.5541634000256,None,319.4521885300113,None,319.4521885300113,None,319.4521885300113,None,,,,,,,,,,,120,30,Female,2022-05-06_15h28.57.258,Boat,2022.1.1,60.14592602957879,
negative,neutral,1,j,l,,,,,,,,,4,14,86,3,,,,,,,,,,,,,,,,,,,,,,,,main,2,2,1,neutral,negative,j,j,1,0.8413850999786519,319.4681305999984,320.48199900001055,320.4470464999904,None,319.4681305999984,None,319.4681305999984,None,319.4681305999984,None,321.2972083300177,None,321.2972083300177,None,321.2972083300177,None,,,,,,,,,,,120,30,Female,2022-05-06_15h28.57.258,Boat,2022.1.1,60.14592602957879,
negative,negative,2,j,l,,,,,,,,,4,15,87,9,,,,,,,,,,,,,,,,,,,,,,,,main,2,2,2,negative,negative,j,j,1,0.7801855999859981,321.3144763999735,322.3156858999864,322.29868980002357,None,321.3144763999735,None,321.3144763999735,None,321.3144763999735,None,323.0810531299852,None,323.0810531299852,None,323.0810531299852,None,,,,,,,,,,,120,30,Female,2022-05-06_15h28.57.258,Boat,2022.1.1,60.14592602957879,
negative,negative,1,j,l,,,,,,,,,4,16,88,0,,,,,,,,,,,,,,,,,,,,,,,,main,2,2,1,negative,negative,j,j,1,0.653930299973581,323.0989917999832,324.11264310003025,324.09342440002365,None,323.0989917999832,None,323.0989917999832,None,323.0989917999832,None,324.73578613001735,None,324.73578613001735,None,324.73578613001735,None,,,,,,,,,,,120,30,Female,2022-05-06_15h28.57.258,Boat,2022.1.1,60.14592602957879,
neutral,positive,2,k,k,,,,,,,,,4,17,89,13,,,,,,,,,,,,,,,,,,,,,,,,main,1,1,2,positive,neutral,k,k,1,0.7101624000351876,324.7547679999843,325.76962239999557,325.7339286999777,None,324.7547679999843,None,324.7547679999843,None,324.7547679999843,None,326.4493692300224,None,326.4493692300224,None,326.4493692300224,None,,,,,,,,,,,120,30,Female,2022-05-06_15h28.57.258,Boat,2022.1.1,60.14592602957879,
positive,positive,1,l,j,,,,,,,,,5,0,90,2,,,,,,,,,,,,,,,,,,,,,,,,main,2,2,1,positive,positive,l,l,1,0.8336894999956712,326.467708399985,327.481005300011,327.4604118000134,None,326.467708399985,None,326.467708399985,None,326.467708399985,None,328.2863665300014,None,328.2863665300014,None,328.2863665300014,None,,,,,,,,,,,120,30,Female,2022-05-06_15h28.57.258,Boat,2022.1.1,60.14592602957879,
positive,neutral,2,l,j,,,,,,,,,5,1,91,17,,,,,,,,,,,,,,,,,,,,,,,,main,2,2,2,neutral,positive,l,l,1,0.7470752999652177,328.3039848000044,329.31863970000995,329.2811607000185,None,328.3039848000044,None,328.3039848000044,None,328.3039848000044,None,330.0360009300115,None,330.0360009300115,None,330.0360009300115,None,,,,,,,,,,,120,30,Female,2022-05-06_15h28.57.258,Boat,2022.1.1,60.14592602957879,
positive,negative,1,l,j,,,,,,,,,5,2,92,5,,,,,,,,,,,,,,,,,,,,,,,,main,2,2,1,negative,positive,l,l,1,0.672951600048691,330.05375279998407,331.0669776999857,331.03237039997475,None,330.05375279998407,None,330.05375279998407,None,330.05375279998407,None,331.7128305300197,None,331.7128305300197,None,331.7128305300197,None,,,,,,,,,,,120,30,Female,2022-05-06_15h28.57.258,Boat,2022.1.1,60.14592602957879,
negative,positive,1,j,l,,,,,,,,,5,3,93,6,,,,,,,,,,,,,,,,,,,,,,,,main,2,2,1,positive,negative,j,j,1,0.8411316000274383,331.7310827000183,332.73260909999954,332.71594299998833,None,331.7310827000183,None,331.7310827000183,None,331.7310827000183,None,333.5551088299893,None,333.5551088299893,None,333.5551088299893,None,,,,,,,,,,,120,30,Female,2022-05-06_15h28.57.258,Boat,2022.1.1,60.14592602957879,
neutral,neutral,1,k,k,,,,,,,,,5,4,94,1,,,,,,,,,,,,,,,,,,,,,,,,main,2,2,1,neutral,neutral,k,k,1,0.6956080999807455,333.57830519997515,334.60746209998615,334.56052940001246,None,333.57830519997515,None,333.57830519997515,None,333.57830519997515,None,335.254049430025,None,335.254049430025,None,335.254049430025,None,,,,,,,,,,,120,30,Female,2022-05-06_15h28.57.258,Boat,2022.1.1,60.14592602957879,
negative,positive,2,j,l,,,,,,,,,5,5,95,15,,,,,,,,,,,,,,,,,,,,,,,,main,1,1,2,positive,negative,j,j,1,0.8901043999940157,335.2726191999973,336.2871210000012,336.25066449999576,None,335.2726191999973,None,335.2726191999973,None,335.2726191999973,None,337.14736742998355,None,337.14736742998355,None,337.14736742998355,None,,,,,,,,,,,120,30,Female,2022-05-06_15h28.57.258,Boat,2022.1.1,60.14592602957879,
positive,negative,2,l,j,,,,,,,,,5,6,96,14,,,,,,,,,,,,,,,,,,,,,,,,main,1,1,2,negative,positive,l,l,1,0.9266210000496358,337.1652539999923,338.1657565999776,338.149006200023,None,337.1652539999923,None,337.1652539999923,None,337.1652539999923,None,339.0776809299772,None,339.0776809299772,None,339.0776809299772,None,,,,,,,,,,,120,30,Female,2022-05-06_15h28.57.258,Boat,2022.1.1,60.14592602957879,
negative,negative,1,j,l,,,,,,,,,5,7,97,0,,,,,,,,,,,,,,,,,,,,,,,,main,1,1,1,negative,negative,j,j,1,0.8802893999963999,339.0981661999831,340.1105918000103,340.0905130999745,None,339.0981661999831,None,339.0981661999831,None,339.0981661999831,None,340.9615107299818,None,340.9615107299818,None,340.9615107299818,None,,,,,,,,,,,120,30,Female,2022-05-06_15h28.57.258,Boat,2022.1.1,60.14592602957879,
neutral,neutral,2,k,k,,,,,,,,,5,8,98,10,,,,,,,,,,,,,,,,,,,,,,,,main,1,1,2,neutral,neutral,k,k,1,0.7124838000163436,340.9823838000302,341.9993554999819,341.9607966999756,None,340.9823838000302,None,340.9823838000302,None,340.9823838000302,None,342.6753169299976,None,342.6753169299976,None,342.6753169299976,None,,,,,,,,,,,120,30,Female,2022-05-06_15h28.57.258,Boat,2022.1.1,60.14592602957879,
negative,neutral,1,j,l,,,,,,,,,5,9,99,3,,,,,,,,,,,,,,,,,,,,,,,,main,1,1,1,neutral,negative,j,j,1,0.9091932000010274,342.69447849999415,343.7037120999885,343.66751380002825,None,342.69447849999415,None,342.69447849999415,None,342.69447849999415,None,344.58768212999564,None,344.58768212999564,None,344.58768212999564,None,,,,,,,,,,,120,30,Female,2022-05-06_15h28.57.258,Boat,2022.1.1,60.14592602957879,
negative,neutral,2,j,l,,,,,,,,,5,10,100,12,,,,,,,,,,,,,,,,,,,,,,,,main,2,2,2,neutral,negative,j,j,1,0.7904622000060044,344.6039139999775,345.62746089999564,345.5827768999734,None,344.6039139999775,None,344.6039139999775,None,344.6039139999775,None,346.38183633000006,None,346.38183633000006,None,346.38183633000006,None,,,,,,,,,,,120,30,Female,2022-05-06_15h28.57.258,Boat,2022.1.1,60.14592602957879,
negative,negative,2,j,l,,,,,,,,,5,11,101,9,,,,,,,,,,,,,,,,,,,,,,,,main,1,1,2,negative,negative,j,j,1,0.7769701000070199,346.40018380002584,347.4143872000277,347.3941061000223,None,346.40018380002584,None,346.40018380002584,None,346.40018380002584,None,348.16389793000997,None,348.16389793000997,None,348.16389793000997,None,,,,,,,,,,,120,30,Female,2022-05-06_15h28.57.258,Boat,2022.1.1,60.14592602957879,
neutral,negative,1,k,k,,,,,,,,,5,12,102,7,,,,,,,,,,,,,,,,,,,,,,,,main,1,1,1,negative,neutral,k,k,1,0.6653254000120796,348.1816509999917,349.1911625000066,349.16407190001337,None,348.1816509999917,None,348.1816509999917,None,348.1816509999917,None,349.83197232999953,None,349.83197232999953,None,349.83197232999953,None,,,,,,,,,,,120,30,Female,2022-05-06_15h28.57.258,Boat,2022.1.1,60.14592602957879,
neutral,positive,1,k,k,,,,,,,,,5,13,103,4,,,,,,,,,,,,,,,,,,,,,,,,main,2,2,1,positive,neutral,k,k,1,0.6944617999834009,349.8515833999845,350.8745870999992,350.8332510999753,None,349.8515833999845,None,349.8515833999845,None,349.8515833999845,None,351.5316604300227,None,351.5316604300227,None,351.5316604300227,None,,,,,,,,,,,120,30,Female,2022-05-06_15h28.57.258,Boat,2022.1.1,60.14592602957879,
neutral,positive,2,k,k,,,,,,,,,5,14,104,13,,,,,,,,,,,,,,,,,,,,,,,,main,1,1,2,positive,neutral,k,k,1,0.5358300000079907,351.5502908999915,352.56678360002115,352.5306418000255,None,351.5502908999915,None,351.5502908999915,None,351.5502908999915,None,353.06989132997694,None,353.06989132997694,None,353.06989132997694,None,,,,,,,,,,,120,30,Female,2022-05-06_15h28.57.258,Boat,2022.1.1,60.14592602957879,
positive,positive,2,l,j,,,,,,,,,5,15,105,11,,,,,,,,,,,,,,,,,,,,,,,,main,2,2,2,positive,positive,l,l,1,0.8032887000008486,353.0868329000077,354.09973499999614,354.0614427999826,None,353.0868329000077,None,353.0868329000077,None,353.0868329000077,None,354.87643333001176,None,354.87643333001176,None,354.87643333001176,None,,,,,,,,,,,120,30,Female,2022-05-06_15h28.57.258,Boat,2022.1.1,60.14592602957879,
positive,neutral,1,l,j,,,,,,,,,5,16,106,8,,,,,,,,,,,,,,,,,,,,,,,,main,2,2,1,neutral,positive,l,l,1,0.7295325999730267,354.8985437999945,355.91623229999095,355.8777038999833,None,354.8985437999945,None,354.8985437999945,None,354.8985437999945,None,356.60918903002164,None,356.60918903002164,None,356.60918903002164,None,,,,,,,,,,,120,30,Female,2022-05-06_15h28.57.258,Boat,2022.1.1,60.14592602957879,
neutral,negative,2,k,k,,,,,,,,,5,17,107,16,,,,,,,,,,,,,,,,,,,,,,,,main,2,2,2,negative,neutral,k,k,1,0.6250035999692045,356.62651289999485,357.6380510000163,357.6001327999984,None,356.62651289999485,None,356.62651289999485,None,356.62651289999485,None,358.2354814300255,None,358.2354814300255,None,358.2354814300255,None,,,,,,,,,,,120,30,Female,2022-05-06_15h28.57.258,Boat,2022.1.1,60.14592602957879,
negative,negative,2,j,l,,,,,,,,,6,0,108,9,,,,,,,,,,,,,,,,,,,,,,,,main,2,2,2,negative,negative,j,j,1,1.0074903999920934,358.25298920000205,359.266549699998,359.2331999000162,None,358.25298920000205,None,358.25298920000205,None,358.25298920000205,None,360.2472858299792,None,360.2472858299792,None,360.2472858299792,None,,,,,,,,,,,120,30,Female,2022-05-06_15h28.57.258,Boat,2022.1.1,60.14592602957879,
positive,negative,1,l,j,,,,,,,,,6,1,109,5,,,,,,,,,,,,,,,,,,,,,,,,main,1,1,1,negative,positive,l,l,1,0.6859963000169955,360.2652543000295,361.266391400015,361.2484957000124,None,360.2652543000295,None,360.2652543000295,None,360.2652543000295,None,361.9333918300166,None,361.9333918300166,None,361.9333918300166,None,,,,,,,,,,,120,30,Female,2022-05-06_15h28.57.258,Boat,2022.1.1,60.14592602957879,
negative,positive,1,j,l,,,,,,,,,6,2,110,6,,,,,,,,,,,,,,,,,,,,,,,,main,1,1,1,positive,negative,j,j,1,0.8893734000157565,361.95230699999956,362.9778671999811,362.93115640000906,None,361.95230699999956,None,361.95230699999956,None,361.95230699999956,None,363.82757033000814,None,363.82757033000814,None,363.82757033000814,None,,,,,,,,,,,120,30,Female,2022-05-06_15h28.57.258,Boat,2022.1.1,60.14592602957879,
positive,neutral,2,l,j,,,,,,,,,6,3,111,17,,,,,,,,,,,,,,,,,,,,,,,,main,1,1,2,neutral,positive,l,l,1,0.6446965000359342,363.8478583000251,364.8495615000138,364.83303470001556,None,363.8478583000251,None,363.8478583000251,None,363.8478583000251,None,365.47526553000205,None,365.47526553000205,None,365.47526553000205,None,,,,,,,,,,,120,30,Female,2022-05-06_15h28.57.258,Boat,2022.1.1,60.14592602957879,
neutral,negative,1,k,k,,,,,,,,,6,4,112,7,,,,,,,,,,,,,,,,,,,,,,,,main,1,1,1,negative,neutral,k,k,1,0.6712848999886774,365.4946589000174,366.5010842999909,366.4660923000192,None,365.4946589000174,None,365.4946589000174,None,365.4946589000174,None,367.148464830016,None,367.148464830016,None,367.148464830016,None,,,,,,,,,,,120,30,Female,2022-05-06_15h28.57.258,Boat,2022.1.1,60.14592602957879,
neutral,neutral,1,k,k,,,,,,,,,6,5,113,1,,,,,,,,,,,,,,,,,,,,,,,,main,2,2,1,neutral,neutral,k,k,1,0.6309581000241451,367.16636400000425,368.1813590999809,368.1613415000029,None,367.16636400000425,None,367.16636400000425,None,367.16636400000425,None,368.7829135300184,None,368.7829135300184,None,368.7829135300184,None,,,,,,,,,,,120,30,Female,2022-05-06_15h28.57.258,Boat,2022.1.1,60.14592602957879,
neutral,negative,2,k,k,,,,,,,,,6,6,114,16,,,,,,,,,,,,,,,,,,,,,,,,main,1,1,2,negative,neutral,k,k,1,0.9288967999746092,368.80162590002874,369.8279696999816,369.78318899997976,None,368.80162590002874,None,368.80162590002874,None,368.80162590002874,None,370.71576663002486,None,370.71576663002486,None,370.71576663002486,None,,,,,,,,,,,120,30,Female,2022-05-06_15h28.57.258,Boat,2022.1.1,60.14592602957879,
neutral,neutral,2,k,k,,,,,,,,,6,7,115,10,,,,,,,,,,,,,,,,,,,,,,,,main,1,1,2,neutral,neutral,k,k,1,0.5103260999894701,370.732739900006,371.7479122999939,371.72784379997756,None,370.732739900006,None,370.732739900006,None,370.732739900006,None,372.2300761300197,None,372.2300761300197,None,372.2300761300197,None,,,,,,,,,,,120,30,Female,2022-05-06_15h28.57.258,Boat,2022.1.1,60.14592602957879,
neutral,positive,1,k,k,,,,,,,,,6,8,116,4,,,,,,,,,,,,,,,,,,,,,,,,main,2,2,1,positive,neutral,k,k,1,0.5577717999694869,372.248798399989,373.2499263000209,373.2332617000211,None,372.248798399989,None,372.248798399989,None,372.248798399989,None,373.78947773000107,None,373.78947773000107,None,373.78947773000107,None,,,,,,,,,,,120,30,Female,2022-05-06_15h28.57.258,Boat,2022.1.1,60.14592602957879,
positive,negative,2,l,j,,,,,,,,,6,9,117,14,,,,,,,,,,,,,,,,,,,,,,,,main,1,1,2,negative,positive,l,l,1,0.6987312000128441,373.80665189999854,374.8141360000009,374.7949971000198,None,373.80665189999854,None,373.80665189999854,None,373.80665189999854,None,375.4904358300322,None,375.4904358300322,None,375.4904358300322,None,,,,,,,,,,,120,30,Female,2022-05-06_15h28.57.258,Boat,2022.1.1,60.14592602957879,
neutral,positive,2,k,k,,,,,,,,,6,10,118,13,,,,,,,,,,,,,,,,,,,,,,,,main,1,1,2,positive,neutral,k,k,1,0.585102699988056,375.5124281999888,376.5165375000215,376.483254700026,None,375.5124281999888,None,375.5124281999888,None,375.5124281999888,None,377.0789086300123,None,377.0789086300123,None,377.0789086300123,None,,,,,,,,,,,120,30,Female,2022-05-06_15h28.57.258,Boat,2022.1.1,60.14592602957879,
negative,neutral,1,j,l,,,,,,,,,6,11,119,3,,,,,,,,,,,,,,,,,,,,,,,,main,2,2,1,neutral,negative,j,j,1,0.8140402999706566,377.0994412000291,378.1007762000081,378.0838224000181,None,377.0994412000291,None,377.0994412000291,None,377.0994412000291,None,378.8953058300016,None,378.8953058300016,None,378.8953058300016,None,,,,,,,,,,,120,30,Female,2022-05-06_15h28.57.258,Boat,2022.1.1,60.14592602957879,
negative,positive,2,j,l,,,,,,,,,6,12,120,15,,,,,,,,,,,,,,,,,,,,,,,,main,1,1,2,positive,negative,j,j,1,0.8124129000352696,378.9157750000013,379.91675239999313,379.89879050001036,None,378.9157750000013,None,378.9157750000013,None,378.9157750000013,None,380.7105391299759,None,380.7105391299759,None,380.7105391299759,None,,,,,,,,,,,120,30,Female,2022-05-06_15h28.57.258,Boat,2022.1.1,60.14592602957879,
negative,negative,1,j,l,,,,,,,,,6,13,121,0,,,,,,,,,,,,,,,,,,,,,,,,main,2,2,1,negative,negative,j,j,1,0.8024193000164814,380.7315291999839,381.73531870002626,381.70032050000736,None,380.7315291999839,None,380.7315291999839,None,380.7315291999839,None,382.51576893003073,None,382.51576893003073,None,382.51576893003073,None,,,,,,,,,,,120,30,Female,2022-05-06_15h28.57.258,Boat,2022.1.1,60.14592602957879,
negative,neutral,2,j,l,,,,,,,,,6,14,122,12,,,,,,,,,,,,,,,,,,,,,,,,main,1,1,2,neutral,negative,j,j,1,0.7363419000175782,382.53404080000473,383.533893099986,383.517020499974,None,382.53404080000473,None,382.53404080000473,None,382.53404080000473,None,384.2545521300111,None,384.2545521300111,None,384.2545521300111,None,,,,,,,,,,,120,30,Female,2022-05-06_15h28.57.258,Boat,2022.1.1,60.14592602957879,
positive,positive,2,l,j,,,,,,,,,6,15,123,11,,,,,,,,,,,,,,,,,,,,,,,,main,1,1,2,positive,positive,l,l,1,0.8429867000086233,384.2723170000245,385.28430360002676,385.2502736999886,None,384.2723170000245,None,384.2723170000245,None,384.2723170000245,None,386.10022283002615,None,386.10022283002615,None,386.10022283002615,None,,,,,,,,,,,120,30,Female,2022-05-06_15h28.57.258,Boat,2022.1.1,60.14592602957879,
positive,neutral,1,l,j,,,,,,,,,6,16,124,8,,,,,,,,,,,,,,,,,,,,,,,,main,1,1,1,neutral,positive,l,l,1,0.65839599998435,386.1182982000173,387.1322717000148,387.11162400001194,None,386.1182982000173,None,386.1182982000173,None,386.1182982000173,None,387.7624700299988,None,387.7624700299988,None,387.7624700299988,None,,,,,,,,,,,120,30,Female,2022-05-06_15h28.57.258,Boat,2022.1.1,60.14592602957879,
positive,positive,1,l,j,,,,,,,,,6,17,125,2,,,,,,,,,,,,,,,,,,,,,,,,main,2,2,1,positive,positive,l,l,1,0.612940700026229,387.78254659997765,388.8003019000171,388.7617218000232,None,387.78254659997765,None,387.78254659997765,None,387.78254659997765,None,389.37757903000454,None,389.37757903000454,None,389.37757903000454,None,,,,,,,,,,,120,30,Female,2022-05-06_15h28.57.258,Boat,2022.1.1,60.14592602957879,
negative,negative,1,j,l,,,,,,,,,7,0,126,0,,,,,,,,,,,,,,,,,,,,,,,,main,2,2,1,negative,negative,j,j,1,0.8011035999516025,389.3990967000136,390.40068860002793,390.3835266000242,None,389.3990967000136,None,389.3990967000136,None,389.3990967000136,None,391.18258243002344,None,391.18258243002344,None,391.18258243002344,None,,,,,,,,,,,120,30,Female,2022-05-06_15h28.57.258,Boat,2022.1.1,60.14592602957879,
positive,positive,1,l,j,,,,,,,,,7,1,127,2,,,,,,,,,,,,,,,,,,,,,,,,main,2,2,1,positive,positive,l,l,1,0.7046935999533162,391.1992249999894,392.2004205000121,392.18199030001415,None,391.1992249999894,None,391.1992249999894,None,391.1992249999894,None,392.8874511300295,None,392.8874511300295,None,392.8874511300295,None,,,,,,,,,,,120,30,Female,2022-05-06_15h28.57.258,Boat,2022.1.1,60.14592602957879,
neutral,negative,1,k,k,,,,,,,,,7,2,128,7,,,,,,,,,,,,,,,,,,,,,,,,main,2,2,1,negative,neutral,k,k,1,0.6671511000022292,392.9071998000145,393.9173292000196,393.8987007000251,None,392.9071998000145,None,392.9071998000145,None,392.9071998000145,None,394.5600481299974,None,394.5600481299974,None,394.5600481299974,None,,,,,,,,,,,120,30,Female,2022-05-06_15h28.57.258,Boat,2022.1.1,60.14592602957879,
negative,positive,1,j,l,,,,,,,,,7,3,129,6,,,,,,,,,,,,,,,,,,,,,,,,main,2,2,1,positive,negative,j,j,1,0.9105554999550804,394.5819370999816,395.5837964999955,395.56701150001027,None,394.5819370999816,None,394.5819370999816,None,394.5819370999816,None,396.47106143000417,None,396.47106143000417,None,396.47106143000417,None,,,,,,,,,,,120,30,Female,2022-05-06_15h28.57.258,Boat,2022.1.1,60.14592602957879,
neutral,positive,1,k,k,,,,,,,,,7,4,130,4,,,,,,,,,,,,,,,,,,,,,,,,main,2,2,1,positive,neutral,k,k,1,0.6710299999685958,396.4902077000006,397.504015500017,397.46705859998474,None,396.4902077000006,None,396.4902077000006,None,396.4902077000006,None,398.14670563000834,None,398.14670563000834,None,398.14670563000834,None,,,,,,,,,,,120,30,Female,2022-05-06_15h28.57.258,Boat,2022.1.1,60.14592602957879,
neutral,neutral,2,k,k,,,,,,,,,7,5,131,10,,,,,,,,,,,,,,,,,,,,,,,,main,1,1,2,neutral,neutral,k,k,1,0.6523948999820277,398.16611170000397,399.16714719997253,399.1505705000018,None,398.16611170000397,None,398.16611170000397,None,398.16611170000397,None,399.800653329998,None,399.800653329998,None,399.800653329998,None,,,,,,,,,,,120,30,Female,2022-05-06_15h28.57.258,Boat,2022.1.1,60.14592602957879,
negative,positive,2,j,l,,,,,,,,,7,6,132,15,,,,,,,,,,,,,,,,,,,,,,,,main,1,1,2,positive,negative,j,j,1,0.8468038000282831,399.8186436999822,400.8313354999991,400.8118414999917,None,399.8186436999822,None,399.8186436999822,None,399.8186436999822,None,401.6506577300082,None,401.6506577300082,None,401.6506577300082,None,,,,,,,,,,,120,30,Female,2022-05-06_15h28.57.258,Boat,2022.1.1,60.14592602957879,
neutral,negative,2,k,k,,,,,,,,,7,7,133,16,,,,,,,,,,,,,,,,,,,,,,,,main,2,2,2,negative,neutral,k,k,1,0.6783346000011079,401.66888840001775,402.68070229998557,402.6618128999835,None,401.66888840001775,None,401.66888840001775,None,401.66888840001775,None,403.33312492998664,None,403.33312492998664,None,403.33312492998664,None,,,,,,,,,,,120,30,Female,2022-05-06_15h28.57.258,Boat,2022.1.1,60.14592602957879,
positive,negative,2,l,j,,,,,,,,,7,8,134,14,,,,,,,,,,,,,,,,,,,,,,,,main,1,1,2,negative,positive,l,l,1,0.7368568999809213,403.3505575999734,404.3507042999845,404.3343174000038,None,403.3505575999734,None,403.3505575999734,None,403.3505575999734,None,405.0737275300256,None,405.0737275300256,None,405.0737275300256,None,,,,,,,,,,,120,30,Female,2022-05-06_15h28.57.258,Boat,2022.1.1,60.14592602957879,
positive,negative,1,l,j,,,,,,,,,7,9,135,5,,,,,,,,,,,,,,,,,,,,,,,,main,1,1,1,negative,positive,l,l,1,0.8122813999652863,405.0906151999952,406.09818109998014,406.0786790000275,None,405.0906151999952,None,405.0906151999952,None,405.0906151999952,None,406.88713322999536,None,406.88713322999536,None,406.88713322999536,None,,,,,,,,,,,120,30,Female,2022-05-06_15h28.57.258,Boat,2022.1.1,60.14592602957879,
neutral,neutral,1,k,k,,,,,,,,,7,10,136,1,,,,,,,,,,,,,,,,,,,,,,,,main,1,1,1,neutral,neutral,k,k,1,0.6386961999814957,406.90398840000853,407.91751559998374,407.8975853000302,None,406.90398840000853,None,406.90398840000853,None,406.90398840000853,None,408.5296199300268,None,408.5296199300268,None,408.5296199300268,None,,,,,,,,,,,120,30,Female,2022-05-06_15h28.57.258,Boat,2022.1.1,60.14592602957879,
positive,positive,2,l,j,,,,,,,,,7,11,137,11,,,,,,,,,,,,,,,,,,,,,,,,main,2,2,2,positive,positive,l,l,1,0.7261278999503702,408.5497895000153,409.5674714000197,409.52891250001267,None,408.5497895000153,None,408.5497895000153,None,408.5497895000153,None,410.25624903001005,None,410.25624903001005,None,410.25624903001005,None,,,,,,,,,,,120,30,Female,2022-05-06_15h28.57.258,Boat,2022.1.1,60.14592602957879,
positive,neutral,1,l,j,,,,,,,,,7,12,138,8,,,,,,,,,,,,,,,,,,,,,,,,main,2,2,1,neutral,positive,l,l,1,0.7204255000106059,410.27687399997376,411.29546460002894,411.25069790001726,None,410.27687399997376,None,410.27687399997376,None,410.27687399997376,None,411.9810049299907,None,411.9810049299907,None,411.9810049299907,None,,,,,,,,,,,120,30,Female,2022-05-06_15h28.57.258,Boat,2022.1.1,60.14592602957879,
positive,neutral,2,l,j,,,,,,,,,7,13,139,17,,,,,,,,,,,,,,,,,,,,,,,,main,2,2,2,neutral,positive,l,l,1,0.7334100999869406,411.9996237999876,413.00147359998664,412.98426699999254,None,411.9996237999876,None,411.9996237999876,None,411.9996237999876,None,413.7166609300242,None,413.7166609300242,None,413.7166609300242,None,,,,,,,,,,,120,30,Female,2022-05-06_15h28.57.258,Boat,2022.1.1,60.14592602957879,
neutral,positive,2,k,k,,,,,,,,,7,14,140,13,,,,,,,,,,,,,,,,,,,,,,,,main,1,1,2,positive,neutral,k,k,1,0.8369317000033334,413.73616959998617,414.7524023000151,414.7179017000017,None,413.73616959998617,None,413.73616959998617,None,413.73616959998617,None,415.5565776299976,None,415.5565776299976,None,415.5565776299976,None,,,,,,,,,,,120,30,Female,2022-05-06_15h28.57.258,Boat,2022.1.1,60.14592602957879,
negative,neutral,2,j,l,,,,,,,,,7,15,141,12,,,,,,,,,,,,,,,,,,,,,,,,main,2,2,2,neutral,negative,j,j,1,0.8924641999765299,415.57420670002466,416.5790292000165,416.5592763000168,None,415.57420670002466,None,415.57420670002466,None,415.57420670002466,None,417.4517722299846,None,417.4517722299846,None,417.4517722299846,None,,,,,,,,,,,120,30,Female,2022-05-06_15h28.57.258,Boat,2022.1.1,60.14592602957879,
negative,negative,2,j,l,,,,,,,,,7,16,142,9,,,,,,,,,,,,,,,,,,,,,,,,main,1,1,2,negative,negative,j,j,1,0.7966883999761194,417.4702367000282,418.46989499998745,418.4526579999947,None,417.4702367000282,None,417.4702367000282,None,417.4702367000282,None,419.251189530018,None,419.251189530018,None,419.251189530018,None,,,,,,,,,,,120,30,Female,2022-05-06_15h28.57.258,Boat,2022.1.1,60.14592602957879,
negative,neutral,1,j,l,,,,,,,,,7,17,143,3,,,,,,,,,,,,,,,,,,,,,,,,main,2,2,1,neutral,negative,j,j,1,0.9448812999762595,419.2717349000159,420.284372300026,420.2456889000023,None,419.2717349000159,None,419.2717349000159,None,419.2717349000159,None,421.20093182998824,None,421.20093182998824,None,421.20093182998824,None,,,,,,,,,,,120,30,Female,2022-05-06_15h28.57.258,Boat,2022.1.1,60.14592602957879,
positive,positive,1,l,j,,,,,,,,,8,0,144,2,,,,,,,,,,,,,,,,,,,,,,,,main,1,1,1,positive,positive,l,l,1,0.8479873000178486,421.21796669997275,422.2289465999929,422.2090530000278,None,421.21796669997275,None,421.21796669997275,None,421.21796669997275,None,423.05115983001303,None,423.05115983001303,None,423.05115983001303,None,,,,,,,,,,,120,30,Female,2022-05-06_15h28.57.258,Boat,2022.1.1,60.14592602957879,
negative,positive,1,j,l,,,,,,,,,8,1,145,6,,,,,,,,,,,,,,,,,,,,,,,,main,2,2,1,positive,negative,j,j,1,0.9609890999854542,423.0701298000058,424.08463669999037,424.045818899991,None,423.0701298000058,None,423.0701298000058,None,423.0701298000058,None,425.01633542997877,None,425.01633542997877,None,425.01633542997877,None,,,,,,,,,,,120,30,Female,2022-05-06_15h28.57.258,Boat,2022.1.1,60.14592602957879,
neutral,negative,2,k,k,,,,,,,,,8,2,146,16,,,,,,,,,,,,,,,,,,,,,,,,main,1,1,2,negative,neutral,k,k,1,0.8085816000238992,425.03446789999725,426.0361711999867,426.01875599997584,None,425.03446789999725,None,425.03446789999725,None,425.03446789999725,None,426.82927352999684,None,426.82927352999684,None,426.82927352999684,None,,,,,,,,,,,120,30,Female,2022-05-06_15h28.57.258,Boat,2022.1.1,60.14592602957879,
positive,neutral,1,l,j,,,,,,,,,8,3,147,8,,,,,,,,,,,,,,,,,,,,,,,,main,2,2,1,neutral,positive,l,l,1,0.7127706999890506,426.84937509999145,427.8628574999748,427.8225592999952,None,426.84937509999145,None,426.84937509999145,None,426.84937509999145,None,428.5443546299997,None,428.5443546299997,None,428.5443546299997,None,,,,,,,,,,,120,30,Female,2022-05-06_15h28.57.258,Boat,2022.1.1,60.14592602957879,
positive,negative,1,l,j,,,,,,,,,8,4,148,5,,,,,,,,,,,,,,,,,,,,,,,,main,2,2,1,negative,positive,l,l,1,0.7446438000188209,428.5651288999943,429.5693433000124,429.5517168000224,None,428.5651288999943,None,428.5651288999943,None,428.5651288999943,None,430.29030413000726,None,430.29030413000726,None,430.29030413000726,None,,,,,,,,,,,120,30,Female,2022-05-06_15h28.57.258,Boat,2022.1.1,60.14592602957879,
negative,negative,2,j,l,,,,,,,,,8,5,149,9,,,,,,,,,,,,,,,,,,,,,,,,main,2,2,2,negative,negative,j,j,1,0.8075276000308804,430.31261349999113,431.32359380001435,431.2875996999792,None,430.31261349999113,None,430.31261349999113,None,430.31261349999113,None,432.10126632999743,None,432.10126632999743,None,432.10126632999743,None,,,,,,,,,,,120,30,Female,2022-05-06_15h28.57.258,Boat,2022.1.1,60.14592602957879,
neutral,negative,1,k,k,,,,,,,,,8,6,150,7,,,,,,,,,,,,,,,,,,,,,,,,main,2,2,1,negative,neutral,k,k,1,0.6718468000181019,432.119243299996,433.1185215000296,433.1016123999725,None,432.119243299996,None,432.119243299996,None,432.119243299996,None,433.7736322300101,None,433.7736322300101,None,433.7736322300101,None,,,,,,,,,,,120,30,Female,2022-05-06_15h28.57.258,Boat,2022.1.1,60.14592602957879,
neutral,neutral,1,k,k,,,,,,,,,8,7,151,1,,,,,,,,,,,,,,,,,,,,,,,,main,2,2,1,neutral,neutral,k,k,1,0.6286311000003479,433.79739899997367,434.80243470001733,434.7850935999886,None,433.79739899997367,None,433.79739899997367,None,433.79739899997367,None,435.40834512998697,None,435.40834512998697,None,435.40834512998697,None,,,,,,,,,,,120,30,Female,2022-05-06_15h28.57.258,Boat,2022.1.1,60.14592602957879,
neutral,positive,2,k,k,,,,,,,,,8,8,152,13,,,,,,,,,,,,,,,,,,,,,,,,main,1,1,2,positive,neutral,k,k,1,0.7104722000076436,435.42813580000075,436.44997150002746,436.40950230002636,None,435.42813580000075,None,435.42813580000075,None,435.42813580000075,None,437.11985622998907,None,437.11985622998907,None,437.11985622998907,None,,,,,,,,,,,120,30,Female,2022-05-06_15h28.57.258,Boat,2022.1.1,60.14592602957879,
neutral,neutral,2,k,k,,,,,,,,,8,9,153,10,,,,,,,,,,,,,,,,,,,,,,,,main,2,2,2,neutral,neutral,k,k,1,0.6228451000060886,437.13847359997453,438.15391069999896,438.11606610001763,None,437.13847359997453,None,437.13847359997453,None,437.13847359997453,None,438.7467725300288,None,438.7467725300288,None,438.7467725300288,None,,,,,,,,,,,120,30,Female,2022-05-06_15h28.57.258,Boat,2022.1.1,60.14592602957879,
negative,neutral,1,j,l,,,,,,,,,8,10,154,3,,,,,,,,,,,,,,,,,,,,,,,,main,1,1,1,neutral,negative,j,j,1,1.0196036000270396,438.7679346000077,439.7848731999984,439.7463738999795,None,438.7679346000077,None,438.7679346000077,None,438.7679346000077,None,440.7683073299762,None,440.7683073299762,None,440.7683073299762,None,,,,,,,,,,,120,30,Female,2022-05-06_15h28.57.258,Boat,2022.1.1,60.14592602957879,
positive,positive,2,l,j,,,,,,,,,8,11,155,11,,,,,,,,,,,,,,,,,,,,,,,,main,2,2,2,positive,positive,l,k,0,0.5840865000500344,440.7870167000219,441.80191099998774,441.76855290000094,None,440.7870167000219,None,440.7870167000219,None,440.7870167000219,None,442.36334109999007,None,442.36334109999007,None,442.36334109999007,None,,,,,,,,,,,120,30,Female,2022-05-06_15h28.57.258,Boat,2022.1.1,60.14592602957879,
negative,negative,1,j,l,,,,,,,,,8,12,156,0,,,,,,,,,,,,,,,,,,,,,,,,main,1,1,1,negative,negative,j,j,1,0.8965226000291295,443.371502999973,444.3817282000091,444.3582660999964,None,443.371502999973,None,443.371502999973,None,443.371502999973,None,445.25215833000254,None,445.25215833000254,None,445.25215833000254,None,,,,,,,,,,,120,30,Female,2022-05-06_15h28.57.258,Boat,2022.1.1,60.14592602957879,
neutral,positive,1,k,k,,,,,,,,,8,13,157,4,,,,,,,,,,,,,,,,,,,,,,,,main,1,1,1,positive,neutral,k,k,1,0.8184218999813311,445.27035910001723,446.2852835999802,446.2495173999923,None,445.27035910001723,None,445.27035910001723,None,445.27035910001723,None,447.0758136300195,None,447.0758136300195,None,447.0758136300195,None,,,,,,,,,,,120,30,Female,2022-05-06_15h28.57.258,Boat,2022.1.1,60.14592602957879,
negative,neutral,2,j,l,,,,,,,,,8,14,158,12,,,,,,,,,,,,,,,,,,,,,,,,main,2,2,2,neutral,negative,j,j,1,0.8432597000501119,447.09390670002904,448.1059218000155,448.06795200001216,None,447.09390670002904,None,447.09390670002904,None,447.09390670002904,None,448.91915923002523,None,448.91915923002523,None,448.91915923002523,None,,,,,,,,,,,120,30,Female,2022-05-06_15h28.57.258,Boat,2022.1.1,60.14592602957879,
positive,negative,2,l,j,,,,,,,,,8,15,159,14,,,,,,,,,,,,,,,,,,,,,,,,main,2,2,2,negative,positive,l,l,1,0.7055273000150919,448.9393742000102,449.946405900002,449.9266730999807,None,448.9393742000102,None,448.9393742000102,None,448.9393742000102,None,450.6299614299845,None,450.6299614299845,None,450.6299614299845,None,,,,,,,,,,,120,30,Female,2022-05-06_15h28.57.258,Boat,2022.1.1,60.14592602957879,
negative,positive,2,j,l,,,,,,,,,8,16,160,15,,,,,,,,,,,,,,,,,,,,,,,,main,2,2,2,positive,negative,j,j,1,0.8076031000236981,450.6468979999772,451.6518354000291,451.61821659997804,None,450.6468979999772,None,450.6468979999772,None,450.6468979999772,None,452.43844852998734,None,452.43844852998734,None,452.43844852998734,None,,,,,,,,,,,120,30,Female,2022-05-06_15h28.57.258,Boat,2022.1.1,60.14592602957879,
positive,neutral,2,l,j,,,,,,,,,8,17,161,17,,,,,,,,,,,,,,,,,,,,,,,,main,2,2,2,neutral,positive,l,l,1,0.7495337000000291,452.4568362000282,453.47041399998125,453.4350038000266,None,452.4568362000282,None,452.4568362000282,None,452.4568362000282,None,454.191363730008,None,454.191363730008,None,454.191363730008,None,,,,,,,,,,,120,30,Female,2022-05-06_15h28.57.258,Boat,2022.1.1,60.14592602957879,
positive,negative,2,l,j,,,,,,,,,9,0,162,14,,,,,,,,,,,,,,,,,,,,,,,,main,1,1,2,negative,positive,l,l,1,0.6803315000142902,454.2134632000234,455.22018060000846,455.18512420001207,None,454.2134632000234,None,454.2134632000234,None,454.2134632000234,None,455.87545593001994,None,455.87545593001994,None,455.87545593001994,None,,,,,,,,,,,120,30,Female,2022-05-06_15h28.57.258,Boat,2022.1.1,60.14592602957879,
negative,negative,1,j,l,,,,,,,,,9,1,163,0,,,,,,,,,,,,,,,,,,,,,,,,main,2,2,1,negative,negative,j,j,1,0.7304726999718696,455.8918275000178,456.90214339998784,456.88530570000876,None,455.8918275000178,None,455.8918275000178,None,455.8918275000178,None,457.6062107299862,None,457.6062107299862,None,457.6062107299862,None,,,,,,,,,,,120,30,Female,2022-05-06_15h28.57.258,Boat,2022.1.1,60.14592602957879,
negative,positive,2,j,l,,,,,,,,,9,2,164,15,,,,,,,,,,,,,,,,,,,,,,,,main,2,2,2,positive,negative,j,j,1,0.8834571000188589,457.6244480999885,458.63383770000655,458.61357679998036,None,457.6244480999885,None,457.6244480999885,None,457.6244480999885,None,459.49066622998214,None,459.49066622998214,None,459.49066622998214,None,,,,,,,,,,,120,30,Female,2022-05-06_15h28.57.258,Boat,2022.1.1,60.14592602957879,
positive,neutral,1,l,j,,,,,,,,,9,3,165,8,,,,,,,,,,,,,,,,,,,,,,,,main,1,1,1,neutral,positive,l,l,1,0.7090550999855623,459.51753499999177,460.5265848999843,460.50005759997293,None,459.51753499999177,None,459.51753499999177,None,459.51753499999177,None,461.2048509300279,None,461.2048509300279,None,461.2048509300279,None,,,,,,,,,,,120,30,Female,2022-05-06_15h28.57.258,Boat,2022.1.1,60.14592602957879,
positive,positive,1,l,j,,,,,,,,,9,4,166,2,,,,,,,,,,,,,,,,,,,,,,,,main,2,2,1,positive,positive,l,l,1,0.7116756000323221,461.22284399997443,462.24326680001104,462.1967012999812,None,461.22284399997443,None,461.22284399997443,None,461.22284399997443,None,462.919257130014,None,462.919257130014,None,462.919257130014,None,,,,,,,,,,,120,30,Female,2022-05-06_15h28.57.258,Boat,2022.1.1,60.14592602957879,
positive,positive,2,l,j,,,,,,,,,9,5,167,11,,,,,,,,,,,,,,,,,,,,,,,,main,2,2,2,positive,positive,l,l,1,0.7165507000172511,462.9379263999872,463.94025480002165,463.92204690002836,None,462.9379263999872,None,462.9379263999872,None,462.9379263999872,None,464.63799762999986,None,464.63799762999986,None,464.63799762999986,None,,,,,,,,,,,120,30,Female,2022-05-06_15h28.57.258,Boat,2022.1.1,60.14592602957879,
neutral,negative,2,k,k,,,,,,,,,9,6,168,16,,,,,,,,,,,,,,,,,,,,,,,,main,2,2,2,negative,neutral,k,k,1,0.7078709999914281,464.65614719997393,465.670177699998,465.63546900002984,None,464.65614719997393,None,464.65614719997393,None,464.65614719997393,None,466.35070042999575,None,466.35070042999575,None,466.35070042999575,None,,,,,,,,,,,120,30,Female,2022-05-06_15h28.57.258,Boat,2022.1.1,60.14592602957879,
negative,negative,2,j,l,,,,,,,,,9,7,169,9,,,,,,,,,,,,,,,,,,,,,,,,main,2,2,2,negative,negative,j,j,1,0.8640168000129052,466.368057899992,467.369311699993,467.3521993000177,None,466.368057899992,None,466.368057899992,None,466.368057899992,None,468.2179274300055,None,468.2179274300055,None,468.2179274300055,None,,,,,,,,,,,120,30,Female,2022-05-06_15h28.57.258,Boat,2022.1.1,60.14592602957879,
neutral,neutral,2,k,k,,,,,,,,,9,8,170,10,,,,,,,,,,,,,,,,,,,,,,,,main,2,2,2,neutral,neutral,k,k,1,0.7849905000184663,468.23649229999864,469.2519987000269,469.2171397000202,None,468.23649229999864,None,468.23649229999864,None,468.23649229999864,None,470.00472773000945,None,470.00472773000945,None,470.00472773000945,None,,,,,,,,,,,120,30,Female,2022-05-06_15h28.57.258,Boat,2022.1.1,60.14592602957879,
neutral,neutral,1,k,k,,,,,,,,,9,9,171,1,,,,,,,,,,,,,,,,,,,,,,,,main,1,1,1,neutral,neutral,k,k,1,0.8523486999911256,470.02310649998253,471.0323322999757,471.0132899999735,None,470.02310649998253,None,470.02310649998253,None,470.02310649998253,None,471.861897429981,None,471.861897429981,None,471.861897429981,None,,,,,,,,,,,120,30,Female,2022-05-06_15h28.57.258,Boat,2022.1.1,60.14592602957879,
neutral,positive,2,k,k,,,,,,,,,9,10,172,13,,,,,,,,,,,,,,,,,,,,,,,,main,2,2,2,positive,neutral,k,k,1,0.774962899973616,471.88278109999374,472.88605989998905,472.8521447000094,None,471.88278109999374,None,471.88278109999374,None,471.88278109999374,None,473.637815630011,None,473.637815630011,None,473.637815630011,None,,,,,,,,,,,120,30,Female,2022-05-06_15h28.57.258,Boat,2022.1.1,60.14592602957879,
positive,neutral,2,l,j,,,,,,,,,9,11,173,17,,,,,,,,,,,,,,,,,,,,,,,,main,1,1,2,neutral,positive,l,l,1,0.7152904000249691,473.65702779998537,474.669317300024,474.63553780002985,None,473.65702779998537,None,473.65702779998537,None,473.65702779998537,None,475.35857972998053,None,475.35857972998053,None,475.35857972998053,None,,,,,,,,,,,120,30,Female,2022-05-06_15h28.57.258,Boat,2022.1.1,60.14592602957879,
positive,negative,1,l,j,,,,,,,,,9,12,174,5,,,,,,,,,,,,,,,,,,,,,,,,main,2,2,1,negative,positive,l,l,1,0.7424851999967359,475.38048019999405,476.39323079999303,476.35676120000426,None,475.38048019999405,None,475.38048019999405,None,475.38048019999405,None,477.1026172299811,None,477.1026172299811,None,477.1026172299811,None,,,,,,,,,,,120,30,Female,2022-05-06_15h28.57.258,Boat,2022.1.1,60.14592602957879,
neutral,positive,1,k,k,,,,,,,,,9,13,175,4,,,,,,,,,,,,,,,,,,,,,,,,main,1,1,1,positive,neutral,k,k,1,0.6265335999778472,477.1219501000014,478.13572100002784,478.0970499999821,None,477.1219501000014,None,477.1219501000014,None,477.1219501000014,None,478.7344590299821,None,478.7344590299821,None,478.7344590299821,None,,,,,,,,,,,120,30,Female,2022-05-06_15h28.57.258,Boat,2022.1.1,60.14592602957879,
negative,positive,1,j,l,,,,,,,,,9,14,176,6,,,,,,,,,,,,,,,,,,,,,,,,main,1,1,1,positive,negative,j,j,1,0.9429218000150286,478.7516131000011,479.75227170001017,479.73568330000853,None,478.7516131000011,None,478.7516131000011,None,478.7516131000011,None,480.6812322299869,None,480.6812322299869,None,480.6812322299869,None,,,,,,,,,,,120,30,Female,2022-05-06_15h28.57.258,Boat,2022.1.1,60.14592602957879,
negative,neutral,2,j,l,,,,,,,,,9,15,177,12,,,,,,,,,,,,,,,,,,,,,,,,main,2,2,2,neutral,negative,j,j,1,0.7994503999943845,480.70201880001696,481.7196733999881,481.684192500019,None,480.70201880001696,None,480.70201880001696,None,480.70201880001696,None,482.4829695299908,None,482.4829695299908,None,482.4829695299908,None,,,,,,,,,,,120,30,Female,2022-05-06_15h28.57.258,Boat,2022.1.1,60.14592602957879,
neutral,negative,1,k,k,,,,,,,,,9,16,178,7,,,,,,,,,,,,,,,,,,,,,,,,main,2,2,1,negative,neutral,k,k,1,0.6388898999430239,482.5016667000018,483.51908970001386,483.4803733000299,None,482.5016667000018,None,482.5016667000018,None,482.5016667000018,None,484.1231603300024,None,484.1231603300024,None,484.1231603300024,None,,,,,,,,,,,120,30,Female,2022-05-06_15h28.57.258,Boat,2022.1.1,60.14592602957879,
negative,neutral,1,j,l,,,,,,,,,9,17,179,3,,,,,,,,,,,,,,,,,,,,,,,,main,2,2,1,neutral,negative,j,j,1,0.8373326999717392,484.1415027999901,485.15454030002,485.1173481000005,None,484.1415027999901,None,484.1415027999901,None,484.1415027999901,None,485.9652881299902,None,485.9652881299902,None,485.9652881299902,None,,,,,,,,,,,120,30,Female,2022-05-06_15h28.57.258,Boat,2022.1.1,60.14592602957879,
negative,neutral,1,j,l,,,,,,,,,10,0,180,3,,,,,,,,,,,,,,,,,,,,,,,,main,2,2,1,neutral,negative,j,j,1,0.6664931999985129,485.98372830002336,486.988059299998,486.9528093999834,None,485.98372830002336,None,485.98372830002336,None,485.98372830002336,None,487.63323212997636,None,487.63323212997636,None,487.63323212997636,None,,,,,,,,,,,120,30,Female,2022-05-06_15h28.57.258,Boat,2022.1.1,60.14592602957879,
positive,negative,2,l,j,,,,,,,,,10,1,181,14,,,,,,,,,,,,,,,,,,,,,,,,main,1,1,2,negative,positive,l,l,1,0.8356119000236504,487.65184820001014,488.6608455000096,488.63626920001116,None,487.65184820001014,None,487.65184820001014,None,487.65184820001014,None,489.47255543002973,None,489.47255543002973,None,489.47255543002973,None,,,,,,,,,,,120,30,Female,2022-05-06_15h28.57.258,Boat,2022.1.1,60.14592602957879,
positive,neutral,1,l,j,,,,,,,,,10,2,182,8,,,,,,,,,,,,,,,,,,,,,,,,main,2,2,1,neutral,positive,l,l,1,0.812406999990344,489.49168159998953,490.5106520000263,490.469260199985,None,489.49168159998953,None,489.49168159998953,None,489.49168159998953,None,491.2884872300259,None,491.2884872300259,None,491.2884872300259,None,,,,,,,,,,,120,30,Female,2022-05-06_15h28.57.258,Boat,2022.1.1,60.14592602957879,
positive,positive,2,l,j,,,,,,,,,10,3,183,11,,,,,,,,,,,,,,,,,,,,,,,,main,2,2,2,positive,positive,l,l,1,0.7293838000041433,491.3068147000158,492.32724700000836,492.28081389999716,None,491.3068147000158,None,491.3068147000158,None,491.3068147000158,None,493.0197705300001,None,493.0197705300001,None,493.0197705300001,None,,,,,,,,,,,120,30,Female,2022-05-06_15h28.57.258,Boat,2022.1.1,60.14592602957879,
positive,negative,1,l,j,,,,,,,,,10,4,184,5,,,,,,,,,,,,,,,,,,,,,,,,main,1,1,1,negative,positive,l,l,1,0.7245530000072904,493.0403016000055,494.0606559999869,494.01946769998176,None,493.0403016000055,None,493.0403016000055,None,493.0403016000055,None,494.7496651299938,None,494.7496651299938,None,494.7496651299938,None,,,,,,,,,,,120,30,Female,2022-05-06_15h28.57.258,Boat,2022.1.1,60.14592602957879,
neutral,neutral,2,k,k,,,,,,,,,10,5,185,10,,,,,,,,,,,,,,,,,,,,,,,,main,2,2,2,neutral,neutral,k,k,1,0.8326974000083283,494.76796660001855,495.7805646000197,495.7420924999751,None,494.76796660001855,None,494.76796660001855,None,494.76796660001855,None,496.5850497300329,None,496.5850497300329,None,496.5850497300329,None,,,,,,,,,,,120,30,Female,2022-05-06_15h28.57.258,Boat,2022.1.1,60.14592602957879,
negative,negative,1,j,l,,,,,,,,,10,6,186,0,,,,,,,,,,,,,,,,,,,,,,,,main,1,1,1,negative,negative,j,j,1,0.8562664000201039,496.60193030000664,497.60264230001485,497.58599380002124,None,496.60193030000664,None,496.60193030000664,None,496.60193030000664,None,498.4423176299955,None,498.4423176299955,None,498.4423176299955,None,,,,,,,,,,,120,30,Female,2022-05-06_15h28.57.258,Boat,2022.1.1,60.14592602957879,
neutral,negative,1,k,k,,,,,,,,,10,7,187,7,,,,,,,,,,,,,,,,,,,,,,,,main,2,2,1,negative,neutral,k,k,1,0.628202699997928,498.4668947000173,499.4809801999945,499.43595040001674,None,498.4668947000173,None,498.4668947000173,None,498.4668947000173,None,500.07344102999775,None,500.07344102999775,None,500.07344102999775,None,,,,,,,,,,,120,30,Female,2022-05-06_15h28.57.258,Boat,2022.1.1,60.14592602957879,
neutral,negative,2,k,k,,,,,,,,,10,8,188,16,,,,,,,,,,,,,,,,,,,,,,,,main,2,2,2,negative,neutral,k,k,1,0.5530123999924399,500.0923266999889,501.11351990001276,501.0739776000264,None,500.0923266999889,None,500.0923266999889,None,500.0923266999889,None,501.6314012300048,None,501.6314012300048,None,501.6314012300048,None,,,,,,,,,,,120,30,Female,2022-05-06_15h28.57.258,Boat,2022.1.1,60.14592602957879,
negative,positive,2,j,l,,,,,,,,,10,9,189,15,,,,,,,,,,,,,,,,,,,,,,,,main,1,1,2,positive,negative,j,j,1,1.0084526999853551,501.65179099998204,502.653844400018,502.63639910001075,None,501.65179099998204,None,501.65179099998204,None,501.65179099998204,None,503.63976783003307,None,503.63976783003307,None,503.63976783003307,None,,,,,,,,,,,120,30,Female,2022-05-06_15h28.57.258,Boat,2022.1.1,60.14592602957879,
positive,positive,1,l,j,,,,,,,,,10,10,190,2,,,,,,,,,,,,,,,,,,,,,,,,main,1,1,1,positive,positive,l,l,1,0.7862320999847725,503.65921050001634,504.67792799999006,504.63608859997476,None,503.65921050001634,None,503.65921050001634,None,503.65921050001634,None,505.43148623000013,None,505.43148623000013,None,505.43148623000013,None,,,,,,,,,,,120,30,Female,2022-05-06_15h28.57.258,Boat,2022.1.1,60.14592602957879,
negative,negative,2,j,l,,,,,,,,,10,11,191,9,,,,,,,,,,,,,,,,,,,,,,,,main,1,1,2,negative,negative,j,j,1,0.7583067000377923,505.4480251999921,506.45283379999455,506.43418580002617,None,505.4480251999921,None,505.4480251999921,None,505.4480251999921,None,507.19049323001525,None,507.19049323001525,None,507.19049323001525,None,,,,,,,,,,,120,30,Female,2022-05-06_15h28.57.258,Boat,2022.1.1,60.14592602957879,
positive,neutral,2,l,j,,,,,,,,,10,12,192,17,,,,,,,,,,,,,,,,,,,,,,,,main,1,1,2,neutral,positive,l,l,1,0.7596846999949776,507.2086865999736,508.22237360000145,508.1865274999873,None,507.2086865999736,None,507.2086865999736,None,507.2086865999736,None,508.9531106299895,None,508.9531106299895,None,508.9531106299895,None,,,,,,,,,,,120,30,Female,2022-05-06_15h28.57.258,Boat,2022.1.1,60.14592602957879,
neutral,positive,1,k,k,,,,,,,,,10,13,193,4,,,,,,,,,,,,,,,,,,,,,,,,main,2,2,1,positive,neutral,k,k,1,0.7184023000299931,508.9713315999834,509.988534300006,509.95048150001094,None,508.9713315999834,None,508.9713315999834,None,508.9713315999834,None,510.674439330009,None,510.674439330009,None,510.674439330009,None,,,,,,,,,,,120,30,Female,2022-05-06_15h28.57.258,Boat,2022.1.1,60.14592602957879,
negative,neutral,2,j,l,,,,,,,,,10,14,194,12,,,,,,,,,,,,,,,,,,,,,,,,main,2,2,2,neutral,negative,j,j,1,0.8731140000163577,510.6923777000047,511.7040606000228,511.66909330000635,None,510.6923777000047,None,510.6923777000047,None,510.6923777000047,None,512.5517330300121,None,512.5517330300121,None,512.5517330300121,None,,,,,,,,,,,120,30,Female,2022-05-06_15h28.57.258,Boat,2022.1.1,60.14592602957879,
negative,positive,1,j,l,,,,,,,,,10,15,195,6,,,,,,,,,,,,,,,,,,,,,,,,main,2,2,1,positive,negative,j,j,1,0.7632402000017464,512.5713804999832,513.5862445000093,513.5478322000126,None,512.5713804999832,None,512.5713804999832,None,512.5713804999832,None,514.3195141300151,None,514.3195141300151,None,514.3195141300151,None,,,,,,,,,,,120,30,Female,2022-05-06_15h28.57.258,Boat,2022.1.1,60.14592602957879,
neutral,positive,2,k,k,,,,,,,,,10,16,196,13,,,,,,,,,,,,,,,,,,,,,,,,main,1,1,2,positive,neutral,k,k,1,0.7361882000113837,514.3364151000278,515.3373481999733,515.3197955000214,None,514.3364151000278,None,514.3364151000278,None,514.3364151000278,None,516.0594710300269,None,516.0594710300269,None,516.0594710300269,None,,,,,,,,,,,120,30,Female,2022-05-06_15h28.57.258,Boat,2022.1.1,60.14592602957879,
neutral,neutral,1,k,k,,,,,,,,,10,17,197,1,,,,,,,,,,,,,,,,,,,,,,,,main,2,2,1,neutral,neutral,k,k,1,0.6409858000115491,516.0762547000195,517.0868825999787,517.0531081000227,None,516.0762547000195,None,516.0762547000195,None,516.0762547000195,None,517.7031547299761,None,517.7031547299761,None,517.7031547299761,None,,,,,,,,,,,120,30,Female,2022-05-06_15h28.57.258,Boat,2022.1.1,60.14592602957879,
negative,negative,1,j,l,,,,,,,,,11,0,198,0,,,,,,,,,,,,,,,,,,,,,,,,main,2,2,1,negative,negative,j,j,1,1.4455336999963038,517.7205011000042,518.7351215999806,518.7145688000019,None,517.7205011000042,None,517.7205011000042,None,517.7205011000042,None,520.1514891299943,None,520.1514891299943,None,520.1514891299943,None,,,,,,,,,,,120,30,Female,2022-05-06_15h28.57.258,Boat,2022.1.1,60.14592602957879,
positive,neutral,2,l,j,,,,,,,,,11,1,199,17,,,,,,,,,,,,,,,,,,,,,,,,main,1,1,2,neutral,positive,l,l,1,0.8372979999985546,520.168795000005,521.1701219999813,521.1532301999978,None,520.168795000005,None,520.168795000005,None,520.168795000005,None,521.9902422300132,None,521.9902422300132,None,521.9902422300132,None,,,,,,,,,,,120,30,Female,2022-05-06_15h28.57.258,Boat,2022.1.1,60.14592602957879,
negative,positive,1,j,l,,,,,,,,,11,2,200,6,,,,,,,,,,,,,,,,,,,,,,,,main,2,2,1,positive,negative,j,j,1,0.7898279000073671,522.0098542000051,523.0200640999828,523.0025799000286,None,522.0098542000051,None,522.0098542000051,None,522.0098542000051,None,523.7851097299775,None,523.7851097299775,None,523.7851097299775,None,,,,,,,,,,,120,30,Female,2022-05-06_15h28.57.258,Boat,2022.1.1,60.14592602957879,
positive,negative,2,l,j,,,,,,,,,11,3,201,14,,,,,,,,,,,,,,,,,,,,,,,,main,1,1,2,negative,positive,l,l,1,0.8010809000115842,523.8020844000275,524.8034659000114,524.7850404999917,None,523.8020844000275,None,523.8020844000275,None,523.8020844000275,None,525.5865779300278,None,525.5865779300278,None,525.5865779300278,None,,,,,,,,,,,120,30,Female,2022-05-06_15h28.57.258,Boat,2022.1.1,60.14592602957879,
positive,neutral,1,l,j,,,,,,,,,11,4,202,8,,,,,,,,,,,,,,,,,,,,,,,,main,2,2,1,neutral,positive,l,l,1,0.7520898999646306,525.6059126000036,526.6281985000242,526.586612300016,None,525.6059126000036,None,525.6059126000036,None,525.6059126000036,None,527.3421009299985,None,527.3421009299985,None,527.3421009299985,None,,,,,,,,,,,120,30,Female,2022-05-06_15h28.57.258,Boat,2022.1.1,60.14592602957879,
neutral,negative,1,k,k,,,,,,,,,11,5,203,7,,,,,,,,,,,,,,,,,,,,,,,,main,2,2,1,negative,neutral,k,k,1,0.7347423000028357,527.3612900000298,528.3709475999931,528.3367605999811,None,527.3612900000298,None,527.3612900000298,None,527.3612900000298,None,529.0815822299977,None,529.0815822299977,None,529.0815822299977,None,,,,,,,,,,,120,30,Female,2022-05-06_15h28.57.258,Boat,2022.1.1,60.14592602957879,
neutral,positive,2,k,k,,,,,,,,,11,6,204,13,,,,,,,,,,,,,,,,,,,,,,,,main,1,1,2,positive,neutral,k,k,1,0.829979199974332,529.0987889000098,530.1051855999976,530.0702156000189,None,529.0987889000098,None,529.0987889000098,None,529.0987889000098,None,530.9137882299896,None,530.9137882299896,None,530.9137882299896,None,,,,,,,,,,,120,30,Female,2022-05-06_15h28.57.258,Boat,2022.1.1,60.14592602957879,
negative,negative,2,j,l,,,,,,,,,11,7,205,9,,,,,,,,,,,,,,,,,,,,,,,,main,1,1,2,negative,negative,j,j,1,0.9062937999842688,530.9356136000133,531.9482264000108,531.9283705999842,None,530.9356136000133,None,530.9356136000133,None,530.9356136000133,None,532.821982830012,None,532.821982830012,None,532.821982830012,None,,,,,,,,,,,120,30,Female,2022-05-06_15h28.57.258,Boat,2022.1.1,60.14592602957879,
positive,positive,2,l,j,,,,,,,,,11,8,206,11,,,,,,,,,,,,,,,,,,,,,,,,main,2,2,2,positive,positive,l,l,1,0.7874940999899991,532.8392595999758,533.854422400007,533.8204777999781,None,532.8392595999758,None,532.8392595999758,None,532.8392595999758,None,534.6126109300006,None,534.6126109300006,None,534.6126109300006,None,,,,,,,,,,,120,30,Female,2022-05-06_15h28.57.258,Boat,2022.1.1,60.14592602957879,
negative,neutral,2,j,l,,,,,,,,,11,9,207,12,,,,,,,,,,,,,,,,,,,,,,,,main,2,2,2,neutral,negative,j,j,1,0.7962919000419788,534.6326767000137,535.6629941000137,535.6386744999909,None,534.6326767000137,None,534.6326767000137,None,534.6326767000137,None,536.4094081299903,None,536.4094081299903,None,536.4094081299903,None,,,,,,,,,,,120,30,Female,2022-05-06_15h28.57.258,Boat,2022.1.1,60.14592602957879,
neutral,negative,2,k,k,,,,,,,,,11,10,208,16,,,,,,,,,,,,,,,,,,,,,,,,main,2,2,2,negative,neutral,k,k,1,0.6927813999936916,536.4354637999786,537.4371550999931,537.4203764999984,None,536.4354637999786,None,536.4354637999786,None,536.4354637999786,None,538.1067893300263,None,538.1067893300263,None,538.1067893300263,None,,,,,,,,,,,120,30,Female,2022-05-06_15h28.57.258,Boat,2022.1.1,60.14592602957879,
